// Data mode  : Full
// Data quality  : High
// Acceleration sensor's range  : 16g
// Gyroscope sensor's range  : 2000dps
//
//ARTIFACT,NUM,DATE,ACC_X,ACC_Y,ACC_Z,GYRO_X,GYRO_Y,GYRO_Z,EOG_L,EOG_R,EOG_H,EOG_V
,1,2023-10-27 12:31:00.10,228,-253,-2031,15,2,-4,-283,-50,-233,166
,2,2023-10-27 12:31:00.11,218,-253,-2032,14,10,-5,-324,68,-392,128
,3,2023-10-27 12:31:00.12,230,-259,-2034,15,7,-5,-283,-50,-233,166
,4,2023-10-27 12:31:00.13,234,-265,-2023,10,9,-9,-334,67,-401,133
,5,2023-10-27 12:31:00.14,238,-261,-2031,8,11,-10,-281,-46,-235,163
,6,2023-10-27 12:31:00.15,226,-252,-2031,9,20,-8,-331,58,-389,136
,7,2023-10-27 12:31:00.16,227,-262,-2025,2,14,-13,-277,-50,-227,163
,8,2023-10-27 12:31:00.17,234,-263,-2031,3,19,-7,-323,54,-377,134
,9,2023-10-27 12:31:00.18,234,-259,-2030,-1,18,-11,-259,-52,-207,155
,10,2023-10-27 12:31:00.19,242,-252,-2033,-2,22,-13,-320,64,-384,128
,11,2023-10-27 12:31:00.20,231,-259,-2035,-1,22,-13,-262,-43,-219,152
,12,2023-10-27 12:31:00.21,241,-253,-2037,-2,20,-16,-335,66,-401,134
,13,2023-10-27 12:31:00.22,230,-257,-2041,0,24,-13,-265,-32,-233,148
,14,2023-10-27 12:31:00.23,233,-260,-2041,1,16,-15,-352,54,-406,149
,15,2023-10-27 12:31:00.24,240,-257,-2041,0,17,-16,-268,-37,-231,152
,16,2023-10-27 12:31:00.25,235,-256,-2042,-1,11,-14,-336,68,-404,134
,17,2023-10-27 12:31:00.26,225,-252,-2040,-3,7,-18,-252,-31,-221,141
,18,2023-10-27 12:31:00.27,239,-265,-2041,0,11,-13,-335,63,-398,136
,19,2023-10-27 12:31:00.28,240,-261,-2038,-1,0,-13,-246,-27,-219,136
,20,2023-10-27 12:31:00.29,229,-261,-2041,-1,1,-13,-333,57,-390,138
,21,2023-10-27 12:31:00.30,238,-267,-2038,-1,2,-6,-243,-35,-208,139
,22,2023-10-27 12:31:00.31,231,-262,-2036,3,1,-5,-351,53,-404,149
,23,2023-10-27 12:31:00.32,232,-258,-2032,3,6,0,-255,-29,-226,142
,24,2023-10-27 12:31:00.33,236,-257,-2036,4,3,-2,-350,58,-408,146
,25,2023-10-27 12:31:00.34,239,-260,-2034,5,9,4,-242,-21,-221,131
,26,2023-10-27 12:31:00.35,245,-260,-2037,11,-3,4,-346,56,-402,145
,27,2023-10-27 12:31:00.36,236,-259,-2035,10,7,9,-243,-28,-215,135
,28,2023-10-27 12:31:00.37,236,-258,-2035,10,4,10,-362,47,-409,157
,29,2023-10-27 12:31:00.38,229,-256,-2037,9,-9,7,-248,-17,-231,132
,30,2023-10-27 12:31:00.39,230,-265,-2036,11,1,14,-362,53,-415,154
,31,2023-10-27 12:31:00.40,229,-256,-2029,12,-2,13,-239,-12,-227,125
,32,2023-10-27 12:31:00.41,224,-252,-2036,10,1,14,-356,62,-418,147
,33,2023-10-27 12:31:00.42,242,-258,-2043,14,-5,13,-234,-5,-229,119
,34,2023-10-27 12:31:00.43,232,-256,-2045,10,-1,11,-358,50,-408,154
,35,2023-10-27 12:31:00.44,236,-258,-2032,10,7,16,-229,-7,-222,118
,36,2023-10-27 12:31:00.45,221,-262,-2035,10,-6,13,-356,46,-402,155
,37,2023-10-27 12:31:00.46,233,-257,-2042,12,3,14,-222,-9,-213,115
,38,2023-10-27 12:31:00.47,233,-263,-2034,12,4,16,-343,50,-393,146
,39,2023-10-27 12:31:00.48,232,-254,-2035,14,-6,14,-214,2,-216,106
,40,2023-10-27 12:31:00.49,224,-255,-2027,10,1,16,-355,48,-403,153
,41,2023-10-27 12:31:00.50,232,-260,-2032,12,1,15,-220,7,-227,106
,42,2023-10-27 12:31:00.51,235,-254,-2043,11,-4,19,-363,46,-409,158
,43,2023-10-27 12:31:00.52,231,-253,-2035,12,-1,17,-220,5,-225,107
,44,2023-10-27 12:31:00.53,237,-256,-2035,12,-6,22,-358,45,-403,156
,45,2023-10-27 12:31:00.54,227,-261,-2034,3,4,19,-213,9,-222,102
,46,2023-10-27 12:31:00.55,233,-252,-2034,4,4,14,-360,48,-408,156
,47,2023-10-27 12:31:00.56,232,-253,-2042,2,18,15,-218,13,-231,102
,48,2023-10-27 12:31:00.57,231,-254,-2028,1,13,12,-373,38,-411,167
,49,2023-10-27 12:31:00.58,228,-256,-2028,0,10,5,-207,15,-222,96
,50,2023-10-27 12:31:00.59,232,-254,-2030,1,11,9,-361,40,-401,160
,51,2023-10-27 12:31:00.60,242,-254,-2037,3,9,11,-200,18,-218,91
,52,2023-10-27 12:31:00.61,237,-246,-2029,1,5,7,-357,37,-394,160
,53,2023-10-27 12:31:00.62,226,-244,-2033,-1,15,6,-203,27,-230,88
,54,2023-10-27 12:31:00.63,232,-244,-2026,-4,2,0,-378,35,-413,171
,55,2023-10-27 12:31:00.64,236,-242,-2031,-8,6,-2,-207,29,-236,89
,56,2023-10-27 12:31:00.65,229,-244,-2035,-7,17,-1,-361,41,-402,160
,57,2023-10-27 12:31:00.66,228,-246,-2042,-11,4,-7,-202,32,-234,85
,58,2023-10-27 12:31:00.67,236,-243,-2043,-9,5,-5,-381,38,-419,171
,59,2023-10-27 12:31:00.68,224,-255,-2039,-4,-2,-3,-216,33,-249,91
,60,2023-10-27 12:31:00.69,229,-246,-2034,-4,-4,-4,-386,26,-412,180
,61,2023-10-27 12:31:00.70,239,-243,-2048,-4,-2,-1,-212,32,-244,90
,62,2023-10-27 12:31:00.71,227,-253,-2035,-6,-2,2,-389,33,-422,178
,63,2023-10-27 12:31:00.72,238,-248,-2038,-2,-3,2,-215,38,-253,88
,64,2023-10-27 12:31:00.73,234,-248,-2038,1,-6,7,-380,30,-410,175
,65,2023-10-27 12:31:00.74,238,-246,-2029,2,-6,7,-200,40,-240,80
,66,2023-10-27 12:31:00.75,231,-248,-2034,6,-3,10,-372,29,-401,171
,67,2023-10-27 12:31:00.76,231,-250,-2041,7,-6,11,-196,49,-245,73
,68,2023-10-27 12:31:00.77,232,-252,-2036,7,-5,13,-377,30,-407,173
,69,2023-10-27 12:31:00.78,235,-244,-2031,8,-4,13,-204,44,-248,80
,70,2023-10-27 12:31:00.79,233,-255,-2030,12,5,13,-379,26,-405,176
,71,2023-10-27 12:31:00.80,232,-253,-2032,13,-5,15,-195,51,-246,72
,72,2023-10-27 12:31:00.81,238,-252,-2030,16,-8,13,-370,29,-399,170
,73,2023-10-27 12:31:00.82,237,-252,-2029,19,1,17,-187,58,-245,64
,74,2023-10-27 12:31:00.83,236,-250,-2035,21,0,15,-374,26,-400,174
,75,2023-10-27 12:31:00.84,235,-248,-2034,21,5,13,-203,54,-257,74
,76,2023-10-27 12:31:00.85,239,-251,-2036,23,9,9,-386,18,-404,184
,77,2023-10-27 12:31:00.86,232,-251,-2024,29,4,6,-203,53,-256,75
,78,2023-10-27 12:31:00.87,230,-259,-2049,33,-1,5,-378,17,-395,180
,79,2023-10-27 12:31:00.88,236,-251,-2039,25,-2,6,-198,60,-258,69
,80,2023-10-27 12:31:00.89,230,-262,-2041,22,-5,0,-390,13,-403,188
,81,2023-10-27 12:31:00.90,231,-247,-2027,27,-8,-2,-208,56,-264,76
,82,2023-10-27 12:31:00.91,238,-253,-2030,31,-5,-3,-384,17,-401,183
,83,2023-10-27 12:31:00.92,233,-254,-2031,26,-4,-12,-207,64,-271,71
,84,2023-10-27 12:31:00.93,247,-252,-2021,23,-2,-17,-390,11,-401,189
,85,2023-10-27 12:31:00.94,258,-246,-2026,20,8,-20,-204,66,-270,69
,86,2023-10-27 12:31:00.95,261,-251,-2025,24,12,-29,-389,15,-404,187
,87,2023-10-27 12:31:00.96,260,-252,-2027,27,19,-39,-209,75,-284,67
,88,2023-10-27 12:31:00.97,259,-231,-2030,30,20,-46,-396,10,-406,193
,89,2023-10-27 12:31:00.98,271,-239,-2013,36,25,-56,-218,67,-285,75
,90,2023-10-27 12:31:00.99,256,-246,-2004,39,15,-66,-401,4,-405,198
,91,2023-10-27 12:31:01.00,246,-253,-2011,36,24,-75,-218,74,-292,72
,92,2023-10-27 12:31:01.01,242,-270,-2006,42,28,-79,-399,6,-405,196
,93,2023-10-27 12:31:01.02,251,-263,-1988,55,17,-86,-214,69,-283,72
,94,2023-10-27 12:31:01.03,248,-280,-1986,79,8,-90,-387,3,-390,192
,95,2023-10-27 12:31:01.04,248,-276,-2027,89,8,-97,-206,75,-281,65
,96,2023-10-27 12:31:01.05,248,-286,-2060,84,1,-102,-381,9,-390,186
,97,2023-10-27 12:31:01.06,241,-282,-2064,72,11,-108,-224,82,-306,71
,98,2023-10-27 12:31:01.07,232,-281,-2051,67,2,-115,-409,3,-412,203
,99,2023-10-27 12:31:01.08,224,-280,-2068,66,-9,-124,-227,77,-304,75
,100,2023-10-27 12:31:01.09,234,-276,-2068,68,-20,-133,-384,11,-395,186
,101,2023-10-27 12:31:01.10,202,-278,-2065,63,-30,-141,-223,90,-313,66
,102,2023-10-27 12:31:01.11,228,-278,-2050,58,-41,-151,-402,4,-406,199
,103,2023-10-27 12:31:01.12,214,-285,-2044,48,-51,-162,-229,84,-313,72
,104,2023-10-27 12:31:01.13,226,-289,-2061,54,-65,-167,-390,8,-398,191
,105,2023-10-27 12:31:01.14,221,-279,-2091,46,-61,-174,-225,91,-316,67
,106,2023-10-27 12:31:01.15,210,-282,-2066,24,-69,-181,-384,11,-395,186
,107,2023-10-27 12:31:01.16,227,-281,-2071,8,-67,-192,-248,103,-351,72
,108,2023-10-27 12:31:01.17,215,-280,-2062,-4,-59,-200,-417,4,-421,206
,109,2023-10-27 12:31:01.18,222,-276,-2044,-10,-51,-211,-259,87,-346,86
,110,2023-10-27 12:31:01.19,214,-270,-2041,-9,-59,-219,-412,-6,-406,209
,111,2023-10-27 12:31:01.20,215,-278,-2024,-17,-66,-225,-257,81,-338,88
,112,2023-10-27 12:31:01.21,218,-296,-2009,-18,-79,-227,-400,0,-400,200
,113,2023-10-27 12:31:01.22,219,-300,-2028,-8,-93,-230,-259,99,-358,80
,114,2023-10-27 12:31:01.23,225,-310,-2020,-6,-88,-220,-414,-16,-398,215
,115,2023-10-27 12:31:01.24,221,-296,-2027,-12,-86,-215,-277,77,-354,100
,116,2023-10-27 12:31:01.25,218,-303,-2022,-22,-91,-210,-419,-29,-390,224
,117,2023-10-27 12:31:01.26,212,-303,-2004,-26,-93,-201,-236,68,-304,84
,118,2023-10-27 12:31:01.27,228,-311,-2033,-22,-94,-185,-386,-49,-337,217
,119,2023-10-27 12:31:01.28,212,-305,-2054,-37,-93,-175,-228,51,-279,88
,120,2023-10-27 12:31:01.29,221,-291,-2022,-49,-104,-168,-374,-51,-323,212
,121,2023-10-27 12:31:01.30,200,-310,-2037,-55,-103,-151,-222,69,-291,76
,122,2023-10-27 12:31:01.31,203,-327,-2029,-61,-102,-136,-365,-39,-326,202
,123,2023-10-27 12:31:01.32,208,-314,-2034,-59,-109,-121,-208,74,-282,67
,124,2023-10-27 12:31:01.33,202,-316,-2037,-59,-105,-98,-352,-38,-314,195
,125,2023-10-27 12:31:01.34,196,-325,-2011,-66,-100,-85,-212,81,-293,65
,126,2023-10-27 12:31:01.35,226,-319,-2039,-64,-79,-65,-356,-32,-324,194
,127,2023-10-27 12:31:01.36,211,-316,-2036,-57,-94,-44,-214,92,-306,61
,128,2023-10-27 12:31:01.37,216,-309,-2000,-60,-85,-23,-346,-17,-329,181
,129,2023-10-27 12:31:01.38,226,-317,-2019,-53,-76,5,-231,93,-324,69
,130,2023-10-27 12:31:01.39,212,-302,-1990,-57,-72,17,-360,-25,-335,192
,131,2023-10-27 12:31:01.40,231,-297,-2004,-47,-55,45,-227,96,-323,65
,132,2023-10-27 12:31:01.41,231,-297,-2012,-51,-43,59,-351,-23,-328,187
,133,2023-10-27 12:31:01.42,232,-289,-2010,-52,-24,76,-244,104,-348,70
,134,2023-10-27 12:31:01.43,218,-281,-2000,-50,-16,84,-374,-29,-345,201
,135,2023-10-27 12:31:01.44,229,-270,-2011,-43,11,102,-265,94,-359,85
,136,2023-10-27 12:31:01.45,224,-280,-2020,-42,17,115,-370,-44,-326,207
,137,2023-10-27 12:31:01.46,220,-262,-1988,-36,16,128,-248,87,-335,80
,138,2023-10-27 12:31:01.47,204,-259,-2000,-22,17,141,-351,-40,-311,195
,139,2023-10-27 12:31:01.48,224,-246,-1996,-25,19,152,-232,85,-317,73
,140,2023-10-27 12:31:01.49,219,-246,-1997,-22,26,158,-336,-42,-294,189
,141,2023-10-27 12:31:01.50,222,-251,-2009,-26,42,167,-249,83,-332,83
,142,2023-10-27 12:31:01.51,219,-236,-2023,-16,25,166,-348,-50,-298,199
,143,2023-10-27 12:31:01.52,212,-237,-2010,-1,35,172,-256,84,-340,86
,144,2023-10-27 12:31:01.53,213,-245,-2000,12,43,167,-347,-45,-302,196
,145,2023-10-27 12:31:01.54,208,-245,-2026,24,53,168,-251,84,-335,83
,146,2023-10-27 12:31:01.55,225,-254,-2002,44,47,170,-338,-44,-294,191
,147,2023-10-27 12:31:01.56,211,-261,-2029,67,63,168,-279,88,-367,95
,148,2023-10-27 12:31:01.57,212,-256,-2016,75,63,172,-358,-44,-314,201
,149,2023-10-27 12:31:01.58,209,-252,-2049,94,63,177,-296,90,-386,103
,150,2023-10-27 12:31:01.59,201,-247,-2059,94,56,176,-359,-51,-308,205
,151,2023-10-27 12:31:01.60,200,-237,-2051,104,39,174,-291,76,-367,107
,152,2023-10-27 12:31:01.61,201,-250,-2054,102,52,177,-354,-60,-294,207
,153,2023-10-27 12:31:01.62,211,-239,-2047,91,43,176,-289,75,-364,107
,154,2023-10-27 12:31:01.63,223,-247,-2077,77,49,176,-341,-65,-276,203
,155,2023-10-27 12:31:01.64,216,-245,-2051,67,56,177,-278,72,-350,103
,156,2023-10-27 12:31:01.65,224,-257,-2053,65,47,178,-328,-76,-252,202
,157,2023-10-27 12:31:01.66,229,-253,-2034,60,44,185,-261,62,-323,99
,158,2023-10-27 12:31:01.67,228,-242,-2035,54,51,186,-311,-54,-257,182
,159,2023-10-27 12:31:01.68,222,-233,-2058,35,63,188,-270,86,-356,92
,160,2023-10-27 12:31:01.69,223,-216,-2085,-6,65,181,-317,-53,-264,185
,161,2023-10-27 12:31:01.70,227,-220,-2064,-29,71,174,-265,85,-350,90
,162,2023-10-27 12:31:01.71,225,-198,-2065,-38,71,166,-304,-48,-256,176
,163,2023-10-27 12:31:01.72,249,-193,-2049,-39,72,149,-277,78,-355,99
,164,2023-10-27 12:31:01.73,236,-193,-2050,-40,72,136,-311,-54,-257,182
,165,2023-10-27 12:31:01.74,232,-171,-2072,-46,66,120,-298,76,-374,111
,166,2023-10-27 12:31:01.75,226,-162,-2073,-61,37,102,-318,-60,-258,189
,167,2023-10-27 12:31:01.76,246,-146,-2058,-83,33,79,-298,75,-373,111
,168,2023-10-27 12:31:01.77,256,-130,-2055,-97,27,52,-312,-57,-255,184
,169,2023-10-27 12:31:01.78,270,-100,-2056,-114,32,18,-309,77,-386,116
,170,2023-10-27 12:31:01.79,263,-108,-2053,-125,18,-24,-315,-59,-256,187
,171,2023-10-27 12:31:01.80,256,-90,-2065,-134,7,-71,-310,70,-380,120
,172,2023-10-27 12:31:01.81,268,-79,-2077,-137,-6,-124,-300,-64,-236,182
,173,2023-10-27 12:31:01.82,249,-43,-2079,-129,-30,-205,-299,62,-361,118
,174,2023-10-27 12:31:01.83,258,-22,-2078,-113,-51,-291,-295,-70,-225,182
,175,2023-10-27 12:31:01.84,259,-12,-2072,-97,-97,-385,-303,51,-354,126
,176,2023-10-27 12:31:01.85,268,21,-2079,-94,-127,-490,-283,-77,-206,180
,177,2023-10-27 12:31:01.86,279,45,-2070,-89,-157,-608,-288,55,-343,116
,178,2023-10-27 12:31:01.87,259,60,-2062,-80,-189,-749,-276,-74,-202,175
,179,2023-10-27 12:31:01.88,238,105,-2077,-72,-222,-896,-256,63,-319,96
,180,2023-10-27 12:31:01.89,212,128,-2087,-88,-254,-1060,-243,-58,-185,150
,181,2023-10-27 12:31:01.90,222,102,-2046,-117,-263,-1236,-249,54,-303,97
,182,2023-10-27 12:31:01.91,203,92,-2067,-124,-273,-1415,-238,-64,-174,151
,183,2023-10-27 12:31:01.92,205,68,-2096,-137,-288,-1572,-229,55,-284,87
,184,2023-10-27 12:31:01.93,201,32,-2105,-173,-277,-1715,-229,-58,-171,143
,185,2023-10-27 12:31:01.94,195,-12,-2048,-215,-268,-1846,-217,65,-282,76
,186,2023-10-27 12:31:01.95,194,-45,-2058,-228,-278,-1949,-219,-55,-164,137
,187,2023-10-27 12:31:01.96,190,-95,-2071,-235,-278,-2026,-220,62,-282,79
,188,2023-10-27 12:31:01.97,206,-134,-2065,-260,-265,-2074,-215,-51,-164,133
,189,2023-10-27 12:31:01.98,197,-191,-2024,-286,-245,-2100,-217,68,-285,74
,190,2023-10-27 12:31:01.99,205,-242,-2027,-286,-219,-2091,-212,-42,-170,127
,191,2023-10-27 12:31:02.00,207,-251,-2053,-284,-205,-2050,-224,74,-298,75
,192,2023-10-27 12:31:02.01,190,-276,-2037,-309,-180,-1988,-212,-38,-174,125
,193,2023-10-27 12:31:02.02,168,-326,-2038,-326,-155,-1907,-236,78,-314,79
,194,2023-10-27 12:31:02.03,173,-349,-2021,-302,-152,-1803,-214,-29,-185,121
,195,2023-10-27 12:31:02.04,167,-334,-2054,-259,-153,-1677,-258,79,-337,89
,196,2023-10-27 12:31:02.05,155,-320,-2053,-251,-135,-1533,-222,-30,-192,126
,197,2023-10-27 12:31:02.06,151,-291,-2103,-260,-130,-1393,-242,85,-327,78
,198,2023-10-27 12:31:02.07,124,-291,-2100,-267,-115,-1249,-200,-15,-185,107
,199,2023-10-27 12:31:02.08,130,-277,-2123,-254,-131,-1099,-236,81,-317,77
,200,2023-10-27 12:31:02.09,141,-303,-2086,-241,-131,-948,-191,-23,-168,107
,201,2023-10-27 12:31:02.10,122,-207,-2130,-217,-137,-798,-228,74,-302,77
,202,2023-10-27 12:31:02.11,121,-197,-2104,-200,-146,-651,-176,-24,-152,100
,203,2023-10-27 12:31:02.12,107,-191,-2110,-188,-150,-511,-198,78,-276,60
,204,2023-10-27 12:31:02.13,97,-172,-2107,-167,-158,-370,-150,-4,-146,77
,205,2023-10-27 12:31:02.14,105,-131,-2096,-154,-172,-233,-155,75,-230,40
,206,2023-10-27 12:31:02.15,111,-105,-2044,-139,-182,-106,-138,-18,-120,78
,207,2023-10-27 12:31:02.16,133,-100,-1988,-118,-169,4,78,62,16,-70
,208,2023-10-27 12:31:02.17,132,-89,-1951,-90,-136,115,78,-14,92,-32
,209,2023-10-27 12:31:02.18,131,-109,-1920,-58,-115,212,72,62,10,-67
,210,2023-10-27 12:31:02.19,129,-126,-1913,-12,-67,309,-18,-8,-10,13
,211,2023-10-27 12:31:02.20,115,-163,-1931,42,-36,410,-22,55,-77,-16
,212,2023-10-27 12:31:02.21,96,-201,-1974,96,-23,498,-46,-16,-30,31
,213,2023-10-27 12:31:02.22,65,-191,-2024,138,-8,595,-36,39,-75,-1
,214,2023-10-27 12:31:02.23,70,-235,-2036,186,-6,684,-45,-36,-9,40
,215,2023-10-27 12:31:02.24,48,-221,-2031,233,-3,771,-4,36,-40,-16
,216,2023-10-27 12:31:02.25,41,-227,-1984,301,4,838,-13,-20,7,16
,217,2023-10-27 12:31:02.26,36,-212,-2066,378,7,894,-5,38,-43,-16
,218,2023-10-27 12:31:02.27,29,-178,-2122,419,-22,943,-23,-20,-3,21
,219,2023-10-27 12:31:02.28,-4,-162,-2148,432,-50,990,-19,30,-49,-5
,220,2023-10-27 12:31:02.29,2,-140,-2186,424,-56,1027,-1,-6,5,3
,221,2023-10-27 12:31:02.30,-25,-124,-2215,394,-72,1054,3,49,-46,-26
,222,2023-10-27 12:31:02.31,-21,-103,-2177,362,-87,1074,3,-3,6,0
,223,2023-10-27 12:31:02.32,15,-111,-2172,352,-87,1083,1,44,-43,-22
,224,2023-10-27 12:31:02.33,10,-83,-2103,371,-91,1088,5,-3,8,-1
,225,2023-10-27 12:31:02.34,21,-35,-2144,400,-92,1088,6,45,-39,-25
,226,2023-10-27 12:31:02.35,-5,19,-2139,382,-90,1075,24,11,13,-17
,227,2023-10-27 12:31:02.36,22,65,-2090,319,-68,1055,1,46,-45,-23
,228,2023-10-27 12:31:02.37,37,21,-2033,264,-40,1011,16,6,10,-11
,229,2023-10-27 12:31:02.38,54,15,-2000,262,-7,954,1,42,-41,-21
,230,2023-10-27 12:31:02.39,37,25,-1993,289,59,907,21,8,13,-14
,231,2023-10-27 12:31:02.40,52,38,-1990,311,118,851,-7,37,-44,-15
,232,2023-10-27 12:31:02.41,22,3,-1983,346,161,791,17,17,0,-17
,233,2023-10-27 12:31:02.42,12,1,-1999,395,179,737,-49,32,-81,8
,234,2023-10-27 12:31:02.43,34,-22,-1987,457,171,690,-18,9,-27,4
,235,2023-10-27 12:31:02.44,51,-46,-1966,525,188,636,-62,22,-84,20
,236,2023-10-27 12:31:02.45,44,-63,-1979,589,235,582,-16,7,-23,4
,237,2023-10-27 12:31:02.46,57,-90,-1994,645,258,521,-82,21,-103,30
,238,2023-10-27 12:31:02.47,93,-122,-1984,705,310,462,-27,19,-46,4
,239,2023-10-27 12:31:02.48,106,-107,-1941,777,385,393,-111,18,-129,46
,240,2023-10-27 12:31:02.49,112,-132,-1941,862,437,311,-258,14,-272,122
,241,2023-10-27 12:31:02.50,104,-170,-1941,940,491,231,-714,21,-735,346
,242,2023-10-27 12:31:02.51,136,-195,-1964,1022,508,166,-583,24,-607,279
,243,2023-10-27 12:31:02.52,148,-218,-1978,1095,528,110,-636,23,-659,306
,244,2023-10-27 12:31:02.53,157,-281,-1996,1150,533,50,-374,35,-409,169
,245,2023-10-27 12:31:02.54,190,-330,-1989,1187,548,6,-506,29,-535,238
,246,2023-10-27 12:31:02.55,204,-318,-1989,1226,568,-33,-309,46,-355,131
,247,2023-10-27 12:31:02.56,237,-382,-1981,1249,591,-74,-458,31,-489,213
,248,2023-10-27 12:31:02.57,277,-458,-1961,1267,623,-110,-277,45,-322,116
,249,2023-10-27 12:31:02.58,282,-517,-1937,1293,669,-134,-442,27,-469,207
,250,2023-10-27 12:31:02.59,291,-511,-1924,1328,696,-158,-255,48,-303,103
,251,2023-10-27 12:31:02.60,305,-548,-1948,1347,701,-165,-428,26,-454,201
,252,2023-10-27 12:31:02.61,305,-529,-1968,1349,686,-176,-240,47,-287,96
,253,2023-10-27 12:31:02.62,318,-547,-1959,1308,679,-181,-418,25,-443,196
,254,2023-10-27 12:31:02.63,352,-576,-1951,1230,660,-179,-236,54,-290,91
,255,2023-10-27 12:31:02.64,378,-638,-1950,1151,646,-189,-410,25,-435,192
,256,2023-10-27 12:31:02.65,403,-675,-1914,1085,643,-188,-232,58,-290,87
,257,2023-10-27 12:31:02.66,426,-737,-1898,1037,657,-182,-420,12,-432,204
,258,2023-10-27 12:31:02.67,446,-767,-1845,1022,641,-171,-240,58,-298,91
,259,2023-10-27 12:31:02.68,456,-753,-1848,1009,660,-164,-421,25,-446,198
,260,2023-10-27 12:31:02.69,470,-760,-1888,968,636,-154,-249,66,-315,91
,261,2023-10-27 12:31:02.70,474,-800,-1889,894,615,-142,-431,21,-452,205
,262,2023-10-27 12:31:02.71,463,-780,-1891,818,593,-132,-266,64,-330,101
,263,2023-10-27 12:31:02.72,523,-836,-1864,727,563,-112,-452,14,-466,219
,264,2023-10-27 12:31:02.73,534,-900,-1822,662,552,-90,-261,67,-328,97
,265,2023-10-27 12:31:02.74,553,-876,-1809,629,544,-69,-427,17,-444,205
,266,2023-10-27 12:31:02.75,549,-848,-1847,573,520,-49,-248,72,-320,88
,267,2023-10-27 12:31:02.76,570,-928,-1830,506,544,-28,-426,20,-446,203
,268,2023-10-27 12:31:02.77,564,-913,-1834,471,502,3,-256,74,-330,91
,269,2023-10-27 12:31:02.78,555,-905,-1877,418,461,27,-433,6,-439,213
,270,2023-10-27 12:31:02.79,576,-891,-1842,358,414,54,-256,71,-327,92
,271,2023-10-27 12:31:02.80,595,-934,-1824,306,372,75,-430,4,-434,213
,272,2023-10-27 12:31:02.81,594,-939,-1826,263,347,88,-258,73,-331,92
,273,2023-10-27 12:31:02.82,594,-943,-1829,214,322,100,-439,4,-443,217
,274,2023-10-27 12:31:02.83,612,-936,-1807,184,276,115,-272,69,-341,101
,275,2023-10-27 12:31:02.84,591,-940,-1802,152,244,115,-439,-3,-436,221
,276,2023-10-27 12:31:02.85,596,-923,-1816,115,207,120,-278,76,-354,101
,277,2023-10-27 12:31:02.86,596,-921,-1799,68,173,124,-452,-5,-447,228
,278,2023-10-27 12:31:02.87,621,-944,-1778,23,141,128,-280,75,-355,102
,279,2023-10-27 12:31:02.88,613,-945,-1767,-3,123,127,-443,1,-444,221
,280,2023-10-27 12:31:02.89,629,-968,-1770,-29,112,126,-265,80,-345,92
,281,2023-10-27 12:31:02.90,607,-961,-1748,-48,102,129,-423,-4,-419,213
,282,2023-10-27 12:31:02.91,559,-919,-1797,-70,77,120,-261,84,-345,88
,283,2023-10-27 12:31:02.92,544,-887,-1881,-129,10,109,-429,-9,-420,219
,284,2023-10-27 12:31:02.93,603,-968,-1862,-194,-61,113,-265,76,-341,94
,285,2023-10-27 12:31:02.94,594,-942,-1756,-208,-70,120,-423,-12,-411,217
,286,2023-10-27 12:31:02.95,588,-886,-1763,-277,-59,99,-269,80,-349,94
,287,2023-10-27 12:31:02.96,585,-915,-1792,-369,-83,104,-430,-12,-418,221
,288,2023-10-27 12:31:02.97,538,-916,-1816,-422,-138,114,-289,85,-374,102
,289,2023-10-27 12:31:02.98,548,-893,-1846,-515,-203,130,-447,-15,-432,231
,290,2023-10-27 12:31:02.99,601,-1000,-1914,-649,-266,147,-291,78,-369,106
,291,2023-10-27 12:31:03.00,645,-1146,-1880,-710,-281,161,-428,-18,-410,223
,292,2023-10-27 12:31:03.01,709,-1033,-1729,-690,-269,147,-275,80,-355,97
,293,2023-10-27 12:31:03.02,612,-962,-1705,-683,-180,179,-413,-21,-392,217
,294,2023-10-27 12:31:03.03,435,-776,-1917,-711,-136,201,-283,81,-364,101
,295,2023-10-27 12:31:03.04,408,-661,-2122,-685,-279,149,-431,-26,-405,228
,296,2023-10-27 12:31:03.05,579,-662,-1921,-677,-418,154,-301,86,-387,107
,297,2023-10-27 12:31:03.06,596,-770,-1702,-735,-336,204,-438,-15,-423,226
,298,2023-10-27 12:31:03.07,567,-750,-1725,-794,-258,175,-318,85,-403,116
,299,2023-10-27 12:31:03.08,553,-711,-1824,-849,-212,170,-444,-19,-425,231
,300,2023-10-27 12:31:03.09,620,-937,-1868,-824,-197,212,-322,89,-411,116
,301,2023-10-27 12:31:03.10,492,-762,-1751,-687,-155,234,-443,-26,-417,234
,302,2023-10-27 12:31:03.11,486,-797,-1809,-649,-138,280,-310,85,-395,112
,303,2023-10-27 12:31:03.12,478,-764,-1868,-670,-169,322,-429,-33,-396,231
,304,2023-10-27 12:31:03.13,462,-698,-1928,-638,-173,363,-311,84,-395,113
,305,2023-10-27 12:31:03.14,487,-619,-1922,-604,-184,375,-428,-32,-396,230
,306,2023-10-27 12:31:03.15,468,-636,-1921,-618,-182,392,-313,91,-404,111
,307,2023-10-27 12:31:03.16,464,-629,-1910,-624,-184,405,-424,-29,-395,226
,308,2023-10-27 12:31:03.17,456,-589,-1914,-625,-182,410,-314,94,-408,110
,309,2023-10-27 12:31:03.18,431,-573,-1912,-619,-180,400,-425,-31,-394,228
,310,2023-10-27 12:31:03.19,415,-570,-1937,-613,-196,397,-324,86,-410,119
,311,2023-10-27 12:31:03.20,412,-562,-1947,-609,-217,395,-422,-36,-386,229
,312,2023-10-27 12:31:03.21,393,-576,-1985,-600,-232,381,-315,86,-401,114
,313,2023-10-27 12:31:03.22,374,-556,-1990,-618,-230,363,-410,-41,-369,225
,314,2023-10-27 12:31:03.23,373,-575,-1987,-619,-233,352,-307,88,-395,109
,315,2023-10-27 12:31:03.24,362,-565,-1973,-598,-244,340,-400,-40,-360,220
,316,2023-10-27 12:31:03.25,332,-587,-1962,-568,-251,334,-301,88,-389,106
,317,2023-10-27 12:31:03.26,323,-564,-1969,-538,-265,325,-387,-33,-354,210
,318,2023-10-27 12:31:03.27,313,-568,-1993,-503,-278,317,-320,90,-410,115
,319,2023-10-27 12:31:03.28,295,-591,-1990,-478,-283,310,-410,-44,-366,227
,320,2023-10-27 12:31:03.29,278,-574,-1996,-451,-281,310,-315,90,-405,112
,321,2023-10-27 12:31:03.30,269,-546,-1988,-422,-290,309,-386,-43,-343,214
,322,2023-10-27 12:31:03.31,257,-536,-1993,-394,-297,306,-313,87,-400,113
,323,2023-10-27 12:31:03.32,253,-520,-1975,-380,-278,303,-395,-45,-350,220
,324,2023-10-27 12:31:03.33,268,-495,-1945,-365,-290,300,-338,84,-422,127
,325,2023-10-27 12:31:03.34,245,-449,-1957,-362,-274,294,-398,-48,-350,223
,326,2023-10-27 12:31:03.35,249,-446,-1987,-362,-236,282,-322,93,-415,114
,327,2023-10-27 12:31:03.36,233,-414,-1994,-354,-243,271,-378,-41,-337,209
,328,2023-10-27 12:31:03.37,258,-361,-1939,-375,-213,267,-310,90,-400,110
,329,2023-10-27 12:31:03.38,229,-378,-1974,-370,-210,251,-367,-47,-320,207
,330,2023-10-27 12:31:03.39,252,-371,-1937,-369,-216,239,-312,86,-398,113
,331,2023-10-27 12:31:03.40,260,-353,-1961,-357,-205,238,-370,-52,-318,211
,332,2023-10-27 12:31:03.41,251,-372,-1951,-343,-177,231,-311,90,-401,110
,333,2023-10-27 12:31:03.42,234,-377,-1952,-337,-154,216,-366,-52,-314,209
,334,2023-10-27 12:31:03.43,224,-384,-1973,-308,-155,222,-302,85,-387,108
,335,2023-10-27 12:31:03.44,201,-373,-2025,-283,-162,224,-342,-52,-290,197
,336,2023-10-27 12:31:03.45,190,-384,-1993,-266,-168,232,-297,93,-390,102
,337,2023-10-27 12:31:03.46,217,-383,-2022,-251,-149,235,-345,-42,-303,193
,338,2023-10-27 12:31:03.47,203,-365,-2051,-233,-170,236,-303,101,-404,101
,339,2023-10-27 12:31:03.48,190,-378,-2042,-219,-162,239,-343,-45,-298,194
,340,2023-10-27 12:31:03.49,195,-376,-2058,-194,-151,245,-300,95,-395,102
,341,2023-10-27 12:31:03.50,173,-371,-2041,-175,-172,234,-328,-39,-289,183
,342,2023-10-27 12:31:03.51,210,-402,-1979,-127,-176,241,-287,101,-388,93
,343,2023-10-27 12:31:03.52,193,-370,-2011,-71,-172,232,-316,-43,-273,179
,344,2023-10-27 12:31:03.53,181,-343,-2060,-47,-156,218,-279,93,-372,93
,345,2023-10-27 12:31:03.54,159,-350,-2050,-55,-126,211,-307,-52,-255,179
,346,2023-10-27 12:31:03.55,147,-344,-2042,-74,-103,197,-268,90,-358,89
,347,2023-10-27 12:31:03.56,171,-338,-2032,-76,-95,181,-290,-44,-246,167
,348,2023-10-27 12:31:03.57,176,-321,-2030,-65,-76,171,-254,95,-349,79
,349,2023-10-27 12:31:03.58,173,-314,-2019,-63,-50,156,-270,-31,-239,150
,350,2023-10-27 12:31:03.59,187,-307,-2009,-60,-79,142,-251,96,-347,77
,351,2023-10-27 12:31:03.60,212,-315,-1993,-70,5,116,-272,-48,-224,160
,352,2023-10-27 12:31:03.61,179,-294,-2002,-63,14,92,-249,83,-332,83
,353,2023-10-27 12:31:03.62,206,-306,-2011,-62,14,79,-262,-53,-209,157
,354,2023-10-27 12:31:03.63,184,-302,-1996,-63,38,58,-256,75,-331,90
,355,2023-10-27 12:31:03.64,177,-294,-2003,-64,46,24,-261,-47,-214,154
,356,2023-10-27 12:31:03.65,186,-305,-2024,-55,45,15,-261,86,-347,87
,357,2023-10-27 12:31:03.66,180,-298,-2040,-55,33,0,-266,-42,-224,154
,358,2023-10-27 12:31:03.67,199,-299,-2049,-53,21,-11,-272,90,-362,91
,359,2023-10-27 12:31:03.68,197,-308,-2060,-52,26,-17,-266,-33,-233,149
,360,2023-10-27 12:31:03.69,199,-277,-2103,-53,21,-23,-283,92,-375,95
,361,2023-10-27 12:31:03.70,176,-268,-2079,-74,8,-39,-265,-28,-237,146
,362,2023-10-27 12:31:03.71,215,-272,-2051,-81,0,-49,-293,92,-385,100
,363,2023-10-27 12:31:03.72,194,-275,-2022,-71,-18,-60,-272,-36,-236,154
,364,2023-10-27 12:31:03.73,208,-257,-2055,-47,-35,-68,-292,91,-383,100
,365,2023-10-27 12:31:03.74,177,-275,-2028,-41,-43,-75,-258,-28,-230,143
,366,2023-10-27 12:31:03.75,188,-276,-2029,-34,-56,-79,-298,88,-386,105
,367,2023-10-27 12:31:03.76,182,-275,-2021,-26,-67,-93,-260,-27,-233,143
,368,2023-10-27 12:31:03.77,186,-281,-2032,-13,-67,-96,-302,92,-394,105
,369,2023-10-27 12:31:03.78,163,-277,-2032,-4,-72,-104,-256,-25,-231,140
,370,2023-10-27 12:31:03.79,176,-285,-2027,5,-73,-111,-294,85,-379,104
,371,2023-10-27 12:31:03.80,186,-282,-2028,15,-73,-110,-242,-25,-217,133
,372,2023-10-27 12:31:03.81,179,-288,-2027,25,-73,-111,-296,79,-375,108
,373,2023-10-27 12:31:03.82,165,-292,-2024,30,-68,-109,-238,-28,-210,133
,374,2023-10-27 12:31:03.83,168,-297,-2016,42,-64,-101,-312,75,-387,118
,375,2023-10-27 12:31:03.84,172,-302,-2009,54,-58,-95,-244,-19,-225,131
,376,2023-10-27 12:31:03.85,181,-308,-2008,62,-57,-90,-315,87,-402,114
,377,2023-10-27 12:31:03.86,155,-312,-2010,69,-48,-82,-241,-18,-223,129
,378,2023-10-27 12:31:03.87,185,-329,-2011,91,-48,-69,-311,72,-383,119
,379,2023-10-27 12:31:03.88,170,-316,-2041,98,-28,-58,-230,-26,-204,128
,380,2023-10-27 12:31:03.89,158,-310,-2032,85,-13,-47,-306,71,-377,117
,381,2023-10-27 12:31:03.90,181,-325,-2041,82,-17,-35,-229,-19,-210,124
,382,2023-10-27 12:31:03.91,164,-322,-2054,70,7,-26,-310,76,-386,117
,383,2023-10-27 12:31:03.92,160,-311,-2039,49,11,-20,-226,-17,-209,121
,384,2023-10-27 12:31:03.93,165,-317,-2018,34,23,-15,-307,62,-369,122
,385,2023-10-27 12:31:03.94,162,-321,-2027,26,25,-12,-211,-23,-188,117
,386,2023-10-27 12:31:03.95,158,-316,-2026,16,38,-4,-300,57,-357,121
,387,2023-10-27 12:31:03.96,167,-309,-2014,1,49,-1,-210,-22,-188,116
,388,2023-10-27 12:31:03.97,170,-298,-2029,-15,60,-1,-316,62,-378,127
,389,2023-10-27 12:31:03.98,179,-295,-2026,-27,68,-3,-221,-20,-201,120
,390,2023-10-27 12:31:03.99,193,-289,-2017,-34,78,-5,-321,61,-382,130
,391,2023-10-27 12:31:04.00,192,-290,-2020,-39,83,-13,-211,-6,-205,108
,392,2023-10-27 12:31:04.01,185,-289,-2032,-41,77,-17,-318,65,-383,126
,393,2023-10-27 12:31:04.02,181,-289,-2035,-42,83,-20,-213,-5,-208,109
,394,2023-10-27 12:31:04.03,195,-287,-2034,-39,77,-24,-329,66,-395,131
,395,2023-10-27 12:31:04.04,195,-287,-2039,-32,70,-27,-220,0,-220,110
,396,2023-10-27 12:31:04.05,179,-296,-2038,-22,62,-26,-339,64,-403,137
,397,2023-10-27 12:31:04.06,205,-292,-2030,-14,54,-31,-221,0,-221,110
,398,2023-10-27 12:31:04.07,202,-285,-2035,-3,50,-34,-356,55,-411,150
,399,2023-10-27 12:31:04.08,196,-294,-2038,8,43,-39,-221,3,-224,109
,400,2023-10-27 12:31:04.09,199,-292,-2040,22,31,-45,-340,54,-394,143
,401,2023-10-27 12:31:04.10,200,-297,-2037,35,24,-44,-210,-1,-209,105
,402,2023-10-27 12:31:04.11,202,-308,-2037,47,15,-48,-348,50,-398,149
,403,2023-10-27 12:31:04.12,198,-312,-2042,55,15,-46,-213,4,-217,104
,404,2023-10-27 12:31:04.13,201,-318,-2044,62,8,-45,-350,47,-397,151
,405,2023-10-27 12:31:04.14,196,-316,-2036,67,7,-42,-202,13,-215,94
,406,2023-10-27 12:31:04.15,202,-315,-2033,71,8,-41,-336,52,-388,142
,407,2023-10-27 12:31:04.16,202,-325,-2030,75,4,-42,-189,9,-198,90
,408,2023-10-27 12:31:04.17,208,-320,-2039,78,4,-41,-322,44,-366,139
,409,2023-10-27 12:31:04.18,210,-313,-2040,79,3,-42,-180,11,-191,84
,410,2023-10-27 12:31:04.19,208,-313,-2032,84,-1,-48,-336,42,-378,147
,411,2023-10-27 12:31:04.20,183,-291,-2003,81,10,-55,-186,21,-207,82
,412,2023-10-27 12:31:04.21,219,-289,-2028,98,-11,-69,-334,54,-388,140
,413,2023-10-27 12:31:04.22,223,-268,-2018,113,-15,-97,-185,30,-215,77
,414,2023-10-27 12:31:04.23,235,-220,-2041,125,-30,-125,-339,53,-392,143
,415,2023-10-27 12:31:04.24,220,-193,-1992,124,-50,-180,-185,32,-217,76
,416,2023-10-27 12:31:04.25,214,-183,-1994,138,-76,-241,-329,53,-382,138
,417,2023-10-27 12:31:04.26,202,-191,-2060,150,-101,-310,-162,45,-207,58
,418,2023-10-27 12:31:04.27,201,-195,-2071,137,-136,-376,-312,67,-379,122
,419,2023-10-27 12:31:04.28,168,-220,-2122,102,-161,-442,-162,55,-217,53
,420,2023-10-27 12:31:04.29,175,-239,-2132,45,-185,-495,-316,68,-384,124
,421,2023-10-27 12:31:04.30,151,-334,-2045,4,-227,-539,-160,60,-220,50
,422,2023-10-27 12:31:04.31,167,-384,-2043,16,-266,-569,-300,66,-366,117
,423,2023-10-27 12:31:04.32,130,-370,-2084,40,-305,-592,-136,72,-208,32
,424,2023-10-27 12:31:04.33,144,-396,-2059,45,-317,-602,-310,67,-377,121
,425,2023-10-27 12:31:04.34,144,-393,-2065,44,-325,-614,-155,60,-215,47
,426,2023-10-27 12:31:04.35,134,-369,-2067,27,-339,-622,-327,29,-356,149
,427,2023-10-27 12:31:04.36,144,-358,-2092,7,-343,-629,-168,36,-204,66
,428,2023-10-27 12:31:04.37,131,-368,-2149,-49,-319,-629,-355,21,-376,167
,429,2023-10-27 12:31:04.38,151,-313,-2129,-169,-276,-638,-174,33,-207,70
,430,2023-10-27 12:31:04.39,151,-328,-2058,-290,-216,-646,-358,12,-370,173
,431,2023-10-27 12:31:04.40,140,-402,-1969,-315,-200,-655,-178,19,-197,79
,432,2023-10-27 12:31:04.41,167,-432,-1944,-244,-218,-649,-351,6,-357,172
,433,2023-10-27 12:31:04.42,142,-409,-1970,-163,-210,-634,-194,38,-232,78
,434,2023-10-27 12:31:04.43,156,-379,-1979,-142,-187,-618,-385,18,-403,183
,435,2023-10-27 12:31:04.44,148,-410,-1927,-143,-138,-609,-200,42,-242,79
,436,2023-10-27 12:31:04.45,144,-425,-1905,-123,-101,-598,-365,16,-381,174
,437,2023-10-27 12:31:04.46,176,-428,-1894,-68,-91,-577,-186,48,-234,69
,438,2023-10-27 12:31:04.47,196,-439,-1912,-6,-51,-549,-369,22,-391,173
,439,2023-10-27 12:31:04.48,182,-438,-1874,38,-17,-524,-189,64,-253,62
,440,2023-10-27 12:31:04.49,202,-441,-1857,91,15,-497,-362,34,-396,164
,441,2023-10-27 12:31:04.50,215,-437,-1879,152,86,-470,-186,73,-259,56
,442,2023-10-27 12:31:04.51,219,-430,-1896,185,138,-438,-374,38,-412,168
,443,2023-10-27 12:31:04.52,225,-419,-1914,185,223,-418,-202,76,-278,63
,444,2023-10-27 12:31:04.53,237,-427,-1854,187,275,-396,-385,25,-410,180
,445,2023-10-27 12:31:04.54,244,-468,-1848,227,330,-365,-202,70,-272,66
,446,2023-10-27 12:31:04.55,251,-468,-1902,289,345,-329,-383,12,-395,185
,447,2023-10-27 12:31:04.56,234,-485,-1863,349,397,-292,-199,62,-261,68
,448,2023-10-27 12:31:04.57,262,-449,-1932,418,422,-247,-384,18,-402,183
,449,2023-10-27 12:31:04.58,243,-445,-1985,448,430,-216,-198,68,-266,65
,450,2023-10-27 12:31:04.59,266,-445,-2016,467,428,-184,-381,15,-396,183
,451,2023-10-27 12:31:04.60,260,-436,-2052,488,433,-154,-204,72,-276,66
,452,2023-10-27 12:31:04.61,270,-419,-2072,495,422,-120,-384,18,-402,183
,453,2023-10-27 12:31:04.62,282,-414,-2079,486,410,-97,-195,86,-281,54
,454,2023-10-27 12:31:04.63,298,-416,-2031,474,384,-77,-382,17,-399,182
,455,2023-10-27 12:31:04.64,311,-430,-2039,465,372,-49,-195,74,-269,60
,456,2023-10-27 12:31:04.65,298,-441,-2046,456,340,-25,-378,-2,-376,190
,457,2023-10-27 12:31:04.66,324,-480,-2038,450,320,5,-190,76,-266,57
,458,2023-10-27 12:31:04.67,329,-487,-2059,447,297,31,-378,11,-389,183
,459,2023-10-27 12:31:04.68,337,-472,-2050,429,292,64,-192,92,-284,50
,460,2023-10-27 12:31:04.69,321,-481,-2055,393,282,88,-385,13,-398,186
,461,2023-10-27 12:31:04.70,329,-516,-2077,358,263,111,-201,81,-282,60
,462,2023-10-27 12:31:04.71,318,-504,-2092,324,248,146,-378,-4,-374,191
,463,2023-10-27 12:31:04.72,300,-509,-2095,287,223,183,-194,79,-273,57
,464,2023-10-27 12:31:04.73,296,-502,-2116,243,185,222,-374,-3,-371,188
