// Data mode  : Full
// Data quality  : High
// Acceleration sensor's range  : 16g
// Gyroscope sensor's range  : 2000dps
//
//ARTIFACT,NUM,DATE,ACC_X,ACC_Y,ACC_Z,GYRO_X,GYRO_Y,GYRO_Z,EOG_L,EOG_R,EOG_H,EOG_V
,1,2023-10-27 11:36:56.27,119,42,-2113,392,-6,-1249,-732,-1061,329,896
,2,2023-10-27 11:36:56.28,111,-5,-2122,375,-34,-1293,-809,-996,187,902
,3,2023-10-27 11:36:56.29,117,-49,-2113,355,-62,-1315,-969,-1110,141,1039
,4,2023-10-27 11:36:56.30,102,-75,-2080,350,-89,-1322,-912,-1015,103,963
,5,2023-10-27 11:36:56.31,112,-128,-2075,354,-94,-1305,-960,-1072,112,1016
,6,2023-10-27 11:36:56.32,97,-177,-2080,348,-104,-1267,-826,-935,109,880
,7,2023-10-27 11:36:56.33,100,-236,-2051,331,-117,-1208,-783,-980,197,881
,8,2023-10-27 11:36:56.34,95,-259,-2033,326,-116,-1134,-590,-854,264,722
,9,2023-10-27 11:36:56.35,90,-266,-2026,328,-115,-1046,-448,-854,406,651
,10,2023-10-27 11:36:56.36,80,-270,-2026,333,-108,-955,-258,-707,449,482
,11,2023-10-27 11:36:56.37,93,-273,-2029,333,-88,-859,-102,-675,573,388
,12,2023-10-27 11:36:56.38,90,-272,-2022,317,-64,-763,-14,-568,554,291
,13,2023-10-27 11:36:56.39,93,-277,-2017,298,-51,-675,92,-561,653,234
,14,2023-10-27 11:36:56.40,85,-274,-2023,284,-39,-582,97,-503,600,203
,15,2023-10-27 11:36:56.41,89,-260,-2025,270,-23,-495,162,-519,681,178
,16,2023-10-27 11:36:56.42,80,-254,-2009,260,-7,-419,129,-489,618,180
,17,2023-10-27 11:36:56.43,80,-264,-2026,256,10,-345,195,-508,703,156
,18,2023-10-27 11:36:56.44,100,-267,-2042,238,28,-276,136,-503,639,183
,19,2023-10-27 11:36:56.45,99,-242,-2051,205,51,-213,182,-536,718,177
,20,2023-10-27 11:36:56.46,107,-235,-2043,176,80,-156,123,-534,657,205
,21,2023-10-27 11:36:56.47,105,-207,-2049,154,98,-105,195,-543,738,174
,22,2023-10-27 11:36:56.48,113,-212,-2042,129,112,-59,141,-534,675,196
,23,2023-10-27 11:36:56.49,110,-202,-2066,101,115,-11,203,-543,746,170
,24,2023-10-27 11:36:56.50,112,-202,-2068,65,129,37,142,-546,688,202
,25,2023-10-27 11:36:56.51,125,-220,-2041,40,137,72,222,-546,768,162
,26,2023-10-27 11:36:56.52,137,-228,-2006,25,144,109,152,-552,704,200
,27,2023-10-27 11:36:56.53,127,-213,-1994,24,141,149,222,-541,763,159
,28,2023-10-27 11:36:56.54,149,-216,-1940,40,125,183,132,-554,686,211
,29,2023-10-27 11:36:56.55,160,-192,-1982,69,135,209,205,-543,748,169
,30,2023-10-27 11:36:56.56,186,-162,-2007,67,149,228,141,-565,706,212
,31,2023-10-27 11:36:56.57,202,-174,-1999,52,185,239,221,-547,768,163
,32,2023-10-27 11:36:56.58,209,-178,-2010,34,214,251,135,-577,712,221
,33,2023-10-27 11:36:56.59,203,-187,-2025,32,232,259,203,-554,757,175
,34,2023-10-27 11:36:56.60,197,-202,-2043,35,247,275,125,-587,712,231
,35,2023-10-27 11:36:56.61,205,-203,-2062,36,256,294,200,-562,762,181
,36,2023-10-27 11:36:56.62,207,-209,-2068,40,260,311,122,-596,718,237
,37,2023-10-27 11:36:56.63,204,-217,-2069,41,264,333,192,-564,756,186
,38,2023-10-27 11:36:56.64,217,-207,-2073,44,261,352,95,-611,706,258
,39,2023-10-27 11:36:56.65,217,-204,-2084,48,254,372,160,-582,742,211
,40,2023-10-27 11:36:56.66,223,-181,-2108,43,240,390,77,-626,703,274
,41,2023-10-27 11:36:56.67,243,-200,-2077,36,230,402,157,-581,738,212
,42,2023-10-27 11:36:56.68,231,-205,-2045,39,220,410,72,-630,702,279
,43,2023-10-27 11:36:56.69,218,-186,-2059,51,208,415,145,-592,737,223
,44,2023-10-27 11:36:56.70,235,-173,-2079,61,177,420,50,-647,697,298
,45,2023-10-27 11:36:56.71,230,-177,-2081,65,158,426,124,-601,725,238
,46,2023-10-27 11:36:56.72,222,-188,-2090,70,140,425,40,-662,702,311
,47,2023-10-27 11:36:56.73,214,-184,-2095,68,118,423,118,-613,731,247
,48,2023-10-27 11:36:56.74,220,-183,-2081,67,106,417,36,-678,714,321
,49,2023-10-27 11:36:56.75,225,-187,-2068,76,82,407,112,-623,735,255
,50,2023-10-27 11:36:56.76,222,-172,-2080,90,70,391,32,-688,720,328
,51,2023-10-27 11:36:56.77,213,-182,-2072,97,45,375,118,-623,741,252
,52,2023-10-27 11:36:56.78,207,-201,-2048,115,14,359,45,-688,733,321
,53,2023-10-27 11:36:56.79,217,-183,-2067,134,-1,337,131,-622,753,245
,54,2023-10-27 11:36:56.80,213,-183,-2061,144,-20,316,43,-687,730,322
,55,2023-10-27 11:36:56.81,217,-187,-2045,143,-21,291,120,-608,728,244
,56,2023-10-27 11:36:56.82,212,-184,-2038,141,-23,266,40,-680,720,320
,57,2023-10-27 11:36:56.83,211,-192,-2035,141,-26,237,132,-598,730,233
,58,2023-10-27 11:36:56.84,229,-191,-2044,140,-24,214,32,-683,715,325
,59,2023-10-27 11:36:56.85,220,-195,-2034,136,-24,186,116,-593,709,238
,60,2023-10-27 11:36:56.86,220,-199,-2025,127,-25,162,31,-678,709,323
,61,2023-10-27 11:36:56.87,206,-200,-2027,118,-24,135,115,-587,702,236
,62,2023-10-27 11:36:56.88,227,-222,-2045,105,-13,115,24,-680,704,328
,63,2023-10-27 11:36:56.89,203,-226,-2043,92,-7,94,104,-594,698,245
,64,2023-10-27 11:36:56.90,201,-231,-2035,88,-7,73,10,-692,702,341
,65,2023-10-27 11:36:56.91,196,-243,-2036,79,-11,57,94,-598,692,252
,66,2023-10-27 11:36:56.92,209,-241,-2043,67,-8,44,-3,-692,689,347
,67,2023-10-27 11:36:56.93,199,-240,-2037,61,-7,29,80,-591,671,255
,68,2023-10-27 11:36:56.94,203,-251,-2029,51,-6,16,8,-689,697,340
,69,2023-10-27 11:36:56.95,194,-249,-2025,45,-9,7,102,-579,681,238
,70,2023-10-27 11:36:56.96,221,-243,-2031,40,-13,1,12,-679,691,333
,71,2023-10-27 11:36:56.97,193,-249,-2030,28,-8,-8,99,-572,671,236
,72,2023-10-27 11:36:56.98,199,-255,-2031,20,-10,-15,22,-688,710,333
,73,2023-10-27 11:36:56.99,194,-251,-2032,11,-9,-19,115,-581,696,233
,74,2023-10-27 11:36:57.00,193,-254,-2037,4,-7,-23,34,-690,724,328
,75,2023-10-27 11:36:57.01,214,-244,-2028,-6,-3,-28,112,-573,685,230
,76,2023-10-27 11:36:57.02,201,-236,-2037,-19,2,-33,37,-688,725,325
,77,2023-10-27 11:36:57.03,195,-234,-2041,-29,3,-39,122,-571,693,224
,78,2023-10-27 11:36:57.04,192,-236,-2044,-37,1,-40,31,-687,718,328
,79,2023-10-27 11:36:57.05,195,-236,-2040,-40,-4,-45,100,-570,670,235
,80,2023-10-27 11:36:57.06,210,-235,-2037,-41,-9,-42,15,-696,711,340
,81,2023-10-27 11:36:57.07,193,-241,-2040,-49,-12,-42,103,-580,683,238
,82,2023-10-27 11:36:57.08,214,-235,-2032,-54,-6,-39,12,-703,715,345
,83,2023-10-27 11:36:57.09,205,-233,-2029,-56,-2,-37,87,-579,666,246
,84,2023-10-27 11:36:57.10,205,-237,-2024,-57,3,-36,14,-704,718,345
,85,2023-10-27 11:36:57.11,211,-237,-2037,-61,9,-33,104,-573,677,234
,86,2023-10-27 11:36:57.12,202,-246,-2032,-58,13,-28,42,-691,733,324
,87,2023-10-27 11:36:57.13,215,-239,-2034,-55,19,-21,132,-551,683,209
,88,2023-10-27 11:36:57.14,201,-235,-2039,-52,24,-18,81,-674,755,296
,89,2023-10-27 11:36:57.15,205,-240,-2050,-50,18,-14,159,-538,697,189
,90,2023-10-27 11:36:57.16,211,-220,-2055,-52,22,-8,98,-662,760,282
,91,2023-10-27 11:36:57.17,219,-227,-2046,-47,29,-1,163,-528,691,182
,92,2023-10-27 11:36:57.18,203,-225,-2045,-47,29,4,109,-662,771,276
,93,2023-10-27 11:36:57.19,209,-235,-2045,-44,31,11,174,-529,703,177
,94,2023-10-27 11:36:57.20,193,-226,-2062,-43,26,23,103,-662,765,279
,95,2023-10-27 11:36:57.21,195,-234,-2064,-47,25,37,160,-525,685,182
,96,2023-10-27 11:36:57.22,194,-232,-2053,-46,22,52,95,-667,762,286
,97,2023-10-27 11:36:57.23,197,-242,-2050,-47,17,70,161,-521,682,180
,98,2023-10-27 11:36:57.24,200,-245,-2053,-46,13,91,93,-657,750,282
,99,2023-10-27 11:36:57.25,188,-245,-2034,-43,11,113,152,-515,667,181
,100,2023-10-27 11:36:57.26,202,-251,-2030,-34,-10,138,76,-660,736,292
,101,2023-10-27 11:36:57.27,206,-241,-2040,-28,-10,163,122,-526,648,202
,102,2023-10-27 11:36:57.28,192,-250,-2025,-34,14,189,36,-672,708,318
,103,2023-10-27 11:36:57.29,192,-260,-2035,-39,15,216,86,-535,621,224
,104,2023-10-27 11:36:57.30,200,-263,-2038,-30,12,247,14,-674,688,330
,105,2023-10-27 11:36:57.31,203,-254,-2031,-19,12,276,72,-530,602,229
,106,2023-10-27 11:36:57.32,215,-257,-2030,-13,11,304,6,-670,676,332
,107,2023-10-27 11:36:57.33,210,-254,-2040,-11,20,327,65,-528,593,231
,108,2023-10-27 11:36:57.34,209,-255,-2043,-11,30,347,-2,-667,665,334
,109,2023-10-27 11:36:57.35,207,-254,-2037,-7,31,364,62,-522,584,230
,110,2023-10-27 11:36:57.36,210,-252,-2049,2,31,383,21,-661,682,320
,111,2023-10-27 11:36:57.37,203,-242,-2047,6,29,399,86,-521,607,217
,112,2023-10-27 11:36:57.38,210,-237,-2047,8,29,410,31,-667,698,318
,113,2023-10-27 11:36:57.39,211,-231,-2045,12,29,418,82,-526,608,222
,114,2023-10-27 11:36:57.40,199,-227,-2054,13,27,421,25,-672,697,323
,115,2023-10-27 11:36:57.41,208,-208,-2067,11,22,422,79,-534,613,227
,116,2023-10-27 11:36:57.42,201,-213,-2037,8,20,419,30,-681,711,325
,117,2023-10-27 11:36:57.43,209,-208,-2040,5,25,413,75,-546,621,235
,118,2023-10-27 11:36:57.44,210,-197,-2063,1,16,404,22,-687,709,332
,119,2023-10-27 11:36:57.45,201,-199,-2057,-5,10,393,73,-548,621,237
,120,2023-10-27 11:36:57.46,208,-189,-2049,-8,-2,384,40,-688,728,324
,121,2023-10-27 11:36:57.47,221,-179,-2050,-17,1,369,83,-552,635,234
,122,2023-10-27 11:36:57.48,211,-180,-2049,-25,-5,352,35,-691,726,328
,123,2023-10-27 11:36:57.49,207,-173,-2038,-32,-7,339,75,-552,627,238
,124,2023-10-27 11:36:57.50,214,-182,-2036,-35,-2,320,46,-685,731,319
,125,2023-10-27 11:36:57.51,202,-188,-2037,-35,-7,301,89,-543,632,227
,126,2023-10-27 11:36:57.52,210,-177,-2037,-36,-5,282,56,-681,737,312
,127,2023-10-27 11:36:57.53,203,-173,-2040,-40,-1,264,90,-544,634,227
,128,2023-10-27 11:36:57.54,212,-181,-2029,-42,-1,246,60,-674,734,307
,129,2023-10-27 11:36:57.55,206,-176,-2029,-37,-6,226,90,-540,630,225
,130,2023-10-27 11:36:57.56,207,-170,-2045,-35,2,209,68,-674,742,303
,131,2023-10-27 11:36:57.57,201,-165,-2041,-41,5,188,93,-540,633,223
,132,2023-10-27 11:36:57.58,219,-174,-2040,-46,3,169,62,-676,738,307
,133,2023-10-27 11:36:57.59,207,-183,-2041,-46,8,154,87,-544,631,228
,134,2023-10-27 11:36:57.60,207,-188,-2042,-43,10,140,92,-667,759,287
,135,2023-10-27 11:36:57.61,183,-197,-2041,-43,10,128,128,-532,660,202
,136,2023-10-27 11:36:57.62,198,-209,-2045,-37,6,121,137,-650,787,256
,137,2023-10-27 11:36:57.63,205,-209,-2048,-29,8,116,164,-518,682,177
,138,2023-10-27 11:36:57.64,203,-203,-2042,-23,11,113,201,-618,819,208
,139,2023-10-27 11:36:57.65,189,-214,-2040,-20,14,108,224,-479,703,127
,140,2023-10-27 11:36:57.66,205,-221,-2050,-14,9,107,269,-571,840,151
,141,2023-10-27 11:36:57.67,204,-220,-2043,-4,10,106,268,-440,708,86
,142,2023-10-27 11:36:57.68,191,-226,-2039,1,8,105,281,-533,814,126
,143,2023-10-27 11:36:57.69,178,-217,-2046,5,2,107,253,-420,673,83
,144,2023-10-27 11:36:57.70,183,-214,-2049,7,-1,111,259,-531,790,136
,145,2023-10-27 11:36:57.71,175,-213,-2054,12,-10,112,222,-434,656,106
,146,2023-10-27 11:36:57.72,187,-218,-2050,13,-19,116,212,-552,764,170
,147,2023-10-27 11:36:57.73,186,-216,-2048,6,-12,119,180,-461,641,140
,148,2023-10-27 11:36:57.74,167,-214,-2045,2,-15,124,166,-581,747,207
,149,2023-10-27 11:36:57.75,191,-212,-2035,0,-22,129,132,-492,624,180
,150,2023-10-27 11:36:57.76,182,-207,-2052,-5,-22,131,119,-615,734,248
,151,2023-10-27 11:36:57.77,189,-215,-2048,-15,-13,134,99,-521,620,211
,152,2023-10-27 11:36:57.78,181,-209,-2061,-19,-17,137,90,-629,719,269
,153,2023-10-27 11:36:57.79,172,-221,-2047,-25,-18,140,66,-537,603,235
,154,2023-10-27 11:36:57.80,182,-214,-2046,-27,-27,146,44,-656,700,306
,155,2023-10-27 11:36:57.81,188,-218,-2044,-34,-26,149,24,-572,596,274
,156,2023-10-27 11:36:57.82,175,-214,-2042,-39,-21,152,24,-680,704,328
,157,2023-10-27 11:36:57.83,189,-218,-2054,-45,-22,155,16,-589,605,286
,158,2023-10-27 11:36:57.84,193,-219,-2039,-49,-11,157,12,-685,697,336
,159,2023-10-27 11:36:57.85,186,-213,-2017,-50,-2,159,1,-595,596,297
,160,2023-10-27 11:36:57.86,187,-220,-2021,-52,-1,158,5,-687,692,341
,161,2023-10-27 11:36:57.87,178,-225,-2032,-59,8,158,12,-598,610,293
,162,2023-10-27 11:36:57.88,184,-205,-2091,-74,20,163,29,-683,712,327
,163,2023-10-27 11:36:57.89,204,-228,-2031,-86,9,164,22,-600,622,289
,164,2023-10-27 11:36:57.90,201,-242,-2014,-77,13,166,54,-691,745,318
,165,2023-10-27 11:36:57.91,186,-219,-2025,-71,11,168,91,-585,676,247
,166,2023-10-27 11:36:57.92,180,-219,-2028,-66,-5,171,182,-619,801,218
,167,2023-10-27 11:36:57.93,190,-207,-2048,-64,-10,168,166,-518,684,176
,168,2023-10-27 11:36:57.94,193,-207,-2048,-82,-4,168,207,-577,784,185
,169,2023-10-27 11:36:57.95,191,-216,-2059,-95,3,165,159,-518,677,179
,170,2023-10-27 11:36:57.96,179,-214,-2052,-109,4,164,185,-587,772,201
,171,2023-10-27 11:36:57.97,182,-204,-2069,-123,-3,170,121,-535,656,207
,172,2023-10-27 11:36:57.98,177,-221,-2040,-133,-19,173,156,-600,756,222
,173,2023-10-27 11:36:57.99,193,-217,-2029,-138,-11,174,126,-543,669,208
,174,2023-10-27 11:36:58.00,172,-208,-2030,-139,-11,174,164,-600,764,218
,175,2023-10-27 11:36:58.01,192,-191,-2037,-149,-13,173,94,-551,645,228
,176,2023-10-27 11:36:58.02,181,-190,-2054,-160,-10,174,95,-622,717,263
,177,2023-10-27 11:36:58.03,179,-173,-2066,-174,-9,172,3,-602,605,299
,178,2023-10-27 11:36:58.04,181,-171,-2041,-178,-22,170,-12,-692,680,352
,179,2023-10-27 11:36:58.05,171,-159,-2058,-187,-18,166,-40,-656,616,348
,180,2023-10-27 11:36:58.06,150,-157,-2060,-198,-24,157,9,-705,714,348
,181,2023-10-27 11:36:58.07,169,-156,-2076,-203,-30,155,0,-647,647,323
,182,2023-10-27 11:36:58.08,170,-145,-2085,-210,-29,146,74,-666,740,296
,183,2023-10-27 11:36:58.09,166,-132,-2036,-212,-38,139,73,-601,674,264
,184,2023-10-27 11:36:58.10,159,-132,-2027,-196,-31,131,155,-604,759,224
,185,2023-10-27 11:36:58.11,172,-103,-2070,-188,-32,122,128,-551,679,211
,186,2023-10-27 11:36:58.12,166,-94,-2077,-195,-38,112,207,-544,751,168
,187,2023-10-27 11:36:58.13,164,-85,-2055,-195,-27,101,132,-519,651,193
,188,2023-10-27 11:36:58.14,161,-79,-2040,-188,-20,90,146,-582,728,218
,189,2023-10-27 11:36:58.15,161,-81,-2044,-180,-11,78,-19,-621,602,320
,190,2023-10-27 11:36:58.16,156,-92,-2049,-175,-13,71,-151,-782,631,466
,191,2023-10-27 11:36:58.17,153,-86,-2058,-166,-12,67,-348,-827,479,587
,192,2023-10-27 11:36:58.18,142,-88,-2043,-158,-15,59,-511,-971,460,741
,193,2023-10-27 11:36:58.19,148,-91,-2061,-146,-9,57,-630,-968,338,799
,194,2023-10-27 11:36:58.20,135,-74,-2051,-127,-15,52,-768,-1053,285,910
,195,2023-10-27 11:36:58.21,167,-75,-2055,-107,-20,51,-815,-1009,194,912
,196,2023-10-27 11:36:58.22,155,-75,-2051,-97,-9,46,-881,-1067,186,974
,197,2023-10-27 11:36:58.23,142,-64,-2035,-86,-6,39,-873,-1011,138,942
,198,2023-10-27 11:36:58.24,155,-58,-2036,-71,7,29,-906,-1050,144,978
,199,2023-10-27 11:36:58.25,141,-53,-2042,-48,7,14,-862,-985,123,923
,200,2023-10-27 11:36:58.26,152,-48,-2037,-14,10,8,-872,-1005,133,938
,201,2023-10-27 11:36:58.27,159,-33,-2053,2,22,-6,-819,-935,116,877
,202,2023-10-27 11:36:58.28,142,-38,-2068,-4,25,-17,-808,-947,139,877
,203,2023-10-27 11:36:58.29,156,-30,-2056,-11,31,-29,-740,-881,141,810
,204,2023-10-27 11:36:58.30,162,-28,-2076,0,36,-39,-692,-884,192,788
,205,2023-10-27 11:36:58.31,147,-33,-2055,6,38,-47,-603,-823,220,713
,206,2023-10-27 11:36:58.32,160,-31,-2024,14,39,-53,-516,-803,287,659
,207,2023-10-27 11:36:58.33,155,-30,-2056,20,43,-63,-402,-738,336,570
,208,2023-10-27 11:36:58.34,145,-35,-2049,25,35,-67,-281,-703,422,492
,209,2023-10-27 11:36:58.35,157,-41,-2048,32,32,-71,-194,-657,463,425
,210,2023-10-27 11:36:58.36,161,-49,-2046,49,46,-73,-95,-616,521,355
,211,2023-10-27 11:36:58.37,164,-43,-2057,68,47,-75,-94,-595,501,344
,212,2023-10-27 11:36:58.38,162,-59,-2072,70,46,-73,-58,-581,523,319
,213,2023-10-27 11:36:58.39,167,-57,-2046,60,49,-70,-89,-597,508,343
,214,2023-10-27 11:36:58.40,176,-59,-2043,59,55,-70,-45,-587,542,316
,215,2023-10-27 11:36:58.41,161,-62,-2055,70,56,-65,-82,-607,525,344
,216,2023-10-27 11:36:58.42,166,-79,-2033,99,41,-57,-40,-596,556,318
,217,2023-10-27 11:36:58.43,159,-80,-2067,113,36,-49,-98,-630,532,364
,218,2023-10-27 11:36:58.44,184,-79,-2054,111,42,-44,-75,-615,540,345
,219,2023-10-27 11:36:58.45,173,-70,-2055,108,55,-42,-136,-654,518,395
,220,2023-10-27 11:36:58.46,171,-80,-2051,109,48,-38,-98,-643,545,370
,221,2023-10-27 11:36:58.47,166,-77,-2057,118,46,-34,-169,-682,513,425
,222,2023-10-27 11:36:58.48,179,-79,-2057,125,49,-36,-144,-658,514,401
,223,2023-10-27 11:36:58.49,179,-88,-2047,125,54,-35,-201,-698,497,449
,224,2023-10-27 11:36:58.50,183,-85,-2053,130,53,-30,-144,-663,519,403
,225,2023-10-27 11:36:58.51,186,-77,-2048,128,62,-27,-226,-709,483,467
,226,2023-10-27 11:36:58.52,187,-78,-2059,118,71,-29,-205,-687,482,446
,227,2023-10-27 11:36:58.53,192,-89,-2056,108,68,-27,-291,-746,455,518
,228,2023-10-27 11:36:58.54,170,-72,-2080,89,71,-28,-247,-718,471,482
,229,2023-10-27 11:36:58.55,174,-85,-2081,54,55,-28,-307,-767,460,537
,230,2023-10-27 11:36:58.56,202,-77,-2016,44,49,-25,-246,-727,481,486
,231,2023-10-27 11:36:58.57,186,-73,-2047,68,61,-31,-322,-783,461,552
,232,2023-10-27 11:36:58.58,169,-104,-2068,77,32,-38,-270,-734,464,502
,233,2023-10-27 11:36:58.59,178,-98,-2058,67,31,-42,-348,-788,440,568
,234,2023-10-27 11:36:58.60,174,-105,-2068,53,22,-43,-289,-740,451,514
,235,2023-10-27 11:36:58.61,172,-112,-2083,38,3,-46,-357,-802,445,579
,236,2023-10-27 11:36:58.62,162,-111,-2067,30,-8,-44,-278,-744,466,511
,237,2023-10-27 11:36:58.63,190,-124,-2073,29,-19,-39,-326,-801,475,563
,238,2023-10-27 11:36:58.64,177,-141,-2053,16,-23,-42,-232,-730,498,481
,239,2023-10-27 11:36:58.65,182,-126,-2052,4,-25,-36,-305,-791,486,548
,240,2023-10-27 11:36:58.66,177,-121,-2053,-11,-27,-39,-216,-711,495,463
,241,2023-10-27 11:36:58.67,185,-132,-2069,-22,-28,-40,-273,-779,506,526
,242,2023-10-27 11:36:58.68,186,-121,-2043,-33,-26,-36,-184,-693,509,438
,243,2023-10-27 11:36:58.69,172,-141,-2042,-37,-35,-35,-258,-769,511,513
,244,2023-10-27 11:36:58.70,189,-151,-2065,-58,-30,-32,-170,-687,517,428
,245,2023-10-27 11:36:58.71,169,-133,-2065,-77,-36,-32,-256,-781,525,518
,246,2023-10-27 11:36:58.72,188,-133,-2064,-82,-42,-29,-169,-696,527,432
,247,2023-10-27 11:36:58.73,191,-112,-2049,-86,-40,-28,-256,-791,535,523
,248,2023-10-27 11:36:58.74,198,-120,-2044,-100,-43,-29,-162,-700,538,431
,249,2023-10-27 11:36:58.75,184,-125,-2041,-115,-40,-27,-265,-800,535,532
,250,2023-10-27 11:36:58.76,183,-123,-2044,-120,-42,-28,-184,-708,524,446
,251,2023-10-27 11:36:58.77,186,-127,-2049,-120,-44,-26,-271,-816,545,543
,252,2023-10-27 11:36:58.78,195,-132,-2039,-121,-43,-22,-169,-717,548,443
,253,2023-10-27 11:36:58.79,204,-131,-2035,-123,-28,-20,-264,-821,557,542
,254,2023-10-27 11:36:58.80,200,-124,-2037,-120,-17,-20,-182,-717,535,449
,255,2023-10-27 11:36:58.81,185,-122,-2037,-112,-7,-14,-266,-825,559,545
,256,2023-10-27 11:36:58.82,189,-112,-2034,-107,-6,-13,-164,-717,553,440
,257,2023-10-27 11:36:58.83,198,-110,-2042,-106,-13,-5,-248,-822,574,535
,258,2023-10-27 11:36:58.84,184,-104,-2053,-100,-19,5,-155,-705,550,430
,259,2023-10-27 11:36:58.85,188,-100,-2068,-97,-11,6,-245,-822,577,533
,260,2023-10-27 11:36:58.86,200,-90,-2065,-91,-13,4,-140,-703,563,421
,261,2023-10-27 11:36:58.87,170,-75,-2050,-79,-11,22,-229,-815,586,522
,262,2023-10-27 11:36:58.88,176,-93,-2039,-78,-12,37,-126,-681,555,403
,263,2023-10-27 11:36:58.89,199,-147,-2051,-96,7,53,-200,-797,597,498
,264,2023-10-27 11:36:58.90,164,-104,-2051,-96,7,74,-89,-666,577,377
,265,2023-10-27 11:36:58.91,189,-109,-2048,-79,14,86,-162,-787,625,474
,266,2023-10-27 11:36:58.92,199,-97,-2029,-72,18,93,-62,-649,587,355
,267,2023-10-27 11:36:58.93,197,-82,-2038,-78,20,97,-146,-776,630,461
,268,2023-10-27 11:36:58.94,180,-91,-2047,-83,21,102,-49,-646,597,347
,269,2023-10-27 11:36:58.95,193,-80,-2057,-78,19,100,-128,-769,641,448
,270,2023-10-27 11:36:58.96,183,-60,-2061,-71,19,101,-27,-631,604,329
,271,2023-10-27 11:36:58.97,169,-58,-2056,-69,12,99,-96,-758,662,427
,272,2023-10-27 11:36:58.98,188,-68,-2057,-68,6,99,-14,-616,602,315
,273,2023-10-27 11:36:58.99,184,-71,-2057,-58,4,95,-112,-749,637,430
,274,2023-10-27 11:36:59.00,171,-64,-2061,-38,3,86,-26,-605,579,315
,275,2023-10-27 11:36:59.01,187,-46,-2057,-18,-4,80,-103,-739,636,421
,276,2023-10-27 11:36:59.02,179,-34,-2058,-12,-10,72,-9,-595,586,302
,277,2023-10-27 11:36:59.03,182,-21,-2071,-12,-14,65,-80,-735,655,407
,278,2023-10-27 11:36:59.04,161,-21,-2067,-7,-22,53,2,-593,595,295
,279,2023-10-27 11:36:59.05,176,-26,-2069,-1,-34,46,-76,-743,667,409
,280,2023-10-27 11:36:59.06,168,-26,-2062,1,-44,38,4,-605,609,300
,281,2023-10-27 11:36:59.07,160,-33,-2053,-6,-49,34,-82,-751,669,416
,282,2023-10-27 11:36:59.08,157,-27,-2059,-14,-46,21,0,-612,612,306
,283,2023-10-27 11:36:59.09,164,-29,-2058,-15,-51,13,-64,-747,683,405
,284,2023-10-27 11:36:59.10,168,-29,-2049,-16,-53,8,12,-595,607,291
,285,2023-10-27 11:36:59.11,162,-41,-2047,-14,-51,4,-73,-735,662,404
,286,2023-10-27 11:36:59.12,164,-52,-2045,-16,-46,3,4,-588,592,292
,287,2023-10-27 11:36:59.13,157,-59,-2050,-27,-41,8,-63,-734,671,398
,288,2023-10-27 11:36:59.14,144,-46,-2060,-36,-44,9,5,-593,598,294
,289,2023-10-27 11:36:59.15,157,-55,-2053,-47,-44,13,-74,-740,666,407
,290,2023-10-27 11:36:59.16,154,-47,-2047,-60,-43,17,-6,-595,589,300
,291,2023-10-27 11:36:59.17,148,-33,-2059,-72,-44,15,-92,-747,655,419
,292,2023-10-27 11:36:59.18,152,-32,-2056,-84,-46,10,-16,-606,590,311
,293,2023-10-27 11:36:59.19,159,-34,-2069,-95,-50,6,-83,-756,673,419
,294,2023-10-27 11:36:59.20,159,-41,-2069,-106,-55,4,-14,-609,595,311
,295,2023-10-27 11:36:59.21,158,-35,-2058,-118,-57,-3,-104,-756,652,430
,296,2023-10-27 11:36:59.22,167,-63,-2049,-129,-62,3,-38,-608,570,323
,297,2023-10-27 11:36:59.23,170,-69,-2022,-126,-51,9,-116,-752,636,434
,298,2023-10-27 11:36:59.24,151,-40,-2041,-112,-22,7,-36,-605,569,320
,299,2023-10-27 11:36:59.25,150,-58,-2064,-120,-26,13,-112,-758,646,435
,300,2023-10-27 11:36:59.26,168,-40,-2038,-121,-13,22,-50,-620,570,335
,301,2023-10-27 11:36:59.27,161,-32,-2065,-112,1,27,-131,-767,636,449
,302,2023-10-27 11:36:59.28,151,-36,-2057,-111,-4,25,-70,-625,555,347
,303,2023-10-27 11:36:59.29,148,-12,-2058,-121,-14,31,-122,-763,641,442
,304,2023-10-27 11:36:59.30,158,-8,-2077,-126,-23,31,-44,-618,574,331
,305,2023-10-27 11:36:59.31,153,-18,-2058,-129,-19,26,-108,-758,650,433
,306,2023-10-27 11:36:59.32,161,-7,-2054,-132,-25,26,-57,-623,566,340
,307,2023-10-27 11:36:59.33,165,-10,-2052,-141,-34,25,-114,-768,654,441
,308,2023-10-27 11:36:59.34,152,-2,-2041,-146,-38,24,-57,-636,579,346
,309,2023-10-27 11:36:59.35,167,-12,-2046,-147,-31,35,-124,-776,652,450
,310,2023-10-27 11:36:59.36,164,-47,-2023,-143,-24,42,-68,-638,570,353
,311,2023-10-27 11:36:59.37,152,-26,-2067,-134,-13,49,-115,-769,654,442
,312,2023-10-27 11:36:59.38,160,0,-2057,-132,-10,69,-58,-630,572,344
,313,2023-10-27 11:36:59.39,167,-33,-2026,-118,11,92,-118,-758,640,438
,314,2023-10-27 11:36:59.40,146,-1,-2041,-74,37,96,-64,-624,560,344
,315,2023-10-27 11:36:59.41,161,23,-2059,-57,37,90,-102,-755,653,428
,316,2023-10-27 11:36:59.42,144,78,-2064,-56,21,85,-52,-625,573,338
,317,2023-10-27 11:36:59.43,136,114,-2073,-53,-2,67,-98,-753,655,425
,318,2023-10-27 11:36:59.44,147,101,-2093,-54,-33,27,-55,-627,572,341
,319,2023-10-27 11:36:59.45,146,128,-2097,-68,-65,-27,-89,-756,667,422
,320,2023-10-27 11:36:59.46,146,136,-2082,-78,-103,-74,-48,-632,584,340
,321,2023-10-27 11:36:59.47,150,112,-2081,-83,-122,-118,-99,-750,651,424
,322,2023-10-27 11:36:59.48,135,73,-2062,-77,-145,-159,-68,-628,560,348
,323,2023-10-27 11:36:59.49,204,31,-1981,-70,-146,-192,-101,-748,647,424
,324,2023-10-27 11:36:59.50,162,50,-2084,-63,-104,-215,-68,-633,565,350
,325,2023-10-27 11:36:59.51,105,32,-2127,-95,-112,-224,-92,-753,661,422
,326,2023-10-27 11:36:59.52,164,-11,-2024,-116,-100,-218,-59,-637,578,348
,327,2023-10-27 11:36:59.53,125,3,-2043,-113,-80,-203,-98,-754,656,426
,328,2023-10-27 11:36:59.54,128,9,-2025,-106,-89,-186,-80,-651,571,365
,329,2023-10-27 11:36:59.55,142,18,-2039,-106,-78,-168,-112,-770,658,441
,330,2023-10-27 11:36:59.56,123,19,-2044,-96,-84,-153,-87,-664,577,375
,331,2023-10-27 11:36:59.57,132,7,-2050,-87,-76,-138,-107,-764,657,435
,332,2023-10-27 11:36:59.58,114,-7,-2052,-75,-70,-122,-77,-656,579,366
,333,2023-10-27 11:36:59.59,103,-13,-2032,-57,-67,-99,-87,-758,671,422
,334,2023-10-27 11:36:59.60,114,-39,-2027,-24,-66,-69,-69,-660,591,364
,335,2023-10-27 11:36:59.61,79,-30,-2040,14,-49,-39,-87,-756,669,421
,336,2023-10-27 11:36:59.62,148,-48,-2029,49,-23,-9,-77,-656,579,366
,337,2023-10-27 11:36:59.63,112,24,-2025,78,38,40,-68,-735,667,401
,338,2023-10-27 11:36:59.64,137,4,-2028,97,75,64,-52,-639,587,345
,339,2023-10-27 11:36:59.65,127,-16,-2029,123,139,104,-65,-724,659,394
,340,2023-10-27 11:36:59.66,103,23,-2055,174,189,130,-68,-638,570,353
,341,2023-10-27 11:36:59.67,48,36,-2126,214,217,171,-75,-726,651,400
,342,2023-10-27 11:36:59.68,84,26,-2045,221,190,206,-76,-652,576,364
,343,2023-10-27 11:36:59.69,117,91,-1967,262,180,225,-93,-736,643,414
,344,2023-10-27 11:36:59.70,130,87,-1938,353,160,236,-88,-655,567,371
,345,2023-10-27 11:36:59.71,129,91,-2016,446,184,236,-70,-719,649,394
,346,2023-10-27 11:36:59.72,127,26,-2023,524,212,230,-55,-636,581,345
,347,2023-10-27 11:36:59.73,118,-3,-2004,587,238,226,-47,-705,658,376
,348,2023-10-27 11:36:59.74,142,-3,-2008,649,258,238,-59,-636,577,347
,349,2023-10-27 11:36:59.75,131,38,-2028,705,264,243,-52,-701,649,376
,350,2023-10-27 11:36:59.76,136,53,-2097,723,276,242,-67,-640,573,353
,351,2023-10-27 11:36:59.77,164,34,-2086,712,281,246,-58,-705,647,381
,352,2023-10-27 11:36:59.78,149,23,-2056,713,298,241,-77,-650,573,363
,353,2023-10-27 11:36:59.79,151,-6,-2088,721,306,242,-72,-710,638,391
,354,2023-10-27 11:36:59.80,134,-38,-2066,723,276,247,-90,-658,568,374
,355,2023-10-27 11:36:59.81,184,-50,-2090,707,265,250,-80,-708,628,394
,356,2023-10-27 11:36:59.82,170,-62,-2095,681,244,249,-101,-661,560,381
,357,2023-10-27 11:36:59.83,193,-62,-2089,655,225,247,-85,-714,629,399
,358,2023-10-27 11:36:59.84,205,-71,-2083,632,220,235,-121,-677,556,399
,359,2023-10-27 11:36:59.85,200,-91,-2060,603,207,218,-119,-721,602,420
,360,2023-10-27 11:36:59.86,216,-110,-2047,579,196,207,-143,-685,542,414
,361,2023-10-27 11:36:59.87,223,-150,-2032,562,191,188,-112,-724,612,418
,362,2023-10-27 11:36:59.88,238,-181,-2023,553,193,186,-153,-692,539,422
,363,2023-10-27 11:36:59.89,219,-216,-2015,557,196,170,-156,-736,580,446
,364,2023-10-27 11:36:59.90,217,-248,-2049,558,196,160,-198,-718,520,458
,365,2023-10-27 11:36:59.91,235,-242,-2036,557,174,165,-172,-745,573,458
,366,2023-10-27 11:36:59.92,231,-242,-2018,559,171,165,-213,-723,510,468
,367,2023-10-27 11:36:59.93,260,-269,-2034,567,180,159,-204,-749,545,476
,368,2023-10-27 11:36:59.94,246,-300,-2063,564,187,158,-224,-728,504,476
,369,2023-10-27 11:36:59.95,245,-320,-2038,560,184,162,-172,-732,560,452
,370,2023-10-27 11:36:59.96,250,-360,-1979,567,175,173,-182,-707,525,444
,371,2023-10-27 11:36:59.97,254,-375,-1984,597,181,181,-127,-699,572,413
,372,2023-10-27 11:36:59.98,263,-408,-1983,618,181,189,-142,-685,543,413
,373,2023-10-27 11:36:59.99,282,-445,-1956,641,195,205,-67,-665,598,366
,374,2023-10-27 11:37:00.00,280,-417,-1951,650,218,210,-91,-654,563,372
,375,2023-10-27 11:37:00.01,311,-469,-1979,646,263,209,-45,-644,599,344
,376,2023-10-27 11:37:00.02,285,-488,-2000,624,287,211,-95,-654,559,374
,377,2023-10-27 11:37:00.03,296,-518,-1915,616,297,222,-45,-637,592,341
,378,2023-10-27 11:37:00.04,326,-540,-1898,639,322,238,-89,-639,550,364
,379,2023-10-27 11:37:00.05,307,-595,-1896,667,313,248,-27,-609,582,318
,380,2023-10-27 11:37:00.06,339,-623,-1897,682,315,267,-82,-633,551,357
,381,2023-10-27 11:37:00.07,346,-645,-1884,687,334,284,-16,-616,600,316
,382,2023-10-27 11:37:00.08,378,-638,-1886,685,378,295,-80,-647,567,363
,383,2023-10-27 11:37:00.09,385,-665,-1850,685,414,302,-25,-615,590,320
,384,2023-10-27 11:37:00.10,393,-688,-1854,707,440,313,-86,-647,561,366
,385,2023-10-27 11:37:00.11,366,-710,-1815,737,453,326,-22,-612,590,317
,386,2023-10-27 11:37:00.12,402,-706,-1797,783,467,342,-89,-657,568,373
,387,2023-10-27 11:37:00.13,412,-718,-1888,805,484,354,-14,-615,601,314
,388,2023-10-27 11:37:00.14,386,-754,-1872,813,472,358,-96,-661,565,378
,389,2023-10-27 11:37:00.15,373,-752,-1895,750,536,357,-35,-613,578,324
,390,2023-10-27 11:37:00.16,452,-713,-1832,754,501,363,-110,-656,546,383
,391,2023-10-27 11:37:00.17,479,-843,-1938,744,526,348,-39,-598,559,318
,392,2023-10-27 11:37:00.18,386,-713,-1960,747,479,336,-113,-652,539,382
,393,2023-10-27 11:37:00.19,447,-698,-2021,704,455,324,-32,-579,547,305
,394,2023-10-27 11:37:00.20,406,-714,-2017,660,369,314,-99,-636,537,367
,395,2023-10-27 11:37:00.21,408,-720,-2024,596,322,293,-17,-577,560,297
,396,2023-10-27 11:37:00.22,413,-646,-2019,488,328,276,-93,-646,553,369
,397,2023-10-27 11:37:00.23,437,-670,-1970,432,256,255,-35,-588,553,311
,398,2023-10-27 11:37:00.24,437,-765,-2014,406,220,218,-101,-634,533,367
,399,2023-10-27 11:37:00.25,376,-762,-1958,353,162,195,12,-527,539,257
,400,2023-10-27 11:37:00.26,446,-751,-1961,258,153,167,-72,-603,531,337
,401,2023-10-27 11:37:00.27,430,-703,-1950,195,118,144,-7,-534,527,270
,402,2023-10-27 11:37:00.28,434,-715,-2013,129,112,116,-62,-612,550,337
,403,2023-10-27 11:37:00.29,401,-698,-2014,57,86,93,56,-504,560,224
,404,2023-10-27 11:37:00.30,413,-703,-1988,3,55,76,5,-564,569,279
,405,2023-10-27 11:37:00.31,403,-747,-1979,-25,-2,65,93,-466,559,186
,406,2023-10-27 11:37:00.32,415,-728,-1933,-61,-52,57,78,-560,638,241
,407,2023-10-27 11:37:00.33,389,-768,-1937,-125,-76,46,182,-482,664,150
,408,2023-10-27 11:37:00.34,404,-703,-1920,-186,-73,32,120,-565,685,222
,409,2023-10-27 11:37:00.35,387,-704,-1916,-232,-65,13,199,-448,647,124
,410,2023-10-27 11:37:00.36,390,-675,-1934,-273,-71,-2,146,-533,679,193
,411,2023-10-27 11:37:00.37,388,-693,-1955,-325,-93,-10,216,-442,658,113
,412,2023-10-27 11:37:00.38,370,-697,-1949,-350,-111,-26,150,-540,690,195
,413,2023-10-27 11:37:00.39,383,-682,-1948,-357,-116,-33,208,-444,652,118
,414,2023-10-27 11:37:00.40,382,-685,-1950,-372,-105,-44,116,-543,659,213
,415,2023-10-27 11:37:00.41,373,-686,-1984,-398,-111,-53,166,-442,608,138
,416,2023-10-27 11:37:00.42,346,-645,-2012,-430,-125,-61,85,-560,645,237
,417,2023-10-27 11:37:00.43,350,-625,-2003,-451,-142,-60,162,-465,627,151
,418,2023-10-27 11:37:00.44,341,-661,-1949,-436,-159,-67,84,-600,684,258
,419,2023-10-27 11:37:00.45,370,-652,-1921,-398,-173,-79,171,-489,660,159
,420,2023-10-27 11:37:00.46,362,-640,-1909,-371,-160,-82,77,-604,681,263
,421,2023-10-27 11:37:00.47,356,-567,-1895,-356,-165,-90,135,-494,629,179
,422,2023-10-27 11:37:00.48,358,-589,-1937,-343,-166,-103,-6,-615,609,310
,423,2023-10-27 11:37:00.49,373,-565,-1936,-317,-166,-113,40,-503,543,231
,424,2023-10-27 11:37:00.50,389,-555,-1935,-278,-175,-120,-79,-630,551,354
,425,2023-10-27 11:37:00.51,370,-559,-1915,-237,-162,-131,-11,-513,502,262
,426,2023-10-27 11:37:00.52,354,-586,-1916,-201,-147,-147,-126,-645,519,385
,427,2023-10-27 11:37:00.53,374,-599,-1933,-189,-112,-156,-59,-536,477,297
,428,2023-10-27 11:37:00.54,374,-587,-1958,-184,-97,-153,-156,-661,505,408
,429,2023-10-27 11:37:00.55,322,-588,-1997,-185,-76,-135,-69,-539,470,304
,430,2023-10-27 11:37:00.56,339,-579,-1989,-181,-65,-103,-164,-672,508,418
,431,2023-10-27 11:37:00.57,334,-571,-1999,-168,-53,-95,-78,-560,482,319
,432,2023-10-27 11:37:00.58,356,-561,-1975,-143,-66,-82,-138,-693,555,415
,433,2023-10-27 11:37:00.59,351,-563,-1971,-123,-52,-69,-43,-565,522,304
,434,2023-10-27 11:37:00.60,355,-544,-1963,-110,-44,-52,-120,-691,571,405
,435,2023-10-27 11:37:00.61,361,-543,-1966,-105,-27,-34,-19,-556,537,287
,436,2023-10-27 11:37:00.62,297,-534,-1975,-99,-37,-9,-101,-685,584,393
,437,2023-10-27 11:37:00.63,421,-555,-1929,-87,10,22,-20,-556,536,288
,438,2023-10-27 11:37:00.64,329,-557,-1920,-62,26,41,-92,-690,598,391
,439,2023-10-27 11:37:00.65,318,-552,-1943,-43,19,66,-6,-566,560,286
,440,2023-10-27 11:37:00.66,368,-546,-1951,-44,63,90,-57,-698,641,377
,441,2023-10-27 11:37:00.67,318,-527,-1989,-48,30,114,31,-556,587,262
,442,2023-10-27 11:37:00.68,381,-512,-1978,-53,78,134,-40,-694,654,367
,443,2023-10-27 11:37:00.69,343,-543,-1922,-32,45,145,37,-563,600,263
,444,2023-10-27 11:37:00.70,411,-579,-1929,-19,55,163,-43,-707,664,375
,445,2023-10-27 11:37:00.71,359,-583,-1950,-14,53,167,22,-577,599,277
,446,2023-10-27 11:37:00.72,371,-589,-1950,-27,49,177,-26,-719,693,372
,447,2023-10-27 11:37:00.73,386,-557,-1989,-27,45,184,49,-585,634,268
,448,2023-10-27 11:37:00.74,388,-534,-1975,-24,18,187,-28,-728,700,378
,449,2023-10-27 11:37:00.75,420,-558,-1955,-19,-7,191,27,-589,616,281
,450,2023-10-27 11:37:00.76,426,-578,-1950,-11,5,190,-36,-722,686,379
,451,2023-10-27 11:37:00.77,423,-603,-1887,16,0,179,30,-581,611,275
,452,2023-10-27 11:37:00.78,450,-600,-1895,46,22,167,-39,-720,681,379
,453,2023-10-27 11:37:00.79,429,-603,-1918,51,46,158,28,-582,610,277
,454,2023-10-27 11:37:00.80,430,-573,-1942,41,70,149,-48,-737,689,392
,455,2023-10-27 11:37:00.81,400,-568,-1960,37,73,132,-5,-617,612,311
,456,2023-10-27 11:37:00.82,436,-547,-2006,32,55,131,-78,-776,698,427
,457,2023-10-27 11:37:00.83,428,-552,-2003,17,28,126,-19,-644,625,331
,458,2023-10-27 11:37:00.84,398,-567,-1989,-4,24,122,-122,-793,671,457
,459,2023-10-27 11:37:00.85,443,-578,-1954,-8,2,117,-96,-672,576,384
,460,2023-10-27 11:37:00.86,421,-575,-1939,-7,-30,116,-166,-814,648,490
,461,2023-10-27 11:37:00.87,431,-585,-1950,-14,-19,108,-104,-678,574,391
,462,2023-10-27 11:37:00.88,426,-564,-1944,-32,-26,107,-185,-809,624,497
,463,2023-10-27 11:37:00.89,421,-558,-1969,-61,-16,108,-129,-671,542,400
,464,2023-10-27 11:37:00.90,407,-554,-1941,-80,-35,108,-189,-811,622,500
,465,2023-10-27 11:37:00.91,425,-561,-1917,-81,-45,105,-107,-669,562,388
,466,2023-10-27 11:37:00.92,414,-563,-1905,-81,-14,95,-141,-792,651,466
,467,2023-10-27 11:37:00.93,430,-556,-1900,-81,-19,76,-62,-643,581,352
,468,2023-10-27 11:37:00.94,419,-572,-1895,-79,-26,71,-92,-777,685,434
,469,2023-10-27 11:37:00.95,414,-614,-1922,-78,1,66,-14,-635,621,324
,470,2023-10-27 11:37:00.96,383,-646,-1948,-68,-21,73,-27,-752,725,389
,471,2023-10-27 11:37:00.97,381,-672,-1974,-72,-14,88,46,-594,640,274
,472,2023-10-27 11:37:00.98,372,-683,-1951,-43,-21,99,64,-701,765,318
,473,2023-10-27 11:37:00.99,373,-667,-1995,-3,-39,109,130,-549,679,209
,474,2023-10-27 11:37:01.00,404,-637,-1985,29,-57,107,158,-657,815,249
,475,2023-10-27 11:37:01.01,406,-632,-1926,60,-72,96,192,-512,704,160
,476,2023-10-27 11:37:01.02,403,-588,-1939,81,-75,74,195,-620,815,212
,477,2023-10-27 11:37:01.03,390,-570,-1934,89,-73,41,204,-480,684,138
,478,2023-10-27 11:37:01.04,380,-552,-1964,85,-84,14,216,-585,801,184
,479,2023-10-27 11:37:01.05,375,-533,-1960,73,-81,-11,217,-458,675,120
,480,2023-10-27 11:37:01.06,376,-572,-1985,59,-122,-22,205,-591,796,193
,481,2023-10-27 11:37:01.07,368,-599,-1974,47,-145,-25,183,-483,666,150
,482,2023-10-27 11:37:01.08,375,-612,-1950,42,-162,-27,152,-608,760,228
,483,2023-10-27 11:37:01.09,353,-609,-1912,47,-180,-25,128,-500,628,186
,484,2023-10-27 11:37:01.10,370,-621,-1909,52,-178,-22,102,-629,731,263
,485,2023-10-27 11:37:01.11,338,-649,-1938,53,-181,-9,93,-522,615,214
,486,2023-10-27 11:37:01.12,336,-656,-1955,51,-188,15,60,-645,705,292
,487,2023-10-27 11:37:01.13,334,-647,-1962,50,-194,39,56,-537,593,240
,488,2023-10-27 11:37:01.14,323,-629,-1950,45,-185,58,26,-661,687,317
,489,2023-10-27 11:37:01.15,289,-600,-1957,27,-172,81,28,-555,583,263
,490,2023-10-27 11:37:01.16,260,-614,-1985,-1,-165,103,5,-673,678,334
,491,2023-10-27 11:37:01.17,258,-631,-1993,-21,-180,133,14,-564,578,275
,492,2023-10-27 11:37:01.18,230,-608,-1953,-31,-198,163,28,-663,691,317
,493,2023-10-27 11:37:01.19,229,-598,-1926,-41,-208,181,38,-546,584,254
,494,2023-10-27 11:37:01.20,216,-607,-1907,-61,-211,194,40,-647,687,303
,495,2023-10-27 11:37:01.21,187,-563,-1942,-72,-216,202,50,-536,586,243
,496,2023-10-27 11:37:01.22,198,-538,-1938,-81,-223,200,71,-620,691,274
,497,2023-10-27 11:37:01.23,206,-518,-1931,-97,-212,195,102,-498,600,198
,498,2023-10-27 11:37:01.24,186,-534,-1924,-116,-210,185,130,-583,713,226
,499,2023-10-27 11:37:01.25,192,-546,-1940,-123,-194,182,118,-489,607,185
,500,2023-10-27 11:37:01.26,189,-575,-1890,-104,-192,171,137,-581,718,222
,501,2023-10-27 11:37:01.27,181,-586,-1883,-65,-191,158,136,-484,620,174
,502,2023-10-27 11:37:01.28,189,-590,-1907,-38,-161,142,170,-569,739,199
,503,2023-10-27 11:37:01.29,161,-588,-1918,-10,-142,128,138,-484,622,173
,504,2023-10-27 11:37:01.30,160,-601,-1946,30,-140,121,156,-566,722,205
,505,2023-10-27 11:37:01.31,163,-606,-2018,61,-120,117,131,-485,616,177
,506,2023-10-27 11:37:01.32,159,-614,-2004,88,-126,110,166,-564,730,199
,507,2023-10-27 11:37:01.33,180,-620,-1994,114,-113,98,138,-489,627,175
,508,2023-10-27 11:37:01.34,180,-619,-2004,125,-91,81,168,-567,735,199
,509,2023-10-27 11:37:01.35,189,-613,-1976,137,-56,61,137,-494,631,178
,510,2023-10-27 11:37:01.36,177,-577,-1984,148,-28,27,158,-574,732,208
,511,2023-10-27 11:37:01.37,225,-603,-1956,147,9,-3,118,-512,630,197
,512,2023-10-27 11:37:01.38,194,-615,-1976,154,52,-42,150,-581,731,215
,513,2023-10-27 11:37:01.39,222,-610,-1984,161,78,-77,110,-524,634,207
,514,2023-10-27 11:37:01.40,210,-609,-1952,166,89,-104,153,-591,744,219
,515,2023-10-27 11:37:01.41,224,-606,-1979,162,98,-134,107,-533,640,213
,516,2023-10-27 11:37:01.42,221,-607,-1997,146,107,-154,134,-594,728,230
,517,2023-10-27 11:37:01.43,233,-623,-1986,126,117,-171,89,-542,631,226
,518,2023-10-27 11:37:01.44,239,-635,-1953,118,94,-184,127,-602,729,237
,519,2023-10-27 11:37:01.45,265,-624,-1936,116,94,-194,80,-559,639,239
,520,2023-10-27 11:37:01.46,276,-617,-1909,110,94,-215,103,-614,717,255
,521,2023-10-27 11:37:01.47,286,-614,-1931,93,105,-230,41,-576,617,267
,522,2023-10-27 11:37:01.48,300,-603,-1939,74,101,-248,70,-639,709,284
,523,2023-10-27 11:37:01.49,294,-602,-1956,57,99,-251,24,-602,626,289
,524,2023-10-27 11:37:01.50,281,-622,-1982,36,78,-255,58,-642,700,292
,525,2023-10-27 11:37:01.51,283,-641,-2012,14,53,-244,16,-602,618,293
,526,2023-10-27 11:37:01.52,265,-633,-2024,0,15,-234,61,-645,706,292
,527,2023-10-27 11:37:01.53,272,-612,-2015,-11,-21,-220,22,-608,630,293
,528,2023-10-27 11:37:01.54,264,-617,-1998,-25,-53,-209,63,-639,702,288
,529,2023-10-27 11:37:01.55,283,-592,-1983,-39,-61,-203,6,-614,620,304
,530,2023-10-27 11:37:01.56,276,-587,-1967,-47,-70,-195,33,-646,679,306
,531,2023-10-27 11:37:01.57,265,-586,-1955,-53,-76,-192,-18,-625,607,321
,532,2023-10-27 11:37:01.58,248,-587,-1948,-51,-82,-185,31,-656,687,312
,533,2023-10-27 11:37:01.59,240,-613,-1938,-51,-84,-170,-30,-632,602,331
,534,2023-10-27 11:37:01.60,242,-634,-1919,-49,-70,-148,8,-642,650,317
,535,2023-10-27 11:37:01.61,238,-653,-1912,-38,-54,-125,-34,-627,593,330
,536,2023-10-27 11:37:01.62,213,-667,-1911,-20,-40,-98,26,-637,663,305
,537,2023-10-27 11:37:01.63,234,-675,-1907,3,-36,-66,-16,-630,614,323
,538,2023-10-27 11:37:01.64,222,-650,-1906,30,-33,-38,47,-637,684,295
,539,2023-10-27 11:37:01.65,234,-642,-1920,46,-26,-18,-22,-634,612,328
,540,2023-10-27 11:37:01.66,240,-614,-1932,58,-1,-11,43,-626,669,291
,541,2023-10-27 11:37:01.67,255,-592,-1927,70,27,-11,-23,-635,612,329
,542,2023-10-27 11:37:01.68,272,-585,-1944,71,57,-23,50,-624,674,287
,543,2023-10-27 11:37:01.69,253,-583,-1953,62,76,-41,-24,-639,615,331
,544,2023-10-27 11:37:01.70,241,-573,-1965,49,95,-52,13,-652,665,319
,545,2023-10-27 11:37:01.71,263,-585,-1985,47,100,-63,-75,-688,613,381
,546,2023-10-27 11:37:01.72,276,-589,-2002,35,104,-73,-17,-691,674,354
,547,2023-10-27 11:37:01.73,272,-574,-1996,24,116,-81,-81,-713,632,397
,548,2023-10-27 11:37:01.74,274,-549,-1983,2,133,-96,-32,-699,667,365
,549,2023-10-27 11:37:01.75,302,-552,-1966,-38,137,-111,-102,-723,621,412
,550,2023-10-27 11:37:01.76,312,-534,-1947,-64,142,-124,-40,-713,673,376
,551,2023-10-27 11:37:01.77,327,-547,-1931,-66,157,-133,-107,-739,632,423
,552,2023-10-27 11:37:01.78,318,-590,-1922,-56,157,-136,-35,-705,670,370
,553,2023-10-27 11:37:01.79,317,-630,-1936,-54,155,-128,-74,-729,655,401
,554,2023-10-27 11:37:01.80,298,-630,-1973,-57,148,-111,14,-699,713,342
,555,2023-10-27 11:37:01.81,320,-631,-1996,-55,141,-89,-36,-712,676,374
,556,2023-10-27 11:37:01.82,306,-635,-2007,-53,117,-58,66,-634,700,284
,557,2023-10-27 11:37:01.83,317,-640,-2002,-40,93,-25,27,-645,672,309
,558,2023-10-27 11:37:01.84,306,-637,-1986,-25,60,5,121,-564,685,221
,559,2023-10-27 11:37:01.85,310,-642,-1966,-10,44,31,48,-602,650,277
,560,2023-10-27 11:37:01.86,313,-626,-1962,0,48,54,122,-542,664,210
,561,2023-10-27 11:37:01.87,318,-614,-1974,5,58,66,45,-600,645,277
,562,2023-10-27 11:37:01.88,319,-592,-1967,1,63,70,132,-536,668,202
,563,2023-10-27 11:37:01.89,316,-589,-1960,-3,71,79,55,-597,652,271
,564,2023-10-27 11:37:01.90,338,-562,-1968,-10,81,80,132,-526,658,197
,565,2023-10-27 11:37:01.91,345,-565,-1947,-18,93,72,54,-592,646,269
,566,2023-10-27 11:37:01.92,375,-566,-1916,-29,110,57,140,-525,665,192
,567,2023-10-27 11:37:01.93,346,-572,-1891,-20,109,43,59,-603,662,272
,568,2023-10-27 11:37:01.94,377,-583,-1902,-7,130,29,125,-530,655,202
,569,2023-10-27 11:37:01.95,358,-612,-1916,-3,147,17,56,-602,658,273
,570,2023-10-27 11:37:01.96,356,-617,-1936,8,153,13,140,-510,650,185
,571,2023-10-27 11:37:01.97,365,-623,-1939,29,150,9,53,-587,640,267
,572,2023-10-27 11:37:01.98,371,-616,-1974,41,153,3,133,-506,639,186
,573,2023-10-27 11:37:01.99,350,-609,-1980,59,126,-7,67,-586,653,259
,574,2023-10-27 11:37:02.00,373,-606,-2013,60,115,-10,153,-489,642,168
,575,2023-10-27 11:37:02.01,353,-621,-2019,65,96,-19,69,-583,652,257
,576,2023-10-27 11:37:02.02,368,-622,-2028,61,88,-26,145,-496,641,175
,577,2023-10-27 11:37:02.03,345,-625,-2026,60,48,-28,72,-602,674,265
,578,2023-10-27 11:37:02.04,365,-621,-2003,54,23,-32,149,-520,669,185
,579,2023-10-27 11:37:02.05,366,-627,-1974,67,-19,-27,75,-624,699,274
,580,2023-10-27 11:37:02.06,359,-594,-1946,104,-69,-43,151,-537,688,193
,581,2023-10-27 11:37:02.07,380,-604,-1934,97,-79,-40,69,-638,707,284
,582,2023-10-27 11:37:02.08,383,-598,-1931,91,-77,-49,138,-550,688,206
,583,2023-10-27 11:37:02.09,321,-599,-1924,103,-73,-59,78,-648,726,285
,584,2023-10-27 11:37:02.10,333,-620,-1928,97,-86,-54,169,-549,718,190
,585,2023-10-27 11:37:02.11,343,-638,-1908,87,-97,-43,87,-670,757,291
,586,2023-10-27 11:37:02.12,347,-622,-1919,87,-68,-44,160,-575,735,207
,587,2023-10-27 11:37:02.13,325,-629,-1934,89,-71,-39,87,-690,777,301
,588,2023-10-27 11:37:02.14,314,-634,-1960,62,-68,-27,164,-569,733,202
,589,2023-10-27 11:37:02.15,337,-620,-1962,33,-57,-15,146,-656,802,255
,590,2023-10-27 11:37:02.16,346,-648,-1933,26,-55,-2,240,-519,759,139
,591,2023-10-27 11:37:02.17,301,-632,-1932,37,-40,-8,168,-640,808,236
,592,2023-10-27 11:37:02.18,356,-667,-1941,37,-31,0,240,-526,766,143
,593,2023-10-27 11:37:02.19,329,-662,-1915,49,-39,5,186,-643,829,228
,594,2023-10-27 11:37:02.20,364,-680,-1912,69,-10,10,242,-517,759,137
,595,2023-10-27 11:37:02.21,319,-662,-1888,101,8,-5,134,-643,777,254
,596,2023-10-27 11:37:02.22,331,-628,-1928,120,5,-10,176,-527,703,175
,597,2023-10-27 11:37:02.23,325,-658,-1949,121,-13,-2,62,-669,731,303
,598,2023-10-27 11:37:02.24,343,-619,-1930,133,16,-12,128,-555,683,213
,599,2023-10-27 11:37:02.25,349,-670,-1914,151,19,-16,57,-678,735,310
,600,2023-10-27 11:37:02.26,358,-647,-1894,162,34,-27,127,-550,677,211
,601,2023-10-27 11:37:02.27,346,-646,-1902,169,50,-41,42,-688,730,323
,602,2023-10-27 11:37:02.28,379,-643,-1937,159,63,-59,116,-554,670,219
,603,2023-10-27 11:37:02.29,334,-630,-1939,145,71,-70,50,-651,701,300
,604,2023-10-27 11:37:02.30,372,-663,-1954,132,83,-78,110,-504,614,197
,605,2023-10-27 11:37:02.31,368,-708,-1915,129,75,-83,-18,-648,630,333
,606,2023-10-27 11:37:02.32,367,-707,-1964,147,88,-81,38,-521,559,241
,607,2023-10-27 11:37:02.33,339,-709,-1933,157,45,-75,-62,-667,605,364
,608,2023-10-27 11:37:02.34,371,-705,-1922,152,72,-71,16,-536,552,260
,609,2023-10-27 11:37:02.35,374,-705,-1901,155,75,-72,-44,-677,633,360
,610,2023-10-27 11:37:02.36,401,-691,-1910,154,88,-67,46,-542,588,248
,611,2023-10-27 11:37:02.37,356,-678,-1883,171,94,-77,-36,-680,644,358
,612,2023-10-27 11:37:02.38,378,-683,-1875,188,96,-80,32,-543,575,255
,613,2023-10-27 11:37:02.39,365,-698,-1921,162,117,-82,-55,-693,638,374
,614,2023-10-27 11:37:02.40,360,-686,-1932,125,113,-74,15,-556,571,270
,615,2023-10-27 11:37:02.41,378,-728,-1933,94,106,-49,-61,-673,612,367
,616,2023-10-27 11:37:02.42,324,-790,-1922,107,85,-28,22,-512,534,245
,617,2023-10-27 11:37:02.43,368,-784,-1930,114,79,-6,-43,-636,593,339
,618,2023-10-27 11:37:02.44,369,-766,-1953,81,76,22,25,-488,513,231
,619,2023-10-27 11:37:02.45,381,-739,-1913,31,54,65,-30,-566,536,298
,620,2023-10-27 11:37:02.46,384,-710,-1927,0,36,93,77,-362,439,142
,621,2023-10-27 11:37:02.47,357,-673,-1941,-17,26,108,82,-409,491,163
,622,2023-10-27 11:37:02.48,354,-686,-1994,-52,11,126,180,-242,422,31
,623,2023-10-27 11:37:02.49,297,-617,-2027,-107,-3,124,193,-311,504,59
,624,2023-10-27 11:37:02.50,317,-603,-2044,-173,-59,130,256,-171,427,-42
,625,2023-10-27 11:37:02.51,341,-593,-2021,-201,-103,130,230,-296,526,33
,626,2023-10-27 11:37:02.52,355,-597,-1941,-205,-133,125,260,-199,459,-30
,627,2023-10-27 11:37:02.53,384,-598,-1869,-213,-131,104,234,-376,610,71
,628,2023-10-27 11:37:02.54,340,-587,-1872,-258,-145,86,262,-288,550,13
,629,2023-10-27 11:37:02.55,391,-561,-1913,-319,-157,82,246,-453,699,103
,630,2023-10-27 11:37:02.56,378,-566,-1923,-347,-136,80,234,-368,602,67
,631,2023-10-27 11:37:02.57,371,-530,-1935,-344,-124,48,108,-597,705,244
,632,2023-10-27 11:37:02.58,371,-611,-1933,-355,-147,49,72,-537,609,232
,633,2023-10-27 11:37:02.59,399,-627,-1906,-375,-157,42,-84,-757,673,420
,634,2023-10-27 11:37:02.60,416,-625,-1871,-372,-137,46,-76,-667,591,371
,635,2023-10-27 11:37:02.61,347,-600,-1865,-333,-106,40,-194,-854,660,524
,636,2023-10-27 11:37:02.62,352,-540,-1881,-297,-84,24,-163,-750,587,456
,637,2023-10-27 11:37:02.63,369,-590,-1877,-293,-100,61,-273,-907,634,590
,638,2023-10-27 11:37:02.64,338,-568,-1971,-302,-90,62,-207,-776,569,491
,639,2023-10-27 11:37:02.65,376,-595,-2001,-321,-96,101,-272,-914,642,593
,640,2023-10-27 11:37:02.66,306,-561,-2026,-329,-86,84,-207,-780,573,493
,641,2023-10-27 11:37:02.67,400,-579,-1984,-335,-128,89,-270,-898,628,584
,642,2023-10-27 11:37:02.68,342,-539,-1996,-328,-123,96,-189,-746,557,467
,643,2023-10-27 11:37:02.69,425,-540,-1893,-321,-126,105,-247,-875,628,561
,644,2023-10-27 11:37:02.70,339,-540,-1929,-289,-71,61,-179,-741,562,460
,645,2023-10-27 11:37:02.71,389,-583,-1934,-268,-69,75,-207,-868,661,537
,646,2023-10-27 11:37:02.72,367,-576,-1938,-253,-66,77,-130,-729,599,429
,647,2023-10-27 11:37:02.73,367,-549,-1929,-235,-40,85,-160,-843,683,501
,648,2023-10-27 11:37:02.74,377,-598,-1942,-219,-10,87,-104,-700,596,402
,649,2023-10-27 11:37:02.75,336,-574,-1973,-197,13,79,-160,-821,661,490
,650,2023-10-27 11:37:02.76,347,-576,-1965,-169,10,94,-108,-683,575,395
,651,2023-10-27 11:37:02.77,335,-560,-1953,-139,7,99,-130,-800,670,465
,652,2023-10-27 11:37:02.78,332,-539,-1966,-119,10,103,-83,-669,586,376
,653,2023-10-27 11:37:02.79,327,-548,-1982,-109,12,102,-133,-794,661,463
,654,2023-10-27 11:37:02.80,272,-520,-2017,-98,4,89,-101,-675,574,388
,655,2023-10-27 11:37:02.81,303,-515,-2020,-89,-22,97,-127,-790,663,458
,656,2023-10-27 11:37:02.82,288,-507,-2011,-83,-51,92,-88,-669,581,378
,657,2023-10-27 11:37:02.83,297,-520,-2018,-91,-55,91,-106,-783,677,444
,658,2023-10-27 11:37:02.84,280,-514,-1994,-94,-65,87,-59,-656,597,357
,659,2023-10-27 11:37:02.85,273,-497,-1993,-91,-77,85,-86,-774,688,430
,660,2023-10-27 11:37:02.86,274,-514,-1978,-87,-96,77,-61,-664,603,362
,661,2023-10-27 11:37:02.87,279,-513,-1971,-87,-95,81,-50,-764,714,407
,662,2023-10-27 11:37:02.88,271,-494,-1978,-80,-92,75,-24,-654,630,339
,663,2023-10-27 11:37:02.89,247,-498,-1982,-76,-91,74,-10,-752,742,381
,664,2023-10-27 11:37:02.90,275,-485,-1988,-74,-82,75,-4,-644,640,324
,665,2023-10-27 11:37:02.91,251,-463,-1990,-67,-80,75,0,-740,740,370
,666,2023-10-27 11:37:02.92,255,-471,-1992,-64,-73,74,-1,-637,636,319
,667,2023-10-27 11:37:02.93,241,-453,-2002,-59,-63,68,0,-734,734,367
,668,2023-10-27 11:37:02.94,239,-437,-1998,-66,-59,63,10,-631,641,310
,669,2023-10-27 11:37:02.95,251,-441,-1998,-67,-66,68,38,-725,763,343
,670,2023-10-27 11:37:02.96,264,-452,-1997,-73,-46,68,30,-629,659,299
,671,2023-10-27 11:37:02.97,253,-447,-1996,-79,-18,70,34,-720,754,343
,672,2023-10-27 11:37:02.98,238,-446,-1992,-75,-13,74,28,-625,653,298
,673,2023-10-27 11:37:02.99,252,-460,-1995,-82,-3,83,43,-716,759,336
,674,2023-10-27 11:37:03.00,220,-442,-2011,-80,-1,88,33,-628,661,297
,675,2023-10-27 11:37:03.01,244,-434,-2010,-75,-3,93,66,-697,763,315
,676,2023-10-27 11:37:03.02,245,-427,-2010,-75,1,103,57,-601,658,272
,677,2023-10-27 11:37:03.03,275,-409,-1971,-58,4,105,73,-675,748,301
,678,2023-10-27 11:37:03.04,266,-404,-1999,-22,24,109,52,-599,651,273
,679,2023-10-27 11:37:03.05,264,-431,-1961,-21,20,120,80,-677,757,298
,680,2023-10-27 11:37:03.06,223,-450,-2017,-65,20,132,68,-601,669,266
,681,2023-10-27 11:37:03.07,228,-434,-2082,-109,2,142,106,-666,772,280
,682,2023-10-27 11:37:03.08,226,-412,-2060,-119,-15,149,85,-585,670,250
,683,2023-10-27 11:37:03.09,239,-416,-2068,-103,-17,145,121,-630,751,254
,684,2023-10-27 11:37:03.10,248,-453,-2031,-110,-55,147,79,-559,638,240
,685,2023-10-27 11:37:03.11,252,-435,-2031,-151,-62,145,100,-621,721,260
,686,2023-10-27 11:37:03.12,255,-421,-2002,-186,-64,139,58,-570,628,256
,687,2023-10-27 11:37:03.13,239,-420,-2013,-193,-71,132,97,-626,723,264
,688,2023-10-27 11:37:03.14,272,-435,-2020,-196,-88,134,64,-577,641,256
,689,2023-10-27 11:37:03.15,264,-431,-2010,-203,-91,127,104,-634,738,265
,690,2023-10-27 11:37:03.16,240,-413,-2015,-226,-89,112,77,-588,665,255
,691,2023-10-27 11:37:03.17,243,-401,-2029,-263,-108,104,136,-641,777,252
,692,2023-10-27 11:37:03.18,269,-423,-2026,-299,-134,110,94,-594,688,250
,693,2023-10-27 11:37:03.19,277,-430,-2002,-310,-138,104,138,-644,782,253
,694,2023-10-27 11:37:03.20,271,-394,-1989,-319,-119,82,103,-600,703,248
,695,2023-10-27 11:37:03.21,244,-427,-2000,-333,-121,67,169,-626,795,228
,696,2023-10-27 11:37:03.22,231,-402,-2000,-358,-133,65,160,-578,738,209
,697,2023-10-27 11:37:03.23,220,-376,-2023,-381,-154,48,250,-602,852,176
,698,2023-10-27 11:37:03.24,253,-385,-2039,-405,-174,51,200,-561,761,180
,699,2023-10-27 11:37:03.25,215,-365,-2026,-425,-172,42,256,-568,824,156
,700,2023-10-27 11:37:03.26,224,-353,-2051,-453,-175,18,206,-532,738,163
,701,2023-10-27 11:37:03.27,227,-377,-2026,-505,-186,32,268,-548,816,140
,702,2023-10-27 11:37:03.28,238,-374,-2021,-531,-183,24,192,-528,720,168
,703,2023-10-27 11:37:03.29,239,-404,-2008,-518,-169,11,204,-555,759,175
,704,2023-10-27 11:37:03.30,234,-422,-1967,-476,-163,-3,99,-557,656,229
,705,2023-10-27 11:37:03.31,198,-413,-1971,-425,-158,-11,95,-602,697,253
,706,2023-10-27 11:37:03.32,218,-393,-1978,-397,-161,-20,4,-614,618,305
,707,2023-10-27 11:37:03.33,206,-367,-1985,-363,-151,-30,7,-658,665,325
,708,2023-10-27 11:37:03.34,275,-377,-1961,-303,-144,-27,-85,-675,590,380
,709,2023-10-27 11:37:03.35,204,-358,-1980,-240,-86,-55,-73,-702,629,387
,710,2023-10-27 11:37:03.36,214,-395,-1961,-209,-61,-61,-142,-710,568,426
,711,2023-10-27 11:37:03.37,251,-445,-1972,-173,-45,-63,-102,-717,615,409
,712,2023-10-27 11:37:03.38,225,-348,-1977,-128,0,-67,-146,-718,572,432
,713,2023-10-27 11:37:03.39,110,-269,-2071,-113,33,-95,-97,-722,625,409
,714,2023-10-27 11:37:03.40,238,-280,-2093,-132,-15,-81,-145,-732,587,438
,715,2023-10-27 11:37:03.41,182,-294,-2026,-142,-31,-70,-88,-724,636,406
,716,2023-10-27 11:37:03.42,186,-238,-2054,-150,-26,-68,-133,-734,601,433
,717,2023-10-27 11:37:03.43,149,-300,-2064,-170,-35,-75,-54,-716,662,385
,718,2023-10-27 11:37:03.44,203,-299,-2035,-175,-46,-65,-103,-725,622,414
,719,2023-10-27 11:37:03.45,184,-289,-2018,-171,-44,-44,-43,-706,663,374
,720,2023-10-27 11:37:03.46,203,-292,-1988,-169,-21,-39,-99,-732,633,415
,721,2023-10-27 11:37:03.47,165,-267,-2033,-165,3,-61,-24,-704,680,364
,722,2023-10-27 11:37:03.48,176,-246,-2046,-164,0,-47,-66,-722,656,394
,723,2023-10-27 11:37:03.49,165,-199,-2049,-162,-8,-56,23,-679,702,328
,724,2023-10-27 11:37:03.50,170,-207,-2044,-163,-15,-59,-31,-713,682,372
,725,2023-10-27 11:37:03.51,182,-199,-2041,-166,-20,-63,41,-677,718,318
,726,2023-10-27 11:37:03.52,173,-195,-2019,-181,-15,-67,-30,-711,681,370
,727,2023-10-27 11:37:03.53,177,-187,-2022,-203,-4,-69,38,-660,698,311
,728,2023-10-27 11:37:03.54,174,-183,-2039,-222,9,-73,-14,-705,691,359
,729,2023-10-27 11:37:03.55,170,-180,-2057,-229,15,-73,93,-653,746,280
,730,2023-10-27 11:37:03.56,173,-172,-2061,-225,6,-76,53,-702,755,324
,731,2023-10-27 11:37:03.57,178,-166,-2047,-223,1,-78,126,-639,765,256
,732,2023-10-27 11:37:03.58,195,-166,-2042,-222,-1,-84,40,-696,736,328
,733,2023-10-27 11:37:03.59,210,-172,-2027,-223,3,-84,111,-632,743,260
,734,2023-10-27 11:37:03.60,182,-165,-2025,-221,19,-91,48,-689,737,320
,735,2023-10-27 11:37:03.61,192,-158,-2037,-220,32,-92,122,-632,754,255
,736,2023-10-27 11:37:03.62,164,-153,-2051,-224,39,-94,32,-701,733,334
,737,2023-10-27 11:37:03.63,174,-147,-2050,-232,50,-93,108,-619,727,255
,738,2023-10-27 11:37:03.64,188,-129,-2050,-234,55,-94,25,-688,713,331
,739,2023-10-27 11:37:03.65,199,-115,-2043,-231,60,-96,92,-622,714,265
,740,2023-10-27 11:37:03.66,203,-120,-2053,-230,64,-98,-3,-699,696,351
,741,2023-10-27 11:37:03.67,204,-141,-2023,-211,74,-101,59,-612,671,276
,742,2023-10-27 11:37:03.68,209,-175,-1988,-175,86,-100,-18,-682,664,350
,743,2023-10-27 11:37:03.69,170,-125,-2018,-157,96,-107,76,-589,665,256
,744,2023-10-27 11:37:03.70,127,-101,-2079,-187,64,-97,4,-675,679,335
,745,2023-10-27 11:37:03.71,179,-96,-2117,-231,28,-84,89,-586,675,248
,746,2023-10-27 11:37:03.72,197,-79,-2119,-244,43,-75,-7,-681,674,344
,747,2023-10-27 11:37:03.73,213,-117,-2061,-219,48,-94,64,-578,642,257
,748,2023-10-27 11:37:03.74,194,-137,-2009,-187,48,-103,-5,-669,664,337
,749,2023-10-27 11:37:03.75,189,-99,-2001,-174,54,-107,71,-574,645,251
,750,2023-10-27 11:37:03.76,173,-79,-2015,-179,45,-99,8,-658,666,325
,751,2023-10-27 11:37:03.77,207,-69,-2074,-192,51,-94,94,-548,642,227
,752,2023-10-27 11:37:03.78,218,-91,-2081,-216,66,-83,23,-649,672,313
,753,2023-10-27 11:37:03.79,185,-105,-2043,-210,70,-64,99,-547,646,224
,754,2023-10-27 11:37:03.80,193,-122,-2046,-170,77,-71,-30,-664,634,347
,755,2023-10-27 11:37:03.81,182,-101,-2020,-129,79,-53,-2,-579,577,290
,756,2023-10-27 11:37:03.82,201,-78,-2038,-116,74,-43,-91,-698,607,394
,757,2023-10-27 11:37:03.83,220,-53,-2049,-122,70,-23,1,-586,587,292
,758,2023-10-27 11:37:03.84,232,-56,-2068,-109,89,-15,-76,-700,624,388
,759,2023-10-27 11:37:03.85,214,-74,-2052,-60,102,-13,-7,-598,591,302
,760,2023-10-27 11:37:03.86,206,-65,-2024,-12,102,-10,-78,-708,630,393
,761,2023-10-27 11:37:03.87,189,-18,-2046,-14,90,-4,9,-580,589,285
,762,2023-10-27 11:37:03.88,242,-14,-2095,-45,70,16,-64,-686,622,375
,763,2023-10-27 11:37:03.89,223,-31,-2056,-55,85,23,28,-567,595,269
,764,2023-10-27 11:37:03.90,242,-19,-2090,-31,119,20,-54,-692,638,373
,765,2023-10-27 11:37:03.91,216,-68,-2067,-19,97,24,16,-576,592,280
,766,2023-10-27 11:37:03.92,223,-57,-2004,-4,72,39,-72,-703,631,387
,767,2023-10-27 11:37:03.93,243,-16,-2055,33,67,39,12,-577,589,282
,768,2023-10-27 11:37:03.94,248,-27,-2087,42,61,44,-51,-703,652,377
,769,2023-10-27 11:37:03.95,245,-30,-2077,43,59,40,33,-579,612,273
,770,2023-10-27 11:37:03.96,242,-23,-2063,41,66,40,-72,-712,640,392
,771,2023-10-27 11:37:03.97,243,-44,-2077,36,50,35,-12,-592,580,302
,772,2023-10-27 11:37:03.98,213,-5,-2083,54,31,15,-109,-736,627,422
,773,2023-10-27 11:37:03.99,323,-75,-2097,78,17,14,-28,-617,589,322
,774,2023-10-27 11:37:04.00,287,11,-2008,97,36,-1,-143,-769,626,456
,775,2023-10-27 11:37:04.01,292,-36,-1992,85,69,16,-87,-662,575,374
,776,2023-10-27 11:37:04.02,271,-33,-2060,48,102,-9,-186,-807,621,496
,777,2023-10-27 11:37:04.03,258,-138,-2081,37,89,5,-97,-681,584,389
,778,2023-10-27 11:37:04.04,122,111,-2112,94,67,-37,-150,-808,658,479
,779,2023-10-27 11:37:04.05,257,-125,-2086,89,-30,39,-48,-670,622,359
,780,2023-10-27 11:37:04.06,343,-75,-2010,83,-16,-14,-119,-791,672,455
,781,2023-10-27 11:37:04.07,323,-51,-2001,94,49,-14,-24,-639,615,331
,782,2023-10-27 11:37:04.08,303,-101,-1932,124,64,-23,-90,-764,674,427
,783,2023-10-27 11:37:04.09,255,-69,-2012,137,82,-24,-7,-621,614,314
,784,2023-10-27 11:37:04.10,294,-153,-2051,146,60,-1,-51,-755,704,403
,785,2023-10-27 11:37:04.11,260,-60,-2116,143,83,15,34,-613,647,289
,786,2023-10-27 11:37:04.12,247,-97,-2066,146,68,46,-39,-735,696,387
,787,2023-10-27 11:37:04.13,273,-104,-2079,152,50,66,18,-592,610,287
,788,2023-10-27 11:37:04.14,281,-96,-2059,141,38,76,-53,-732,679,392
,789,2023-10-27 11:37:04.15,263,-94,-2054,131,30,81,18,-599,617,290
,790,2023-10-27 11:37:04.16,280,-104,-2049,129,29,86,-37,-741,704,389
,791,2023-10-27 11:37:04.17,271,-107,-2050,130,20,88,39,-599,638,280
,792,2023-10-27 11:37:04.18,265,-112,-2045,137,13,90,-16,-738,722,377
,793,2023-10-27 11:37:04.19,267,-113,-2045,137,-1,94,46,-594,640,274
,794,2023-10-27 11:37:04.20,270,-112,-2049,139,-12,98,-49,-743,694,396
,795,2023-10-27 11:37:04.21,263,-130,-2054,137,-25,102,9,-603,612,297
,796,2023-10-27 11:37:04.22,272,-129,-2049,141,-21,105,-39,-747,708,393
,797,2023-10-27 11:37:04.23,258,-135,-2045,147,-23,106,28,-604,632,288
,798,2023-10-27 11:37:04.24,254,-144,-2050,142,-27,111,-40,-741,701,390
,799,2023-10-27 11:37:04.25,266,-143,-2054,136,-30,113,21,-592,613,285
,800,2023-10-27 11:37:04.26,258,-131,-2049,136,-33,111,-12,-724,712,368
,801,2023-10-27 11:37:04.27,256,-124,-2056,144,-31,107,46,-581,627,267
,802,2023-10-27 11:37:04.28,252,-113,-2057,148,-37,99,-30,-730,700,380
,803,2023-10-27 11:37:04.29,279,-140,-2036,141,-36,97,18,-598,616,290
,804,2023-10-27 11:37:04.30,289,-161,-1998,148,-30,95,-43,-744,701,393
,805,2023-10-27 11:37:04.31,283,-194,-1993,170,-13,104,11,-605,616,297
,806,2023-10-27 11:37:04.32,260,-190,-2020,180,5,95,-51,-740,689,395
,807,2023-10-27 11:37:04.33,221,-167,-2071,161,19,94,-5,-601,596,303
,808,2023-10-27 11:37:04.34,216,-133,-2100,129,8,87,-59,-752,693,405
,809,2023-10-27 11:37:04.35,237,-100,-2087,118,-14,88,9,-611,620,301
,810,2023-10-27 11:37:04.36,260,-118,-2051,121,-32,77,-26,-740,714,383
,811,2023-10-27 11:37:04.37,267,-158,-1985,132,-24,55,20,-603,623,291
,812,2023-10-27 11:37:04.38,268,-168,-2044,128,16,33,-35,-743,708,389
,813,2023-10-27 11:37:04.39,265,-181,-2016,112,13,25,6,-604,610,299
,814,2023-10-27 11:37:04.40,256,-158,-2009,110,27,22,-38,-736,698,387
,815,2023-10-27 11:37:04.41,242,-161,-2057,108,26,15,13,-600,613,293
,816,2023-10-27 11:37:04.42,258,-198,-2067,98,21,25,-23,-729,706,376
,817,2023-10-27 11:37:04.43,239,-186,-2055,106,19,21,15,-595,610,290
,818,2023-10-27 11:37:04.44,243,-192,-2070,113,9,26,-25,-718,693,371
,819,2023-10-27 11:37:04.45,223,-194,-2044,101,1,31,23,-580,603,278
,820,2023-10-27 11:37:04.46,251,-197,-2043,92,-13,43,15,-707,722,346
,821,2023-10-27 11:37:04.47,252,-240,-2041,98,-11,53,59,-575,634,258
,822,2023-10-27 11:37:04.48,251,-241,-2033,134,-6,52,33,-693,726,330
,823,2023-10-27 11:37:04.49,217,-207,-2023,161,-3,55,65,-560,625,247
,824,2023-10-27 11:37:04.50,250,-189,-2033,152,-17,62,50,-671,721,310
,825,2023-10-27 11:37:04.51,252,-198,-2045,125,-17,76,90,-534,624,222
,826,2023-10-27 11:37:04.52,239,-203,-2063,120,-9,77,78,-659,737,290
,827,2023-10-27 11:37:04.53,269,-240,-2050,134,23,74,96,-540,636,222
,828,2023-10-27 11:37:04.54,233,-242,-2015,142,24,74,56,-674,730,309
,829,2023-10-27 11:37:04.55,229,-233,-2008,141,12,78,62,-559,621,248
,830,2023-10-27 11:37:04.56,243,-217,-2042,139,8,79,26,-682,708,328
,831,2023-10-27 11:37:04.57,257,-215,-2046,134,8,74,51,-572,623,260
,832,2023-10-27 11:37:04.58,227,-213,-2049,134,10,69,38,-692,730,327
,833,2023-10-27 11:37:04.59,237,-228,-2066,124,10,54,46,-586,632,270
,834,2023-10-27 11:37:04.60,231,-223,-2077,122,6,32,6,-701,707,347
,835,2023-10-27 11:37:04.61,235,-202,-2049,133,-13,13,4,-596,600,296
,836,2023-10-27 11:37:04.62,257,-200,-2015,131,-39,4,-24,-711,687,367
,837,2023-10-27 11:37:04.63,290,-220,-2002,115,-49,-2,-20,-616,596,318
,838,2023-10-27 11:37:04.64,387,-312,-1901,110,-35,10,-56,-730,674,393
,839,2023-10-27 11:37:04.65,260,-283,-1963,142,53,8,-45,-631,586,338
,840,2023-10-27 11:37:04.66,232,-329,-2069,140,103,-9,-71,-731,660,401
,841,2023-10-27 11:37:04.67,216,-293,-2073,131,65,0,-66,-636,570,351
,842,2023-10-27 11:37:04.68,251,-202,-2117,93,25,21,-70,-739,669,404
,843,2023-10-27 11:37:04.69,229,-144,-2081,64,-41,15,-71,-656,585,363
,844,2023-10-27 11:37:04.70,261,-307,-1977,66,-56,66,-97,-750,653,423
,845,2023-10-27 11:37:04.71,250,-217,-2060,87,14,17,-85,-654,569,369
,846,2023-10-27 11:37:04.72,280,-366,-2023,57,25,16,-80,-724,644,402
,847,2023-10-27 11:37:04.73,235,-296,-2009,33,-6,30,-65,-631,566,348
,848,2023-10-27 11:37:04.74,253,-257,-2020,52,-30,37,-40,-699,659,369
,849,2023-10-27 11:37:04.75,267,-287,-2050,88,-18,32,-41,-625,584,333
,850,2023-10-27 11:37:04.76,276,-302,-2034,94,-2,28,-46,-709,663,377
,851,2023-10-27 11:37:04.77,244,-291,-2015,72,6,28,-75,-644,569,359
,852,2023-10-27 11:37:04.78,242,-274,-2033,58,-6,36,-74,-719,645,396
,853,2023-10-27 11:37:04.79,246,-284,-2031,65,-21,44,-74,-654,580,364
,854,2023-10-27 11:37:04.80,271,-270,-2043,79,-18,40,-66,-730,664,398
,855,2023-10-27 11:37:04.81,250,-280,-2038,76,-17,39,-79,-667,588,373
,856,2023-10-27 11:37:04.82,262,-272,-2034,63,-6,34,-59,-724,665,391
,857,2023-10-27 11:37:04.83,230,-284,-2026,54,-7,32,-79,-661,582,370
,858,2023-10-27 11:37:04.84,222,-290,-2013,59,-25,40,-64,-722,658,393
,859,2023-10-27 11:37:04.85,258,-301,-2017,62,-21,44,-72,-669,597,370
,860,2023-10-27 11:37:04.86,244,-301,-2030,54,2,40,-40,-713,673,376
,861,2023-10-27 11:37:04.87,225,-288,-2033,38,13,42,-70,-658,588,364
,862,2023-10-27 11:37:04.88,219,-279,-2008,33,-3,50,-55,-698,643,376
,863,2023-10-27 11:37:04.89,248,-273,-2016,34,-20,49,-82,-659,577,370
,864,2023-10-27 11:37:04.90,253,-269,-2024,31,-18,46,-34,-699,665,366
,865,2023-10-27 11:37:04.91,248,-267,-2027,19,-17,42,-57,-661,604,359
,866,2023-10-27 11:37:04.92,253,-251,-2000,18,-21,37,-25,-698,673,361
,867,2023-10-27 11:37:04.93,238,-244,-2030,41,-18,23,-68,-669,601,368
,868,2023-10-27 11:37:04.94,259,-302,-2028,61,-17,18,-25,-685,660,355
,869,2023-10-27 11:37:04.95,246,-318,-2010,49,-17,21,-63,-657,594,360
,870,2023-10-27 11:37:04.96,245,-289,-2013,20,-1,22,-18,-671,653,344
,871,2023-10-27 11:37:04.97,219,-286,-2068,-6,2,18,-60,-653,593,356
,872,2023-10-27 11:37:04.98,236,-290,-2071,-15,-19,23,-22,-661,639,341
,873,2023-10-27 11:37:04.99,248,-275,-2017,-4,-39,32,-66,-647,581,356
,874,2023-10-27 11:37:05.00,255,-308,-2023,9,-38,38,-24,-668,644,346
,875,2023-10-27 11:37:05.01,235,-313,-2030,10,-28,31,-61,-657,596,359
,876,2023-10-27 11:37:05.02,237,-308,-2045,2,-14,32,-17,-652,635,334
,877,2023-10-27 11:37:05.03,254,-310,-2025,-2,-20,36,-66,-651,585,358
,878,2023-10-27 11:37:05.04,243,-291,-2018,4,-18,35,-16,-665,649,340
,879,2023-10-27 11:37:05.05,245,-268,-2040,11,-9,31,-96,-682,586,389
,880,2023-10-27 11:37:05.06,271,-301,-2072,-17,23,26,-88,-704,616,396
,881,2023-10-27 11:37:05.07,226,-291,-2021,-29,19,23,-192,-728,536,460
,882,2023-10-27 11:37:05.08,199,-284,-2013,-3,-9,30,-203,-757,554,480
,883,2023-10-27 11:37:05.09,254,-287,-2029,12,-25,38,-264,-779,515,521
,884,2023-10-27 11:37:05.10,235,-290,-2026,12,-27,40,-215,-776,561,495
,885,2023-10-27 11:37:05.11,238,-277,-2042,-1,-18,38,-226,-772,546,499
,886,2023-10-27 11:37:05.12,243,-283,-2056,-15,-11,37,-152,-742,590,447
,887,2023-10-27 11:37:05.13,211,-280,-2031,-8,-12,35,-163,-741,578,452
,888,2023-10-27 11:37:05.14,224,-286,-2020,11,-29,31,-71,-708,637,389
,889,2023-10-27 11:37:05.15,249,-275,-2016,16,-42,31,-86,-712,626,399
,890,2023-10-27 11:37:05.16,234,-262,-2030,2,-34,23,4,-658,662,327
,891,2023-10-27 11:37:05.17,236,-265,-2060,-4,-27,21,-34,-673,639,353
,892,2023-10-27 11:37:05.18,236,-261,-2046,-8,-13,16,48,-622,670,287
,893,2023-10-27 11:37:05.19,221,-279,-2049,-11,-16,15,4,-647,651,321
,894,2023-10-27 11:37:05.20,220,-289,-2035,-18,-54,22,102,-593,695,245
,895,2023-10-27 11:37:05.21,235,-273,-2045,-10,-57,26,51,-632,683,290
,896,2023-10-27 11:37:05.22,243,-269,-2035,-3,-38,18,128,-578,706,225
,897,2023-10-27 11:37:05.23,231,-264,-2031,-8,-23,12,84,-624,708,270
,898,2023-10-27 11:37:05.24,207,-260,-2029,-18,-38,17,169,-564,733,197
,899,2023-10-27 11:37:05.25,236,-267,-2033,-25,-51,29,124,-617,741,246
,900,2023-10-27 11:37:05.26,237,-272,-2046,-18,-32,24,202,-548,750,173
,901,2023-10-27 11:37:05.27,214,-292,-2040,1,-29,18,126,-611,737,242
,902,2023-10-27 11:37:05.28,215,-270,-2026,20,-31,15,185,-551,736,183
,903,2023-10-27 11:37:05.29,210,-250,-2029,41,-48,6,90,-626,716,268
,904,2023-10-27 11:37:05.30,223,-230,-2033,46,-57,-2,146,-560,706,207
,905,2023-10-27 11:37:05.31,239,-241,-2022,36,-57,-2,15,-643,658,314
,906,2023-10-27 11:37:05.32,247,-265,-2010,20,-32,0,58,-577,635,259
,907,2023-10-27 11:37:05.33,226,-308,-2010,18,-20,10,-35,-658,623,346
,908,2023-10-27 11:37:05.34,203,-317,-2041,32,-21,15,32,-585,617,276
,909,2023-10-27 11:37:05.35,221,-305,-2064,46,-25,25,-49,-670,621,359
,910,2023-10-27 11:37:05.36,221,-278,-2052,39,-30,34,29,-597,626,284
,911,2023-10-27 11:37:05.37,209,-270,-2035,40,-41,40,-46,-681,635,363
,912,2023-10-27 11:37:05.38,229,-275,-2028,33,-49,49,34,-597,631,281
,913,2023-10-27 11:37:05.39,235,-289,-2044,22,-36,52,-58,-697,639,377
,914,2023-10-27 11:37:05.40,221,-289,-2039,10,-23,53,29,-606,635,288
,915,2023-10-27 11:37:05.41,219,-287,-2037,10,-31,60,-52,-699,647,375
,916,2023-10-27 11:37:05.42,205,-293,-2028,14,-39,63,39,-593,632,277
,917,2023-10-27 11:37:05.43,212,-282,-2026,20,-49,62,-28,-689,661,358
,918,2023-10-27 11:37:05.44,209,-282,-2040,27,-48,65,48,-590,638,271
,919,2023-10-27 11:37:05.45,213,-284,-2038,24,-48,55,-28,-694,666,361
,920,2023-10-27 11:37:05.46,220,-284,-2038,14,-38,57,67,-589,656,261
,921,2023-10-27 11:37:05.47,194,-281,-2034,17,-43,49,-14,-697,683,355
,922,2023-10-27 11:37:05.48,198,-291,-2033,13,-35,54,70,-589,659,259
,923,2023-10-27 11:37:05.49,200,-290,-2032,10,-38,56,-12,-699,687,355
,924,2023-10-27 11:37:05.50,186,-297,-2040,9,-43,59,68,-595,663,263
,925,2023-10-27 11:37:05.51,200,-296,-2038,5,-33,60,-8,-707,699,357
,926,2023-10-27 11:37:05.52,190,-299,-2031,4,-31,64,77,-589,666,256
,927,2023-10-27 11:37:05.53,201,-303,-2035,5,-38,68,-1,-701,700,351
,928,2023-10-27 11:37:05.54,178,-297,-2030,10,-41,65,74,-584,658,255
,929,2023-10-27 11:37:05.55,187,-305,-2027,10,-43,67,2,-701,703,349
,930,2023-10-27 11:37:05.56,202,-297,-2020,10,-32,65,69,-586,655,258
,931,2023-10-27 11:37:05.57,187,-306,-2020,10,-31,62,-41,-711,670,376
,932,2023-10-27 11:37:05.58,193,-296,-2021,6,-25,63,16,-594,610,289
,933,2023-10-27 11:37:05.59,176,-286,-2024,2,-28,59,-72,-718,646,395
,934,2023-10-27 11:37:05.60,180,-290,-2027,4,-33,58,8,-594,602,293
,935,2023-10-27 11:37:05.61,196,-292,-2041,0,-21,52,-68,-723,655,395
,936,2023-10-27 11:37:05.62,197,-283,-2046,-6,-10,47,16,-605,621,294
,937,2023-10-27 11:37:05.63,182,-267,-2032,-1,-12,38,-63,-734,671,398
,938,2023-10-27 11:37:05.64,185,-278,-2018,13,-25,30,4,-612,616,304
,939,2023-10-27 11:37:05.65,196,-271,-1996,49,-28,21,-83,-736,653,409
,940,2023-10-27 11:37:05.66,157,-291,-2066,57,-22,14,-16,-608,592,312
,941,2023-10-27 11:37:05.67,167,-310,-2051,30,-37,17,-91,-740,649,415
,942,2023-10-27 11:37:05.68,191,-312,-2007,15,-29,26,-13,-614,601,313
,943,2023-10-27 11:37:05.69,182,-326,-2056,8,-12,34,-118,-748,630,433
,944,2023-10-27 11:37:05.70,161,-315,-2043,-14,-14,41,-60,-611,551,335
,945,2023-10-27 11:37:05.71,164,-306,-2021,-25,-5,49,-221,-781,560,501
,946,2023-10-27 11:37:05.72,161,-292,-2034,-16,-2,51,-201,-707,506,454
,947,2023-10-27 11:37:05.73,183,-287,-2026,-20,-10,58,-338,-869,531,603
,948,2023-10-27 11:37:05.74,179,-278,-2021,-30,0,58,-274,-746,472,510
,949,2023-10-27 11:37:05.75,189,-288,-2031,-43,10,59,-411,-905,494,658
,950,2023-10-27 11:37:05.76,179,-290,-2041,-51,14,59,-353,-809,456,581
,951,2023-10-27 11:37:05.77,163,-294,-2055,-49,17,60,-441,-945,504,693
,952,2023-10-27 11:37:05.78,186,-290,-2041,-43,19,65,-323,-807,484,565
,953,2023-10-27 11:37:05.79,185,-287,-2033,-38,20,66,-358,-924,566,641
