// Data mode  : Full
// Data quality  : High
// Acceleration sensor's range  : 16g
// Gyroscope sensor's range  : 2000dps
//
//ARTIFACT,NUM,DATE,ACC_X,ACC_Y,ACC_Z,GYRO_X,GYRO_Y,GYRO_Z,EOG_L,EOG_R,EOG_H,EOG_V
,1,2023-10-27 11:43:25.66,-123,165,-2048,36,-42,143,308,131,177,-219
,2,2023-10-27 11:43:25.67,-119,167,-2053,48,-36,145,250,108,142,-179
,3,2023-10-27 11:43:25.68,-121,160,-2046,43,-43,146,316,139,177,-227
,4,2023-10-27 11:43:25.69,-123,159,-2052,46,-48,145,254,113,141,-183
,5,2023-10-27 11:43:25.70,-116,172,-2049,47,-59,145,333,149,184,-241
,6,2023-10-27 11:43:25.71,-116,160,-2050,40,-59,154,259,117,142,-188
,7,2023-10-27 11:43:25.72,-114,159,-2034,37,-64,159,336,156,180,-246
,8,2023-10-27 11:43:25.73,-119,150,-2046,35,-56,174,258,112,146,-185
,9,2023-10-27 11:43:25.74,-112,129,-2045,32,-54,186,342,159,183,-250
,10,2023-10-27 11:43:25.75,-113,124,-2037,26,-63,200,260,118,142,-189
,11,2023-10-27 11:43:25.76,-101,106,-2043,21,-63,224,349,172,177,-260
,12,2023-10-27 11:43:25.77,-109,97,-2069,15,-69,251,257,123,134,-190
,13,2023-10-27 11:43:25.78,-106,87,-2056,21,-87,271,355,178,177,-266
,14,2023-10-27 11:43:25.79,-100,76,-2040,23,-74,305,257,121,136,-189
,15,2023-10-27 11:43:25.80,-94,71,-2049,19,-67,329,360,185,175,-272
,16,2023-10-27 11:43:25.81,-88,76,-2048,30,-70,349,267,131,136,-199
,17,2023-10-27 11:43:25.82,-96,83,-2046,37,-68,371,374,199,175,-286
,18,2023-10-27 11:43:25.83,-84,97,-2044,49,-67,391,268,134,134,-201
,19,2023-10-27 11:43:25.84,-109,90,-2035,60,-49,412,381,212,169,-296
,20,2023-10-27 11:43:25.85,-123,95,-2023,64,-33,434,270,143,127,-206
,21,2023-10-27 11:43:25.86,-117,113,-2029,56,-25,449,388,225,163,-306
,22,2023-10-27 11:43:25.87,-121,121,-2037,44,-10,462,266,137,129,-201
,23,2023-10-27 11:43:25.88,-105,122,-2028,34,-4,473,374,203,171,-288
,24,2023-10-27 11:43:25.89,-119,118,-2030,34,15,480,260,113,147,-186
,25,2023-10-27 11:43:25.90,-118,97,-2054,33,35,494,386,195,191,-290
,26,2023-10-27 11:43:25.91,-116,85,-2050,39,38,509,264,115,149,-189
,27,2023-10-27 11:43:25.92,-128,78,-2042,45,36,533,383,192,191,-287
,28,2023-10-27 11:43:25.93,-115,54,-2051,56,43,562,250,100,150,-175
,29,2023-10-27 11:43:25.94,-103,39,-2019,64,51,601,372,172,200,-272
,30,2023-10-27 11:43:25.95,-107,39,-2006,77,72,636,247,87,160,-167
,31,2023-10-27 11:43:25.96,-112,55,-2018,91,78,655,390,182,208,-286
,32,2023-10-27 11:43:25.97,-120,88,-2033,107,71,667,256,89,167,-172
,33,2023-10-27 11:43:25.98,-112,138,-2027,130,39,663,395,182,213,-288
,34,2023-10-27 11:43:25.99,-94,160,-2008,135,20,671,252,83,169,-167
,35,2023-10-27 11:43:26.00,-101,167,-2011,120,36,686,386,175,211,-280
,36,2023-10-27 11:43:26.01,-119,185,-2043,95,59,682,238,72,166,-155
,37,2023-10-27 11:43:26.02,-124,186,-2041,75,73,682,389,175,214,-282
,38,2023-10-27 11:43:26.03,-120,139,-2036,48,77,696,241,71,170,-156
,39,2023-10-27 11:43:26.04,-134,126,-2041,22,96,709,371,162,209,-266
,40,2023-10-27 11:43:26.05,-98,159,-2022,-8,103,713,212,43,169,-127
,41,2023-10-27 11:43:26.06,-130,158,-2034,-20,107,714,339,125,214,-232
,42,2023-10-27 11:43:26.07,-99,154,-2035,-3,101,708,182,6,176,-94
,43,2023-10-27 11:43:26.08,-92,144,-1995,55,91,686,303,95,208,-199
,44,2023-10-27 11:43:26.09,-78,123,-1978,81,108,705,149,-12,161,-68
,45,2023-10-27 11:43:26.10,-137,145,-2063,50,104,711,288,105,183,-196
,46,2023-10-27 11:43:26.11,-94,212,-2069,0,21,706,162,17,145,-89
,47,2023-10-27 11:43:26.12,-99,241,-2056,-25,4,723,353,169,184,-261
,48,2023-10-27 11:43:26.13,-129,234,-2039,-11,30,719,256,99,157,-177
,49,2023-10-27 11:43:26.14,-127,217,-2043,-28,65,710,485,288,197,-386
,50,2023-10-27 11:43:26.15,-94,212,-2061,-67,52,702,374,210,164,-292
,51,2023-10-27 11:43:26.16,-85,201,-2054,-81,12,710,593,389,204,-491
,52,2023-10-27 11:43:26.17,-83,214,-2055,-60,-17,707,424,249,175,-336
,53,2023-10-27 11:43:26.18,-75,214,-2032,-39,-43,692,608,391,217,-499
,54,2023-10-27 11:43:26.19,-81,213,-2041,-50,-57,683,408,228,180,-318
,55,2023-10-27 11:43:26.20,-86,235,-2074,-44,-73,669,570,356,214,-463
,56,2023-10-27 11:43:26.21,-95,253,-2065,-33,-84,646,364,185,179,-274
,57,2023-10-27 11:43:26.22,-73,245,-2051,-48,-100,635,510,294,216,-402
,58,2023-10-27 11:43:26.23,-88,215,-2068,-72,-88,628,302,126,176,-214
,59,2023-10-27 11:43:26.24,-101,233,-2045,-84,-67,594,449,253,196,-351
,60,2023-10-27 11:43:26.25,-75,219,-2074,-103,-45,575,263,102,161,-182
,61,2023-10-27 11:43:26.26,-65,222,-2066,-84,-56,539,416,228,188,-322
,62,2023-10-27 11:43:26.27,-58,228,-2051,-68,-64,522,238,79,159,-158
,63,2023-10-27 11:43:26.28,-79,229,-2037,-57,-56,499,400,212,188,-306
,64,2023-10-27 11:43:26.29,-69,240,-2036,-49,-44,458,230,76,154,-153
,65,2023-10-27 11:43:26.30,-66,253,-2020,-31,-22,429,389,215,174,-302
,66,2023-10-27 11:43:26.31,-56,234,-1999,-9,-5,405,221,73,148,-147
,67,2023-10-27 11:43:26.32,-62,240,-2007,-13,23,386,390,213,177,-301
,68,2023-10-27 11:43:26.33,-64,216,-2008,-19,38,356,216,76,140,-146
,69,2023-10-27 11:43:26.34,-52,220,-2007,-4,40,321,371,220,151,-295
,70,2023-10-27 11:43:26.35,-60,205,-2023,6,61,306,202,78,124,-140
,71,2023-10-27 11:43:26.36,-61,206,-2056,19,57,278,364,200,164,-282
,72,2023-10-27 11:43:26.37,-30,188,-2051,38,51,252,200,40,160,-120
,73,2023-10-27 11:43:26.38,-55,186,-2029,91,63,226,361,175,186,-268
,74,2023-10-27 11:43:26.39,-30,195,-2024,109,81,215,201,33,168,-117
,75,2023-10-27 11:43:26.40,-61,163,-2060,78,82,215,361,165,196,-263
,76,2023-10-27 11:43:26.41,-45,200,-2082,53,40,199,210,38,172,-124
,77,2023-10-27 11:43:26.42,-35,205,-2070,56,36,195,385,201,184,-293
,78,2023-10-27 11:43:26.43,-33,202,-2043,69,55,180,227,62,165,-144
,79,2023-10-27 11:43:26.44,-29,166,-2050,50,72,170,379,190,189,-284
,80,2023-10-27 11:43:26.45,-23,154,-2070,33,73,163,237,52,185,-144
,81,2023-10-27 11:43:26.46,-15,150,-2070,53,47,172,401,208,193,-304
,82,2023-10-27 11:43:26.47,-10,140,-2038,82,32,179,236,57,179,-146
,83,2023-10-27 11:43:26.48,-17,146,-2031,94,39,170,392,192,200,-292
,84,2023-10-27 11:43:26.49,-7,160,-2027,96,72,169,251,51,200,-151
,85,2023-10-27 11:43:26.50,-10,152,-2037,109,91,168,400,194,206,-297
,86,2023-10-27 11:43:26.51,-12,149,-2039,123,92,170,238,43,195,-140
,87,2023-10-27 11:43:26.52,-15,163,-2034,125,93,167,380,166,214,-273
,88,2023-10-27 11:43:26.53,-20,182,-2043,115,105,163,241,34,207,-137
,89,2023-10-27 11:43:26.54,-30,178,-2055,110,114,163,390,174,216,-282
,90,2023-10-27 11:43:26.55,-16,172,-2068,106,116,164,251,44,207,-147
,91,2023-10-27 11:43:26.56,-23,170,-2065,109,103,165,393,185,208,-289
,92,2023-10-27 11:43:26.57,-21,164,-2079,102,85,160,251,52,199,-151
,93,2023-10-27 11:43:26.58,-9,165,-2074,98,64,157,384,183,201,-283
,94,2023-10-27 11:43:26.59,-29,167,-2063,92,47,159,254,57,197,-155
,95,2023-10-27 11:43:26.60,-17,177,-2067,86,40,154,392,197,195,-294
,96,2023-10-27 11:43:26.61,-16,165,-2045,80,27,145,257,69,188,-163
,97,2023-10-27 11:43:26.62,-12,164,-2050,76,19,139,382,196,186,-289
,98,2023-10-27 11:43:26.63,-14,148,-2042,73,20,137,255,71,184,-163
,99,2023-10-27 11:43:26.64,-25,138,-2042,72,18,127,381,198,183,-289
,100,2023-10-27 11:43:26.65,-28,142,-2037,70,18,120,256,73,183,-164
,101,2023-10-27 11:43:26.66,-18,147,-2036,73,26,119,384,200,184,-292
,102,2023-10-27 11:43:26.67,-15,137,-2035,79,32,109,263,76,187,-169
,103,2023-10-27 11:43:26.68,-16,138,-2041,84,26,102,375,194,181,-284
,104,2023-10-27 11:43:26.69,-18,141,-2057,88,18,100,266,75,191,-170
,105,2023-10-27 11:43:26.70,-26,148,-2054,90,11,92,378,200,178,-289
,106,2023-10-27 11:43:26.71,-26,142,-2051,94,16,92,269,81,188,-175
,107,2023-10-27 11:43:26.72,-31,139,-2066,99,22,88,364,185,179,-274
,108,2023-10-27 11:43:26.73,-29,131,-2049,108,16,77,270,67,203,-168
,109,2023-10-27 11:43:26.74,-7,108,-2033,110,19,77,382,187,195,-284
,110,2023-10-27 11:43:26.75,-33,115,-2054,97,36,94,294,90,204,-192
,111,2023-10-27 11:43:26.76,-46,137,-2069,116,21,68,385,195,190,-290
,112,2023-10-27 11:43:26.77,-36,131,-2049,134,8,56,296,101,195,-198
,113,2023-10-27 11:43:26.78,-22,116,-2056,114,4,45,373,195,178,-284
,114,2023-10-27 11:43:26.79,-40,129,-2054,92,1,46,274,70,204,-172
,115,2023-10-27 11:43:26.80,-25,120,-2064,83,-6,42,368,178,190,-273
,116,2023-10-27 11:43:26.81,-44,115,-2066,74,-4,39,286,87,199,-186
,117,2023-10-27 11:43:26.82,-14,113,-2058,57,-16,33,362,183,179,-272
,118,2023-10-27 11:43:26.83,-20,130,-2052,48,-23,27,284,87,197,-185
,119,2023-10-27 11:43:26.84,-23,131,-2055,41,-22,21,355,174,181,-264
,120,2023-10-27 11:43:26.85,-17,126,-2054,30,-21,12,282,84,198,-183
,121,2023-10-27 11:43:26.86,-20,121,-2056,24,-27,8,350,173,177,-261
,122,2023-10-27 11:43:26.87,-16,115,-2051,22,-36,9,288,90,198,-189
,123,2023-10-27 11:43:26.88,-20,99,-2047,16,-29,10,343,167,176,-255
,124,2023-10-27 11:43:26.89,-12,95,-2039,10,-22,17,288,86,202,-187
,125,2023-10-27 11:43:26.90,-13,79,-2019,6,-12,25,343,161,182,-252
,126,2023-10-27 11:43:26.91,-28,73,-2056,13,3,46,288,79,209,-183
,127,2023-10-27 11:43:26.92,-22,73,-2039,23,-1,28,336,153,183,-244
,128,2023-10-27 11:43:26.93,-18,87,-2037,26,3,32,285,80,205,-182
,129,2023-10-27 11:43:26.94,-42,81,-2053,48,2,16,329,148,181,-238
,130,2023-10-27 11:43:26.95,-18,117,-2022,71,12,-25,286,77,209,-181
,131,2023-10-27 11:43:26.96,-44,95,-2044,64,43,-22,329,144,185,-236
,132,2023-10-27 11:43:26.97,-20,122,-2037,50,50,-35,297,95,202,-196
,133,2023-10-27 11:43:26.98,-12,106,-2024,14,57,-22,331,155,176,-243
,134,2023-10-27 11:43:26.99,-16,97,-2048,-18,83,-7,296,85,211,-190
,135,2023-10-27 11:43:27.00,4,96,-2037,-30,99,-8,317,132,185,-224
,136,2023-10-27 11:43:27.01,18,74,-2058,-26,119,12,296,79,217,-187
,137,2023-10-27 11:43:27.02,8,57,-2069,-26,97,28,324,131,193,-227
,138,2023-10-27 11:43:27.03,4,66,-2048,-14,81,39,312,83,229,-197
,139,2023-10-27 11:43:27.04,6,69,-2033,-1,78,50,325,128,197,-226
,140,2023-10-27 11:43:27.05,3,59,-2057,5,75,73,317,86,231,-201
,141,2023-10-27 11:43:27.06,2,72,-2055,2,49,87,322,128,194,-225
,142,2023-10-27 11:43:27.07,3,109,-2063,-6,30,99,322,95,227,-208
,143,2023-10-27 11:43:27.08,-3,120,-2060,-34,14,116,328,124,204,-226
,144,2023-10-27 11:43:27.09,-13,131,-2059,-60,12,132,323,78,245,-200
,145,2023-10-27 11:43:27.10,10,156,-2043,-93,34,138,310,101,209,-205
,146,2023-10-27 11:43:27.11,12,142,-2053,-118,61,146,310,69,241,-189
,147,2023-10-27 11:43:27.12,20,126,-2051,-128,73,152,304,99,205,-201
,148,2023-10-27 11:43:27.13,6,114,-2054,-115,65,148,322,84,238,-203
,149,2023-10-27 11:43:27.14,26,113,-2049,-86,43,146,310,111,199,-210
,150,2023-10-27 11:43:27.15,11,129,-2037,-72,29,151,326,88,238,-207
,151,2023-10-27 11:43:27.16,3,136,-2048,-60,29,157,301,104,197,-202
,152,2023-10-27 11:43:27.17,14,129,-2065,-53,35,159,329,89,240,-209
,153,2023-10-27 11:43:27.18,6,141,-2055,-47,37,168,307,102,205,-204
,154,2023-10-27 11:43:27.19,-2,122,-2073,-37,52,184,354,107,247,-230
,155,2023-10-27 11:43:27.20,17,104,-2047,-21,46,194,316,115,201,-215
,156,2023-10-27 11:43:27.21,8,89,-2051,-5,50,208,381,143,238,-262
,157,2023-10-27 11:43:27.22,12,126,-2041,15,44,211,339,138,201,-238
,158,2023-10-27 11:43:27.23,25,130,-2036,14,37,225,404,137,267,-270
,159,2023-10-27 11:43:27.24,34,129,-2042,11,32,229,356,132,224,-244
,160,2023-10-27 11:43:27.25,33,135,-2037,22,38,236,432,150,282,-291
,161,2023-10-27 11:43:27.26,23,126,-2051,14,45,245,369,136,233,-252
,162,2023-10-27 11:43:27.27,31,120,-2056,3,30,250,452,155,297,-303
,163,2023-10-27 11:43:27.28,3,146,-2064,-2,26,255,389,145,244,-267
,164,2023-10-27 11:43:27.29,16,138,-2057,2,26,253,494,191,303,-342
,165,2023-10-27 11:43:27.30,9,132,-2056,-3,19,264,411,172,239,-291
,166,2023-10-27 11:43:27.31,12,142,-2056,-5,9,260,522,222,300,-372
,167,2023-10-27 11:43:27.32,28,150,-2052,-6,12,267,428,195,233,-311
,168,2023-10-27 11:43:27.33,22,124,-2047,-2,21,269,531,252,279,-391
,169,2023-10-27 11:43:27.34,28,116,-2047,-3,28,273,420,200,220,-310
,170,2023-10-27 11:43:27.35,35,112,-2055,0,40,274,515,232,283,-373
,171,2023-10-27 11:43:27.36,30,111,-2055,11,39,265,394,172,222,-283
,172,2023-10-27 11:43:27.37,20,127,-2077,35,26,247,489,216,273,-352
,173,2023-10-27 11:43:27.38,31,153,-2058,62,8,233,381,160,221,-270
,174,2023-10-27 11:43:27.39,23,154,-2066,66,7,231,490,214,276,-352
,175,2023-10-27 11:43:27.40,9,166,-2087,61,1,218,368,152,216,-260
,176,2023-10-27 11:43:27.41,31,193,-2061,52,-22,189,476,193,283,-334
,177,2023-10-27 11:43:27.42,36,182,-2030,37,-20,182,346,124,222,-235
,178,2023-10-27 11:43:27.43,42,159,-2022,14,-8,173,422,160,262,-291
,179,2023-10-27 11:43:27.44,59,155,-2028,-22,18,155,277,82,195,-179
,180,2023-10-27 11:43:27.45,50,162,-2046,-18,23,134,332,111,221,-221
,181,2023-10-27 11:43:27.46,67,137,-2062,13,8,123,193,44,149,-118
,182,2023-10-27 11:43:27.47,51,138,-2061,42,-10,111,240,93,147,-166
,183,2023-10-27 11:43:27.48,63,140,-2054,55,-13,113,120,25,95,-72
,184,2023-10-27 11:43:27.49,64,157,-2050,53,5,117,176,63,113,-119
,185,2023-10-27 11:43:27.50,61,160,-2080,52,15,125,66,-6,72,-30
,186,2023-10-27 11:43:27.51,56,163,-2094,54,3,134,135,44,91,-89
,187,2023-10-27 11:43:27.52,53,168,-2077,59,-23,144,32,-28,60,-2
,188,2023-10-27 11:43:27.53,46,176,-2078,62,-46,157,115,21,94,-68
,189,2023-10-27 11:43:27.54,54,177,-2076,62,-56,161,24,-60,84,18
,190,2023-10-27 11:43:27.55,44,166,-2071,71,-53,167,112,-28,140,-42
,191,2023-10-27 11:43:27.56,46,159,-2066,78,-61,172,11,-109,120,49
,192,2023-10-27 11:43:27.57,53,146,-2055,95,-69,166,89,-75,164,-7
,193,2023-10-27 11:43:27.58,59,153,-2043,110,-52,166,-6,-146,140,76
,194,2023-10-27 11:43:27.59,43,150,-2040,127,-31,153,113,-82,195,-15
,195,2023-10-27 11:43:27.60,49,140,-2045,133,-22,143,53,-117,170,32
,196,2023-10-27 11:43:27.61,53,131,-2042,145,-9,137,215,-5,220,-105
,197,2023-10-27 11:43:27.62,31,97,-2040,180,26,141,119,-63,182,-28
,198,2023-10-27 11:43:27.63,34,92,-2035,221,51,125,256,24,232,-140
,199,2023-10-27 11:43:27.64,33,67,-2053,234,39,126,142,-50,192,-46
,200,2023-10-27 11:43:27.65,4,84,-2064,244,9,128,290,54,236,-172
,201,2023-10-27 11:43:27.66,16,97,-2057,264,6,131,162,-28,190,-67
,202,2023-10-27 11:43:27.67,7,95,-2064,288,12,120,308,76,232,-192
,203,2023-10-27 11:43:27.68,-3,93,-2067,290,-1,109,176,-12,188,-82
,204,2023-10-27 11:43:27.69,12,91,-2047,285,-23,110,340,105,235,-222
,205,2023-10-27 11:43:27.70,-36,73,-2079,295,-12,114,206,14,192,-110
,206,2023-10-27 11:43:27.71,-62,101,-2058,345,-20,50,362,134,228,-248
,207,2023-10-27 11:43:27.72,-8,124,-2017,338,-58,14,220,42,178,-131
,208,2023-10-27 11:43:27.73,-24,133,-2021,272,-90,13,388,174,214,-281
,209,2023-10-27 11:43:27.74,-19,148,-2011,213,-61,-13,234,54,180,-144
,210,2023-10-27 11:43:27.75,-9,138,-2007,189,9,-48,391,171,220,-281
,211,2023-10-27 11:43:27.76,6,86,-2001,191,56,-83,245,62,183,-153
,212,2023-10-27 11:43:27.77,14,33,-1993,183,80,-95,422,198,224,-310
,213,2023-10-27 11:43:27.78,-20,22,-2017,189,84,-126,270,83,187,-176
,214,2023-10-27 11:43:27.79,-12,21,-2020,209,71,-152,441,215,226,-328
,215,2023-10-27 11:43:27.80,-30,17,-2052,220,50,-166,272,86,186,-179
,216,2023-10-27 11:43:27.81,-24,22,-2091,219,25,-184,435,209,226,-322
,217,2023-10-27 11:43:27.82,-26,35,-2087,222,17,-203,267,75,192,-171
,218,2023-10-27 11:43:27.83,-20,-11,-2066,221,36,-206,440,206,234,-323
,219,2023-10-27 11:43:27.84,-9,-29,-2059,198,69,-208,276,86,190,-181
,220,2023-10-27 11:43:27.85,6,-36,-2035,166,79,-204,454,230,224,-342
,221,2023-10-27 11:43:27.86,21,-32,-2030,149,94,-201,288,98,190,-193
,222,2023-10-27 11:43:27.87,41,-34,-2014,148,97,-204,456,232,224,-344
,223,2023-10-27 11:43:27.88,42,-46,-2014,157,116,-202,282,91,191,-186
,224,2023-10-27 11:43:27.89,37,-46,-2029,167,122,-209,448,228,220,-338
,225,2023-10-27 11:43:27.90,52,-62,-2042,173,125,-195,279,90,189,-184
,226,2023-10-27 11:43:27.91,48,-74,-2053,176,118,-192,438,219,219,-328
,227,2023-10-27 11:43:27.92,66,-88,-2052,180,133,-183,265,75,190,-170
,228,2023-10-27 11:43:27.93,71,-103,-2061,179,152,-165,428,212,216,-320
,229,2023-10-27 11:43:27.94,62,-110,-2063,176,159,-147,266,81,185,-173
,230,2023-10-27 11:43:27.95,73,-112,-2051,171,159,-129,427,222,205,-324
,231,2023-10-27 11:43:27.96,80,-112,-2047,172,178,-118,259,83,176,-171
,232,2023-10-27 11:43:27.97,89,-121,-2046,166,186,-97,430,223,207,-326
,233,2023-10-27 11:43:27.98,90,-123,-2053,155,194,-83,262,86,176,-174
,234,2023-10-27 11:43:27.99,95,-112,-2061,149,186,-75,413,222,191,-317
,235,2023-10-27 11:43:28.00,97,-114,-2069,147,173,-59,246,81,165,-163
,236,2023-10-27 11:43:28.01,92,-116,-2074,143,158,-45,404,218,186,-311
,237,2023-10-27 11:43:28.02,99,-109,-2075,131,143,-36,248,78,170,-163
,238,2023-10-27 11:43:28.03,110,-100,-2060,117,123,-29,405,215,190,-310
,239,2023-10-27 11:43:28.04,107,-108,-2064,100,115,-11,234,72,162,-153
,240,2023-10-27 11:43:28.05,110,-100,-2067,79,105,-3,384,205,179,-294
,241,2023-10-27 11:43:28.06,121,-96,-2064,55,91,0,230,60,170,-145
,242,2023-10-27 11:43:28.07,119,-95,-2057,33,91,9,379,193,186,-286
,243,2023-10-27 11:43:28.08,117,-93,-2054,6,96,13,212,45,167,-128
,244,2023-10-27 11:43:28.09,126,-89,-2055,-12,90,16,358,178,180,-268
,245,2023-10-27 11:43:28.10,120,-92,-2056,-24,86,21,208,35,173,-121
,246,2023-10-27 11:43:28.11,119,-97,-2064,-40,73,25,354,170,184,-262
,247,2023-10-27 11:43:28.12,126,-90,-2080,-60,69,30,194,29,165,-111
,248,2023-10-27 11:43:28.13,111,-85,-2082,-66,58,27,333,155,178,-244
,249,2023-10-27 11:43:28.14,115,-88,-2086,-57,42,23,181,13,168,-97
,250,2023-10-27 11:43:28.15,123,-91,-2068,-67,33,28,328,143,185,-235
,251,2023-10-27 11:43:28.16,121,-72,-2062,-94,23,27,180,8,172,-94
,252,2023-10-27 11:43:28.17,115,-49,-2070,-107,30,27,322,136,186,-229
,253,2023-10-27 11:43:28.18,140,-59,-2046,-115,39,24,176,-3,179,-86
,254,2023-10-27 11:43:28.19,134,-76,-2058,-122,40,31,313,123,190,-218
,255,2023-10-27 11:43:28.20,145,-77,-2060,-119,37,28,174,-14,188,-80
,256,2023-10-27 11:43:28.21,145,-84,-2061,-105,43,27,307,113,194,-210
,257,2023-10-27 11:43:28.22,118,-66,-2075,-87,33,29,171,-20,191,-75
,258,2023-10-27 11:43:28.23,135,-58,-2067,-99,4,39,302,106,196,-204
,259,2023-10-27 11:43:28.24,144,-40,-2069,-132,-20,50,163,-31,194,-66
,260,2023-10-27 11:43:28.25,126,-27,-2074,-138,-8,50,290,93,197,-191
,261,2023-10-27 11:43:28.26,149,-62,-2085,-136,0,56,169,-30,199,-69
,262,2023-10-27 11:43:28.27,129,-58,-2096,-125,-4,58,296,94,202,-195
,263,2023-10-27 11:43:28.28,122,-29,-2071,-113,-26,58,174,-31,205,-71
,264,2023-10-27 11:43:28.29,121,-34,-2075,-103,-49,58,295,87,208,-191
,265,2023-10-27 11:43:28.30,115,-7,-2080,-100,-68,60,178,-32,210,-73
,266,2023-10-27 11:43:28.31,107,23,-2060,-99,-71,56,300,86,214,-193
,267,2023-10-27 11:43:28.32,124,43,-2037,-90,-55,49,182,-34,216,-74
,268,2023-10-27 11:43:28.33,109,37,-2021,-89,-40,37,301,85,216,-193
,269,2023-10-27 11:43:28.34,119,54,-2012,-91,-20,23,176,-36,212,-70
,270,2023-10-27 11:43:28.35,135,58,-2010,-90,-3,6,292,86,206,-189
,271,2023-10-27 11:43:28.36,117,31,-2027,-88,-7,-3,188,-20,208,-84
,272,2023-10-27 11:43:28.37,114,42,-2038,-86,-3,-11,294,96,198,-195
,273,2023-10-27 11:43:28.38,109,33,-2044,-88,-1,-19,206,-12,218,-97
,274,2023-10-27 11:43:28.39,111,29,-2062,-90,-1,-29,314,100,214,-207
,275,2023-10-27 11:43:28.40,107,11,-2064,-83,-3,-28,222,3,219,-112
,276,2023-10-27 11:43:28.41,106,8,-2072,-70,-14,-27,324,122,202,-223
,277,2023-10-27 11:43:28.42,97,8,-2063,-57,-14,-26,238,27,211,-132
,278,2023-10-27 11:43:28.43,106,2,-2074,-57,-22,-26,328,129,199,-228
,279,2023-10-27 11:43:28.44,105,5,-2086,-47,-31,-25,236,29,207,-132
,280,2023-10-27 11:43:28.45,130,4,-2068,-25,-33,-30,317,124,193,-220
,281,2023-10-27 11:43:28.46,86,-12,-2061,2,-23,-28,230,24,206,-127
,282,2023-10-27 11:43:28.47,104,-9,-2057,20,-21,-26,302,112,190,-207
,283,2023-10-27 11:43:28.48,91,-28,-2080,26,-31,-26,230,20,210,-125
,284,2023-10-27 11:43:28.49,99,-9,-2082,39,-50,-21,305,116,189,-210
,285,2023-10-27 11:43:28.50,100,1,-2070,56,-47,-16,220,9,211,-114
,286,2023-10-27 11:43:28.51,80,-6,-2057,72,-36,-22,280,93,187,-186
,287,2023-10-27 11:43:28.52,93,-33,-2059,72,-29,-16,229,24,205,-126
,288,2023-10-27 11:43:28.53,78,-25,-2056,73,-32,-17,298,111,187,-204
,289,2023-10-27 11:43:28.54,92,-20,-2046,76,-27,-6,233,20,213,-126
,290,2023-10-27 11:43:28.55,89,-26,-2042,77,-21,-4,290,103,187,-196
,291,2023-10-27 11:43:28.56,85,-22,-2038,76,-21,-7,262,49,213,-155
,292,2023-10-27 11:43:28.57,87,-11,-2035,75,-25,-1,317,129,188,-223
,293,2023-10-27 11:43:28.58,81,-7,-2039,71,-20,7,270,54,216,-162
,294,2023-10-27 11:43:28.59,91,5,-2030,56,-10,2,308,127,181,-217
,295,2023-10-27 11:43:28.60,84,6,-2041,39,-20,-7,274,70,204,-172
,296,2023-10-27 11:43:28.61,95,8,-2041,28,-15,-6,304,132,172,-218
,297,2023-10-27 11:43:28.62,82,13,-2053,9,-6,-2,258,60,198,-159
,298,2023-10-27 11:43:28.63,81,16,-2057,-12,-12,-9,276,112,164,-194
,299,2023-10-27 11:43:28.64,75,5,-2070,-29,-23,-11,247,53,194,-150
,300,2023-10-27 11:43:28.65,78,8,-2074,-45,-28,-5,279,109,170,-194
,301,2023-10-27 11:43:28.66,78,7,-2072,-60,-28,-6,253,54,199,-153
,302,2023-10-27 11:43:28.67,93,3,-2070,-76,-35,-6,272,100,172,-186
,303,2023-10-27 11:43:28.68,85,2,-2064,-89,-41,-2,253,54,199,-153
,304,2023-10-27 11:43:28.69,83,3,-2059,-98,-39,7,260,95,165,-177
,305,2023-10-27 11:43:28.70,80,-3,-2058,-102,-38,8,251,52,199,-151
,306,2023-10-27 11:43:28.71,90,6,-2062,-102,-49,6,260,88,172,-174
,307,2023-10-27 11:43:28.72,85,1,-2059,-99,-38,13,265,57,208,-161
,308,2023-10-27 11:43:28.73,93,9,-2060,-92,-39,15,259,89,170,-174
,309,2023-10-27 11:43:28.74,92,-2,-2050,-86,-49,21,255,54,201,-154
,310,2023-10-27 11:43:28.75,91,-5,-2046,-82,-37,26,237,69,168,-153
,311,2023-10-27 11:43:28.76,92,1,-2057,-78,-29,24,254,53,201,-153
,312,2023-10-27 11:43:28.77,91,-6,-2055,-67,-29,27,246,81,165,-163
,313,2023-10-27 11:43:28.78,80,-8,-2056,-51,-30,33,254,60,194,-157
,314,2023-10-27 11:43:28.79,82,1,-2049,-34,-19,33,241,76,165,-158
,315,2023-10-27 11:43:28.80,84,5,-2041,-26,-16,36,259,62,197,-160
,316,2023-10-27 11:43:28.81,89,4,-2054,-15,-20,32,240,71,169,-155
,317,2023-10-27 11:43:28.82,89,-1,-2051,-6,-16,33,266,59,207,-162
,318,2023-10-27 11:43:28.83,83,13,-2052,-2,0,29,238,68,170,-153
,319,2023-10-27 11:43:28.84,90,22,-2051,1,-5,29,261,56,205,-158
,320,2023-10-27 11:43:28.85,80,21,-2054,3,-2,29,231,61,170,-146
,321,2023-10-27 11:43:28.86,85,27,-2058,2,-2,26,269,59,210,-164
,322,2023-10-27 11:43:28.87,97,34,-2028,-5,-1,35,234,60,174,-147
,323,2023-10-27 11:43:28.88,77,8,-2071,-15,19,68,277,62,215,-169
,324,2023-10-27 11:43:28.89,79,-12,-2078,-4,2,46,231,59,172,-145
,325,2023-10-27 11:43:28.90,57,18,-2084,4,-23,41,279,65,214,-172
,326,2023-10-27 11:43:28.91,68,49,-2077,14,-46,32,225,54,171,-139
,327,2023-10-27 11:43:28.92,60,33,-2070,10,-60,30,275,62,213,-168
,328,2023-10-27 11:43:28.93,44,70,-2057,9,-58,5,219,43,176,-131
,329,2023-10-27 11:43:28.94,44,75,-2060,0,-40,1,282,60,222,-171
,330,2023-10-27 11:43:28.95,61,62,-2063,-3,-44,-21,219,41,178,-130
,331,2023-10-27 11:43:28.96,74,66,-2025,1,-50,-34,276,59,217,-167
,332,2023-10-27 11:43:28.97,66,49,-2011,-10,-22,-44,209,35,174,-122
,333,2023-10-27 11:43:28.98,93,38,-2027,-30,-9,-66,280,68,212,-174
,334,2023-10-27 11:43:28.99,60,44,-2044,-20,12,-82,212,45,167,-128
,335,2023-10-27 11:43:29.00,76,49,-2059,20,2,-111,292,75,217,-183
,336,2023-10-27 11:43:29.01,66,50,-2047,38,-33,-137,215,45,170,-130
,337,2023-10-27 11:43:29.02,62,78,-2046,25,-55,-155,296,95,201,-195
,338,2023-10-27 11:43:29.03,61,98,-2075,-6,-66,-176,223,61,162,-142
,339,2023-10-27 11:43:29.04,63,109,-2075,-32,-43,-203,326,120,206,-223
,340,2023-10-27 11:43:29.05,43,114,-2078,-60,-36,-233,246,83,163,-164
,341,2023-10-27 11:43:29.06,56,97,-2089,-97,-38,-256,370,159,211,-264
,342,2023-10-27 11:43:29.07,67,82,-2065,-129,-31,-282,281,106,175,-193
,343,2023-10-27 11:43:29.08,57,63,-2054,-122,-16,-304,412,174,238,-293
,344,2023-10-27 11:43:29.09,65,37,-2063,-101,-8,-321,300,111,189,-205
,345,2023-10-27 11:43:29.10,64,33,-2042,-100,-15,-333,412,186,226,-299
,346,2023-10-27 11:43:29.11,56,40,-2041,-101,-14,-345,290,110,180,-200
,347,2023-10-27 11:43:29.12,56,31,-2055,-96,-21,-354,412,181,231,-296
,348,2023-10-27 11:43:29.13,68,44,-2051,-75,-18,-356,291,108,183,-199
,349,2023-10-27 11:43:29.14,64,42,-2053,-55,-7,-365,391,169,222,-280
,350,2023-10-27 11:43:29.15,55,46,-2035,-51,-2,-366,262,86,176,-174
,351,2023-10-27 11:43:29.16,64,56,-2060,-61,3,-362,366,153,213,-259
,352,2023-10-27 11:43:29.17,60,78,-2048,-57,-7,-377,247,85,162,-166
,353,2023-10-27 11:43:29.18,53,63,-2030,-50,9,-372,365,164,201,-264
,354,2023-10-27 11:43:29.19,47,58,-2037,-57,20,-372,242,72,170,-157
,355,2023-10-27 11:43:29.20,51,51,-2042,-70,26,-369,359,139,220,-249
,356,2023-10-27 11:43:29.21,46,50,-2041,-68,24,-367,220,52,168,-136
,357,2023-10-27 11:43:29.22,47,38,-2046,-55,15,-365,331,128,203,-229
,358,2023-10-27 11:43:29.23,55,44,-2037,-50,11,-363,195,41,154,-118
,359,2023-10-27 11:43:29.24,40,58,-2051,-54,9,-365,321,128,193,-224
,360,2023-10-27 11:43:29.25,60,74,-2051,-63,-3,-363,186,32,154,-109
,361,2023-10-27 11:43:29.26,55,66,-2046,-68,14,-353,315,122,193,-218
,362,2023-10-27 11:43:29.27,55,65,-2038,-56,27,-351,178,21,157,-99
,363,2023-10-27 11:43:29.28,48,48,-2027,-58,27,-354,312,112,200,-212
,364,2023-10-27 11:43:29.29,50,36,-2054,-69,30,-347,175,16,159,-95
,365,2023-10-27 11:43:29.30,59,58,-2056,-61,25,-345,304,117,187,-210
,366,2023-10-27 11:43:29.31,62,69,-2054,-41,40,-348,160,17,143,-88
,367,2023-10-27 11:43:29.32,44,68,-2056,-30,37,-349,292,121,171,-206
,368,2023-10-27 11:43:29.33,68,54,-2063,-48,38,-346,153,8,145,-80
,369,2023-10-27 11:43:29.34,52,81,-2073,-71,36,-345,292,110,182,-201
,370,2023-10-27 11:43:29.35,58,93,-2066,-67,42,-345,145,0,145,-72
,371,2023-10-27 11:43:29.36,61,73,-2066,-54,55,-345,278,105,173,-191
,372,2023-10-27 11:43:29.37,72,46,-2045,-55,69,-345,135,-8,143,-63
,373,2023-10-27 11:43:29.38,70,54,-2035,-71,86,-331,278,104,174,-191
,374,2023-10-27 11:43:29.39,76,60,-2042,-66,84,-329,135,-14,149,-60
,375,2023-10-27 11:43:29.40,86,66,-2025,-54,85,-325,275,90,185,-182
,376,2023-10-27 11:43:29.41,63,95,-2062,-40,86,-324,128,-29,157,-49
,377,2023-10-27 11:43:29.42,77,115,-2052,-21,50,-355,276,82,194,-179
,378,2023-10-27 11:43:29.43,76,129,-2061,-12,42,-362,131,-19,150,-56
,379,2023-10-27 11:43:29.44,52,147,-2071,-2,45,-377,277,102,175,-189
,380,2023-10-27 11:43:29.45,61,136,-2084,1,27,-396,127,-30,157,-48
,381,2023-10-27 11:43:29.46,41,143,-2072,-15,17,-423,274,72,202,-173
,382,2023-10-27 11:43:29.47,61,153,-2076,-33,1,-443,130,-48,178,-41
,383,2023-10-27 11:43:29.48,34,83,-2068,-16,4,-472,284,82,202,-183
,384,2023-10-27 11:43:29.49,75,212,-2032,31,42,-547,137,-31,168,-53
,385,2023-10-27 11:43:29.50,62,172,-2030,7,31,-576,291,87,204,-189
,386,2023-10-27 11:43:29.51,61,224,-2071,-17,-4,-646,133,-42,175,-45
,387,2023-10-27 11:43:29.52,54,263,-2048,-19,-22,-725,280,80,200,-180
,388,2023-10-27 11:43:29.53,69,317,-2074,26,-25,-820,138,-29,167,-54
,389,2023-10-27 11:43:29.54,64,293,-2090,45,-34,-916,316,121,195,-218
,390,2023-10-27 11:43:29.55,52,266,-2093,40,-43,-1002,149,-11,160,-69
,391,2023-10-27 11:43:29.56,48,285,-2087,31,-55,-1096,302,111,191,-206
,392,2023-10-27 11:43:29.57,55,315,-2069,32,-76,-1200,142,-30,172,-56
,393,2023-10-27 11:43:29.58,61,308,-2067,30,-74,-1303,327,114,213,-220
,394,2023-10-27 11:43:29.59,56,299,-2057,22,-67,-1405,168,-7,175,-80
,395,2023-10-27 11:43:29.60,65,298,-2050,9,-58,-1504,334,129,205,-231
,396,2023-10-27 11:43:29.61,81,286,-2037,4,-56,-1598,174,-5,179,-84
,397,2023-10-27 11:43:29.62,84,265,-2025,5,-48,-1691,337,131,206,-234
,398,2023-10-27 11:43:29.63,97,247,-2025,12,-32,-1779,174,-13,187,-80
,399,2023-10-27 11:43:29.64,107,225,-2021,15,-30,-1857,339,121,218,-230
,400,2023-10-27 11:43:29.65,103,193,-2037,20,-9,-1913,181,-16,197,-82
,401,2023-10-27 11:43:29.66,98,145,-2060,15,1,-1953,336,123,213,-229
,402,2023-10-27 11:43:29.67,97,118,-2092,13,-7,-1966,179,-8,187,-85
,403,2023-10-27 11:43:29.68,87,77,-2095,11,-20,-1950,337,137,200,-237
,404,2023-10-27 11:43:29.69,88,42,-2112,8,-29,-1924,174,4,170,-89
,405,2023-10-27 11:43:29.70,79,9,-2105,7,-52,-1884,328,143,185,-235
,406,2023-10-27 11:43:29.71,77,-24,-2127,16,-69,-1825,171,10,161,-90
,407,2023-10-27 11:43:29.72,72,-29,-2144,40,-100,-1775,326,145,181,-235
,408,2023-10-27 11:43:29.73,92,-24,-2086,76,-152,-1721,170,0,170,-85
,409,2023-10-27 11:43:29.74,88,-53,-2040,90,-183,-1637,315,129,186,-222
,410,2023-10-27 11:43:29.75,139,-61,-2026,89,-192,-1563,159,-17,176,-71
,411,2023-10-27 11:43:29.76,158,-118,-1939,87,-138,-1452,301,113,188,-207
,412,2023-10-27 11:43:29.77,94,-105,-1958,131,-40,-1334,159,-3,162,-78
,413,2023-10-27 11:43:29.78,69,-103,-1998,173,-13,-1262,308,145,163,-226
,414,2023-10-27 11:43:29.79,64,-152,-2023,165,-41,-1174,172,17,155,-94
,415,2023-10-27 11:43:29.80,49,-121,-2036,173,-80,-1087,308,142,166,-225
,416,2023-10-27 11:43:29.81,45,-85,-2046,209,-109,-984,170,11,159,-90
,417,2023-10-27 11:43:29.82,18,-80,-2022,236,-77,-906,315,145,170,-230
,418,2023-10-27 11:43:29.83,17,-105,-2027,230,-43,-824,176,3,173,-89
,419,2023-10-27 11:43:29.84,-4,-121,-2056,213,-36,-734,313,130,183,-221
,420,2023-10-27 11:43:29.85,-5,-137,-2054,204,-42,-635,185,18,167,-101
,421,2023-10-27 11:43:29.86,-12,-134,-2059,190,-56,-535,325,156,169,-240
,422,2023-10-27 11:43:29.87,-22,-131,-2065,165,-58,-439,212,53,159,-132
,423,2023-10-27 11:43:29.88,-22,-121,-2073,150,-60,-357,359,190,169,-274
,424,2023-10-27 11:43:29.89,-32,-123,-2093,157,-49,-267,261,67,194,-164
,425,2023-10-27 11:43:29.90,-46,-129,-2091,179,-60,-213,407,198,209,-302
,426,2023-10-27 11:43:29.91,-33,-110,-2059,200,-89,-155,298,91,207,-194
,427,2023-10-27 11:43:29.92,-39,-102,-2045,192,-99,-81,418,223,195,-320
,428,2023-10-27 11:43:29.93,-57,-98,-2072,166,-103,-12,292,112,180,-202
,429,2023-10-27 11:43:29.94,-67,-77,-2066,146,-111,45,410,228,182,-319
,430,2023-10-27 11:43:29.95,-76,-61,-2065,139,-108,97,289,96,193,-192
,431,2023-10-27 11:43:29.96,-71,-84,-2094,132,-125,146,380,201,179,-290
,432,2023-10-27 11:43:29.97,-86,-103,-2111,118,-169,181,252,68,184,-160
,433,2023-10-27 11:43:29.98,-70,-68,-2093,111,-177,215,329,154,175,-241
,434,2023-10-27 11:43:29.99,-66,-58,-2074,111,-176,241,206,38,168,-122
,435,2023-10-27 11:43:30.00,-62,-51,-2052,108,-172,253,293,144,149,-218
,436,2023-10-27 11:43:30.01,-56,-43,-2042,91,-152,271,179,40,139,-109
,437,2023-10-27 11:43:30.02,-68,-11,-2038,75,-119,294,279,139,140,-209
,438,2023-10-27 11:43:30.03,-64,-23,-2035,67,-104,324,178,14,164,-96
,439,2023-10-27 11:43:30.04,-73,-37,-2031,71,-117,352,270,104,166,-187
,440,2023-10-27 11:43:30.05,-79,-30,-1987,74,-127,371,172,15,157,-93
,441,2023-10-27 11:43:30.06,-88,-31,-1984,81,-128,383,257,109,148,-183
,442,2023-10-27 11:43:30.07,-91,-44,-2006,84,-135,396,177,2,175,-89
,443,2023-10-27 11:43:30.08,-90,-18,-2021,85,-142,416,274,97,177,-185
,444,2023-10-27 11:43:30.09,-105,-16,-2020,94,-158,423,190,11,179,-100
,445,2023-10-27 11:43:30.10,-105,0,-2027,111,-162,425,270,110,160,-190
,446,2023-10-27 11:43:30.11,-106,-9,-2072,104,-180,436,199,20,179,-109
,447,2023-10-27 11:43:30.12,-116,2,-2095,93,-199,427,277,110,167,-193
,448,2023-10-27 11:43:30.13,-92,2,-2099,81,-197,423,191,24,167,-107
,449,2023-10-27 11:43:30.14,-116,-31,-2093,116,-174,387,258,106,152,-182
,450,2023-10-27 11:43:30.15,-67,25,-2039,169,-128,337,194,26,168,-110
,451,2023-10-27 11:43:30.16,-91,-15,-2062,154,-89,327,261,104,157,-182
,452,2023-10-27 11:43:30.17,-85,25,-2069,128,-82,288,183,13,170,-98
,453,2023-10-27 11:43:30.18,-109,59,-2060,123,-72,246,235,82,153,-158
,454,2023-10-27 11:43:30.19,-75,85,-2018,139,-54,191,184,27,157,-105
,455,2023-10-27 11:43:30.20,-99,49,-2029,130,-4,169,242,105,137,-173
,456,2023-10-27 11:43:30.21,-127,16,-2072,123,25,129,204,43,161,-123
,457,2023-10-27 11:43:30.22,-93,4,-2020,119,12,91,257,113,144,-185
,458,2023-10-27 11:43:30.23,-121,-21,-2043,109,27,100,210,42,168,-126
,459,2023-10-27 11:43:30.24,-134,-33,-2059,116,10,77,251,94,157,-172
,460,2023-10-27 11:43:30.25,-136,-38,-2050,115,-8,66,213,24,189,-118
,461,2023-10-27 11:43:30.26,-156,-20,-2047,112,-8,62,245,85,160,-165
,462,2023-10-27 11:43:30.27,-174,-43,-2046,111,-34,45,215,49,166,-132
,463,2023-10-27 11:43:30.28,-173,-54,-2038,100,-47,40,242,98,144,-170
