// Data mode  : Full
// Data quality  : High
// Acceleration sensor's range  : 16g
// Gyroscope sensor's range  : 2000dps
//
//ARTIFACT,NUM,DATE,ACC_X,ACC_Y,ACC_Z,GYRO_X,GYRO_Y,GYRO_Z,EOG_L,EOG_R,EOG_H,EOG_V
,1,2023-10-27 11:42:59.50,-157,181,-2015,39,-6,16,277,37,240,-157
,2,2023-10-27 11:42:59.51,-169,170,-2028,40,9,12,328,114,214,-221
,3,2023-10-27 11:42:59.52,-159,160,-2049,39,2,14,277,35,242,-156
,4,2023-10-27 11:42:59.53,-168,177,-2038,44,-6,13,320,105,215,-212
,5,2023-10-27 11:42:59.54,-154,186,-2025,44,-4,8,286,44,242,-165
,6,2023-10-27 11:42:59.55,-164,193,-2027,31,7,0,313,100,213,-206
,7,2023-10-27 11:42:59.56,-156,191,-2039,25,24,-2,279,49,230,-164
,8,2023-10-27 11:42:59.57,-153,184,-2045,27,24,1,300,100,200,-200
,9,2023-10-27 11:42:59.58,-161,172,-2039,26,10,3,285,59,226,-172
,10,2023-10-27 11:42:59.59,-158,166,-2034,24,6,0,313,115,198,-214
,11,2023-10-27 11:42:59.60,-166,161,-2045,16,-3,2,281,40,241,-160
,12,2023-10-27 11:42:59.61,-172,162,-2047,16,5,8,298,91,207,-194
,13,2023-10-27 11:42:59.62,-158,162,-2029,13,-4,10,283,50,233,-166
,14,2023-10-27 11:42:59.63,-165,165,-2023,14,-4,19,300,103,197,-201
,15,2023-10-27 11:42:59.64,-159,176,-2024,9,-5,23,294,69,225,-181
,16,2023-10-27 11:42:59.65,-157,175,-2027,7,-3,21,300,109,191,-204
,17,2023-10-27 11:42:59.66,-175,175,-2022,11,-3,20,301,64,237,-182
,18,2023-10-27 11:42:59.67,-162,173,-2026,14,-7,23,297,97,200,-197
,19,2023-10-27 11:42:59.68,-171,174,-2041,16,-12,17,299,73,226,-186
,20,2023-10-27 11:42:59.69,-149,175,-2041,14,-18,15,292,104,188,-198
,21,2023-10-27 11:42:59.70,-165,171,-2038,15,-9,18,303,81,222,-192
,22,2023-10-27 11:42:59.71,-159,189,-2055,16,-16,22,288,102,186,-195
,23,2023-10-27 11:42:59.72,-164,180,-2030,14,-15,21,307,76,231,-191
,24,2023-10-27 11:42:59.73,-164,193,-2040,8,-1,15,284,98,186,-191
,25,2023-10-27 11:42:59.74,-160,184,-2022,6,-6,13,310,89,221,-199
,26,2023-10-27 11:42:59.75,-159,175,-2034,11,3,13,284,105,179,-194
,27,2023-10-27 11:42:59.76,-159,171,-2045,11,6,7,315,99,216,-207
,28,2023-10-27 11:42:59.77,-163,168,-2040,16,-6,5,281,97,184,-189
,29,2023-10-27 11:42:59.78,-169,164,-2045,19,-1,8,317,75,242,-196
,30,2023-10-27 11:42:59.79,-160,172,-2030,21,-5,7,274,82,192,-178
,31,2023-10-27 11:42:59.80,-161,189,-2027,17,7,7,321,95,226,-208
,32,2023-10-27 11:42:59.81,-163,183,-2032,10,11,3,272,90,182,-181
,33,2023-10-27 11:42:59.82,-163,173,-2043,12,6,-1,322,79,243,-200
,34,2023-10-27 11:42:59.83,-169,176,-2034,14,7,1,268,69,199,-168
,35,2023-10-27 11:42:59.84,-167,171,-2039,12,3,0,321,77,244,-199
,36,2023-10-27 11:42:59.85,-169,168,-2043,11,9,0,262,68,194,-165
,37,2023-10-27 11:42:59.86,-159,171,-2044,10,1,2,322,93,229,-207
,38,2023-10-27 11:42:59.87,-167,166,-2036,14,-4,5,258,78,180,-168
,39,2023-10-27 11:42:59.88,-171,181,-2030,9,-8,7,326,92,234,-209
,40,2023-10-27 11:42:59.89,-171,176,-2031,3,-7,3,253,73,180,-163
,41,2023-10-27 11:42:59.90,-160,184,-2035,1,-7,1,328,100,228,-214
,42,2023-10-27 11:42:59.91,-163,173,-2032,3,-5,6,252,62,190,-157
,43,2023-10-27 11:42:59.92,-175,176,-2039,0,-14,2,328,73,255,-200
,44,2023-10-27 11:42:59.93,-173,176,-2033,-1,-10,1,245,42,203,-143
,45,2023-10-27 11:42:59.94,-171,167,-2037,-1,-13,4,333,25,308,-179
,46,2023-10-27 11:42:59.95,-157,176,-2034,-1,-10,2,252,-37,289,-107
,47,2023-10-27 11:42:59.96,-171,178,-2031,0,-12,5,332,-42,374,-145
,48,2023-10-27 11:42:59.97,-173,176,-2035,1,-2,7,240,-59,299,-90
,49,2023-10-27 11:42:59.98,-171,183,-2033,-2,-13,3,334,-12,346,-161
,50,2023-10-27 11:42:59.99,-165,184,-2032,-3,-12,1,240,-17,257,-111
,51,2023-10-27 11:43:00.00,-178,177,-2030,-5,2,2,342,44,298,-193
,52,2023-10-27 11:43:00.01,-184,181,-2034,-5,-7,0,232,-4,236,-114
,53,2023-10-27 11:43:00.02,-171,179,-2034,-3,2,-1,342,38,304,-190
,54,2023-10-27 11:43:00.03,-174,176,-2036,2,5,-1,236,-6,242,-115
,55,2023-10-27 11:43:00.04,-173,181,-2028,1,11,-5,348,52,296,-200
,56,2023-10-27 11:43:00.05,-171,176,-2032,0,6,-6,245,6,239,-125
,57,2023-10-27 11:43:00.06,-171,179,-2031,-1,12,-6,366,58,308,-212
,58,2023-10-27 11:43:00.07,-162,181,-2031,3,12,-3,246,1,245,-123
,59,2023-10-27 11:43:00.08,-165,186,-2036,4,11,-1,376,77,299,-226
,60,2023-10-27 11:43:00.09,-178,186,-2035,5,13,-6,257,13,244,-135
,61,2023-10-27 11:43:00.10,-174,180,-2031,5,12,-5,384,78,306,-231
,62,2023-10-27 11:43:00.11,-158,184,-2024,8,11,-6,255,17,238,-136
,63,2023-10-27 11:43:00.12,-175,183,-2031,9,18,4,389,109,280,-249
,64,2023-10-27 11:43:00.13,-177,180,-2038,12,19,4,247,25,222,-136
,65,2023-10-27 11:43:00.14,-160,180,-2040,12,14,1,383,100,283,-241
,66,2023-10-27 11:43:00.15,-176,187,-2035,12,10,-2,241,27,214,-134
,67,2023-10-27 11:43:00.16,-175,182,-2042,10,13,-1,381,122,259,-251
,68,2023-10-27 11:43:00.17,-178,178,-2045,14,12,10,231,32,199,-131
,69,2023-10-27 11:43:00.18,-162,174,-2042,14,7,7,371,112,259,-241
,70,2023-10-27 11:43:00.19,-171,181,-2039,16,3,4,224,27,197,-125
,71,2023-10-27 11:43:00.20,-165,181,-2018,17,11,4,377,139,238,-258
,72,2023-10-27 11:43:00.21,-161,176,-2031,13,20,8,228,40,188,-134
,73,2023-10-27 11:43:00.22,-158,170,-2036,16,22,9,377,132,245,-254
,74,2023-10-27 11:43:00.23,-159,178,-2010,25,21,11,222,23,199,-122
,75,2023-10-27 11:43:00.24,-161,171,-2028,28,18,10,368,118,250,-243
,76,2023-10-27 11:43:00.25,-163,155,-2045,28,19,8,211,14,197,-112
,77,2023-10-27 11:43:00.26,-177,172,-2049,34,23,17,366,124,242,-245
,78,2023-10-27 11:43:00.27,-160,183,-2034,32,24,18,212,25,187,-118
,79,2023-10-27 11:43:00.28,-162,191,-2035,24,27,11,375,116,259,-245
,80,2023-10-27 11:43:00.29,-155,199,-2036,18,37,-1,212,-8,220,-102
,81,2023-10-27 11:43:00.30,-158,189,-2045,17,36,4,372,77,295,-224
,82,2023-10-27 11:43:00.31,-163,179,-2046,19,23,3,212,-46,258,-83
,83,2023-10-27 11:43:00.32,-163,171,-2037,17,14,1,366,58,308,-212
,84,2023-10-27 11:43:00.33,-163,163,-2045,14,21,1,208,-34,242,-87
,85,2023-10-27 11:43:00.34,-172,166,-2037,12,26,12,374,93,281,-233
,86,2023-10-27 11:43:00.35,-170,164,-2028,13,14,10,208,-26,234,-91
,87,2023-10-27 11:43:00.36,-154,168,-2026,11,11,14,384,100,284,-242
,88,2023-10-27 11:43:00.37,-163,172,-2029,7,1,14,204,-27,231,-88
,89,2023-10-27 11:43:00.38,-145,175,-2028,5,14,16,370,97,273,-233
,90,2023-10-27 11:43:00.39,-155,173,-2019,5,13,14,197,-17,214,-90
,91,2023-10-27 11:43:00.40,-155,170,-2036,8,15,15,372,98,274,-235
,92,2023-10-27 11:43:00.41,-159,173,-2036,10,3,16,205,-37,242,-84
,93,2023-10-27 11:43:00.42,-164,176,-2037,10,10,15,375,78,297,-226
,94,2023-10-27 11:43:00.43,-150,171,-2036,8,4,10,201,-45,246,-78
,95,2023-10-27 11:43:00.44,-155,173,-2045,9,16,14,368,83,285,-225
,96,2023-10-27 11:43:00.45,-170,174,-2048,8,18,18,185,-44,229,-70
,97,2023-10-27 11:43:00.46,-152,175,-2049,10,24,17,368,102,266,-235
,98,2023-10-27 11:43:00.47,-154,172,-2035,8,13,7,201,-23,224,-89
,99,2023-10-27 11:43:00.48,-155,180,-2030,9,23,6,375,116,259,-245
,100,2023-10-27 11:43:00.49,-164,172,-2042,11,35,3,203,-9,212,-97
,101,2023-10-27 11:43:00.50,-145,165,-2043,23,26,6,374,129,245,-251
,102,2023-10-27 11:43:00.51,-155,165,-2040,26,23,7,199,4,195,-101
,103,2023-10-27 11:43:00.52,-156,169,-2037,26,18,5,376,146,230,-261
,104,2023-10-27 11:43:00.53,-158,174,-2031,22,23,6,202,0,202,-101
,105,2023-10-27 11:43:00.54,-160,176,-2037,17,25,6,370,125,245,-247
,106,2023-10-27 11:43:00.55,-162,186,-2033,17,24,12,198,1,197,-99
,107,2023-10-27 11:43:00.56,-141,174,-2030,16,24,8,369,151,218,-260
,108,2023-10-27 11:43:00.57,-148,180,-2037,9,17,5,198,22,176,-110
,109,2023-10-27 11:43:00.58,-157,172,-2035,10,15,3,368,163,205,-265
,110,2023-10-27 11:43:00.59,-160,168,-2044,9,11,6,199,17,182,-108
,111,2023-10-27 11:43:00.60,-166,167,-2036,9,12,10,365,155,210,-260
,112,2023-10-27 11:43:00.61,-161,171,-2037,3,3,9,194,7,187,-100
,113,2023-10-27 11:43:00.62,-151,175,-2033,0,15,14,357,141,216,-249
,114,2023-10-27 11:43:00.63,-155,173,-2036,-3,12,16,202,24,178,-113
,115,2023-10-27 11:43:00.64,-155,181,-2036,-4,-5,14,377,183,194,-280
,116,2023-10-27 11:43:00.65,-147,173,-2034,-4,3,17,221,54,167,-137
,117,2023-10-27 11:43:00.66,-150,168,-2038,-5,8,17,386,195,191,-290
,118,2023-10-27 11:43:00.67,-150,167,-2042,-4,7,15,220,53,167,-136
,119,2023-10-27 11:43:00.68,-163,169,-2033,-2,10,19,374,186,188,-280
,120,2023-10-27 11:43:00.69,-160,176,-2043,-4,7,15,215,33,182,-124
,121,2023-10-27 11:43:00.70,-158,178,-2045,-4,6,16,367,166,201,-266
,122,2023-10-27 11:43:00.71,-152,175,-2037,-3,17,24,218,39,179,-128
,123,2023-10-27 11:43:00.72,-147,178,-2033,-6,18,18,374,180,194,-277
,124,2023-10-27 11:43:00.73,-157,173,-2028,-10,23,21,219,32,187,-125
,125,2023-10-27 11:43:00.74,-151,172,-2031,-8,17,22,366,163,203,-264
,126,2023-10-27 11:43:00.75,-152,173,-2038,-5,17,19,210,21,189,-115
,127,2023-10-27 11:43:00.76,-145,175,-2033,-7,23,18,358,156,202,-257
,128,2023-10-27 11:43:00.77,-155,173,-2031,-6,23,17,218,32,186,-125
,129,2023-10-27 11:43:00.78,-161,170,-2030,-3,33,19,356,158,198,-257
,130,2023-10-27 11:43:00.79,-157,173,-2035,2,31,17,215,35,180,-125
,131,2023-10-27 11:43:00.80,-152,169,-2039,6,32,19,350,158,192,-254
,132,2023-10-27 11:43:00.81,-159,172,-2038,13,31,16,210,25,185,-117
,133,2023-10-27 11:43:00.82,-158,166,-2045,23,32,16,346,150,196,-248
,134,2023-10-27 11:43:00.83,-148,162,-2043,38,28,7,214,38,176,-126
,135,2023-10-27 11:43:00.84,-149,167,-2018,61,40,1,346,166,180,-256
,136,2023-10-27 11:43:00.85,-143,167,-2030,87,32,-16,218,44,174,-131
,137,2023-10-27 11:43:00.86,-135,174,-2033,118,14,-29,336,153,183,-244
,138,2023-10-27 11:43:00.87,-132,174,-2020,135,30,-42,226,40,186,-133
,139,2023-10-27 11:43:00.88,-138,192,-2017,145,44,-66,343,158,185,-250
,140,2023-10-27 11:43:00.89,-135,189,-2024,158,51,-95,240,23,217,-131
,141,2023-10-27 11:43:00.90,-131,196,-2027,184,56,-121,354,86,268,-220
,142,2023-10-27 11:43:00.91,-144,206,-2018,206,61,-147,237,-69,306,-84
,143,2023-10-27 11:43:00.92,-141,189,-2031,216,65,-176,350,46,304,-198
,144,2023-10-27 11:43:00.93,-140,191,-2035,224,69,-210,241,-52,293,-94
,145,2023-10-27 11:43:00.94,-144,182,-2032,244,75,-248,346,74,272,-210
,146,2023-10-27 11:43:00.95,-141,184,-2030,258,83,-285,244,-23,267,-110
,147,2023-10-27 11:43:00.96,-152,180,-2040,267,97,-326,342,90,252,-216
,148,2023-10-27 11:43:00.97,-148,186,-2026,274,94,-363,249,-2,251,-123
,149,2023-10-27 11:43:00.98,-145,194,-2025,280,92,-395,350,117,233,-233
,150,2023-10-27 11:43:00.99,-159,173,-2039,277,90,-432,263,36,227,-149
,151,2023-10-27 11:43:01.00,-149,177,-2045,268,95,-468,358,144,214,-251
,152,2023-10-27 11:43:01.01,-142,184,-2038,254,88,-502,269,44,225,-156
,153,2023-10-27 11:43:01.02,-137,172,-2037,242,91,-526,352,134,218,-243
,154,2023-10-27 11:43:01.03,-138,165,-2051,228,97,-559,270,34,236,-152
,155,2023-10-27 11:43:01.04,-135,151,-2038,219,107,-585,348,127,221,-237
,156,2023-10-27 11:43:01.05,-143,147,-2031,199,99,-611,282,63,219,-172
,157,2023-10-27 11:43:01.06,-137,134,-2030,180,100,-635,352,154,198,-253
,158,2023-10-27 11:43:01.07,-130,120,-2028,161,94,-651,283,54,229,-168
,159,2023-10-27 11:43:01.08,-122,97,-2040,149,103,-671,340,128,212,-234
,160,2023-10-27 11:43:01.09,-106,87,-2028,136,103,-681,285,55,230,-170
,161,2023-10-27 11:43:01.10,-124,65,-2019,120,110,-686,347,130,217,-238
,162,2023-10-27 11:43:01.11,-108,50,-2024,109,113,-691,293,40,253,-166
,163,2023-10-27 11:43:01.12,-108,47,-2030,97,119,-692,351,118,233,-234
,164,2023-10-27 11:43:01.13,-109,30,-2028,67,117,-683,304,59,245,-181
,165,2023-10-27 11:43:01.14,-111,13,-2064,29,134,-661,352,138,214,-245
,166,2023-10-27 11:43:01.15,-107,13,-2059,-2,126,-641,310,75,235,-192
,167,2023-10-27 11:43:01.16,-89,-20,-2043,-27,146,-612,346,134,212,-240
,168,2023-10-27 11:43:01.17,-95,-35,-2044,-57,151,-577,302,53,249,-177
,169,2023-10-27 11:43:01.18,-99,-35,-2040,-86,161,-548,338,122,216,-230
,170,2023-10-27 11:43:01.19,-65,-24,-2050,-118,148,-522,307,79,228,-193
,171,2023-10-27 11:43:01.20,-79,-10,-2043,-151,149,-489,332,144,188,-238
,172,2023-10-27 11:43:01.21,-70,2,-2045,-192,169,-464,320,97,223,-208
,173,2023-10-27 11:43:01.22,-67,12,-2028,-226,182,-445,339,154,185,-246
,174,2023-10-27 11:43:01.23,-67,27,-2017,-264,199,-424,348,127,221,-237
,175,2023-10-27 11:43:01.24,-62,9,-2041,-301,203,-407,352,163,189,-257
,176,2023-10-27 11:43:01.25,-53,-19,-2057,-327,212,-395,356,148,208,-252
,177,2023-10-27 11:43:01.26,-69,-14,-2054,-336,213,-378,345,184,161,-264
,178,2023-10-27 11:43:01.27,-72,15,-2067,-339,196,-371,347,141,206,-244
,179,2023-10-27 11:43:01.28,-73,11,-2066,-345,170,-362,335,168,167,-251
,180,2023-10-27 11:43:01.29,-85,27,-2095,-351,153,-353,337,134,203,-235
,181,2023-10-27 11:43:01.30,-73,50,-2088,-360,133,-350,320,163,157,-241
,182,2023-10-27 11:43:01.31,-83,78,-2099,-369,101,-354,318,123,195,-220
,183,2023-10-27 11:43:01.32,-74,98,-2085,-390,79,-360,298,136,162,-217
,184,2023-10-27 11:43:01.33,-65,116,-2080,-415,71,-367,313,105,208,-209
,185,2023-10-27 11:43:01.34,-44,151,-2066,-438,78,-383,296,125,171,-210
,186,2023-10-27 11:43:01.35,-45,165,-2056,-464,78,-397,319,112,207,-215
,187,2023-10-27 11:43:01.36,-35,192,-2051,-486,75,-414,282,111,171,-196
,188,2023-10-27 11:43:01.37,-46,232,-2058,-513,76,-422,306,78,228,-192
,189,2023-10-27 11:43:01.38,-40,242,-2075,-530,76,-432,276,76,200,-176
,190,2023-10-27 11:43:01.39,-29,239,-2073,-522,73,-441,305,48,257,-176
,191,2023-10-27 11:43:01.40,-47,206,-2065,-485,56,-446,266,50,216,-158
,192,2023-10-27 11:43:01.41,25,192,-2052,-435,27,-460,308,42,266,-175
,193,2023-10-27 11:43:01.42,-98,96,-2033,-346,55,-429,274,44,230,-159
,194,2023-10-27 11:43:01.43,-8,240,-2016,-272,74,-435,341,55,286,-198
,195,2023-10-27 11:43:01.44,-34,71,-2027,-274,44,-407,291,59,232,-175
,196,2023-10-27 11:43:01.45,-26,173,-2030,-280,25,-386,340,59,281,-199
,197,2023-10-27 11:43:01.46,-28,219,-2032,-271,39,-331,271,54,217,-162
,198,2023-10-27 11:43:01.47,-40,254,-2041,-241,39,-303,332,66,266,-199
,199,2023-10-27 11:43:01.48,-49,255,-2061,-246,53,-275,270,54,216,-162
,200,2023-10-27 11:43:01.49,-29,271,-2075,-257,43,-244,329,61,268,-195
,201,2023-10-27 11:43:01.50,-42,253,-2070,-250,12,-223,256,42,214,-149
,202,2023-10-27 11:43:01.51,-29,241,-2070,-239,-31,-207,326,69,257,-197
,203,2023-10-27 11:43:01.52,-26,240,-2068,-240,-69,-175,251,46,205,-148
,204,2023-10-27 11:43:01.53,-31,268,-2070,-229,-77,-157,338,73,265,-205
,205,2023-10-27 11:43:01.54,-30,256,-2045,-229,-77,-116,255,46,209,-150
,206,2023-10-27 11:43:01.55,-31,251,-2050,-259,-83,-77,346,90,256,-218
,207,2023-10-27 11:43:01.56,-15,231,-2046,-290,-82,-21,269,55,214,-162
,208,2023-10-27 11:43:01.57,-11,266,-2051,-282,-75,16,378,80,298,-229
,209,2023-10-27 11:43:01.58,-24,288,-2051,-238,-68,43,286,44,242,-165
,210,2023-10-27 11:43:01.59,-11,303,-2035,-185,-80,54,405,104,301,-254
,211,2023-10-27 11:43:01.60,-29,317,-2023,-134,-81,73,296,51,245,-173
,212,2023-10-27 11:43:01.61,-40,350,-1994,-88,-72,94,412,89,323,-250
,213,2023-10-27 11:43:01.62,-45,351,-2024,-72,-56,119,307,44,263,-175
,214,2023-10-27 11:43:01.63,-44,368,-2036,-54,-57,152,426,115,311,-270
,215,2023-10-27 11:43:01.64,-65,374,-2020,-25,-55,181,303,60,243,-181
,216,2023-10-27 11:43:01.65,-46,377,-2007,-1,-32,215,414,104,310,-259
,217,2023-10-27 11:43:01.66,-52,384,-1998,25,-10,236,296,54,242,-175
,218,2023-10-27 11:43:01.67,-34,344,-1986,50,16,271,415,93,322,-254
,219,2023-10-27 11:43:01.68,-46,329,-1975,91,27,294,284,8,276,-146
,220,2023-10-27 11:43:01.69,-48,324,-1977,122,28,330,393,64,329,-228
,221,2023-10-27 11:43:01.70,-58,351,-2020,146,12,353,259,6,253,-132
,222,2023-10-27 11:43:01.71,-66,385,-2028,170,2,384,379,86,293,-232
,223,2023-10-27 11:43:01.72,-95,409,-2034,185,-11,406,241,24,217,-132
,224,2023-10-27 11:43:01.73,-105,446,-2053,194,-9,419,367,103,264,-235
,225,2023-10-27 11:43:01.74,-123,493,-2056,188,-16,421,229,16,213,-122
,226,2023-10-27 11:43:01.75,-146,523,-2071,187,-36,420,350,84,266,-217
,227,2023-10-27 11:43:01.76,-147,526,-2040,173,-46,408,215,11,204,-113
,228,2023-10-27 11:43:01.77,-155,530,-2014,154,-62,391,341,101,240,-221
,229,2023-10-27 11:43:01.78,-131,497,-2002,137,-66,375,203,16,187,-109
,230,2023-10-27 11:43:01.79,-111,423,-2037,131,-46,369,347,7,340,-177
,231,2023-10-27 11:43:01.80,-89,371,-2020,140,-36,360,204,-131,335,-36
,232,2023-10-27 11:43:01.81,-58,334,-1985,158,1,361,352,-77,429,-137
,233,2023-10-27 11:43:01.82,-37,317,-1935,183,39,358,205,-128,333,-38
,234,2023-10-27 11:43:01.83,-20,275,-1911,215,99,368,356,-15,371,-170
,235,2023-10-27 11:43:01.84,-2,237,-1912,263,151,375,211,-64,275,-73
,236,2023-10-27 11:43:01.85,10,209,-1925,324,194,396,358,43,315,-200
,237,2023-10-27 11:43:01.86,2,184,-1940,396,218,412,204,-37,241,-83
,238,2023-10-27 11:43:01.87,10,140,-1968,466,217,439,349,70,279,-209
,239,2023-10-27 11:43:01.88,-10,111,-2009,532,211,469,192,-22,214,-85
,240,2023-10-27 11:43:01.89,-18,97,-2041,592,204,503,331,76,255,-203
,241,2023-10-27 11:43:01.90,-32,86,-2082,638,189,542,162,-30,192,-66
,242,2023-10-27 11:43:01.91,-48,78,-2099,675,170,583,293,79,214,-186
,243,2023-10-27 11:43:01.92,-69,81,-2132,702,148,623,130,-29,159,-50
,244,2023-10-27 11:43:01.93,-50,108,-2141,712,96,651,264,75,189,-169
,245,2023-10-27 11:43:01.94,-49,107,-2123,710,48,685,110,-21,131,-44
,246,2023-10-27 11:43:01.95,-30,125,-2098,710,2,710,251,83,168,-167
,247,2023-10-27 11:43:01.96,-40,153,-2108,696,-33,722,105,-39,144,-33
,248,2023-10-27 11:43:01.97,-29,177,-2089,658,-35,711,259,70,189,-164
,249,2023-10-27 11:43:01.98,2,186,-2052,614,-47,696,127,-22,149,-52
,250,2023-10-27 11:43:01.99,-9,164,-2035,563,-28,685,296,120,176,-208
,251,2023-10-27 11:43:02.00,-3,136,-2035,524,-34,655,153,16,137,-84
,252,2023-10-27 11:43:02.01,-2,112,-2042,488,-42,627,327,149,178,-238
,253,2023-10-27 11:43:02.02,18,84,-2032,463,-30,600,187,52,135,-119
,254,2023-10-27 11:43:02.03,25,45,-2023,438,-16,586,379,227,152,-303
,255,2023-10-27 11:43:02.04,20,-12,-2023,407,9,586,241,142,99,-191
,256,2023-10-27 11:43:02.05,4,-27,-2032,387,37,572,459,334,125,-396
,257,2023-10-27 11:43:02.06,24,-61,-2030,387,32,562,321,214,107,-267
,258,2023-10-27 11:43:02.07,27,-67,-2025,393,18,559,543,374,169,-458
,259,2023-10-27 11:43:02.08,43,-71,-2014,413,26,542,406,228,178,-317
,260,2023-10-27 11:43:02.09,48,-90,-2033,425,55,539,617,341,276,-479
,261,2023-10-27 11:43:02.10,41,-93,-2034,456,65,517,462,196,266,-329
,262,2023-10-27 11:43:02.11,43,-103,-2028,482,84,510,661,370,291,-515
,263,2023-10-27 11:43:02.12,43,-83,-2030,487,75,496,486,256,230,-371
,264,2023-10-27 11:43:02.13,49,-78,-2068,493,69,483,685,435,250,-560
,265,2023-10-27 11:43:02.14,39,-68,-2049,509,81,454,505,294,211,-399
,266,2023-10-27 11:43:02.15,51,-76,-2048,513,94,431,680,443,237,-561
,267,2023-10-27 11:43:02.16,51,-90,-2043,500,107,399,497,290,207,-393
,268,2023-10-27 11:43:02.17,47,-101,-2068,485,121,375,682,440,242,-561
,269,2023-10-27 11:43:02.18,42,-91,-2085,463,129,343,515,274,241,-394
,270,2023-10-27 11:43:02.19,36,-91,-2086,439,116,321,700,384,316,-542
,271,2023-10-27 11:43:02.20,8,-82,-2094,419,102,292,525,190,335,-357
,272,2023-10-27 11:43:02.21,29,-86,-2089,390,57,254,701,305,396,-503
,273,2023-10-27 11:43:02.22,10,-99,-2103,354,61,226,517,148,369,-332
,274,2023-10-27 11:43:02.23,0,-91,-2111,340,24,187,680,267,413,-473
,275,2023-10-27 11:43:02.24,8,-107,-2069,305,11,153,496,108,388,-302
,276,2023-10-27 11:43:02.25,9,-131,-2058,245,-4,137,650,230,420,-440
,277,2023-10-27 11:43:02.26,7,-122,-2078,186,-15,113,465,58,407,-261
,278,2023-10-27 11:43:02.27,17,-122,-2064,135,-27,91,604,170,434,-387
,279,2023-10-27 11:43:02.28,14,-133,-2067,99,-36,62,405,22,383,-213
,280,2023-10-27 11:43:02.29,-8,-134,-2082,64,-51,47,536,150,386,-343
,281,2023-10-27 11:43:02.30,13,-121,-2062,19,-75,24,336,1,335,-168
,282,2023-10-27 11:43:02.31,1,-123,-2088,-26,-96,10,459,103,356,-281
,283,2023-10-27 11:43:02.32,-4,-138,-2080,-53,-99,-7,263,-62,325,-100
,284,2023-10-27 11:43:02.33,-2,-153,-2075,-83,-91,-20,384,39,345,-211
,285,2023-10-27 11:43:02.34,-16,-166,-2052,-118,-106,-23,208,-105,313,-51
,286,2023-10-27 11:43:02.35,-10,-167,-2060,-155,-120,-28,329,10,319,-169
,287,2023-10-27 11:43:02.36,-8,-145,-2047,-176,-107,-29,156,-120,276,-18
,288,2023-10-27 11:43:02.37,2,-141,-2029,-200,-107,-32,277,-4,281,-136
,289,2023-10-27 11:43:02.38,-2,-139,-2033,-217,-89,-37,117,-134,251,8
,290,2023-10-27 11:43:02.39,20,-135,-2024,-239,-78,-31,225,-34,259,-95
,291,2023-10-27 11:43:02.40,-4,-148,-2031,-253,-49,-22,61,-179,240,59
,292,2023-10-27 11:43:02.41,-6,-169,-2052,-265,-50,-10,177,-71,248,-53
,293,2023-10-27 11:43:02.42,-1,-156,-2050,-267,-34,1,19,-204,223,92
,294,2023-10-27 11:43:02.43,68,-294,-2063,-245,-7,62,131,-94,225,-18
,295,2023-10-27 11:43:02.44,2,-58,-1959,-170,77,83,-5,-195,190,100
,296,2023-10-27 11:43:02.45,-4,-255,-2018,-171,44,63,124,-72,196,-26
,297,2023-10-27 11:43:02.46,58,-234,-2037,-241,7,133,-14,-179,165,96
,298,2023-10-27 11:43:02.47,-40,-26,-2093,-204,21,159,84,-85,169,0
,299,2023-10-27 11:43:02.48,13,-79,-1986,-113,-22,130,-44,-208,164,126
,300,2023-10-27 11:43:02.49,-26,-124,-2064,-126,3,165,71,-109,180,19
,301,2023-10-27 11:43:02.50,27,-96,-2055,-163,-37,183,-51,-223,172,137
,302,2023-10-27 11:43:02.51,-22,-65,-2098,-188,-17,218,73,-100,173,13
,303,2023-10-27 11:43:02.52,10,-33,-2059,-155,-15,205,-56,-226,170,141
,304,2023-10-27 11:43:02.53,-1,-70,-2033,-149,-15,215,52,-121,173,34
,305,2023-10-27 11:43:02.54,-8,-45,-2062,-176,-2,228,-59,-232,173,145
,306,2023-10-27 11:43:02.55,34,-29,-2053,-203,-30,228,63,-115,178,26
,307,2023-10-27 11:43:02.56,-10,-4,-2063,-197,-8,246,-36,-211,175,123
,308,2023-10-27 11:43:02.57,16,5,-2061,-181,-11,237,72,-103,175,15
,309,2023-10-27 11:43:02.58,-12,-42,-2053,-187,-8,241,-26,-197,171,111
,310,2023-10-27 11:43:02.59,-11,-36,-2062,-191,-15,247,83,-80,163,-1
,311,2023-10-27 11:43:02.60,-12,-17,-2081,-181,-29,242,-8,-167,159,87
,312,2023-10-27 11:43:02.61,10,-8,-2068,-167,-45,240,96,-61,157,-17
,313,2023-10-27 11:43:02.62,-12,-16,-2075,-166,-55,243,-2,-170,168,86
,314,2023-10-27 11:43:02.63,-3,17,-2072,-165,-54,231,106,-62,168,-22
,315,2023-10-27 11:43:02.64,32,39,-2045,-170,-57,229,37,-144,181,53
,316,2023-10-27 11:43:02.65,11,41,-2056,-182,-24,230,136,-40,176,-48
,317,2023-10-27 11:43:02.66,22,50,-2037,-180,-23,209,75,-116,191,20
,318,2023-10-27 11:43:02.67,29,44,-2036,-180,-8,199,174,-9,183,-82
,319,2023-10-27 11:43:02.68,18,50,-2034,-171,-9,180,100,-84,184,-8
,320,2023-10-27 11:43:02.69,34,41,-2017,-146,-8,163,174,8,166,-91
,321,2023-10-27 11:43:02.70,39,47,-2034,-122,-8,145,101,-96,197,-2
,322,2023-10-27 11:43:02.71,33,60,-2023,-106,0,122,179,-9,188,-85
,323,2023-10-27 11:43:02.72,25,60,-2033,-96,1,102,118,-88,206,-15
,324,2023-10-27 11:43:02.73,43,50,-2027,-89,32,77,193,4,189,-98
,325,2023-10-27 11:43:02.74,25,53,-2078,-85,44,56,135,-64,199,-35
,326,2023-10-27 11:43:02.75,22,49,-2089,-70,36,32,202,21,181,-111
,327,2023-10-27 11:43:02.76,-7,52,-2115,-53,22,12,157,-40,197,-58
,328,2023-10-27 11:43:02.77,-37,67,-2135,-39,-8,-13,215,38,177,-126
,329,2023-10-27 11:43:02.78,-18,90,-2154,-28,-53,-56,173,-34,207,-69
,330,2023-10-27 11:43:02.79,-32,73,-2183,-12,-80,-57,217,38,179,-127
,331,2023-10-27 11:43:02.80,-1,55,-2162,-9,-107,-68,182,-19,201,-81
,332,2023-10-27 11:43:02.81,48,-13,-2093,-37,-123,-27,224,56,168,-140
,333,2023-10-27 11:43:02.82,19,-11,-2073,-55,-77,24,202,7,195,-104
,334,2023-10-27 11:43:02.83,-47,39,-2046,-33,-54,11,236,63,173,-149
,335,2023-10-27 11:43:02.84,-32,46,-1991,-10,-94,-12,231,20,211,-125
,336,2023-10-27 11:43:02.85,-12,61,-1987,17,-149,-36,270,83,187,-176
,337,2023-10-27 11:43:02.86,-18,84,-1992,59,-223,-49,254,38,216,-146
,338,2023-10-27 11:43:02.87,-6,117,-1953,98,-241,-93,275,84,191,-179
,339,2023-10-27 11:43:02.88,7,89,-1929,111,-191,-125,274,49,225,-161
,340,2023-10-27 11:43:02.89,-47,115,-1951,116,-119,-178,296,99,197,-197
,341,2023-10-27 11:43:02.90,10,107,-1977,80,-97,-203,315,94,221,-204
,342,2023-10-27 11:43:02.91,-7,95,-2037,51,-91,-217,305,127,178,-216
,343,2023-10-27 11:43:02.92,-6,90,-2043,60,-65,-265,336,128,208,-232
,344,2023-10-27 11:43:02.93,-15,79,-2061,105,-22,-304,330,164,166,-247
,345,2023-10-27 11:43:02.94,-29,39,-2089,168,1,-344,372,188,184,-280
,346,2023-10-27 11:43:02.95,-31,-13,-2106,214,-2,-370,365,225,140,-295
,347,2023-10-27 11:43:02.96,-57,-16,-2121,244,-11,-389,448,264,184,-356
,348,2023-10-27 11:43:02.97,-61,-30,-2126,262,-19,-393,427,276,151,-351
,349,2023-10-27 11:43:02.98,-70,-39,-2101,282,-24,-386,501,310,191,-405
,350,2023-10-27 11:43:02.99,-83,-35,-2125,282,-48,-382,455,305,150,-380
,351,2023-10-27 11:43:03.00,-91,-35,-2149,293,-74,-375,542,361,181,-451
,352,2023-10-27 11:43:03.01,-117,-16,-2157,304,-129,-376,476,331,145,-403
,353,2023-10-27 11:43:03.02,-120,-11,-2115,311,-185,-380,549,339,210,-444
,354,2023-10-27 11:43:03.03,-122,-10,-2107,287,-225,-392,450,288,162,-369
,355,2023-10-27 11:43:03.04,-122,-20,-2089,249,-240,-405,490,289,201,-389
,356,2023-10-27 11:43:03.05,-141,-5,-2080,216,-244,-417,387,231,156,-309
,357,2023-10-27 11:43:03.06,-128,-18,-2060,167,-255,-422,438,206,232,-322
,358,2023-10-27 11:43:03.07,-121,-45,-2018,104,-241,-413,348,155,193,-251
,359,2023-10-27 11:43:03.08,-107,-67,-1989,60,-213,-415,372,136,236,-254
,360,2023-10-27 11:43:03.09,-125,-95,-1980,52,-179,-443,274,87,187,-180
,361,2023-10-27 11:43:03.10,-44,-196,-1959,86,-131,-452,284,49,235,-166
,362,2023-10-27 11:43:03.11,-106,-61,-1829,137,-53,-418,199,8,191,-103
,363,2023-10-27 11:43:03.12,-141,-222,-1971,98,-15,-397,248,23,225,-135
,364,2023-10-27 11:43:03.13,-62,-236,-1970,5,-31,-405,180,10,170,-95
,365,2023-10-27 11:43:03.14,-130,-82,-2019,16,4,-358,233,23,210,-128
,366,2023-10-27 11:43:03.15,-95,-145,-2034,132,-64,-355,168,-3,171,-82
,367,2023-10-27 11:43:03.16,-133,-176,-2047,167,-53,-329,224,13,211,-118
,368,2023-10-27 11:43:03.17,-116,-187,-2091,149,-19,-294,149,-15,164,-67
,369,2023-10-27 11:43:03.18,-144,-176,-2115,155,-25,-261,223,39,184,-131
,370,2023-10-27 11:43:03.19,-112,-214,-2115,148,-43,-220,161,12,149,-86
,371,2023-10-27 11:43:03.20,-107,-219,-2063,132,-41,-159,229,13,216,-121
,372,2023-10-27 11:43:03.21,-165,-158,-2051,132,-13,-114,140,-35,175,-52
,373,2023-10-27 11:43:03.22,-111,-178,-2054,114,-11,-92,245,33,212,-139
,374,2023-10-27 11:43:03.23,-108,-159,-2063,92,-22,-50,172,11,161,-91
,375,2023-10-27 11:43:03.24,-106,-123,-2001,102,-25,-26,216,10,206,-113
,376,2023-10-27 11:43:03.25,-128,-131,-1981,121,-16,-15,132,-44,176,-44
,377,2023-10-27 11:43:03.26,-97,-151,-2000,98,-21,-14,273,41,232,-157
,378,2023-10-27 11:43:03.27,-97,-119,-1998,63,-7,20,172,-3,175,-84
,379,2023-10-27 11:43:03.28,-109,-99,-2007,62,6,31,258,40,218,-149
,380,2023-10-27 11:43:03.29,-97,-121,-2013,51,-1,28,155,-18,173,-68
,381,2023-10-27 11:43:03.30,-100,-118,-2021,15,21,50,273,49,224,-161
,382,2023-10-27 11:43:03.31,-113,-92,-2048,-1,30,46,182,4,178,-93
,383,2023-10-27 11:43:03.32,-91,-109,-2053,-10,18,51,316,87,229,-201
,384,2023-10-27 11:43:03.33,-103,-98,-2058,-26,19,57,193,11,182,-102
,385,2023-10-27 11:43:03.34,-104,-120,-2072,-50,24,68,304,64,240,-184
,386,2023-10-27 11:43:03.35,-98,-110,-2084,-68,28,67,183,-10,193,-86
,387,2023-10-27 11:43:03.36,-95,-112,-2080,-81,26,81,308,64,244,-186
,388,2023-10-27 11:43:03.37,-102,-123,-2081,-78,18,84,185,1,184,-93
,389,2023-10-27 11:43:03.38,-95,-143,-2080,-76,-11,86,313,84,229,-198
,390,2023-10-27 11:43:03.39,-99,-131,-2070,-69,-11,94,179,-5,184,-87
,391,2023-10-27 11:43:03.40,-90,-121,-2062,-62,-16,92,310,68,242,-189
,392,2023-10-27 11:43:03.41,-93,-109,-2062,-56,-21,92,176,-19,195,-78
,393,2023-10-27 11:43:03.42,-110,-95,-2059,-56,-19,84,309,73,236,-191
,394,2023-10-27 11:43:03.43,-147,-86,-2088,-52,-24,69,168,-17,185,-75
,395,2023-10-27 11:43:03.44,-141,-59,-2115,2,-54,3,308,68,240,-188
,396,2023-10-27 11:43:03.45,19,-45,-1898,48,-65,-33,164,-20,184,-72
,397,2023-10-27 11:43:03.46,-85,-117,-1968,8,40,46,306,81,225,-193
,398,2023-10-27 11:43:03.47,-100,-138,-2038,-47,80,38,166,-13,179,-76
,399,2023-10-27 11:43:03.48,-72,-127,-2032,-100,84,52,313,87,226,-200
,400,2023-10-27 11:43:03.49,-90,-68,-2045,-42,67,58,165,-20,185,-72
,401,2023-10-27 11:43:03.50,-65,-120,-2028,39,15,45,315,82,233,-198
,402,2023-10-27 11:43:03.51,-93,-161,-2059,59,11,49,168,-8,176,-80
,403,2023-10-27 11:43:03.52,-113,-95,-2048,74,4,26,331,108,223,-219
,404,2023-10-27 11:43:03.53,-126,-69,-2028,87,-15,14,183,0,183,-91
,405,2023-10-27 11:43:03.54,-93,-97,-2058,49,-41,32,348,100,248,-224
,406,2023-10-27 11:43:03.55,-124,-44,-2076,-1,-54,24,184,-15,199,-84
,407,2023-10-27 11:43:03.56,-111,-31,-2055,-14,-15,16,337,92,245,-214
,408,2023-10-27 11:43:03.57,-108,-104,-2057,-1,14,-4,186,-5,191,-90
,409,2023-10-27 11:43:03.58,-97,-127,-2073,2,15,-21,363,135,228,-249
,410,2023-10-27 11:43:03.59,-103,-112,-2043,-9,1,-25,194,4,190,-99
,411,2023-10-27 11:43:03.60,-103,-89,-2031,-16,4,-39,341,104,237,-222
,412,2023-10-27 11:43:03.61,-98,-91,-2020,-20,6,-57,168,-32,200,-68
,413,2023-10-27 11:43:03.62,-91,-93,-2026,-18,12,-62,330,80,250,-205
,414,2023-10-27 11:43:03.63,-129,-102,-2059,-11,25,-60,166,-34,200,-66
,415,2023-10-27 11:43:03.64,-120,-130,-2056,-4,11,-75,337,99,238,-218
,416,2023-10-27 11:43:03.65,-127,-114,-2047,-1,2,-79,182,-14,196,-84
,417,2023-10-27 11:43:03.66,-114,-113,-2043,-1,-7,-89,368,127,241,-247
,418,2023-10-27 11:43:03.67,-102,-106,-2039,-4,-5,-94,221,2,219,-111
,419,2023-10-27 11:43:03.68,-108,-95,-2035,-2,14,-93,406,137,269,-271
,420,2023-10-27 11:43:03.69,-107,-99,-2021,2,28,-94,239,11,228,-125
,421,2023-10-27 11:43:03.70,-99,-116,-2045,3,36,-100,408,145,263,-276
,422,2023-10-27 11:43:03.71,-104,-110,-2039,12,23,-110,230,14,216,-122
,423,2023-10-27 11:43:03.72,-108,-107,-2035,20,19,-106,400,138,262,-269
,424,2023-10-27 11:43:03.73,-110,-113,-2043,18,30,-97,218,-9,227,-104
,425,2023-10-27 11:43:03.74,-112,-98,-2065,7,29,-91,390,114,276,-252
,426,2023-10-27 11:43:03.75,-132,-92,-2083,-6,18,-100,216,-13,229,-101
,427,2023-10-27 11:43:03.76,-131,-96,-2097,-15,-22,-109,389,109,280,-249
,428,2023-10-27 11:43:03.77,-113,-110,-2081,0,-50,-122,210,-56,266,-77
,429,2023-10-27 11:43:03.78,-108,-94,-2024,48,-30,-143,358,45,313,-201
,430,2023-10-27 11:43:03.79,-108,-89,-1989,31,3,-133,201,-66,267,-67
,431,2023-10-27 11:43:03.80,-91,-141,-2094,-71,-3,-124,391,104,287,-247
,432,2023-10-27 11:43:03.81,-58,-82,-2072,-144,-12,-100,213,-31,244,-91
,433,2023-10-27 11:43:03.82,-113,-37,-2049,-81,35,-94,363,86,277,-224
,434,2023-10-27 11:43:03.83,-75,-154,-2027,28,44,-118,175,-67,242,-54
,435,2023-10-27 11:43:03.84,-90,-172,-2008,40,33,-105,351,88,263,-219
,436,2023-10-27 11:43:03.85,-84,-188,-2060,10,-14,-77,212,-20,232,-96
,437,2023-10-27 11:43:03.86,-89,-81,-2037,21,-28,-68,383,131,252,-257
,438,2023-10-27 11:43:03.87,-76,-53,-2007,59,-2,-62,196,-24,220,-86
,439,2023-10-27 11:43:03.88,-117,-85,-2033,85,16,-78,350,110,240,-230
,440,2023-10-27 11:43:03.89,-57,-114,-2069,30,-3,-57,196,-21,217,-87
,441,2023-10-27 11:43:03.90,-114,-53,-2088,0,-15,-32,336,100,236,-218
,442,2023-10-27 11:43:03.91,-89,-50,-2060,12,-15,-31,201,-10,211,-95
,443,2023-10-27 11:43:03.92,-98,-129,-2061,7,-10,-33,375,156,219,-265
,444,2023-10-27 11:43:03.93,-73,-116,-2058,-20,-9,-10,238,39,199,-138
,445,2023-10-27 11:43:03.94,-84,-104,-2055,-30,-17,1,390,179,211,-284
,446,2023-10-27 11:43:03.95,-71,-121,-2036,-28,-26,15,224,28,196,-126
,447,2023-10-27 11:43:03.96,-79,-116,-2046,-26,-13,28,372,164,208,-268
,448,2023-10-27 11:43:03.97,-77,-108,-2044,-13,-16,37,219,21,198,-120
,449,2023-10-27 11:43:03.98,-99,-101,-2060,-11,-15,53,371,159,212,-265
,450,2023-10-27 11:43:03.99,-92,-96,-2051,-11,-21,65,221,26,195,-123
,451,2023-10-27 11:43:04.00,-84,-92,-2054,-18,-19,79,359,161,198,-260
,452,2023-10-27 11:43:04.01,-81,-98,-2062,-22,-16,90,215,34,181,-124
,453,2023-10-27 11:43:04.02,-83,-108,-2068,-15,-16,112,353,148,205,-250
,454,2023-10-27 11:43:04.03,-93,-120,-2052,-4,-20,129,207,1,206,-104
,455,2023-10-27 11:43:04.04,-104,-131,-2051,-3,-18,143,340,122,218,-231
,456,2023-10-27 11:43:04.05,-114,-125,-2058,-5,-29,155,201,-5,206,-98
,457,2023-10-27 11:43:04.06,-116,-103,-2043,-5,-30,172,334,125,209,-229
,458,2023-10-27 11:43:04.07,-109,-103,-2036,2,-30,180,202,-1,203,-100
,459,2023-10-27 11:43:04.08,-135,-85,-2076,7,-21,185,337,132,205,-234
,460,2023-10-27 11:43:04.09,-79,-51,-2045,26,-52,159,196,-3,199,-96
,461,2023-10-27 11:43:04.10,-15,-171,-1974,49,-18,213,315,112,203,-213
,462,2023-10-27 11:43:04.11,-121,-169,-2007,102,92,251,201,-7,208,-97
,463,2023-10-27 11:43:04.12,-116,-260,-2061,66,98,329,338,134,204,-236
,464,2023-10-27 11:43:04.13,-108,-202,-2087,48,37,399,216,8,208,-112
,465,2023-10-27 11:43:04.14,-112,-154,-2056,68,-3,458,314,104,210,-209
,466,2023-10-27 11:43:04.15,-95,-166,-2020,106,3,502,207,-2,209,-102
,467,2023-10-27 11:43:04.16,-95,-212,-2033,117,54,552,313,108,205,-210
,468,2023-10-27 11:43:04.17,-98,-233,-2046,117,61,595,219,-4,223,-107
,469,2023-10-27 11:43:04.18,-81,-235,-2019,113,34,658,329,118,211,-223
,470,2023-10-27 11:43:04.19,-75,-219,-2007,123,6,715,237,43,194,-140
,471,2023-10-27 11:43:04.20,-76,-197,-2004,143,8,760,337,161,176,-249
,472,2023-10-27 11:43:04.21,-72,-180,-2038,147,29,793,245,56,189,-150
,473,2023-10-27 11:43:04.22,-83,-187,-2054,138,53,846,338,164,174,-251
,474,2023-10-27 11:43:04.23,-95,-189,-2070,126,67,902,260,123,137,-191
,475,2023-10-27 11:43:04.24,-101,-164,-2064,115,61,941,355,250,105,-302
,476,2023-10-27 11:43:04.25,-87,-140,-2071,108,63,970,305,204,101,-254
,477,2023-10-27 11:43:04.26,-110,-112,-2087,113,50,992,399,305,94,-352
,478,2023-10-27 11:43:04.27,-96,-104,-2088,95,28,1019,345,248,97,-296
,479,2023-10-27 11:43:04.28,-84,-120,-2082,40,1,1055,407,318,89,-362
,480,2023-10-27 11:43:04.29,-96,-80,-2082,-6,8,1089,334,205,129,-269
,481,2023-10-27 11:43:04.30,-128,-56,-2092,-11,24,1091,374,246,128,-310
,482,2023-10-27 11:43:04.31,-113,-85,-2082,-6,-7,1071,273,109,164,-191
,483,2023-10-27 11:43:04.32,-100,-100,-2073,-5,-41,1053,308,146,162,-227
,484,2023-10-27 11:43:04.33,-132,-35,-2052,32,-78,1004,211,-2,213,-104
,485,2023-10-27 11:43:04.34,-100,28,-1980,38,-72,967,252,43,209,-147
,486,2023-10-27 11:43:04.35,-118,-5,-2007,-43,-59,962,163,-54,217,-54
,487,2023-10-27 11:43:04.36,-109,8,-2052,-152,-37,941,205,19,186,-112
,488,2023-10-27 11:43:04.37,-122,41,-2068,-205,1,912,124,-70,194,-27
,489,2023-10-27 11:43:04.38,-107,50,-2057,-170,32,873,160,-13,173,-73
,490,2023-10-27 11:43:04.39,-157,-30,-2087,-141,8,827,83,-85,168,1
,491,2023-10-27 11:43:04.40,-121,-38,-2039,-140,-44,755,129,-8,137,-60
,492,2023-10-27 11:43:04.41,-125,7,-2037,-153,-68,714,84,-83,167,0
,493,2023-10-27 11:43:04.42,-154,53,-2053,-163,-73,677,138,-12,150,-63
,494,2023-10-27 11:43:04.43,-122,55,-2057,-184,-92,617,126,-37,163,-44
,495,2023-10-27 11:43:04.44,-131,72,-2017,-195,-79,566,189,51,138,-120
,496,2023-10-27 11:43:04.45,-140,65,-2050,-205,-52,531,170,16,154,-93
,497,2023-10-27 11:43:04.46,-149,20,-2054,-223,-43,477,198,65,133,-131
,498,2023-10-27 11:43:04.47,-143,38,-2031,-240,-13,440,208,36,172,-122
,499,2023-10-27 11:43:04.48,-136,44,-2011,-228,-19,385,240,91,149,-165
,500,2023-10-27 11:43:04.49,-139,32,-2028,-216,7,355,209,23,186,-116
,501,2023-10-27 11:43:04.50,-131,47,-2010,-206,17,306,224,71,153,-147
,502,2023-10-27 11:43:04.51,-126,60,-2018,-194,23,260,250,75,175,-162
,503,2023-10-27 11:43:04.52,-139,74,-2022,-165,32,220,254,108,146,-181
,504,2023-10-27 11:43:04.53,-138,53,-2020,-133,25,177,243,64,179,-153
,505,2023-10-27 11:43:04.54,-152,44,-2046,-123,42,156,244,95,149,-169
,506,2023-10-27 11:43:04.55,-137,56,-2044,-124,50,131,277,87,190,-182
,507,2023-10-27 11:43:04.56,-135,35,-2062,-116,52,119,267,109,158,-188
,508,2023-10-27 11:43:04.57,-153,22,-2064,-92,40,107,275,90,185,-182
,509,2023-10-27 11:43:04.58,-154,30,-2056,-80,26,92,251,110,141,-180
,510,2023-10-27 11:43:04.59,-142,33,-2059,-74,23,79,277,106,171,-191
,511,2023-10-27 11:43:04.60,-141,45,-2041,-65,18,64,250,107,143,-178
,512,2023-10-27 11:43:04.61,-137,68,-2038,-57,9,49,280,84,196,-182
,513,2023-10-27 11:43:04.62,-133,84,-2040,-56,0,23,251,91,160,-171
,514,2023-10-27 11:43:04.63,-130,98,-2029,-67,-9,-10,291,95,196,-193
,515,2023-10-27 11:43:04.64,-141,110,-2045,-75,-2,-36,252,87,165,-169
,516,2023-10-27 11:43:04.65,-129,133,-2031,-79,-10,-92,292,76,216,-184
,517,2023-10-27 11:43:04.66,-122,143,-2022,-98,4,-122,242,64,178,-153
,518,2023-10-27 11:43:04.67,-138,168,-2049,-141,18,-160,291,60,231,-175
,519,2023-10-27 11:43:04.68,-2,110,-1981,-197,23,-199,234,52,182,-143
,520,2023-10-27 11:43:04.69,-93,72,-2014,-215,143,-171,280,60,220,-170
,521,2023-10-27 11:43:04.70,-149,95,-2038,-145,188,-229,223,46,177,-134
,522,2023-10-27 11:43:04.71,-120,29,-2009,-114,162,-287,292,64,228,-178
,523,2023-10-27 11:43:04.72,-150,58,-2063,-127,102,-314,238,51,187,-144
,524,2023-10-27 11:43:04.73,-168,119,-2107,-135,7,-347,312,55,257,-183
,525,2023-10-27 11:43:04.74,-175,132,-2124,-137,-22,-366,237,26,211,-131
,526,2023-10-27 11:43:04.75,-176,115,-2127,-161,-20,-366,316,46,270,-181
,527,2023-10-27 11:43:04.76,-172,49,-2134,-213,-6,-356,248,19,229,-133
,528,2023-10-27 11:43:04.77,-165,-9,-2111,-266,21,-333,356,76,280,-216
,529,2023-10-27 11:43:04.78,-135,-14,-2084,-288,36,-317,275,62,213,-168
,530,2023-10-27 11:43:04.79,-119,-16,-2038,-286,9,-301,382,132,250,-257
,531,2023-10-27 11:43:04.80,-102,-7,-2030,-270,-4,-279,289,106,183,-197
,532,2023-10-27 11:43:04.81,-83,8,-2011,-238,-17,-271,408,178,230,-293
,533,2023-10-27 11:43:04.82,-79,27,-1997,-194,-4,-254,298,115,183,-206
,534,2023-10-27 11:43:04.83,-80,26,-1996,-156,4,-238,408,156,252,-282
,535,2023-10-27 11:43:04.84,-78,31,-2002,-127,12,-231,300,95,205,-197
,536,2023-10-27 11:43:04.85,-82,28,-2022,-108,31,-213,420,157,263,-288
,537,2023-10-27 11:43:04.86,-102,36,-2040,-85,34,-200,303,102,201,-202
,538,2023-10-27 11:43:04.87,-92,38,-2036,-67,47,-181,421,156,265,-288
,539,2023-10-27 11:43:04.88,-105,39,-2047,-61,51,-152,306,73,233,-189
,540,2023-10-27 11:43:04.89,-111,26,-2065,-64,67,-121,418,112,306,-265
,541,2023-10-27 11:43:04.90,-103,34,-2057,-61,79,-101,289,44,245,-166
,542,2023-10-27 11:43:04.91,-108,42,-2057,-44,82,-75,394,101,293,-247
,543,2023-10-27 11:43:04.92,-121,55,-2071,-18,71,-67,257,34,223,-145
,544,2023-10-27 11:43:04.93,-108,75,-2047,-1,40,-67,376,96,280,-236
,545,2023-10-27 11:43:04.94,-93,81,-2041,11,33,-66,239,13,226,-126
,546,2023-10-27 11:43:04.95,-111,98,-2024,21,23,-81,358,70,288,-214
,547,2023-10-27 11:43:04.96,-92,120,-2046,10,36,-85,219,-11,230,-104
,548,2023-10-27 11:43:04.97,-74,129,-2039,-4,61,-69,346,72,274,-209
,549,2023-10-27 11:43:04.98,-101,169,-2043,-20,74,-63,200,-8,208,-96
,550,2023-10-27 11:43:04.99,-71,125,-2024,-59,61,-54,319,77,242,-198
,551,2023-10-27 11:43:05.00,-165,124,-2074,-88,65,-38,177,-14,191,-81
,552,2023-10-27 11:43:05.01,-92,118,-2143,-74,21,-77,298,56,242,-177
,553,2023-10-27 11:43:05.02,-49,142,-2038,-20,-15,-82,156,-32,188,-62
,554,2023-10-27 11:43:05.03,-132,97,-2049,20,6,-67,267,39,228,-153
,555,2023-10-27 11:43:05.04,-113,130,-1992,6,-17,-109,134,-36,170,-49
,556,2023-10-27 11:43:05.05,-126,42,-2124,-72,-6,-53,281,54,227,-167
,557,2023-10-27 11:43:05.06,-39,175,-2057,-66,-34,-99,141,-60,201,-40
,558,2023-10-27 11:43:05.07,-118,148,-2027,-32,4,-70,248,-1,249,-123
,559,2023-10-27 11:43:05.08,-80,114,-2048,-36,35,-61,112,-87,199,-12
,560,2023-10-27 11:43:05.09,-97,84,-2043,-65,34,-79,254,20,234,-137
,561,2023-10-27 11:43:05.10,-74,113,-2075,-70,25,-61,117,-63,180,-27
,562,2023-10-27 11:43:05.11,-98,143,-2059,-16,10,-63,249,32,217,-140
,563,2023-10-27 11:43:05.12,-104,123,-2035,19,-1,-77,103,-65,168,-19
,564,2023-10-27 11:43:05.13,-100,121,-2029,2,-4,-70,274,68,206,-171
,565,2023-10-27 11:43:05.14,-110,141,-2051,-12,0,-70,140,-24,164,-58
,566,2023-10-27 11:43:05.15,-105,148,-2032,-22,-5,-65,296,83,213,-189
,567,2023-10-27 11:43:05.16,-104,132,-2029,-21,16,-50,143,-24,167,-59
,568,2023-10-27 11:43:05.17,-98,118,-2028,-28,26,-46,303,90,213,-196
,569,2023-10-27 11:43:05.18,-112,112,-2038,-38,22,-28,157,-10,167,-73
,570,2023-10-27 11:43:05.19,-91,111,-2041,-32,23,-15,326,120,206,-223
,571,2023-10-27 11:43:05.20,-97,98,-2045,-20,22,0,166,0,166,-83
,572,2023-10-27 11:43:05.21,-102,107,-2054,-5,13,11,327,118,209,-222
,573,2023-10-27 11:43:05.22,-83,115,-2065,8,15,26,162,-12,174,-75
,574,2023-10-27 11:43:05.23,-109,119,-2064,21,-10,29,330,111,219,-220
