// Data mode  : Full
// Data quality  : High
// Acceleration sensor's range  : 16g
// Gyroscope sensor's range  : 2000dps
//
//ARTIFACT,NUM,DATE,ACC_X,ACC_Y,ACC_Z,GYRO_X,GYRO_Y,GYRO_Z,EOG_L,EOG_R,EOG_H,EOG_V
,1,2023-10-27 12:30:48.03,169,-106,-2043,12,-29,-29,-92,68,-160,12
,2,2023-10-27 12:30:48.04,175,-96,-2046,15,-19,-32,-182,75,-257,53
,3,2023-10-27 12:30:48.05,165,-102,-2051,17,-25,-29,-90,57,-147,16
,4,2023-10-27 12:30:48.06,158,-100,-2051,21,-22,-30,-154,83,-237,35
,5,2023-10-27 12:30:48.07,150,-103,-2055,22,-11,-26,-58,80,-138,-11
,6,2023-10-27 12:30:48.08,156,-104,-2045,23,-9,-25,-151,86,-237,32
,7,2023-10-27 12:30:48.09,150,-112,-2058,24,-11,-18,-66,75,-141,-4
,8,2023-10-27 12:30:48.10,148,-108,-2053,22,-16,-17,-170,76,-246,47
,9,2023-10-27 12:30:48.11,153,-110,-2052,26,-13,-6,-70,75,-145,-2
,10,2023-10-27 12:30:48.12,151,-108,-2052,24,-10,-4,-149,85,-234,32
,11,2023-10-27 12:30:48.13,157,-107,-2047,24,-13,5,-51,93,-144,-21
,12,2023-10-27 12:30:48.14,155,-114,-2051,20,-12,5,-166,88,-254,39
,13,2023-10-27 12:30:48.15,149,-112,-2039,18,-2,15,-69,89,-158,-10
,14,2023-10-27 12:30:48.16,154,-104,-2044,16,-6,14,-181,78,-259,51
,15,2023-10-27 12:30:48.17,152,-109,-2049,15,0,14,-80,87,-167,-3
,16,2023-10-27 12:30:48.18,160,-106,-2049,17,-3,18,-195,64,-259,65
,17,2023-10-27 12:30:48.19,153,-104,-2051,14,-2,15,-70,79,-149,-4
,18,2023-10-27 12:30:48.20,155,-104,-2050,13,-1,11,-154,80,-234,37
,19,2023-10-27 12:30:48.21,157,-99,-2051,13,-1,13,-53,89,-142,-18
,20,2023-10-27 12:30:48.22,160,-105,-2057,15,-1,9,-184,75,-259,54
,21,2023-10-27 12:30:48.23,152,-104,-2056,13,-2,11,-83,85,-168,-1
,22,2023-10-27 12:30:48.24,146,-105,-2053,12,-6,5,-191,66,-257,62
,23,2023-10-27 12:30:48.25,158,-101,-2058,11,-6,8,-61,94,-155,-16
,24,2023-10-27 12:30:48.26,160,-105,-2059,11,-10,7,-173,71,-244,51
,25,2023-10-27 12:30:48.27,162,-100,-2048,10,-10,5,-44,109,-153,-32
,26,2023-10-27 12:30:48.28,161,-104,-2051,9,-17,2,-165,76,-241,44
,27,2023-10-27 12:30:48.29,147,-107,-2051,9,-13,2,-45,108,-153,-31
,28,2023-10-27 12:30:48.30,148,-102,-2055,7,-6,5,-171,71,-242,50
,29,2023-10-27 12:30:48.31,155,-98,-2059,8,-17,0,-47,104,-151,-28
,30,2023-10-27 12:30:48.32,150,-104,-2056,7,-14,-2,-182,63,-245,59
,31,2023-10-27 12:30:48.33,147,-97,-2054,8,-8,-3,-60,101,-161,-20
,32,2023-10-27 12:30:48.34,153,-104,-2060,8,-18,-8,-188,55,-243,66
,33,2023-10-27 12:30:48.35,146,-109,-2050,8,-18,-10,-42,100,-142,-29
,34,2023-10-27 12:30:48.36,149,-106,-2055,9,-16,-8,-160,60,-220,50
,35,2023-10-27 12:30:48.37,155,-103,-2058,7,-13,-9,-40,104,-144,-32
,36,2023-10-27 12:30:48.38,155,-104,-2051,8,-15,-11,-188,48,-236,70
,37,2023-10-27 12:30:48.39,156,-110,-2052,7,-13,-8,-66,100,-166,-17
,38,2023-10-27 12:30:48.40,153,-107,-2051,6,-12,-8,-204,43,-247,80
,39,2023-10-27 12:30:48.41,150,-113,-2049,6,-6,-9,-64,102,-166,-19
,40,2023-10-27 12:30:48.42,150,-113,-2054,8,-16,-8,-195,49,-244,73
,41,2023-10-27 12:30:48.43,155,-112,-2053,8,-8,-5,-54,107,-161,-26
,42,2023-10-27 12:30:48.44,144,-113,-2050,8,-12,-1,-189,46,-235,71
,43,2023-10-27 12:30:48.45,141,-108,-2049,10,-7,-1,-50,111,-161,-30
,44,2023-10-27 12:30:48.46,149,-110,-2051,6,-7,3,-195,47,-242,74
,45,2023-10-27 12:30:48.47,156,-108,-2047,8,-8,8,-57,108,-165,-25
,46,2023-10-27 12:30:48.48,150,-115,-2052,5,-13,5,-195,37,-232,79
,47,2023-10-27 12:30:48.49,130,-113,-2057,4,-12,12,-51,111,-162,-30
,48,2023-10-27 12:30:48.50,144,-110,-2057,4,-13,12,-188,44,-232,72
,49,2023-10-27 12:30:48.51,156,-106,-2052,4,-15,13,-47,122,-169,-37
,50,2023-10-27 12:30:48.52,149,-98,-2054,1,-11,17,-192,52,-244,70
,51,2023-10-27 12:30:48.53,139,-97,-2052,-7,1,12,-48,125,-173,-38
,52,2023-10-27 12:30:48.54,142,-106,-2059,-7,4,12,-189,45,-234,72
,53,2023-10-27 12:30:48.55,149,-101,-2051,-5,3,9,-38,127,-165,-44
,54,2023-10-27 12:30:48.56,139,-102,-2054,-6,1,11,-185,41,-226,72
,55,2023-10-27 12:30:48.57,147,-106,-2048,-6,3,13,-46,118,-164,-36
,56,2023-10-27 12:30:48.58,150,-100,-2045,-6,-5,11,-195,35,-230,80
,57,2023-10-27 12:30:48.59,145,-93,-2053,-4,-2,15,-52,116,-168,-32
,58,2023-10-27 12:30:48.60,148,-92,-2051,-7,-5,16,-194,28,-222,83
,59,2023-10-27 12:30:48.61,142,-86,-2055,-9,1,15,-31,127,-158,-48
,60,2023-10-27 12:30:48.62,138,-94,-2058,-9,-5,15,-188,27,-215,80
,61,2023-10-27 12:30:48.63,151,-97,-2058,-8,-6,14,-49,116,-165,-33
,62,2023-10-27 12:30:48.64,144,-90,-2060,-8,-7,17,-200,14,-214,93
,63,2023-10-27 12:30:48.65,146,-98,-2057,-7,-7,17,-56,124,-180,-34
,64,2023-10-27 12:30:48.66,149,-95,-2066,-6,-12,19,-204,26,-230,89
,65,2023-10-27 12:30:48.67,141,-95,-2054,-2,-18,21,-70,113,-183,-21
,66,2023-10-27 12:30:48.68,128,-99,-2062,-3,-15,24,-215,23,-238,96
,67,2023-10-27 12:30:48.69,142,-97,-2052,0,-13,28,-61,124,-185,-31
,68,2023-10-27 12:30:48.70,137,-103,-2056,1,-18,30,-191,22,-213,84
,69,2023-10-27 12:30:48.71,133,-95,-2062,3,-10,34,-61,125,-186,-32
,70,2023-10-27 12:30:48.72,142,-94,-2059,3,-13,36,-218,14,-232,102
,71,2023-10-27 12:30:48.73,135,-95,-2056,4,-10,39,-82,116,-198,-17
,72,2023-10-27 12:30:48.74,147,-97,-2053,7,-2,43,-225,11,-236,107
,73,2023-10-27 12:30:48.75,134,-87,-2052,4,-6,42,-68,122,-190,-27
,74,2023-10-27 12:30:48.76,139,-85,-2050,4,0,39,-192,18,-210,87
,75,2023-10-27 12:30:48.77,133,-100,-2047,7,-1,44,-56,131,-187,-37
,76,2023-10-27 12:30:48.78,139,-98,-2047,11,-4,44,-208,11,-219,98
,77,2023-10-27 12:30:48.79,139,-92,-2044,13,0,40,-86,109,-195,-11
,78,2023-10-27 12:30:48.80,142,-94,-2043,14,6,41,-232,-6,-226,119
,79,2023-10-27 12:30:48.81,145,-90,-2052,13,4,36,-78,109,-187,-15
,80,2023-10-27 12:30:48.82,139,-99,-2051,14,13,32,-200,2,-202,99
,81,2023-10-27 12:30:48.83,141,-98,-2056,16,5,25,-51,125,-176,-37
,82,2023-10-27 12:30:48.84,139,-96,-2057,17,8,25,-188,8,-196,90
,83,2023-10-27 12:30:48.85,133,-101,-2056,16,2,26,-57,120,-177,-31
,84,2023-10-27 12:30:48.86,144,-98,-2053,15,7,22,-195,0,-195,97
,85,2023-10-27 12:30:48.87,133,-95,-2052,14,0,24,-64,119,-183,-27
,86,2023-10-27 12:30:48.88,138,-101,-2048,12,2,20,-194,4,-198,95
,87,2023-10-27 12:30:48.89,139,-100,-2052,9,10,21,-55,126,-181,-35
,88,2023-10-27 12:30:48.90,135,-98,-2048,6,3,14,-189,7,-196,91
,89,2023-10-27 12:30:48.91,145,-94,-2047,5,12,13,-66,125,-191,-29
,90,2023-10-27 12:30:48.92,137,-98,-2054,3,1,9,-198,-4,-194,101
,91,2023-10-27 12:30:48.93,140,-92,-2053,1,13,10,-62,120,-182,-29
,92,2023-10-27 12:30:48.94,140,-96,-2052,-2,9,8,-182,4,-186,89
,93,2023-10-27 12:30:48.95,149,-91,-2053,-3,14,1,-68,130,-198,-31
,94,2023-10-27 12:30:48.96,141,-91,-2054,-3,8,4,-192,11,-203,90
,95,2023-10-27 12:30:48.97,138,-88,-2052,-3,10,-3,-59,133,-192,-37
,96,2023-10-27 12:30:48.98,151,-93,-2062,-1,9,-4,-168,8,-176,80
,97,2023-10-27 12:30:48.99,150,-88,-2061,-1,-1,-6,-54,133,-187,-39
,98,2023-10-27 12:30:49.00,135,-97,-2058,4,5,-7,-182,5,-187,88
,99,2023-10-27 12:30:49.01,144,-99,-2056,6,-3,-8,-71,130,-201,-29
,100,2023-10-27 12:30:49.02,130,-98,-2055,9,-13,-12,-171,11,-182,80
,101,2023-10-27 12:30:49.03,136,-97,-2050,10,-8,-4,-82,127,-209,-22
,102,2023-10-27 12:30:49.04,143,-100,-2052,13,-11,-6,-194,-3,-191,98
,103,2023-10-27 12:30:49.05,134,-101,-2046,14,-5,0,-78,108,-186,-15
,104,2023-10-27 12:30:49.06,127,-98,-2054,14,-13,-1,-176,-6,-170,91
,105,2023-10-27 12:30:49.07,147,-96,-2056,14,-6,1,-67,122,-189,-27
,106,2023-10-27 12:30:49.08,140,-92,-2058,16,-6,4,-172,-8,-164,90
,107,2023-10-27 12:30:49.09,141,-104,-2057,16,-15,4,-74,118,-192,-22
,108,2023-10-27 12:30:49.10,132,-102,-2059,17,-9,10,-179,-15,-164,97
,109,2023-10-27 12:30:49.11,124,-100,-2056,16,-11,7,-100,106,-206,-3
,110,2023-10-27 12:30:49.12,135,-90,-2054,17,-18,9,-189,-8,-181,98
,111,2023-10-27 12:30:49.13,141,-86,-2047,15,-9,4,-76,126,-202,-25
,112,2023-10-27 12:30:49.14,139,-87,-2051,15,-13,3,-154,5,-159,74
,113,2023-10-27 12:30:49.15,141,-83,-2062,15,-17,-8,-82,127,-209,-22
,114,2023-10-27 12:30:49.16,139,-75,-2040,18,-14,-14,-179,-2,-177,90
,115,2023-10-27 12:30:49.17,140,-84,-2065,19,-24,-24,-94,106,-200,-6
,116,2023-10-27 12:30:49.18,145,-60,-2065,20,-33,-42,-157,-8,-149,82
,117,2023-10-27 12:30:49.19,125,-58,-2040,20,-47,-60,-77,114,-191,-18
,118,2023-10-27 12:30:49.20,153,-49,-2081,28,-47,-88,-156,-5,-151,80
,119,2023-10-27 12:30:49.21,134,-24,-2048,29,-63,-119,-80,118,-198,-19
,120,2023-10-27 12:30:49.22,149,-25,-2078,31,-70,-160,-148,4,-152,72
,121,2023-10-27 12:30:49.23,137,1,-2068,38,-86,-205,-78,112,-190,-17
,122,2023-10-27 12:30:49.24,157,7,-2065,47,-108,-255,-138,-10,-128,74
,123,2023-10-27 12:30:49.25,130,40,-2073,43,-119,-318,-66,107,-173,-20
,124,2023-10-27 12:30:49.26,153,32,-2084,40,-134,-377,-130,-6,-124,68
,125,2023-10-27 12:30:49.27,126,36,-2063,47,-163,-441,-70,109,-179,-19
,126,2023-10-27 12:30:49.28,170,17,-2049,33,-166,-493,-124,10,-134,57
,127,2023-10-27 12:30:49.29,150,-9,-2033,19,-165,-551,-69,115,-184,-23
,128,2023-10-27 12:30:49.30,145,-35,-2025,29,-157,-591,-122,1,-123,60
,129,2023-10-27 12:30:49.31,134,-80,-2022,51,-179,-629,-38,115,-153,-38
,130,2023-10-27 12:30:49.32,133,-93,-2046,66,-189,-654,-81,14,-95,33
,131,2023-10-27 12:30:49.33,124,-118,-2067,69,-188,-674,-44,122,-166,-39
,132,2023-10-27 12:30:49.34,115,-133,-2053,68,-195,-692,-93,27,-120,33
,133,2023-10-27 12:30:49.35,118,-150,-2018,68,-191,-705,-57,120,-177,-31
,134,2023-10-27 12:30:49.36,114,-134,-2071,86,-191,-714,-94,19,-113,37
,135,2023-10-27 12:30:49.37,88,-146,-2050,97,-204,-718,-54,112,-166,-29
,136,2023-10-27 12:30:49.38,78,-174,-2060,105,-222,-719,-84,26,-110,29
,137,2023-10-27 12:30:49.39,76,-156,-2082,94,-220,-721,-89,108,-197,-9
,138,2023-10-27 12:30:49.40,64,-148,-2130,69,-208,-728,-110,19,-129,45
,139,2023-10-27 12:30:49.41,64,-145,-2141,26,-204,-730,-76,96,-172,-10
,140,2023-10-27 12:30:49.42,58,-161,-2106,-17,-199,-738,-96,7,-103,44
,141,2023-10-27 12:30:49.43,61,-141,-2129,-51,-187,-750,-30,95,-125,-32
,142,2023-10-27 12:30:49.44,61,-111,-2111,-87,-193,-758,-58,0,-58,29
,143,2023-10-27 12:30:49.45,44,-127,-2065,-104,-181,-775,-3,89,-92,-43
,144,2023-10-27 12:30:49.46,70,-116,-2043,-96,-196,-792,-29,6,-35,11
,145,2023-10-27 12:30:49.47,78,-119,-2029,-96,-199,-809,40,104,-64,-72
,146,2023-10-27 12:30:49.48,72,-140,-2022,-96,-195,-827,16,46,-30,-31
,147,2023-10-27 12:30:49.49,64,-145,-2042,-101,-190,-837,-23,124,-147,-50
,148,2023-10-27 12:30:49.50,68,-139,-2024,-93,-197,-849,-44,55,-99,-5
,149,2023-10-27 12:30:49.51,70,-142,-2026,-79,-193,-862,-13,110,-123,-48
,150,2023-10-27 12:30:49.52,49,-155,-2009,-65,-197,-866,-27,22,-49,2
,151,2023-10-27 12:30:49.53,55,-181,-2022,-59,-199,-867,28,102,-74,-65
,152,2023-10-27 12:30:49.54,54,-190,-1990,-54,-194,-854,14,42,-28,-28
,153,2023-10-27 12:30:49.55,52,-192,-2019,-33,-206,-844,11,108,-97,-59
,154,2023-10-27 12:30:49.56,28,-206,-2011,-32,-192,-820,-5,41,-46,-18
,155,2023-10-27 12:30:49.57,31,-217,-2022,-36,-180,-791,27,103,-76,-65
,156,2023-10-27 12:30:49.58,28,-220,-2017,-25,-183,-761,15,47,-32,-31
,157,2023-10-27 12:30:49.59,18,-214,-2048,-2,-196,-721,-26,89,-115,-31
,158,2023-10-27 12:30:49.60,34,-242,-2007,3,-192,-686,-43,25,-68,9
,159,2023-10-27 12:30:49.61,-7,-217,-2039,-8,-139,-650,-24,85,-109,-30
,160,2023-10-27 12:30:49.62,14,-219,-2031,-5,-136,-613,-8,35,-43,-13
,161,2023-10-27 12:30:49.63,24,-221,-2036,20,-112,-568,-2,82,-84,-40
,162,2023-10-27 12:30:49.64,-1,-229,-2069,30,-107,-521,12,42,-30,-27
,163,2023-10-27 12:30:49.65,0,-227,-2039,7,-71,-479,21,91,-70,-56
,164,2023-10-27 12:30:49.66,13,-239,-2013,17,-55,-432,20,46,-26,-33
,165,2023-10-27 12:30:49.67,-2,-228,-2038,49,-57,-382,-16,77,-93,-30
,166,2023-10-27 12:30:49.68,16,-219,-2018,65,-29,-333,-11,34,-45,-11
,167,2023-10-27 12:30:49.69,21,-219,-2022,56,6,-283,-23,68,-91,-22
,168,2023-10-27 12:30:49.70,-7,-217,-2005,31,42,-240,4,30,-26,-17
,169,2023-10-27 12:30:49.71,10,-200,-2009,27,58,-198,-13,71,-84,-29
,170,2023-10-27 12:30:49.72,4,-197,-2014,39,58,-149,17,42,-25,-29
,171,2023-10-27 12:30:49.73,16,-209,-1969,55,82,-105,11,75,-64,-43
,172,2023-10-27 12:30:49.74,23,-222,-1999,65,105,-61,42,54,-12,-48
,173,2023-10-27 12:30:49.75,22,-225,-2006,61,139,-16,-6,68,-74,-31
,174,2023-10-27 12:30:49.76,26,-243,-1994,73,166,30,6,40,-34,-23
,175,2023-10-27 12:30:49.77,21,-241,-2003,92,184,77,-55,57,-112,-1
,176,2023-10-27 12:30:49.78,34,-238,-2018,115,208,128,-2,50,-52,-24
,177,2023-10-27 12:30:49.79,34,-222,-2022,128,189,178,-17,66,-83,-24
,178,2023-10-27 12:30:49.80,25,-222,-2020,135,214,223,30,54,-24,-42
,179,2023-10-27 12:30:49.81,36,-219,-2040,143,215,275,-43,65,-108,-11
,180,2023-10-27 12:30:49.82,26,-210,-2029,137,212,318,3,53,-50,-28
,181,2023-10-27 12:30:49.83,33,-193,-2027,125,246,370,-35,62,-97,-13
,182,2023-10-27 12:30:49.84,41,-202,-2042,124,242,413,44,71,-27,-57
,183,2023-10-27 12:30:49.85,35,-183,-2066,119,253,455,-7,61,-68,-27
,184,2023-10-27 12:30:49.86,42,-180,-2077,97,256,503,41,56,-15,-48
,185,2023-10-27 12:30:49.87,45,-164,-2057,72,260,539,-35,57,-92,-11
,186,2023-10-27 12:30:49.88,76,-165,-2048,56,283,577,16,61,-45,-38
,187,2023-10-27 12:30:49.89,84,-157,-2070,48,284,606,-56,52,-108,2
,188,2023-10-27 12:30:49.90,88,-145,-2082,45,298,641,16,62,-46,-39
,189,2023-10-27 12:30:49.91,93,-155,-2060,49,309,680,-72,44,-116,14
,190,2023-10-27 12:30:49.92,79,-125,-2056,55,309,703,5,53,-48,-29
,191,2023-10-27 12:30:49.93,79,-99,-2085,57,294,736,-74,35,-109,19
,192,2023-10-27 12:30:49.94,97,-90,-2066,38,280,756,8,66,-58,-37
,193,2023-10-27 12:30:49.95,108,-83,-2039,30,280,777,-96,52,-148,22
,194,2023-10-27 12:30:49.96,99,-60,-2089,25,272,792,-13,73,-86,-30
,195,2023-10-27 12:30:49.97,108,-5,-2110,6,249,801,-114,49,-163,32
,196,2023-10-27 12:30:49.98,126,33,-2113,-22,246,800,-10,72,-82,-31
,197,2023-10-27 12:30:49.99,113,30,-2091,-49,214,790,-87,43,-130,22
,198,2023-10-27 12:30:50.00,116,52,-2112,-74,187,779,11,68,-57,-39
,199,2023-10-27 12:30:50.01,105,30,-2112,-93,137,766,-79,33,-112,23
,200,2023-10-27 12:30:50.02,111,34,-2116,-109,107,747,-4,56,-60,-26
,201,2023-10-27 12:30:50.03,129,23,-2103,-114,70,733,-128,22,-150,53
,202,2023-10-27 12:30:50.04,117,32,-2114,-106,41,710,-23,55,-78,-16
,203,2023-10-27 12:30:50.05,98,42,-2107,-107,16,684,-106,16,-122,45
,204,2023-10-27 12:30:50.06,134,43,-2089,-105,-25,652,18,61,-43,-39
,205,2023-10-27 12:30:50.07,124,69,-2111,-91,-44,614,-70,25,-95,22
,206,2023-10-27 12:30:50.08,115,66,-2102,-81,-67,576,31,67,-36,-49
,207,2023-10-27 12:30:50.09,111,69,-2099,-66,-83,537,-79,28,-107,25
,208,2023-10-27 12:30:50.10,108,58,-2097,-57,-99,497,15,72,-57,-43
,209,2023-10-27 12:30:50.11,99,51,-2092,-46,-112,463,-105,23,-128,41
,210,2023-10-27 12:30:50.12,97,44,-2098,-38,-127,432,8,79,-71,-43
,211,2023-10-27 12:30:50.13,88,47,-2095,-34,-128,403,-103,28,-131,37
,212,2023-10-27 12:30:50.14,86,35,-2093,-27,-125,376,17,79,-62,-48
,213,2023-10-27 12:30:50.15,78,22,-2103,-28,-113,353,-86,26,-112,30
,214,2023-10-27 12:30:50.16,64,6,-2094,-26,-109,332,36,84,-48,-60
,215,2023-10-27 12:30:50.17,63,3,-2100,-19,-117,313,-78,26,-104,26
,216,2023-10-27 12:30:50.18,60,12,-2089,-21,-106,300,18,83,-65,-50
,217,2023-10-27 12:30:50.19,45,7,-2060,-33,-92,284,-132,16,-148,58
,218,2023-10-27 12:30:50.20,44,16,-2058,-44,-63,269,-16,76,-92,-30
,219,2023-10-27 12:30:50.21,50,18,-2063,-54,-46,252,-127,13,-140,57
,220,2023-10-27 12:30:50.22,65,35,-2061,-63,-23,235,19,90,-71,-54
,221,2023-10-27 12:30:50.23,55,59,-2039,-81,11,211,-92,22,-114,35
,222,2023-10-27 12:30:50.24,75,49,-1988,-99,56,183,23,92,-69,-57
,223,2023-10-27 12:30:50.25,80,32,-1937,-101,99,159,-109,32,-141,38
,224,2023-10-27 12:30:50.26,44,-5,-1922,-98,129,131,20,98,-78,-59
,225,2023-10-27 12:30:50.27,42,-15,-1963,-84,141,117,-96,24,-120,36
,226,2023-10-27 12:30:50.28,35,-41,-1998,-64,144,107,58,110,-52,-84
,227,2023-10-27 12:30:50.29,28,-33,-2044,-43,127,99,-64,37,-101,13
,228,2023-10-27 12:30:50.30,52,-19,-2048,-17,105,95,44,111,-67,-77
,229,2023-10-27 12:30:50.31,71,-10,-2078,19,56,84,-119,11,-130,54
,230,2023-10-27 12:30:50.32,43,-5,-2059,43,51,80,17,94,-77,-55
,231,2023-10-27 12:30:50.33,56,-20,-2010,70,27,69,-107,6,-113,50
,232,2023-10-27 12:30:50.34,57,-33,-2054,105,-5,61,41,96,-55,-68
,233,2023-10-27 12:30:50.35,25,-58,-2090,115,-25,53,-97,13,-110,42
,234,2023-10-27 12:30:50.36,40,-63,-2106,123,-39,47,7,101,-94,-54
,235,2023-10-27 12:30:50.37,38,-64,-2099,133,-47,44,-143,9,-152,67
,236,2023-10-27 12:30:50.38,19,-60,-2081,155,-72,40,20,105,-85,-62
,237,2023-10-27 12:30:50.39,8,-68,-2138,162,-100,30,-94,14,-108,40
,238,2023-10-27 12:30:50.40,24,-69,-2127,143,-98,29,41,104,-63,-72
,239,2023-10-27 12:30:50.41,12,-74,-2116,113,-91,22,-107,16,-123,45
,240,2023-10-27 12:30:50.42,12,-86,-2118,94,-104,14,50,112,-62,-81
,241,2023-10-27 12:30:50.43,8,-71,-2135,93,-127,13,-70,10,-80,30
,242,2023-10-27 12:30:50.44,4,-92,-2127,73,-144,13,51,108,-57,-79
,243,2023-10-27 12:30:50.45,-2,-101,-2097,41,-152,7,-116,4,-120,56
,244,2023-10-27 12:30:50.46,-6,-112,-2094,5,-159,9,43,104,-61,-73
,245,2023-10-27 12:30:50.47,-12,-114,-2110,-23,-167,3,-74,8,-82,33
,246,2023-10-27 12:30:50.48,-3,-106,-2108,-49,-183,8,82,116,-34,-99
,247,2023-10-27 12:30:50.49,-13,-99,-2123,-86,-211,7,-66,6,-72,30
,248,2023-10-27 12:30:50.50,-28,-79,-2114,-135,-228,8,62,107,-45,-84
,249,2023-10-27 12:30:50.51,-20,-77,-2097,-190,-231,7,-96,-7,-89,51
,250,2023-10-27 12:30:50.52,-17,-51,-2090,-243,-232,0,65,100,-35,-82
,251,2023-10-27 12:30:50.53,-21,-34,-2071,-283,-241,-7,-53,8,-61,22
,252,2023-10-27 12:30:50.54,-11,-24,-2074,-312,-252,-24,83,121,-38,-102
,253,2023-10-27 12:30:50.55,-10,-40,-2054,-339,-249,-36,-71,13,-84,29
,254,2023-10-27 12:30:50.56,-1,-32,-2050,-353,-241,-51,87,121,-34,-104
,255,2023-10-27 12:30:50.57,3,-45,-2040,-353,-225,-65,-53,11,-64,21
,256,2023-10-27 12:30:50.58,7,-37,-2017,-341,-212,-83,98,119,-21,-108
,257,2023-10-27 12:30:50.59,14,-28,-1996,-316,-193,-104,-46,8,-54,19
,258,2023-10-27 12:30:50.60,18,-50,-1994,-282,-158,-127,96,122,-26,-109
,259,2023-10-27 12:30:50.61,17,-44,-1969,-245,-129,-164,-56,11,-67,22
,260,2023-10-27 12:30:50.62,45,-51,-1985,-182,-77,-194,80,116,-36,-98
,261,2023-10-27 12:30:50.63,47,-51,-2003,-109,-26,-232,-68,1,-69,33
,262,2023-10-27 12:30:50.64,46,-75,-1987,-26,9,-269,57,113,-56,-85
,263,2023-10-27 12:30:50.65,36,-75,-1981,63,44,-310,-87,-4,-83,45
,264,2023-10-27 12:30:50.66,37,-85,-1980,153,62,-339,57,128,-71,-92
,265,2023-10-27 12:30:50.67,42,-96,-1987,237,82,-370,-92,0,-92,46
,266,2023-10-27 12:30:50.68,47,-109,-1981,324,94,-394,69,123,-54,-96
,267,2023-10-27 12:30:50.69,53,-101,-1985,411,124,-422,-58,8,-66,25
,268,2023-10-27 12:30:50.70,63,-107,-1974,491,136,-436,115,144,-29,-129
,269,2023-10-27 12:30:50.71,66,-123,-1967,547,193,-452,-15,22,-37,-3
,270,2023-10-27 12:30:50.72,61,-136,-1992,590,210,-459,105,142,-37,-123
,271,2023-10-27 12:30:50.73,59,-166,-1998,624,237,-462,-52,17,-69,17
,272,2023-10-27 12:30:50.74,55,-168,-1990,677,253,-462,79,136,-57,-107
,273,2023-10-27 12:30:50.75,72,-210,-1995,726,269,-451,-62,14,-76,24
,274,2023-10-27 12:30:50.76,92,-253,-1986,762,294,-439,68,137,-69,-102
,275,2023-10-27 12:30:50.77,79,-245,-1997,792,345,-427,-67,10,-77,28
,276,2023-10-27 12:30:50.78,91,-261,-2028,801,359,-405,71,137,-66,-104
,277,2023-10-27 12:30:50.79,112,-251,-2014,804,358,-387,-59,10,-69,24
,278,2023-10-27 12:30:50.80,115,-260,-2009,798,380,-370,56,131,-75,-93
,279,2023-10-27 12:30:50.81,139,-284,-2019,784,382,-361,-81,8,-89,36
,280,2023-10-27 12:30:50.82,174,-327,-2013,768,394,-346,35,129,-94,-82
,281,2023-10-27 12:30:50.83,190,-367,-1986,776,409,-324,-92,0,-92,46
,282,2023-10-27 12:30:50.84,167,-392,-1977,805,437,-314,5,119,-114,-62
,283,2023-10-27 12:30:50.85,162,-382,-2010,824,451,-292,-121,-8,-113,64
,284,2023-10-27 12:30:50.86,185,-431,-2027,805,445,-275,-15,110,-125,-47
,285,2023-10-27 12:30:50.87,212,-417,-1994,783,443,-246,-115,-12,-103,63
,286,2023-10-27 12:30:50.88,223,-427,-1990,763,463,-230,11,115,-104,-63
,287,2023-10-27 12:30:50.89,232,-470,-1999,746,470,-210,-91,-6,-85,48
,288,2023-10-27 12:30:50.90,257,-507,-1976,730,496,-179,-36,102,-138,-33
,289,2023-10-27 12:30:50.91,242,-494,-1976,752,503,-158,-162,-20,-142,91
,290,2023-10-27 12:30:50.92,226,-462,-2002,753,521,-132,-371,100,-471,135
,291,2023-10-27 12:30:50.93,252,-516,-2022,724,481,-105,-404,-11,-393,207
,292,2023-10-27 12:30:50.94,267,-542,-2000,682,487,-79,-431,112,-543,159
,293,2023-10-27 12:30:50.95,291,-560,-1974,668,471,-64,-341,-5,-336,173
,294,2023-10-27 12:30:50.96,281,-537,-1959,654,485,-37,-280,106,-386,87
,295,2023-10-27 12:30:50.97,279,-568,-2006,624,464,-10,-222,-7,-215,114
,296,2023-10-27 12:30:50.98,307,-610,-1989,591,448,12,-224,113,-337,55
,297,2023-10-27 12:30:50.99,305,-563,-1968,580,446,36,-207,-2,-205,104
,298,2023-10-27 12:30:51.00,319,-533,-1984,558,425,47,-211,113,-324,49
,299,2023-10-27 12:30:51.01,316,-586,-1995,497,394,63,-184,-1,-183,92
,300,2023-10-27 12:30:51.02,306,-576,-2015,434,361,83,-189,107,-296,41
,301,2023-10-27 12:30:51.03,313,-554,-2033,359,325,94,-163,1,-164,81
,302,2023-10-27 12:30:51.04,314,-561,-2040,278,286,103,-215,106,-321,54
,303,2023-10-27 12:30:51.05,328,-583,-2044,199,224,114,-190,-7,-183,98
,304,2023-10-27 12:30:51.06,318,-567,-2048,128,191,124,-216,99,-315,58
,305,2023-10-27 12:30:51.07,333,-554,-2060,37,144,126,-167,5,-172,81
,306,2023-10-27 12:30:51.08,322,-578,-2041,-66,111,133,-217,91,-308,63
,307,2023-10-27 12:30:51.09,254,-539,-2019,-151,70,131,-168,-9,-159,88
,308,2023-10-27 12:30:51.10,271,-536,-2090,-256,-16,126,-207,97,-304,55
,309,2023-10-27 12:30:51.11,258,-498,-2069,-352,-107,143,-160,6,-166,77
,310,2023-10-27 12:30:51.12,263,-495,-2095,-420,-172,139,-209,104,-313,52
,311,2023-10-27 12:30:51.13,291,-542,-2093,-463,-216,123,-160,0,-160,80
,312,2023-10-27 12:30:51.14,345,-546,-1987,-444,-229,130,-224,91,-315,66
,313,2023-10-27 12:30:51.15,283,-530,-1910,-365,-221,118,-163,-3,-160,83
,314,2023-10-27 12:30:51.16,251,-465,-2060,-380,-261,106,-235,77,-312,79
,315,2023-10-27 12:30:51.17,269,-448,-2065,-557,-395,115,-163,5,-168,79
,316,2023-10-27 12:30:51.18,247,-486,-2100,-607,-418,128,-253,87,-340,83
,317,2023-10-27 12:30:51.19,244,-479,-2121,-673,-462,134,-169,6,-175,81
,318,2023-10-27 12:30:51.20,292,-537,-2059,-749,-493,152,-231,93,-324,69
,319,2023-10-27 12:30:51.21,383,-593,-1891,-763,-479,152,-142,12,-154,65
,320,2023-10-27 12:30:51.22,426,-665,-1789,-653,-377,120,-218,91,-309,63
,321,2023-10-27 12:30:51.23,319,-650,-1740,-464,-238,108,-131,17,-148,57
,322,2023-10-27 12:30:51.24,151,-255,-1956,-377,-104,144,-224,87,-311,68
,323,2023-10-27 12:30:51.25,35,-228,-2167,-384,-129,127,-133,17,-150,58
,324,2023-10-27 12:30:51.26,184,-299,-2022,-313,-299,75,-240,90,-330,75
,325,2023-10-27 12:30:51.27,255,-329,-1852,-237,-274,98,-146,22,-168,62
,326,2023-10-27 12:30:51.28,225,-394,-1906,-227,-130,108,-244,82,-326,81
,327,2023-10-27 12:30:51.29,200,-346,-1991,-224,-48,59,-138,17,-155,60
,328,2023-10-27 12:30:51.30,183,-381,-2031,-196,-32,60,-253,81,-334,86
,329,2023-10-27 12:30:51.31,179,-380,-2016,-134,-66,68,-136,23,-159,56
,330,2023-10-27 12:30:51.32,228,-396,-2009,-114,-66,83,-234,84,-318,75
,331,2023-10-27 12:30:51.33,164,-330,-1970,-91,-12,73,-119,35,-154,42
,332,2023-10-27 12:30:51.34,188,-322,-2001,-82,22,76,-234,84,-318,75
,333,2023-10-27 12:30:51.35,160,-348,-2007,-105,25,82,-115,33,-148,41
,334,2023-10-27 12:30:51.36,181,-349,-2020,-116,19,95,-229,90,-319,69
,335,2023-10-27 12:30:51.37,187,-333,-2017,-123,15,107,-113,44,-157,34
,336,2023-10-27 12:30:51.38,185,-361,-2025,-137,35,119,-235,92,-327,71
,337,2023-10-27 12:30:51.39,181,-361,-2025,-164,50,133,-113,54,-167,29
,338,2023-10-27 12:30:51.40,187,-350,-2023,-186,48,154,-245,92,-337,76
,339,2023-10-27 12:30:51.41,174,-331,-2027,-205,52,171,-113,51,-164,31
,340,2023-10-27 12:30:51.42,189,-341,-2021,-219,52,187,-243,93,-336,75
,341,2023-10-27 12:30:51.43,200,-336,-2020,-235,56,205,-96,54,-150,21
,342,2023-10-27 12:30:51.44,186,-325,-2026,-251,52,216,-210,91,-301,59
,343,2023-10-27 12:30:51.45,192,-321,-2036,-256,52,230,-80,68,-148,6
,344,2023-10-27 12:30:51.46,186,-304,-2015,-267,48,237,-232,99,-331,66
,345,2023-10-27 12:30:51.47,195,-292,-2026,-273,42,240,-91,73,-164,9
,346,2023-10-27 12:30:51.48,184,-282,-2062,-273,41,245,-231,102,-333,64
,347,2023-10-27 12:30:51.49,196,-288,-2057,-267,22,249,-82,66,-148,8
,348,2023-10-27 12:30:51.50,190,-270,-2055,-263,21,252,-216,90,-306,63
,349,2023-10-27 12:30:51.51,202,-241,-2056,-255,16,251,-85,70,-155,7
,350,2023-10-27 12:30:51.52,200,-254,-2046,-244,15,246,-261,84,-345,88
,351,2023-10-27 12:30:51.53,201,-235,-2042,-239,13,248,-103,71,-174,16
,352,2023-10-27 12:30:51.54,191,-218,-2052,-232,16,242,-244,83,-327,80
,353,2023-10-27 12:30:51.55,200,-220,-2059,-226,9,240,-79,71,-150,4
,354,2023-10-27 12:30:51.56,189,-216,-2052,-216,10,235,-229,89,-318,70
,355,2023-10-27 12:30:51.57,195,-206,-2034,-204,2,229,-84,70,-154,7
,356,2023-10-27 12:30:51.58,182,-226,-2040,-181,-9,226,-240,77,-317,81
,357,2023-10-27 12:30:51.59,201,-212,-2039,-168,-15,214,-86,75,-161,5
,358,2023-10-27 12:30:51.60,194,-214,-2053,-152,-20,211,-256,78,-334,89
,359,2023-10-27 12:30:51.61,197,-197,-2033,-141,-10,200,-87,73,-160,7
,360,2023-10-27 12:30:51.62,195,-206,-2058,-127,-8,191,-234,63,-297,85
,361,2023-10-27 12:30:51.63,171,-202,-2047,-111,-16,181,-74,68,-142,3
,362,2023-10-27 12:30:51.64,203,-210,-2044,-102,-18,171,-256,64,-320,96
,363,2023-10-27 12:30:51.65,212,-226,-2030,-94,-2,162,-77,85,-162,-4
,364,2023-10-27 12:30:51.66,219,-212,-2017,-71,13,151,-232,75,-307,78
,365,2023-10-27 12:30:51.67,223,-223,-2025,-49,35,145,-68,84,-152,-8
,366,2023-10-27 12:30:51.68,222,-233,-2016,-41,47,142,-247,68,-315,89
,367,2023-10-27 12:30:51.69,216,-229,-1992,-33,78,136,-65,83,-148,-9
,368,2023-10-27 12:30:51.70,212,-267,-2012,-25,113,139,-227,61,-288,83
,369,2023-10-27 12:30:51.71,199,-261,-2021,-7,124,146,-52,92,-144,-20
,370,2023-10-27 12:30:51.72,190,-265,-2019,10,119,157,-235,75,-310,80
,371,2023-10-27 12:30:51.73,193,-258,-2026,22,123,173,-73,104,-177,-15
,372,2023-10-27 12:30:51.74,171,-258,-2039,22,125,184,-252,80,-332,86
,373,2023-10-27 12:30:51.75,183,-248,-2024,16,119,192,-69,107,-176,-19
,374,2023-10-27 12:30:51.76,192,-255,-2032,11,118,201,-240,76,-316,82
,375,2023-10-27 12:30:51.77,197,-241,-2036,-2,120,211,-53,117,-170,-32
,376,2023-10-27 12:30:51.78,200,-230,-2040,-14,106,212,-231,89,-320,71
,377,2023-10-27 12:30:51.79,204,-218,-2048,-23,102,210,-76,123,-199,-23
,378,2023-10-27 12:30:51.80,218,-213,-2047,-34,96,206,-269,87,-356,91
,379,2023-10-27 12:30:51.81,225,-202,-2048,-52,101,197,-93,115,-208,-11
,380,2023-10-27 12:30:51.82,229,-216,-2062,-66,105,184,-266,62,-328,102
,381,2023-10-27 12:30:51.83,230,-204,-2051,-77,105,169,-59,101,-160,-21
,382,2023-10-27 12:30:51.84,232,-219,-2058,-76,102,165,-232,66,-298,83
,383,2023-10-27 12:30:51.85,249,-232,-2036,-65,89,157,-52,117,-169,-32
,384,2023-10-27 12:30:51.86,242,-217,-2035,-53,93,147,-236,73,-309,81
,385,2023-10-27 12:30:51.87,245,-235,-2025,-38,103,143,-72,115,-187,-21
,386,2023-10-27 12:30:51.88,243,-230,-2025,-23,93,130,-262,57,-319,102
,387,2023-10-27 12:30:51.89,260,-232,-2037,-2,89,121,-68,113,-181,-22
,388,2023-10-27 12:30:51.90,256,-225,-2027,15,93,112,-246,51,-297,97
,389,2023-10-27 12:30:51.91,249,-214,-2029,33,91,96,-65,109,-174,-22
,390,2023-10-27 12:30:51.92,279,-236,-2028,48,104,84,-242,60,-302,91
,391,2023-10-27 12:30:51.93,254,-229,-2038,74,104,72,-66,122,-188,-28
,392,2023-10-27 12:30:51.94,270,-244,-2032,96,100,58,-248,60,-308,94
,393,2023-10-27 12:30:51.95,269,-217,-2039,113,100,48,-66,117,-183,-25
,394,2023-10-27 12:30:51.96,269,-238,-2017,121,91,30,-250,58,-308,96
,395,2023-10-27 12:30:51.97,267,-237,-2018,129,115,16,-81,121,-202,-20
,396,2023-10-27 12:30:51.98,259,-227,-2030,129,118,-5,-271,43,-314,114
,397,2023-10-27 12:30:51.99,246,-225,-2032,141,95,-26,-78,122,-200,-22
,398,2023-10-27 12:30:52.00,253,-245,-2033,153,76,-47,-250,38,-288,106
,399,2023-10-27 12:30:52.01,233,-250,-2047,165,69,-63,-69,116,-185,-23
,400,2023-10-27 12:30:52.02,240,-245,-2056,170,51,-74,-259,40,-299,109
,401,2023-10-27 12:30:52.03,258,-247,-2049,167,32,-96,-83,119,-202,-18
,402,2023-10-27 12:30:52.04,257,-262,-2037,175,21,-110,-258,47,-305,105
,403,2023-10-27 12:30:52.05,245,-271,-2039,197,18,-137,-78,126,-204,-24
,404,2023-10-27 12:30:52.06,261,-269,-2048,221,24,-149,-253,37,-290,108
,405,2023-10-27 12:30:52.07,261,-275,-2041,237,-4,-165,-76,118,-194,-21
,406,2023-10-27 12:30:52.08,265,-283,-2026,246,-6,-175,-256,41,-297,107
,407,2023-10-27 12:30:52.09,262,-284,-2030,254,-23,-185,-95,120,-215,-12
,408,2023-10-27 12:30:52.10,261,-289,-2057,263,-37,-192,-269,29,-298,120
,409,2023-10-27 12:30:52.11,251,-290,-2058,265,-50,-194,-86,122,-208,-18
,410,2023-10-27 12:30:52.12,240,-304,-2052,252,-80,-198,-252,37,-289,107
,411,2023-10-27 12:30:52.13,220,-305,-2032,235,-90,-200,-92,127,-219,-17
,412,2023-10-27 12:30:52.14,218,-292,-2054,216,-112,-197,-265,33,-298,116
,413,2023-10-27 12:30:52.15,231,-306,-2043,184,-121,-194,-109,117,-226,-4
,414,2023-10-27 12:30:52.16,250,-307,-2029,161,-150,-195,-274,17,-291,128
,415,2023-10-27 12:30:52.17,243,-310,-1975,154,-154,-199,-100,108,-208,-4
,416,2023-10-27 12:30:52.18,249,-290,-1996,161,-152,-197,-260,8,-268,126
,417,2023-10-27 12:30:52.19,254,-289,-1974,158,-152,-207,-123,107,-230,8
,418,2023-10-27 12:30:52.20,253,-335,-1948,162,-141,-217,-285,11,-296,137
,419,2023-10-27 12:30:52.21,261,-337,-1998,175,-138,-224,-127,118,-245,4
,420,2023-10-27 12:30:52.22,245,-357,-2010,180,-112,-216,-276,13,-289,131
,421,2023-10-27 12:30:52.23,250,-366,-2003,190,-99,-215,-116,117,-233,0
,422,2023-10-27 12:30:52.24,259,-365,-2004,214,-73,-204,-261,24,-285,118
,423,2023-10-27 12:30:52.25,280,-382,-1994,241,-62,-191,-124,132,-256,-4
,424,2023-10-27 12:30:52.26,251,-394,-1970,262,-3,-179,-273,23,-296,125
,425,2023-10-27 12:30:52.27,253,-409,-1945,297,44,-171,-144,123,-267,10
,426,2023-10-27 12:30:52.28,259,-377,-1943,330,95,-143,-288,9,-297,139
,427,2023-10-27 12:30:52.29,220,-403,-1925,350,138,-118,-137,110,-247,13
,428,2023-10-27 12:30:52.30,231,-421,-1913,365,170,-89,-262,0,-262,131
,429,2023-10-27 12:30:52.31,243,-407,-1927,382,194,-54,-125,112,-237,6
,430,2023-10-27 12:30:52.32,238,-403,-1955,395,222,-25,-259,7,-266,126
,431,2023-10-27 12:30:52.33,219,-382,-1979,393,257,0,-160,122,-282,19
,432,2023-10-27 12:30:52.34,238,-373,-1984,369,276,13,-291,4,-295,143
,433,2023-10-27 12:30:52.35,248,-375,-1975,357,303,34,-159,109,-268,25
,434,2023-10-27 12:30:52.36,256,-387,-1964,349,333,49,-274,-16,-258,145
,435,2023-10-27 12:30:52.37,265,-412,-1972,339,368,59,-136,112,-248,12
,436,2023-10-27 12:30:52.38,289,-420,-1978,323,388,76,-250,2,-252,124
,437,2023-10-27 12:30:52.39,282,-423,-1989,317,401,86,-164,115,-279,24
,438,2023-10-27 12:30:52.40,282,-436,-1966,305,436,102,-276,-8,-268,142
,439,2023-10-27 12:30:52.41,318,-425,-1977,307,431,112,-169,103,-272,33
,440,2023-10-27 12:30:52.42,313,-422,-2001,315,436,122,-266,-16,-250,141
,441,2023-10-27 12:30:52.43,312,-442,-2009,324,421,129,-173,104,-277,34
,442,2023-10-27 12:30:52.44,332,-439,-1991,313,431,133,-269,-8,-261,138
,443,2023-10-27 12:30:52.45,353,-446,-2013,315,417,139,-170,108,-278,31
,444,2023-10-27 12:30:52.46,344,-457,-2026,305,413,137,-256,-18,-238,137
,445,2023-10-27 12:30:52.47,365,-459,-2047,294,373,146,-181,102,-283,39
,446,2023-10-27 12:30:52.48,358,-458,-2007,278,344,147,-266,-23,-243,144
,447,2023-10-27 12:30:52.49,386,-453,-2025,267,322,149,-168,94,-262,37
,448,2023-10-27 12:30:52.50,397,-465,-2025,254,300,146,-237,-27,-210,132
,449,2023-10-27 12:30:52.51,395,-454,-2046,234,274,139,-187,94,-281,46
,450,2023-10-27 12:30:52.52,399,-443,-2029,209,254,135,-268,-31,-237,149
,451,2023-10-27 12:30:52.53,410,-453,-2006,192,234,122,-215,87,-302,64
,452,2023-10-27 12:30:52.54,396,-453,-2029,170,219,115,-268,-32,-236,150
,453,2023-10-27 12:30:52.55,397,-465,-2041,154,189,108,-190,88,-278,51
,454,2023-10-27 12:30:52.56,396,-470,-2043,140,150,96,-239,-37,-202,138
,455,2023-10-27 12:30:52.57,396,-482,-2027,119,120,91,-205,87,-292,59
,456,2023-10-27 12:30:52.58,397,-476,-2039,103,92,82,-261,-33,-228,147
,457,2023-10-27 12:30:52.59,411,-466,-2022,86,64,71,-214,85,-299,64
,458,2023-10-27 12:30:52.60,409,-475,-2003,73,39,56,-244,-37,-207,140
,459,2023-10-27 12:30:52.61,413,-473,-1984,62,22,46,-204,88,-292,58
,460,2023-10-27 12:30:52.62,405,-480,-1981,50,3,32,-239,-40,-199,139
,461,2023-10-27 12:30:52.63,416,-494,-1974,45,-1,20,-205,68,-273,68
,462,2023-10-27 12:30:52.64,414,-482,-1978,40,-5,7,-231,-52,-179,141
,463,2023-10-27 12:30:52.65,416,-483,-1981,30,-17,-7,-194,75,-269,59
,464,2023-10-27 12:30:52.66,401,-475,-1979,21,-20,-21,-217,-38,-179,127
,465,2023-10-27 12:30:52.67,394,-495,-1982,16,-29,-32,-190,91,-281,49
,466,2023-10-27 12:30:52.68,397,-501,-1980,15,-34,-42,-213,-32,-181,122
,467,2023-10-27 12:30:52.69,406,-499,-1978,16,-38,-49,-220,79,-299,70
,468,2023-10-27 12:30:52.70,403,-484,-1979,14,-43,-58,-224,-43,-181,133
,469,2023-10-27 12:30:52.71,400,-493,-1973,17,-45,-63,-192,77,-269,57
,470,2023-10-27 12:30:52.72,392,-497,-1982,21,-55,-69,-181,-33,-148,107
,471,2023-10-27 12:30:52.73,395,-497,-1980,27,-58,-71,-186,96,-282,45
,472,2023-10-27 12:30:52.74,389,-508,-1966,33,-61,-71,-194,-16,-178,105
,473,2023-10-27 12:30:52.75,370,-508,-1979,43,-64,-76,-210,91,-301,59
,474,2023-10-27 12:30:52.76,379,-491,-1992,46,-70,-76,-203,-29,-174,116
,475,2023-10-27 12:30:52.77,370,-497,-1984,45,-80,-78,-233,80,-313,76
,476,2023-10-27 12:30:52.78,377,-485,-1985,39,-80,-76,-210,-27,-183,118
,477,2023-10-27 12:30:52.79,367,-489,-1998,31,-82,-75,-217,86,-303,65
,478,2023-10-27 12:30:52.80,376,-496,-2004,18,-63,-70,-197,-32,-165,114
,479,2023-10-27 12:30:52.81,378,-490,-1997,12,-61,-70,-234,84,-318,75
,480,2023-10-27 12:30:52.82,386,-491,-2002,11,-48,-57,-205,-28,-177,116
,481,2023-10-27 12:30:52.83,369,-482,-1989,6,-49,-55,-236,80,-316,78
,482,2023-10-27 12:30:52.84,383,-481,-1974,3,-37,-44,-192,-26,-166,109
,483,2023-10-27 12:30:52.85,371,-481,-1963,1,-25,-40,-209,79,-288,65
,484,2023-10-27 12:30:52.86,386,-482,-1966,2,-10,-32,-164,-23,-141,93
,485,2023-10-27 12:30:52.87,385,-480,-1975,2,1,-24,-216,83,-299,66
,486,2023-10-27 12:30:52.88,385,-475,-1977,1,16,-18,-180,-13,-167,96
,487,2023-10-27 12:30:52.89,385,-487,-1991,2,23,-7,-246,81,-327,82
,488,2023-10-27 12:30:52.90,381,-483,-2013,5,27,-5,-188,-18,-170,103
,489,2023-10-27 12:30:52.91,383,-478,-2019,5,22,7,-236,80,-316,78
,490,2023-10-27 12:30:52.92,384,-461,-2021,1,9,9,-172,-15,-157,93
,491,2023-10-27 12:30:52.93,377,-456,-2053,-7,0,16,-231,86,-317,72
,492,2023-10-27 12:30:52.94,382,-453,-2057,-16,-24,13,-174,-5,-169,89
,493,2023-10-27 12:30:52.95,386,-422,-2051,-27,-41,12,-267,82,-349,92
,494,2023-10-27 12:30:52.96,384,-411,-2052,-39,-64,-1,-188,-6,-182,97
,495,2023-10-27 12:30:52.97,379,-411,-2058,-62,-69,-6,-259,73,-332,93
,496,2023-10-27 12:30:52.98,387,-410,-2051,-86,-99,-20,-169,-15,-154,92
,497,2023-10-27 12:30:52.99,381,-396,-2045,-99,-123,-38,-243,66,-309,88
,498,2023-10-27 12:30:53.00,387,-398,-2044,-121,-146,-49,-163,-4,-159,83
,499,2023-10-27 12:30:53.01,372,-397,-2037,-149,-167,-63,-264,80,-344,92
,500,2023-10-27 12:30:53.02,371,-387,-2017,-170,-190,-74,-163,0,-163,81
,501,2023-10-27 12:30:53.03,368,-402,-2013,-187,-217,-92,-241,78,-319,81
,502,2023-10-27 12:30:53.04,358,-404,-2022,-206,-240,-107,-139,1,-140,69
,503,2023-10-27 12:30:53.05,352,-400,-2020,-227,-261,-122,-231,75,-306,78
,504,2023-10-27 12:30:53.06,347,-399,-2014,-246,-289,-129,-133,5,-138,64
,505,2023-10-27 12:30:53.07,327,-411,-2017,-266,-316,-149,-236,70,-306,83
,506,2023-10-27 12:30:53.08,329,-413,-2016,-285,-321,-155,-131,6,-137,62
,507,2023-10-27 12:30:53.09,309,-405,-2028,-303,-347,-173,-243,71,-314,86
,508,2023-10-27 12:30:53.10,323,-394,-2023,-320,-366,-174,-140,7,-147,66
,509,2023-10-27 12:30:53.11,315,-390,-2019,-337,-366,-192,-254,70,-324,92
,510,2023-10-27 12:30:53.12,321,-367,-2021,-357,-374,-202,-144,12,-156,66
,511,2023-10-27 12:30:53.13,294,-351,-2024,-370,-373,-223,-240,75,-315,82
,512,2023-10-27 12:30:53.14,297,-353,-2023,-390,-378,-234,-112,22,-134,45
,513,2023-10-27 12:30:53.15,289,-359,-1990,-410,-369,-254,-220,79,-299,70
,514,2023-10-27 12:30:53.16,278,-369,-1988,-409,-367,-268,-111,25,-136,43
,515,2023-10-27 12:30:53.17,247,-384,-1999,-399,-363,-274,-242,67,-309,87
,516,2023-10-27 12:30:53.18,247,-397,-2017,-382,-378,-283,-118,23,-141,47
,517,2023-10-27 12:30:53.19,237,-397,-2029,-354,-391,-281,-228,71,-299,78
,518,2023-10-27 12:30:53.20,241,-370,-2028,-336,-395,-274,-100,31,-131,34
,519,2023-10-27 12:30:53.21,250,-376,-2007,-322,-393,-271,-240,72,-312,84
,520,2023-10-27 12:30:53.22,237,-374,-1949,-314,-376,-265,-113,36,-149,38
,521,2023-10-27 12:30:53.23,260,-381,-1964,-259,-388,-270,-246,77,-323,84
,522,2023-10-27 12:30:53.24,217,-400,-1975,-196,-367,-243,-102,52,-154,25
,523,2023-10-27 12:30:53.25,216,-400,-2005,-188,-345,-235,-238,81,-319,78
,524,2023-10-27 12:30:53.26,195,-407,-2005,-174,-339,-216,-85,50,-135,17
,525,2023-10-27 12:30:53.27,180,-408,-1947,-134,-325,-198,-204,86,-290,59
,526,2023-10-27 12:30:53.28,190,-402,-2000,-90,-314,-175,-74,64,-138,5
,527,2023-10-27 12:30:53.29,174,-413,-1955,-73,-292,-158,-237,89,-326,74
,528,2023-10-27 12:30:53.30,182,-383,-1974,-60,-289,-141,-97,72,-169,12
,529,2023-10-27 12:30:53.31,176,-401,-1933,-54,-231,-128,-254,84,-338,85
,530,2023-10-27 12:30:53.32,171,-395,-1943,-45,-202,-112,-89,64,-153,12
,531,2023-10-27 12:30:53.33,166,-409,-1935,-38,-152,-89,-221,81,-302,70
,532,2023-10-27 12:30:53.34,139,-390,-1946,-18,-146,-78,-65,74,-139,-4
,533,2023-10-27 12:30:53.35,168,-361,-1977,-2,-142,-58,-227,84,-311,71
