// Data mode  : Full
// Data quality  : High
// Acceleration sensor's range  : 16g
// Gyroscope sensor's range  : 2000dps
//
//ARTIFACT,NUM,DATE,ACC_X,ACC_Y,ACC_Z,GYRO_X,GYRO_Y,GYRO_Z,EOG_L,EOG_R,EOG_H,EOG_V
,1,2023-10-27 12:02:17.57,-24,-79,-2057,2,1,14,-186,-376,190,281
,2,2023-10-27 12:02:17.58,-25,-85,-2051,7,8,19,-139,-316,177,227
,3,2023-10-27 12:02:17.59,-32,-81,-2059,10,3,20,-164,-354,190,259
,4,2023-10-27 12:02:17.60,-25,-75,-2046,9,8,21,-130,-306,176,218
,5,2023-10-27 12:02:17.61,-27,-79,-2057,8,12,20,-152,-337,185,244
,6,2023-10-27 12:02:17.62,-23,-82,-2054,9,7,20,-120,-291,171,205
,7,2023-10-27 12:02:17.63,-29,-77,-2046,13,13,23,-143,-324,181,233
,8,2023-10-27 12:02:17.64,-22,-78,-2051,12,9,18,-113,-285,172,199
,9,2023-10-27 12:02:17.65,-27,-80,-2056,13,9,18,-135,-316,181,225
,10,2023-10-27 12:02:17.66,-22,-81,-2056,17,13,22,-114,-285,171,199
,11,2023-10-27 12:02:17.67,-29,-80,-2055,22,5,20,-135,-314,179,224
,12,2023-10-27 12:02:17.68,-32,-82,-2045,22,6,20,-114,-285,171,199
,13,2023-10-27 12:02:17.69,-33,-86,-2054,20,6,20,-133,-309,176,221
,14,2023-10-27 12:02:17.70,-19,-87,-2052,21,9,22,-116,-289,173,202
,15,2023-10-27 12:02:17.71,-19,-91,-2057,20,11,26,-136,-312,176,224
,16,2023-10-27 12:02:17.72,-22,-92,-2056,19,8,24,-118,-294,176,206
,17,2023-10-27 12:02:17.73,-21,-94,-2053,17,9,29,-133,-313,180,223
,18,2023-10-27 12:02:17.74,-33,-87,-2051,13,9,32,-123,-298,175,210
,19,2023-10-27 12:02:17.75,-19,-89,-2055,10,13,32,-137,-316,179,226
,20,2023-10-27 12:02:17.76,-23,-84,-2064,6,11,32,-126,-304,178,215
,21,2023-10-27 12:02:17.77,-20,-84,-2068,0,13,33,-137,-318,181,227
,22,2023-10-27 12:02:17.78,-22,-87,-2064,-1,13,32,-130,-309,179,219
,23,2023-10-27 12:02:17.79,-16,-80,-2061,-2,4,32,-140,-319,179,229
,24,2023-10-27 12:02:17.80,-30,-89,-2056,-4,-2,34,-137,-311,174,224
,25,2023-10-27 12:02:17.81,-26,-85,-2056,-4,-1,36,-143,-320,177,231
,26,2023-10-27 12:02:17.82,-23,-78,-2044,-4,-2,37,-141,-317,176,229
,27,2023-10-27 12:02:17.83,-19,-85,-2049,-5,-3,33,-146,-321,175,233
,28,2023-10-27 12:02:17.84,-35,-79,-2050,-4,0,38,-143,-317,174,230
,29,2023-10-27 12:02:17.85,-32,-84,-2045,-5,5,36,-144,-320,176,232
,30,2023-10-27 12:02:17.86,-25,-81,-2052,-6,3,37,-146,-319,173,232
,31,2023-10-27 12:02:17.87,-35,-79,-2056,-3,1,37,-144,-319,175,231
,32,2023-10-27 12:02:17.88,-35,-84,-2057,-2,1,36,-150,-324,174,237
,33,2023-10-27 12:02:17.89,-28,-84,-2059,1,4,41,-146,-320,174,233
,34,2023-10-27 12:02:17.90,-21,-76,-2058,2,2,39,-158,-326,168,242
,35,2023-10-27 12:02:17.91,-26,-81,-2054,5,4,42,-146,-317,171,231
,36,2023-10-27 12:02:17.92,-30,-83,-2046,8,4,41,-155,-322,167,238
,37,2023-10-27 12:02:17.93,-31,-78,-2052,10,13,39,-130,-306,176,218
,38,2023-10-27 12:02:17.94,-22,-66,-2055,10,10,34,-154,-326,172,240
,39,2023-10-27 12:02:17.95,-17,-69,-2050,8,14,31,-141,-320,179,230
,40,2023-10-27 12:02:17.96,-26,-76,-2053,10,22,27,-168,-339,171,253
,41,2023-10-27 12:02:17.97,-33,-82,-2056,9,13,24,-140,-313,173,226
,42,2023-10-27 12:02:17.98,-35,-71,-2055,12,11,22,-157,-326,169,241
,43,2023-10-27 12:02:17.99,-22,-81,-2054,9,9,23,-138,-310,172,224
,44,2023-10-27 12:02:18.00,-22,-81,-2049,11,8,22,-162,-330,168,246
,45,2023-10-27 12:02:18.01,-24,-77,-2054,7,14,19,-135,-312,177,223
,46,2023-10-27 12:02:18.02,-21,-80,-2055,3,13,18,-156,-332,176,244
,47,2023-10-27 12:02:18.03,-15,-74,-2059,2,16,17,-119,-310,191,214
,48,2023-10-27 12:02:18.04,-24,-79,-2060,4,12,17,-141,-331,190,236
,49,2023-10-27 12:02:18.05,-17,-74,-2058,1,13,15,-116,-307,191,211
,50,2023-10-27 12:02:18.06,-18,-79,-2055,2,10,17,-143,-331,188,237
,51,2023-10-27 12:02:18.07,-24,-79,-2055,3,11,16,-116,-306,190,211
,52,2023-10-27 12:02:18.08,-25,-82,-2052,4,11,17,-146,-331,185,238
,53,2023-10-27 12:02:18.09,-18,-81,-2056,6,11,18,-122,-304,182,213
,54,2023-10-27 12:02:18.10,-6,-75,-2054,6,8,19,-152,-333,181,242
,55,2023-10-27 12:02:18.11,-17,-81,-2053,9,10,21,-121,-301,180,211
,56,2023-10-27 12:02:18.12,-25,-77,-2053,10,7,19,-152,-335,183,243
,57,2023-10-27 12:02:18.13,-25,-75,-2053,13,2,18,-124,-304,180,214
,58,2023-10-27 12:02:18.14,-18,-73,-2054,15,2,16,-160,-341,181,250
,59,2023-10-27 12:02:18.15,-21,-74,-2047,15,0,17,-127,-302,175,214
,60,2023-10-27 12:02:18.16,-16,-83,-2053,13,4,18,-163,-341,178,252
,61,2023-10-27 12:02:18.17,-20,-81,-2054,13,4,17,-126,-300,174,213
,62,2023-10-27 12:02:18.18,-16,-78,-2057,14,9,19,-167,-345,178,256
,63,2023-10-27 12:02:18.19,-21,-78,-2054,14,5,20,-128,-304,176,216
,64,2023-10-27 12:02:18.20,-26,-81,-2053,15,5,20,-172,-348,176,260
,65,2023-10-27 12:02:18.21,-24,-77,-2051,14,7,21,-128,-301,173,214
,66,2023-10-27 12:02:18.22,-14,-81,-2051,14,10,17,-172,-347,175,259
,67,2023-10-27 12:02:18.23,-19,-82,-2056,13,7,12,-121,-296,175,208
,68,2023-10-27 12:02:18.24,-26,-76,-2052,13,13,16,-163,-346,183,254
,69,2023-10-27 12:02:18.25,-21,-84,-2056,14,9,12,-111,-295,184,203
,70,2023-10-27 12:02:18.26,-23,-75,-2063,14,9,10,-160,-348,188,254
,71,2023-10-27 12:02:18.27,-26,-72,-2054,16,9,8,-108,-296,188,202
,72,2023-10-27 12:02:18.28,-20,-76,-2054,16,9,8,-161,-349,188,255
,73,2023-10-27 12:02:18.29,-23,-79,-2054,19,11,8,-112,-293,181,202
,74,2023-10-27 12:02:18.30,-28,-84,-2045,20,15,5,-168,-349,181,258
,75,2023-10-27 12:02:18.31,-8,-82,-2053,20,12,6,-115,-289,174,202
,76,2023-10-27 12:02:18.32,-24,-85,-2058,17,10,2,-173,-348,175,260
,77,2023-10-27 12:02:18.33,-23,-90,-2056,12,10,4,-116,-293,177,204
,78,2023-10-27 12:02:18.34,-23,-90,-2057,12,15,7,-165,-342,177,253
,79,2023-10-27 12:02:18.35,-13,-85,-2052,9,15,9,-118,-289,171,203
,80,2023-10-27 12:02:18.36,-12,-89,-2055,7,15,11,-176,-351,175,263
,81,2023-10-27 12:02:18.37,-27,-81,-2054,6,16,10,-128,-303,175,215
,82,2023-10-27 12:02:18.38,-13,-81,-2055,4,15,14,-179,-354,175,266
,83,2023-10-27 12:02:18.39,-10,-85,-2058,1,16,13,-126,-294,168,210
,84,2023-10-27 12:02:18.40,-23,-81,-2061,2,16,16,-187,-357,170,272
,85,2023-10-27 12:02:18.41,-20,-87,-2054,6,9,16,-136,-298,162,217
,86,2023-10-27 12:02:18.42,-27,-89,-2057,6,6,14,-216,-366,150,291
,87,2023-10-27 12:02:18.43,-21,-83,-2053,6,6,14,-169,-306,137,237
,88,2023-10-27 12:02:18.44,-11,-84,-2049,9,6,16,-230,-364,134,297
,89,2023-10-27 12:02:18.45,-16,-84,-2053,11,6,23,-165,-293,128,229
,90,2023-10-27 12:02:18.46,-21,-82,-2049,13,6,21,-219,-353,134,286
,91,2023-10-27 12:02:18.47,-22,-85,-2049,13,7,24,-146,-285,139,215
,92,2023-10-27 12:02:18.48,-22,-93,-2055,18,12,26,-206,-349,143,277
,93,2023-10-27 12:02:18.49,-17,-79,-2051,15,15,27,-142,-282,140,212
,94,2023-10-27 12:02:18.50,-22,-75,-2048,14,20,30,-203,-348,145,275
,95,2023-10-27 12:02:18.51,-18,-89,-2049,10,23,28,-134,-279,145,206
,96,2023-10-27 12:02:18.52,-8,-85,-2055,9,23,24,-196,-347,151,271
,97,2023-10-27 12:02:18.53,-18,-78,-2050,13,23,22,-131,-277,146,204
,98,2023-10-27 12:02:18.54,-13,-74,-2057,11,21,18,-196,-350,154,273
,99,2023-10-27 12:02:18.55,-6,-84,-2047,11,22,17,-129,-280,151,204
,100,2023-10-27 12:02:18.56,-4,-76,-2069,9,20,13,-193,-350,157,271
,101,2023-10-27 12:02:18.57,-17,-81,-2075,11,19,12,-126,-279,153,202
,102,2023-10-27 12:02:18.58,-10,-77,-2068,9,16,14,-192,-352,160,272
,103,2023-10-27 12:02:18.59,-10,-84,-2058,7,8,12,-126,-279,153,202
,104,2023-10-27 12:02:18.60,-13,-82,-2059,8,5,11,-190,-353,163,271
,105,2023-10-27 12:02:18.61,-7,-78,-2049,9,3,12,-120,-278,158,199
,106,2023-10-27 12:02:18.62,-6,-77,-2043,7,3,15,-191,-355,164,273
,107,2023-10-27 12:02:18.63,-3,-81,-2039,8,4,15,-120,-282,162,201
,108,2023-10-27 12:02:18.64,-11,-82,-2042,9,7,17,-191,-356,165,273
,109,2023-10-27 12:02:18.65,-16,-82,-2055,10,5,17,-124,-280,156,202
,110,2023-10-27 12:02:18.66,-17,-91,-2056,11,10,20,-195,-360,165,277
,111,2023-10-27 12:02:18.67,-6,-86,-2059,12,10,23,-126,-285,159,205
,112,2023-10-27 12:02:18.68,-14,-86,-2055,14,9,29,-192,-361,169,276
,113,2023-10-27 12:02:18.69,-17,-91,-2064,18,7,34,-123,-284,161,203
,114,2023-10-27 12:02:18.70,-12,-90,-2058,18,9,38,-189,-360,171,274
,115,2023-10-27 12:02:18.71,-11,-94,-2060,17,11,37,-122,-283,161,202
,116,2023-10-27 12:02:18.72,-4,-89,-2059,14,6,39,-191,-360,169,275
,117,2023-10-27 12:02:18.73,3,-84,-2047,12,11,37,-121,-283,162,202
,118,2023-10-27 12:02:18.74,-3,-86,-2054,7,12,39,-191,-362,171,276
,119,2023-10-27 12:02:18.75,-6,-89,-2057,3,7,37,-114,-278,164,196
,120,2023-10-27 12:02:18.76,5,-94,-2054,0,12,34,-193,-363,170,278
,121,2023-10-27 12:02:18.77,-1,-90,-2052,0,14,34,-125,-284,159,204
,122,2023-10-27 12:02:18.78,-8,-91,-2055,-4,15,35,-202,-371,169,286
,123,2023-10-27 12:02:18.79,-2,-86,-2055,-6,14,34,-127,-285,158,206
,124,2023-10-27 12:02:18.80,0,-83,-2053,-8,9,30,-196,-362,166,279
,125,2023-10-27 12:02:18.81,3,-89,-2059,-13,9,28,-134,-288,154,211
,126,2023-10-27 12:02:18.82,-4,-86,-2056,-13,2,22,-198,-363,165,280
,127,2023-10-27 12:02:18.83,-14,-82,-2058,-8,5,23,-128,-285,157,206
,128,2023-10-27 12:02:18.84,-17,-86,-2062,-7,-1,23,-196,-366,170,281
,129,2023-10-27 12:02:18.85,-2,-89,-2064,-6,-8,22,-129,-287,158,208
,130,2023-10-27 12:02:18.86,3,-83,-2055,-7,-6,22,-194,-366,172,280
,131,2023-10-27 12:02:18.87,-10,-80,-2056,-6,-8,23,-128,-285,157,206
,132,2023-10-27 12:02:18.88,-11,-79,-2049,-6,-4,25,-195,-363,168,279
,133,2023-10-27 12:02:18.89,-7,-83,-2049,-5,-1,23,-125,-283,158,204
,134,2023-10-27 12:02:18.90,-11,-70,-2053,-4,-4,19,-192,-365,173,278
,135,2023-10-27 12:02:18.91,-16,-76,-2048,-3,1,22,-126,-286,160,206
,136,2023-10-27 12:02:18.92,-24,-71,-2062,-7,-4,17,-195,-367,172,281
,137,2023-10-27 12:02:18.93,-13,-75,-2059,-6,-3,19,-127,-287,160,207
,138,2023-10-27 12:02:18.94,-22,-75,-2053,-8,-4,20,-191,-365,174,278
,139,2023-10-27 12:02:18.95,-16,-76,-2057,-10,-3,18,-125,-286,161,205
,140,2023-10-27 12:02:18.96,-6,-72,-2055,-7,0,20,-193,-369,176,281
,141,2023-10-27 12:02:18.97,-20,-76,-2055,-6,5,21,-128,-290,162,209
,142,2023-10-27 12:02:18.98,-15,-69,-2056,-4,8,23,-193,-367,174,280
,143,2023-10-27 12:02:18.99,-20,-71,-2057,-6,8,25,-124,-286,162,205
,144,2023-10-27 12:02:19.00,-5,-74,-2058,-1,7,22,-188,-366,178,277
,145,2023-10-27 12:02:19.01,-19,-74,-2055,3,9,22,-125,-288,163,206
,146,2023-10-27 12:02:19.02,-14,-65,-2059,7,8,23,-191,-365,174,278
,147,2023-10-27 12:02:19.03,-13,-59,-2066,11,2,21,-125,-288,163,206
,148,2023-10-27 12:02:19.04,-4,-82,-2062,18,-2,22,-186,-367,181,276
,149,2023-10-27 12:02:19.05,-6,-75,-2067,30,-7,22,-128,-293,165,210
,150,2023-10-27 12:02:19.06,-11,-70,-2078,39,-8,25,-193,-370,177,281
,151,2023-10-27 12:02:19.07,-16,-69,-2090,49,-6,31,-127,-294,167,210
,152,2023-10-27 12:02:19.08,-16,-66,-2092,59,-16,36,-187,-365,178,276
,153,2023-10-27 12:02:19.09,-7,-84,-2075,75,-13,49,-124,-290,166,207
,154,2023-10-27 12:02:19.10,-1,-88,-2065,95,6,64,-185,-367,182,276
,155,2023-10-27 12:02:19.11,-3,-95,-2048,108,45,70,-125,-294,169,209
,156,2023-10-27 12:02:19.12,14,-92,-2028,130,84,76,-186,-366,180,276
,157,2023-10-27 12:02:19.13,13,-105,-2043,165,115,87,-127,-294,167,210
,158,2023-10-27 12:02:19.14,24,-93,-2050,206,139,91,-184,-361,177,272
,159,2023-10-27 12:02:19.15,16,-105,-2057,237,151,94,-125,-292,167,208
,160,2023-10-27 12:02:19.16,25,-126,-2066,258,159,102,-176,-353,177,264
,161,2023-10-27 12:02:19.17,40,-158,-2057,282,162,103,-126,-291,165,208
,162,2023-10-27 12:02:19.18,26,-188,-2023,316,171,114,-184,-360,176,272
,163,2023-10-27 12:02:19.19,28,-169,-1978,353,178,116,-138,-306,168,222
,164,2023-10-27 12:02:19.20,33,-219,-2013,379,191,110,-188,-363,175,275
,165,2023-10-27 12:02:19.21,55,-216,-1985,384,206,122,-132,-295,163,213
,166,2023-10-27 12:02:19.22,50,-207,-1999,391,214,127,-189,-362,173,275
,167,2023-10-27 12:02:19.23,56,-200,-2017,371,219,127,-132,-291,159,211
,168,2023-10-27 12:02:19.24,49,-176,-2012,337,218,127,-182,-351,169,266
,169,2023-10-27 12:02:19.25,64,-188,-2033,315,192,119,-132,-290,158,211
,170,2023-10-27 12:02:19.26,44,-186,-2052,292,156,116,-179,-349,170,264
,171,2023-10-27 12:02:19.27,38,-169,-2090,259,114,104,-132,-287,155,209
,172,2023-10-27 12:02:19.28,44,-161,-2097,218,80,98,-176,-343,167,259
,173,2023-10-27 12:02:19.29,40,-153,-2099,165,56,86,-134,-285,151,209
,174,2023-10-27 12:02:19.30,41,-148,-2116,109,34,79,-177,-340,163,258
,175,2023-10-27 12:02:19.31,46,-159,-2085,74,12,73,-134,-287,153,210
,176,2023-10-27 12:02:19.32,35,-141,-2083,50,-4,65,-178,-343,165,260
,177,2023-10-27 12:02:19.33,6,-119,-2116,33,-24,54,-146,-298,152,222
,178,2023-10-27 12:02:19.34,19,-92,-2104,19,-50,48,-196,-364,168,280
,179,2023-10-27 12:02:19.35,14,-94,-2078,11,-72,35,-169,-325,156,247
,180,2023-10-27 12:02:19.36,-4,-92,-2085,7,-73,26,-227,-398,171,312
,181,2023-10-27 12:02:19.37,6,-102,-2061,10,-83,14,-204,-364,160,284
,182,2023-10-27 12:02:19.38,9,-108,-2033,17,-78,4,-258,-431,173,344
,183,2023-10-27 12:02:19.39,5,-122,-2030,22,-61,-8,-213,-380,167,296
,184,2023-10-27 12:02:19.40,-24,-135,-2037,19,-41,-17,-225,-407,182,316
,185,2023-10-27 12:02:19.41,-17,-123,-2073,21,-55,-21,-166,-338,172,252
,186,2023-10-27 12:02:19.42,-2,-111,-2089,17,-73,-20,-178,-362,184,270
,187,2023-10-27 12:02:19.43,-6,-125,-2046,1,-74,-25,-142,-309,167,225
,188,2023-10-27 12:02:19.44,-15,-156,-2030,-9,-48,-23,-160,-336,176,248
,189,2023-10-27 12:02:19.45,19,-170,-2015,-4,-24,-23,-125,-289,164,207
,190,2023-10-27 12:02:19.46,-2,-178,-2012,13,-8,-18,-135,-311,176,223
,191,2023-10-27 12:02:19.47,24,-181,-2009,34,12,-14,-108,-268,160,188
,192,2023-10-27 12:02:19.48,15,-199,-2034,52,36,-5,-125,-298,173,211
,193,2023-10-27 12:02:19.49,17,-214,-2036,61,55,0,-108,-268,160,188
,194,2023-10-27 12:02:19.50,29,-235,-2042,81,56,11,-122,-295,173,208
,195,2023-10-27 12:02:19.51,23,-238,-2053,94,49,19,-106,-270,164,188
,196,2023-10-27 12:02:19.52,27,-243,-2057,104,51,29,-122,-297,175,209
,197,2023-10-27 12:02:19.53,35,-245,-2041,107,54,41,-114,-276,162,195
,198,2023-10-27 12:02:19.54,49,-251,-2054,110,74,46,-131,-299,168,215
,199,2023-10-27 12:02:19.55,54,-274,-2046,126,77,54,-118,-280,162,199
,200,2023-10-27 12:02:19.56,40,-273,-2022,157,73,59,-131,-300,169,215
,201,2023-10-27 12:02:19.57,44,-283,-2024,189,82,61,-117,-279,162,198
,202,2023-10-27 12:02:19.58,50,-296,-2024,229,93,68,-135,-305,170,220
,203,2023-10-27 12:02:19.59,41,-302,-2012,265,111,71,-129,-289,160,209
,204,2023-10-27 12:02:19.60,58,-307,-1996,298,115,72,-142,-313,171,227
,205,2023-10-27 12:02:19.61,63,-322,-1990,335,124,72,-134,-294,160,214
,206,2023-10-27 12:02:19.62,72,-326,-1982,375,133,72,-141,-304,163,222
,207,2023-10-27 12:02:19.63,87,-305,-1999,395,156,73,-137,-300,163,218
,208,2023-10-27 12:02:19.64,64,-320,-2022,394,161,66,-137,-305,168,221
,209,2023-10-27 12:02:19.65,83,-346,-1997,394,175,67,-137,-301,164,219
,210,2023-10-27 12:02:19.66,87,-338,-1980,388,192,71,-145,-314,169,229
,211,2023-10-27 12:02:19.67,85,-355,-2041,380,187,81,-148,-312,164,230
,212,2023-10-27 12:02:19.68,93,-316,-2083,296,159,97,-150,-319,169,234
,213,2023-10-27 12:02:19.69,95,-338,-2058,248,145,107,-149,-318,169,233
,214,2023-10-27 12:02:19.70,87,-291,-2058,183,137,101,-154,-325,171,239
,215,2023-10-27 12:02:19.71,105,-304,-2096,125,90,101,-155,-329,174,242
,216,2023-10-27 12:02:19.72,81,-362,-2064,85,103,116,-158,-331,173,244
,217,2023-10-27 12:02:19.73,110,-313,-2027,49,98,115,-162,-334,172,248
,218,2023-10-27 12:02:19.74,89,-331,-2048,14,97,114,-158,-332,174,245
,219,2023-10-27 12:02:19.75,109,-343,-2064,-14,67,116,-165,-336,171,250
,220,2023-10-27 12:02:19.76,106,-344,-2050,-31,41,120,-164,-336,172,250
,221,2023-10-27 12:02:19.77,104,-332,-2049,-58,29,121,-166,-341,175,253
,222,2023-10-27 12:02:19.78,103,-312,-2071,-79,24,110,-166,-339,173,252
,223,2023-10-27 12:02:19.79,124,-307,-2066,-99,10,97,-177,-348,171,262
,224,2023-10-27 12:02:19.80,111,-300,-2032,-91,12,85,-170,-344,174,257
,225,2023-10-27 12:02:19.81,105,-268,-2056,-92,20,66,-182,-355,173,268
,226,2023-10-27 12:02:19.82,94,-280,-2073,-83,0,52,-177,-351,174,264
,227,2023-10-27 12:02:19.83,109,-314,-2018,-53,-8,36,-194,-369,175,281
,228,2023-10-27 12:02:19.84,113,-335,-2016,-29,-11,24,-192,-365,173,278
,229,2023-10-27 12:02:19.85,125,-361,-2010,3,-12,17,-220,-393,173,306
,230,2023-10-27 12:02:19.86,99,-323,-2041,-12,-15,8,-220,-395,175,307
,231,2023-10-27 12:02:19.87,118,-327,-2064,-66,-35,9,-245,-424,179,334
,232,2023-10-27 12:02:19.88,109,-335,-2018,-111,-38,13,-238,-417,179,327
,233,2023-10-27 12:02:19.89,122,-312,-2061,-180,-48,9,-246,-428,182,337
,234,2023-10-27 12:02:19.90,109,-314,-2064,-202,-33,12,-212,-388,176,300
,235,2023-10-27 12:02:19.91,99,-292,-2052,-214,-47,12,-216,-392,176,304
,236,2023-10-27 12:02:19.92,85,-291,-2115,-254,-74,24,-180,-355,175,267
,237,2023-10-27 12:02:19.93,102,-317,-2070,-281,-111,38,-190,-364,174,277
,238,2023-10-27 12:02:19.94,106,-301,-2011,-315,-123,59,-166,-339,173,252
,239,2023-10-27 12:02:19.95,118,-379,-2036,-369,-114,88,-188,-358,170,273
,240,2023-10-27 12:02:19.96,89,-374,-2019,-351,-101,125,-153,-317,164,235
,241,2023-10-27 12:02:19.97,88,-274,-2095,-356,-120,131,-175,-340,165,257
,242,2023-10-27 12:02:19.98,63,-240,-2082,-319,-153,149,-135,-301,166,218
,243,2023-10-27 12:02:19.99,35,-184,-2093,-283,-193,140,-177,-343,166,260
,244,2023-10-27 12:02:20.00,5,-130,-2130,-254,-242,128,-143,-312,169,227
,245,2023-10-27 12:02:20.01,-10,-124,-2171,-227,-322,96,-174,-344,170,259
,246,2023-10-27 12:02:20.02,-19,-57,-2125,-197,-382,56,-135,-299,164,217
,247,2023-10-27 12:02:20.03,53,-54,-2014,-226,-417,10,-177,-340,163,258
,248,2023-10-27 12:02:20.04,-59,-89,-2063,-271,-368,16,-132,-301,169,216
,249,2023-10-27 12:02:20.05,27,-40,-2116,-320,-385,-64,-181,-344,163,262
,250,2023-10-27 12:02:20.06,-3,-129,-1990,-391,-298,-41,-145,-310,165,227
,251,2023-10-27 12:02:20.07,-12,-186,-1961,-407,-227,-70,-199,-361,162,280
,252,2023-10-27 12:02:20.08,-32,-168,-2067,-394,-170,-76,-137,-301,164,219
,253,2023-10-27 12:02:20.09,-41,-95,-2089,-346,-176,-72,-177,-338,161,257
,254,2023-10-27 12:02:20.10,-103,-248,-2099,-244,-164,-91,-136,-294,158,215
,255,2023-10-27 12:02:20.11,15,-32,-1950,-106,-195,-134,-186,-345,159,265
,256,2023-10-27 12:02:20.12,-10,-120,-1919,-167,-78,-63,-139,-298,159,218
,257,2023-10-27 12:02:20.13,-83,-106,-2036,-32,-17,-68,-198,-361,163,279
,258,2023-10-27 12:02:20.14,-57,-8,-2070,-58,-13,-48,-154,-322,168,238
,259,2023-10-27 12:02:20.15,-70,-57,-2037,-26,-2,-40,-214,-384,170,299
,260,2023-10-27 12:02:20.16,-62,-35,-2016,-42,19,-36,-159,-328,169,243
,261,2023-10-27 12:02:20.17,-61,-50,-2039,-17,20,-23,-221,-393,172,307
,262,2023-10-27 12:02:20.18,-68,-52,-2051,3,10,-9,-158,-331,173,244
,263,2023-10-27 12:02:20.19,-67,-64,-2050,11,5,-2,-227,-403,176,315
,264,2023-10-27 12:02:20.20,-56,-104,-2049,20,10,9,-190,-362,172,276
,265,2023-10-27 12:02:20.21,-50,-114,-2045,40,14,23,-256,-432,176,344
,266,2023-10-27 12:02:20.22,-56,-112,-2048,51,11,32,-195,-372,177,283
,267,2023-10-27 12:02:20.23,-45,-121,-2049,54,11,43,-249,-431,182,340
,268,2023-10-27 12:02:20.24,-49,-125,-2041,47,15,51,-184,-364,180,274
,269,2023-10-27 12:02:20.25,-39,-131,-2048,46,-5,56,-228,-416,188,322
,270,2023-10-27 12:02:20.26,-38,-124,-2058,40,-13,58,-147,-329,182,238
,271,2023-10-27 12:02:20.27,-23,-126,-2049,30,-13,58,-188,-377,189,282
,272,2023-10-27 12:02:20.28,-4,-147,-2027,14,3,45,-121,-301,180,211
,273,2023-10-27 12:02:20.29,1,-176,-2018,5,26,30,-177,-360,183,268
,274,2023-10-27 12:02:20.30,0,-190,-2006,6,59,21,-110,-282,172,196
,275,2023-10-27 12:02:20.31,10,-184,-2002,21,78,9,-167,-346,179,256
,276,2023-10-27 12:02:20.32,18,-200,-2007,38,88,-2,-103,-271,168,187
,277,2023-10-27 12:02:20.33,8,-213,-2014,50,107,-12,-165,-338,173,251
,278,2023-10-27 12:02:20.34,0,-208,-2039,64,121,-23,-104,-266,162,185
,279,2023-10-27 12:02:20.35,8,-206,-2048,81,127,-32,-166,-338,172,252
,280,2023-10-27 12:02:20.36,31,-212,-2041,108,134,-43,-101,-261,160,181
,281,2023-10-27 12:02:20.37,38,-236,-2006,133,154,-55,-166,-334,168,250
,282,2023-10-27 12:02:20.38,50,-248,-1982,185,150,-78,-103,-262,159,182
,283,2023-10-27 12:02:20.39,61,-233,-1990,204,157,-77,-157,-326,169,241
,284,2023-10-27 12:02:20.40,88,-232,-1916,222,165,-88,-100,-260,160,180
,285,2023-10-27 12:02:20.41,66,-316,-1973,236,234,-74,-163,-338,175,250
,286,2023-10-27 12:02:20.42,92,-286,-1981,234,253,-67,-103,-271,168,187
,287,2023-10-27 12:02:20.43,54,-276,-2060,238,259,-42,-163,-338,175,250
,288,2023-10-27 12:02:20.44,29,-267,-2107,242,220,-22,-96,-263,167,179
,289,2023-10-27 12:02:20.45,42,-257,-2139,216,169,-1,-163,-340,177,251
,290,2023-10-27 12:02:20.46,47,-248,-2112,186,122,21,-95,-267,172,181
,291,2023-10-27 12:02:20.47,70,-242,-2105,147,88,31,-166,-351,185,258
,292,2023-10-27 12:02:20.48,101,-294,-2082,116,71,41,-110,-289,179,199
,293,2023-10-27 12:02:20.49,100,-312,-2023,121,88,59,-172,-357,185,264
,294,2023-10-27 12:02:20.50,100,-299,-2015,142,95,58,-102,-276,174,189
,295,2023-10-27 12:02:20.51,97,-306,-2030,176,83,59,-169,-357,188,263
,296,2023-10-27 12:02:20.52,114,-291,-2009,222,77,56,-100,-278,178,189
,297,2023-10-27 12:02:20.53,116,-283,-1974,258,71,56,-170,-362,192,266
,298,2023-10-27 12:02:20.54,104,-279,-1987,267,75,65,-100,-284,184,192
,299,2023-10-27 12:02:20.55,120,-287,-2038,238,81,57,-172,-369,197,270
,300,2023-10-27 12:02:20.56,89,-306,-2039,218,104,71,-107,-295,188,201
,301,2023-10-27 12:02:20.57,54,-278,-2094,203,89,73,-171,-377,206,274
,302,2023-10-27 12:02:20.58,63,-274,-2158,207,44,68,-98,-293,195,195
,303,2023-10-27 12:02:20.59,52,-247,-2136,192,-32,59,-171,-374,203,272
,304,2023-10-27 12:02:20.60,57,-232,-2108,176,-75,24,-111,-301,190,206
,305,2023-10-27 12:02:20.61,120,-232,-2017,133,-93,-9,-193,-393,200,293
,306,2023-10-27 12:02:20.62,52,-310,-1992,95,-41,-32,-126,-316,190,221
,307,2023-10-27 12:02:20.63,50,-195,-2075,78,-12,-87,-199,-399,200,299
,308,2023-10-27 12:02:20.64,105,-176,-2100,-13,-55,-97,-132,-314,182,223
,309,2023-10-27 12:02:20.65,65,-255,-2045,-84,-27,-85,-206,-393,187,299
,310,2023-10-27 12:02:20.66,48,-281,-2066,-168,-6,-67,-140,-309,169,224
,311,2023-10-27 12:02:20.67,46,-264,-2105,-220,5,-46,-216,-386,170,301
,312,2023-10-27 12:02:20.68,17,-238,-2103,-272,-25,-2,-146,-302,156,224
,313,2023-10-27 12:02:20.69,21,-259,-2117,-295,-55,33,-224,-380,156,302
,314,2023-10-27 12:02:20.70,43,-240,-2063,-286,-90,53,-159,-300,141,229
,315,2023-10-27 12:02:20.71,56,-304,-2076,-248,-89,68,-247,-392,145,319
,316,2023-10-27 12:02:20.72,36,-75,-2027,-107,-110,31,-180,-314,134,247
,317,2023-10-27 12:02:20.73,34,-61,-2085,-166,-122,47,-267,-412,145,339
,318,2023-10-27 12:02:20.74,18,-121,-2038,-106,-121,54,-206,-344,138,275
,319,2023-10-27 12:02:20.75,5,-93,-2027,-109,-97,69,-297,-446,149,371
,320,2023-10-27 12:02:20.76,-20,-91,-2091,-74,-93,63,-218,-364,146,291
,321,2023-10-27 12:02:20.77,-13,-94,-2091,-54,-118,75,-274,-428,154,351
,322,2023-10-27 12:02:20.78,-12,-82,-2068,-28,-132,66,-201,-344,143,272
,323,2023-10-27 12:02:20.79,-18,-93,-2060,-26,-120,73,-264,-409,145,336
,324,2023-10-27 12:02:20.80,-4,-102,-2042,-18,-94,55,-160,-301,141,230
,325,2023-10-27 12:02:20.81,-17,-124,-2047,-7,-73,54,-212,-366,154,289
,326,2023-10-27 12:02:20.82,-6,-151,-2032,17,-69,47,-145,-290,145,217
,327,2023-10-27 12:02:20.83,5,-171,-2033,33,-59,46,-210,-371,161,290
,328,2023-10-27 12:02:20.84,-20,-186,-2041,41,-48,46,-140,-290,150,215
,329,2023-10-27 12:02:20.85,-14,-195,-2053,43,-42,44,-192,-351,159,271
,330,2023-10-27 12:02:20.86,-11,-209,-2043,40,-35,43,-129,-278,149,203
,331,2023-10-27 12:02:20.87,9,-211,-2035,40,-43,40,-179,-337,158,258
,332,2023-10-27 12:02:20.88,2,-215,-2039,31,-35,39,-119,-267,148,193
,333,2023-10-27 12:02:20.89,4,-206,-2042,18,-28,32,-174,-337,163,255
,334,2023-10-27 12:02:20.90,9,-213,-2022,7,-26,29,-116,-267,151,191
,335,2023-10-27 12:02:20.91,8,-227,-2019,4,-18,23,-174,-336,162,255
,336,2023-10-27 12:02:20.92,17,-234,-2026,0,-13,21,-116,-269,153,192
,337,2023-10-27 12:02:20.93,13,-230,-2023,-6,-6,14,-173,-337,164,255
,338,2023-10-27 12:02:20.94,8,-227,-2035,-13,5,8,-119,-273,154,196
,339,2023-10-27 12:02:20.95,9,-243,-2046,-12,21,-2,-174,-337,163,255
,340,2023-10-27 12:02:20.96,0,-225,-2047,-4,34,-26,-121,-271,150,196
,341,2023-10-27 12:02:20.97,19,-218,-2043,17,42,-45,-174,-331,157,252
,342,2023-10-27 12:02:20.98,107,-249,-1973,26,47,-65,-118,-267,149,192
,343,2023-10-27 12:02:20.99,53,-368,-1900,65,120,-33,-168,-326,158,247
,344,2023-10-27 12:02:21.00,11,-311,-1966,110,153,-36,-116,-265,149,190
,345,2023-10-27 12:02:21.01,9,-246,-2130,111,126,-22,-165,-325,160,245
,346,2023-10-27 12:02:21.02,37,-267,-2107,107,53,-10,-114,-267,153,190
,347,2023-10-27 12:02:21.03,43,-279,-2036,88,35,14,-162,-324,162,243
,348,2023-10-27 12:02:21.04,50,-299,-2039,73,46,22,-116,-270,154,193
,349,2023-10-27 12:02:21.05,68,-299,-2045,57,49,28,-160,-325,165,242
,350,2023-10-27 12:02:21.06,50,-319,-2026,75,43,35,-116,-270,154,193
,351,2023-10-27 12:02:21.07,74,-307,-2032,98,29,29,-164,-322,158,243
,352,2023-10-27 12:02:21.08,78,-287,-2029,113,21,19,-115,-266,151,190
,353,2023-10-27 12:02:21.09,82,-283,-2030,112,25,2,-158,-318,160,238
,354,2023-10-27 12:02:21.10,75,-278,-2032,109,38,-7,-118,-269,151,193
,355,2023-10-27 12:02:21.11,67,-264,-2056,105,42,-20,-158,-319,161,238
,356,2023-10-27 12:02:21.12,70,-234,-2060,82,22,-41,-118,-271,153,194
,357,2023-10-27 12:02:21.13,56,-241,-2063,51,4,-56,-160,-320,160,240
,358,2023-10-27 12:02:21.14,60,-242,-2078,20,-25,-72,-119,-271,152,195
,359,2023-10-27 12:02:21.15,63,-263,-2074,-19,-44,-77,-160,-318,158,239
,360,2023-10-27 12:02:21.16,36,-282,-2086,-45,-65,-78,-119,-274,155,196
,361,2023-10-27 12:02:21.17,49,-268,-2103,-80,-98,-69,-159,-319,160,239
,362,2023-10-27 12:02:21.18,43,-305,-2094,-135,-128,-43,-128,-282,154,205
,363,2023-10-27 12:02:21.19,23,-313,-2078,-166,-141,-25,-171,-332,161,251
,364,2023-10-27 12:02:21.20,19,-254,-2064,-181,-153,-1,-137,-293,156,215
,365,2023-10-27 12:02:21.21,15,-222,-2079,-196,-168,23,-160,-323,163,241
,366,2023-10-27 12:02:21.22,25,-216,-2041,-197,-167,40,-126,-288,162,207
,367,2023-10-27 12:02:21.23,3,-205,-1988,-176,-138,52,-165,-327,162,246
,368,2023-10-27 12:02:21.24,-32,-170,-2040,-145,-95,45,-138,-300,162,219
,369,2023-10-27 12:02:21.25,-40,-100,-2084,-113,-122,40,-173,-332,159,252
,370,2023-10-27 12:02:21.26,-14,-104,-2039,-102,-145,27,-137,-292,155,214
,371,2023-10-27 12:02:21.27,-14,-156,-1981,-93,-107,30,-173,-331,158,252
,372,2023-10-27 12:02:21.28,8,-318,-2003,-70,-27,0,-141,-291,150,216
,373,2023-10-27 12:02:21.29,-15,-125,-1901,57,42,-23,-170,-318,148,244
,374,2023-10-27 12:02:21.30,-26,-127,-2073,20,32,-29,-144,-294,150,219
,375,2023-10-27 12:02:21.31,-36,-225,-2041,91,16,11,-176,-333,157,254
,376,2023-10-27 12:02:21.32,-26,-144,-2050,67,15,4,-142,-298,156,220
,377,2023-10-27 12:02:21.33,-11,-191,-2033,49,51,29,-163,-326,163,244
,378,2023-10-27 12:02:21.34,-40,-187,-2031,44,75,44,-132,-297,165,214
,379,2023-10-27 12:02:21.35,-10,-186,-2077,48,69,58,-158,-323,165,240
,380,2023-10-27 12:02:21.36,-29,-172,-2062,53,52,82,-144,-308,164,226
,381,2023-10-27 12:02:21.37,-34,-154,-2065,58,25,82,-172,-338,166,255
,382,2023-10-27 12:02:21.38,-24,-155,-2073,59,9,89,-151,-312,161,231
,383,2023-10-27 12:02:21.39,-4,-147,-2069,59,1,88,-153,-325,172,239
,384,2023-10-27 12:02:21.40,-11,-138,-2084,53,3,80,-132,-298,166,215
,385,2023-10-27 12:02:21.41,-10,-149,-2068,55,-11,63,-157,-324,167,240
,386,2023-10-27 12:02:21.42,-18,-148,-2076,64,-27,44,-141,-306,165,223
,387,2023-10-27 12:02:21.43,-14,-146,-2108,74,-51,26,-160,-330,170,245
,388,2023-10-27 12:02:21.44,-16,-179,-2102,71,-78,17,-148,-314,166,231
,389,2023-10-27 12:02:21.45,-6,-196,-2075,63,-84,13,-162,-332,170,247
,390,2023-10-27 12:02:21.46,9,-206,-2047,52,-80,9,-153,-318,165,235
,391,2023-10-27 12:02:21.47,-3,-226,-2022,40,-61,6,-163,-333,170,248
,392,2023-10-27 12:02:21.48,14,-251,-2002,36,-44,5,-154,-323,169,238
,393,2023-10-27 12:02:21.49,15,-261,-1996,41,-31,6,-164,-336,172,250
,394,2023-10-27 12:02:21.50,-1,-289,-1986,43,-4,5,-162,-326,164,244
,395,2023-10-27 12:02:21.51,6,-306,-1989,44,22,11,-169,-335,166,252
,396,2023-10-27 12:02:21.52,4,-320,-2009,49,39,21,-162,-324,162,243
,397,2023-10-27 12:02:21.53,-6,-311,-2007,62,48,20,-165,-329,164,247
,398,2023-10-27 12:02:21.54,-2,-288,-2011,63,59,14,-166,-322,156,244
,399,2023-10-27 12:02:21.55,6,-269,-2007,76,77,-10,-166,-323,157,244
,400,2023-10-27 12:02:21.56,81,-324,-1950,88,87,-16,-162,-318,156,240
,401,2023-10-27 12:02:21.57,36,-378,-1932,128,156,12,-152,-318,166,235
,402,2023-10-27 12:02:21.58,19,-288,-2027,134,180,10,-158,-319,161,238
,403,2023-10-27 12:02:21.59,0,-271,-2139,103,156,17,-148,-317,169,232
,404,2023-10-27 12:02:21.60,25,-261,-2105,63,80,15,-160,-323,163,241
,405,2023-10-27 12:02:21.61,36,-267,-2072,36,30,16,-151,-319,168,235
,406,2023-10-27 12:02:21.62,41,-277,-2056,8,8,11,-156,-322,166,239
,407,2023-10-27 12:02:21.63,36,-284,-2054,-20,16,12,-151,-324,173,237
,408,2023-10-27 12:02:21.64,52,-283,-2057,-34,9,6,-172,-339,167,255
,409,2023-10-27 12:02:21.65,41,-294,-2051,-47,2,2,-160,-338,178,249
,410,2023-10-27 12:02:21.66,42,-278,-2073,-57,-18,-6,-184,-353,169,268
,411,2023-10-27 12:02:21.67,65,-277,-2078,-84,-41,-7,-174,-343,169,258
,412,2023-10-27 12:02:21.68,30,-293,-2066,-105,-62,1,-197,-369,172,283
,413,2023-10-27 12:02:21.69,37,-271,-2092,-133,-76,9,-180,-355,175,267
,414,2023-10-27 12:02:21.70,42,-266,-2093,-169,-105,22,-214,-386,172,300
,415,2023-10-27 12:02:21.71,27,-287,-2057,-192,-116,46,-204,-378,174,291
,416,2023-10-27 12:02:21.72,18,-281,-2055,-189,-115,59,-233,-406,173,319
,417,2023-10-27 12:02:21.73,2,-241,-2056,-175,-124,73,-214,-386,172,300
,418,2023-10-27 12:02:21.74,-4,-212,-2060,-161,-127,83,-234,-402,168,318
,419,2023-10-27 12:02:21.75,-8,-164,-2037,-122,-116,79,-202,-369,167,285
,420,2023-10-27 12:02:21.76,-18,-165,-2037,-118,-108,79,-221,-388,167,304
,421,2023-10-27 12:02:21.77,-20,-151,-2056,-107,-105,70,-184,-352,168,268
,422,2023-10-27 12:02:21.78,-42,-122,-2043,-99,-94,63,-211,-373,162,292
,423,2023-10-27 12:02:21.79,-51,-107,-2050,-84,-98,50,-177,-335,158,256
,424,2023-10-27 12:02:21.80,-61,-94,-2035,-71,-99,37,-210,-369,159,289
,425,2023-10-27 12:02:21.81,-38,-96,-2050,-70,-93,34,-170,-330,160,250
,426,2023-10-27 12:02:21.82,-64,-212,-1977,-38,-28,49,-209,-371,162,290
,427,2023-10-27 12:02:21.83,-108,-108,-2035,6,12,47,-166,-325,159,245
,428,2023-10-27 12:02:21.84,-86,-45,-2128,50,-6,9,-201,-362,161,281
,429,2023-10-27 12:02:21.85,-84,-71,-2000,107,-29,15,-170,-326,156,248
,430,2023-10-27 12:02:21.86,-68,-114,-1986,109,2,3,-219,-379,160,299
,431,2023-10-27 12:02:21.87,-65,-134,-2016,109,53,-1,-173,-334,161,253
,432,2023-10-27 12:02:21.88,-74,-99,-2052,116,69,-5,-211,-377,166,294
,433,2023-10-27 12:02:21.89,-68,-138,-2050,135,72,5,-170,-333,163,251
,434,2023-10-27 12:02:21.90,-56,-158,-2024,145,67,6,-207,-373,166,290
,435,2023-10-27 12:02:21.91,-48,-155,-2033,142,89,10,-151,-314,163,232
,436,2023-10-27 12:02:21.92,-48,-164,-2055,139,95,8,-184,-352,168,268
,437,2023-10-27 12:02:21.93,-46,-169,-2051,131,94,12,-127,-291,164,209
,438,2023-10-27 12:02:21.94,-40,-196,-2052,121,101,16,-165,-335,170,250
,439,2023-10-27 12:02:21.95,-33,-205,-2059,111,98,24,-111,-271,160,191
,440,2023-10-27 12:02:21.96,-30,-215,-2053,102,94,31,-155,-317,162,236
,441,2023-10-27 12:02:21.97,-14,-227,-2047,88,89,37,-104,-258,154,181
,442,2023-10-27 12:02:21.98,-9,-239,-2051,71,84,41,-150,-308,158,229
,443,2023-10-27 12:02:21.99,3,-253,-2055,48,75,51,-96,-248,152,172
,444,2023-10-27 12:02:22.00,6,-260,-2048,27,69,58,-144,-304,160,224
,445,2023-10-27 12:02:22.01,19,-266,-2053,0,59,61,-95,-247,152,171
,446,2023-10-27 12:02:22.02,22,-274,-2068,-34,42,61,-144,-306,162,225
,447,2023-10-27 12:02:22.03,30,-283,-2069,-64,22,61,-91,-241,150,166
,448,2023-10-27 12:02:22.04,47,-299,-2053,-95,20,65,-149,-306,157,227
,449,2023-10-27 12:02:22.05,59,-306,-2026,-118,27,66,-98,-249,151,173
,450,2023-10-27 12:02:22.06,79,-342,-1994,-120,55,79,-149,-310,161,229
,451,2023-10-27 12:02:22.07,64,-386,-2007,-76,93,79,-101,-250,149,175
,452,2023-10-27 12:02:22.08,41,-295,-1988,-9,136,66,-154,-311,157,232
,453,2023-10-27 12:02:22.09,28,-225,-2053,-8,137,48,-99,-250,151,174
,454,2023-10-27 12:02:22.10,42,-212,-2070,-5,98,38,-154,-312,158,233
,455,2023-10-27 12:02:22.11,48,-232,-2064,-31,54,33,-97,-252,155,174
,456,2023-10-27 12:02:22.12,59,-268,-2056,-60,31,23,-154,-318,164,236
,457,2023-10-27 12:02:22.13,59,-264,-2058,-74,12,15,-101,-259,158,180
,458,2023-10-27 12:02:22.14,56,-268,-2050,-86,2,15,-154,-327,173,240
,459,2023-10-27 12:02:22.15,57,-267,-2050,-89,-7,7,-93,-263,170,178
,460,2023-10-27 12:02:22.16,60,-278,-2048,-91,-16,2,-146,-332,186,239
,461,2023-10-27 12:02:22.17,49,-274,-2055,-98,-23,2,-85,-268,183,176
,462,2023-10-27 12:02:22.18,49,-266,-2052,-103,-30,4,-138,-336,198,237
,463,2023-10-27 12:02:22.19,34,-244,-2047,-111,-47,-2,-76,-270,194,173
,464,2023-10-27 12:02:22.20,37,-216,-2068,-139,-60,-7,-131,-338,207,234
,465,2023-10-27 12:02:22.21,16,-192,-2097,-171,-84,-20,-69,-268,199,168
,466,2023-10-27 12:02:22.22,9,-192,-2110,-198,-109,-32,-131,-344,213,237
,467,2023-10-27 12:02:22.23,-2,-184,-2080,-204,-137,-43,-73,-276,203,174
,468,2023-10-27 12:02:22.24,-7,-155,-2077,-222,-153,-56,-138,-348,210,243
,469,2023-10-27 12:02:22.25,-1,-156,-2055,-224,-154,-63,-81,-280,199,180
,470,2023-10-27 12:02:22.26,-16,-166,-2004,-231,-135,-70,-160,-360,200,260
,471,2023-10-27 12:02:22.27,-12,-169,-1994,-242,-96,-67,-98,-288,190,193
,472,2023-10-27 12:02:22.28,-26,-158,-2017,-245,-61,-57,-171,-362,191,266
,473,2023-10-27 12:02:22.29,-41,-129,-2029,-223,-39,-44,-104,-286,182,195
,474,2023-10-27 12:02:22.30,-50,-112,-2034,-203,-20,-32,-175,-362,187,268
,475,2023-10-27 12:02:22.31,-58,-99,-2032,-176,-4,-16,-109,-291,182,200
,476,2023-10-27 12:02:22.32,-64,-59,-2068,-141,0,-7,-184,-372,188,278
,477,2023-10-27 12:02:22.33,-48,-43,-2068,-107,12,5,-113,-296,183,204
,478,2023-10-27 12:02:22.34,-70,-55,-2039,-36,31,-1,-188,-376,188,282
,479,2023-10-27 12:02:22.35,-57,2,-2040,-20,20,4,-125,-302,177,213
,480,2023-10-27 12:02:22.36,-61,-34,-2076,14,36,9,-216,-401,185,308
,481,2023-10-27 12:02:22.37,-62,-26,-2070,40,14,6,-147,-332,185,239
,482,2023-10-27 12:02:22.38,-45,-11,-2052,47,12,-2,-225,-416,191,320
,483,2023-10-27 12:02:22.39,-19,-56,-2025,60,33,1,-159,-343,184,251
,484,2023-10-27 12:02:22.40,-30,-72,-2028,81,54,14,-245,-433,188,339
,485,2023-10-27 12:02:22.41,-43,-58,-2057,98,64,20,-185,-364,179,274
,486,2023-10-27 12:02:22.42,-36,-55,-2065,107,61,22,-295,-466,171,380
,487,2023-10-27 12:02:22.43,-20,-79,-2043,117,50,26,-224,-381,157,302
,488,2023-10-27 12:02:22.44,-24,-95,-2048,125,46,23,-284,-432,148,358
,489,2023-10-27 12:02:22.45,-5,-101,-2079,133,39,20,-188,-332,144,260
,490,2023-10-27 12:02:22.46,-16,-123,-2062,141,22,21,-245,-393,148,319
,491,2023-10-27 12:02:22.47,-11,-145,-2041,141,24,22,-155,-301,146,228
,492,2023-10-27 12:02:22.48,-25,-154,-2057,136,26,19,-220,-368,148,294
,493,2023-10-27 12:02:22.49,-4,-163,-2052,134,35,19,-138,-284,146,211
,494,2023-10-27 12:02:22.50,0,-178,-2048,134,37,23,-204,-355,151,279
,495,2023-10-27 12:02:22.51,13,-181,-2039,128,44,23,-140,-286,146,213
,496,2023-10-27 12:02:22.52,20,-188,-2046,119,54,24,-218,-638,420,428
,497,2023-10-27 12:02:22.53,22,-205,-2053,113,64,27,-148,-774,626,461
,498,2023-10-27 12:02:22.54,12,-211,-2056,107,68,30,-215,-1043,828,629
,499,2023-10-27 12:02:22.55,15,-218,-2064,94,60,27,-150,-988,838,569
,500,2023-10-27 12:02:22.56,4,-221,-2068,79,57,21,-233,-1109,876,671
,501,2023-10-27 12:02:22.57,12,-188,-2047,79,53,0,-167,-983,816,575
,502,2023-10-27 12:02:22.58,14,-183,-2028,71,66,-20,-234,-1093,859,663
,503,2023-10-27 12:02:22.59,94,-195,-1990,69,63,-47,-164,-980,816,572
,504,2023-10-27 12:02:22.60,94,-320,-1925,57,111,-10,-233,-1134,901,683
,505,2023-10-27 12:02:22.61,27,-287,-1962,89,188,-12,-130,-1106,976,618
,506,2023-10-27 12:02:22.62,22,-256,-2122,56,182,14,-165,-1285,1120,725
,507,2023-10-27 12:02:22.63,1,-231,-2144,43,123,31,-92,-1201,1109,646
,508,2023-10-27 12:02:22.64,41,-205,-2131,25,28,34,-162,-1295,1133,728
,509,2023-10-27 12:02:22.65,48,-205,-2074,-12,-19,38,-96,-1114,1018,605
,510,2023-10-27 12:02:22.66,45,-203,-2066,-41,-31,30,-151,-1112,961,631
,511,2023-10-27 12:02:22.67,47,-198,-2072,-66,-37,26,-134,-954,820,544
,512,2023-10-27 12:02:22.68,48,-206,-2053,-71,-53,16,-257,-1090,833,673
,513,2023-10-27 12:02:22.69,46,-209,-2043,-68,-53,6,-208,-994,786,601
,514,2023-10-27 12:02:22.70,46,-209,-2042,-62,-48,2,-264,-1118,854,691
,515,2023-10-27 12:02:22.71,42,-211,-2053,-64,-45,-4,-192,-998,806,595
,516,2023-10-27 12:02:22.72,30,-214,-2050,-67,-43,-5,-257,-1115,858,686
,517,2023-10-27 12:02:22.73,35,-223,-2048,-74,-43,-3,-190,-993,803,591
,518,2023-10-27 12:02:22.74,20,-229,-2067,-89,-43,16,-244,-1107,863,675
,519,2023-10-27 12:02:22.75,29,-227,-2072,-109,-52,30,-183,-991,808,587
,520,2023-10-27 12:02:22.76,36,-217,-2069,-130,-53,41,-239,-1106,867,672
