// Data mode  : Full
// Data quality  : High
// Acceleration sensor's range  : 16g
// Gyroscope sensor's range  : 2000dps
//
//ARTIFACT,NUM,DATE,ACC_X,ACC_Y,ACC_Z,GYRO_X,GYRO_Y,GYRO_Z,EOG_L,EOG_R,EOG_H,EOG_V
,1,2023-10-27 12:02:31.66,28,-240,-2044,8,3,15,-241,-1113,872,677
,2,2023-10-27 12:02:31.67,37,-241,-2045,6,6,18,-168,-1005,837,586
,3,2023-10-27 12:02:31.68,30,-242,-2042,6,1,19,-240,-1120,880,680
,4,2023-10-27 12:02:31.69,35,-238,-2041,4,6,19,-162,-1001,839,581
,5,2023-10-27 12:02:31.70,17,-244,-2047,5,4,19,-226,-1101,875,663
,6,2023-10-27 12:02:31.71,28,-247,-2044,6,1,20,-155,-985,830,570
,7,2023-10-27 12:02:31.72,29,-237,-2048,6,1,22,-230,-1105,875,667
,8,2023-10-27 12:02:31.73,26,-236,-2041,4,1,17,-160,-994,834,577
,9,2023-10-27 12:02:31.74,27,-234,-2045,0,2,16,-235,-1108,873,671
,10,2023-10-27 12:02:31.75,36,-234,-2055,0,2,9,-168,-994,826,581
,11,2023-10-27 12:02:31.76,32,-236,-2050,-2,-2,8,-244,-1111,867,677
,12,2023-10-27 12:02:31.77,29,-239,-2044,-1,-1,8,-175,-995,820,585
,13,2023-10-27 12:02:31.78,33,-235,-2047,0,-5,8,-257,-1111,854,684
,14,2023-10-27 12:02:31.79,26,-240,-2043,0,-5,8,-190,-994,804,592
,15,2023-10-27 12:02:31.80,25,-233,-2041,2,-5,8,-264,-1113,849,688
,16,2023-10-27 12:02:31.81,16,-235,-2033,1,-1,7,-190,-996,806,593
,17,2023-10-27 12:02:31.82,29,-241,-2040,3,-1,10,-258,-1114,856,686
,18,2023-10-27 12:02:31.83,28,-237,-2039,3,0,9,-183,-996,813,589
,19,2023-10-27 12:02:31.84,30,-240,-2039,-1,6,9,-252,-1119,867,685
,20,2023-10-27 12:02:31.85,23,-238,-2046,0,8,14,-179,-998,819,588
,21,2023-10-27 12:02:31.86,29,-241,-2045,2,4,12,-243,-1111,868,677
,22,2023-10-27 12:02:31.87,29,-238,-2051,2,8,14,-175,-989,814,582
,23,2023-10-27 12:02:31.88,46,-237,-2049,4,2,12,-240,-1109,869,674
,24,2023-10-27 12:02:31.89,31,-238,-2038,8,3,12,-176,-993,817,584
,25,2023-10-27 12:02:31.90,36,-243,-2044,10,6,12,-240,-1117,877,678
,26,2023-10-27 12:02:31.91,37,-242,-2042,12,10,13,-176,-998,822,587
,27,2023-10-27 12:02:31.92,29,-236,-2046,11,15,14,-242,-1115,873,678
,28,2023-10-27 12:02:31.93,33,-239,-2054,12,15,10,-169,-989,820,579
,29,2023-10-27 12:02:31.94,47,-240,-2048,12,8,6,-238,-1114,876,676
,30,2023-10-27 12:02:31.95,32,-249,-2047,9,5,3,-179,-999,820,589
,31,2023-10-27 12:02:31.96,31,-242,-2047,11,4,5,-241,-1123,882,682
,32,2023-10-27 12:02:31.97,30,-247,-2047,9,-2,6,-184,-1004,820,594
,33,2023-10-27 12:02:31.98,41,-239,-2046,6,2,7,-251,-1121,870,686
,34,2023-10-27 12:02:31.99,13,-238,-2039,5,1,7,-197,-1006,809,601
,35,2023-10-27 12:02:32.00,33,-243,-2048,1,0,6,-247,-1118,871,682
,36,2023-10-27 12:02:32.01,37,-244,-2048,-2,-2,9,-186,-1001,815,593
,37,2023-10-27 12:02:32.02,37,-247,-2044,3,-7,13,-242,-1115,873,678
,38,2023-10-27 12:02:32.03,26,-242,-2049,3,-3,15,-193,-1003,810,598
,39,2023-10-27 12:02:32.04,27,-237,-2050,0,-2,17,-253,-1120,867,686
,40,2023-10-27 12:02:32.05,20,-244,-2046,-4,-7,17,-198,-1008,810,603
,41,2023-10-27 12:02:32.06,29,-238,-2047,-4,-13,20,-247,-1122,875,684
,42,2023-10-27 12:02:32.07,21,-240,-2047,-4,-10,26,-186,-1009,823,597
,43,2023-10-27 12:02:32.08,28,-228,-2040,-4,-7,27,-239,-1118,879,678
,44,2023-10-27 12:02:32.09,24,-240,-2039,-2,-7,27,-194,-1009,815,601
,45,2023-10-27 12:02:32.10,22,-231,-2041,-1,-4,28,-255,-1122,867,688
,46,2023-10-27 12:02:32.11,25,-228,-2039,1,-11,24,-202,-1013,811,607
,47,2023-10-27 12:02:32.12,31,-235,-2043,4,-11,23,-249,-1115,866,682
,48,2023-10-27 12:02:32.13,30,-234,-2042,9,-7,24,-201,-1009,808,605
,49,2023-10-27 12:02:32.14,24,-231,-2040,12,-5,25,-246,-1113,867,679
,50,2023-10-27 12:02:32.15,13,-234,-2034,15,-7,21,-205,-1013,808,609
,51,2023-10-27 12:02:32.16,33,-235,-2040,18,-6,23,-257,-1122,865,689
,52,2023-10-27 12:02:32.17,25,-234,-2048,18,-5,20,-208,-1019,811,613
,53,2023-10-27 12:02:32.18,14,-231,-2046,20,0,17,-245,-1118,873,681
,54,2023-10-27 12:02:32.19,14,-235,-2045,20,0,16,-192,-1012,820,602
,55,2023-10-27 12:02:32.20,12,-234,-2045,19,-2,16,-234,-1101,867,667
,56,2023-10-27 12:02:32.21,19,-235,-2045,21,2,14,-199,-1008,809,603
,57,2023-10-27 12:02:32.22,36,-239,-2045,20,-1,13,-252,-1110,858,681
,58,2023-10-27 12:02:32.23,28,-238,-2047,20,-1,14,-216,-1020,804,618
,59,2023-10-27 12:02:32.24,22,-239,-2044,20,-3,13,-266,-1120,854,693
,60,2023-10-27 12:02:32.25,18,-248,-2050,17,-2,12,-226,-1026,800,626
,61,2023-10-27 12:02:32.26,35,-249,-2040,16,-6,12,-277,-1115,838,696
,62,2023-10-27 12:02:32.27,25,-243,-2048,13,0,12,-249,-1019,770,634
,63,2023-10-27 12:02:32.28,20,-245,-2041,14,-4,12,-308,-1103,795,705
,64,2023-10-27 12:02:32.29,22,-242,-2042,11,-6,9,-276,-1022,746,649
,65,2023-10-27 12:02:32.30,26,-237,-2038,12,3,14,-316,-1118,802,717
,66,2023-10-27 12:02:32.31,20,-237,-2047,12,3,17,-261,-1030,769,645
,67,2023-10-27 12:02:32.32,24,-244,-2045,11,4,16,-276,-1112,836,694
,68,2023-10-27 12:02:32.33,21,-241,-2040,9,3,14,-223,-1021,798,622
,69,2023-10-27 12:02:32.34,27,-237,-2047,9,2,17,-234,-1090,856,662
,70,2023-10-27 12:02:32.35,18,-238,-2042,7,3,17,-200,-1012,812,606
,71,2023-10-27 12:02:32.36,24,-242,-2040,7,1,17,-215,-1096,881,655
,72,2023-10-27 12:02:32.37,20,-244,-2047,4,2,19,-184,-1020,836,602
,73,2023-10-27 12:02:32.38,20,-243,-2046,2,-1,16,-200,-1095,895,647
,74,2023-10-27 12:02:32.39,10,-241,-2039,4,0,17,-180,-1018,838,599
,75,2023-10-27 12:02:32.40,22,-239,-2044,3,-3,17,-204,-1094,890,649
,76,2023-10-27 12:02:32.41,28,-240,-2045,5,-1,15,-190,-1026,836,608
,77,2023-10-27 12:02:32.42,28,-235,-2033,8,-1,16,-208,-1097,889,652
,78,2023-10-27 12:02:32.43,20,-246,-2046,7,0,17,-187,-1023,836,605
,79,2023-10-27 12:02:32.44,13,-237,-2042,9,2,17,-196,-1080,884,638
,80,2023-10-27 12:02:32.45,18,-238,-2049,9,1,16,-190,-1021,831,605
,81,2023-10-27 12:02:32.46,25,-239,-2048,10,1,19,-205,-1090,885,647
,82,2023-10-27 12:02:32.47,19,-242,-2046,9,-1,18,-194,-1031,837,612
,83,2023-10-27 12:02:32.48,15,-248,-2034,11,2,20,-197,-1081,884,639
,84,2023-10-27 12:02:32.49,29,-238,-2033,12,3,21,-194,-1027,833,610
,85,2023-10-27 12:02:32.50,23,-235,-2047,11,7,20,-205,-1080,875,642
,86,2023-10-27 12:02:32.51,27,-241,-2055,13,4,19,-209,-1040,831,624
,87,2023-10-27 12:02:32.52,22,-237,-2047,16,2,22,-212,-1095,883,653
,88,2023-10-27 12:02:32.53,17,-236,-2043,15,1,21,-198,-1042,844,620
,89,2023-10-27 12:02:32.54,25,-238,-2043,13,-1,20,-198,-1084,886,641
,90,2023-10-27 12:02:32.55,23,-233,-2048,10,1,17,-198,-1042,844,620
,91,2023-10-27 12:02:32.56,15,-244,-2053,11,3,18,-210,-1081,871,645
,92,2023-10-27 12:02:32.57,21,-234,-2056,7,2,21,-215,-1043,828,629
,93,2023-10-27 12:02:32.58,21,-235,-2053,8,-2,20,-216,-1079,863,647
,94,2023-10-27 12:02:32.59,12,-233,-2044,8,-5,21,-213,-1042,829,627
,95,2023-10-27 12:02:32.60,19,-237,-2041,8,-2,23,-208,-1074,866,641
,96,2023-10-27 12:02:32.61,27,-231,-2038,7,-2,22,-218,-1044,826,631
,97,2023-10-27 12:02:32.62,16,-230,-2043,8,-1,23,-218,-1075,857,646
,98,2023-10-27 12:02:32.63,21,-238,-2033,7,0,21,-217,-1040,823,628
,99,2023-10-27 12:02:32.64,16,-236,-2037,7,4,22,-203,-1061,858,632
,100,2023-10-27 12:02:32.65,14,-236,-2044,7,2,20,-219,-1040,821,629
,101,2023-10-27 12:02:32.66,27,-237,-2046,11,6,22,-212,-1067,855,639
,102,2023-10-27 12:02:32.67,14,-231,-2040,11,2,22,-224,-1048,824,636
,103,2023-10-27 12:02:32.68,21,-252,-2049,15,4,21,-210,-1067,857,638
,104,2023-10-27 12:02:32.69,14,-248,-2045,18,5,22,-226,-1051,825,638
,105,2023-10-27 12:02:32.70,22,-238,-2043,22,11,24,-211,-1064,853,637
,106,2023-10-27 12:02:32.71,22,-244,-2050,21,9,27,-230,-1052,822,641
,107,2023-10-27 12:02:32.72,22,-252,-2041,25,13,26,-214,-1064,850,639
,108,2023-10-27 12:02:32.73,24,-243,-2044,25,17,25,-236,-1057,821,646
,109,2023-10-27 12:02:32.74,26,-245,-2047,21,22,24,-217,-1061,844,639
,110,2023-10-27 12:02:32.75,30,-244,-2046,18,25,20,-233,-1049,816,641
,111,2023-10-27 12:02:32.76,15,-257,-2044,15,26,20,-207,-1050,843,628
,112,2023-10-27 12:02:32.77,17,-252,-2047,13,25,20,-234,-1053,819,643
,113,2023-10-27 12:02:32.78,25,-249,-2054,8,21,16,-209,-1056,847,632
,114,2023-10-27 12:02:32.79,24,-251,-2034,4,21,13,-242,-1065,823,653
,115,2023-10-27 12:02:32.80,33,-253,-2034,5,19,9,-218,-1060,842,639
,116,2023-10-27 12:02:32.81,34,-250,-2052,0,27,6,-251,-1069,818,660
,117,2023-10-27 12:02:32.82,25,-250,-2068,0,25,3,-215,-1057,842,636
,118,2023-10-27 12:02:32.83,26,-249,-2088,4,17,-1,-239,-1062,823,650
,119,2023-10-27 12:02:32.84,43,-245,-2083,8,7,0,-204,-1045,841,624
,120,2023-10-27 12:02:32.85,33,-248,-2065,21,6,-1,-237,-1060,823,648
,121,2023-10-27 12:02:32.86,29,-263,-2050,36,22,4,-202,-1043,841,622
,122,2023-10-27 12:02:32.87,14,-259,-2044,56,35,8,-233,-1064,831,648
,123,2023-10-27 12:02:32.88,31,-260,-2029,80,57,13,-190,-1044,854,617
,124,2023-10-27 12:02:32.89,29,-278,-2020,109,75,12,-230,-1070,840,650
,125,2023-10-27 12:02:32.90,30,-280,-2034,138,91,14,-191,-1049,858,620
,126,2023-10-27 12:02:32.91,42,-287,-2027,164,97,18,-243,-1085,842,664
,127,2023-10-27 12:02:32.92,38,-282,-2012,184,99,24,-202,-1056,854,629
,128,2023-10-27 12:02:32.93,53,-284,-2009,196,95,22,-238,-1082,844,660
,129,2023-10-27 12:02:32.94,66,-283,-2001,198,106,20,-188,-1042,854,615
,130,2023-10-27 12:02:32.95,53,-285,-1996,193,118,18,-243,-1080,837,661
,131,2023-10-27 12:02:32.96,42,-294,-1997,184,126,16,-203,-1045,842,624
,132,2023-10-27 12:02:32.97,39,-300,-2007,183,116,15,-258,-1086,828,672
,133,2023-10-27 12:02:32.98,47,-306,-2004,171,112,16,-202,-1044,842,623
,134,2023-10-27 12:02:32.99,45,-294,-2023,150,121,15,-240,-1079,839,659
,135,2023-10-27 12:02:33.00,60,-277,-2047,120,113,12,-184,-1029,845,606
,136,2023-10-27 12:02:33.01,50,-276,-2061,82,107,11,-241,-1084,843,662
,137,2023-10-27 12:02:33.02,52,-275,-2062,53,97,5,-187,-1037,850,612
,138,2023-10-27 12:02:33.03,48,-266,-2060,21,83,1,-235,-1086,851,660
,139,2023-10-27 12:02:33.04,57,-267,-2060,0,58,-4,-174,-1029,855,601
,140,2023-10-27 12:02:33.05,47,-248,-2072,-16,39,-7,-227,-1077,850,652
,141,2023-10-27 12:02:33.06,30,-224,-2087,-33,23,-14,-171,-1019,848,595
,142,2023-10-27 12:02:33.07,39,-226,-2076,-58,6,-26,-233,-1086,853,659
,143,2023-10-27 12:02:33.08,45,-214,-2071,-77,-14,-34,-179,-1030,851,604
,144,2023-10-27 12:02:33.09,40,-210,-2071,-91,-19,-44,-246,-1097,851,671
,145,2023-10-27 12:02:33.10,34,-214,-2073,-99,-32,-47,-191,-1033,842,612
,146,2023-10-27 12:02:33.11,33,-206,-2066,-95,-38,-51,-263,-1096,833,679
,147,2023-10-27 12:02:33.12,27,-213,-2061,-97,-45,-50,-216,-1028,812,622
,148,2023-10-27 12:02:33.13,38,-210,-2061,-100,-38,-48,-301,-1104,803,702
,149,2023-10-27 12:02:33.14,29,-235,-2035,-92,-30,-44,-247,-1033,786,640
,150,2023-10-27 12:02:33.15,31,-234,-2019,-69,-19,-41,-305,-1107,802,706
,151,2023-10-27 12:02:33.16,32,-239,-2023,-45,-11,-36,-234,-1032,798,633
,152,2023-10-27 12:02:33.17,36,-255,-2016,-13,-12,-29,-263,-1107,844,685
,153,2023-10-27 12:02:33.18,36,-265,-2019,18,5,-19,-184,-1028,844,606
,154,2023-10-27 12:02:33.19,53,-252,-2003,43,31,-15,-222,-1100,878,661
,155,2023-10-27 12:02:33.20,59,-260,-2008,63,49,-10,-156,-1022,866,589
,156,2023-10-27 12:02:33.21,66,-275,-2007,86,68,0,-223,-1115,892,669
,157,2023-10-27 12:02:33.22,59,-291,-2008,114,90,7,-155,-1035,880,595
,158,2023-10-27 12:02:33.23,71,-307,-2018,141,98,13,-206,-1103,897,654
,159,2023-10-27 12:02:33.24,83,-307,-2038,173,87,29,-132,-1007,875,569
,160,2023-10-27 12:02:33.25,74,-293,-2054,190,91,39,-190,-1089,899,639
,161,2023-10-27 12:02:33.26,61,-311,-2067,196,98,53,-126,-1008,882,567
,162,2023-10-27 12:02:33.27,86,-322,-2050,200,93,63,-197,-1112,915,654
,163,2023-10-27 12:02:33.28,98,-327,-2027,205,100,75,-130,-1021,891,575
,164,2023-10-27 12:02:33.29,98,-318,-2031,213,97,76,-194,-1104,910,649
,165,2023-10-27 12:02:33.30,93,-321,-2049,216,89,78,-124,-1001,877,562
,166,2023-10-27 12:02:33.31,106,-341,-2017,224,91,77,-194,-1096,902,645
,167,2023-10-27 12:02:33.32,97,-333,-1989,240,107,72,-126,-1000,874,563
,168,2023-10-27 12:02:33.33,103,-331,-2011,238,118,62,-189,-1092,903,640
,169,2023-10-27 12:02:33.34,94,-344,-2031,248,120,56,-121,-991,870,556
,170,2023-10-27 12:02:33.35,91,-333,-2029,236,111,51,-184,-1096,912,640
,171,2023-10-27 12:02:33.36,96,-358,-2047,227,102,48,-120,-996,876,558
,172,2023-10-27 12:02:33.37,96,-372,-2063,211,92,45,-190,-1094,904,642
,173,2023-10-27 12:02:33.38,121,-391,-2040,193,80,47,-126,-977,851,551
,174,2023-10-27 12:02:33.39,107,-413,-1985,200,87,49,-186,-1075,889,630
,175,2023-10-27 12:02:33.40,122,-402,-1973,196,97,47,-123,-970,847,546
,176,2023-10-27 12:02:33.41,105,-417,-2001,205,111,44,-196,-1071,875,633
,177,2023-10-27 12:02:33.42,118,-429,-1980,217,117,45,-127,-948,821,537
,178,2023-10-27 12:02:33.43,134,-410,-1988,223,120,46,-183,-1045,862,614
,179,2023-10-27 12:02:33.44,132,-419,-2001,224,117,46,-116,-954,838,535
,180,2023-10-27 12:02:33.45,116,-419,-2008,219,122,43,-182,-1083,901,632
,181,2023-10-27 12:02:33.46,126,-398,-2041,191,107,31,-120,-990,870,555
,182,2023-10-27 12:02:33.47,126,-417,-2039,159,84,32,-191,-1100,909,645
,183,2023-10-27 12:02:33.48,143,-425,-2015,132,64,30,-125,-977,852,551
,184,2023-10-27 12:02:33.49,132,-402,-2029,96,47,17,-190,-1079,889,634
,185,2023-10-27 12:02:33.50,134,-389,-2048,46,39,10,-122,-963,841,542
,186,2023-10-27 12:02:33.51,155,-395,-2042,6,8,-6,-196,-1082,886,639
,187,2023-10-27 12:02:33.52,135,-419,-2025,-28,10,-20,-125,-970,845,547
,188,2023-10-27 12:02:33.53,157,-397,-2016,-56,6,-31,-187,-1083,896,635
,189,2023-10-27 12:02:33.54,169,-427,-2044,-69,2,-37,-122,-977,855,549
,190,2023-10-27 12:02:33.55,155,-424,-2040,-74,4,-38,-208,-1112,904,660
,191,2023-10-27 12:02:33.56,142,-415,-2057,-82,-12,-39,-146,-1001,855,573
,192,2023-10-27 12:02:33.57,143,-426,-2072,-87,-38,-39,-218,-1115,897,666
,193,2023-10-27 12:02:33.58,134,-444,-2024,-89,-39,-27,-150,-992,842,571
,194,2023-10-27 12:02:33.59,134,-414,-2023,-88,-47,-24,-224,-1107,883,665
,195,2023-10-27 12:02:33.60,135,-408,-2045,-92,-58,-15,-154,-976,822,565
,196,2023-10-27 12:02:33.61,141,-462,-1991,-80,-61,-1,-227,-1092,865,659
,197,2023-10-27 12:02:33.62,126,-425,-1970,-76,-54,6,-163,-972,809,567
,198,2023-10-27 12:02:33.63,139,-447,-2015,-81,-56,16,-234,-1098,864,666
,199,2023-10-27 12:02:33.64,103,-460,-1994,-61,-71,30,-168,-976,808,572
,200,2023-10-27 12:02:33.65,93,-360,-2045,-113,-107,42,-233,-1089,856,661
,201,2023-10-27 12:02:33.66,168,-415,-2074,-220,-161,63,-163,-959,796,561
,202,2023-10-27 12:02:33.67,153,-541,-1956,-276,-136,104,-227,-1067,840,647
,203,2023-10-27 12:02:33.68,127,-460,-1943,-280,-52,110,-170,-952,782,561
,204,2023-10-27 12:02:33.69,99,-367,-2065,-272,-63,111,-245,-1070,825,657
,205,2023-10-27 12:02:33.70,43,-331,-2169,-233,-137,100,-175,-938,763,556
,206,2023-10-27 12:02:33.71,22,-230,-2177,-199,-248,61,-228,-1051,823,639
,207,2023-10-27 12:02:33.72,43,-205,-2175,-210,-331,14,-166,-937,771,551
,208,2023-10-27 12:02:33.73,51,-187,-2081,-234,-357,-17,-248,-1064,816,656
,209,2023-10-27 12:02:33.74,104,-157,-2013,-309,-359,-50,-190,-948,758,569
,210,2023-10-27 12:02:33.75,-34,-127,-2027,-382,-311,-40,-255,-1060,805,657
,211,2023-10-27 12:02:33.76,79,-128,-2050,-476,-342,-115,-186,-928,742,557
,212,2023-10-27 12:02:33.77,13,-262,-1988,-533,-277,-68,-255,-1029,774,642
,213,2023-10-27 12:02:33.78,20,-225,-2038,-521,-266,-100,-194,-903,709,548
,214,2023-10-27 12:02:33.79,-25,-184,-2152,-491,-234,-65,-281,-1044,763,662
,215,2023-10-27 12:02:33.80,-38,-98,-2171,-468,-276,-70,-231,-952,721,591
,216,2023-10-27 12:02:33.81,-21,-78,-2134,-481,-281,-74,-299,-1086,787,692
,217,2023-10-27 12:02:33.82,-19,-350,-2105,-415,-250,-99,-218,-956,738,587
,218,2023-10-27 12:02:33.83,77,-106,-1767,-184,-195,-138,-260,-1055,795,657
,219,2023-10-27 12:02:33.84,-79,-67,-1955,-184,-54,-56,-198,-932,734,565
,220,2023-10-27 12:02:33.85,-70,-136,-2071,11,-108,-85,-260,-1059,799,659
,221,2023-10-27 12:02:33.86,-115,-51,-2034,11,-72,-29,-211,-959,748,585
,222,2023-10-27 12:02:33.87,-79,-67,-2031,40,-48,-43,-242,-1045,803,643
,223,2023-10-27 12:02:33.88,-85,-104,-2019,26,27,-10,-168,-900,732,534
,224,2023-10-27 12:02:33.89,-65,-99,-2022,54,52,-5,-213,-1006,793,609
,225,2023-10-27 12:02:33.90,-82,-112,-2020,77,72,14,-159,-908,749,533
,226,2023-10-27 12:02:33.91,-48,-134,-2013,108,75,19,-188,-1031,843,609
,227,2023-10-27 12:02:33.92,-62,-156,-2025,148,94,29,-138,-929,791,533
,228,2023-10-27 12:02:33.93,-40,-161,-2044,180,110,36,-183,-1045,862,614
,229,2023-10-27 12:02:33.94,-35,-181,-2047,193,128,40,-144,-945,801,544
,230,2023-10-27 12:02:33.95,-21,-196,-2056,203,136,40,-174,-1061,887,617
,231,2023-10-27 12:02:33.96,-18,-197,-2054,207,158,41,-135,-962,827,548
,232,2023-10-27 12:02:33.97,-4,-225,-2042,207,160,37,-175,-1076,901,625
,233,2023-10-27 12:02:33.98,25,-234,-2044,214,145,29,-145,-977,832,561
,234,2023-10-27 12:02:33.99,24,-255,-2035,220,150,26,-189,-1088,899,638
,235,2023-10-27 12:02:34.00,48,-283,-2024,224,148,19,-150,-981,831,565
,236,2023-10-27 12:02:34.01,51,-293,-2020,225,132,6,-187,-1079,892,633
,237,2023-10-27 12:02:34.02,79,-297,-2021,221,144,0,-151,-972,821,561
,238,2023-10-27 12:02:34.03,59,-312,-2022,211,151,-11,-189,-1080,891,634
,239,2023-10-27 12:02:34.04,84,-317,-2028,197,147,-20,-162,-992,830,577
,240,2023-10-27 12:02:34.05,69,-322,-2038,182,139,-32,-201,-1090,889,645
,241,2023-10-27 12:02:34.06,65,-329,-2063,171,141,-45,-167,-986,819,576
,242,2023-10-27 12:02:34.07,52,-320,-2051,176,126,-67,-201,-1076,875,638
,243,2023-10-27 12:02:34.08,76,-305,-2058,193,132,-100,-175,-986,811,580
,244,2023-10-27 12:02:34.09,137,-322,-1965,205,110,-128,-211,-1092,881,651
,245,2023-10-27 12:02:34.10,114,-416,-1897,221,163,-99,-183,-998,815,590
,246,2023-10-27 12:02:34.11,78,-322,-1973,231,178,-114,-207,-1076,869,641
,247,2023-10-27 12:02:34.12,79,-310,-2138,190,153,-125,-183,-980,797,581
,248,2023-10-27 12:02:34.13,94,-339,-2078,140,81,-107,-214,-1064,850,639
,249,2023-10-27 12:02:34.14,113,-370,-2029,108,71,-96,-196,-977,781,586
,250,2023-10-27 12:02:34.15,103,-376,-2040,64,76,-89,-222,-1055,833,638
,251,2023-10-27 12:02:34.16,124,-378,-2028,31,77,-87,-214,-974,760,594
,252,2023-10-27 12:02:34.17,106,-405,-2013,38,74,-91,-251,-1046,795,648
,253,2023-10-27 12:02:34.18,143,-414,-2014,60,47,-91,-228,-958,730,593
,254,2023-10-27 12:02:34.19,151,-419,-1986,68,41,-81,-255,-1049,794,652
,255,2023-10-27 12:02:34.20,158,-435,-1985,69,60,-63,-244,-994,750,619
,256,2023-10-27 12:02:34.21,149,-444,-2020,54,71,-52,-272,-1078,806,675
,257,2023-10-27 12:02:34.22,143,-436,-2056,41,78,-31,-253,-1005,752,629
,258,2023-10-27 12:02:34.23,125,-438,-2061,34,71,-8,-271,-1077,806,674
,259,2023-10-27 12:02:34.24,144,-432,-2057,18,7,38,-242,-1010,768,626
,260,2023-10-27 12:02:34.25,161,-428,-2027,16,-14,63,-249,-1076,827,662
,261,2023-10-27 12:02:34.26,157,-439,-2012,13,6,87,-231,-1021,790,626
,262,2023-10-27 12:02:34.27,146,-437,-2011,18,18,101,-236,-1092,856,664
,263,2023-10-27 12:02:34.28,146,-404,-2052,26,14,118,-215,-1031,816,623
,264,2023-10-27 12:02:34.29,154,-389,-2067,25,-17,137,-210,-1086,876,648
,265,2023-10-27 12:02:34.30,153,-406,-2049,18,-37,156,-190,-1028,838,609
,266,2023-10-27 12:02:34.31,130,-389,-2061,16,-43,164,-187,-1083,896,635
,267,2023-10-27 12:02:34.32,125,-354,-2056,8,-66,167,-187,-1041,854,614
,268,2023-10-27 12:02:34.33,118,-353,-2072,16,-86,165,-188,-1094,906,641
,269,2023-10-27 12:02:34.34,81,-327,-2033,36,-112,150,-191,-1048,857,619
,270,2023-10-27 12:02:34.35,86,-305,-2046,56,-136,124,-184,-1090,906,637
,271,2023-10-27 12:02:34.36,87,-283,-2049,69,-155,95,-190,-1050,860,620
,272,2023-10-27 12:02:34.37,85,-240,-1997,70,-168,63,-191,-1091,900,641
,273,2023-10-27 12:02:34.38,103,-235,-1994,29,-160,37,-193,-1048,855,620
,274,2023-10-27 12:02:34.39,86,-268,-2000,-31,-142,24,-192,-1074,882,633
,275,2023-10-27 12:02:34.40,24,-289,-2046,-91,-102,18,-198,-1041,843,619
,276,2023-10-27 12:02:34.41,9,-270,-2120,-148,-111,27,-190,-1075,885,632
,277,2023-10-27 12:02:34.42,33,-286,-2114,-234,-138,48,-195,-1041,846,618
,278,2023-10-27 12:02:34.43,9,-349,-2082,-294,-127,73,-186,-1068,882,627
,279,2023-10-27 12:02:34.44,7,-345,-2038,-342,-120,95,-194,-1040,846,617
,280,2023-10-27 12:02:34.45,66,-457,-2096,-341,-121,101,-193,-1068,875,630
,281,2023-10-27 12:02:34.46,-5,-309,-1932,-205,-100,112,-213,-1058,845,635
,282,2023-10-27 12:02:34.47,23,-211,-2047,-233,-128,115,-204,-1086,882,645
,283,2023-10-27 12:02:34.48,-9,-283,-2015,-155,-124,148,-226,-1070,844,648
,284,2023-10-27 12:02:34.49,8,-184,-1989,-146,-120,125,-192,-1076,884,634
,285,2023-10-27 12:02:34.50,0,-197,-1988,-114,-51,134,-207,-1061,854,634
,286,2023-10-27 12:02:34.51,-5,-177,-1993,-73,-27,112,-192,-1072,880,632
,287,2023-10-27 12:02:34.52,-9,-179,-2012,-27,14,120,-216,-1062,846,639
,288,2023-10-27 12:02:34.53,-12,-151,-2017,13,39,94,-190,-1072,882,631
,289,2023-10-27 12:02:34.54,-5,-155,-2042,35,71,81,-195,-1063,868,629
,290,2023-10-27 12:02:34.55,-3,-162,-2028,80,83,57,-174,-1067,893,620
,291,2023-10-27 12:02:34.56,-6,-162,-2033,111,94,35,-206,-1066,860,636
,292,2023-10-27 12:02:34.57,8,-178,-2036,135,94,10,-183,-1066,883,624
,293,2023-10-27 12:02:34.58,11,-192,-2036,151,100,-10,-199,-1064,865,631
,294,2023-10-27 12:02:34.59,25,-218,-2026,173,97,-29,-166,-1060,894,613
,295,2023-10-27 12:02:34.60,23,-227,-2034,177,96,-46,-193,-1058,865,625
,296,2023-10-27 12:02:34.61,35,-244,-2035,182,88,-63,-165,-1051,886,608
,297,2023-10-27 12:02:34.62,36,-260,-2049,182,80,-69,-206,-1066,860,636
,298,2023-10-27 12:02:34.63,40,-278,-2047,182,74,-75,-177,-1058,881,617
,299,2023-10-27 12:02:34.64,47,-289,-2043,180,62,-77,-211,-1072,861,641
,300,2023-10-27 12:02:34.65,53,-310,-2023,177,59,-78,-170,-1055,885,612
,301,2023-10-27 12:02:34.66,56,-328,-2013,169,61,-79,-216,-1076,860,646
,302,2023-10-27 12:02:34.67,64,-337,-2020,158,70,-79,-177,-1058,881,617
,303,2023-10-27 12:02:34.68,70,-347,-2033,144,75,-74,-217,-1076,859,646
,304,2023-10-27 12:02:34.69,68,-362,-2030,134,85,-72,-176,-1047,871,611
,305,2023-10-27 12:02:34.70,82,-345,-2024,128,101,-76,-227,-1080,853,653
,306,2023-10-27 12:02:34.71,81,-348,-2024,126,110,-93,-185,-1056,871,620
,307,2023-10-27 12:02:34.72,136,-403,-1980,134,121,-103,-232,-1086,854,659
,308,2023-10-27 12:02:34.73,92,-441,-1962,160,177,-74,-183,-1053,870,618
,309,2023-10-27 12:02:34.74,73,-391,-2085,155,179,-68,-216,-1072,856,644
,310,2023-10-27 12:02:34.75,105,-343,-2147,123,116,-37,-167,-1031,864,599
,311,2023-10-27 12:02:34.76,84,-369,-2098,82,66,-36,-220,-1076,856,648
,312,2023-10-27 12:02:34.77,125,-470,-2021,43,20,-19,-172,-1041,869,606
,313,2023-10-27 12:02:34.78,128,-433,-1981,24,39,-6,-228,-1088,860,658
,314,2023-10-27 12:02:34.79,136,-412,-2037,4,52,-13,-174,-1040,866,607
,315,2023-10-27 12:02:34.80,147,-410,-2020,-22,51,-14,-229,-1082,853,655
,316,2023-10-27 12:02:34.81,149,-427,-2003,-29,53,-15,-170,-1029,859,599
,317,2023-10-27 12:02:34.82,128,-415,-2032,-36,60,-23,-219,-1071,852,645
,318,2023-10-27 12:02:34.83,141,-373,-2071,-59,33,-38,-163,-1018,855,590
,319,2023-10-27 12:02:34.84,140,-397,-2051,-82,-6,-35,-226,-1084,858,655
,320,2023-10-27 12:02:34.85,137,-422,-2027,-102,-29,-37,-177,-1033,856,605
,321,2023-10-27 12:02:34.86,132,-403,-2055,-136,-49,-34,-222,-1088,866,655
,322,2023-10-27 12:02:34.87,140,-401,-2057,-161,-78,-30,-164,-1025,861,594
,323,2023-10-27 12:02:34.88,147,-429,-2018,-170,-89,-17,-214,-1080,866,647
,324,2023-10-27 12:02:34.89,143,-421,-2008,-171,-74,-12,-167,-1027,860,597
,325,2023-10-27 12:02:34.90,121,-396,-2017,-178,-52,-4,-220,-1096,876,658
,326,2023-10-27 12:02:34.91,114,-378,-2034,-176,-57,0,-167,-1036,869,601
,327,2023-10-27 12:02:34.92,129,-379,-2032,-175,-74,6,-212,-1091,879,651
,328,2023-10-27 12:02:34.93,106,-364,-2015,-171,-76,12,-159,-1020,861,589
,329,2023-10-27 12:02:34.94,94,-348,-2034,-166,-66,17,-222,-1090,868,656
,330,2023-10-27 12:02:34.95,70,-315,-2055,-161,-79,23,-167,-1024,857,595
,331,2023-10-27 12:02:34.96,72,-321,-2051,-150,-87,28,-223,-1099,876,661
,332,2023-10-27 12:02:34.97,70,-324,-2012,-128,-80,29,-164,-1028,864,596
,333,2023-10-27 12:02:34.98,75,-280,-1994,-103,-61,27,-224,-1103,879,663
,334,2023-10-27 12:02:34.99,39,-262,-2038,-87,-47,34,-171,-1025,854,598
,335,2023-10-27 12:02:35.00,22,-243,-2088,-76,-57,28,-234,-1105,871,669
,336,2023-10-27 12:02:35.01,49,-205,-2080,-76,-86,26,-169,-1024,855,596
,337,2023-10-27 12:02:35.02,54,-228,-2037,-88,-90,18,-225,-1095,870,660
,338,2023-10-27 12:02:35.03,16,-239,-2034,-87,-67,21,-161,-1012,851,586
,339,2023-10-27 12:02:35.04,8,-184,-2069,-100,-80,15,-229,-1092,863,660
,340,2023-10-27 12:02:35.05,6,-174,-2088,-120,-103,19,-167,-1010,843,588
,341,2023-10-27 12:02:35.06,13,-196,-2040,-130,-121,13,-251,-1113,862,682
,342,2023-10-27 12:02:35.07,12,-208,-2030,-148,-104,18,-182,-1029,847,605
,343,2023-10-27 12:02:35.08,58,-334,-2044,-133,-87,6,-246,-1116,870,681
,344,2023-10-27 12:02:35.09,24,-157,-1943,-10,-37,-21,-172,-1016,844,594
,345,2023-10-27 12:02:35.10,23,-120,-2062,-86,-24,-27,-244,-1108,864,676
,346,2023-10-27 12:02:35.11,7,-252,-2015,-28,-8,-6,-176,-1011,835,593
,347,2023-10-27 12:02:35.12,-6,-175,-2060,-34,-4,-8,-254,-1108,854,681
,348,2023-10-27 12:02:35.13,20,-186,-2077,-10,-16,-7,-176,-1008,832,592
,349,2023-10-27 12:02:35.14,23,-207,-1996,-6,1,8,-232,-1102,870,667
,350,2023-10-27 12:02:35.15,18,-211,-2055,8,14,5,-166,-1004,838,585
,351,2023-10-27 12:02:35.16,22,-201,-2082,18,15,14,-264,-1115,851,689
,352,2023-10-27 12:02:35.17,36,-203,-2048,32,-2,7,-195,-1010,815,602
,353,2023-10-27 12:02:35.18,36,-219,-2027,56,-1,1,-248,-1112,864,680
,354,2023-10-27 12:02:35.19,46,-211,-2044,87,0,-5,-164,-1002,838,583
,355,2023-10-27 12:02:35.20,41,-221,-2039,110,-1,-14,-224,-1100,876,662
,356,2023-10-27 12:02:35.21,41,-247,-2029,132,2,-16,-162,-991,829,576
,357,2023-10-27 12:02:35.22,33,-262,-2048,147,13,-18,-215,-1091,876,653
,358,2023-10-27 12:02:35.23,41,-262,-2049,164,17,-22,-144,-989,845,566
,359,2023-10-27 12:02:35.24,44,-280,-2031,172,29,-19,-204,-1106,902,655
,360,2023-10-27 12:02:35.25,48,-296,-2030,177,42,-14,-146,-1003,857,574
,361,2023-10-27 12:02:35.26,54,-294,-2035,176,48,-8,-207,-1107,900,657
,362,2023-10-27 12:02:35.27,61,-315,-2028,181,54,1,-146,-995,849,570
,363,2023-10-27 12:02:35.28,60,-326,-2025,179,64,12,-213,-1103,890,658
,364,2023-10-27 12:02:35.29,74,-337,-2022,170,77,12,-149,-994,845,571
,365,2023-10-27 12:02:35.30,66,-335,-2017,162,88,18,-220,-1111,891,665
,366,2023-10-27 12:02:35.31,70,-335,-2016,153,105,22,-154,-1003,849,578
,367,2023-10-27 12:02:35.32,65,-345,-2012,141,115,26,-229,-1121,892,675
,368,2023-10-27 12:02:35.33,68,-348,-2019,138,126,22,-154,-1005,851,579
,369,2023-10-27 12:02:35.34,64,-328,-2029,143,135,9,-228,-1118,890,673
,370,2023-10-27 12:02:35.35,81,-316,-2018,143,139,-12,-156,-1001,845,578
,371,2023-10-27 12:02:35.36,107,-322,-2016,138,136,-18,-230,-1121,891,675
,372,2023-10-27 12:02:35.37,144,-411,-1956,129,142,-2,-162,-1009,847,585
,373,2023-10-27 12:02:35.38,41,-397,-1978,139,194,18,-241,-1131,890,686
,374,2023-10-27 12:02:35.39,94,-396,-2133,114,145,21,-167,-1008,841,587
,375,2023-10-27 12:02:35.40,98,-373,-2075,69,114,60,-235,-1118,883,676
,376,2023-10-27 12:02:35.41,115,-398,-2037,63,73,64,-165,-997,832,581
,377,2023-10-27 12:02:35.42,113,-412,-2055,30,71,74,-246,-1123,877,684
,378,2023-10-27 12:02:35.43,120,-400,-2043,21,61,77,-187,-1003,816,595
,379,2023-10-27 12:02:35.44,117,-395,-2046,22,52,83,-288,-1117,829,702
,380,2023-10-27 12:02:35.45,114,-354,-2046,19,25,66,-227,-993,766,610
,381,2023-10-27 12:02:35.46,124,-354,-2046,-3,18,63,-317,-1117,800,717
,382,2023-10-27 12:02:35.47,130,-376,-2038,-15,1,51,-249,-997,748,623
,383,2023-10-27 12:02:35.48,126,-376,-2044,-34,-9,46,-335,-1123,788,729
,384,2023-10-27 12:02:35.49,116,-364,-2054,-47,-27,34,-258,-1001,743,629
,385,2023-10-27 12:02:35.50,115,-352,-2044,-75,-50,32,-317,-1122,805,719
,386,2023-10-27 12:02:35.51,124,-379,-2036,-102,-65,32,-228,-996,768,612
,387,2023-10-27 12:02:35.52,122,-414,-2014,-137,-64,55,-275,-1112,837,693
,388,2023-10-27 12:02:35.53,115,-417,-2026,-155,-39,76,-194,-988,794,591
,389,2023-10-27 12:02:35.54,74,-380,-2054,-146,-36,89,-235,-1110,875,672
,390,2023-10-27 12:02:35.55,56,-337,-2078,-123,-62,93,-165,-994,829,579
,391,2023-10-27 12:02:35.56,49,-303,-2080,-103,-101,85,-224,-1117,893,670
,392,2023-10-27 12:02:35.57,67,-274,-2044,-99,-142,75,-168,-1005,837,586
,393,2023-10-27 12:02:35.58,68,-271,-2046,-119,-156,65,-228,-1127,899,677
,394,2023-10-27 12:02:35.59,44,-237,-2100,-147,-166,43,-165,-1009,844,587
,395,2023-10-27 12:02:35.60,47,-214,-2066,-182,-180,15,-224,-1126,902,675
,396,2023-10-27 12:02:35.61,99,-249,-1981,-188,-202,-8,-166,-1006,840,586
,397,2023-10-27 12:02:35.62,40,-289,-1949,-182,-154,-10,-232,-1120,888,676
,398,2023-10-27 12:02:35.63,22,-230,-2032,-192,-113,-29,-160,-997,837,578
,399,2023-10-27 12:02:35.64,25,-215,-2060,-195,-106,-27,-213,-1109,896,661
,400,2023-10-27 12:02:35.65,24,-241,-2019,-185,-98,-20,-158,-997,839,577
,401,2023-10-27 12:02:35.66,23,-255,-2016,-171,-75,-23,-223,-1128,905,675
,402,2023-10-27 12:02:35.67,21,-249,-2038,-161,-46,-20,-170,-1016,846,593
,403,2023-10-27 12:02:35.68,14,-228,-2065,-133,-44,-9,-230,-1128,898,679
,404,2023-10-27 12:02:35.69,26,-206,-2058,-117,-48,-2,-171,-1008,837,589
,405,2023-10-27 12:02:35.70,-7,-323,-2056,-71,-25,2,-217,-1117,900,667
,406,2023-10-27 12:02:35.71,27,-139,-1977,7,-31,-19,-164,-1000,836,582
,407,2023-10-27 12:02:35.72,31,-183,-2044,-12,-4,-12,-220,-1110,890,665
,408,2023-10-27 12:02:35.73,8,-243,-2014,70,13,1,-178,-1000,822,589
,409,2023-10-27 12:02:35.74,35,-159,-2037,78,9,-12,-226,-1113,887,669
,410,2023-10-27 12:02:35.75,58,-229,-1985,121,48,7,-175,-1005,830,590
,411,2023-10-27 12:02:35.76,16,-231,-2025,167,84,17,-213,-1116,903,664
,412,2023-10-27 12:02:35.77,34,-208,-2074,220,65,17,-181,-1013,832,597
,413,2023-10-27 12:02:35.78,45,-216,-2027,263,64,21,-224,-1118,894,671
,414,2023-10-27 12:02:35.79,52,-229,-2014,297,81,9,-174,-1007,833,590
,415,2023-10-27 12:02:35.80,43,-247,-2040,333,89,1,-209,-1101,892,655
,416,2023-10-27 12:02:35.81,52,-262,-2043,363,80,0,-169,-997,828,583
,417,2023-10-27 12:02:35.82,49,-265,-2027,376,83,-2,-213,-1095,882,654
,418,2023-10-27 12:02:35.83,60,-283,-2033,374,90,-8,-174,-995,821,584
,419,2023-10-27 12:02:35.84,66,-302,-2035,364,94,-8,-204,-1093,889,648
,420,2023-10-27 12:02:35.85,64,-313,-2032,350,99,-7,-169,-1000,831,584
,421,2023-10-27 12:02:35.86,63,-332,-2028,330,99,-6,-208,-1100,892,654
,422,2023-10-27 12:02:35.87,65,-342,-2032,307,102,-3,-172,-1000,828,586
,423,2023-10-27 12:02:35.88,68,-364,-2037,277,98,3,-201,-1088,887,644
,424,2023-10-27 12:02:35.89,69,-391,-2043,255,89,17,-168,-993,825,580
,425,2023-10-27 12:02:35.90,72,-401,-2046,229,80,26,-205,-1087,882,646
,426,2023-10-27 12:02:35.91,77,-403,-2043,199,73,38,-174,-997,823,585
,427,2023-10-27 12:02:35.92,72,-411,-2034,169,68,50,-204,-1084,880,644
,428,2023-10-27 12:02:35.93,78,-421,-2032,138,58,56,-185,-1005,820,595
,429,2023-10-27 12:02:35.94,82,-420,-2040,104,42,64,-219,-1101,882,660
,430,2023-10-27 12:02:35.95,85,-424,-2036,71,33,69,-190,-1018,828,604
,431,2023-10-27 12:02:35.96,86,-423,-2040,36,25,71,-214,-1094,880,654
,432,2023-10-27 12:02:35.97,92,-434,-2050,11,16,68,-192,-1011,819,601
,433,2023-10-27 12:02:35.98,84,-412,-2033,-12,0,59,-220,-1088,868,654
,434,2023-10-27 12:02:35.99,89,-395,-2015,-26,13,38,-201,-1019,818,610
,435,2023-10-27 12:02:36.00,183,-441,-1938,-33,11,19,-213,-1098,885,655
,436,2023-10-27 12:02:36.01,122,-533,-1872,-21,89,46,-208,-1029,821,618
,437,2023-10-27 12:02:36.02,90,-458,-2029,-17,107,41,-220,-1095,875,657
,438,2023-10-27 12:02:36.03,61,-374,-2153,-61,65,55,-208,-1022,814,615
,439,2023-10-27 12:02:36.04,90,-367,-2122,-101,-36,55,-204,-1081,877,642
,440,2023-10-27 12:02:36.05,96,-378,-2004,-142,-83,45,-196,-1022,826,609
,441,2023-10-27 12:02:36.06,114,-454,-2017,-166,-91,38,-210,-1082,872,646
,442,2023-10-27 12:02:36.07,101,-409,-2029,-187,-65,41,-202,-1021,819,611
,443,2023-10-27 12:02:36.08,113,-400,-2034,-186,-63,35,-210,-1076,866,643
,444,2023-10-27 12:02:36.09,103,-392,-2001,-185,-64,27,-210,-1028,818,619
,445,2023-10-27 12:02:36.10,99,-384,-2007,-171,-54,14,-219,-1086,867,652
,446,2023-10-27 12:02:36.11,96,-374,-2032,-154,-46,4,-203,-1024,821,613
,447,2023-10-27 12:02:36.12,83,-351,-2037,-141,-55,-12,-202,-1070,868,636
,448,2023-10-27 12:02:36.13,89,-363,-2036,-142,-71,-15,-198,-1023,825,610
,449,2023-10-27 12:02:36.14,71,-361,-2029,-133,-70,-20,-207,-1076,869,641
,450,2023-10-27 12:02:36.15,73,-355,-2029,-136,-69,-16,-214,-1038,824,626
,451,2023-10-27 12:02:36.16,85,-351,-2025,-135,-59,-8,-213,-1087,874,650
,452,2023-10-27 12:02:36.17,85,-335,-2014,-131,-44,-7,-214,-1037,823,625
,453,2023-10-27 12:02:36.18,67,-327,-2025,-127,-36,-3,-203,-1073,870,638
,454,2023-10-27 12:02:36.19,82,-327,-2030,-122,-36,1,-206,-1030,824,618
,455,2023-10-27 12:02:36.20,69,-310,-2027,-121,-36,14,-200,-1065,865,632
,456,2023-10-27 12:02:36.21,55,-299,-2050,-132,-45,21,-209,-1029,820,619
,457,2023-10-27 12:02:36.22,52,-305,-2051,-144,-61,35,-201,-1059,858,630
,458,2023-10-27 12:02:36.23,54,-310,-2062,-144,-62,59,-227,-1046,819,636
,459,2023-10-27 12:02:36.24,35,-291,-2053,-131,-80,69,-213,-1080,867,646
,460,2023-10-27 12:02:36.25,49,-270,-2051,-131,-87,79,-219,-1050,831,634
,461,2023-10-27 12:02:36.26,27,-268,-2051,-115,-81,87,-196,-1066,870,631
,462,2023-10-27 12:02:36.27,32,-224,-2042,-100,-80,82,-217,-1048,831,632
,463,2023-10-27 12:02:36.28,27,-222,-2042,-83,-83,83,-203,-1067,864,635
,464,2023-10-27 12:02:36.29,9,-230,-2035,-61,-90,80,-220,-1049,829,634
,465,2023-10-27 12:02:36.30,22,-220,-2043,-49,-94,66,-195,-1061,866,628
,466,2023-10-27 12:02:36.31,11,-226,-2026,-39,-61,53,-216,-1052,836,634
,467,2023-10-27 12:02:36.32,19,-337,-1993,-20,-11,64,-202,-1065,863,633
,468,2023-10-27 12:02:36.33,-35,-218,-2034,31,31,57,-219,-1059,840,639
,469,2023-10-27 12:02:36.34,-24,-161,-2124,38,16,30,-194,-1062,868,628
,470,2023-10-27 12:02:36.35,-6,-194,-2006,78,-15,29,-229,-1058,829,643
,471,2023-10-27 12:02:36.36,12,-236,-2010,70,3,28,-212,-1062,850,637
,472,2023-10-27 12:02:36.37,1,-249,-2024,76,52,29,-231,-1066,835,648
,473,2023-10-27 12:02:36.38,13,-222,-2055,64,62,26,-203,-1068,865,635
,474,2023-10-27 12:02:36.39,25,-258,-2022,85,48,28,-225,-1072,847,648
,475,2023-10-27 12:02:36.40,23,-263,-2010,97,51,36,-187,-1066,879,626
,476,2023-10-27 12:02:36.41,6,-269,-2030,92,72,33,-215,-1076,861,645
,477,2023-10-27 12:02:36.42,17,-276,-2046,89,76,31,-193,-1069,876,631
,478,2023-10-27 12:02:36.43,21,-281,-2040,94,76,35,-223,-1081,858,652
,479,2023-10-27 12:02:36.44,38,-287,-2043,93,67,34,-190,-1065,875,627
,480,2023-10-27 12:02:36.45,36,-294,-2037,89,58,33,-217,-1076,859,646
,481,2023-10-27 12:02:36.46,55,-305,-2044,87,46,25,-180,-1056,876,618
,482,2023-10-27 12:02:36.47,64,-301,-2049,88,45,26,-216,-1077,861,646
,483,2023-10-27 12:02:36.48,57,-310,-2050,84,42,18,-176,-1055,879,615
,484,2023-10-27 12:02:36.49,65,-319,-2042,75,46,12,-213,-1076,863,644
,485,2023-10-27 12:02:36.50,70,-332,-2039,65,46,5,-175,-1042,867,608
,486,2023-10-27 12:02:36.51,69,-331,-2046,60,30,-4,-227,-1077,850,652
,487,2023-10-27 12:02:36.52,79,-334,-2036,57,29,-7,-187,-1049,862,618
,488,2023-10-27 12:02:36.53,77,-325,-2046,47,24,-13,-218,-1077,859,647
,489,2023-10-27 12:02:36.54,74,-338,-2037,29,27,-16,-182,-1041,859,611
,490,2023-10-27 12:02:36.55,71,-352,-2031,9,33,-20,-231,-1076,845,653
,491,2023-10-27 12:02:36.56,75,-367,-2025,2,20,-20,-189,-1034,845,611
,492,2023-10-27 12:02:36.57,77,-371,-2021,1,9,-20,-239,-1078,839,658
,493,2023-10-27 12:02:36.58,93,-372,-2009,1,10,-12,-194,-1040,846,617
,494,2023-10-27 12:02:36.59,103,-389,-1973,-6,25,-2,-236,-1084,848,660
,495,2023-10-27 12:02:36.60,91,-426,-1983,11,69,18,-182,-1038,856,610
,496,2023-10-27 12:02:36.61,61,-398,-2001,78,118,-3,-234,-1083,849,658
,497,2023-10-27 12:02:36.62,67,-305,-2046,80,126,-3,-180,-1031,851,605
,498,2023-10-27 12:02:36.63,56,-274,-2080,59,77,-6,-237,-1089,852,663
,499,2023-10-27 12:02:36.64,92,-280,-2084,6,-3,3,-178,-1039,861,608
,500,2023-10-27 12:02:36.65,74,-371,-2083,-43,-24,-5,-231,-1094,863,662
,501,2023-10-27 12:02:36.66,110,-408,-2013,-79,-50,4,-168,-1030,862,599
,502,2023-10-27 12:02:36.67,96,-375,-1992,-88,-38,12,-224,-1086,862,655
,503,2023-10-27 12:02:36.68,95,-379,-2038,-92,-9,20,-161,-1021,860,591
,504,2023-10-27 12:02:36.69,90,-372,-2039,-96,13,31,-223,-1090,867,656
,505,2023-10-27 12:02:36.70,90,-367,-2026,-79,28,38,-166,-1025,859,595
,506,2023-10-27 12:02:36.71,80,-343,-2038,-54,34,45,-223,-1087,864,655
,507,2023-10-27 12:02:36.72,70,-307,-2052,-35,25,49,-165,-1015,850,590
,508,2023-10-27 12:02:36.73,76,-294,-2056,-29,8,49,-230,-1090,860,660
,509,2023-10-27 12:02:36.74,72,-299,-2057,-46,-15,58,-172,-1018,846,595
,510,2023-10-27 12:02:36.75,66,-302,-2079,-64,-37,56,-229,-1091,862,660
,511,2023-10-27 12:02:36.76,65,-301,-2054,-61,-51,52,-165,-1013,848,589
,512,2023-10-27 12:02:36.77,58,-292,-2037,-49,-53,43,-216,-1077,861,646
,513,2023-10-27 12:02:36.78,56,-286,-2043,-41,-56,39,-159,-1003,844,581
,514,2023-10-27 12:02:36.79,59,-254,-2034,-39,-60,25,-220,-1083,863,651
,515,2023-10-27 12:02:36.80,35,-252,-2033,-43,-72,26,-165,-1009,844,587
,516,2023-10-27 12:02:36.81,47,-257,-2031,-41,-80,15,-230,-1103,873,666
,517,2023-10-27 12:02:36.82,40,-263,-2024,-53,-91,14,-163,-1025,862,594
,518,2023-10-27 12:02:36.83,59,-281,-2009,-64,-84,10,-236,-1107,871,671
,519,2023-10-27 12:02:36.84,55,-304,-2006,-76,-56,15,-168,-1018,850,593
,520,2023-10-27 12:02:36.85,34,-296,-2039,-85,-34,9,-250,-1112,862,681
,521,2023-10-27 12:02:36.86,27,-279,-2065,-91,-30,18,-172,-1017,845,594
,522,2023-10-27 12:02:36.87,53,-285,-2035,-94,-37,16,-238,-1106,868,672
,523,2023-10-27 12:02:36.88,45,-297,-2007,-100,-18,24,-162,-1011,849,586
,524,2023-10-27 12:02:36.89,31,-279,-2038,-95,-2,22,-246,-1120,874,683
,525,2023-10-27 12:02:36.90,24,-263,-2059,-88,1,34,-180,-1024,844,602
,526,2023-10-27 12:02:36.91,26,-255,-2060,-73,-12,37,-252,-1114,862,683
,527,2023-10-27 12:02:36.92,61,-253,-2061,-57,-19,33,-171,-1009,838,590
,528,2023-10-27 12:02:36.93,27,-247,-1993,9,11,19,-252,-1109,857,680
,529,2023-10-27 12:02:36.94,35,-198,-2045,-8,21,13,-187,-1015,828,601
,530,2023-10-27 12:02:36.95,30,-253,-2066,21,13,11,-271,-1126,855,698
,531,2023-10-27 12:02:36.96,23,-231,-2037,33,-12,8,-192,-1022,830,607
,532,2023-10-27 12:02:36.97,43,-258,-2004,41,-6,8,-248,-1110,862,679
,533,2023-10-27 12:02:36.98,32,-269,-2007,48,24,17,-182,-1004,822,593
,534,2023-10-27 12:02:36.99,29,-251,-2057,52,31,13,-275,-1119,844,697
,535,2023-10-27 12:02:37.00,31,-255,-2055,48,31,25,-213,-1015,802,614
,536,2023-10-27 12:02:37.01,32,-250,-2033,38,41,19,-276,-1118,842,697
,537,2023-10-27 12:02:37.02,51,-252,-2045,38,36,15,-208,-1004,796,606
,538,2023-10-27 12:02:37.03,42,-257,-2048,38,31,11,-302,-1112,810,707
,539,2023-10-27 12:02:37.04,43,-263,-2045,36,30,12,-239,-1004,765,621
,540,2023-10-27 12:02:37.05,49,-261,-2057,35,26,7,-315,-1112,797,713
,541,2023-10-27 12:02:37.06,47,-266,-2051,35,8,2,-244,-1003,759,623
,542,2023-10-27 12:02:37.07,52,-273,-2039,32,10,2,-320,-1112,792,716
,543,2023-10-27 12:02:37.08,53,-280,-2052,31,18,3,-234,-1003,769,618
