// Data mode  : Full
// Data quality  : High
// Acceleration sensor's range  : 16g
// Gyroscope sensor's range  : 2000dps
//
//ARTIFACT,NUM,DATE,ACC_X,ACC_Y,ACC_Z,GYRO_X,GYRO_Y,GYRO_Z,EOG_L,EOG_R,EOG_H,EOG_V
,1,2023-10-27 11:37:33.52,160,-146,-2019,22,-47,897,38,-550,588,256
,2,2023-10-27 11:37:33.53,141,-132,-2031,14,-23,915,120,-487,607,183
,3,2023-10-27 11:37:33.54,156,-112,-2035,-3,-3,930,22,-559,581,268
,4,2023-10-27 11:37:33.55,136,-105,-2028,-5,-7,934,101,-497,598,198
,5,2023-10-27 11:37:33.56,115,-70,-2069,-14,-11,921,26,-571,597,272
,6,2023-10-27 11:37:33.57,135,-44,-2062,-36,-5,907,111,-509,620,199
,7,2023-10-27 11:37:33.58,145,-22,-2076,-65,-9,886,43,-570,613,263
,8,2023-10-27 11:37:33.59,137,-33,-2074,-99,-19,861,119,-480,599,180
,9,2023-10-27 11:37:33.60,143,-60,-2036,-115,-25,819,49,-556,605,253
,10,2023-10-27 11:37:33.61,146,-27,-2055,-109,-16,781,132,-483,615,175
,11,2023-10-27 11:37:33.62,166,-42,-2029,-98,-14,734,57,-549,606,246
,12,2023-10-27 11:37:33.63,146,-63,-2027,-88,-11,694,127,-467,594,170
,13,2023-10-27 11:37:33.64,138,-34,-2046,-80,-13,649,71,-530,601,229
,14,2023-10-27 11:37:33.65,154,-37,-2056,-80,-10,606,164,-444,608,140
,15,2023-10-27 11:37:33.66,136,-46,-2066,-78,-9,566,105,-516,621,205
,16,2023-10-27 11:37:33.67,142,-36,-2054,-81,11,525,182,-423,605,120
,17,2023-10-27 11:37:33.68,152,-37,-2048,-88,28,487,112,-502,614,195
,18,2023-10-27 11:37:33.69,130,-34,-2075,-105,38,451,187,-414,601,113
,19,2023-10-27 11:37:33.70,143,-18,-2094,-124,42,417,115,-498,613,191
,20,2023-10-27 11:37:33.71,127,-18,-2087,-139,46,380,188,-413,601,112
,21,2023-10-27 11:37:33.72,111,-49,-2077,-132,18,351,109,-516,625,203
,22,2023-10-27 11:37:33.73,104,-51,-2099,-111,-29,326,183,-431,614,124
,23,2023-10-27 11:37:33.74,125,-45,-2080,-88,-45,309,90,-527,617,218
,24,2023-10-27 11:37:33.75,97,-75,-2083,-73,-70,289,148,-431,579,141
,25,2023-10-27 11:37:33.76,121,-66,-2076,-60,-73,267,78,-539,617,230
,26,2023-10-27 11:37:33.77,106,-50,-2073,-34,-81,245,163,-444,607,140
,27,2023-10-27 11:37:33.78,105,-57,-2089,-17,-86,226,73,-554,627,240
,28,2023-10-27 11:37:33.79,99,-39,-2061,-2,-128,212,137,-455,592,159
,29,2023-10-27 11:37:33.80,81,-46,-2081,14,-146,199,56,-573,629,258
,30,2023-10-27 11:37:33.81,96,-60,-2080,21,-150,188,136,-467,603,165
,31,2023-10-27 11:37:33.82,88,-66,-2068,22,-177,184,64,-575,639,255
,32,2023-10-27 11:37:33.83,91,-52,-2058,22,-182,180,138,-468,606,165
,33,2023-10-27 11:37:33.84,115,-71,-2037,38,-180,178,60,-583,643,261
,34,2023-10-27 11:37:33.85,80,-58,-1987,87,-171,160,133,-482,615,174
,35,2023-10-27 11:37:33.86,93,-76,-2035,112,-148,146,76,-597,673,260
,36,2023-10-27 11:37:33.87,59,-69,-2070,96,-153,144,134,-488,622,177
,37,2023-10-27 11:37:33.88,77,-13,-2061,84,-161,142,54,-599,653,272
,38,2023-10-27 11:37:33.89,65,-40,-2063,86,-148,132,118,-489,607,185
,39,2023-10-27 11:37:33.90,89,-54,-2041,86,-141,130,59,-590,649,265
,40,2023-10-27 11:37:33.91,74,-53,-2009,77,-135,128,134,-462,596,164
,41,2023-10-27 11:37:33.92,55,-69,-2015,62,-118,124,63,-579,642,258
,42,2023-10-27 11:37:33.93,59,-74,-2042,41,-92,119,126,-467,593,170
,43,2023-10-27 11:37:33.94,46,-56,-2064,10,-69,116,83,-575,658,246
,44,2023-10-27 11:37:33.95,65,-53,-2073,-17,-75,118,157,-450,607,146
,45,2023-10-27 11:37:33.96,61,-84,-2050,-20,-93,121,100,-566,666,233
,46,2023-10-27 11:37:33.97,54,-81,-2028,-7,-90,116,156,-449,605,146
,47,2023-10-27 11:37:33.98,57,-96,-2016,3,-80,107,78,-568,646,245
,48,2023-10-27 11:37:33.99,52,-99,-2025,1,-73,103,130,-448,578,159
,49,2023-10-27 11:37:34.00,66,-79,-2022,12,-72,104,42,-576,618,267
,50,2023-10-27 11:37:34.01,53,-101,-2030,17,-50,97,86,-461,547,187
,51,2023-10-27 11:37:34.02,34,-86,-2041,29,-59,97,14,-584,598,285
,52,2023-10-27 11:37:34.03,28,-94,-2068,31,-45,94,70,-463,533,196
,53,2023-10-27 11:37:34.04,47,-101,-2069,41,-44,98,-2,-587,585,294
,54,2023-10-27 11:37:34.05,27,-84,-2046,68,-66,100,55,-462,517,203
,55,2023-10-27 11:37:34.06,31,-113,-2062,76,-54,98,-22,-583,561,302
,56,2023-10-27 11:37:34.07,11,-75,-2048,64,-41,94,22,-462,484,220
,57,2023-10-27 11:37:34.08,30,-50,-2071,56,-45,97,-44,-600,556,322
,58,2023-10-27 11:37:34.09,9,-30,-2063,42,-49,88,19,-484,503,232
,59,2023-10-27 11:37:34.10,-12,-23,-2076,9,-50,79,-37,-599,562,318
,60,2023-10-27 11:37:34.11,1,-23,-2121,-53,-67,84,21,-468,489,223
,61,2023-10-27 11:37:34.12,5,-21,-2077,-97,-80,79,-34,-596,562,315
,62,2023-10-27 11:37:34.13,6,-44,-2079,-106,-46,64,19,-478,497,229
,63,2023-10-27 11:37:34.14,-15,-38,-2068,-113,-45,52,-38,-601,563,319
,64,2023-10-27 11:37:34.15,9,-46,-2029,-139,-64,46,6,-476,482,235
,65,2023-10-27 11:37:34.16,1,-38,-2012,-139,-72,40,-52,-606,554,329
,66,2023-10-27 11:37:34.17,6,-15,-2041,-132,-40,16,7,-488,495,240
,67,2023-10-27 11:37:34.18,1,-10,-2020,-126,-32,6,-32,-598,566,315
,68,2023-10-27 11:37:34.19,17,-28,-2037,-131,-29,-13,5,-482,487,238
,69,2023-10-27 11:37:34.20,-2,-11,-2027,-133,-6,-31,-39,-606,567,322
,70,2023-10-27 11:37:34.21,3,-4,-2044,-134,9,-43,3,-491,494,244
,71,2023-10-27 11:37:34.22,21,-38,-2042,-136,12,-54,-43,-612,569,327
,72,2023-10-27 11:37:34.23,-7,-30,-2075,-125,20,-68,20,-480,500,230
,73,2023-10-27 11:37:34.24,-3,-51,-2062,-116,21,-73,-16,-596,580,306
,74,2023-10-27 11:37:34.25,-23,-55,-2064,-111,15,-73,35,-469,504,217
,75,2023-10-27 11:37:34.26,-9,-46,-2055,-93,18,-69,16,-586,602,285
,76,2023-10-27 11:37:34.27,-7,-55,-2065,-72,15,-67,51,-464,515,206
,77,2023-10-27 11:37:34.28,-4,-56,-2057,-58,14,-59,2,-572,574,285
,78,2023-10-27 11:37:34.29,-10,-58,-2061,-49,17,-45,44,-444,488,200
,79,2023-10-27 11:37:34.30,-5,-53,-2060,-36,25,-31,32,-559,591,263
,80,2023-10-27 11:37:34.31,5,-39,-2051,-32,33,-17,59,-450,509,195
,81,2023-10-27 11:37:34.32,28,-48,-2043,-29,40,0,10,-565,575,277
,82,2023-10-27 11:37:34.33,18,-33,-2044,-19,55,15,40,-449,489,204
,83,2023-10-27 11:37:34.34,25,-40,-2046,-16,68,29,22,-553,575,265
,84,2023-10-27 11:37:34.35,39,-41,-2039,-20,78,46,59,-438,497,189
,85,2023-10-27 11:37:34.36,36,-23,-2031,-15,84,60,37,-547,584,255
,86,2023-10-27 11:37:34.37,30,-22,-2044,-8,93,71,51,-446,497,197
,87,2023-10-27 11:37:34.38,29,-21,-2043,-7,99,80,32,-555,587,261
,88,2023-10-27 11:37:34.39,16,-13,-2019,-8,102,88,59,-447,506,194
,89,2023-10-27 11:37:34.40,47,0,-2048,-3,87,96,44,-547,591,251
,90,2023-10-27 11:37:34.41,43,-13,-2062,-5,81,96,50,-448,498,199
,91,2023-10-27 11:37:34.42,58,5,-2072,1,90,94,34,-548,582,257
,92,2023-10-27 11:37:34.43,48,12,-2059,8,103,84,54,-442,496,194
,93,2023-10-27 11:37:34.44,24,27,-2048,9,97,66,49,-533,582,242
,94,2023-10-27 11:37:34.45,40,48,-2075,-7,71,59,64,-431,495,183
,95,2023-10-27 11:37:34.46,55,30,-2082,-34,43,49,58,-527,585,234
,96,2023-10-27 11:37:34.47,68,33,-2088,-51,55,33,58,-433,491,187
,97,2023-10-27 11:37:34.48,48,21,-2084,-49,55,10,45,-532,577,243
,98,2023-10-27 11:37:34.49,36,29,-2071,-54,39,-11,45,-454,499,204
,99,2023-10-27 11:37:34.50,68,36,-2068,-64,29,-32,36,-563,599,263
,100,2023-10-27 11:37:34.51,72,39,-2073,-70,26,-59,39,-477,516,219
,101,2023-10-27 11:37:34.52,69,28,-2062,-63,35,-89,56,-553,609,248
,102,2023-10-27 11:37:34.53,80,27,-2058,-52,36,-125,64,-461,525,198
,103,2023-10-27 11:37:34.54,56,39,-2049,-42,24,-154,80,-540,620,230
,104,2023-10-27 11:37:34.55,69,24,-2050,-38,20,-183,66,-460,526,197
,105,2023-10-27 11:37:34.56,65,27,-2058,-34,24,-210,58,-541,599,241
,106,2023-10-27 11:37:34.57,47,17,-2061,-27,30,-236,42,-466,508,212
,107,2023-10-27 11:37:34.58,72,24,-2064,-15,25,-253,65,-545,610,240
,108,2023-10-27 11:37:34.59,50,30,-2041,-3,7,-278,60,-465,525,202
,109,2023-10-27 11:37:34.60,70,26,-2049,10,-2,-304,43,-551,594,254
,110,2023-10-27 11:37:34.61,67,31,-2058,10,23,-336,27,-483,510,228
,111,2023-10-27 11:37:34.62,42,29,-2050,16,29,-363,39,-565,604,263
,112,2023-10-27 11:37:34.63,61,24,-2050,28,24,-384,28,-486,514,229
,113,2023-10-27 11:37:34.64,69,25,-2038,43,12,-407,34,-542,576,254
,114,2023-10-27 11:37:34.65,93,38,-2032,57,26,-438,8,-480,488,236
,115,2023-10-27 11:37:34.66,94,66,-2016,64,51,-482,40,-548,588,254
,116,2023-10-27 11:37:34.67,96,103,-1996,74,78,-538,8,-493,501,242
,117,2023-10-27 11:37:34.68,101,125,-2004,77,105,-599,22,-544,566,261
,118,2023-10-27 11:37:34.69,105,118,-2031,74,138,-662,-7,-488,481,247
,119,2023-10-27 11:37:34.70,110,98,-2050,67,161,-726,25,-545,570,260
,120,2023-10-27 11:37:34.71,91,79,-2058,72,170,-780,-9,-500,491,254
,121,2023-10-27 11:37:34.72,103,47,-2074,79,166,-826,16,-546,562,265
,122,2023-10-27 11:37:34.73,83,35,-2064,90,155,-872,-26,-511,485,268
,123,2023-10-27 11:37:34.74,76,34,-2067,100,144,-909,12,-576,588,282
,124,2023-10-27 11:37:34.75,107,33,-2060,109,137,-946,-31,-554,523,292
,125,2023-10-27 11:37:34.76,91,16,-2061,126,116,-978,-15,-611,596,313
,126,2023-10-27 11:37:34.77,107,9,-2068,138,106,-1008,-70,-590,520,330
,127,2023-10-27 11:37:34.78,103,1,-2061,143,93,-1033,-52,-646,594,349
,128,2023-10-27 11:37:34.79,100,-10,-2063,155,82,-1056,-92,-621,529,356
,129,2023-10-27 11:37:34.80,109,-3,-2077,160,67,-1071,-43,-656,613,349
,130,2023-10-27 11:37:34.81,99,-19,-2086,161,49,-1080,-77,-626,549,351
,131,2023-10-27 11:37:34.82,112,-43,-2000,168,26,-1097,-32,-651,619,341
,132,2023-10-27 11:37:34.83,104,-31,-2050,185,35,-1106,-63,-618,555,340
,133,2023-10-27 11:37:34.84,93,-36,-2076,184,15,-1112,6,-620,626,307
,134,2023-10-27 11:37:34.85,109,-51,-2101,159,11,-1108,-21,-580,559,300
,135,2023-10-27 11:37:34.86,103,-71,-2059,146,-6,-1100,68,-563,631,247
,136,2023-10-27 11:37:34.87,114,-73,-2052,148,2,-1089,45,-527,572,241
,137,2023-10-27 11:37:34.88,97,-77,-2061,145,1,-1080,127,-508,635,190
,138,2023-10-27 11:37:34.89,116,-88,-2072,133,-4,-1067,80,-484,564,202
,139,2023-10-27 11:37:34.90,118,-94,-2038,129,-13,-1053,178,-460,638,141
,140,2023-10-27 11:37:34.91,113,-91,-2035,138,-10,-1040,132,-444,576,156
,141,2023-10-27 11:37:34.92,123,-85,-2055,140,-3,-1029,209,-415,624,103
,142,2023-10-27 11:37:34.93,119,-121,-2094,109,13,-1018,128,-419,547,145
,143,2023-10-27 11:37:34.94,101,-130,-2025,103,-1,-993,195,-402,597,103
,144,2023-10-27 11:37:34.95,112,-109,-2019,137,-13,-966,138,-418,556,140
,145,2023-10-27 11:37:34.96,118,-113,-2041,174,-28,-947,220,-397,617,88
,146,2023-10-27 11:37:34.97,111,-125,-2104,157,-10,-926,138,-424,562,143
,147,2023-10-27 11:37:34.98,110,-120,-2115,100,5,-905,199,-402,601,101
,148,2023-10-27 11:37:34.99,114,-127,-2098,47,17,-876,132,-440,572,154
,149,2023-10-27 11:37:35.00,105,-141,-2043,34,18,-848,222,-404,626,91
,150,2023-10-27 11:37:35.01,113,-144,-2058,43,11,-818,115,-444,559,164
,151,2023-10-27 11:37:35.02,107,-158,-2061,41,-5,-791,186,-406,592,110
,152,2023-10-27 11:37:35.03,121,-135,-2056,31,-5,-760,111,-452,563,170
,153,2023-10-27 11:37:35.04,89,-170,-1995,50,-38,-735,194,-412,606,109
,154,2023-10-27 11:37:35.05,120,-134,-1998,80,-34,-702,106,-456,562,175
,155,2023-10-27 11:37:35.06,97,-120,-2084,87,-29,-678,170,-423,593,126
,156,2023-10-27 11:37:35.07,109,-125,-2105,27,-18,-648,94,-461,555,183
,157,2023-10-27 11:37:35.08,119,-140,-2056,-30,-7,-626,170,-420,590,125
,158,2023-10-27 11:37:35.09,115,-130,-2051,-38,0,-605,80,-483,563,201
,159,2023-10-27 11:37:35.10,111,-133,-2051,-39,-5,-581,144,-439,583,147
,160,2023-10-27 11:37:35.11,95,-146,-2044,-52,-10,-556,64,-492,556,214
,161,2023-10-27 11:37:35.12,107,-140,-2038,-64,-8,-536,150,-444,594,147
,162,2023-10-27 11:37:35.13,113,-148,-2017,-61,-8,-513,75,-504,579,214
,163,2023-10-27 11:37:35.14,119,-150,-2019,-48,-6,-491,154,-440,594,143
,164,2023-10-27 11:37:35.15,131,-150,-2039,-41,9,-473,63,-505,568,221
,165,2023-10-27 11:37:35.16,116,-130,-2070,-45,21,-457,132,-447,579,157
,166,2023-10-27 11:37:35.17,112,-124,-2061,-64,29,-442,50,-514,564,232
,167,2023-10-27 11:37:35.18,116,-139,-2038,-71,42,-427,137,-444,581,153
,168,2023-10-27 11:37:35.19,122,-126,-2062,-67,55,-417,60,-520,580,230
,169,2023-10-27 11:37:35.20,130,-108,-2063,-66,53,-404,134,-452,586,159
,170,2023-10-27 11:37:35.21,153,-116,-2041,-71,59,-393,40,-529,569,244
,171,2023-10-27 11:37:35.22,109,-73,-2058,-59,71,-393,117,-456,573,169
,172,2023-10-27 11:37:35.23,151,-62,-2053,-65,63,-383,41,-538,579,248
,173,2023-10-27 11:37:35.24,132,-88,-2050,-84,63,-384,118,-463,581,172
,174,2023-10-27 11:37:35.25,125,-53,-2064,-93,67,-380,30,-547,577,258
,175,2023-10-27 11:37:35.26,119,-54,-2057,-96,56,-377,106,-463,569,178
,176,2023-10-27 11:37:35.27,138,-62,-2056,-104,42,-375,31,-549,580,259
,177,2023-10-27 11:37:35.28,131,-57,-2055,-116,34,-372,106,-472,578,183
,178,2023-10-27 11:37:35.29,156,-47,-2047,-131,18,-367,-11,-583,572,297
,179,2023-10-27 11:37:35.30,150,-49,-2049,-135,15,-365,43,-515,558,236
,180,2023-10-27 11:37:35.31,158,-50,-2046,-133,15,-357,-53,-626,573,339
,181,2023-10-27 11:37:35.32,150,-45,-2062,-135,16,-351,21,-549,570,264
,182,2023-10-27 11:37:35.33,143,-43,-2069,-137,10,-340,-74,-654,580,364
,183,2023-10-27 11:37:35.34,121,-38,-2074,-136,-2,-327,2,-562,564,280
,184,2023-10-27 11:37:35.35,149,-34,-2070,-139,-14,-311,-76,-657,581,366
,185,2023-10-27 11:37:35.36,143,-35,-2071,-144,-22,-297,11,-556,567,272
,186,2023-10-27 11:37:35.37,131,-33,-2073,-150,-22,-278,-50,-648,598,349
,187,2023-10-27 11:37:35.38,147,-33,-2075,-154,-28,-260,48,-533,581,242
,188,2023-10-27 11:37:35.39,123,-28,-2052,-152,-41,-245,-18,-622,604,320
,189,2023-10-27 11:37:35.40,140,-31,-2054,-139,-39,-224,45,-509,554,232
,190,2023-10-27 11:37:35.41,117,-9,-2073,-134,-47,-207,-18,-607,589,312
,191,2023-10-27 11:37:35.42,121,10,-2092,-139,-55,-187,58,-511,569,226
,192,2023-10-27 11:37:35.43,125,21,-2077,-148,-53,-169,-19,-613,594,316
,193,2023-10-27 11:37:35.44,103,0,-2049,-140,-71,-153,52,-508,560,228
,194,2023-10-27 11:37:35.45,127,-34,-2038,-123,-73,-134,-16,-612,596,314
,195,2023-10-27 11:37:35.46,106,10,-2064,-116,-66,-117,56,-498,554,221
,196,2023-10-27 11:37:35.47,98,35,-2086,-127,-64,-93,-27,-614,587,320
,197,2023-10-27 11:37:35.48,117,23,-2040,-134,-60,-80,55,-499,554,222
,198,2023-10-27 11:37:35.49,100,23,-2058,-130,-60,-68,-11,-613,602,312
,199,2023-10-27 11:37:35.50,111,36,-2052,-124,-61,-61,64,-496,560,216
,200,2023-10-27 11:37:35.51,105,34,-2052,-123,-45,-54,-8,-604,596,306
,201,2023-10-27 11:37:35.52,104,43,-2053,-121,-39,-46,65,-486,551,210
,202,2023-10-27 11:37:35.53,113,46,-2053,-108,-39,-37,12,-596,608,292
,203,2023-10-27 11:37:35.54,100,46,-2045,-99,-34,-31,86,-476,562,195
,204,2023-10-27 11:37:35.55,106,67,-2041,-93,-25,-32,24,-588,612,282
,205,2023-10-27 11:37:35.56,103,78,-2045,-88,-17,-35,89,-469,558,190
,206,2023-10-27 11:37:35.57,104,92,-2040,-75,-12,-43,33,-582,615,274
,207,2023-10-27 11:37:35.58,103,87,-2049,-62,-4,-51,95,-460,555,182
,208,2023-10-27 11:37:35.59,93,83,-2044,-50,-2,-62,35,-585,620,275
,209,2023-10-27 11:37:35.60,100,93,-2051,-44,4,-70,85,-468,553,191
,210,2023-10-27 11:37:35.61,95,90,-2050,-38,7,-76,24,-596,620,286
,211,2023-10-27 11:37:35.62,96,88,-2064,-33,12,-80,78,-474,552,198
,212,2023-10-27 11:37:35.63,93,80,-2062,-29,9,-80,35,-596,631,280
,213,2023-10-27 11:37:35.64,103,64,-2064,-29,10,-76,99,-466,565,183
,214,2023-10-27 11:37:35.65,112,62,-2049,-24,14,-72,54,-578,632,262
,215,2023-10-27 11:37:35.66,105,57,-2048,-10,30,-70,117,-446,563,164
,216,2023-10-27 11:37:35.67,87,87,-2062,2,42,-65,98,-558,656,230
,217,2023-10-27 11:37:35.68,85,79,-2061,-9,35,-57,149,-424,573,137
,218,2023-10-27 11:37:35.69,87,73,-2058,-31,31,-39,124,-542,666,209
,219,2023-10-27 11:37:35.70,101,59,-2076,-41,28,-25,161,-421,582,130
,220,2023-10-27 11:37:35.71,108,38,-2064,-37,29,-11,134,-530,664,198
,221,2023-10-27 11:37:35.72,112,36,-2049,-25,34,8,175,-399,574,112
,222,2023-10-27 11:37:35.73,113,39,-2037,-23,46,19,161,-518,679,178
,223,2023-10-27 11:37:35.74,106,41,-2040,-24,57,28,182,-403,585,110
,224,2023-10-27 11:37:35.75,115,54,-2061,-22,64,39,148,-524,672,188
,225,2023-10-27 11:37:35.76,102,56,-2078,-17,61,49,172,-399,571,113
,226,2023-10-27 11:37:35.77,105,57,-2075,-13,50,61,167,-512,679,172
,227,2023-10-27 11:37:35.78,90,70,-2071,-9,36,72,192,-390,582,99
,228,2023-10-27 11:37:35.79,106,60,-2065,-13,28,86,162,-509,671,173
,229,2023-10-27 11:37:35.80,98,67,-2059,-20,16,96,174,-394,568,110
,230,2023-10-27 11:37:35.81,106,53,-2064,-26,10,107,154,-507,661,176
,231,2023-10-27 11:37:35.82,104,45,-2076,-28,4,117,173,-390,563,108
,232,2023-10-27 11:37:35.83,99,46,-2073,-30,-9,132,146,-531,677,192
,233,2023-10-27 11:37:35.84,96,51,-2054,-33,-10,141,151,-427,578,138
,234,2023-10-27 11:37:35.85,118,52,-2052,-34,-9,147,130,-550,680,210
,235,2023-10-27 11:37:35.86,126,53,-2049,-35,-7,146,144,-427,571,141
,236,2023-10-27 11:37:35.87,116,70,-2042,-36,2,148,144,-528,672,192
,237,2023-10-27 11:37:35.88,125,74,-2038,-44,6,150,162,-402,564,120
,238,2023-10-27 11:37:35.89,132,42,-2030,-41,9,144,180,-510,690,165
,239,2023-10-27 11:37:35.90,100,65,-2049,-26,24,145,192,-393,585,100
,240,2023-10-27 11:37:35.91,104,80,-2051,-6,13,138,200,-489,689,144
,241,2023-10-27 11:37:35.92,125,78,-2039,16,-11,136,194,-376,570,91
,242,2023-10-27 11:37:35.93,161,75,-2046,35,-14,135,208,-482,690,137
,243,2023-10-27 11:37:35.94,141,95,-2051,35,16,121,198,-378,576,90
,244,2023-10-27 11:37:35.95,142,82,-2061,20,50,103,210,-480,690,135
,245,2023-10-27 11:37:35.96,142,72,-2061,18,53,90,187,-376,563,94
,246,2023-10-27 11:37:35.97,150,86,-2063,46,47,80,192,-475,667,141
,247,2023-10-27 11:37:35.98,130,86,-2045,88,35,59,185,-382,567,98
,248,2023-10-27 11:37:35.99,109,89,-2057,113,23,46,203,-486,689,141
,249,2023-10-27 11:37:36.00,122,106,-2087,104,15,29,180,-390,570,105
,250,2023-10-27 11:37:36.01,117,94,-2067,91,0,18,179,-488,667,154
,251,2023-10-27 11:37:36.02,116,86,-2047,104,-5,-1,160,-394,554,117
,252,2023-10-27 11:37:36.03,121,75,-2056,125,-12,-18,191,-498,689,153
,253,2023-10-27 11:37:36.04,124,70,-2040,127,-19,-30,169,-409,578,120
,254,2023-10-27 11:37:36.05,114,76,-2049,114,-19,-40,187,-501,688,157
,255,2023-10-27 11:37:36.06,112,65,-2064,104,-26,-46,161,-408,569,123
,256,2023-10-27 11:37:36.07,121,50,-2059,104,-30,-49,189,-498,687,154
,257,2023-10-27 11:37:36.08,124,33,-2062,107,-40,-52,164,-412,576,124
,258,2023-10-27 11:37:36.09,125,30,-2053,96,-47,-50,196,-497,693,150
,259,2023-10-27 11:37:36.10,117,39,-2055,79,-46,-46,162,-413,575,125
,260,2023-10-27 11:37:36.11,112,39,-2058,64,-53,-41,186,-496,682,155
,261,2023-10-27 11:37:36.12,107,28,-2070,41,-61,-28,154,-422,576,134
,262,2023-10-27 11:37:36.13,109,15,-2069,18,-74,-12,185,-506,691,160
,263,2023-10-27 11:37:36.14,117,13,-2065,-7,-78,4,146,-435,581,144
,264,2023-10-27 11:37:36.15,124,-29,-2021,-27,-77,20,190,-522,712,166
,265,2023-10-27 11:37:36.16,94,-1,-2054,-43,-59,37,142,-457,599,157
,266,2023-10-27 11:37:36.17,95,27,-2075,-70,-61,55,160,-543,703,191
,267,2023-10-27 11:37:36.18,115,27,-2097,-109,-57,76,112,-470,582,179
,268,2023-10-27 11:37:36.19,102,2,-2048,-138,-68,94,142,-535,677,196
,269,2023-10-27 11:37:36.20,96,1,-2037,-148,-73,115,119,-462,581,171
,270,2023-10-27 11:37:36.21,112,5,-2025,-153,-64,129,190,-524,714,167
,271,2023-10-27 11:37:36.22,102,29,-2062,-169,-53,140,145,-458,603,156
,272,2023-10-27 11:37:36.23,104,51,-2070,-193,-50,150,192,-512,704,160
,273,2023-10-27 11:37:36.24,92,32,-2043,-208,-43,159,132,-459,591,163
,274,2023-10-27 11:37:36.25,94,25,-2052,-203,-42,172,196,-511,707,157
,275,2023-10-27 11:37:36.26,78,45,-2067,-206,-41,175,154,-455,609,150
,276,2023-10-27 11:37:36.27,82,66,-2072,-214,-41,189,192,-504,696,156
,277,2023-10-27 11:37:36.28,78,74,-2079,-231,-48,199,136,-455,591,159
,278,2023-10-27 11:37:36.29,97,89,-2064,-246,-52,205,195,-507,702,156
,279,2023-10-27 11:37:36.30,77,101,-2056,-250,-63,205,142,-461,603,159
,280,2023-10-27 11:37:36.31,77,111,-2060,-248,-75,205,204,-505,709,150
,281,2023-10-27 11:37:36.32,79,112,-2067,-253,-78,200,144,-463,607,159
,282,2023-10-27 11:37:36.33,106,66,-2052,-257,-88,202,194,-505,699,155
,283,2023-10-27 11:37:36.34,40,134,-2021,-226,-69,184,129,-470,599,170
,284,2023-10-27 11:37:36.35,63,220,-2072,-208,-61,179,173,-515,688,171
,285,2023-10-27 11:37:36.36,91,113,-2071,-232,-97,181,119,-481,600,181
,286,2023-10-27 11:37:36.37,100,122,-2042,-245,-83,175,190,-513,703,161
,287,2023-10-27 11:37:36.38,61,166,-2019,-210,-62,163,124,-481,605,178
,288,2023-10-27 11:37:36.39,83,164,-2024,-179,-54,157,178,-506,684,164
,289,2023-10-27 11:37:36.40,89,143,-1991,-171,-29,150,118,-485,603,183
,290,2023-10-27 11:37:36.41,109,158,-2012,-164,0,141,191,-511,702,160
,291,2023-10-27 11:37:36.42,126,119,-1994,-140,28,133,126,-490,616,182
,292,2023-10-27 11:37:36.43,101,124,-2006,-98,75,125,178,-503,681,162
,293,2023-10-27 11:37:36.44,70,159,-2055,-78,95,119,109,-487,596,189
,294,2023-10-27 11:37:36.45,55,182,-2085,-100,87,135,174,-505,679,165
,295,2023-10-27 11:37:36.46,62,213,-2074,-121,62,141,102,-498,600,198
,296,2023-10-27 11:37:36.47,59,211,-2098,-131,35,150,170,-505,675,167
,297,2023-10-27 11:37:36.48,59,221,-2088,-141,-1,154,111,-501,612,195
,298,2023-10-27 11:37:36.49,69,195,-2067,-156,-29,159,185,-512,697,163
,299,2023-10-27 11:37:36.50,149,116,-2038,-162,-51,170,107,-516,623,204
,300,2023-10-27 11:37:36.51,46,218,-2027,-126,-16,139,167,-514,681,173
,301,2023-10-27 11:37:36.52,100,203,-2048,-91,-4,127,98,-516,614,209
,302,2023-10-27 11:37:36.53,77,177,-2048,-111,-18,129,175,-514,689,169
,303,2023-10-27 11:37:36.54,76,272,-2052,-133,-29,121,100,-530,630,215
,304,2023-10-27 11:37:36.55,90,229,-2063,-119,-36,106,164,-522,686,179
,305,2023-10-27 11:37:36.56,93,217,-2057,-96,-45,97,89,-530,619,220
,306,2023-10-27 11:37:36.57,84,206,-2033,-86,-49,93,168,-506,674,169
,307,2023-10-27 11:37:36.58,103,189,-2029,-97,-44,96,98,-522,620,212
,308,2023-10-27 11:37:36.59,88,200,-2033,-111,-35,101,163,-506,669,171
,309,2023-10-27 11:37:36.60,90,190,-2056,-108,-22,98,88,-532,620,222
,310,2023-10-27 11:37:36.61,88,194,-2037,-83,-14,97,166,-512,678,173
,311,2023-10-27 11:37:36.62,81,196,-2049,-72,-10,97,89,-540,629,225
,312,2023-10-27 11:37:36.63,77,217,-2051,-69,-18,93,158,-507,665,174
,313,2023-10-27 11:37:36.64,77,218,-2062,-66,-22,88,91,-537,628,223
,314,2023-10-27 11:37:36.65,76,186,-2056,-57,-35,91,161,-512,673,175
,315,2023-10-27 11:37:36.66,76,204,-2054,-40,-32,91,81,-547,628,233
,316,2023-10-27 11:37:36.67,88,173,-2043,-35,-30,99,157,-499,656,171
,317,2023-10-27 11:37:36.68,100,185,-2040,-45,-21,106,81,-543,624,231
,318,2023-10-27 11:37:36.69,88,191,-2054,-52,-16,116,163,-507,670,172
,319,2023-10-27 11:37:36.70,88,215,-2043,-49,-19,118,83,-559,642,238
,320,2023-10-27 11:37:36.71,99,211,-2047,-57,-30,133,160,-500,660,170
,321,2023-10-27 11:37:36.72,68,186,-2047,-76,-41,147,83,-553,636,235
,322,2023-10-27 11:37:36.73,62,227,-2059,-71,-52,147,157,-502,659,172
,323,2023-10-27 11:37:36.74,53,302,-2075,-41,-57,116,81,-558,639,238
,324,2023-10-27 11:37:36.75,69,282,-2037,-11,-70,100,162,-500,662,169
,325,2023-10-27 11:37:36.76,48,296,-2027,12,-67,75,84,-559,643,237
,326,2023-10-27 11:37:36.77,59,270,-2023,20,-57,50,162,-496,658,167
,327,2023-10-27 11:37:36.78,58,262,-2003,44,-27,24,78,-566,644,244
,328,2023-10-27 11:37:36.79,54,287,-2019,84,6,-1,144,-504,648,180
,329,2023-10-27 11:37:36.80,65,252,-2001,109,26,-15,81,-564,645,241
,330,2023-10-27 11:37:36.81,53,264,-2024,113,50,-27,169,-481,650,156
,331,2023-10-27 11:37:36.82,77,255,-2024,117,63,-37,93,-553,646,230
,332,2023-10-27 11:37:36.83,69,234,-2019,135,85,-48,167,-479,646,156
,333,2023-10-27 11:37:36.84,68,226,-2023,171,107,-58,84,-556,640,236
,334,2023-10-27 11:37:36.85,51,198,-1999,213,112,-67,153,-475,628,161
,335,2023-10-27 11:37:36.86,51,194,-2018,267,119,-64,84,-558,642,237
,336,2023-10-27 11:37:36.87,66,216,-2036,312,122,-67,156,-478,634,161
,337,2023-10-27 11:37:36.88,28,225,-2032,352,110,-70,89,-562,651,236
,338,2023-10-27 11:37:36.89,74,233,-2066,376,113,-70,163,-474,637,155
,339,2023-10-27 11:37:36.90,63,229,-2049,372,143,-74,87,-559,646,236
,340,2023-10-27 11:37:36.91,67,198,-2045,363,148,-76,154,-474,628,160
,341,2023-10-27 11:37:36.92,81,183,-2032,351,156,-72,79,-568,647,244
,342,2023-10-27 11:37:36.93,82,161,-2037,361,142,-66,154,-474,628,160
,343,2023-10-27 11:37:36.94,87,138,-2032,372,137,-61,76,-570,646,247
,344,2023-10-27 11:37:36.95,78,139,-2042,371,142,-56,150,-475,625,162
,345,2023-10-27 11:37:36.96,92,136,-2035,354,153,-51,81,-576,657,247
,346,2023-10-27 11:37:36.97,118,115,-2032,343,156,-37,144,-480,624,168
,347,2023-10-27 11:37:36.98,108,91,-2007,347,171,-31,74,-579,653,252
,348,2023-10-27 11:37:36.99,116,73,-2024,374,183,-22,142,-475,617,166
,349,2023-10-27 11:37:37.00,125,68,-2013,394,203,-20,64,-580,644,258
,350,2023-10-27 11:37:37.01,105,80,-2032,403,212,-19,122,-480,602,179
,351,2023-10-27 11:37:37.02,144,81,-2062,406,208,-11,39,-612,651,286
,352,2023-10-27 11:37:37.03,136,79,-2067,406,215,-11,103,-516,619,206
,353,2023-10-27 11:37:37.04,136,68,-2055,407,229,-12,8,-640,648,316
,354,2023-10-27 11:37:37.05,141,47,-2050,400,230,-11,68,-535,603,233
,355,2023-10-27 11:37:37.06,159,37,-2069,389,219,-13,-24,-667,643,345
,356,2023-10-27 11:37:37.07,152,43,-2069,373,212,-14,41,-560,601,259
,357,2023-10-27 11:37:37.08,189,45,-2057,354,199,-20,-16,-679,663,347
,358,2023-10-27 11:37:37.09,185,41,-2050,334,204,-29,59,-560,619,250
,359,2023-10-27 11:37:37.10,177,25,-2035,313,214,-41,-10,-669,659,339
,360,2023-10-27 11:37:37.11,200,-11,-2037,304,222,-49,54,-544,598,245
,361,2023-10-27 11:37:37.12,192,-23,-2045,296,233,-60,4,-650,654,323
,362,2023-10-27 11:37:37.13,178,-47,-2056,295,221,-60,83,-519,602,218
,363,2023-10-27 11:37:37.14,189,-21,-2066,290,210,-60,29,-630,659,300
,364,2023-10-27 11:37:37.15,197,-28,-2081,271,207,-63,82,-514,596,216
,365,2023-10-27 11:37:37.16,196,-40,-2066,253,189,-59,39,-626,665,293
,366,2023-10-27 11:37:37.17,203,-37,-2065,243,179,-63,103,-499,602,198
,367,2023-10-27 11:37:37.18,211,-36,-2077,230,165,-62,33,-625,658,296
,368,2023-10-27 11:37:37.19,212,-27,-2066,224,152,-70,99,-501,600,201
,369,2023-10-27 11:37:37.20,210,-42,-2047,214,144,-80,78,-615,693,268
,370,2023-10-27 11:37:37.21,227,-53,-2072,204,129,-87,140,-483,623,171
,371,2023-10-27 11:37:37.22,222,-45,-2070,179,127,-98,95,-592,687,248
,372,2023-10-27 11:37:37.23,223,-62,-2070,166,106,-105,136,-467,603,165
,373,2023-10-27 11:37:37.24,248,-74,-2070,160,91,-108,82,-597,679,257
,374,2023-10-27 11:37:37.25,248,-78,-2070,159,77,-110,124,-476,600,176
,375,2023-10-27 11:37:37.26,238,-80,-2047,145,81,-116,84,-607,691,261
,376,2023-10-27 11:37:37.27,245,-101,-2037,135,80,-116,132,-480,612,174
,377,2023-10-27 11:37:37.28,252,-127,-2038,132,71,-109,74,-610,684,268
,378,2023-10-27 11:37:37.29,282,-160,-2032,132,69,-93,118,-484,602,183
,379,2023-10-27 11:37:37.30,276,-178,-2022,142,74,-76,70,-610,680,270
,380,2023-10-27 11:37:37.31,270,-222,-2036,161,73,-59,97,-484,581,193
,381,2023-10-27 11:37:37.32,267,-240,-2050,171,86,-31,56,-601,657,272
,382,2023-10-27 11:37:37.33,255,-233,-2057,175,101,-8,101,-474,575,186
,383,2023-10-27 11:37:37.34,234,-207,-2086,172,92,22,78,-589,667,255
,384,2023-10-27 11:37:37.35,236,-164,-2078,157,71,48,106,-470,576,182
,385,2023-10-27 11:37:37.36,233,-107,-2060,104,52,78,46,-607,653,280
,386,2023-10-27 11:37:37.37,233,-98,-2053,82,56,80,63,-491,554,214
,387,2023-10-27 11:37:37.38,213,-110,-2051,68,32,84,26,-622,648,298
,388,2023-10-27 11:37:37.39,226,-94,-2031,56,13,88,70,-496,566,213
,389,2023-10-27 11:37:37.40,227,-47,-2022,51,20,78,44,-602,646,279
,390,2023-10-27 11:37:37.41,199,-13,-2030,43,38,52,84,-472,556,194
,391,2023-10-27 11:37:37.42,201,-1,-2053,30,43,27,69,-586,655,258
,392,2023-10-27 11:37:37.43,195,11,-2076,12,43,7,102,-457,559,177
,393,2023-10-27 11:37:37.44,203,-5,-2068,5,29,-17,84,-565,649,240
,394,2023-10-27 11:37:37.45,208,0,-2047,23,19,-40,123,-441,564,159
,395,2023-10-27 11:37:37.46,203,-6,-2042,44,29,-71,134,-537,671,201
,396,2023-10-27 11:37:37.47,200,-13,-2023,55,32,-103,164,-415,579,125
,397,2023-10-27 11:37:37.48,206,2,-2072,74,46,-130,146,-524,670,189
,398,2023-10-27 11:37:37.49,227,-7,-2076,84,52,-158,150,-410,560,130
,399,2023-10-27 11:37:37.50,209,-3,-2044,102,71,-188,158,-513,671,177
,400,2023-10-27 11:37:37.51,211,-9,-2003,153,69,-209,181,-392,573,105
,401,2023-10-27 11:37:37.52,242,-21,-2011,218,81,-230,169,-492,661,161
,402,2023-10-27 11:37:37.53,219,-42,-2062,257,81,-247,168,-384,552,108
,403,2023-10-27 11:37:37.54,224,-58,-2035,270,101,-254,168,-487,655,159
,404,2023-10-27 11:37:37.55,247,-61,-2053,276,119,-255,157,-391,548,117
,405,2023-10-27 11:37:37.56,218,-111,-2043,289,120,-251,130,-513,643,191
,406,2023-10-27 11:37:37.57,215,-151,-2068,309,106,-236,120,-415,535,147
,407,2023-10-27 11:37:37.58,242,-156,-2061,330,89,-216,125,-509,634,192
,408,2023-10-27 11:37:37.59,259,-158,-2065,334,98,-194,120,-411,531,145
,409,2023-10-27 11:37:37.60,251,-167,-2058,317,98,-172,122,-520,642,199
,410,2023-10-27 11:37:37.61,301,-183,-2016,304,101,-149,118,-420,538,151
,411,2023-10-27 11:37:37.62,320,-189,-1949,308,123,-133,138,-512,650,187
,412,2023-10-27 11:37:37.63,304,-209,-1948,321,134,-118,116,-421,537,152
,413,2023-10-27 11:37:37.64,322,-215,-1979,326,160,-103,124,-516,640,196
,414,2023-10-27 11:37:37.65,327,-242,-2000,323,183,-88,106,-430,536,162
,415,2023-10-27 11:37:37.66,324,-274,-2023,313,215,-68,131,-517,648,193
,416,2023-10-27 11:37:37.67,331,-284,-2037,316,212,-38,127,-422,549,147
,417,2023-10-27 11:37:37.68,342,-280,-2036,316,216,-14,151,-511,662,180
,418,2023-10-27 11:37:37.69,336,-291,-2040,314,221,11,120,-426,546,153
,419,2023-10-27 11:37:37.70,331,-298,-2043,308,215,34,119,-511,630,196
,420,2023-10-27 11:37:37.71,347,-287,-2069,302,213,54,101,-439,540,169
,421,2023-10-27 11:37:37.72,327,-272,-2085,281,195,68,142,-512,654,185
,422,2023-10-27 11:37:37.73,331,-256,-2083,263,164,90,122,-432,554,155
,423,2023-10-27 11:37:37.74,350,-241,-2068,237,150,101,162,-510,672,174
,424,2023-10-27 11:37:37.75,349,-254,-2039,215,133,107,144,-437,581,146
,425,2023-10-27 11:37:37.76,353,-254,-2065,193,135,108,197,-503,700,153
,426,2023-10-27 11:37:37.77,359,-291,-2031,159,117,112,145,-426,571,140
,427,2023-10-27 11:37:37.78,359,-282,-2004,143,102,120,173,-480,653,153
,428,2023-10-27 11:37:37.79,348,-279,-1990,151,91,125,132,-421,553,144
,429,2023-10-27 11:37:37.80,360,-283,-2003,170,77,127,142,-502,644,180
,430,2023-10-27 11:37:37.81,376,-281,-1986,190,72,127,101,-451,552,175
,431,2023-10-27 11:37:37.82,389,-286,-1968,212,70,121,148,-514,662,183
,432,2023-10-27 11:37:37.83,357,-305,-1958,233,68,113,109,-453,562,172
,433,2023-10-27 11:37:37.84,390,-308,-1959,244,77,108,161,-497,658,168
,434,2023-10-27 11:37:37.85,400,-348,-1959,250,95,104,122,-434,556,156
,435,2023-10-27 11:37:37.86,404,-384,-1961,267,114,104,175,-474,649,149
,436,2023-10-27 11:37:37.87,413,-424,-1956,298,123,105,142,-402,544,130
,437,2023-10-27 11:37:37.88,407,-434,-1911,352,132,108,206,-436,642,115
,438,2023-10-27 11:37:37.89,410,-450,-1951,402,147,113,180,-385,565,102
,439,2023-10-27 11:37:37.90,400,-476,-2003,412,144,124,268,-405,673,68
,440,2023-10-27 11:37:37.91,430,-463,-2011,410,137,140,189,-364,553,87
,441,2023-10-27 11:37:37.92,419,-444,-1995,438,141,145,244,-379,623,67
,442,2023-10-27 11:37:37.93,411,-448,-1997,471,145,136,215,-342,557,63
,443,2023-10-27 11:37:37.94,395,-435,-1993,467,137,131,321,-345,666,12
,444,2023-10-27 11:37:37.95,362,-410,-2023,433,119,128,254,-319,573,32
,445,2023-10-27 11:37:37.96,374,-382,-2069,367,87,128,322,-341,663,9
,446,2023-10-27 11:37:37.97,395,-357,-2084,306,60,128,252,-334,586,41
,447,2023-10-27 11:37:37.98,379,-346,-2045,268,34,112,329,-349,678,10
,448,2023-10-27 11:37:37.99,375,-377,-2042,235,30,91,254,-340,594,43
,449,2023-10-27 11:37:38.00,336,-350,-2028,188,2,75,330,-339,669,4
,450,2023-10-27 11:37:38.01,357,-342,-2038,124,-19,67,244,-328,572,42
,451,2023-10-27 11:37:38.02,381,-396,-2057,85,-37,66,320,-322,642,1
,452,2023-10-27 11:37:38.03,362,-408,-2043,84,-26,51,256,-314,570,29
,453,2023-10-27 11:37:38.04,350,-382,-1999,93,-33,42,337,-314,651,-11
,454,2023-10-27 11:37:38.05,322,-393,-1987,98,-76,48,256,-326,582,35
,455,2023-10-27 11:37:38.06,370,-436,-2005,77,-97,59,316,-327,643,5
,456,2023-10-27 11:37:38.07,367,-442,-2002,66,-82,50,224,-332,556,54
,457,2023-10-27 11:37:38.08,366,-415,-2003,81,-73,49,295,-323,618,14
,458,2023-10-27 11:37:38.09,374,-415,-1971,110,-79,52,208,-346,554,69
,459,2023-10-27 11:37:38.10,353,-438,-1947,139,-88,53,274,-348,622,37
,460,2023-10-27 11:37:38.11,353,-438,-1982,146,-78,49,202,-361,563,79
,461,2023-10-27 11:37:38.12,349,-414,-2008,143,-80,44,275,-348,623,36
,462,2023-10-27 11:37:38.13,340,-394,-2022,125,-85,42,188,-377,565,94
,463,2023-10-27 11:37:38.14,335,-410,-2037,119,-99,40,246,-369,615,61
,464,2023-10-27 11:37:38.15,331,-413,-2050,114,-107,38,168,-402,570,117
,465,2023-10-27 11:37:38.16,332,-415,-2054,107,-122,39,242,-384,626,71
,466,2023-10-27 11:37:38.17,318,-412,-2042,98,-134,45,158,-418,576,130
,467,2023-10-27 11:37:38.18,330,-428,-2026,91,-135,42,243,-397,640,77
,468,2023-10-27 11:37:38.19,316,-368,-2053,80,-135,41,169,-427,596,129
,469,2023-10-27 11:37:38.20,303,-381,-2061,48,-124,31,253,-393,646,70
,470,2023-10-27 11:37:38.21,288,-412,-1997,28,-142,27,170,-432,602,131
,471,2023-10-27 11:37:38.22,316,-396,-1996,21,-150,37,245,-401,646,78
,472,2023-10-27 11:37:38.23,344,-416,-2028,4,-126,31,160,-452,612,146
,473,2023-10-27 11:37:38.24,303,-428,-2003,-11,-87,25,240,-417,657,88
,474,2023-10-27 11:37:38.25,286,-398,-2000,4,-96,23,144,-473,617,164
,475,2023-10-27 11:37:38.26,295,-400,-2042,-25,-86,30,200,-429,629,114
,476,2023-10-27 11:37:38.27,274,-407,-2020,-63,-98,32,168,-468,636,150
,477,2023-10-27 11:37:38.28,287,-393,-2028,-69,-96,40,240,-433,673,96
,478,2023-10-27 11:37:38.29,280,-439,-1942,-40,-119,44,128,-496,624,184
,479,2023-10-27 11:37:38.30,298,-409,-1991,-17,-89,48,193,-430,623,118
,480,2023-10-27 11:37:38.31,262,-442,-1999,-29,-113,52,126,-473,599,173
,481,2023-10-27 11:37:38.32,301,-419,-2019,-55,-76,62,200,-423,623,111
,482,2023-10-27 11:37:38.33,273,-412,-1998,-33,-76,57,116,-515,631,199
,483,2023-10-27 11:37:38.34,302,-406,-2004,2,-49,57,190,-474,664,142
,484,2023-10-27 11:37:38.35,243,-385,-2031,-6,-47,55,106,-539,645,216
,485,2023-10-27 11:37:38.36,263,-399,-2011,-35,-50,60,180,-466,646,143
,486,2023-10-27 11:37:38.37,269,-394,-2028,-60,-24,65,109,-523,632,207
,487,2023-10-27 11:37:38.38,283,-408,-2008,-51,-26,71,173,-459,632,143
,488,2023-10-27 11:37:38.39,285,-437,-2025,-36,-24,82,95,-541,636,223
,489,2023-10-27 11:37:38.40,260,-447,-2032,-32,-28,86,168,-470,638,151
,490,2023-10-27 11:37:38.41,273,-447,-1976,-34,-30,92,74,-550,624,238
,491,2023-10-27 11:37:38.42,286,-455,-1956,-11,-30,99,145,-476,621,165
,492,2023-10-27 11:37:38.43,266,-445,-1978,23,-27,95,70,-568,638,249
,493,2023-10-27 11:37:38.44,276,-422,-1984,54,-42,104,139,-494,633,177
,494,2023-10-27 11:37:38.45,282,-423,-1992,63,-20,102,40,-597,637,278
,495,2023-10-27 11:37:38.46,270,-435,-2017,67,-22,100,92,-520,612,214
,496,2023-10-27 11:37:38.47,302,-424,-2031,63,-18,95,8,-630,638,311
,497,2023-10-27 11:37:38.48,274,-443,-2005,71,-31,94,80,-552,632,236
,498,2023-10-27 11:37:38.49,301,-418,-2026,64,-2,83,11,-644,655,316
,499,2023-10-27 11:37:38.50,298,-436,-1985,53,-9,83,80,-550,630,235
,500,2023-10-27 11:37:38.51,294,-456,-1960,29,19,83,4,-646,650,321
,501,2023-10-27 11:37:38.52,323,-467,-1967,22,46,84,78,-544,622,233
,502,2023-10-27 11:37:38.53,273,-449,-1988,31,47,80,-15,-653,638,334
,503,2023-10-27 11:37:38.54,244,-471,-2000,31,36,80,52,-561,613,254
,504,2023-10-27 11:37:38.55,265,-436,-2013,22,28,84,-5,-647,642,326
,505,2023-10-27 11:37:38.56,263,-414,-2000,15,7,85,65,-533,598,234
,506,2023-10-27 11:37:38.57,296,-443,-2029,-23,22,86,-2,-641,639,321
,507,2023-10-27 11:37:38.58,269,-466,-1996,-58,25,78,82,-527,609,222
,508,2023-10-27 11:37:38.59,279,-456,-1985,-69,39,73,11,-631,642,310
,509,2023-10-27 11:37:38.60,277,-458,-2006,-69,24,66,80,-520,600,220
,510,2023-10-27 11:37:38.61,276,-459,-1992,-80,3,72,8,-629,637,310
,511,2023-10-27 11:37:38.62,290,-444,-1979,-87,6,65,78,-518,596,220
,512,2023-10-27 11:37:38.63,274,-439,-1981,-79,11,55,15,-626,641,305
,513,2023-10-27 11:37:38.64,283,-452,-1999,-75,9,51,93,-508,601,207
,514,2023-10-27 11:37:38.65,274,-436,-1968,-62,-6,50,29,-621,650,296
,515,2023-10-27 11:37:38.66,283,-439,-2005,-59,7,44,104,-504,608,200
,516,2023-10-27 11:37:38.67,267,-476,-2040,-67,-2,42,58,-617,675,279
,517,2023-10-27 11:37:38.68,291,-472,-2034,-87,-9,51,125,-494,619,184
,518,2023-10-27 11:37:38.69,298,-471,-1992,-98,-1,49,55,-619,674,282
,519,2023-10-27 11:37:38.70,271,-473,-1972,-85,-8,49,106,-509,615,201
,520,2023-10-27 11:37:38.71,289,-457,-1996,-73,-4,51,49,-636,685,293
,521,2023-10-27 11:37:38.72,261,-474,-1985,-74,-30,63,121,-508,629,193
,522,2023-10-27 11:37:38.73,262,-438,-1993,-75,-29,60,67,-623,690,278
,523,2023-10-27 11:37:38.74,275,-423,-2004,-68,-37,56,132,-494,626,181
,524,2023-10-27 11:37:38.75,294,-403,-1976,-69,-40,54,75,-628,703,276
,525,2023-10-27 11:37:38.76,266,-402,-2008,-77,-33,42,139,-495,634,178
,526,2023-10-27 11:37:38.77,279,-437,-2025,-105,-39,31,87,-615,702,264
,527,2023-10-27 11:37:38.78,311,-446,-2023,-133,-21,27,129,-488,617,179
,528,2023-10-27 11:37:38.79,270,-426,-1980,-128,-17,11,107,-611,718,252
,529,2023-10-27 11:37:38.80,292,-448,-1994,-111,-17,6,149,-488,637,169
,530,2023-10-27 11:37:38.81,281,-449,-1976,-97,-22,5,92,-610,702,259
,531,2023-10-27 11:37:38.82,277,-439,-1970,-83,-16,4,132,-482,614,175
,532,2023-10-27 11:37:38.83,279,-445,-1990,-76,-8,8,88,-611,699,261
,533,2023-10-27 11:37:38.84,268,-431,-1997,-73,4,-2,123,-487,610,182
,534,2023-10-27 11:37:38.85,278,-433,-2011,-72,6,4,88,-615,703,263
,535,2023-10-27 11:37:38.86,271,-452,-2010,-73,-3,9,135,-484,619,174
,536,2023-10-27 11:37:38.87,270,-423,-1997,-67,4,14,120,-606,726,243
,537,2023-10-27 11:37:38.88,269,-433,-1994,-52,0,15,156,-483,639,163
,538,2023-10-27 11:37:38.89,277,-443,-2005,-54,1,22,134,-587,721,226
,539,2023-10-27 11:37:38.90,262,-429,-2019,-61,4,28,172,-450,622,139
,540,2023-10-27 11:37:38.91,295,-416,-2027,-76,14,29,163,-570,733,203
,541,2023-10-27 11:37:38.92,266,-414,-1995,-83,17,24,194,-444,638,125
,542,2023-10-27 11:37:38.93,282,-414,-1986,-68,9,27,186,-555,741,184
,543,2023-10-27 11:37:38.94,296,-420,-1991,-64,15,26,213,-427,640,107
,544,2023-10-27 11:37:38.95,292,-399,-1981,-70,25,18,237,-531,768,147
,545,2023-10-27 11:37:38.96,303,-407,-1983,-83,40,13,251,-402,653,75
,546,2023-10-27 11:37:38.97,281,-395,-1990,-86,58,3,266,-514,780,124
,547,2023-10-27 11:37:38.98,287,-408,-2010,-81,67,-2,290,-372,662,41
,548,2023-10-27 11:37:38.99,288,-381,-2009,-85,63,-6,349,-454,803,52
,549,2023-10-27 11:37:39.00,300,-380,-1998,-95,61,-13,357,-326,683,-15
,550,2023-10-27 11:37:39.01,302,-398,-1987,-90,69,-18,410,-398,808,-6
,551,2023-10-27 11:37:39.02,283,-363,-2000,-78,78,-31,392,-269,661,-61
,552,2023-10-27 11:37:39.03,306,-378,-2024,-79,80,-34,447,-351,798,-48
,553,2023-10-27 11:37:39.04,305,-387,-2026,-104,74,-31,424,-234,658,-95
,554,2023-10-27 11:37:39.05,325,-407,-1976,-106,86,-23,445,-318,763,-63
,555,2023-10-27 11:37:39.06,326,-402,-1989,-77,102,-30,396,-230,626,-83
,556,2023-10-27 11:37:39.07,326,-392,-2023,-66,104,-31,401,-356,757,-22
,557,2023-10-27 11:37:39.08,305,-371,-2033,-79,105,-23,357,-272,629,-42
,558,2023-10-27 11:37:39.09,309,-362,-2013,-91,94,-24,371,-384,755,6
,559,2023-10-27 11:37:39.10,331,-377,-2018,-84,90,-16,329,-283,612,-23
,560,2023-10-27 11:37:39.11,290,-382,-2013,-61,79,-19,348,-394,742,23
,561,2023-10-27 11:37:39.12,281,-365,-2047,-54,66,-9,300,-308,608,4
,562,2023-10-27 11:37:39.13,267,-337,-2077,-82,36,-2,330,-401,731,35
,563,2023-10-27 11:37:39.14,292,-357,-2042,-122,5,16,306,-291,597,-7
,564,2023-10-27 11:37:39.15,307,-329,-2011,-104,-7,14,344,-362,706,9
,565,2023-10-27 11:37:39.16,302,-338,-2006,-61,-14,5,314,-256,570,-29
,566,2023-10-27 11:37:39.17,284,-336,-2012,-41,-16,-5,337,-312,649,-12
,567,2023-10-27 11:37:39.18,270,-323,-2023,-51,-29,-3,296,-210,506,-43
,568,2023-10-27 11:37:39.19,272,-296,-2062,-73,-41,-3,308,-280,588,-14
,569,2023-10-27 11:37:39.20,263,-331,-2085,-84,-60,4,266,-215,481,-25
,570,2023-10-27 11:37:39.21,290,-327,-2040,-76,-75,8,289,-319,608,15
,571,2023-10-27 11:37:39.22,289,-328,-2019,-51,-67,-17,239,-269,508,15
,572,2023-10-27 11:37:39.23,326,-329,-1982,-33,-51,-36,245,-380,625,67
,573,2023-10-27 11:37:39.24,294,-270,-1964,-13,-27,-73,196,-331,527,67
,574,2023-10-27 11:37:39.25,317,-245,-1979,-17,-3,-100,194,-464,658,135
,575,2023-10-27 11:37:39.26,307,-296,-2034,-35,-5,-128,131,-424,555,146
,576,2023-10-27 11:37:39.27,402,-441,-2057,-19,-3,-129,96,-557,653,230
,577,2023-10-27 11:37:39.28,326,-447,-1906,104,31,-87,40,-513,553,236
,578,2023-10-27 11:37:39.29,319,-139,-1823,185,141,-138,32,-650,682,309
,579,2023-10-27 11:37:39.30,329,-386,-2063,68,169,-142,20,-582,602,281
,580,2023-10-27 11:37:39.31,239,-358,-2095,-89,142,-118,50,-678,728,314
,581,2023-10-27 11:37:39.32,336,-348,-2081,-105,114,-67,45,-586,631,270
,582,2023-10-27 11:37:39.33,283,-212,-2052,20,83,-88,78,-667,745,294
,583,2023-10-27 11:37:39.34,322,-364,-2065,49,37,-81,46,-584,630,269
,584,2023-10-27 11:37:39.35,276,-381,-1928,3,-26,-35,64,-650,714,293
,585,2023-10-27 11:37:39.36,388,-337,-2013,-43,33,-49,33,-567,600,267
,586,2023-10-27 11:37:39.37,289,-363,-2083,-53,42,-49,52,-643,695,295
,587,2023-10-27 11:37:39.38,349,-333,-2047,-24,11,-26,10,-585,595,287
,588,2023-10-27 11:37:39.39,310,-307,-1994,6,-2,-22,57,-661,718,302
,589,2023-10-27 11:37:39.40,307,-339,-2069,-2,-9,-22,27,-598,625,285
,590,2023-10-27 11:37:39.41,331,-365,-2048,-40,-33,3,40,-657,697,308
,591,2023-10-27 11:37:39.42,311,-295,-2075,-30,-61,-10,1,-588,589,293
,592,2023-10-27 11:37:39.43,452,-545,-1973,-32,-86,77,23,-652,675,314
,593,2023-10-27 11:37:39.44,240,-311,-1937,63,-22,28,-25,-609,584,317
,594,2023-10-27 11:37:39.45,299,-261,-1984,114,30,15,-16,-693,677,354
,595,2023-10-27 11:37:39.46,301,-365,-2020,63,23,16,-68,-656,588,362
,596,2023-10-27 11:37:39.47,324,-318,-2008,-26,16,55,-34,-707,673,370
,597,2023-10-27 11:37:39.48,330,-279,-2039,-24,21,47,-64,-658,594,361
,598,2023-10-27 11:37:39.49,299,-335,-2079,10,-3,34,-37,-711,674,374
,599,2023-10-27 11:37:39.50,301,-314,-2008,22,-16,25,-87,-668,581,377
,600,2023-10-27 11:37:39.51,302,-303,-1964,4,-3,36,-46,-701,655,373
,601,2023-10-27 11:37:39.52,343,-283,-1958,-36,22,23,-34,-636,602,335
,602,2023-10-27 11:37:39.53,316,-323,-2032,-71,41,29,52,-655,707,301
,603,2023-10-27 11:37:39.54,310,-307,-2007,-61,37,23,-21,-641,620,331
,604,2023-10-27 11:37:39.55,313,-316,-2020,-34,33,22,12,-685,697,336
,605,2023-10-27 11:37:39.56,317,-332,-2015,-50,25,33,-18,-633,615,325
,606,2023-10-27 11:37:39.57,327,-318,-1984,-77,33,36,51,-636,687,292
,607,2023-10-27 11:37:39.58,327,-339,-2006,-74,59,35,0,-609,609,304
,608,2023-10-27 11:37:39.59,309,-324,-2023,-60,61,36,46,-634,680,294
,609,2023-10-27 11:37:39.60,323,-305,-2033,-58,52,43,18,-605,623,293
,610,2023-10-27 11:37:39.61,320,-318,-2014,-67,48,39,130,-586,716,228
,611,2023-10-27 11:37:39.62,328,-321,-1994,-63,56,42,60,-569,629,254
,612,2023-10-27 11:37:39.63,336,-310,-2003,-48,66,41,116,-567,683,225
,613,2023-10-27 11:37:39.64,295,-320,-1988,-23,39,41,62,-563,625,250
,614,2023-10-27 11:37:39.65,338,-317,-2011,0,-2,50,149,-554,703,202
,615,2023-10-27 11:37:39.66,372,-326,-2020,-3,34,48,94,-549,643,227
,616,2023-10-27 11:37:39.67,331,-311,-2014,-17,76,41,187,-532,719,172
,617,2023-10-27 11:37:39.68,311,-326,-2029,-20,78,39,143,-534,677,195
,618,2023-10-27 11:37:39.69,317,-330,-2042,-6,50,51,245,-510,755,132
,619,2023-10-27 11:37:39.70,345,-327,-2034,7,37,58,206,-519,725,156
,620,2023-10-27 11:37:39.71,328,-318,-2007,15,34,63,300,-491,791,95
,621,2023-10-27 11:37:39.72,348,-318,-2000,21,38,66,228,-501,729,136
,622,2023-10-27 11:37:39.73,340,-303,-2014,11,81,56,321,-466,787,72
,623,2023-10-27 11:37:39.74,317,-265,-2044,7,84,38,251,-490,741,119
,624,2023-10-27 11:37:39.75,353,-356,-1962,35,48,50,340,-451,791,55
,625,2023-10-27 11:37:39.76,364,-371,-1969,98,32,57,229,-489,718,130
,626,2023-10-27 11:37:39.77,330,-347,-1976,124,50,57,286,-465,751,89
,627,2023-10-27 11:37:39.78,339,-350,-2005,85,73,52,202,-518,720,158
,628,2023-10-27 11:37:39.79,301,-270,-2090,41,89,44,304,-473,777,84
,629,2023-10-27 11:37:39.80,341,-271,-2098,17,60,49,222,-511,733,144
,630,2023-10-27 11:37:39.81,343,-296,-2051,4,37,54,274,-472,746,99
,631,2023-10-27 11:37:39.82,355,-334,-2013,-7,27,52,193,-523,716,165
,632,2023-10-27 11:37:39.83,363,-374,-1971,0,47,43,282,-477,759,97
,633,2023-10-27 11:37:39.84,349,-375,-1965,21,73,34,240,-519,759,139
,634,2023-10-27 11:37:39.85,306,-346,-1971,57,51,31,337,-449,786,56
,635,2023-10-27 11:37:39.86,346,-314,-2006,58,39,38,297,-489,786,96
,636,2023-10-27 11:37:39.87,336,-272,-2020,29,36,36,402,-413,815,5
,637,2023-10-27 11:37:39.88,355,-287,-2040,-14,43,38,402,-423,825,10
,638,2023-10-27 11:37:39.89,344,-297,-2058,-38,68,31,517,-301,818,-108
,639,2023-10-27 11:37:39.90,332,-313,-2045,-35,68,23,446,-295,741,-75
,640,2023-10-27 11:37:39.91,340,-330,-2033,-35,48,27,487,-168,655,-159
,641,2023-10-27 11:37:39.92,313,-324,-2013,-26,6,32,324,-196,520,-64
,642,2023-10-27 11:37:39.93,369,-306,-2022,-3,-27,33,322,-103,425,-109
,643,2023-10-27 11:37:39.94,357,-309,-2008,2,20,26,202,-186,388,-8
,644,2023-10-27 11:37:39.95,354,-311,-2001,-3,44,20,240,-136,376,-52
,645,2023-10-27 11:37:39.96,359,-307,-2006,-22,47,32,141,-259,400,59
,646,2023-10-27 11:37:39.97,345,-352,-2054,-50,41,51,181,-227,408,23
,647,2023-10-27 11:37:39.98,314,-349,-2065,-53,12,60,68,-378,446,155
,648,2023-10-27 11:37:39.99,323,-333,-2077,-9,-31,63,89,-360,449,135
,649,2023-10-27 11:37:40.00,373,-327,-2024,18,-20,56,-50,-513,463,281
,650,2023-10-27 11:37:40.01,364,-303,-1950,35,6,34,-32,-494,462,263
,651,2023-10-27 11:37:40.02,362,-304,-1950,44,41,13,-130,-624,494,377
,652,2023-10-27 11:37:40.03,330,-285,-1964,61,53,-19,-75,-567,492,321
,653,2023-10-27 11:37:40.04,327,-240,-2013,78,42,-31,-161,-682,521,421
,654,2023-10-27 11:37:40.05,347,-342,-2081,54,5,-33,-84,-611,527,347
,655,2023-10-27 11:37:40.06,377,-351,-2032,32,-11,-13,-171,-728,557,449
,656,2023-10-27 11:37:40.07,333,-300,-2014,23,41,-31,-111,-646,535,378
,657,2023-10-27 11:37:40.08,359,-345,-1997,23,53,-37,-184,-742,558,463
,658,2023-10-27 11:37:40.09,360,-334,-2003,1,56,-25,-100,-639,539,369
,659,2023-10-27 11:37:40.10,342,-302,-2047,-29,42,-25,-167,-738,571,452
,660,2023-10-27 11:37:40.11,319,-363,-1996,-28,-12,-16,-71,-622,551,346
,661,2023-10-27 11:37:40.12,403,-338,-2012,3,-5,0,-152,-728,576,440
,662,2023-10-27 11:37:40.13,356,-321,-1989,27,2,-15,-67,-627,560,347
,663,2023-10-27 11:37:40.14,388,-321,-1991,10,28,-17,-107,-718,611,412
,664,2023-10-27 11:37:40.15,357,-315,-2030,-23,44,-7,-9,-593,584,301
,665,2023-10-27 11:37:40.16,359,-323,-2015,-33,49,-18,-84,-701,617,392
,666,2023-10-27 11:37:40.17,383,-340,-2005,-18,46,1,-9,-590,581,299
,667,2023-10-27 11:37:40.18,360,-323,-1990,-10,42,11,-98,-711,613,404
,668,2023-10-27 11:37:40.19,354,-339,-1998,-21,35,20,-38,-600,562,319
,669,2023-10-27 11:37:40.20,368,-339,-2029,-30,26,27,-123,-720,597,421
,670,2023-10-27 11:37:40.21,357,-317,-2034,-30,27,30,-23,-595,572,309
,671,2023-10-27 11:37:40.22,352,-298,-2018,-29,10,33,-66,-696,630,381
,672,2023-10-27 11:37:40.23,383,-298,-2007,-31,6,34,20,-565,585,272
,673,2023-10-27 11:37:40.24,370,-302,-2001,-45,25,22,-50,-677,627,363
,674,2023-10-27 11:37:40.25,372,-303,-2008,-43,24,21,21,-556,577,267
,675,2023-10-27 11:37:40.26,378,-303,-2015,-46,18,17,-42,-664,622,353
,676,2023-10-27 11:37:40.27,376,-309,-2012,-53,11,15,41,-527,568,243
,677,2023-10-27 11:37:40.28,362,-306,-2018,-51,-8,16,-4,-656,652,330
,678,2023-10-27 11:37:40.29,383,-314,-2032,-38,-24,20,69,-533,602,232
,679,2023-10-27 11:37:40.30,364,-313,-2048,-45,-14,19,17,-644,661,313
,680,2023-10-27 11:37:40.31,365,-292,-2026,-47,-25,28,67,-512,579,222
,681,2023-10-27 11:37:40.32,366,-297,-2019,-48,-35,27,0,-635,635,317
,682,2023-10-27 11:37:40.33,364,-288,-2019,-50,-39,28,56,-510,566,227
,683,2023-10-27 11:37:40.34,363,-287,-2009,-50,-38,32,28,-618,646,295
,684,2023-10-27 11:37:40.35,347,-268,-2016,-62,-40,35,88,-498,586,205
,685,2023-10-27 11:37:40.36,390,-320,-2014,-55,-36,30,37,-618,655,290
,686,2023-10-27 11:37:40.37,389,-390,-1940,-9,-23,38,90,-485,575,197
,687,2023-10-27 11:37:40.38,330,-256,-1988,24,19,22,56,-585,641,264
,688,2023-10-27 11:37:40.39,346,-292,-1994,-38,12,21,120,-449,569,164
,689,2023-10-27 11:37:40.40,337,-297,-2077,-105,8,29,100,-575,675,237
,690,2023-10-27 11:37:40.41,341,-256,-2099,-107,-26,40,141,-452,593,155
,691,2023-10-27 11:37:40.42,371,-288,-2034,-60,-57,40,99,-572,671,236
,692,2023-10-27 11:37:40.43,381,-338,-1981,-23,-64,37,146,-430,576,142
,693,2023-10-27 11:37:40.44,376,-327,-1959,-35,-44,31,133,-537,670,202
,694,2023-10-27 11:37:40.45,354,-308,-1996,-53,-12,22,171,-407,578,118
,695,2023-10-27 11:37:40.46,358,-300,-2026,-52,-1,25,142,-517,659,187
,696,2023-10-27 11:37:40.47,350,-275,-2022,-34,-4,27,185,-381,566,98
,697,2023-10-27 11:37:40.48,341,-268,-2019,-16,-11,20,190,-478,668,144
,698,2023-10-27 11:37:40.49,352,-277,-2025,-31,-18,21,229,-343,572,57
,699,2023-10-27 11:37:40.50,354,-302,-2023,-59,-20,29,250,-416,666,83
,700,2023-10-27 11:37:40.51,345,-296,-2019,-54,-12,31,293,-270,563,-11
,701,2023-10-27 11:37:40.52,330,-257,-2032,-33,-13,22,331,-326,657,-2
,702,2023-10-27 11:37:40.53,359,-286,-2014,-55,-27,32,346,-190,536,-78
,703,2023-10-27 11:37:40.54,355,-257,-2028,-86,-29,30,388,-240,628,-74
,704,2023-10-27 11:37:40.55,362,-265,-2002,-66,-20,31,387,-119,506,-134
,705,2023-10-27 11:37:40.56,333,-237,-2016,-30,-8,15,376,-204,580,-86
,706,2023-10-27 11:37:40.57,331,-271,-2020,-42,-13,17,347,-114,461,-116
,707,2023-10-27 11:37:40.58,337,-290,-2040,-86,-18,38,339,-228,567,-55
,708,2023-10-27 11:37:40.59,314,-266,-2056,-78,-13,39,313,-154,467,-79
,709,2023-10-27 11:37:40.60,337,-270,-2058,-41,-21,36,266,-308,574,21
,710,2023-10-27 11:37:40.61,331,-280,-2048,-40,-45,42,224,-260,484,18
,711,2023-10-27 11:37:40.62,356,-272,-1995,-66,-58,46,168,-435,603,133
,712,2023-10-27 11:37:40.63,398,-351,-1978,-51,-40,57,124,-389,513,132
,713,2023-10-27 11:37:40.64,330,-275,-1954,22,2,41,34,-582,616,274
,714,2023-10-27 11:37:40.65,317,-205,-2020,55,38,4,22,-521,543,249
,715,2023-10-27 11:37:40.66,331,-279,-2072,3,15,7,-30,-686,656,358
,716,2023-10-27 11:37:40.67,387,-289,-2010,-32,-4,22,-31,-597,566,314
,717,2023-10-27 11:37:40.68,344,-227,-2015,27,16,19,-84,-750,666,417
,718,2023-10-27 11:37:40.69,339,-258,-1969,96,30,3,-66,-652,586,359
,719,2023-10-27 11:37:40.70,330,-275,-2003,80,49,-4,-101,-770,669,435
,720,2023-10-27 11:37:40.71,330,-258,-2028,-5,52,11,-60,-643,583,351
,721,2023-10-27 11:37:40.72,331,-247,-2069,-52,51,19,-78,-754,676,416
,722,2023-10-27 11:37:40.73,353,-243,-2058,-26,32,21,-37,-628,591,332
,723,2023-10-27 11:37:40.74,364,-275,-2004,25,21,20,-85,-741,656,413
,724,2023-10-27 11:37:40.75,340,-262,-1979,28,16,11,-60,-633,573,346
,725,2023-10-27 11:37:40.76,335,-252,-1999,-9,24,1,-24,-725,701,374
,726,2023-10-27 11:37:40.77,359,-249,-2023,-35,31,1,18,-598,616,290
,727,2023-10-27 11:37:40.78,356,-258,-2028,-28,21,11,25,-677,702,326
,728,2023-10-27 11:37:40.79,365,-278,-2021,-6,18,17,25,-560,585,267
,729,2023-10-27 11:37:40.80,348,-280,-2009,-7,14,26,20,-657,677,318
,730,2023-10-27 11:37:40.81,346,-278,-2014,-20,25,30,31,-559,590,264
,731,2023-10-27 11:37:40.82,354,-262,-2031,-24,35,32,45,-658,703,306
,732,2023-10-27 11:37:40.83,351,-251,-2028,-23,23,32,29,-567,596,269
,733,2023-10-27 11:37:40.84,358,-251,-2024,-23,13,32,36,-649,685,306
,734,2023-10-27 11:37:40.85,346,-251,-2021,-24,0,31,38,-542,580,252
,735,2023-10-27 11:37:40.86,374,-260,-2031,-18,-9,32,70,-610,680,270
,736,2023-10-27 11:37:40.87,362,-279,-2036,-8,-9,28,78,-521,599,221
,737,2023-10-27 11:37:40.88,367,-256,-2027,3,-18,23,104,-590,694,243
,738,2023-10-27 11:37:40.89,367,-244,-2019,0,-27,16,73,-512,585,219
,739,2023-10-27 11:37:40.90,348,-240,-2015,-4,-32,13,86,-593,679,253
,740,2023-10-27 11:37:40.91,354,-250,-2020,-4,-37,3,76,-522,598,223
,741,2023-10-27 11:37:40.92,339,-248,-2028,-3,-39,1,124,-582,706,229
,742,2023-10-27 11:37:40.93,366,-236,-2035,-11,-52,7,93,-499,592,203
,743,2023-10-27 11:37:40.94,388,-299,-2016,-3,-52,16,100,-562,662,231
,744,2023-10-27 11:37:40.95,374,-356,-1955,50,-31,22,64,-505,569,220
,745,2023-10-27 11:37:40.96,320,-291,-2013,91,1,16,106,-570,676,232
,746,2023-10-27 11:37:40.97,339,-278,-2036,36,-15,20,87,-503,590,208
,747,2023-10-27 11:37:40.98,327,-250,-2049,-32,-28,42,114,-563,677,224
,748,2023-10-27 11:37:40.99,336,-249,-2023,-24,-56,39,88,-506,594,209
,749,2023-10-27 11:37:41.00,329,-251,-2020,35,-67,32,149,-555,704,203
,750,2023-10-27 11:37:41.01,311,-240,-2077,42,-77,21,120,-489,609,184
,751,2023-10-27 11:37:41.02,293,-254,-2050,-6,-88,14,151,-522,673,185
,752,2023-10-27 11:37:41.03,301,-225,-2035,-36,-75,5,119,-458,577,169
,753,2023-10-27 11:37:41.04,297,-215,-2073,-47,-82,3,177,-478,655,150
,754,2023-10-27 11:37:41.05,286,-212,-2068,-50,-102,-2,167,-415,582,124
,755,2023-10-27 11:37:41.06,258,-219,-2075,-45,-104,-11,242,-427,669,92
,756,2023-10-27 11:37:41.07,265,-220,-2075,-51,-104,-13,183,-387,570,102
,757,2023-10-27 11:37:41.08,278,-211,-2051,-69,-97,-17,205,-423,628,109
,758,2023-10-27 11:37:41.09,315,-206,-2022,-78,-80,-24,120,-415,535,147
,759,2023-10-27 11:37:41.10,295,-169,-2001,-64,-39,-58,117,-500,617,191
,760,2023-10-27 11:37:41.11,308,-167,-1995,-43,-8,-91,40,-522,562,241
,761,2023-10-27 11:37:41.12,300,-182,-2007,-40,16,-119,67,-596,663,264
,762,2023-10-27 11:37:41.13,295,-178,-2007,-42,33,-143,-26,-596,570,311
,763,2023-10-27 11:37:41.14,273,-190,-2026,-27,40,-171,-8,-646,638,327
,764,2023-10-27 11:37:41.15,263,-209,-2046,-2,24,-193,-49,-639,590,344
,765,2023-10-27 11:37:41.16,299,-225,-2075,41,-23,-208,8,-663,671,327
,766,2023-10-27 11:37:41.17,340,-224,-2002,101,-49,-238,-29,-630,601,329
,767,2023-10-27 11:37:41.18,302,-181,-1947,157,-21,-248,11,-640,651,314
,768,2023-10-27 11:37:41.19,229,-164,-2062,155,10,-295,-20,-622,602,321
,769,2023-10-27 11:37:41.20,334,-189,-2122,72,-31,-266,58,-623,681,282
,770,2023-10-27 11:37:41.21,388,-293,-2045,8,-34,-261,18,-601,619,291
,771,2023-10-27 11:37:41.22,278,-146,-1991,67,19,-287,78,-593,671,257
,772,2023-10-27 11:37:41.23,345,-260,-1895,154,31,-279,6,-597,603,295
,773,2023-10-27 11:37:41.24,333,-264,-1907,174,56,-305,60,-606,666,273
,774,2023-10-27 11:37:41.25,366,-211,-1945,140,76,-313,18,-602,620,292
,775,2023-10-27 11:37:41.26,349,-234,-2016,96,96,-318,104,-556,660,226
,776,2023-10-27 11:37:41.27,394,-253,-2020,107,115,-321,41,-552,593,255
,777,2023-10-27 11:37:41.28,367,-276,-2009,154,132,-321,87,-544,631,228
,778,2023-10-27 11:37:41.29,370,-288,-2012,173,125,-319,34,-555,589,260
,779,2023-10-27 11:37:41.30,367,-264,-2015,157,114,-308,96,-524,620,214
,780,2023-10-27 11:37:41.31,382,-249,-2033,128,112,-299,34,-550,584,258
,781,2023-10-27 11:37:41.32,373,-265,-2057,117,108,-289,102,-522,624,210
,782,2023-10-27 11:37:41.33,381,-297,-2070,106,112,-274,26,-563,589,268
,783,2023-10-27 11:37:41.34,352,-318,-2069,103,94,-258,78,-541,619,231
,784,2023-10-27 11:37:41.35,357,-347,-2072,100,61,-232,-29,-600,571,314
,785,2023-10-27 11:37:41.36,368,-335,-2063,93,25,-203,16,-592,608,288
,786,2023-10-27 11:37:41.37,363,-323,-2036,99,4,-186,-77,-652,575,364
,787,2023-10-27 11:37:41.38,365,-317,-2018,114,-5,-181,-19,-619,600,319
,788,2023-10-27 11:37:41.39,378,-306,-2024,127,-22,-177,-64,-651,587,357
,789,2023-10-27 11:37:41.40,382,-304,-2016,130,-33,-177,24,-600,624,288
,790,2023-10-27 11:37:41.41,383,-284,-2015,122,-20,-184,-49,-639,590,344
,791,2023-10-27 11:37:41.42,371,-289,-2008,117,-22,-201,7,-590,597,291
,792,2023-10-27 11:37:41.43,387,-285,-2011,112,-26,-212,-58,-637,579,347
,793,2023-10-27 11:37:41.44,412,-266,-1981,105,-16,-227,37,-575,612,269
,794,2023-10-27 11:37:41.45,399,-266,-1961,95,4,-247,-23,-625,602,324
,795,2023-10-27 11:37:41.46,403,-265,-1971,72,37,-268,70,-552,622,241
,796,2023-10-27 11:37:41.47,398,-272,-1995,47,52,-279,11,-601,612,295
,797,2023-10-27 11:37:41.48,434,-362,-1930,101,92,-296,95,-536,631,220
,798,2023-10-27 11:37:41.49,356,-321,-1888,167,116,-301,60,-597,657,268
,799,2023-10-27 11:37:41.50,385,-341,-1979,122,97,-291,234,-488,722,127
,800,2023-10-27 11:37:41.51,388,-287,-2051,15,88,-276,419,-427,846,4
,801,2023-10-27 11:37:41.52,416,-275,-2097,-40,99,-255,644,-193,837,-225
,802,2023-10-27 11:37:41.53,392,-332,-2079,-28,103,-242,604,-213,817,-195
,803,2023-10-27 11:37:41.54,405,-342,-2028,5,78,-228,582,-106,688,-238
,804,2023-10-27 11:37:41.55,392,-360,-1987,2,50,-210,420,-268,688,-76
,805,2023-10-27 11:37:41.56,412,-338,-1999,-28,37,-180,400,-244,644,-78
,806,2023-10-27 11:37:41.57,401,-317,-2021,-50,44,-161,272,-421,693,74
,807,2023-10-27 11:37:41.58,376,-294,-2047,-45,48,-146,304,-350,654,23
,808,2023-10-27 11:37:41.59,392,-314,-2057,-42,18,-117,218,-477,695,129
,809,2023-10-27 11:37:41.60,402,-314,-2033,-61,14,-93,268,-367,635,49
,810,2023-10-27 11:37:41.61,376,-346,-2013,-65,-15,-69,163,-497,660,167
,811,2023-10-27 11:37:41.62,441,-320,-1997,-44,7,-59,215,-390,605,87
,812,2023-10-27 11:37:41.63,379,-318,-1978,-17,25,-51,117,-555,672,219
,813,2023-10-27 11:37:41.64,409,-320,-2000,-9,3,-23,169,-460,629,145
,814,2023-10-27 11:37:41.65,403,-307,-2021,-26,13,-2,98,-609,707,255
,815,2023-10-27 11:37:41.66,383,-323,-2049,-27,6,10,175,-494,669,159
,816,2023-10-27 11:37:41.67,384,-317,-2028,-6,-10,30,80,-631,711,275
,817,2023-10-27 11:37:41.68,385,-293,-2002,17,-14,33,141,-506,647,182
,818,2023-10-27 11:37:41.69,407,-281,-1998,17,-7,40,83,-651,734,284
,819,2023-10-27 11:37:41.70,393,-264,-2002,1,8,34,160,-534,694,187
,820,2023-10-27 11:37:41.71,397,-262,-2016,-10,12,30,91,-680,771,294
,821,2023-10-27 11:37:41.72,400,-271,-2019,-19,21,22,153,-559,712,203
,822,2023-10-27 11:37:41.73,396,-259,-1999,-15,6,15,54,-704,758,325
,823,2023-10-27 11:37:41.74,403,-254,-1998,-4,4,0,100,-588,688,244
,824,2023-10-27 11:37:41.75,415,-259,-2003,-10,6,-12,28,-718,746,345
,825,2023-10-27 11:37:41.76,395,-253,-2002,-23,14,-30,82,-588,670,253
,826,2023-10-27 11:37:41.77,408,-241,-2025,-31,14,-49,-37,-732,695,384
,827,2023-10-27 11:37:41.78,413,-251,-2031,-32,8,-70,16,-608,624,296
,828,2023-10-27 11:37:41.79,436,-244,-1984,-44,6,-78,-96,-758,662,427
,829,2023-10-27 11:37:41.80,441,-257,-1970,-46,36,-91,-38,-628,590,333
,830,2023-10-27 11:37:41.81,411,-240,-2015,-46,69,-115,-136,-761,625,448
,831,2023-10-27 11:37:41.82,412,-237,-2074,-85,70,-107,-63,-629,566,346
,832,2023-10-27 11:37:41.83,454,-255,-2010,-130,64,-101,-181,-778,597,479
,833,2023-10-27 11:37:41.84,445,-231,-2008,-122,59,-112,-127,-659,532,393
,834,2023-10-27 11:37:41.85,431,-234,-2022,-97,40,-110,-172,-794,622,483
,835,2023-10-27 11:37:41.86,456,-244,-2007,-94,26,-105,-60,-659,599,359
,836,2023-10-27 11:37:41.87,459,-223,-1986,-104,48,-104,-127,-779,652,453
,837,2023-10-27 11:37:41.88,451,-237,-2020,-121,58,-104,-38,-636,598,337
,838,2023-10-27 11:37:41.89,445,-231,-2024,-142,64,-95,-52,-724,672,388
,839,2023-10-27 11:37:41.90,463,-219,-2032,-137,55,-90,41,-582,623,270
,840,2023-10-27 11:37:41.91,472,-212,-2003,-125,36,-79,-30,-701,671,365
,841,2023-10-27 11:37:41.92,473,-194,-2008,-126,28,-73,36,-559,595,261
,842,2023-10-27 11:37:41.93,492,-206,-1993,-146,32,-67,33,-651,684,309
,843,2023-10-27 11:37:41.94,472,-213,-2013,-157,47,-64,122,-502,624,190
,844,2023-10-27 11:37:41.95,440,-227,-2014,-135,10,-47,106,-602,708,248
,845,2023-10-27 11:37:41.96,445,-247,-2010,-79,-57,-16,169,-449,618,140
,846,2023-10-27 11:37:41.97,434,-259,-2011,-27,-119,14,124,-550,674,213
,847,2023-10-27 11:37:41.98,416,-250,-2002,8,-157,46,186,-415,601,114
,848,2023-10-27 11:37:41.99,498,-224,-1975,16,-134,58,157,-536,693,189
,849,2023-10-27 11:37:42.00,496,-128,-2073,-32,-43,46,215,-391,606,88
,850,2023-10-27 11:37:42.01,401,-138,-2108,-97,-22,35,185,-507,692,161
,851,2023-10-27 11:37:42.02,439,-234,-2032,-123,-27,52,201,-399,600,99
,852,2023-10-27 11:37:42.03,438,-223,-2049,-104,-31,76,154,-537,691,191
,853,2023-10-27 11:37:42.04,412,-265,-2025,-82,-51,91,184,-415,599,115
,854,2023-10-27 11:37:42.05,390,-255,-2036,-76,-56,111,140,-529,669,194
,855,2023-10-27 11:37:42.06,368,-233,-2043,-94,-62,134,161,-421,582,130
,856,2023-10-27 11:37:42.07,382,-237,-2061,-114,-66,159,138,-557,695,209
,857,2023-10-27 11:37:42.08,358,-244,-2068,-108,-95,181,168,-436,604,134
,858,2023-10-27 11:37:42.09,388,-300,-2074,-102,-106,213,106,-562,668,228
,859,2023-10-27 11:37:42.10,365,-306,-2017,-93,-102,239,86,-460,546,187
,860,2023-10-27 11:37:42.11,359,-298,-2000,-69,-88,267,4,-614,618,305
,861,2023-10-27 11:37:42.12,350,-309,-2003,-53,-88,298,16,-512,528,248
,862,2023-10-27 11:37:42.13,336,-300,-2040,-44,-114,327,-37,-659,622,348
,863,2023-10-27 11:37:42.14,345,-253,-2047,-39,-121,361,-5,-539,534,272
,864,2023-10-27 11:37:42.15,318,-259,-2060,-38,-115,382,-72,-659,587,365
,865,2023-10-27 11:37:42.16,285,-280,-2061,-46,-132,407,-40,-536,496,288
,866,2023-10-27 11:37:42.17,308,-276,-2069,-69,-141,448,-75,-652,577,363
,867,2023-10-27 11:37:42.18,290,-291,-2054,-81,-167,478,-26,-536,510,281
,868,2023-10-27 11:37:42.19,273,-279,-2039,-73,-187,504,-42,-644,602,343
,869,2023-10-27 11:37:42.20,282,-259,-2034,-65,-203,524,6,-504,510,249
,870,2023-10-27 11:37:42.21,268,-204,-2012,-78,-216,533,-12,-606,594,309
,871,2023-10-27 11:37:42.22,272,-188,-2014,-105,-227,536,18,-490,508,236
,872,2023-10-27 11:37:42.23,312,-163,-2032,-130,-216,530,-1,-612,611,306
,873,2023-10-27 11:37:42.24,307,-158,-2007,-145,-180,505,22,-502,524,240
,874,2023-10-27 11:37:42.25,292,-158,-1981,-146,-155,479,-3,-619,616,311
,875,2023-10-27 11:37:42.26,292,-168,-1993,-129,-191,476,20,-510,530,245
,876,2023-10-27 11:37:42.27,367,-135,-2057,-166,-131,443,0,-631,631,315
,877,2023-10-27 11:37:42.28,357,-101,-2001,-228,-35,394,24,-520,544,248
,878,2023-10-27 11:37:42.29,257,-124,-1954,-249,-6,351,26,-632,658,303
,879,2023-10-27 11:37:42.30,353,-157,-1996,-228,3,344,53,-519,572,233
,880,2023-10-27 11:37:42.31,339,-152,-1985,-213,30,321,66,-628,694,281
,881,2023-10-27 11:37:42.32,325,-194,-1962,-196,68,306,86,-512,598,213
,882,2023-10-27 11:37:42.33,335,-208,-1970,-166,118,294,87,-604,691,258
