// Data mode  : Full
// Data quality  : High
// Acceleration sensor's range  : 16g
// Gyroscope sensor's range  : 2000dps
//
//ARTIFACT,NUM,DATE,ACC_X,ACC_Y,ACC_Z,GYRO_X,GYRO_Y,GYRO_Z,EOG_L,EOG_R,EOG_H,EOG_V
,1,2023-10-27 12:32:19.59,236,-182,-2046,12,14,-6,-378,-26,-352,202
,2,2023-10-27 12:32:19.60,242,-184,-2038,12,13,-6,-263,90,-353,86
,3,2023-10-27 12:32:19.61,239,-183,-2032,11,14,-8,-358,-23,-335,190
,4,2023-10-27 12:32:19.62,227,-178,-2038,10,16,-11,-252,94,-346,79
,5,2023-10-27 12:32:19.63,232,-183,-2037,9,17,-14,-355,-29,-326,192
,6,2023-10-27 12:32:19.64,231,-184,-2038,12,15,-15,-246,92,-338,77
,7,2023-10-27 12:32:19.65,234,-179,-2046,13,15,-17,-343,-34,-309,188
,8,2023-10-27 12:32:19.66,240,-190,-2052,11,14,-19,-253,93,-346,80
,9,2023-10-27 12:32:19.67,233,-185,-2043,14,13,-20,-343,-27,-316,185
,10,2023-10-27 12:32:19.68,236,-183,-2044,12,14,-21,-249,97,-346,76
,11,2023-10-27 12:32:19.69,228,-185,-2038,11,12,-23,-334,-29,-305,181
,12,2023-10-27 12:32:19.70,237,-188,-2043,8,14,-25,-261,102,-363,79
,13,2023-10-27 12:32:19.71,225,-186,-2042,6,13,-24,-348,-32,-316,190
,14,2023-10-27 12:32:19.72,239,-190,-2039,5,14,-24,-267,88,-355,89
,15,2023-10-27 12:32:19.73,234,-184,-2033,4,18,-25,-339,-42,-297,190
,16,2023-10-27 12:32:19.74,235,-184,-2027,1,18,-25,-265,88,-353,88
,17,2023-10-27 12:32:19.75,224,-189,-2031,-3,20,-31,-331,-36,-295,183
,18,2023-10-27 12:32:19.76,230,-184,-2047,-4,21,-34,-283,92,-375,95
,19,2023-10-27 12:32:19.77,234,-180,-2046,-4,25,-40,-344,-37,-307,190
,20,2023-10-27 12:32:19.78,238,-178,-2035,-7,26,-48,-298,83,-381,107
,21,2023-10-27 12:32:19.79,247,-143,-2014,-9,34,-58,-343,-47,-296,195
,22,2023-10-27 12:32:19.80,247,-180,-2028,-19,41,-69,-278,86,-364,96
,23,2023-10-27 12:32:19.81,223,-153,-2023,-31,55,-82,-314,-33,-281,173
,24,2023-10-27 12:32:19.82,225,-150,-2021,-36,67,-98,-276,99,-375,88
,25,2023-10-27 12:32:19.83,235,-148,-2007,-48,78,-115,-316,-36,-280,176
,26,2023-10-27 12:32:19.84,230,-157,-2010,-59,102,-135,-279,82,-361,98
,27,2023-10-27 12:32:19.85,241,-149,-2015,-69,111,-151,-309,-51,-258,180
,28,2023-10-27 12:32:19.86,238,-144,-2022,-73,122,-163,-290,76,-366,107
,29,2023-10-27 12:32:19.87,241,-141,-2011,-76,127,-178,-313,-50,-263,181
,30,2023-10-27 12:32:19.88,236,-163,-2025,-86,150,-191,-285,83,-368,101
,31,2023-10-27 12:32:19.89,254,-146,-2018,-92,162,-204,-300,-39,-261,169
,32,2023-10-27 12:32:19.90,252,-143,-2019,-88,179,-216,-289,86,-375,101
,33,2023-10-27 12:32:19.91,251,-156,-2037,-94,184,-223,-299,-42,-257,170
,34,2023-10-27 12:32:19.92,264,-147,-2048,-93,181,-228,-280,92,-372,94
,35,2023-10-27 12:32:19.93,257,-148,-2063,-91,185,-230,-290,-43,-247,166
,36,2023-10-27 12:32:19.94,285,-157,-2061,-86,168,-224,-293,81,-374,106
,37,2023-10-27 12:32:19.95,280,-138,-2057,-81,162,-221,-300,-60,-240,180
,38,2023-10-27 12:32:19.96,293,-165,-2065,-79,155,-213,-300,72,-372,114
,39,2023-10-27 12:32:19.97,310,-112,-2054,-70,142,-205,-293,-49,-244,171
,40,2023-10-27 12:32:19.98,293,-163,-2066,-64,129,-195,-319,62,-381,128
,41,2023-10-27 12:32:19.99,305,-149,-2060,-58,114,-183,-292,-59,-233,175
,42,2023-10-27 12:32:20.00,294,-149,-2064,-49,108,-172,-303,67,-370,118
,43,2023-10-27 12:32:20.01,313,-144,-2053,-43,93,-161,-277,-51,-226,164
,44,2023-10-27 12:32:20.02,303,-138,-2045,-38,89,-148,-308,66,-374,121
,45,2023-10-27 12:32:20.03,328,-133,-2041,-32,80,-135,-283,-63,-220,173
,46,2023-10-27 12:32:20.04,313,-159,-2052,-23,68,-120,-297,55,-352,121
,47,2023-10-27 12:32:20.05,325,-151,-2050,-16,63,-105,-262,-62,-200,162
,48,2023-10-27 12:32:20.06,319,-146,-2043,-5,53,-90,-303,64,-367,119
,49,2023-10-27 12:32:20.07,311,-154,-2048,-5,61,-81,-266,-52,-214,159
,50,2023-10-27 12:32:20.08,309,-152,-2048,1,49,-67,-306,81,-387,112
,51,2023-10-27 12:32:20.09,325,-145,-2045,6,47,-52,-257,-36,-221,146
,52,2023-10-27 12:32:20.10,321,-154,-2050,12,44,-42,-312,87,-399,112
,53,2023-10-27 12:32:20.11,329,-145,-2047,16,34,-28,-258,-33,-225,145
,54,2023-10-27 12:32:20.12,333,-130,-2048,20,27,-17,-323,68,-391,127
,55,2023-10-27 12:32:20.13,318,-158,-2054,26,19,-7,-260,-45,-215,152
,56,2023-10-27 12:32:20.14,328,-144,-2048,31,6,6,-329,58,-387,135
,57,2023-10-27 12:32:20.15,319,-144,-2046,31,2,16,-259,-44,-215,151
,58,2023-10-27 12:32:20.16,328,-137,-2043,32,-5,25,-340,70,-410,135
,59,2023-10-27 12:32:20.17,332,-121,-2045,31,-6,33,-266,-27,-239,146
,60,2023-10-27 12:32:20.18,336,-147,-2052,31,-20,38,-350,78,-428,136
,61,2023-10-27 12:32:20.19,319,-146,-2046,34,-25,44,-268,-22,-246,145
,62,2023-10-27 12:32:20.20,309,-138,-2044,35,-29,49,-351,66,-417,142
,63,2023-10-27 12:32:20.21,303,-140,-2048,33,-34,54,-263,-35,-228,149
,64,2023-10-27 12:32:20.22,309,-140,-2046,31,-35,54,-353,56,-409,148
,65,2023-10-27 12:32:20.23,304,-147,-2046,32,-40,57,-253,-36,-217,144
,66,2023-10-27 12:32:20.24,309,-142,-2046,31,-44,60,-336,61,-397,137
,67,2023-10-27 12:32:20.25,302,-142,-2032,28,-47,62,-240,-30,-210,135
,68,2023-10-27 12:32:20.26,315,-149,-2041,26,-50,65,-347,70,-417,138
,69,2023-10-27 12:32:20.27,298,-146,-2052,25,-52,64,-251,-20,-231,135
,70,2023-10-27 12:32:20.28,308,-139,-2038,27,-52,65,-358,64,-422,147
,71,2023-10-27 12:32:20.29,305,-141,-2033,26,-54,66,-240,-26,-214,133
,72,2023-10-27 12:32:20.30,300,-144,-2039,25,-55,66,-333,68,-401,132
,73,2023-10-27 12:32:20.31,291,-146,-2036,21,-51,67,-220,-6,-214,113
,74,2023-10-27 12:32:20.32,287,-150,-2040,20,-54,68,-352,77,-429,137
,75,2023-10-27 12:32:20.33,287,-142,-2039,19,-54,67,-226,10,-236,108
,76,2023-10-27 12:32:20.34,288,-141,-2038,17,-54,66,-355,70,-425,142
,77,2023-10-27 12:32:20.35,296,-150,-2045,17,-54,68,-225,-3,-222,114
,78,2023-10-27 12:32:20.36,283,-142,-2038,13,-50,70,-364,53,-417,155
,79,2023-10-27 12:32:20.37,286,-144,-2042,15,-52,67,-227,0,-227,113
,80,2023-10-27 12:32:20.38,284,-140,-2036,14,-50,69,-354,60,-414,147
,81,2023-10-27 12:32:20.39,282,-151,-2045,15,-51,68,-230,-4,-226,117
,82,2023-10-27 12:32:20.40,279,-147,-2046,17,-49,67,-376,58,-434,159
,83,2023-10-27 12:32:20.41,273,-153,-2047,18,-50,69,-237,7,-244,115
,84,2023-10-27 12:32:20.42,279,-147,-2032,21,-48,68,-369,67,-436,151
,85,2023-10-27 12:32:20.43,280,-148,-2039,22,-46,67,-217,16,-233,100
,86,2023-10-27 12:32:20.44,272,-152,-2038,23,-48,70,-350,67,-417,141
,87,2023-10-27 12:32:20.45,273,-151,-2037,25,-50,69,-214,17,-231,98
,88,2023-10-27 12:32:20.46,280,-158,-2043,26,-50,74,-373,63,-436,155
,89,2023-10-27 12:32:20.47,264,-150,-2039,28,-51,77,-228,11,-239,108
,90,2023-10-27 12:32:20.48,269,-148,-2033,27,-49,80,-376,41,-417,167
,91,2023-10-27 12:32:20.49,279,-147,-2037,24,-43,80,-217,-9,-208,113
,92,2023-10-27 12:32:20.50,266,-143,-2042,22,-42,80,-363,27,-390,168
,93,2023-10-27 12:32:20.51,262,-153,-2050,23,-43,79,-206,0,-206,103
,94,2023-10-27 12:32:20.52,268,-150,-2038,20,-46,85,-370,42,-412,164
,95,2023-10-27 12:32:20.53,264,-151,-2042,21,-46,88,-204,22,-226,91
,96,2023-10-27 12:32:20.54,267,-147,-2040,18,-48,89,-365,46,-411,159
,97,2023-10-27 12:32:20.55,272,-144,-2039,16,-44,89,-202,22,-224,90
,98,2023-10-27 12:32:20.56,264,-142,-2045,16,-43,87,-373,40,-413,166
,99,2023-10-27 12:32:20.57,265,-148,-2042,11,-40,87,-207,21,-228,93
,100,2023-10-27 12:32:20.58,266,-141,-2041,12,-40,84,-367,39,-406,164
,101,2023-10-27 12:32:20.59,263,-145,-2045,13,-41,85,-200,27,-227,86
,102,2023-10-27 12:32:20.60,266,-151,-2037,14,-42,85,-373,48,-421,162
,103,2023-10-27 12:32:20.61,265,-153,-2041,16,-40,83,-206,38,-244,84
,104,2023-10-27 12:32:20.62,269,-155,-2047,17,-42,82,-377,52,-429,162
,105,2023-10-27 12:32:20.63,253,-152,-2036,21,-42,80,-207,38,-245,84
,106,2023-10-27 12:32:20.64,259,-157,-2040,20,-40,78,-380,47,-427,166
,107,2023-10-27 12:32:20.65,254,-154,-2041,21,-42,76,-206,40,-246,83
,108,2023-10-27 12:32:20.66,250,-159,-2042,22,-40,75,-381,53,-434,164
,109,2023-10-27 12:32:20.67,260,-151,-2043,20,-36,69,-207,49,-256,79
,110,2023-10-27 12:32:20.68,239,-156,-2038,22,-34,68,-389,42,-431,173
,111,2023-10-27 12:32:20.69,237,-152,-2045,20,-33,66,-208,38,-246,85
,112,2023-10-27 12:32:20.70,235,-152,-2033,18,-34,61,-386,34,-420,176
,113,2023-10-27 12:32:20.71,250,-151,-2032,16,-32,54,-202,47,-249,77
,114,2023-10-27 12:32:20.72,230,-164,-2035,14,-24,52,-387,39,-426,174
,115,2023-10-27 12:32:20.73,239,-168,-2038,15,-26,45,-203,55,-258,74
,116,2023-10-27 12:32:20.74,236,-165,-2032,17,-21,45,-384,51,-435,166
,117,2023-10-27 12:32:20.75,242,-164,-2031,15,-12,42,-204,56,-260,74
,118,2023-10-27 12:32:20.76,241,-170,-2035,11,-6,35,-394,28,-422,183
,119,2023-10-27 12:32:20.77,256,-175,-2036,10,0,29,-198,38,-236,80
,120,2023-10-27 12:32:20.78,244,-182,-2038,15,2,27,-368,22,-390,173
,121,2023-10-27 12:32:20.79,238,-175,-2040,15,6,23,-199,57,-256,71
,122,2023-10-27 12:32:20.80,234,-179,-2034,18,12,21,-398,30,-428,184
,123,2023-10-27 12:32:20.81,242,-187,-2041,18,14,20,-212,58,-270,77
,124,2023-10-27 12:32:20.82,237,-177,-2038,21,15,18,-386,22,-408,182
,125,2023-10-27 12:32:20.83,241,-173,-2035,19,15,17,-212,45,-257,83
,126,2023-10-27 12:32:20.84,244,-175,-2031,19,17,13,-391,19,-410,186
,127,2023-10-27 12:32:20.85,240,-172,-2035,17,19,10,-203,51,-254,76
,128,2023-10-27 12:32:20.86,259,-175,-2036,11,19,6,-381,12,-393,184
,129,2023-10-27 12:32:20.87,243,-175,-2039,12,25,2,-195,51,-246,72
,130,2023-10-27 12:32:20.88,252,-173,-2032,7,23,0,-380,14,-394,183
,131,2023-10-27 12:32:20.89,261,-175,-2037,6,25,-7,-199,59,-258,70
,132,2023-10-27 12:32:20.90,259,-172,-2035,1,27,-7,-389,14,-403,187
,133,2023-10-27 12:32:20.91,253,-173,-2041,-2,33,-13,-204,65,-269,69
,134,2023-10-27 12:32:20.92,249,-177,-2037,-5,32,-16,-390,19,-409,185
,135,2023-10-27 12:32:20.93,247,-177,-2040,-7,29,-15,-216,76,-292,70
,136,2023-10-27 12:32:20.94,257,-176,-2043,-9,27,-19,-408,15,-423,196
,137,2023-10-27 12:32:20.95,253,-184,-2047,-9,26,-16,-207,68,-275,69
,138,2023-10-27 12:32:20.96,246,-192,-2054,-8,19,-7,-380,8,-388,186
,139,2023-10-27 12:32:20.97,254,-209,-2067,-2,8,9,-203,73,-276,65
,140,2023-10-27 12:32:20.98,255,-233,-2084,9,-9,39,-393,2,-395,195
,141,2023-10-27 12:32:20.99,256,-242,-2086,28,-31,88,-220,63,-283,78
,142,2023-10-27 12:32:21.00,272,-275,-2075,56,-57,155,-398,-10,-388,204
,143,2023-10-27 12:32:21.01,272,-291,-2080,68,-62,236,-228,59,-287,84
,144,2023-10-27 12:32:21.02,271,-396,-2085,86,-59,348,-404,-2,-402,203
,145,2023-10-27 12:32:21.03,289,-441,-2107,106,-49,521,-240,73,-313,83
,146,2023-10-27 12:32:21.04,276,-494,-2119,144,-54,738,-412,12,-424,200
,147,2023-10-27 12:32:21.05,299,-489,-2087,185,-74,977,-248,86,-334,81
,148,2023-10-27 12:32:21.06,328,-471,-2031,205,-71,1213,-415,12,-427,201
,149,2023-10-27 12:32:21.07,325,-525,-2055,222,-41,1454,-254,86,-340,84
,150,2023-10-27 12:32:21.08,332,-542,-2048,247,3,1697,-421,16,-437,202
,151,2023-10-27 12:32:21.09,321,-702,-2045,312,30,1961,-260,97,-357,81
,152,2023-10-27 12:32:21.10,350,-600,-2067,409,23,2235,-420,8,-428,206
,153,2023-10-27 12:32:21.11,394,-672,-2002,493,68,2528,-277,82,-359,97
,154,2023-10-27 12:32:21.12,461,-700,-2019,604,119,2833,-438,-14,-424,226
,155,2023-10-27 12:32:21.13,525,-684,-2014,749,148,3136,-279,74,-353,102
,156,2023-10-27 12:32:21.14,551,-689,-1974,896,183,3431,-418,-5,-413,211
,157,2023-10-27 12:32:21.15,613,-652,-1971,1032,224,3695,-270,96,-366,87
,158,2023-10-27 12:32:21.16,632,-604,-1988,1129,305,3921,-421,-5,-416,213
,159,2023-10-27 12:32:21.17,664,-659,-1991,1192,373,4148,-283,83,-366,100
,160,2023-10-27 12:32:21.18,704,-634,-1997,1267,437,4380,-422,-12,-410,217
,161,2023-10-27 12:32:21.19,727,-626,-2019,1350,474,4593,-281,82,-363,99
,162,2023-10-27 12:32:21.20,774,-572,-2002,1411,514,4788,-413,-12,-401,212
,163,2023-10-27 12:32:21.21,803,-519,-2011,1441,560,4955,-286,81,-367,102
,164,2023-10-27 12:32:21.22,803,-508,-2004,1416,644,5080,-416,-11,-405,213
,165,2023-10-27 12:32:21.23,755,-490,-2047,1370,764,5166,-291,82,-373,104
,166,2023-10-27 12:32:21.24,801,-504,-2025,1342,823,5249,-424,-28,-396,226
,167,2023-10-27 12:32:21.25,787,-479,-2014,1305,908,5324,-284,77,-361,103
,168,2023-10-27 12:32:21.26,770,-492,-1934,1289,963,5366,-401,-24,-377,212
,169,2023-10-27 12:32:21.27,796,-422,-1941,1252,1065,5377,-276,76,-352,100
,170,2023-10-27 12:32:21.28,790,-502,-1972,1233,1141,5378,-400,-34,-366,217
,171,2023-10-27 12:32:21.29,761,-342,-2002,1213,1209,5339,-288,78,-366,105
,172,2023-10-27 12:32:21.30,604,-419,-2087,1189,1266,5271,-405,-31,-374,218
,173,2023-10-27 12:32:21.31,605,-460,-2116,1128,1265,5203,-310,76,-386,117
,174,2023-10-27 12:32:21.32,619,-168,-2135,1001,1369,5093,-419,-36,-383,227
,175,2023-10-27 12:32:21.33,488,-306,-2195,905,1365,4899,-328,64,-392,132
,176,2023-10-27 12:32:21.34,411,-386,-2157,803,1312,4724,-425,-40,-385,232
,177,2023-10-27 12:32:21.35,240,-397,-2206,720,1242,4526,-357,59,-416,149
,178,2023-10-27 12:32:21.36,214,-512,-2260,701,1064,4345,-453,-47,-406,250
,179,2023-10-27 12:32:21.37,142,-431,-2216,711,931,4147,-403,48,-451,177
,180,2023-10-27 12:32:21.38,134,-406,-2189,742,763,3895,-478,-53,-425,265
,181,2023-10-27 12:32:21.39,86,-399,-2192,751,624,3609,-421,44,-465,188
,182,2023-10-27 12:32:21.40,36,-427,-2148,751,484,3302,-488,-60,-428,274
,183,2023-10-27 12:32:21.41,-10,-512,-2086,768,324,2973,-428,44,-472,192
,184,2023-10-27 12:32:21.42,-5,-501,-2007,783,173,2635,-493,-57,-436,275
,185,2023-10-27 12:32:21.43,-109,-500,-1904,795,41,2295,-451,50,-501,200
,186,2023-10-27 12:32:21.44,-121,-547,-1924,766,-49,1954,-508,-58,-450,283
,187,2023-10-27 12:32:21.45,-136,-670,-1873,700,-118,1634,-465,46,-511,209
,188,2023-10-27 12:32:21.46,-145,-751,-1787,628,-126,1363,-516,-70,-446,293
,189,2023-10-27 12:32:21.47,-128,-837,-1767,574,-109,1137,-500,32,-532,234
,190,2023-10-27 12:32:21.48,-181,-894,-1703,520,-115,957,-543,-76,-467,309
,191,2023-10-27 12:32:21.49,-152,-928,-1667,459,-130,819,-535,21,-556,257
,192,2023-10-27 12:32:21.50,-159,-981,-1657,401,-120,719,-559,-92,-467,325
,193,2023-10-27 12:32:21.51,-146,-1076,-1643,336,-92,661,-573,10,-583,281
,194,2023-10-27 12:32:21.52,-136,-1020,-1604,276,-47,634,-585,-92,-493,338
,195,2023-10-27 12:32:21.53,-141,-1057,-1661,250,-51,629,-606,5,-611,300
,196,2023-10-27 12:32:21.54,-144,-1117,-1596,230,-35,652,-606,-100,-506,353
,197,2023-10-27 12:32:21.55,-118,-1145,-1562,242,-60,712,-643,2,-645,320
,198,2023-10-27 12:32:21.56,-54,-1021,-1660,240,-60,807,-632,-92,-540,362
,199,2023-10-27 12:32:21.57,-57,-1011,-1642,221,-34,864,-677,-7,-670,342
,200,2023-10-27 12:32:21.58,-50,-1194,-1529,259,-12,922,-654,-114,-540,384
,201,2023-10-27 12:32:21.59,-8,-1033,-1621,373,-45,1009,-703,-26,-677,364
,202,2023-10-27 12:32:21.60,-119,-873,-1827,400,-85,1069,-656,-128,-528,392
,203,2023-10-27 12:32:21.61,-159,-847,-1876,295,-129,1120,-673,-69,-604,371
,204,2023-10-27 12:32:21.62,-191,-833,-1813,146,-153,1146,-600,-188,-412,394
,205,2023-10-27 12:32:21.63,-262,-837,-1825,27,-194,1154,-610,-87,-523,348
,206,2023-10-27 12:32:21.64,-309,-859,-1841,-43,-301,1179,-556,-184,-372,370
,207,2023-10-27 12:32:21.65,-373,-778,-1873,-85,-413,1215,-601,-103,-498,352
,208,2023-10-27 12:32:21.66,-432,-790,-1915,-144,-538,1234,-557,-204,-353,380
,209,2023-10-27 12:32:21.67,-487,-782,-1875,-229,-638,1216,-625,-117,-508,371
,210,2023-10-27 12:32:21.68,-530,-788,-1805,-278,-696,1180,-561,-213,-348,387
,211,2023-10-27 12:32:21.69,-616,-697,-1792,-330,-718,1117,-605,-162,-443,383
,212,2023-10-27 12:32:21.70,-727,-680,-1826,-389,-773,1034,-530,-261,-269,395
,213,2023-10-27 12:32:21.71,-707,-682,-1725,-472,-841,958,-577,-227,-350,402
,214,2023-10-27 12:32:21.72,-762,-702,-1652,-523,-848,889,-512,-307,-205,409
,215,2023-10-27 12:32:21.73,-822,-662,-1633,-596,-834,824,-591,-302,-289,446
,216,2023-10-27 12:32:21.74,-886,-592,-1618,-621,-833,751,-521,-375,-146,448
,217,2023-10-27 12:32:21.75,-922,-567,-1608,-618,-844,675,-576,-373,-203,474
,218,2023-10-27 12:32:21.76,-985,-571,-1602,-658,-828,588,-494,-418,-76,456
,219,2023-10-27 12:32:21.77,-1018,-560,-1579,-704,-782,501,-547,-410,-137,478
,220,2023-10-27 12:32:21.78,-1040,-541,-1588,-721,-763,434,-478,-434,-44,456
,221,2023-10-27 12:32:21.79,-1057,-573,-1565,-762,-741,406,-548,-401,-147,474
,222,2023-10-27 12:32:21.80,-1072,-595,-1600,-796,-726,409,-466,-417,-49,441
,223,2023-10-27 12:32:21.81,-1108,-522,-1566,-841,-712,408,-507,-404,-103,455
,224,2023-10-27 12:32:21.82,-1145,-499,-1604,-885,-710,387,-426,-425,-1,425
,225,2023-10-27 12:32:21.83,-1160,-489,-1641,-912,-729,360,-511,-390,-121,450
,226,2023-10-27 12:32:21.84,-1169,-445,-1630,-942,-756,359,-413,-390,-23,401
,227,2023-10-27 12:32:21.85,-1198,-380,-1621,-976,-796,357,-440,-364,-76,402
,228,2023-10-27 12:32:21.86,-1273,-242,-1671,-1001,-840,323,-334,-374,40,354
,229,2023-10-27 12:32:21.87,-1232,-353,-1688,-1026,-877,329,-357,-358,1,357
,230,2023-10-27 12:32:21.88,-1303,-374,-1654,-1106,-867,319,-284,-363,79,323
,231,2023-10-27 12:32:21.89,-1299,-249,-1580,-1140,-895,301,-364,-349,-15,356
,232,2023-10-27 12:32:21.90,-1363,-261,-1594,-1143,-940,302,-304,-351,47,327
,233,2023-10-27 12:32:21.91,-1350,-184,-1494,-1091,-977,318,-374,-343,-31,358
,234,2023-10-27 12:32:21.92,-1353,-169,-1535,-1004,-984,300,-304,-342,38,323
,235,2023-10-27 12:32:21.93,-1405,-136,-1637,-971,-951,282,-393,-344,-49,368
,236,2023-10-27 12:32:21.94,-1363,23,-1555,-1001,-916,230,-330,-338,8,334
,237,2023-10-27 12:32:21.95,-1410,-70,-1602,-993,-833,149,-448,-346,-102,397
,238,2023-10-27 12:32:21.96,-1404,-178,-1511,-950,-746,87,-341,-336,-5,338
,239,2023-10-27 12:32:21.97,-1420,-127,-1552,-858,-640,41,-368,-326,-42,347
,240,2023-10-27 12:32:21.98,-1536,-138,-1642,-768,-528,13,-279,-316,37,297
,241,2023-10-27 12:32:21.99,-1561,-33,-1737,-777,-420,-7,-387,-329,-58,358
,242,2023-10-27 12:32:22.00,-1564,-3,-1663,-791,-305,-56,-310,-326,16,318
,243,2023-10-27 12:32:22.01,-1571,61,-1627,-684,-237,-133,-408,-338,-70,373
,244,2023-10-27 12:32:22.02,-1571,50,-1643,-587,-183,-211,-303,-319,16,311
,245,2023-10-27 12:32:22.03,-1624,69,-1687,-519,-106,-298,-402,-337,-65,369
,246,2023-10-27 12:32:22.04,-1589,89,-1693,-432,-73,-405,-292,-308,16,300
,247,2023-10-27 12:32:22.05,-1578,61,-1668,-347,-22,-509,-399,-329,-70,364
,248,2023-10-27 12:32:22.06,-1573,29,-1671,-295,50,-626,-278,-292,14,285
,249,2023-10-27 12:32:22.07,-1597,13,-1727,-286,119,-716,-376,-317,-59,346
,250,2023-10-27 12:32:22.08,-1519,-49,-1611,-249,167,-795,-267,-282,15,274
,251,2023-10-27 12:32:22.09,-1531,-127,-1662,-196,213,-859,-403,-308,-95,355
,252,2023-10-27 12:32:22.10,-1482,-142,-1654,-148,258,-936,-275,-269,-6,272
,253,2023-10-27 12:32:22.11,-1422,-131,-1567,-66,280,-1003,-373,-304,-69,338
,254,2023-10-27 12:32:22.12,-1421,-149,-1623,42,303,-1081,-256,-261,5,258
,255,2023-10-27 12:32:22.13,-1391,-146,-1580,153,306,-1184,-403,-310,-93,356
,256,2023-10-27 12:32:22.14,-1327,-170,-1594,265,306,-1275,-284,-264,-20,274
,257,2023-10-27 12:32:22.15,-1311,-100,-1618,397,281,-1388,-411,-314,-97,362
,258,2023-10-27 12:32:22.16,-1246,-56,-1631,505,239,-1520,-272,-257,-15,264
,259,2023-10-27 12:32:22.17,-1217,-20,-1631,575,225,-1669,-390,-302,-88,346
,260,2023-10-27 12:32:22.18,-1163,-128,-1691,616,217,-1805,-264,-245,-19,254
,261,2023-10-27 12:32:22.19,-1109,-183,-1658,642,244,-1916,-407,-306,-101,356
,262,2023-10-27 12:32:22.20,-1086,-219,-1643,734,303,-2031,-275,-251,-24,263
,263,2023-10-27 12:32:22.21,-1058,-193,-1702,844,312,-2145,-410,-309,-101,359
,264,2023-10-27 12:32:22.22,-1017,-252,-1721,864,348,-2226,-270,-245,-25,257
,265,2023-10-27 12:32:22.23,-993,-372,-1728,851,406,-2283,-412,-306,-106,359
,266,2023-10-27 12:32:22.24,-935,-522,-1704,829,460,-2286,-270,-234,-36,252
,267,2023-10-27 12:32:22.25,-891,-645,-1585,809,495,-2233,-423,-294,-129,358
,268,2023-10-27 12:32:22.26,-873,-760,-1551,836,532,-2170,-279,-222,-57,250
,269,2023-10-27 12:32:22.27,-866,-815,-1573,837,549,-2100,-436,-291,-145,363
,270,2023-10-27 12:32:22.28,-775,-865,-1589,797,567,-1995,-282,-215,-67,248
,271,2023-10-27 12:32:22.29,-760,-923,-1587,747,607,-1897,-436,-296,-140,366
,272,2023-10-27 12:32:22.30,-689,-1047,-1538,656,683,-1748,-286,-219,-67,252
,273,2023-10-27 12:32:22.31,-624,-1112,-1501,568,771,-1586,-449,-301,-148,375
,274,2023-10-27 12:32:22.32,-603,-1208,-1516,506,833,-1400,-286,-221,-65,253
,275,2023-10-27 12:32:22.33,-592,-1186,-1501,427,844,-1212,-435,-301,-134,368
,276,2023-10-27 12:32:22.34,-570,-1203,-1566,339,843,-1035,-271,-222,-49,246
,277,2023-10-27 12:32:22.35,-533,-1209,-1595,232,851,-877,-426,-309,-117,367
,278,2023-10-27 12:32:22.36,-478,-1151,-1592,87,869,-732,-265,-226,-39,245
,279,2023-10-27 12:32:22.37,-460,-1207,-1589,-41,883,-606,-428,-299,-129,363
,280,2023-10-27 12:32:22.38,-432,-1184,-1607,-137,872,-480,-275,-203,-72,239
,281,2023-10-27 12:32:22.39,-406,-1177,-1649,-239,859,-355,-453,-285,-168,369
,282,2023-10-27 12:32:22.40,-382,-1165,-1655,-352,850,-238,-291,-203,-88,247
,283,2023-10-27 12:32:22.41,-364,-1122,-1685,-455,850,-131,-463,-299,-164,381
,284,2023-10-27 12:32:22.42,-338,-1148,-1687,-552,823,-30,-292,-212,-80,252
,285,2023-10-27 12:32:22.43,-325,-1158,-1741,-646,785,80,-465,-294,-171,379
,286,2023-10-27 12:32:22.44,-301,-1134,-1716,-734,741,189,-288,-213,-75,250
,287,2023-10-27 12:32:22.45,-297,-1071,-1754,-803,659,295,-448,-297,-151,372
,288,2023-10-27 12:32:22.46,-278,-1064,-1775,-877,589,393,-268,-205,-63,236
,289,2023-10-27 12:32:22.47,-243,-995,-1791,-957,526,471,-432,-288,-144,360
,290,2023-10-27 12:32:22.48,-253,-1026,-1791,-1046,467,540,-256,-195,-61,225
,291,2023-10-27 12:32:22.49,-271,-1038,-1797,-1110,401,617,-427,-288,-139,357
,292,2023-10-27 12:32:22.50,-252,-964,-1813,-1149,329,682,-264,-205,-59,234
,293,2023-10-27 12:32:22.51,-258,-869,-1817,-1187,259,728,-449,-320,-129,384
,294,2023-10-27 12:32:22.52,-264,-866,-1834,-1255,221,756,-281,-233,-48,257
,295,2023-10-27 12:32:22.53,-285,-856,-1836,-1297,178,784,-452,-328,-124,390
,296,2023-10-27 12:32:22.54,-274,-748,-1833,-1327,144,801,-275,-226,-49,250
,297,2023-10-27 12:32:22.55,-311,-693,-1835,-1360,110,796,-440,-310,-130,375
,298,2023-10-27 12:32:22.56,-300,-600,-1857,-1406,84,789,-270,-215,-55,242
,299,2023-10-27 12:32:22.57,-341,-557,-1871,-1450,73,758,-447,-314,-133,380
,300,2023-10-27 12:32:22.58,-309,-509,-1889,-1512,71,717,-287,-217,-70,252
,301,2023-10-27 12:32:22.59,-320,-483,-1851,-1599,70,619,-459,-312,-147,385
,302,2023-10-27 12:32:22.60,-310,-461,-1869,-1608,82,579,-281,-207,-74,244
,303,2023-10-27 12:32:22.61,-344,-466,-1857,-1610,80,538,-451,-303,-148,377
,304,2023-10-27 12:32:22.62,-312,-386,-1869,-1583,76,499,-284,-197,-87,240
,305,2023-10-27 12:32:22.63,-288,-286,-1913,-1570,89,454,-460,-300,-160,380
,306,2023-10-27 12:32:22.64,-336,-295,-1933,-1585,133,383,-301,-196,-105,248
,307,2023-10-27 12:32:22.65,-351,-343,-1945,-1608,194,314,-467,-302,-165,384
,308,2023-10-27 12:32:22.66,-380,-262,-1923,-1574,205,257,-301,-200,-101,250
,309,2023-10-27 12:32:22.67,-385,-214,-1925,-1508,199,190,-457,-303,-154,380
,310,2023-10-27 12:32:22.68,-442,-26,-1993,-1470,206,140,-300,-193,-107,246
,311,2023-10-27 12:32:22.69,-520,-187,-1727,-1449,224,35,-464,-292,-172,378
,312,2023-10-27 12:32:22.70,-399,-85,-1844,-1333,197,-33,-303,-186,-117,244
,313,2023-10-27 12:32:22.71,-462,31,-1939,-1211,194,-137,-460,-295,-165,377
,314,2023-10-27 12:32:22.72,-473,98,-1977,-1097,160,-238,-290,-191,-99,240
,315,2023-10-27 12:32:22.73,-487,206,-2056,-1017,160,-345,-444,-304,-140,374
,316,2023-10-27 12:32:22.74,-461,353,-2043,-948,161,-461,-305,-198,-107,251
,317,2023-10-27 12:32:22.75,-450,413,-2059,-864,206,-604,-477,-311,-166,394
,318,2023-10-27 12:32:22.76,-424,438,-2068,-766,261,-774,-317,-208,-109,262
,319,2023-10-27 12:32:22.77,-485,406,-2099,-622,309,-932,-468,-328,-140,398
,320,2023-10-27 12:32:22.78,-466,385,-2149,-439,321,-1069,-307,-215,-92,261
,321,2023-10-27 12:32:22.79,-472,410,-2175,-237,348,-1199,-455,-325,-130,390
,322,2023-10-27 12:32:22.80,-468,404,-2193,-53,365,-1322,-308,-217,-91,262
,323,2023-10-27 12:32:22.81,-437,327,-2149,107,411,-1434,-458,-338,-120,398
,324,2023-10-27 12:32:22.82,-428,311,-2119,288,423,-1542,-296,-222,-74,259
,325,2023-10-27 12:32:22.83,-395,250,-2095,465,424,-1649,-434,-334,-100,384
,326,2023-10-27 12:32:22.84,-373,203,-2101,626,418,-1755,-292,-208,-84,250
,327,2023-10-27 12:32:22.85,-356,142,-2068,757,419,-1844,-438,-326,-112,382
,328,2023-10-27 12:32:22.86,-314,68,-1997,868,417,-1921,-308,-210,-98,259
,329,2023-10-27 12:32:22.87,-293,-27,-1994,957,433,-1985,-451,-324,-127,387
,330,2023-10-27 12:32:22.88,-258,-83,-1970,1023,449,-2032,-309,-221,-88,265
,331,2023-10-27 12:32:22.89,-236,-141,-1965,1087,472,-2076,-433,-329,-104,381
,332,2023-10-27 12:32:22.90,-224,-195,-1960,1122,492,-2103,-293,-211,-82,252
,333,2023-10-27 12:32:22.91,-199,-237,-1934,1133,523,-2126,-430,-320,-110,375
,334,2023-10-27 12:32:22.92,-172,-298,-1921,1141,542,-2145,-279,-207,-72,243
,335,2023-10-27 12:32:22.93,-136,-344,-1905,1138,561,-2150,-415,-326,-89,370
,336,2023-10-27 12:32:22.94,-104,-407,-1844,1119,589,-2144,-310,-212,-98,261
,337,2023-10-27 12:32:22.95,-92,-466,-1834,1099,628,-2128,-455,-327,-128,391
,338,2023-10-27 12:32:22.96,-56,-513,-1822,1061,673,-2101,-284,-215,-69,249
,339,2023-10-27 12:32:22.97,-45,-513,-1826,1033,702,-2068,-391,-338,-53,364
,340,2023-10-27 12:32:22.98,-12,-555,-1854,987,732,-2034,-276,-221,-55,248
,341,2023-10-27 12:32:22.99,15,-566,-1834,922,757,-2000,-418,-334,-84,376
,342,2023-10-27 12:32:23.00,46,-597,-1834,857,787,-1961,-324,-206,-118,265
,343,2023-10-27 12:32:23.01,75,-596,-1833,786,815,-1920,-442,-318,-124,380
,344,2023-10-27 12:32:23.02,124,-640,-1836,716,839,-1881,-314,-199,-115,256
,345,2023-10-27 12:32:23.03,155,-666,-1827,636,870,-1835,-416,-317,-99,366
,346,2023-10-27 12:32:23.04,175,-670,-1866,569,885,-1789,-277,-211,-66,244
,347,2023-10-27 12:32:23.05,213,-665,-1887,497,893,-1744,-385,-325,-60,355
,348,2023-10-27 12:32:23.06,231,-665,-1909,413,899,-1704,-316,-207,-109,261
,349,2023-10-27 12:32:23.07,284,-656,-1924,351,878,-1672,-434,-309,-125,371
,350,2023-10-27 12:32:23.08,326,-633,-1947,285,854,-1640,-352,-195,-157,273
,351,2023-10-27 12:32:23.09,343,-624,-1942,200,831,-1618,-441,-307,-134,374
,352,2023-10-27 12:32:23.10,383,-540,-1988,112,801,-1615,-311,-195,-116,253
,353,2023-10-27 12:32:23.11,438,-510,-2010,30,759,-1629,-392,-303,-89,347
,354,2023-10-27 12:32:23.12,492,-495,-2004,-63,723,-1658,-298,-189,-109,243
,355,2023-10-27 12:32:23.13,479,-461,-2014,-151,686,-1698,-399,-303,-96,351
,356,2023-10-27 12:32:23.14,546,-388,-2001,-239,645,-1745,-332,-173,-159,252
,357,2023-10-27 12:32:23.15,567,-365,-1997,-306,609,-1809,-421,-276,-145,348
,358,2023-10-27 12:32:23.16,630,-352,-1983,-382,581,-1873,-339,-165,-174,252
,359,2023-10-27 12:32:23.17,635,-445,-1990,-428,552,-1932,-410,-289,-121,349
,360,2023-10-27 12:32:23.18,648,-420,-2033,-462,501,-1972,-305,-197,-108,251
,361,2023-10-27 12:32:23.19,665,-403,-2061,-494,445,-2000,-376,-312,-64,344
,362,2023-10-27 12:32:23.20,648,-391,-2087,-520,366,-2015,-336,-197,-139,266
,363,2023-10-27 12:32:23.21,644,-331,-2130,-558,290,-2021,-413,-305,-108,359
,364,2023-10-27 12:32:23.22,656,-430,-2111,-591,205,-2026,-354,-198,-156,276
,365,2023-10-27 12:32:23.23,632,-364,-2127,-585,92,-2010,-399,-303,-96,351
,366,2023-10-27 12:32:23.24,628,-299,-2149,-585,-25,-1993,-344,-204,-140,274
,367,2023-10-27 12:32:23.25,627,-299,-2140,-606,-136,-1980,-392,-306,-86,349
,368,2023-10-27 12:32:23.26,639,-292,-2125,-639,-212,-1980,-349,-201,-148,275
,369,2023-10-27 12:32:23.27,587,-337,-2105,-651,-292,-1988,-391,-296,-95,343
,370,2023-10-27 12:32:23.28,628,-208,-2135,-618,-393,-1980,-354,-200,-154,277
,371,2023-10-27 12:32:23.29,651,-245,-2093,-615,-473,-1991,-400,-308,-92,354
,372,2023-10-27 12:32:23.30,609,-155,-2109,-629,-527,-2012,-358,-221,-137,289
,373,2023-10-27 12:32:23.31,629,-96,-2130,-642,-586,-2034,-390,-317,-73,353
,374,2023-10-27 12:32:23.32,598,-97,-2102,-653,-637,-2073,-348,-217,-131,282
,375,2023-10-27 12:32:23.33,652,-126,-2085,-657,-679,-2105,-374,-296,-78,335
,376,2023-10-27 12:32:23.34,629,-65,-2039,-668,-686,-2151,-342,-196,-146,269
,377,2023-10-27 12:32:23.35,606,-52,-2005,-640,-725,-2196,-372,-288,-84,330
,378,2023-10-27 12:32:23.36,619,-32,-2024,-615,-739,-2242,-363,-201,-162,282
,379,2023-10-27 12:32:23.37,583,-19,-1913,-535,-824,-2295,-383,-292,-91,337
,380,2023-10-27 12:32:23.38,586,39,-2004,-486,-822,-2330,-362,-204,-158,283
,381,2023-10-27 12:32:23.39,553,28,-1977,-477,-828,-2378,-368,-288,-80,328
,382,2023-10-27 12:32:23.40,526,21,-1912,-481,-767,-2431,-363,-197,-166,280
,383,2023-10-27 12:32:23.41,517,20,-2034,-472,-779,-2466,-366,-280,-86,323
,384,2023-10-27 12:32:23.42,503,36,-2025,-450,-781,-2481,-375,-204,-171,289
,385,2023-10-27 12:32:23.43,526,14,-2025,-426,-777,-2503,-373,-283,-90,328
,386,2023-10-27 12:32:23.44,497,-21,-1994,-392,-751,-2524,-378,-203,-175,290
,387,2023-10-27 12:32:23.45,519,-22,-1979,-327,-714,-2522,-355,-271,-84,313
,388,2023-10-27 12:32:23.46,499,-8,-1963,-235,-678,-2523,-353,-215,-138,284
,389,2023-10-27 12:32:23.47,457,-45,-1944,-154,-600,-2511,-341,-284,-57,312
,390,2023-10-27 12:32:23.48,493,-236,-1952,-100,-508,-2481,-390,-217,-173,303
,391,2023-10-27 12:32:23.49,421,-20,-1924,11,-462,-2446,-371,-277,-94,324
,392,2023-10-27 12:32:23.50,405,4,-1970,99,-410,-2414,-371,-207,-164,289
,393,2023-10-27 12:32:23.51,333,-46,-1950,145,-345,-2377,-340,-267,-73,303
,394,2023-10-27 12:32:23.52,345,-37,-1989,210,-286,-2322,-386,-199,-187,292
,395,2023-10-27 12:32:23.53,290,-64,-1984,295,-239,-2257,-353,-261,-92,307
,396,2023-10-27 12:32:23.54,269,-86,-1971,387,-209,-2184,-368,-183,-185,275
,397,2023-10-27 12:32:23.55,233,-49,-1993,476,-181,-2111,-317,-242,-75,279
,398,2023-10-27 12:32:23.56,219,-32,-2009,540,-161,-2033,-343,-184,-159,263
,399,2023-10-27 12:32:23.57,200,-43,-2028,579,-139,-1958,-313,-246,-67,279
,400,2023-10-27 12:32:23.58,200,-49,-2045,605,-117,-1881,-398,-169,-229,283
,401,2023-10-27 12:32:23.59,191,-55,-2064,625,-86,-1799,-349,-215,-134,282
,402,2023-10-27 12:32:23.60,182,-57,-2071,635,-72,-1713,-386,-163,-223,274
,403,2023-10-27 12:32:23.61,172,-56,-2078,636,-58,-1624,-317,-213,-104,265
,404,2023-10-27 12:32:23.62,164,-115,-2067,635,-57,-1526,-374,-152,-222,263
,405,2023-10-27 12:32:23.63,159,-129,-2039,648,-56,-1428,-323,-196,-127,259
,406,2023-10-27 12:32:23.64,151,-150,-2046,668,-42,-1326,-392,-124,-268,258
,407,2023-10-27 12:32:23.65,152,-192,-2023,668,-29,-1214,-330,-171,-159,250
,408,2023-10-27 12:32:23.66,128,-211,-2048,670,-16,-1102,-394,-98,-296,246
,409,2023-10-27 12:32:23.67,143,-73,-2087,668,2,-990,-316,-161,-155,238
,410,2023-10-27 12:32:23.68,163,-236,-2016,650,21,-883,-359,-88,-271,223
,411,2023-10-27 12:32:23.69,142,-260,-2010,648,57,-785,-287,-147,-140,217
,412,2023-10-27 12:32:23.70,144,-256,-2027,644,84,-693,-379,-95,-284,237
,413,2023-10-27 12:32:23.71,130,-275,-2032,630,105,-598,-299,-143,-156,221
,414,2023-10-27 12:32:23.72,153,-267,-2026,613,132,-510,-382,-74,-308,228
,415,2023-10-27 12:32:23.73,144,-289,-2023,599,151,-426,-301,-129,-172,215
,416,2023-10-27 12:32:23.74,135,-265,-2033,571,174,-346,-404,-67,-337,235
,417,2023-10-27 12:32:23.75,133,-288,-2019,542,204,-276,-310,-122,-188,216
,418,2023-10-27 12:32:23.76,157,-287,-2038,523,219,-204,-404,-58,-346,231
,419,2023-10-27 12:32:23.77,141,-304,-2042,500,227,-135,-303,-105,-198,204
,420,2023-10-27 12:32:23.78,161,-299,-2038,466,245,-72,-408,-76,-332,242
,421,2023-10-27 12:32:23.79,146,-311,-2048,434,247,-10,-302,-121,-181,211
,422,2023-10-27 12:32:23.80,168,-294,-2069,396,240,49,-404,-80,-324,242
,423,2023-10-27 12:32:23.81,157,-311,-2042,344,254,104,-302,-112,-190,207
,424,2023-10-27 12:32:23.82,170,-316,-2020,301,256,158,-417,-69,-348,243
,425,2023-10-27 12:32:23.83,184,-311,-2038,268,247,217,-310,-104,-206,207
,426,2023-10-27 12:32:23.84,163,-319,-2063,222,245,265,-429,-72,-357,250
,427,2023-10-27 12:32:23.85,168,-319,-2042,162,244,314,-306,-109,-197,207
,428,2023-10-27 12:32:23.86,165,-315,-2050,111,240,357,-410,-68,-342,239
,429,2023-10-27 12:32:23.87,185,-309,-2045,63,236,398,-283,-98,-185,190
,430,2023-10-27 12:32:23.88,195,-293,-2049,16,234,434,-406,-88,-318,247
,431,2023-10-27 12:32:23.89,208,-290,-2053,-27,236,460,-292,-119,-173,205
,432,2023-10-27 12:32:23.90,205,-260,-2064,-73,234,488,-430,-115,-315,272
,433,2023-10-27 12:32:23.91,213,-283,-2053,-115,231,512,-299,-128,-171,213
,434,2023-10-27 12:32:23.92,202,-270,-2052,-151,232,533,-430,-116,-314,273
,435,2023-10-27 12:32:23.93,223,-248,-2042,-177,225,553,-286,-114,-172,200
,436,2023-10-27 12:32:23.94,212,-239,-2041,-203,221,565,-414,-115,-299,264
,437,2023-10-27 12:32:23.95,214,-228,-2034,-225,218,568,-270,-115,-155,192
