// Data mode  : Full
// Data quality  : High
// Acceleration sensor's range  : 16g
// Gyroscope sensor's range  : 2000dps
//
//ARTIFACT,NUM,DATE,ACC_X,ACC_Y,ACC_Z,GYRO_X,GYRO_Y,GYRO_Z,EOG_L,EOG_R,EOG_H,EOG_V
,1,2023-10-27 12:32:10.54,145,-307,-2037,-2,14,38,-109,77,-186,16
,2,2023-10-27 12:32:10.55,142,-308,-2035,-4,6,38,-304,47,-351,128
,3,2023-10-27 12:32:10.56,171,-301,-2038,-8,6,37,-115,94,-209,10
,4,2023-10-27 12:32:10.57,155,-301,-2037,-9,3,38,-308,80,-388,114
,5,2023-10-27 12:32:10.58,151,-303,-2036,-10,3,39,-122,116,-238,3
,6,2023-10-27 12:32:10.59,158,-304,-2036,-14,1,35,-311,72,-383,119
,7,2023-10-27 12:32:10.60,151,-303,-2040,-14,0,36,-117,104,-221,6
,8,2023-10-27 12:32:10.61,158,-299,-2042,-13,1,36,-306,67,-373,119
,9,2023-10-27 12:32:10.62,151,-287,-2028,-12,-6,33,-119,88,-207,15
,10,2023-10-27 12:32:10.63,158,-304,-2035,-14,-1,29,-308,36,-344,136
,11,2023-10-27 12:32:10.64,145,-297,-2043,-15,-8,28,-125,75,-200,25
,12,2023-10-27 12:32:10.65,154,-303,-2036,-8,-15,29,-318,33,-351,142
,13,2023-10-27 12:32:10.66,153,-293,-2035,-2,-11,31,-122,89,-211,16
,14,2023-10-27 12:32:10.67,162,-295,-2032,-6,-9,26,-307,48,-355,129
,15,2023-10-27 12:32:10.68,162,-293,-2030,-5,-7,27,-125,104,-229,10
,16,2023-10-27 12:32:10.69,165,-297,-2032,-4,0,24,-314,57,-371,128
,17,2023-10-27 12:32:10.70,153,-298,-2027,-2,-5,19,-132,108,-240,12
,18,2023-10-27 12:32:10.71,158,-301,-2032,0,3,18,-322,51,-373,135
,19,2023-10-27 12:32:10.72,154,-303,-2029,2,3,19,-130,107,-237,11
,20,2023-10-27 12:32:10.73,153,-302,-2032,5,-5,16,-304,49,-353,127
,21,2023-10-27 12:32:10.74,147,-302,-2032,4,2,19,-130,103,-233,13
,22,2023-10-27 12:32:10.75,149,-302,-2026,4,0,20,-319,38,-357,140
,23,2023-10-27 12:32:10.76,142,-298,-2028,2,3,21,-137,111,-248,13
,24,2023-10-27 12:32:10.77,146,-295,-2031,-2,-3,21,-312,47,-359,132
,25,2023-10-27 12:32:10.78,155,-296,-2039,-2,10,22,-132,103,-235,14
,26,2023-10-27 12:32:10.79,143,-298,-2037,-6,6,20,-307,26,-333,140
,27,2023-10-27 12:32:10.80,149,-298,-2036,-6,1,23,-138,90,-228,24
,28,2023-10-27 12:32:10.81,141,-292,-2039,-8,6,23,-317,13,-330,152
,29,2023-10-27 12:32:10.82,138,-297,-2036,-11,4,27,-136,76,-212,30
,30,2023-10-27 12:32:10.83,143,-297,-2039,-12,6,26,-299,6,-305,146
,31,2023-10-27 12:32:10.84,153,-293,-2036,-13,7,26,-129,106,-235,11
,32,2023-10-27 12:32:10.85,147,-288,-2033,-15,-3,22,-302,36,-338,133
,33,2023-10-27 12:32:10.86,159,-294,-2038,-16,1,27,-139,116,-255,11
,34,2023-10-27 12:32:10.87,168,-293,-2038,-17,0,24,-299,28,-327,135
,35,2023-10-27 12:32:10.88,150,-294,-2038,-18,8,27,-130,122,-252,4
,36,2023-10-27 12:32:10.89,144,-293,-2038,-17,1,23,-295,21,-316,137
,37,2023-10-27 12:32:10.90,151,-285,-2024,-19,8,28,-141,90,-231,25
,38,2023-10-27 12:32:10.91,155,-289,-2041,-24,-6,22,-297,0,-297,148
,39,2023-10-27 12:32:10.92,151,-290,-2041,-18,0,31,-146,109,-255,18
,40,2023-10-27 12:32:10.93,143,-282,-2039,-24,-2,26,-299,15,-314,142
,41,2023-10-27 12:32:10.94,142,-286,-2035,-24,2,28,-142,100,-242,21
,42,2023-10-27 12:32:10.95,147,-279,-2041,-26,-16,24,-286,1,-287,142
,43,2023-10-27 12:32:10.96,142,-282,-2043,-24,-6,30,-154,116,-270,19
,44,2023-10-27 12:32:10.97,141,-288,-2039,-23,-14,28,-294,32,-326,131
,45,2023-10-27 12:32:10.98,155,-281,-2049,-22,-12,30,-148,126,-274,11
,46,2023-10-27 12:32:10.99,146,-279,-2039,-23,-27,25,-279,10,-289,134
,47,2023-10-27 12:32:11.00,146,-281,-2047,-19,-17,29,-152,97,-249,27
,48,2023-10-27 12:32:11.01,137,-276,-2032,-19,-16,34,-284,2,-286,141
,49,2023-10-27 12:32:11.02,139,-272,-2035,-19,-24,29,-155,90,-245,32
,50,2023-10-27 12:32:11.03,150,-280,-2041,-18,-11,37,-276,-14,-262,145
,51,2023-10-27 12:32:11.04,135,-281,-2044,-18,-21,35,-157,83,-240,37
,52,2023-10-27 12:32:11.05,126,-285,-2039,-12,-22,30,-276,-23,-253,149
,53,2023-10-27 12:32:11.06,134,-280,-2035,-9,-21,35,-166,100,-266,33
,54,2023-10-27 12:32:11.07,143,-274,-2039,-11,-22,31,-275,15,-290,130
,55,2023-10-27 12:32:11.08,128,-268,-2033,-13,-12,32,-164,127,-291,18
,56,2023-10-27 12:32:11.09,145,-276,-2037,-14,-9,29,-271,10,-281,130
,57,2023-10-27 12:32:11.10,140,-275,-2035,-12,0,29,-177,116,-293,30
,58,2023-10-27 12:32:11.11,125,-259,-2087,-17,0,24,-278,0,-278,139
,59,2023-10-27 12:32:11.12,86,-293,-2011,-27,-2,22,-174,105,-279,34
,60,2023-10-27 12:32:11.13,133,-273,-2044,-17,-5,30,-258,-9,-249,133
,61,2023-10-27 12:32:11.14,133,-265,-2039,-11,-8,29,-174,94,-268,40
,62,2023-10-27 12:32:11.15,125,-254,-2040,-14,-5,29,-263,-17,-246,140
,63,2023-10-27 12:32:11.16,133,-265,-2032,-25,-7,25,-177,89,-266,44
,64,2023-10-27 12:32:11.17,132,-266,-2038,-27,3,22,-255,-19,-236,137
,65,2023-10-27 12:32:11.18,130,-252,-2047,-26,-4,23,-182,78,-260,52
,66,2023-10-27 12:32:11.19,133,-258,-2042,-28,-8,18,-253,-41,-212,147
,67,2023-10-27 12:32:11.20,139,-262,-2037,-29,0,22,-177,62,-239,57
,68,2023-10-27 12:32:11.21,137,-263,-2040,-26,-11,21,-243,-44,-199,143
,69,2023-10-27 12:32:11.22,137,-262,-2042,-25,-10,21,-184,68,-252,58
,70,2023-10-27 12:32:11.23,134,-264,-2040,-22,-13,16,-240,-38,-202,139
,71,2023-10-27 12:32:11.24,133,-257,-2042,-24,-7,22,-182,68,-250,57
,72,2023-10-27 12:32:11.25,131,-256,-2041,-23,-15,17,-234,-43,-191,138
,73,2023-10-27 12:32:11.26,125,-253,-2043,-20,-13,16,-176,83,-259,46
,74,2023-10-27 12:32:11.27,138,-255,-2039,-22,-12,19,-224,-20,-204,122
,75,2023-10-27 12:32:11.28,134,-253,-2044,-21,-10,18,-188,108,-296,40
,76,2023-10-27 12:32:11.29,133,-248,-2042,-23,-15,18,-218,11,-229,103
,77,2023-10-27 12:32:11.30,130,-244,-2040,-22,-11,16,-192,136,-328,28
,78,2023-10-27 12:32:11.31,134,-254,-2047,-21,-9,16,-224,10,-234,107
,79,2023-10-27 12:32:11.32,130,-250,-2045,-22,-8,17,-186,107,-293,39
,80,2023-10-27 12:32:11.33,126,-252,-2026,-17,-11,17,-207,-18,-189,112
,81,2023-10-27 12:32:11.34,141,-256,-2034,-14,-11,16,-188,86,-274,51
,82,2023-10-27 12:32:11.35,141,-252,-2034,-14,2,20,-214,-38,-176,126
,83,2023-10-27 12:32:11.36,138,-254,-2038,-10,0,16,-197,83,-280,57
,84,2023-10-27 12:32:11.37,123,-253,-2045,-10,6,16,-204,-18,-186,111
,85,2023-10-27 12:32:11.38,126,-251,-2037,-3,1,14,-202,91,-293,55
,86,2023-10-27 12:32:11.39,135,-255,-2047,-2,4,13,-206,-27,-179,116
,87,2023-10-27 12:32:11.40,135,-253,-2043,7,7,16,-212,76,-288,68
,88,2023-10-27 12:32:11.41,131,-256,-2036,9,1,16,-206,-32,-174,119
,89,2023-10-27 12:32:11.42,129,-253,-2038,15,9,21,-216,111,-327,52
,90,2023-10-27 12:32:11.43,145,-250,-2044,16,12,26,-198,9,-207,94
,91,2023-10-27 12:32:11.44,126,-255,-2040,16,7,23,-219,121,-340,49
,92,2023-10-27 12:32:11.45,129,-249,-2040,16,12,28,-199,2,-201,98
,93,2023-10-27 12:32:11.46,139,-250,-2037,15,11,25,-221,103,-324,59
,94,2023-10-27 12:32:11.47,125,-254,-2038,13,16,27,-192,-18,-174,105
,95,2023-10-27 12:32:11.48,124,-255,-2044,11,12,28,-219,82,-301,68
,96,2023-10-27 12:32:11.49,128,-258,-2042,12,15,28,-180,-20,-160,100
,97,2023-10-27 12:32:11.50,131,-258,-2040,11,17,28,-228,104,-332,62
,98,2023-10-27 12:32:11.51,139,-257,-2041,8,14,24,-190,0,-190,95
,99,2023-10-27 12:32:11.52,139,-256,-2038,11,22,26,-240,90,-330,75
,100,2023-10-27 12:32:11.53,140,-258,-2037,9,26,26,-187,-25,-162,106
,101,2023-10-27 12:32:11.54,138,-255,-2041,7,25,26,-230,71,-301,79
,102,2023-10-27 12:32:11.55,138,-253,-2041,8,25,24,-168,-16,-152,92
,103,2023-10-27 12:32:11.56,135,-252,-2046,11,23,25,-225,96,-321,64
,104,2023-10-27 12:32:11.57,127,-255,-2041,11,23,25,-161,-7,-154,84
,105,2023-10-27 12:32:11.58,150,-256,-2034,13,25,25,-219,88,-307,65
,106,2023-10-27 12:32:11.59,139,-254,-2036,9,24,23,-155,-5,-150,80
,107,2023-10-27 12:32:11.60,134,-255,-2041,10,23,22,-234,82,-316,76
,108,2023-10-27 12:32:11.61,138,-266,-2043,9,18,25,-160,-9,-151,84
,109,2023-10-27 12:32:11.62,140,-259,-2039,10,21,27,-232,90,-322,71
,110,2023-10-27 12:32:11.63,139,-261,-2041,12,15,23,-152,-2,-150,77
,111,2023-10-27 12:32:11.64,137,-257,-2047,13,12,26,-234,77,-311,78
,112,2023-10-27 12:32:11.65,144,-260,-2037,15,13,28,-148,-3,-145,75
,113,2023-10-27 12:32:11.66,143,-256,-2049,15,7,27,-248,92,-340,78
,114,2023-10-27 12:32:11.67,142,-265,-2041,13,2,25,-156,9,-165,73
,115,2023-10-27 12:32:11.68,140,-268,-2044,16,3,26,-246,72,-318,87
,116,2023-10-27 12:32:11.69,144,-265,-2050,18,7,28,-148,-16,-132,82
,117,2023-10-27 12:32:11.70,148,-270,-2041,21,1,21,-248,74,-322,87
,118,2023-10-27 12:32:11.71,130,-264,-2040,22,6,25,-146,2,-148,72
,119,2023-10-27 12:32:11.72,131,-263,-2032,21,4,23,-258,64,-322,97
,120,2023-10-27 12:32:11.73,137,-262,-2031,20,4,21,-141,-12,-129,76
,121,2023-10-27 12:32:11.74,132,-273,-2036,20,1,17,-250,80,-330,85
,122,2023-10-27 12:32:11.75,127,-273,-2041,24,0,12,-132,34,-166,49
,123,2023-10-27 12:32:11.76,135,-269,-2032,27,5,12,-253,124,-377,64
,124,2023-10-27 12:32:11.77,148,-267,-2025,28,0,7,-129,57,-186,36
,125,2023-10-27 12:32:11.78,149,-267,-2036,25,4,2,-262,117,-379,72
,126,2023-10-27 12:32:11.79,146,-242,-2106,20,12,-1,-137,38,-175,49
,127,2023-10-27 12:32:11.80,92,-295,-2012,6,35,-7,-265,104,-369,80
,128,2023-10-27 12:32:11.81,140,-284,-2027,12,31,-9,-131,50,-181,40
,129,2023-10-27 12:32:11.82,157,-263,-2039,25,16,-8,-272,109,-381,81
,130,2023-10-27 12:32:11.83,142,-276,-2018,23,13,-6,-133,40,-173,46
,131,2023-10-27 12:32:11.84,133,-286,-2030,17,23,-9,-266,99,-365,83
,132,2023-10-27 12:32:11.85,133,-277,-2036,18,24,-10,-119,52,-171,33
,133,2023-10-27 12:32:11.86,126,-275,-2036,17,23,-4,-258,115,-373,71
,134,2023-10-27 12:32:11.87,140,-276,-2032,10,20,-9,-116,63,-179,26
,135,2023-10-27 12:32:11.88,151,-273,-2034,6,29,-8,-280,98,-378,91
,136,2023-10-27 12:32:11.89,144,-279,-2033,3,18,-12,-129,42,-171,43
,137,2023-10-27 12:32:11.90,141,-284,-2036,3,34,-7,-274,76,-350,99
,138,2023-10-27 12:32:11.91,142,-280,-2035,0,24,-8,-114,43,-157,35
,139,2023-10-27 12:32:11.92,151,-285,-2048,-1,29,-2,-268,94,-362,87
,140,2023-10-27 12:32:11.93,152,-284,-2041,-2,22,3,-109,60,-169,24
,141,2023-10-27 12:32:11.94,147,-283,-2046,-4,20,5,-275,98,-373,88
,142,2023-10-27 12:32:11.95,144,-298,-2031,-18,39,13,-110,54,-164,28
,143,2023-10-27 12:32:11.96,161,-286,-2033,-13,9,10,-269,74,-343,97
,144,2023-10-27 12:32:11.97,159,-276,-2041,-12,18,14,-105,46,-151,29
,145,2023-10-27 12:32:11.98,157,-280,-2047,-12,7,15,-283,65,-348,109
,146,2023-10-27 12:32:11.99,164,-265,-2042,-15,19,18,-114,41,-155,36
,147,2023-10-27 12:32:12.00,157,-265,-2033,-19,8,9,-276,58,-334,109
,148,2023-10-27 12:32:12.01,150,-270,-2033,-18,23,11,-106,42,-148,32
,149,2023-10-27 12:32:12.02,141,-270,-2039,-20,7,6,-285,64,-349,110
,150,2023-10-27 12:32:12.03,153,-271,-2031,-17,12,3,-109,44,-153,32
,151,2023-10-27 12:32:12.04,162,-276,-2030,-16,10,-2,-286,65,-351,110
,152,2023-10-27 12:32:12.05,152,-274,-2028,-19,13,-10,-106,51,-157,27
,153,2023-10-27 12:32:12.06,190,-248,-2047,-19,21,-8,-284,58,-342,113
,154,2023-10-27 12:32:12.07,166,-274,-2041,-22,14,-20,-106,45,-151,30
,155,2023-10-27 12:32:12.08,169,-280,-2035,-12,10,-22,-290,39,-329,125
,156,2023-10-27 12:32:12.09,173,-271,-2046,-1,20,-20,-114,34,-148,40
,157,2023-10-27 12:32:12.10,167,-274,-2034,1,7,-26,-302,46,-348,128
,158,2023-10-27 12:32:12.11,159,-270,-2031,5,15,-36,-105,65,-170,20
,159,2023-10-27 12:32:12.12,165,-277,-2027,8,18,-36,-291,64,-355,113
,160,2023-10-27 12:32:12.13,162,-272,-2029,12,14,-45,-107,76,-183,15
,161,2023-10-27 12:32:12.14,165,-275,-2028,13,16,-49,-300,57,-357,121
,162,2023-10-27 12:32:12.15,153,-274,-2033,14,24,-54,-116,64,-180,26
,163,2023-10-27 12:32:12.16,167,-283,-2027,11,19,-66,-303,61,-364,121
,164,2023-10-27 12:32:12.17,137,-284,-2024,10,29,-68,-118,74,-192,22
,165,2023-10-27 12:32:12.18,175,-288,-2023,15,17,-68,-302,65,-367,118
,166,2023-10-27 12:32:12.19,160,-284,-2043,21,17,-73,-113,77,-190,18
,167,2023-10-27 12:32:12.20,142,-304,-2014,18,19,-76,-308,57,-365,125
,168,2023-10-27 12:32:12.21,168,-304,-2041,25,8,-80,-122,73,-195,24
,169,2023-10-27 12:32:12.22,165,-307,-2025,31,17,-74,-317,51,-368,133
,170,2023-10-27 12:32:12.23,158,-308,-2019,35,10,-79,-124,61,-185,31
,171,2023-10-27 12:32:12.24,163,-316,-2050,29,18,-83,-306,29,-335,138
,172,2023-10-27 12:32:12.25,170,-326,-2032,28,18,-74,-120,60,-180,30
,173,2023-10-27 12:32:12.26,174,-339,-2022,34,23,-75,-323,30,-353,146
,174,2023-10-27 12:32:12.27,184,-357,-2050,52,26,-58,-137,56,-193,40
,175,2023-10-27 12:32:12.28,173,-356,-2028,57,13,-47,-325,11,-336,157
,176,2023-10-27 12:32:12.29,200,-368,-2051,73,14,-18,-140,52,-192,44
,177,2023-10-27 12:32:12.30,192,-370,-2038,82,9,12,-332,17,-349,157
,178,2023-10-27 12:32:12.31,201,-397,-2029,89,5,52,-133,61,-194,36
,179,2023-10-27 12:32:12.32,201,-438,-2044,95,0,104,-318,26,-344,146
,180,2023-10-27 12:32:12.33,227,-490,-2066,116,-12,195,-138,61,-199,38
,181,2023-10-27 12:32:12.34,244,-562,-2068,143,-32,327,-328,14,-342,157
,182,2023-10-27 12:32:12.35,283,-675,-2072,166,-31,522,-160,92,-252,34
,183,2023-10-27 12:32:12.36,302,-760,-2107,182,-24,774,-347,76,-423,135
,184,2023-10-27 12:32:12.37,317,-812,-2153,186,-3,1080,-188,132,-320,28
,185,2023-10-27 12:32:12.38,359,-859,-2158,216,-22,1436,-362,83,-445,139
,186,2023-10-27 12:32:12.39,406,-870,-2143,255,-45,1838,-196,129,-325,33
,187,2023-10-27 12:32:12.40,438,-899,-2101,295,-65,2266,-367,64,-431,151
,188,2023-10-27 12:32:12.41,506,-903,-2088,343,-66,2708,-202,147,-349,27
,189,2023-10-27 12:32:12.42,554,-896,-2075,408,-57,3137,-368,88,-456,140
,190,2023-10-27 12:32:12.43,620,-817,-2089,498,-57,3560,-206,170,-376,18
,191,2023-10-27 12:32:12.44,666,-758,-2076,599,-83,3953,-359,116,-475,121
,192,2023-10-27 12:32:12.45,734,-687,-2044,681,-86,4307,-208,183,-391,12
,193,2023-10-27 12:32:12.46,761,-588,-2062,736,-51,4603,-371,95,-466,138
,194,2023-10-27 12:32:12.47,828,-505,-2101,766,0,4860,-214,132,-346,41
,195,2023-10-27 12:32:12.48,842,-455,-2156,784,25,5079,-359,42,-401,158
,196,2023-10-27 12:32:12.49,893,-390,-2110,787,50,5283,-208,90,-298,59
,197,2023-10-27 12:32:12.50,880,-384,-2106,765,129,5456,-357,8,-365,174
,198,2023-10-27 12:32:12.51,938,-305,-2074,719,174,5626,-220,86,-306,67
,199,2023-10-27 12:32:12.52,959,-134,-2089,647,209,5787,-360,22,-382,169
,200,2023-10-27 12:32:12.53,1019,-304,-2036,530,288,5932,-232,91,-323,70
,201,2023-10-27 12:32:12.54,1048,-244,-1979,453,384,6072,-364,14,-378,175
,202,2023-10-27 12:32:12.55,1077,-100,-1951,408,488,6175,-243,43,-286,100
,203,2023-10-27 12:32:12.56,1110,-169,-1975,352,608,6253,-372,-53,-319,212
,204,2023-10-27 12:32:12.57,1164,-132,-2020,288,746,6342,-236,-3,-233,119
,205,2023-10-27 12:32:12.58,1120,-22,-2031,196,832,6395,-359,-75,-284,217
,206,2023-10-27 12:32:12.59,1207,12,-2060,109,883,6450,-253,52,-305,100
,207,2023-10-27 12:32:12.60,1179,59,-1966,57,937,6464,-373,0,-373,186
,208,2023-10-27 12:32:12.61,1172,-15,-2012,58,964,6458,-249,83,-332,83
,209,2023-10-27 12:32:12.62,1159,106,-1979,42,1007,6416,-355,-7,-348,181
,210,2023-10-27 12:32:12.63,1159,101,-1989,29,1011,6321,-252,89,-341,81
,211,2023-10-27 12:32:12.64,1117,203,-2004,-19,1070,6183,-360,4,-364,178
,212,2023-10-27 12:32:12.65,1089,190,-1975,-84,1126,6007,-260,97,-357,81
,213,2023-10-27 12:32:12.66,941,220,-2022,-123,1168,5829,-352,-2,-350,177
,214,2023-10-27 12:32:12.67,904,254,-2101,-142,1100,5656,-278,89,-367,94
,215,2023-10-27 12:32:12.68,900,279,-2011,-120,1024,5456,-376,-11,-365,193
,216,2023-10-27 12:32:12.69,816,395,-1989,-51,1002,5181,-282,98,-380,92
,217,2023-10-27 12:32:12.70,649,497,-2104,-77,1020,4839,-355,-3,-352,179
,218,2023-10-27 12:32:12.71,468,584,-2157,-142,995,4460,-253,65,-318,94
,219,2023-10-27 12:32:12.72,258,785,-2256,-168,905,4009,-329,-69,-260,199
,220,2023-10-27 12:32:12.73,29,889,-2408,-272,739,3522,-256,56,-312,100
,221,2023-10-27 12:32:12.74,-77,1028,-2344,-407,517,2973,-337,-33,-304,185
,222,2023-10-27 12:32:12.75,-205,1158,-2271,-527,355,2321,-254,100,-354,77
,223,2023-10-27 12:32:12.76,-381,1156,-2157,-684,253,1625,-325,-11,-314,168
,224,2023-10-27 12:32:12.77,-476,1046,-2105,-827,178,914,-241,111,-352,65
,225,2023-10-27 12:32:12.78,-561,960,-2001,-888,79,251,-312,-9,-303,160
,226,2023-10-27 12:32:12.79,-607,920,-1822,-888,25,-343,-220,117,-337,51
,227,2023-10-27 12:32:12.80,-648,647,-1848,-865,-23,-860,-292,-6,-286,149
,228,2023-10-27 12:32:12.81,-721,415,-1884,-863,-16,-1254,-229,114,-343,57
,229,2023-10-27 12:32:12.82,-720,190,-1925,-801,-74,-1487,-300,-7,-293,153
,230,2023-10-27 12:32:12.83,-611,36,-1911,-679,-139,-1556,-252,111,-363,70
,231,2023-10-27 12:32:12.84,-521,-68,-1947,-522,-169,-1510,-306,-16,-290,161
,232,2023-10-27 12:32:12.85,-522,-39,-1985,-418,-208,-1395,-264,114,-378,75
,233,2023-10-27 12:32:12.86,-444,128,-1984,-423,-194,-1299,-310,-3,-307,156
,234,2023-10-27 12:32:12.87,-481,-20,-2077,-460,-274,-1144,-271,141,-412,65
,235,2023-10-27 12:32:12.88,-517,-32,-2262,-510,-371,-927,-309,23,-332,143
,236,2023-10-27 12:32:12.89,-531,69,-2366,-551,-546,-699,-267,150,-417,58
,237,2023-10-27 12:32:12.90,-531,136,-2338,-608,-735,-493,-294,9,-303,142
,238,2023-10-27 12:32:12.91,-497,209,-2292,-640,-935,-315,-235,134,-369,50
,239,2023-10-27 12:32:12.92,-517,281,-2235,-622,-1115,-185,-262,5,-267,128
,240,2023-10-27 12:32:12.93,-566,333,-2214,-541,-1281,-94,-234,141,-375,46
,241,2023-10-27 12:32:12.94,-607,367,-2068,-387,-1417,-27,-267,13,-280,127
,242,2023-10-27 12:32:12.95,-602,476,-1917,-223,-1536,4,-258,136,-394,61
,243,2023-10-27 12:32:12.96,-708,590,-1839,-85,-1580,-24,-277,-2,-275,139
,244,2023-10-27 12:32:12.97,-685,681,-1736,5,-1577,-94,-252,124,-376,64
,245,2023-10-27 12:32:12.98,-735,578,-1968,40,-1464,-208,-261,0,-261,130
,246,2023-10-27 12:32:12.99,-828,398,-1929,5,-1410,-264,-252,114,-366,69
,247,2023-10-27 12:32:13.00,-784,333,-1920,44,-1382,-276,-248,-3,-245,125
,248,2023-10-27 12:32:13.01,-732,254,-1818,140,-1318,-282,-248,128,-376,60
,249,2023-10-27 12:32:13.02,-782,192,-1802,249,-1223,-285,-250,6,-256,122
,250,2023-10-27 12:32:13.03,-861,308,-1707,290,-1143,-257,-264,123,-387,70
,251,2023-10-27 12:32:13.04,-746,194,-1950,274,-1009,-233,-256,0,-256,128
,252,2023-10-27 12:32:13.05,-845,122,-1975,199,-859,-225,-250,126,-376,62
,253,2023-10-27 12:32:13.06,-817,104,-2032,97,-705,-190,-236,0,-236,118
,254,2023-10-27 12:32:13.07,-858,208,-1967,17,-581,-171,-246,125,-371,60
,255,2023-10-27 12:32:13.08,-898,136,-1894,-12,-497,-145,-233,2,-235,115
,256,2023-10-27 12:32:13.09,-865,187,-1843,-30,-381,-123,-266,119,-385,73
,257,2023-10-27 12:32:13.10,-818,125,-1921,-20,-239,-130,-239,7,-246,116
,258,2023-10-27 12:32:13.11,-895,146,-1877,23,-173,-132,-260,128,-388,66
,259,2023-10-27 12:32:13.12,-886,115,-1923,47,-115,-114,-227,12,-239,107
,260,2023-10-27 12:32:13.13,-839,147,-1995,58,-35,-127,-263,124,-387,69
,261,2023-10-27 12:32:13.14,-875,147,-2012,19,41,-142,-227,8,-235,109
,262,2023-10-27 12:32:13.15,-824,184,-1976,-32,107,-153,-263,119,-382,72
,263,2023-10-27 12:32:13.16,-805,172,-1959,-42,158,-179,-210,9,-219,100
,264,2023-10-27 12:32:13.17,-795,164,-1948,-32,199,-195,-256,122,-378,67
,265,2023-10-27 12:32:13.18,-787,184,-1944,-25,207,-218,-212,10,-222,101
,266,2023-10-27 12:32:13.19,-770,201,-1913,-20,219,-232,-261,119,-380,71
,267,2023-10-27 12:32:13.20,-760,187,-1879,6,223,-243,-208,20,-228,94
,268,2023-10-27 12:32:13.21,-739,136,-1845,68,199,-260,-275,131,-406,72
,269,2023-10-27 12:32:13.22,-772,124,-1895,146,177,-265,-210,26,-236,92
,270,2023-10-27 12:32:13.23,-774,122,-1910,220,111,-264,-284,118,-402,83
,271,2023-10-27 12:32:13.24,-743,100,-1919,271,86,-260,-210,7,-217,101
,272,2023-10-27 12:32:13.25,-749,94,-1897,306,65,-261,-269,98,-367,85
,273,2023-10-27 12:32:13.26,-741,74,-1938,318,63,-259,-192,11,-203,90
,274,2023-10-27 12:32:13.27,-738,53,-1953,314,74,-254,-266,113,-379,76
,275,2023-10-27 12:32:13.28,-712,40,-1939,296,75,-246,-193,25,-218,84
,276,2023-10-27 12:32:13.29,-715,5,-1948,271,91,-234,-286,126,-412,80
,277,2023-10-27 12:32:13.30,-700,-8,-1927,257,90,-218,-200,38,-238,81
,278,2023-10-27 12:32:13.31,-671,-43,-1931,230,110,-193,-281,124,-405,78
,279,2023-10-27 12:32:13.32,-667,-60,-1992,199,128,-163,-185,43,-228,71
,280,2023-10-27 12:32:13.33,-658,-49,-1937,165,151,-126,-288,121,-409,83
,281,2023-10-27 12:32:13.34,-649,-85,-1934,138,144,-82,-189,40,-229,74
,282,2023-10-27 12:32:13.35,-620,-59,-1955,126,118,-42,-290,115,-405,87
,283,2023-10-27 12:32:13.36,-604,-61,-1953,142,68,2,-195,39,-234,78
,284,2023-10-27 12:32:13.37,-587,-81,-1954,144,44,34,-320,114,-434,103
,285,2023-10-27 12:32:13.38,-582,-72,-1929,129,38,61,-206,47,-253,79
,286,2023-10-27 12:32:13.39,-567,-71,-1939,126,38,81,-317,119,-436,99
,287,2023-10-27 12:32:13.40,-586,-81,-1950,133,57,101,-202,40,-242,81
,288,2023-10-27 12:32:13.41,-549,-49,-1939,131,32,123,-309,101,-410,104
,289,2023-10-27 12:32:13.42,-568,-46,-1946,103,25,123,-181,33,-214,74
,290,2023-10-27 12:32:13.43,-514,-72,-1898,121,33,135,-300,96,-396,102
,291,2023-10-27 12:32:13.44,-533,-78,-1902,165,44,139,-174,45,-219,64
,292,2023-10-27 12:32:13.45,-531,-77,-1915,195,51,146,-299,102,-401,98
,293,2023-10-27 12:32:13.46,-558,-31,-1947,235,81,140,-167,34,-201,66
,294,2023-10-27 12:32:13.47,-549,-40,-1958,245,101,115,-286,77,-363,104
,295,2023-10-27 12:32:13.48,-539,-9,-1997,252,118,89,-173,35,-208,69
,296,2023-10-27 12:32:13.49,-558,12,-1954,227,159,51,-331,97,-428,117
,297,2023-10-27 12:32:13.50,-540,-17,-1921,219,184,19,-207,64,-271,71
,298,2023-10-27 12:32:13.51,-563,-43,-1910,247,204,-14,-363,106,-469,128
,299,2023-10-27 12:32:13.52,-548,-70,-1956,282,199,-34,-208,62,-270,73
,300,2023-10-27 12:32:13.53,-560,-110,-1975,312,189,-57,-336,103,-439,116
,301,2023-10-27 12:32:13.54,-544,-79,-1963,348,175,-92,-184,68,-252,58
,302,2023-10-27 12:32:13.55,-551,-124,-1967,370,160,-128,-333,102,-435,115
,303,2023-10-27 12:32:13.56,-515,-96,-1951,369,154,-161,-188,68,-256,60
,304,2023-10-27 12:32:13.57,-519,-121,-1967,362,165,-199,-350,101,-451,124
,305,2023-10-27 12:32:13.58,-512,-124,-1945,340,174,-228,-196,72,-268,62
,306,2023-10-27 12:32:13.59,-534,-143,-1926,324,179,-257,-351,99,-450,126
,307,2023-10-27 12:32:13.60,-508,-163,-1947,312,168,-283,-199,66,-265,66
,308,2023-10-27 12:32:13.61,-508,-176,-1942,285,176,-298,-364,74,-438,145
,309,2023-10-27 12:32:13.62,-525,-179,-1907,232,190,-328,-204,52,-256,76
,310,2023-10-27 12:32:13.63,-504,-166,-1923,192,215,-359,-368,70,-438,149
,311,2023-10-27 12:32:13.64,-546,-178,-1926,132,247,-395,-204,60,-264,72
,312,2023-10-27 12:32:13.65,-541,-178,-1894,71,277,-436,-362,81,-443,140
,313,2023-10-27 12:32:13.66,-531,-216,-1923,32,310,-473,-197,74,-271,61
,314,2023-10-27 12:32:13.67,-536,-188,-1908,-11,330,-515,-360,92,-452,134
,315,2023-10-27 12:32:13.68,-515,-178,-1900,-72,373,-561,-189,86,-275,51
,316,2023-10-27 12:32:13.69,-519,-191,-1910,-108,403,-629,-361,97,-458,132
,317,2023-10-27 12:32:13.70,-514,-184,-1883,-131,416,-706,-193,88,-281,52
,318,2023-10-27 12:32:13.71,-553,-182,-1891,-135,411,-778,-364,75,-439,144
,319,2023-10-27 12:32:13.72,-554,-173,-1953,-170,379,-865,-181,70,-251,55
,320,2023-10-27 12:32:13.73,-511,-211,-1957,-157,353,-949,-348,66,-414,141
,321,2023-10-27 12:32:13.74,-505,-192,-1904,-112,345,-1021,-170,77,-247,46
,322,2023-10-27 12:32:13.75,-502,-177,-1929,-106,348,-1111,-344,83,-427,130
,323,2023-10-27 12:32:13.76,-471,-157,-1979,-117,344,-1217,-168,84,-252,42
,324,2023-10-27 12:32:13.77,-446,-103,-1954,-122,353,-1327,-342,69,-411,136
,325,2023-10-27 12:32:13.78,-428,-84,-1961,-137,375,-1445,-166,85,-251,40
,326,2023-10-27 12:32:13.79,-388,-87,-1973,-173,408,-1573,-354,65,-419,144
,327,2023-10-27 12:32:13.80,-373,-68,-2015,-208,446,-1698,-176,83,-259,46
,328,2023-10-27 12:32:13.81,-376,-72,-2014,-234,461,-1825,-354,57,-411,148
,329,2023-10-27 12:32:13.82,-320,-64,-2013,-264,458,-1937,-180,84,-264,48
,330,2023-10-27 12:32:13.83,-310,-64,-2042,-296,464,-2066,-367,58,-425,154
,331,2023-10-27 12:32:13.84,-272,-82,-2044,-335,469,-2182,-170,87,-257,41
,332,2023-10-27 12:32:13.85,-241,-106,-2075,-349,454,-2287,-342,60,-402,141
,333,2023-10-27 12:32:13.86,-224,-111,-2079,-362,446,-2381,-147,92,-239,27
,334,2023-10-27 12:32:13.87,-189,-89,-2105,-373,415,-2470,-325,66,-391,129
,335,2023-10-27 12:32:13.88,-156,-118,-2107,-416,400,-2561,-144,101,-245,21
,336,2023-10-27 12:32:13.89,-107,-129,-2090,-449,376,-2626,-324,66,-390,129
,337,2023-10-27 12:32:13.90,-89,-108,-2086,-453,351,-2695,-151,107,-258,22
,338,2023-10-27 12:32:13.91,-59,-122,-2100,-461,304,-2770,-340,72,-412,134
,339,2023-10-27 12:32:13.92,-27,-168,-2077,-482,286,-2833,-155,114,-269,20
,340,2023-10-27 12:32:13.93,-8,-136,-2106,-474,270,-2888,-325,75,-400,125
,341,2023-10-27 12:32:13.94,-3,-169,-2108,-451,209,-2933,-152,112,-264,20
,342,2023-10-27 12:32:13.95,35,-172,-2072,-422,171,-2974,-338,60,-398,139
,343,2023-10-27 12:32:13.96,37,-195,-2080,-389,144,-3006,-164,111,-275,26
,344,2023-10-27 12:32:13.97,41,-182,-2050,-346,108,-3026,-345,68,-413,138
,345,2023-10-27 12:32:13.98,63,-160,-2059,-293,99,-3048,-156,117,-273,19
,346,2023-10-27 12:32:13.99,45,-170,-2067,-256,68,-3079,-327,58,-385,134
,347,2023-10-27 12:32:14.00,67,-235,-2060,-229,52,-3081,-156,113,-269,21
,348,2023-10-27 12:32:14.01,48,-229,-2088,-162,22,-3059,-341,52,-393,144
,349,2023-10-27 12:32:14.02,45,-242,-2070,-93,-28,-3034,-162,109,-271,26
,350,2023-10-27 12:32:14.03,64,-257,-2056,-34,-69,-3003,-337,52,-389,142
,351,2023-10-27 12:32:14.04,67,-261,-2039,15,-103,-2970,-191,112,-303,39
,352,2023-10-27 12:32:14.05,77,-286,-2025,64,-109,-2937,-371,50,-421,160
,353,2023-10-27 12:32:14.06,43,-401,-2007,110,-102,-2904,-181,117,-298,32
,354,2023-10-27 12:32:14.07,88,-313,-1998,177,-109,-2864,-333,42,-375,145
,355,2023-10-27 12:32:14.08,108,-361,-1960,232,-85,-2816,-185,112,-297,36
,356,2023-10-27 12:32:14.09,89,-361,-1963,273,-72,-2778,-364,45,-409,159
,357,2023-10-27 12:32:14.10,91,-383,-1985,302,-53,-2724,-200,110,-310,45
,358,2023-10-27 12:32:14.11,100,-397,-1978,326,-14,-2670,-356,32,-388,162
,359,2023-10-27 12:32:14.12,108,-384,-1955,357,5,-2626,-173,110,-283,31
,360,2023-10-27 12:32:14.13,113,-376,-1984,375,34,-2573,-329,31,-360,149
,361,2023-10-27 12:32:14.14,112,-403,-2001,383,79,-2535,-177,124,-301,26
,362,2023-10-27 12:32:14.15,84,-445,-1995,394,94,-2500,-340,63,-403,138
,363,2023-10-27 12:32:14.16,138,-384,-1997,445,93,-2454,-202,148,-350,27
,364,2023-10-27 12:32:14.17,164,-441,-1943,438,106,-2411,-356,52,-408,152
,365,2023-10-27 12:32:14.18,172,-455,-1969,413,172,-2375,-213,128,-341,42
,366,2023-10-27 12:32:14.19,175,-457,-1967,418,185,-2325,-362,41,-403,160
,367,2023-10-27 12:32:14.20,186,-459,-1959,426,203,-2279,-201,122,-323,39
,368,2023-10-27 12:32:14.21,228,-437,-1936,409,221,-2227,-334,35,-369,149
,369,2023-10-27 12:32:14.22,239,-443,-1941,391,247,-2192,-195,127,-322,34
,370,2023-10-27 12:32:14.23,270,-402,-1913,389,265,-2158,-337,35,-372,151
,371,2023-10-27 12:32:14.24,252,-433,-1922,367,292,-2126,-205,128,-333,38
,372,2023-10-27 12:32:14.25,277,-415,-1917,338,319,-2105,-353,19,-372,167
,373,2023-10-27 12:32:14.26,286,-440,-1947,310,352,-2075,-235,120,-355,57
,374,2023-10-27 12:32:14.27,306,-424,-1956,279,361,-2043,-362,19,-381,171
,375,2023-10-27 12:32:14.28,330,-431,-1954,219,395,-1969,-238,116,-354,61
,376,2023-10-27 12:32:14.29,341,-444,-1950,192,399,-1940,-358,7,-365,175
,377,2023-10-27 12:32:14.30,345,-443,-1935,166,409,-1894,-236,107,-343,64
,378,2023-10-27 12:32:14.31,396,-445,-1944,145,408,-1854,-352,6,-358,173
,379,2023-10-27 12:32:14.32,388,-425,-1940,127,426,-1811,-248,111,-359,68
,380,2023-10-27 12:32:14.33,417,-417,-1943,105,442,-1771,-361,5,-366,178
,381,2023-10-27 12:32:14.34,430,-411,-1923,69,463,-1743,-252,121,-373,65
,382,2023-10-27 12:32:14.35,444,-404,-1925,50,505,-1718,-353,0,-353,176
,383,2023-10-27 12:32:14.36,443,-396,-1972,29,525,-1693,-268,114,-382,77
,384,2023-10-27 12:32:14.37,477,-397,-1993,-2,559,-1667,-368,6,-374,181
,385,2023-10-27 12:32:14.38,465,-435,-2009,-20,560,-1634,-279,116,-395,81
,386,2023-10-27 12:32:14.39,482,-428,-2061,-27,540,-1583,-362,-3,-359,182
,387,2023-10-27 12:32:14.40,507,-420,-2103,-33,515,-1521,-283,118,-401,82
,388,2023-10-27 12:32:14.41,511,-415,-2077,-40,462,-1456,-367,0,-367,183
,389,2023-10-27 12:32:14.42,519,-400,-2071,-39,427,-1387,-294,113,-407,90
,390,2023-10-27 12:32:14.43,529,-390,-2072,-38,360,-1316,-363,-11,-352,187
,391,2023-10-27 12:32:14.44,551,-394,-2081,-39,303,-1246,-301,116,-417,92
,392,2023-10-27 12:32:14.45,532,-402,-2071,-33,218,-1170,-366,-4,-362,185
,393,2023-10-27 12:32:14.46,548,-399,-2082,-24,168,-1090,-307,112,-419,97
,394,2023-10-27 12:32:14.47,558,-376,-2049,-27,119,-1014,-366,-11,-355,188
,395,2023-10-27 12:32:14.48,554,-394,-2044,-44,75,-940,-331,106,-437,112
,396,2023-10-27 12:32:14.49,550,-383,-2001,-46,44,-861,-375,-19,-356,197
,397,2023-10-27 12:32:14.50,574,-409,-1996,-36,8,-790,-310,115,-425,97
,398,2023-10-27 12:32:14.51,553,-412,-1980,-34,6,-726,-352,-9,-343,180
,399,2023-10-27 12:32:14.52,559,-425,-1981,-15,-2,-658,-348,121,-469,113
,400,2023-10-27 12:32:14.53,562,-427,-1963,-11,10,-599,-394,-5,-389,199
,401,2023-10-27 12:32:14.54,574,-424,-1987,11,10,-539,-390,124,-514,133
,402,2023-10-27 12:32:14.55,556,-420,-2010,21,17,-483,-409,-11,-398,210
,403,2023-10-27 12:32:14.56,582,-407,-1985,41,24,-426,-389,124,-513,132
,404,2023-10-27 12:32:14.57,595,-398,-2052,68,25,-378,-403,-18,-385,210
,405,2023-10-27 12:32:14.58,599,-222,-2059,80,8,-334,-403,105,-508,149
,406,2023-10-27 12:32:14.59,618,-357,-2036,100,-45,-297,-406,-28,-378,217
,407,2023-10-27 12:32:14.60,554,-366,-2020,137,-38,-255,-404,106,-510,149
,408,2023-10-27 12:32:14.61,588,-344,-2054,178,-90,-218,-398,-29,-369,213
,409,2023-10-27 12:32:14.62,584,-323,-2072,201,-116,-197,-414,103,-517,155
,410,2023-10-27 12:32:14.63,574,-311,-2085,219,-157,-185,-407,-39,-368,223
,411,2023-10-27 12:32:14.64,578,-308,-2048,251,-215,-172,-425,93,-518,166
,412,2023-10-27 12:32:14.65,581,-295,-2051,282,-263,-169,-400,-34,-366,217
,413,2023-10-27 12:32:14.66,590,-287,-2088,306,-305,-176,-425,89,-514,168
,414,2023-10-27 12:32:14.67,552,-310,-2080,323,-349,-186,-392,-40,-352,216
,415,2023-10-27 12:32:14.68,532,-318,-2084,353,-395,-194,-423,95,-518,164
,416,2023-10-27 12:32:14.69,520,-318,-2075,373,-439,-202,-390,-33,-357,211
,417,2023-10-27 12:32:14.70,491,-318,-2059,397,-483,-215,-427,97,-524,165
,418,2023-10-27 12:32:14.71,465,-306,-2068,403,-514,-231,-383,-38,-345,210
,419,2023-10-27 12:32:14.72,455,-319,-2068,416,-573,-241,-424,90,-514,167
,420,2023-10-27 12:32:14.73,429,-332,-2061,429,-619,-255,-375,-45,-330,210
,421,2023-10-27 12:32:14.74,429,-349,-2022,442,-667,-259,-417,83,-500,167
,422,2023-10-27 12:32:14.75,395,-351,-2038,464,-714,-260,-364,-42,-322,203
,423,2023-10-27 12:32:14.76,380,-316,-2040,458,-749,-264,-422,88,-510,167
,424,2023-10-27 12:32:14.77,327,-372,-1978,440,-807,-265,-367,-43,-324,205
,425,2023-10-27 12:32:14.78,360,-385,-1977,448,-825,-244,-432,81,-513,175
,426,2023-10-27 12:32:14.79,273,-402,-1990,456,-853,-239,-369,-51,-318,210
,427,2023-10-27 12:32:14.80,273,-408,-1969,427,-877,-221,-429,73,-502,178
,428,2023-10-27 12:32:14.81,230,-478,-1908,397,-876,-204,-356,-46,-310,201
,429,2023-10-27 12:32:14.82,189,-424,-1910,399,-882,-182,-427,83,-510,172
,430,2023-10-27 12:32:14.83,206,-447,-1904,409,-889,-164,-347,-36,-311,191
,431,2023-10-27 12:32:14.84,138,-449,-1936,373,-842,-154,-414,111,-525,151
,432,2023-10-27 12:32:14.85,94,-455,-1890,331,-814,-126,-326,-13,-313,169
,433,2023-10-27 12:32:14.86,100,-469,-1935,276,-761,-111,-379,125,-504,127
,434,2023-10-27 12:32:14.87,86,-462,-1887,233,-727,-101,-285,-4,-281,144
,435,2023-10-27 12:32:14.88,86,-478,-1899,195,-678,-84,-317,127,-444,95
,436,2023-10-27 12:32:14.89,36,-493,-1927,163,-642,-72,-218,0,-218,109
,437,2023-10-27 12:32:14.90,21,-514,-1913,122,-586,-52,-205,119,-324,43
,438,2023-10-27 12:32:14.91,73,-483,-1953,84,-550,-34,-159,-12,-147,85
,439,2023-10-27 12:32:14.92,37,-500,-2010,42,-488,-33,-157,85,-242,36
,440,2023-10-27 12:32:14.93,6,-492,-1982,-30,-417,-26,-158,-37,-121,97
,441,2023-10-27 12:32:14.94,27,-510,-2001,-79,-357,9,194,52,142,-123
,442,2023-10-27 12:32:14.95,19,-492,-2004,-135,-294,23,122,-55,177,-33
,443,2023-10-27 12:32:14.96,0,-489,-1971,-181,-240,44,64,38,26,-51
,444,2023-10-27 12:32:14.97,-4,-474,-2019,-224,-200,60,-108,-58,-50,83
,445,2023-10-27 12:32:14.98,-6,-483,-2030,-290,-148,69,-70,32,-102,19
,446,2023-10-27 12:32:14.99,-10,-477,-2043,-361,-98,82,-100,-45,-55,72
,447,2023-10-27 12:32:15.00,-3,-459,-2026,-416,-52,107,-36,33,-69,1
,448,2023-10-27 12:32:15.01,-20,-454,-2012,-451,0,133,-79,-57,-22,68
,449,2023-10-27 12:32:15.02,-14,-436,-2000,-481,20,156,-48,12,-60,18
,450,2023-10-27 12:32:15.03,-9,-404,-1990,-501,56,179,-90,-71,-19,80
,451,2023-10-27 12:32:15.04,-26,-389,-1980,-527,80,194,-39,-18,-21,28
,452,2023-10-27 12:32:15.05,-11,-357,-1994,-555,90,218,-148,-148,0,148
,453,2023-10-27 12:32:15.06,-7,-335,-1965,-594,107,222,94,-290,384,98
,454,2023-10-27 12:32:15.07,-11,-337,-1944,-626,152,235,-311,-355,44,333
,455,2023-10-27 12:32:15.08,-31,-295,-1949,-646,168,244,-181,-387,206,284
,456,2023-10-27 12:32:15.09,-16,-287,-1960,-666,192,250,-442,-355,-87,398
,457,2023-10-27 12:32:15.10,-1,-284,-1956,-682,191,249,-199,-340,141,269
,458,2023-10-27 12:32:15.11,-8,-265,-1954,-693,203,246,-428,-320,-108,374
,459,2023-10-27 12:32:15.12,17,-240,-1981,-706,236,250,-213,-349,136,281
,460,2023-10-27 12:32:15.13,10,-245,-1973,-715,243,245,-445,-346,-99,395
,461,2023-10-27 12:32:15.14,31,-207,-1977,-716,255,244,-243,-386,143,314
,462,2023-10-27 12:32:15.15,5,-184,-1958,-716,276,242,-464,-354,-110,409
,463,2023-10-27 12:32:15.16,35,-186,-1989,-715,283,228,-266,-344,78,305
,464,2023-10-27 12:32:15.17,85,-191,-1975,-703,301,219,-428,-254,-174,341
,465,2023-10-27 12:32:15.18,122,-160,-1972,-682,327,201,-234,-169,-65,201
