// Data mode  : Full
// Data quality  : High
// Acceleration sensor's range  : 16g
// Gyroscope sensor's range  : 2000dps
//
//ARTIFACT,NUM,DATE,ACC_X,ACC_Y,ACC_Z,GYRO_X,GYRO_Y,GYRO_Z,EOG_L,EOG_R,EOG_H,EOG_V
,1,2023-10-27 11:45:23.36,-585,711,-2110,182,122,-46,35,-1024,1059,494
,2,2023-10-27 11:45:23.37,-606,502,-2156,25,127,-147,-83,-1010,927,546
,3,2023-10-27 11:45:23.38,-524,416,-2178,-107,58,-145,-385,-1020,635,702
,4,2023-10-27 11:45:23.39,-463,287,-2109,-241,41,-42,-104,-1038,934,571
,5,2023-10-27 11:45:23.40,-372,200,-2023,-370,28,116,-291,-1035,744,663
,6,2023-10-27 11:45:23.41,-334,218,-2027,-501,51,288,-54,-1036,982,545
,7,2023-10-27 11:45:23.42,-275,316,-1988,-583,76,439,-322,-1021,699,671
,8,2023-10-27 11:45:23.43,-230,406,-1887,-575,76,546,-96,-1038,942,567
,9,2023-10-27 11:45:23.44,-220,480,-1797,-435,67,579,-354,-1030,676,692
,10,2023-10-27 11:45:23.45,-210,617,-1756,-233,24,552,-106,-1046,940,576
,11,2023-10-27 11:45:23.46,-174,622,-1706,-42,-25,475,-363,-1026,663,694
,12,2023-10-27 11:45:23.47,-209,682,-1730,131,-79,370,-104,-1040,936,572
,13,2023-10-27 11:45:23.48,-244,774,-1794,282,-139,264,-366,-1013,647,689
,14,2023-10-27 11:45:23.49,-299,790,-1842,356,-153,164,-107,-1043,936,575
,15,2023-10-27 11:45:23.50,-353,728,-1888,355,-93,70,-378,-1016,638,697
,16,2023-10-27 11:45:23.51,-391,665,-1973,310,-6,-3,-106,-1039,933,572
,17,2023-10-27 11:45:23.52,-402,575,-2042,255,78,-46,-376,-1004,628,690
,18,2023-10-27 11:45:23.53,-419,508,-2081,204,125,-41,-112,-1053,941,582
,19,2023-10-27 11:45:23.54,-385,499,-2072,146,157,9,-396,-1020,624,708
,20,2023-10-27 11:45:23.55,-371,516,-2058,73,195,72,-116,-1058,942,587
,21,2023-10-27 11:45:23.56,-333,455,-2021,0,265,122,-398,-1016,618,707
,22,2023-10-27 11:45:23.57,-306,472,-1984,-55,314,152,-114,-1056,942,585
,23,2023-10-27 11:45:23.58,-285,531,-1998,-84,326,166,-406,-1010,604,708
,24,2023-10-27 11:45:23.59,-223,571,-1901,-75,299,167,-126,-1046,920,586
,25,2023-10-27 11:45:23.60,-217,611,-1859,-33,253,161,-417,-996,579,706
,26,2023-10-27 11:45:23.61,-192,629,-1834,2,237,151,-129,-1045,916,587
,27,2023-10-27 11:45:23.62,-167,615,-1802,50,232,133,-419,-996,577,707
,28,2023-10-27 11:45:23.63,-177,607,-1802,121,238,110,-125,-1050,925,587
,29,2023-10-27 11:45:23.64,-186,567,-1846,182,234,91,-414,-991,577,702
,30,2023-10-27 11:45:23.65,-197,539,-1902,221,239,82,-123,-1044,921,583
,31,2023-10-27 11:45:23.66,-199,525,-1923,235,254,84,-418,-990,572,704
,32,2023-10-27 11:45:23.67,-197,551,-1950,227,280,103,-132,-1060,928,596
,33,2023-10-27 11:45:23.68,-208,575,-1959,205,312,124,-426,-1002,576,714
,34,2023-10-27 11:45:23.69,-205,579,-1959,175,369,145,-131,-1064,933,597
,35,2023-10-27 11:45:23.70,-193,598,-1982,144,411,167,-425,-996,571,710
,36,2023-10-27 11:45:23.71,-188,633,-1982,130,437,187,-127,-1062,935,594
,37,2023-10-27 11:45:23.72,-162,646,-1967,143,433,195,-419,-995,576,707
,38,2023-10-27 11:45:23.73,-140,631,-1918,160,428,184,-124,-1073,949,598
,39,2023-10-27 11:45:23.74,-111,641,-1887,176,433,164,-419,-1000,581,709
,40,2023-10-27 11:45:23.75,-100,623,-1918,199,451,134,-124,-1064,940,594
,41,2023-10-27 11:45:23.76,-100,597,-1956,230,461,107,-421,-985,564,703
,42,2023-10-27 11:45:23.77,-120,589,-1981,253,466,90,-129,-1070,941,599
,43,2023-10-27 11:45:23.78,-114,560,-2002,258,463,101,-420,-990,570,705
,44,2023-10-27 11:45:23.79,-130,546,-2015,256,445,123,-122,-1051,929,586
,45,2023-10-27 11:45:23.80,-153,527,-2019,260,418,142,-405,-968,563,686
,46,2023-10-27 11:45:23.81,-149,497,-2011,252,396,157,-126,-1064,938,595
,47,2023-10-27 11:45:23.82,-153,488,-2001,247,375,175,-421,-986,565,703
,48,2023-10-27 11:45:23.83,-127,483,-1994,247,350,196,-132,-1071,939,601
,49,2023-10-27 11:45:23.84,-132,480,-1999,254,320,216,-408,-981,573,694
,50,2023-10-27 11:45:23.85,-123,474,-2001,264,285,225,-124,-1077,953,600
,51,2023-10-27 11:45:23.86,-124,472,-1980,277,249,223,-409,-986,577,697
,52,2023-10-27 11:45:23.87,-107,475,-1984,290,219,211,-139,-1068,929,603
,53,2023-10-27 11:45:23.88,-122,481,-1987,303,184,195,-418,-974,556,696
,54,2023-10-27 11:45:23.89,-111,472,-1998,311,165,171,-140,-1077,937,608
,55,2023-10-27 11:45:23.90,-108,458,-2018,311,152,145,-407,-982,575,694
,56,2023-10-27 11:45:23.91,-88,454,-2038,313,152,118,-128,-1065,937,596
,57,2023-10-27 11:45:23.92,-80,448,-2047,315,157,89,-394,-972,578,683
,58,2023-10-27 11:45:23.93,-72,440,-2058,319,162,53,-138,-1084,946,611
,59,2023-10-27 11:45:23.94,-57,440,-2059,318,178,23,-401,-988,587,694
,60,2023-10-27 11:45:23.95,-44,430,-2027,318,193,-16,-138,-1070,932,604
,61,2023-10-27 11:45:23.96,-40,426,-2042,316,208,-53,-392,-962,570,677
,62,2023-10-27 11:45:23.97,-14,398,-2040,316,222,-90,-140,-1074,934,607
,63,2023-10-27 11:45:23.98,-22,376,-2015,320,230,-121,-388,-976,588,682
,64,2023-10-27 11:45:23.99,-7,339,-2028,323,236,-135,-140,-1074,934,607
,65,2023-10-27 11:45:24.00,4,307,-2045,333,228,-147,-384,-966,582,675
,66,2023-10-27 11:45:24.01,-3,289,-2034,340,213,-146,-149,-1073,924,611
,67,2023-10-27 11:45:24.02,2,277,-2027,338,217,-135,-385,-978,593,681
,68,2023-10-27 11:45:24.03,15,267,-2043,335,209,-115,-152,-1104,952,628
,69,2023-10-27 11:45:24.04,2,245,-2066,336,189,-89,-383,-997,614,690
,70,2023-10-27 11:45:24.05,-4,215,-2080,344,164,-56,-157,-1095,938,626
,71,2023-10-27 11:45:24.06,-21,178,-2103,359,124,-17,-375,-979,604,677
,72,2023-10-27 11:45:24.07,-11,144,-2111,374,72,33,-153,-1082,929,617
,73,2023-10-27 11:45:24.08,-15,126,-2109,394,34,91,-368,-971,603,669
,74,2023-10-27 11:45:24.09,32,114,-2089,407,5,158,-171,-1071,900,621
,75,2023-10-27 11:45:24.10,45,110,-2074,412,-6,227,-375,-964,589,669
,76,2023-10-27 11:45:24.11,59,134,-2054,418,-8,294,-158,-1080,922,619
,77,2023-10-27 11:45:24.12,60,159,-2046,429,-7,347,-352,-974,622,663
,78,2023-10-27 11:45:24.13,55,165,-2035,443,-3,385,-165,-1080,915,622
,79,2023-10-27 11:45:24.14,48,199,-2049,451,5,422,-354,-973,619,663
,80,2023-10-27 11:45:24.15,63,148,-2014,464,15,449,-170,-1087,917,628
,81,2023-10-27 11:45:24.16,64,177,-2038,483,16,481,-348,-980,632,664
,82,2023-10-27 11:45:24.17,58,194,-2052,490,12,506,-176,-1086,910,631
,83,2023-10-27 11:45:24.18,51,164,-2040,497,4,529,-342,-975,633,658
,84,2023-10-27 11:45:24.19,54,181,-2038,491,13,539,-182,-1084,902,633
,85,2023-10-27 11:45:24.20,41,201,-2040,462,20,550,-339,-979,640,659
,86,2023-10-27 11:45:24.21,35,193,-2046,423,37,554,-186,-1096,910,641
,87,2023-10-27 11:45:24.22,42,192,-2044,400,47,558,-329,-994,665,661
,88,2023-10-27 11:45:24.23,37,188,-2055,388,42,559,-187,-1101,914,644
,89,2023-10-27 11:45:24.24,39,191,-2055,371,38,555,-324,-981,657,652
,90,2023-10-27 11:45:24.25,32,190,-2043,349,28,541,-200,-1072,872,636
,91,2023-10-27 11:45:24.26,30,198,-2037,316,30,522,-326,-961,635,643
,92,2023-10-27 11:45:24.27,34,206,-2039,277,35,494,-201,-1068,867,634
,93,2023-10-27 11:45:24.28,37,218,-2024,239,43,460,-311,-961,650,636
,94,2023-10-27 11:45:24.29,46,199,-2003,196,62,421,-204,-1063,859,633
,95,2023-10-27 11:45:24.30,38,201,-2028,169,79,382,-304,-969,665,636
,96,2023-10-27 11:45:24.31,42,205,-2044,148,81,338,-203,-1082,879,642
,97,2023-10-27 11:45:24.32,39,187,-2048,123,81,294,-297,-978,681,637
,98,2023-10-27 11:45:24.33,34,182,-2055,103,81,253,-219,-1074,855,646
,99,2023-10-27 11:45:24.34,24,162,-2070,78,82,211,-302,-972,670,637
,100,2023-10-27 11:45:24.35,39,163,-2068,60,76,171,-222,-1070,848,646
,101,2023-10-27 11:45:24.36,23,148,-2071,43,66,133,-291,-974,683,632
,102,2023-10-27 11:45:24.37,24,141,-2084,28,58,101,-224,-1071,847,647
,103,2023-10-27 11:45:24.38,30,148,-2083,18,48,71,-287,-988,701,637
,104,2023-10-27 11:45:24.39,30,144,-2083,15,28,40,-234,-1090,856,662
,105,2023-10-27 11:45:24.40,32,134,-2077,4,21,11,-279,-989,710,634
,106,2023-10-27 11:45:24.41,36,131,-2065,-5,11,-16,-242,-1061,819,651
,107,2023-10-27 11:45:24.42,35,130,-2062,-6,2,-44,-276,-971,695,623
,108,2023-10-27 11:45:24.43,55,117,-2067,-5,-13,-62,-242,-1064,822,653
,109,2023-10-27 11:45:24.44,50,114,-2060,0,-16,-75,-264,-983,719,623
,110,2023-10-27 11:45:24.45,51,102,-2059,3,-25,-100,-252,-1070,818,661
,111,2023-10-27 11:45:24.46,48,89,-2047,2,-34,-110,-264,-988,724,626
,112,2023-10-27 11:45:24.47,50,86,-2050,3,-36,-106,-255,-1072,817,663
,113,2023-10-27 11:45:24.48,54,87,-2057,1,-32,-102,-254,-991,737,622
,114,2023-10-27 11:45:24.49,59,86,-2047,0,-28,-103,-263,-1068,805,665
,115,2023-10-27 11:45:24.50,50,86,-2046,-2,-25,-101,-246,-975,729,610
,116,2023-10-27 11:45:24.51,45,84,-2054,-3,-20,-102,-266,-1038,772,652
,117,2023-10-27 11:45:24.52,51,86,-2051,-8,-20,-96,-242,-969,727,605
,118,2023-10-27 11:45:24.53,49,87,-2052,-7,-8,-86,-279,-1051,772,665
,119,2023-10-27 11:45:24.54,49,93,-2051,-3,-10,-76,-238,-986,748,612
,120,2023-10-27 11:45:24.55,51,88,-2052,-8,-8,-66,-282,-1059,777,670
,121,2023-10-27 11:45:24.56,56,90,-2050,-8,-9,-61,-230,-997,767,613
,122,2023-10-27 11:45:24.57,52,97,-2051,-18,-7,-52,-292,-1060,768,676
,123,2023-10-27 11:45:24.58,48,97,-2055,-24,-4,-36,-229,-1004,775,616
,124,2023-10-27 11:45:24.59,53,109,-2052,-32,0,-26,-294,-1065,771,679
,125,2023-10-27 11:45:24.60,63,111,-2049,-45,9,-16,-214,-1010,796,612
,126,2023-10-27 11:45:24.61,42,114,-2055,-50,11,-11,-299,-1065,766,682
,127,2023-10-27 11:45:24.62,53,122,-2047,-49,5,-11,-212,-1002,790,607
,128,2023-10-27 11:45:24.63,60,132,-2036,-49,11,-10,-308,-1047,739,677
,129,2023-10-27 11:45:24.64,52,122,-2056,-51,15,-6,-211,-1000,789,605
,130,2023-10-27 11:45:24.65,60,133,-2038,-47,17,-13,-316,-1049,733,682
,131,2023-10-27 11:45:24.66,38,138,-2027,-43,18,-12,-202,-994,792,598
,132,2023-10-27 11:45:24.67,36,123,-2055,-36,19,-5,-316,-1032,716,674
,133,2023-10-27 11:45:24.68,38,120,-2066,-30,13,-3,-194,-989,795,591
,134,2023-10-27 11:45:24.69,64,122,-2049,-28,11,5,-324,-1032,708,678
,135,2023-10-27 11:45:24.70,59,133,-2057,-34,16,12,-197,-994,797,595
,136,2023-10-27 11:45:24.71,49,151,-2056,-37,21,15,-340,-1031,691,685
,137,2023-10-27 11:45:24.72,64,148,-2058,-37,23,17,-198,-992,794,595
,138,2023-10-27 11:45:24.73,62,147,-2064,-30,21,20,-344,-1024,680,684
,139,2023-10-27 11:45:24.74,47,145,-2059,-24,12,19,-182,-1006,824,594
,140,2023-10-27 11:45:24.75,61,143,-2051,-19,8,22,-337,-1039,702,688
,141,2023-10-27 11:45:24.76,53,139,-2048,-25,6,24,-176,-1021,845,598
,142,2023-10-27 11:45:24.77,45,138,-2053,-28,9,33,-344,-1044,700,694
,143,2023-10-27 11:45:24.78,52,142,-2056,-28,6,40,-166,-1014,848,590
,144,2023-10-27 11:45:24.79,51,144,-2053,-28,6,45,-350,-1029,679,689
,145,2023-10-27 11:45:24.80,43,151,-2048,-28,-3,46,-168,-1012,844,590
,146,2023-10-27 11:45:24.81,55,147,-2047,-25,-5,45,-367,-1032,665,699
,147,2023-10-27 11:45:24.82,50,150,-2044,-28,-7,49,-167,-1022,855,594
,148,2023-10-27 11:45:24.83,49,155,-2052,-28,-6,54,-360,-1032,672,696
,149,2023-10-27 11:45:24.84,45,140,-2054,-23,-9,56,-158,-1014,856,586
,150,2023-10-27 11:45:24.85,54,149,-2047,-16,-12,61,-364,-1013,649,688
,151,2023-10-27 11:45:24.86,54,147,-2045,-11,-15,59,-153,-998,845,575
,152,2023-10-27 11:45:24.87,59,148,-2046,-7,-9,60,-374,-1005,631,689
,153,2023-10-27 11:45:24.88,56,143,-2041,-4,-10,60,-151,-1006,855,578
,154,2023-10-27 11:45:24.89,56,152,-2047,-4,-4,64,-381,-1014,633,697
,155,2023-10-27 11:45:24.90,42,150,-2050,-5,-3,63,-152,-1012,860,582
,156,2023-10-27 11:45:24.91,50,142,-2051,-5,7,66,-379,-1009,630,694
,157,2023-10-27 11:45:24.92,48,136,-2063,-4,5,69,-145,-1026,881,585
,158,2023-10-27 11:45:24.93,45,128,-2064,5,5,75,-389,-1024,635,706
,159,2023-10-27 11:45:24.94,53,128,-2052,8,1,80,-144,-1037,893,590
,160,2023-10-27 11:45:24.95,57,137,-2050,13,-2,87,-389,-1022,633,705
,161,2023-10-27 11:45:24.96,54,140,-2040,13,-3,89,-140,-1023,883,581
,162,2023-10-27 11:45:24.97,45,148,-2047,13,5,91,-391,-1004,613,697
,163,2023-10-27 11:45:24.98,59,145,-2048,12,7,93,-141,-1015,874,578
,164,2023-10-27 11:45:24.99,42,147,-2065,14,3,98,-402,-999,597,700
,165,2023-10-27 11:45:25.00,44,136,-2060,16,-5,103,-141,-1050,909,595
,166,2023-10-27 11:45:25.01,31,131,-2070,17,-14,107,-405,-1035,630,720
,167,2023-10-27 11:45:25.02,46,134,-2067,21,-27,110,-132,-1041,909,586
,168,2023-10-27 11:45:25.03,42,141,-2058,29,-39,117,-403,-998,595,700
,169,2023-10-27 11:45:25.04,56,143,-2048,30,-41,117,-135,-1010,875,572
,170,2023-10-27 11:45:25.05,49,150,-2038,27,-38,118,-411,-980,569,695
,171,2023-10-27 11:45:25.06,44,154,-2039,23,-29,115,-133,-1042,909,587
,172,2023-10-27 11:45:25.07,45,149,-2042,21,-32,114,-405,-1020,615,712
,173,2023-10-27 11:45:25.08,51,153,-2051,21,-30,106,-130,-1058,928,594
,174,2023-10-27 11:45:25.09,37,149,-2048,22,-28,103,-416,-1012,596,714
,175,2023-10-27 11:45:25.10,41,150,-2051,21,-30,95,-129,-1055,926,592
,176,2023-10-27 11:45:25.11,42,145,-2054,20,-30,95,-411,-1009,598,710
,177,2023-10-27 11:45:25.12,43,146,-2059,24,-31,91,-125,-1049,924,587
,178,2023-10-27 11:45:25.13,33,152,-2054,21,-34,89,-412,-994,582,703
,179,2023-10-27 11:45:25.14,45,158,-2053,15,-38,87,-127,-1039,912,583
,180,2023-10-27 11:45:25.15,50,148,-2061,13,-32,85,-416,-991,575,703
,181,2023-10-27 11:45:25.16,36,151,-2058,17,-39,82,-131,-1060,929,595
,182,2023-10-27 11:45:25.17,35,143,-2053,17,-38,80,-417,-1010,593,713
,183,2023-10-27 11:45:25.18,41,146,-2043,13,-33,78,-126,-1077,951,601
,184,2023-10-27 11:45:25.19,31,144,-2046,12,-30,77,-414,-1008,594,711
,185,2023-10-27 11:45:25.20,35,145,-2046,13,-38,76,-128,-1048,920,588
,186,2023-10-27 11:45:25.21,32,148,-2046,15,-31,79,-421,-980,559,700
,187,2023-10-27 11:45:25.22,30,139,-2045,16,-28,79,-130,-1054,924,592
,188,2023-10-27 11:45:25.23,20,140,-2050,20,-25,78,-419,-992,573,705
,189,2023-10-27 11:45:25.24,38,142,-2046,22,-23,73,-124,-1060,936,592
,190,2023-10-27 11:45:25.25,33,146,-2047,28,-28,74,-422,-991,569,706
,191,2023-10-27 11:45:25.26,29,137,-2044,31,-29,74,-123,-1058,935,590
,192,2023-10-27 11:45:25.27,22,142,-2040,31,-29,73,-413,-983,570,698
,193,2023-10-27 11:45:25.28,25,134,-2052,32,-26,72,-124,-1067,943,595
,194,2023-10-27 11:45:25.29,29,125,-2061,35,-29,79,-419,-988,569,703
,195,2023-10-27 11:45:25.30,25,119,-2060,37,-44,85,-127,-1069,942,598
,196,2023-10-27 11:45:25.31,45,115,-2044,40,-50,92,-416,-982,566,699
,197,2023-10-27 11:45:25.32,48,132,-2029,46,-29,95,-130,-1061,931,595
,198,2023-10-27 11:45:25.33,41,139,-2045,57,-31,95,-420,-974,554,697
,199,2023-10-27 11:45:25.34,40,143,-2048,66,-31,91,-132,-1071,939,601
,200,2023-10-27 11:45:25.35,40,146,-2037,74,-27,84,-416,-984,568,700
,201,2023-10-27 11:45:25.36,40,140,-2065,82,-25,85,-131,-1070,939,600
,202,2023-10-27 11:45:25.37,30,109,-2076,87,-20,81,-412,-976,564,694
,203,2023-10-27 11:45:25.38,24,94,-2060,89,-21,86,-131,-1078,947,604
,204,2023-10-27 11:45:25.39,32,69,-2061,93,-14,102,-413,-988,575,700
,205,2023-10-27 11:45:25.40,29,33,-2072,108,-10,128,-135,-1090,955,612
,206,2023-10-27 11:45:25.41,41,-2,-2043,130,-3,158,-411,-989,578,700
,207,2023-10-27 11:45:25.42,53,-46,-2032,147,31,214,-134,-1084,950,609
,208,2023-10-27 11:45:25.43,56,-91,-2024,172,80,288,-405,-985,580,695
,209,2023-10-27 11:45:25.44,37,-229,-2027,242,116,375,-136,-1085,949,610
,210,2023-10-27 11:45:25.45,45,-253,-2001,350,130,470,-405,-979,574,692
,211,2023-10-27 11:45:25.46,100,-363,-2042,403,149,649,-135,-1075,940,605
,212,2023-10-27 11:45:25.47,183,-633,-2143,418,141,938,-402,-972,570,687
,213,2023-10-27 11:45:25.48,150,-511,-2014,496,133,1209,-146,-1078,932,612
,214,2023-10-27 11:45:25.49,348,-536,-1985,451,127,1627,-504,-986,482,745
,215,2023-10-27 11:45:25.50,365,-725,-2072,418,95,2042,-915,-1130,215,1022
,216,2023-10-27 11:45:25.51,460,-646,-2172,539,3,2385,-1045,-1074,29,1059
,217,2023-10-27 11:45:25.52,524,-537,-2202,790,-109,2666,-1276,-1232,-44,1254
,218,2023-10-27 11:45:25.53,587,-510,-2203,1016,-212,2987,-1177,-1129,-48,1153
,219,2023-10-27 11:45:25.54,609,-509,-2264,1116,-270,3384,-1269,-1238,-31,1253
,220,2023-10-27 11:45:25.55,570,-431,-2367,1209,-349,3732,-1130,-1115,-15,1122
,221,2023-10-27 11:45:25.56,520,-249,-2345,1308,-464,3974,-1242,-1228,-14,1235
,222,2023-10-27 11:45:25.57,527,-142,-2278,1313,-561,4160,-1126,-1115,-11,1120
,223,2023-10-27 11:45:25.58,498,-95,-2248,1182,-573,4279,-1246,-1231,-15,1238
,224,2023-10-27 11:45:25.59,464,-17,-2216,998,-527,4329,-1126,-1115,-11,1120
,225,2023-10-27 11:45:25.60,442,76,-2179,805,-461,4352,-1241,-1225,-16,1233
,226,2023-10-27 11:45:25.61,398,70,-2177,584,-400,4373,-1118,-1108,-10,1113
,227,2023-10-27 11:45:25.62,370,-22,-2151,364,-380,4373,-1231,-1222,-9,1226
,228,2023-10-27 11:45:25.63,345,-24,-2141,144,-371,4328,-1104,-1109,5,1106
,229,2023-10-27 11:45:25.64,335,22,-2042,-41,-420,4260,-1207,-1217,10,1212
,230,2023-10-27 11:45:25.65,331,68,-1995,-164,-474,4179,-960,-1095,135,1027
,231,2023-10-27 11:45:25.66,320,92,-1961,-248,-532,4097,-879,-1206,327,1042
,232,2023-10-27 11:45:25.67,309,92,-1911,-320,-558,4031,-610,-1090,480,850
,233,2023-10-27 11:45:25.68,317,115,-1874,-389,-546,3976,-537,-1207,670,872
,234,2023-10-27 11:45:25.69,306,121,-1877,-450,-502,3930,-358,-1097,739,727
,235,2023-10-27 11:45:25.70,300,175,-1842,-498,-437,3867,-361,-1212,851,786
,236,2023-10-27 11:45:25.71,260,223,-1814,-562,-360,3790,-230,-1092,862,661
,237,2023-10-27 11:45:25.72,235,212,-1816,-616,-274,3685,-270,-1202,932,736
,238,2023-10-27 11:45:25.73,240,241,-1831,-636,-204,3575,-162,-1082,920,622
,239,2023-10-27 11:45:25.74,222,241,-1890,-633,-145,3465,-233,-1193,960,713
,240,2023-10-27 11:45:25.75,219,240,-1984,-569,-137,3360,-161,-1077,916,619
,241,2023-10-27 11:45:25.76,230,231,-2021,-469,-186,3264,-321,-1164,843,742
,242,2023-10-27 11:45:25.77,227,243,-2089,-363,-250,3176,-57,-965,908,511
,243,2023-10-27 11:45:25.78,229,238,-2127,-277,-312,3092,152,-1013,1165,430
,244,2023-10-27 11:45:25.79,183,243,-2171,-200,-393,3001,-182,-863,681,522
,245,2023-10-27 11:45:25.80,146,349,-2142,-125,-437,2900,-243,-980,737,611
,246,2023-10-27 11:45:25.81,89,413,-2126,-98,-481,2788,-377,-936,559,656
,247,2023-10-27 11:45:25.82,21,462,-2163,-97,-513,2659,-234,-1089,855,661
,248,2023-10-27 11:45:25.83,-51,499,-2146,-132,-539,2502,-304,-977,673,640
,249,2023-10-27 11:45:25.84,-102,533,-2146,-151,-560,2325,-212,-1061,849,636
,250,2023-10-27 11:45:25.85,-191,548,-2218,-189,-592,2148,-308,-966,658,637
,251,2023-10-27 11:45:25.86,-247,512,-2191,-201,-678,1977,-229,-1086,857,657
,252,2023-10-27 11:45:25.87,-297,521,-2155,-200,-768,1807,-302,-987,685,644
,253,2023-10-27 11:45:25.88,-338,556,-2109,-216,-852,1648,-224,-1082,858,653
,254,2023-10-27 11:45:25.89,-402,581,-2057,-220,-904,1482,-287,-987,700,637
,255,2023-10-27 11:45:25.90,-422,595,-2068,-225,-923,1323,-229,-1087,858,658
,256,2023-10-27 11:45:25.91,-454,579,-2037,-228,-936,1176,-281,-967,686,624
,257,2023-10-27 11:45:25.92,-463,579,-1989,-196,-930,1035,-228,-1050,822,639
,258,2023-10-27 11:45:25.93,-497,600,-1947,-136,-913,918,-275,-969,694,622
,259,2023-10-27 11:45:25.94,-505,578,-1954,-103,-881,828,-241,-1078,837,659
,260,2023-10-27 11:45:25.95,-538,544,-1938,-94,-843,748,-268,-986,718,627
,261,2023-10-27 11:45:25.96,-580,548,-1894,-82,-804,656,-242,-1071,829,656
,262,2023-10-27 11:45:25.97,-601,510,-1849,-68,-774,558,-263,-985,722,624
,263,2023-10-27 11:45:25.98,-656,471,-1827,-31,-739,464,-254,-1077,823,665
,264,2023-10-27 11:45:25.99,-678,448,-1847,24,-706,380,-257,-992,735,624
,265,2023-10-27 11:45:26.00,-674,426,-1839,103,-697,327,-256,-1074,818,665
,266,2023-10-27 11:45:26.01,-683,358,-1784,152,-689,307,-247,-1000,753,623
,267,2023-10-27 11:45:26.02,-711,368,-1799,208,-675,276,-259,-1082,823,670
,268,2023-10-27 11:45:26.03,-724,400,-1752,190,-626,253,-243,-998,755,620
,269,2023-10-27 11:45:26.04,-756,387,-1722,123,-549,229,-269,-1062,793,665
,270,2023-10-27 11:45:26.05,-783,420,-1724,68,-484,196,-240,-980,740,610
,271,2023-10-27 11:45:26.06,-762,451,-1740,33,-459,172,-281,-1044,763,662
,272,2023-10-27 11:45:26.07,-742,428,-1755,-24,-436,171,-235,-969,734,602
,273,2023-10-27 11:45:26.08,-744,448,-1766,-90,-427,183,-288,-1042,754,665
,274,2023-10-27 11:45:26.09,-746,498,-1725,-175,-393,204,-230,-979,749,604
,275,2023-10-27 11:45:26.10,-754,518,-1723,-282,-355,206,-288,-1068,780,678
,276,2023-10-27 11:45:26.11,-763,557,-1723,-362,-321,174,-224,-1007,783,615
,277,2023-10-27 11:45:26.12,-764,562,-1673,-393,-260,140,-299,-1069,770,684
,278,2023-10-27 11:45:26.13,-762,562,-1695,-386,-175,120,-222,-1009,787,615
,279,2023-10-27 11:45:26.14,-738,563,-1720,-372,-122,117,-296,-1084,788,690
,280,2023-10-27 11:45:26.15,-724,566,-1757,-348,-73,107,-213,-1035,822,624
,281,2023-10-27 11:45:26.16,-719,619,-1755,-304,-45,74,-310,-1093,783,701
,282,2023-10-27 11:45:26.17,-706,644,-1744,-275,5,31,-214,-1031,817,622
,283,2023-10-27 11:45:26.18,-712,645,-1784,-236,57,-24,-321,-1074,753,697
,284,2023-10-27 11:45:26.19,-685,669,-1800,-173,99,-75,-207,-1007,800,607
,285,2023-10-27 11:45:26.20,-689,647,-1885,-88,132,-106,-315,-1051,736,683
,286,2023-10-27 11:45:26.21,-661,629,-1918,12,120,-124,-190,-1011,821,600
,287,2023-10-27 11:45:26.22,-648,599,-1948,82,121,-123,-307,-1065,758,686
,288,2023-10-27 11:45:26.23,-634,595,-1941,119,133,-120,-182,-1032,850,607
,289,2023-10-27 11:45:26.24,-622,589,-1966,147,152,-126,-330,-1074,744,702
,290,2023-10-27 11:45:26.25,-615,560,-1999,173,155,-138,-191,-1039,848,615
,291,2023-10-27 11:45:26.26,-613,550,-2024,202,141,-149,-326,-1073,747,699
,292,2023-10-27 11:45:26.27,-612,520,-2021,221,135,-153,-167,-1049,882,608
,293,2023-10-27 11:45:26.28,-601,486,-2029,243,122,-153,-321,-1085,764,703
,294,2023-10-27 11:45:26.29,-606,419,-2012,278,106,-159,-166,-1043,877,604
,295,2023-10-27 11:45:26.30,-583,377,-2036,305,96,-169,-334,-1058,724,696
,296,2023-10-27 11:45:26.31,-574,316,-2004,337,103,-176,-158,-1032,874,595
,297,2023-10-27 11:45:26.32,-588,293,-1950,395,117,-188,-339,-1054,715,696
,298,2023-10-27 11:45:26.33,-566,227,-1938,478,126,-209,-154,-1048,894,601
,299,2023-10-27 11:45:26.34,-576,138,-1947,575,119,-224,-342,-1071,729,706
,300,2023-10-27 11:45:26.35,-561,100,-1950,692,102,-222,-148,-1049,901,598
,301,2023-10-27 11:45:26.36,-536,60,-1945,816,65,-218,-350,-1053,703,701
,302,2023-10-27 11:45:26.37,-545,80,-1889,952,30,-238,-148,-1048,900,598
,303,2023-10-27 11:45:26.38,-559,98,-1862,1076,27,-253,-355,-1061,706,708
,304,2023-10-27 11:45:26.39,-584,97,-1871,1155,51,-266,-148,-1050,902,599
,305,2023-10-27 11:45:26.40,-594,87,-1871,1197,64,-276,-356,-1049,693,702
,306,2023-10-27 11:45:26.41,-606,95,-1871,1216,60,-284,-139,-1035,896,587
,307,2023-10-27 11:45:26.42,-620,119,-1870,1214,62,-296,-367,-1030,663,698
,308,2023-10-27 11:45:26.43,-596,104,-1855,1182,91,-304,-148,-1035,887,591
,309,2023-10-27 11:45:26.44,-610,73,-1859,1140,120,-318,-381,-1037,656,709
,310,2023-10-27 11:45:26.45,-622,87,-1907,1079,119,-328,-146,-1043,897,594
,311,2023-10-27 11:45:26.46,-622,26,-1906,972,95,-334,-376,-1035,659,705
,312,2023-10-27 11:45:26.47,-643,-1,-1950,853,49,-342,-136,-1035,899,585
,313,2023-10-27 11:45:26.48,-664,-13,-2000,697,-23,-352,-387,-1022,635,704
,314,2023-10-27 11:45:26.49,-654,-17,-2055,492,-104,-348,-141,-1031,890,586
,315,2023-10-27 11:45:26.50,-609,-66,-2130,-2,-232,-319,-395,-1016,621,705
,316,2023-10-27 11:45:26.51,-560,-51,-2051,-279,-235,-297,-140,-1044,904,592
,317,2023-10-27 11:45:26.52,-516,-141,-2039,-566,-187,-259,-398,-1027,629,712
,318,2023-10-27 11:45:26.53,-487,-247,-2065,-820,-140,-233,-139,-1048,909,593
,319,2023-10-27 11:45:26.54,-393,-290,-2074,-1028,-112,-229,-401,-1014,613,707
,320,2023-10-27 11:45:26.55,-330,-287,-1925,-1179,-62,-264,-137,-1026,889,581
,321,2023-10-27 11:45:26.56,-326,-255,-1920,-1232,-36,-317,-409,-995,586,702
,322,2023-10-27 11:45:26.57,-326,-283,-1941,-1277,119,-354,-144,-1035,891,589
,323,2023-10-27 11:45:26.58,-363,-356,-1977,-1274,172,-343,-413,-1007,594,710
,324,2023-10-27 11:45:26.59,-387,-358,-2025,-1183,155,-307,-138,-1043,905,590
,325,2023-10-27 11:45:26.60,-445,-348,-2081,-1048,78,-256,-408,-1010,602,709
,326,2023-10-27 11:45:26.61,-425,-306,-1977,-948,-29,-195,-133,-1043,910,588
,327,2023-10-27 11:45:26.62,-416,-317,-1982,-851,-137,-93,-413,-997,584,705
,328,2023-10-27 11:45:26.63,-453,-227,-2006,-714,-251,-2,-141,-1034,893,587
,329,2023-10-27 11:45:26.64,-450,-139,-1944,-594,-325,91,-424,-984,560,704
,330,2023-10-27 11:45:26.65,-514,-80,-1898,-501,-316,187,-133,-1047,914,590
,331,2023-10-27 11:45:26.66,-559,-32,-1955,-404,-316,288,-408,-1003,595,705
,332,2023-10-27 11:45:26.67,-599,31,-1969,-302,-355,385,-119,-1056,937,587
,333,2023-10-27 11:45:26.68,-615,131,-1975,-181,-430,463,-409,-1000,591,704
,334,2023-10-27 11:45:26.69,-644,194,-1898,-69,-518,508,-121,-1050,929,585
,335,2023-10-27 11:45:26.70,-643,258,-1904,0,-561,526,-412,-988,576,700
,336,2023-10-27 11:45:26.71,-634,295,-1843,9,-559,529,-123,-1049,926,586
,337,2023-10-27 11:45:26.72,-664,364,-1856,-16,-516,524,-419,-990,571,704
,338,2023-10-27 11:45:26.73,-673,439,-1888,-52,-490,525,-126,-1062,936,594
,339,2023-10-27 11:45:26.74,-700,502,-1927,-77,-502,511,-419,-998,579,708
,340,2023-10-27 11:45:26.75,-743,591,-1939,-83,-534,486,-115,-1068,953,591
,341,2023-10-27 11:45:26.76,-768,627,-1915,-93,-571,443,-410,-993,583,701
,342,2023-10-27 11:45:26.77,-775,611,-1900,-123,-572,399,-109,-1057,948,583
,343,2023-10-27 11:45:26.78,-769,546,-1853,-191,-538,363,-412,-980,568,696
,344,2023-10-27 11:45:26.79,-763,487,-1848,-279,-469,326,-126,-1056,930,591
,345,2023-10-27 11:45:26.80,-766,468,-1838,-350,-407,289,-434,-984,550,709
,346,2023-10-27 11:45:26.81,-780,489,-1797,-355,-337,224,-134,-1060,926,597
,347,2023-10-27 11:45:26.82,-770,488,-1780,-328,-253,173,-417,-979,562,698
,348,2023-10-27 11:45:26.83,-792,423,-1751,-325,-180,147,-121,-1061,940,591
,349,2023-10-27 11:45:26.84,-802,460,-1804,-260,-117,83,-418,-977,559,697
,350,2023-10-27 11:45:26.85,-789,422,-1769,-151,-76,13,-140,-1051,911,595
,351,2023-10-27 11:45:26.86,-793,425,-1760,-46,-37,-23,-434,-969,535,701
,352,2023-10-27 11:45:26.87,-791,416,-1791,31,-1,-40,-144,-1060,916,602
,353,2023-10-27 11:45:26.88,-799,404,-1787,94,22,-64,-426,-976,550,701
,354,2023-10-27 11:45:26.89,-814,428,-1787,156,27,-107,-131,-1063,932,597
,355,2023-10-27 11:45:26.90,-807,454,-1789,213,32,-145,-412,-975,563,693
,356,2023-10-27 11:45:26.91,-805,462,-1826,254,47,-170,-132,-1075,943,603
,357,2023-10-27 11:45:26.92,-819,473,-1848,283,55,-178,-416,-982,566,699
,358,2023-10-27 11:45:26.93,-839,474,-1860,296,50,-175,-124,-1070,946,597
,359,2023-10-27 11:45:26.94,-831,467,-1852,283,45,-189,-404,-977,573,690
,360,2023-10-27 11:45:26.95,-842,438,-1851,257,57,-210,-133,-1081,948,607
,361,2023-10-27 11:45:26.96,-823,402,-1857,228,67,-222,-412,-983,571,697
,362,2023-10-27 11:45:26.97,-805,370,-1847,207,58,-221,-134,-1076,942,605
,363,2023-10-27 11:45:26.98,-796,321,-1869,177,53,-204,-406,-971,565,688
,364,2023-10-27 11:45:26.99,-792,291,-1854,143,44,-185,-136,-1062,926,599
,365,2023-10-27 11:45:27.00,-775,258,-1835,102,34,-167,-404,-962,558,683
,366,2023-10-27 11:45:27.01,-780,235,-1821,63,24,-142,-135,-1064,929,599
,367,2023-10-27 11:45:27.02,-794,210,-1848,45,16,-123,-394,-968,574,681
,368,2023-10-27 11:45:27.03,-788,194,-1839,31,0,-95,-139,-1080,941,609
,369,2023-10-27 11:45:27.04,-770,168,-1859,22,-11,-61,-398,-979,581,688
,370,2023-10-27 11:45:27.05,-779,165,-1852,15,-16,-30,-146,-1088,942,617
,371,2023-10-27 11:45:27.06,-788,167,-1846,-17,-5,6,-393,-984,591,688
,372,2023-10-27 11:45:27.07,-800,187,-1877,-44,11,33,-146,-1094,948,620
,373,2023-10-27 11:45:27.08,-794,213,-1845,-47,-3,52,-384,-985,601,684
,374,2023-10-27 11:45:27.09,-814,238,-1838,-41,-3,63,-150,-1087,937,618
,375,2023-10-27 11:45:27.10,-821,231,-1846,-19,14,63,-384,-979,595,681
,376,2023-10-27 11:45:27.11,-793,219,-1830,16,27,62,-156,-1090,934,623
,377,2023-10-27 11:45:27.12,-784,194,-1838,53,57,65,-377,-980,603,678
,378,2023-10-27 11:45:27.13,-774,198,-1847,91,87,65,-158,-1082,924,620
,379,2023-10-27 11:45:27.14,-784,208,-1830,119,111,70,-371,-968,597,669
,380,2023-10-27 11:45:27.15,-776,232,-1871,132,126,82,-165,-1071,906,618
,381,2023-10-27 11:45:27.16,-796,272,-1872,167,119,59,-370,-965,595,667
,382,2023-10-27 11:45:27.17,-766,296,-1853,207,122,23,-171,-1083,912,627
,383,2023-10-27 11:45:27.18,-769,251,-1895,256,150,9,-362,-963,601,662
,384,2023-10-27 11:45:27.19,-746,228,-1924,309,169,21,-184,-1062,878,623
,385,2023-10-27 11:45:27.20,-707,190,-1920,358,193,46,-370,-956,586,663
,386,2023-10-27 11:45:27.21,-708,158,-1892,394,218,75,-191,-1085,894,638
,387,2023-10-27 11:45:27.22,-709,161,-1874,439,256,82,-354,-962,608,658
,388,2023-10-27 11:45:27.23,-712,145,-1859,507,297,68,-176,-1056,880,616
,389,2023-10-27 11:45:27.24,-697,109,-1869,583,314,65,-342,-946,604,644
,390,2023-10-27 11:45:27.25,-682,73,-1918,667,307,90,-188,-1067,879,627
,391,2023-10-27 11:45:27.26,-656,57,-1911,722,274,144,-347,-963,616,655
,392,2023-10-27 11:45:27.27,-646,52,-1905,748,226,198,-192,-1074,882,633
,393,2023-10-27 11:45:27.28,-651,70,-1900,737,204,223,-340,-968,628,654
,394,2023-10-27 11:45:27.29,-653,78,-1925,690,217,236,-194,-1075,881,634
,395,2023-10-27 11:45:27.30,-649,90,-1962,658,238,263,-334,-966,632,650
,396,2023-10-27 11:45:27.31,-637,97,-1986,643,236,293,-202,-1067,865,634
,397,2023-10-27 11:45:27.32,-638,102,-1963,618,206,333,-330,-962,632,646
,398,2023-10-27 11:45:27.33,-629,72,-1969,538,181,372,-208,-1069,861,638
,399,2023-10-27 11:45:27.34,-653,72,-1998,435,162,386,-319,-971,652,645
,400,2023-10-27 11:45:27.35,-655,79,-2009,344,129,383,-210,-1078,868,644
,401,2023-10-27 11:45:27.36,-645,67,-2019,207,100,394,-310,-965,655,637
,402,2023-10-27 11:45:27.37,-659,54,-1966,90,47,394,-216,-1055,839,635
,403,2023-10-27 11:45:27.38,-630,39,-1973,-75,16,398,-312,-958,646,635
,404,2023-10-27 11:45:27.39,-617,39,-2023,-173,2,401,-228,-1068,840,648
,405,2023-10-27 11:45:27.40,-575,13,-1960,-228,-14,418,-303,-973,670,638
,406,2023-10-27 11:45:27.41,-574,-43,-1942,-262,-21,438,-226,-1072,846,649
,407,2023-10-27 11:45:27.42,-585,-58,-1935,-309,-35,454,-291,-981,690,636
,408,2023-10-27 11:45:27.43,-586,-45,-1940,-341,-36,454,-226,-1086,860,656
,409,2023-10-27 11:45:27.44,-578,5,-1900,-324,-65,449,-288,-983,695,635
,410,2023-10-27 11:45:27.45,-579,38,-1864,-300,-94,453,-233,-1066,833,649
,411,2023-10-27 11:45:27.46,-580,68,-1872,-280,-119,464,-281,-979,698,630
,412,2023-10-27 11:45:27.47,-592,87,-1920,-229,-147,484,-244,-1080,836,662
,413,2023-10-27 11:45:27.48,-595,124,-1926,-189,-208,505,-283,-988,705,635
,414,2023-10-27 11:45:27.49,-642,183,-1901,-154,-250,518,-250,-1064,814,657
,415,2023-10-27 11:45:27.50,-669,218,-1918,-143,-262,516,-272,-979,707,625
,416,2023-10-27 11:45:27.51,-690,240,-1958,-138,-266,514,-254,-1067,813,660
,417,2023-10-27 11:45:27.52,-694,284,-1998,-124,-299,508,-264,-985,721,624
,418,2023-10-27 11:45:27.53,-684,310,-1959,-84,-331,490,-255,-1064,809,659
,419,2023-10-27 11:45:27.54,-703,355,-1909,-91,-321,472,-255,-988,733,621
,420,2023-10-27 11:45:27.55,-711,377,-1932,-114,-300,436,-270,-1071,801,670
,421,2023-10-27 11:45:27.56,-719,406,-1912,-107,-314,378,-252,-1004,752,628
,422,2023-10-27 11:45:27.57,-740,414,-1881,-105,-332,302,-275,-1080,805,677
,423,2023-10-27 11:45:27.58,-741,403,-1896,-121,-322,227,-243,-992,749,617
,424,2023-10-27 11:45:27.59,-734,399,-1865,-145,-302,165,-268,-1049,781,658
,425,2023-10-27 11:45:27.60,-723,367,-1875,-165,-289,113,-233,-978,745,605
,426,2023-10-27 11:45:27.61,-722,316,-1884,-199,-258,65,-284,-1052,768,668
,427,2023-10-27 11:45:27.62,-706,293,-1901,-228,-236,22,-239,-995,756,617
,428,2023-10-27 11:45:27.63,-698,303,-1857,-234,-208,-19,-284,-1055,771,669
,429,2023-10-27 11:45:27.64,-713,299,-1847,-220,-144,-50,-222,-985,763,603
,430,2023-10-27 11:45:27.65,-728,249,-1832,-214,-104,-74,-301,-1042,741,671
,431,2023-10-27 11:45:27.66,-743,238,-1870,-194,-74,-89,-225,-977,752,601
,432,2023-10-27 11:45:27.67,-734,224,-1864,-164,-78,-94,-308,-1039,731,673
,433,2023-10-27 11:45:27.68,-743,220,-1852,-132,-91,-102,-220,-988,768,604
,434,2023-10-27 11:45:27.69,-749,207,-1830,-118,-98,-103,-310,-1046,736,678
,435,2023-10-27 11:45:27.70,-753,225,-1824,-120,-90,-114,-208,-1000,792,604
,436,2023-10-27 11:45:27.71,-762,251,-1839,-111,-77,-119,-309,-1053,744,681
,437,2023-10-27 11:45:27.72,-774,262,-1843,-102,-71,-122,-205,-1013,808,609
,438,2023-10-27 11:45:27.73,-788,268,-1861,-102,-53,-119,-315,-1057,742,686
,439,2023-10-27 11:45:27.74,-799,269,-1867,-84,-45,-109,-201,-1007,806,604
,440,2023-10-27 11:45:27.75,-795,230,-1867,-51,-40,-94,-324,-1042,718,683
,441,2023-10-27 11:45:27.76,-813,209,-1857,-19,-43,-87,-200,-1007,807,603
,442,2023-10-27 11:45:27.77,-807,216,-1846,-2,-41,-84,-334,-1050,716,692
,443,2023-10-27 11:45:27.78,-812,220,-1844,11,-33,-71,-188,-1018,830,603
,444,2023-10-27 11:45:27.79,-834,241,-1827,24,-31,-64,-330,-1047,717,688
,445,2023-10-27 11:45:27.80,-853,258,-1829,30,-24,-57,-178,-1007,829,592
,446,2023-10-27 11:45:27.81,-861,263,-1831,36,-17,-53,-340,-1034,694,687
,447,2023-10-27 11:45:27.82,-870,255,-1861,46,-14,-46,-179,-1004,825,591
,448,2023-10-27 11:45:27.83,-856,254,-1876,75,-21,-46,-358,-1032,674,695
,449,2023-10-27 11:45:27.84,-854,253,-1838,95,-17,-40,-177,-1016,839,596
,450,2023-10-27 11:45:27.85,-870,267,-1830,97,3,-28,-346,-1042,696,694
,451,2023-10-27 11:45:27.86,-844,258,-1823,91,19,-40,-163,-1021,858,592
,452,2023-10-27 11:45:27.87,-842,262,-1820,97,41,-66,-355,-1038,683,696
,453,2023-10-27 11:45:27.88,-820,258,-1823,106,63,-79,-167,-1022,855,594
,454,2023-10-27 11:45:27.89,-822,254,-1815,126,91,-83,-366,-1036,670,701
,455,2023-10-27 11:45:27.90,-821,245,-1821,136,112,-91,-163,-1019,856,591
,456,2023-10-27 11:45:27.91,-812,230,-1838,140,116,-107,-368,-1025,657,696
,457,2023-10-27 11:45:27.92,-810,242,-1846,146,106,-113,-161,-1014,853,587
,458,2023-10-27 11:45:27.93,-815,242,-1854,156,100,-120,-371,-1019,648,695
,459,2023-10-27 11:45:27.94,-786,234,-1848,156,103,-134,-159,-1015,856,587
,460,2023-10-27 11:45:27.95,-774,239,-1869,147,116,-141,-380,-1018,638,699
,461,2023-10-27 11:45:27.96,-768,271,-1882,161,108,-154,-160,-1016,856,588
,462,2023-10-27 11:45:27.97,-785,298,-1836,162,97,-178,-385,-1016,631,700
,463,2023-10-27 11:45:27.98,-784,263,-1877,108,100,-205,-150,-1026,876,588
,464,2023-10-27 11:45:27.99,-781,244,-1929,103,108,-242,-383,-1016,633,699
,465,2023-10-27 11:45:28.00,-734,219,-1888,126,107,-246,-140,-1021,881,580
,466,2023-10-27 11:45:28.01,-724,183,-1877,136,109,-220,-387,-1010,623,698
,467,2023-10-27 11:45:28.02,-738,183,-1883,128,99,-215,-144,-1039,895,591
,468,2023-10-27 11:45:28.03,-721,185,-1886,117,91,-220,-400,-1034,634,717
,469,2023-10-27 11:45:28.04,-716,181,-1885,111,73,-214,-142,-1051,909,596
,470,2023-10-27 11:45:28.05,-715,179,-1883,114,63,-200,-393,-1022,629,707
,471,2023-10-27 11:45:28.06,-686,167,-1903,89,89,-160,-133,-1046,913,589
,472,2023-10-27 11:45:28.07,-702,172,-1899,68,101,-120,-391,-1014,623,702
,473,2023-10-27 11:45:28.08,-713,167,-1892,77,100,-95,-139,-1043,904,591
,474,2023-10-27 11:45:28.09,-721,159,-1863,81,96,-89,-409,-1014,605,711
,475,2023-10-27 11:45:28.10,-722,146,-1878,58,106,-81,-136,-1060,924,598
,476,2023-10-27 11:45:28.11,-713,124,-1876,33,117,-62,-398,-1023,625,710
,477,2023-10-27 11:45:28.12,-712,112,-1886,20,110,-39,-124,-1040,916,582
,478,2023-10-27 11:45:28.13,-700,97,-1897,1,104,-18,-407,-993,586,700
,479,2023-10-27 11:45:28.14,-694,95,-1920,-16,92,5,-134,-1042,908,588
,480,2023-10-27 11:45:28.15,-687,112,-1925,-34,71,34,-417,-1005,588,711
,481,2023-10-27 11:45:28.16,-687,117,-1927,-58,61,57,-134,-1052,918,593
,482,2023-10-27 11:45:28.17,-683,146,-1916,-88,44,75,-412,-1006,594,709
,483,2023-10-27 11:45:28.18,-694,162,-1911,-117,34,92,-123,-1050,927,586
,484,2023-10-27 11:45:28.19,-697,168,-1915,-133,19,99,-413,-998,585,705
,485,2023-10-27 11:45:28.20,-700,162,-1912,-136,5,104,-125,-1053,928,589
,486,2023-10-27 11:45:28.21,-702,148,-1915,-121,-1,111,-417,-998,581,707
,487,2023-10-27 11:45:28.22,-696,135,-1907,-104,-4,119,-128,-1046,918,587
,488,2023-10-27 11:45:28.23,-713,149,-1888,-89,-9,124,-423,-987,564,705
,489,2023-10-27 11:45:28.24,-711,146,-1886,-68,-6,125,-125,-1040,915,582
,490,2023-10-27 11:45:28.25,-707,165,-1889,-35,2,125,-415,-983,568,699
,491,2023-10-27 11:45:28.26,-700,169,-1898,12,-5,132,-119,-1048,929,583
,492,2023-10-27 11:45:28.27,-695,175,-1905,69,-21,144,-420,-988,568,704
,493,2023-10-27 11:45:28.28,-702,191,-1900,117,-31,153,-127,-1050,923,588
,494,2023-10-27 11:45:28.29,-692,207,-1908,155,-29,159,-425,-985,560,705
,495,2023-10-27 11:45:28.30,-705,231,-1913,191,-27,164,-129,-1055,926,592
,496,2023-10-27 11:45:28.31,-714,249,-1899,222,-43,163,-422,-984,562,703
,497,2023-10-27 11:45:28.32,-723,277,-1900,242,-49,157,-120,-1059,939,589
,498,2023-10-27 11:45:28.33,-735,280,-1917,248,-54,158,-415,-991,576,703
,499,2023-10-27 11:45:28.34,-743,290,-1907,239,-54,157,-116,-1070,954,593
,500,2023-10-27 11:45:28.35,-746,286,-1901,218,-43,151,-411,-989,578,700
,501,2023-10-27 11:45:28.36,-741,268,-1892,188,-36,144,-116,-1060,944,588
,502,2023-10-27 11:45:28.37,-743,248,-1887,160,-29,133,-411,-977,566,694
,503,2023-10-27 11:45:28.38,-741,248,-1874,138,-16,122,-127,-1064,937,595
,504,2023-10-27 11:45:28.39,-736,226,-1870,127,7,108,-420,-984,564,702
,505,2023-10-27 11:45:28.40,-722,211,-1868,133,11,93,-131,-1073,942,602
,506,2023-10-27 11:45:28.41,-715,189,-1868,141,-2,71,-411,-985,574,698
,507,2023-10-27 11:45:28.42,-715,180,-1859,150,-4,56,-128,-1087,959,607
,508,2023-10-27 11:45:28.43,-704,160,-1866,153,23,44,-413,-992,579,702
,509,2023-10-27 11:45:28.44,-709,146,-1881,167,61,40,-141,-1072,931,606
,510,2023-10-27 11:45:28.45,-708,137,-1899,189,82,41,-412,-969,557,690
,511,2023-10-27 11:45:28.46,-714,148,-1893,213,90,29,-130,-1074,944,602
,512,2023-10-27 11:45:28.47,-736,154,-1910,234,96,10,-408,-983,575,695
,513,2023-10-27 11:45:28.48,-745,152,-1899,249,97,-9,-126,-1088,962,607
,514,2023-10-27 11:45:28.49,-745,129,-1898,261,94,-28,-403,-982,579,692
,515,2023-10-27 11:45:28.50,-730,98,-1902,254,101,-31,-136,-1067,931,601
,516,2023-10-27 11:45:28.51,-733,81,-1940,260,99,-31,-412,-970,558,691
,517,2023-10-27 11:45:28.52,-734,81,-1917,278,93,-33,-137,-1094,957,615
,518,2023-10-27 11:45:28.53,-744,69,-1912,277,78,-44,-403,-990,587,696
,519,2023-10-27 11:45:28.54,-738,78,-1905,267,52,-66,-137,-1073,936,605
,520,2023-10-27 11:45:28.55,-741,78,-1900,253,31,-85,-403,-961,558,682
,521,2023-10-27 11:45:28.56,-757,47,-1908,190,0,-89,-147,-1066,919,606
,522,2023-10-27 11:45:28.57,-763,40,-1924,161,-24,-87,-405,-966,561,685
,523,2023-10-27 11:45:28.58,-746,42,-1896,117,-35,-79,-146,-1074,928,610
,524,2023-10-27 11:45:28.59,-761,26,-1897,57,-44,-70,-397,-967,570,682
,525,2023-10-27 11:45:28.60,-749,36,-1895,13,-58,-64,-148,-1068,920,608
,526,2023-10-27 11:45:28.61,-744,38,-1865,-18,-56,-59,-399,-960,561,679
,527,2023-10-27 11:45:28.62,-747,40,-1879,-46,-39,-45,-154,-1064,910,609
,528,2023-10-27 11:45:28.63,-737,27,-1887,-69,-32,-27,-392,-966,574,679
,529,2023-10-27 11:45:28.64,-728,33,-1876,-82,-25,-16,-144,-1084,940,614
,530,2023-10-27 11:45:28.65,-712,35,-1874,-95,-11,-6,-372,-975,603,673
,531,2023-10-27 11:45:28.66,-708,47,-1861,-90,10,3,-151,-1075,924,613
,532,2023-10-27 11:45:28.67,-699,47,-1873,-56,32,12,-379,-964,585,671
,533,2023-10-27 11:45:28.68,-686,70,-1863,-37,39,21,-164,-1075,911,619
,534,2023-10-27 11:45:28.69,-699,67,-1898,-37,47,23,-375,-966,591,670
,535,2023-10-27 11:45:28.70,-695,76,-1903,-1,55,2,-163,-1073,910,618
,536,2023-10-27 11:45:28.71,-706,73,-1882,15,69,-9,-368,-967,599,667
,537,2023-10-27 11:45:28.72,-717,66,-1914,37,66,-9,-169,-1086,917,627
,538,2023-10-27 11:45:28.73,-716,72,-1931,67,38,-29,-359,-972,613,665
,539,2023-10-27 11:45:28.74,-716,100,-1929,89,19,-58,-168,-1069,901,618
,540,2023-10-27 11:45:28.75,-723,100,-1920,104,11,-83,-357,-957,600,657
,541,2023-10-27 11:45:28.76,-742,105,-1921,118,0,-105,-171,-1065,894,618
,542,2023-10-27 11:45:28.77,-736,97,-1905,113,-10,-132,-343,-953,610,648
,543,2023-10-27 11:45:28.78,-731,104,-1899,99,-20,-162,-176,-1063,887,619
,544,2023-10-27 11:45:28.79,-734,107,-1891,75,-33,-191,-347,-953,606,650
,545,2023-10-27 11:45:28.80,-719,96,-1887,37,-41,-207,-182,-1061,879,621
,546,2023-10-27 11:45:28.81,-717,130,-1880,-7,-41,-217,-334,-957,623,645
,547,2023-10-27 11:45:28.82,-712,174,-1870,-52,-37,-217,-179,-1065,886,622
,548,2023-10-27 11:45:28.83,-746,219,-1869,-108,-31,-208,-332,-962,630,647
,549,2023-10-27 11:45:28.84,-773,223,-1914,-174,-54,-196,-190,-1072,882,631
,550,2023-10-27 11:45:28.85,-811,255,-1914,-244,-100,-199,-332,-969,637,650
,551,2023-10-27 11:45:28.86,-851,269,-1914,-324,-141,-196,-199,-1069,870,634
,552,2023-10-27 11:45:28.87,-869,252,-1953,-407,-172,-184,-323,-957,634,640
,553,2023-10-27 11:45:28.88,-883,266,-1940,-446,-202,-193,-198,-1062,864,630
,554,2023-10-27 11:45:28.89,-865,229,-1919,-436,-209,-228,-317,-964,647,640
,555,2023-10-27 11:45:28.90,-836,196,-1907,-379,-189,-315,-207,-1070,863,638
,556,2023-10-27 11:45:28.91,-789,221,-1790,-306,-115,-445,-317,-970,653,643
,557,2023-10-27 11:45:28.92,-686,191,-1700,-229,24,-567,-211,-1068,857,639
,558,2023-10-27 11:45:28.93,-641,130,-1742,-114,137,-684,-303,-964,661,633
,559,2023-10-27 11:45:28.94,-581,-9,-1754,51,201,-811,-220,-1060,840,640
,560,2023-10-27 11:45:28.95,-500,-148,-1743,211,246,-917,-305,-966,661,635
,561,2023-10-27 11:45:28.96,-462,-239,-1742,349,311,-950,-232,-1073,841,652
,562,2023-10-27 11:45:28.97,-465,-349,-1797,466,380,-924,-305,-975,670,640
,563,2023-10-27 11:45:28.98,-488,-449,-1926,552,452,-842,-246,-1061,815,653
,564,2023-10-27 11:45:28.99,-554,-529,-2083,607,470,-715,-300,-972,672,636
,565,2023-10-27 11:45:29.00,-617,-575,-2202,633,432,-561,-237,-1070,833,653
,566,2023-10-27 11:45:29.01,-656,-531,-2247,621,345,-396,-282,-977,695,629
,567,2023-10-27 11:45:29.02,-663,-424,-2221,565,264,-231,-248,-1058,810,653
,568,2023-10-27 11:45:29.03,-643,-261,-2110,449,251,-62,-280,-961,681,620
,569,2023-10-27 11:45:29.04,-650,-120,-2057,260,305,117,-250,-1045,795,647
,570,2023-10-27 11:45:29.05,-677,-60,-2067,49,384,287,-268,-971,703,619
,571,2023-10-27 11:45:29.06,-683,-78,-2110,-109,413,431,-251,-1072,821,661
,572,2023-10-27 11:45:29.07,-691,-96,-2066,-200,330,554,-255,-985,730,620
,573,2023-10-27 11:45:29.08,-730,-40,-1955,-253,226,648,-253,-1058,805,655
,574,2023-10-27 11:45:29.09,-764,26,-1853,-314,173,691,-256,-976,720,616
,575,2023-10-27 11:45:29.10,-805,34,-1779,-361,133,697,-274,-1061,787,667
,576,2023-10-27 11:45:29.11,-789,-13,-1777,-359,69,703,-259,-993,734,626
,577,2023-10-27 11:45:29.12,-785,-12,-1846,-317,24,695,-275,-1070,795,672
,578,2023-10-27 11:45:29.13,-761,15,-1793,-258,-25,666,-241,-982,741,611
,579,2023-10-27 11:45:29.14,-780,84,-1729,-219,-38,630,-268,-1043,775,655
,580,2023-10-27 11:45:29.15,-782,147,-1732,-225,-7,576,-232,-980,748,606
,581,2023-10-27 11:45:29.16,-796,230,-1733,-241,34,493,-275,-1061,786,668
,582,2023-10-27 11:45:29.17,-818,320,-1748,-258,51,393,-230,-1007,777,618
,583,2023-10-27 11:45:29.18,-832,382,-1770,-274,52,294,-288,-1076,788,682
,584,2023-10-27 11:45:29.19,-828,406,-1807,-273,37,174,-230,-1006,776,618
,585,2023-10-27 11:45:29.20,-789,393,-1821,-260,35,30,-293,-1058,765,675
,586,2023-10-27 11:45:29.21,-740,366,-1823,-254,67,-112,-220,-1003,783,611
,587,2023-10-27 11:45:29.22,-702,337,-1816,-246,121,-238,-298,-1059,761,678
,588,2023-10-27 11:45:29.23,-670,298,-1820,-239,192,-343,-202,-996,794,599
,589,2023-10-27 11:45:29.24,-653,262,-1855,-233,249,-437,-300,-1053,753,676
,590,2023-10-27 11:45:29.25,-642,249,-1905,-208,262,-515,-207,-1011,804,609
,591,2023-10-27 11:45:29.26,-630,216,-1977,-183,278,-571,-320,-1066,746,693
,592,2023-10-27 11:45:29.27,-636,218,-1994,-157,259,-616,-200,-988,788,594
,593,2023-10-27 11:45:29.28,-628,224,-2041,-128,242,-649,-315,-1021,706,668
,594,2023-10-27 11:45:29.29,-619,220,-2051,-130,250,-669,-1048,-1061,13,1054
,595,2023-10-27 11:45:29.30,-582,196,-2006,-142,261,-679,-1450,-1182,-268,1316
,596,2023-10-27 11:45:29.31,-591,215,-2030,-160,288,-672,-1406,-1192,-214,1299
,597,2023-10-27 11:45:29.32,-583,193,-2053,-169,326,-636,-1291,-1223,-68,1257
,598,2023-10-27 11:45:29.33,-581,194,-2060,-148,316,-585,-1177,-1186,9,1181
,599,2023-10-27 11:45:29.34,-582,152,-2037,-135,268,-542,-1185,-1203,18,1194
,600,2023-10-27 11:45:29.35,-549,145,-2000,-134,247,-516,-1184,-1179,-5,1181
,601,2023-10-27 11:45:29.36,-521,168,-1952,-132,247,-494,-1216,-1202,-14,1209
,602,2023-10-27 11:45:29.37,-469,161,-1929,-115,276,-451,-1200,-1186,-14,1193
,603,2023-10-27 11:45:29.38,-462,123,-1919,-103,307,-395,-1210,-1202,-8,1206
,604,2023-10-27 11:45:29.39,-445,121,-1894,-96,339,-347,-1196,-1190,-6,1193
,605,2023-10-27 11:45:29.40,-445,106,-1902,-89,362,-300,-1205,-1209,4,1207
,606,2023-10-27 11:45:29.41,-418,61,-1930,-69,365,-234,-1199,-1201,2,1200
,607,2023-10-27 11:45:29.42,-391,30,-1995,-26,334,-155,-1195,-1205,10,1200
,608,2023-10-27 11:45:29.43,-378,-14,-2039,23,285,-62,-1193,-1198,5,1195
,609,2023-10-27 11:45:29.44,-353,-26,-2021,55,238,29,-1189,-1201,12,1195
,610,2023-10-27 11:45:29.45,-376,-6,-2007,85,231,115,-1194,-1204,10,1199
,611,2023-10-27 11:45:29.46,-371,-23,-2030,135,215,187,-1181,-1205,24,1193
,612,2023-10-27 11:45:29.47,-376,-63,-2059,209,193,256,-1172,-1208,36,1190
,613,2023-10-27 11:45:29.48,-346,-59,-2052,291,158,323,-1123,-1199,76,1161
,614,2023-10-27 11:45:29.49,-354,-61,-2037,353,129,374,-1120,-1208,88,1164
,615,2023-10-27 11:45:29.50,-419,-28,-2038,382,125,407,-1072,-1196,124,1134
,616,2023-10-27 11:45:29.51,-368,-23,-2019,382,153,432,-1080,-1210,130,1145
,617,2023-10-27 11:45:29.52,-394,-11,-2064,371,133,441,-1029,-1198,169,1113
,618,2023-10-27 11:45:29.53,-441,47,-2068,370,121,434,-1049,-1219,170,1134
,619,2023-10-27 11:45:29.54,-381,68,-2100,342,59,427,-1012,-1202,190,1107
,620,2023-10-27 11:45:29.55,-414,12,-2076,306,4,399,-902,-1223,321,1062
,621,2023-10-27 11:45:29.56,-429,101,-2061,313,-32,313,-784,-1195,411,989
,622,2023-10-27 11:45:29.57,-394,72,-2050,287,-50,264,-580,-1221,641,900
,623,2023-10-27 11:45:29.58,-409,-46,-2093,232,-47,260,-529,-1188,659,858
,624,2023-10-27 11:45:29.59,-430,-18,-2122,175,-69,259,-307,-1220,913,763
,625,2023-10-27 11:45:29.60,-440,-28,-2079,114,-107,245,-284,-1185,901,734
,626,2023-10-27 11:45:29.61,-465,-34,-2030,60,-131,213,103,-1223,1326,560
,627,2023-10-27 11:45:29.62,-458,-29,-2006,-6,-140,170,59,-1179,1238,560
,628,2023-10-27 11:45:29.63,-455,-28,-1987,-77,-142,133,214,-1217,1431,501
,629,2023-10-27 11:45:29.64,-487,-2,-1974,-128,-120,108,-28,-1158,1130,593
,630,2023-10-27 11:45:29.65,-499,-35,-1964,-195,-114,103,56,-1207,1263,575
,631,2023-10-27 11:45:29.66,-502,-49,-1968,-250,-121,97,-150,-1159,1009,654
,632,2023-10-27 11:45:29.67,-488,-39,-1961,-297,-156,84,-63,-1214,1151,638
,633,2023-10-27 11:45:29.68,-500,-35,-1929,-339,-181,73,-207,-1128,921,667
,634,2023-10-27 11:45:29.69,-502,-49,-1924,-395,-200,72,303,-1081,1384,389
,635,2023-10-27 11:45:29.70,-508,-69,-1961,-443,-221,92,-154,-992,838,573
,636,2023-10-27 11:45:29.71,-498,-67,-1972,-474,-262,135,-80,-1022,942,551
,637,2023-10-27 11:45:29.72,-513,-65,-1948,-503,-284,189,-434,-992,558,713
,638,2023-10-27 11:45:29.73,-497,-65,-1936,-530,-288,252,-139,-1056,917,597
,639,2023-10-27 11:45:29.74,-503,-60,-1912,-547,-276,327,-397,-1016,619,706
,640,2023-10-27 11:45:29.75,-472,-88,-1938,-516,-260,418,-96,-1075,979,585
,641,2023-10-27 11:45:29.76,-447,-29,-1960,-383,-246,520,-388,-1012,624,700
,642,2023-10-27 11:45:29.77,-411,-17,-2016,-220,-250,664,-110,-1052,942,581
,643,2023-10-27 11:45:29.78,-413,-11,-1987,-33,-260,817,-407,-996,589,701
,644,2023-10-27 11:45:29.79,-429,116,-1977,191,-294,952,-113,-1052,939,582
,645,2023-10-27 11:45:29.80,-453,198,-1923,349,-288,1034,-402,-993,591,697
,646,2023-10-27 11:45:29.81,-499,259,-1880,446,-245,1052,-112,-1051,939,581
,647,2023-10-27 11:45:29.82,-525,339,-1910,515,-198,1035,-403,-982,579,692
,648,2023-10-27 11:45:29.83,-564,431,-1952,609,-194,997,-121,-1047,926,584
,649,2023-10-27 11:45:29.84,-597,477,-1986,717,-214,943,-418,-988,570,703
,650,2023-10-27 11:45:29.85,-624,512,-2002,789,-227,876,-124,-1069,945,596
,651,2023-10-27 11:45:29.86,-648,546,-2026,822,-226,789,-410,-999,589,704
,652,2023-10-27 11:45:29.87,-676,565,-2042,820,-218,670,-117,-1084,967,600
,653,2023-10-27 11:45:29.88,-715,520,-1991,782,-196,533,-408,-1007,599,707
,654,2023-10-27 11:45:29.89,-748,489,-1989,725,-159,384,-116,-1076,960,596
,655,2023-10-27 11:45:29.90,-759,434,-2015,654,-132,237,-407,-983,576,695
,656,2023-10-27 11:45:29.91,-754,362,-2008,566,-144,104,-118,-1060,942,589
,657,2023-10-27 11:45:29.92,-732,264,-1972,477,-169,-9,-410,-976,566,693
,658,2023-10-27 11:45:29.93,-709,187,-1952,388,-193,-105,-124,-1054,930,589
,659,2023-10-27 11:45:29.94,-688,146,-1932,299,-210,-191,-412,-963,551,687
,660,2023-10-27 11:45:29.95,-679,97,-1926,217,-213,-258,-125,-1060,935,592
,661,2023-10-27 11:45:29.96,-659,98,-1950,141,-188,-312,-415,-976,561,695
,662,2023-10-27 11:45:29.97,-620,53,-1853,71,-241,-357,-126,-1069,943,597
,663,2023-10-27 11:45:29.98,-638,-10,-1874,-17,-215,-384,-411,-985,574,698
,664,2023-10-27 11:45:29.99,-620,-13,-1868,-88,-203,-385,-126,-1088,962,607
,665,2023-10-27 11:45:30.00,-629,-33,-1861,-155,-199,-378,-406,-987,581,696
,666,2023-10-27 11:45:30.01,-625,-58,-1865,-219,-193,-372,-124,-1072,948,598
,667,2023-10-27 11:45:30.02,-631,-62,-1864,-249,-190,-354,-408,-980,572,694
,668,2023-10-27 11:45:30.03,-645,-82,-1848,-259,-199,-309,-131,-1092,961,611
,669,2023-10-27 11:45:30.04,-658,-116,-1862,-273,-197,-243,-405,-990,585,697
,670,2023-10-27 11:45:30.05,-658,-109,-1887,-303,-187,-170,-114,-1072,958,593
,671,2023-10-27 11:45:30.06,-667,-91,-1904,-319,-177,-103,-400,-965,565,682
,672,2023-10-27 11:45:30.07,-670,-45,-1886,-326,-184,-33,-127,-1064,937,595
,673,2023-10-27 11:45:30.08,-669,0,-1901,-339,-189,27,-407,-974,567,690
,674,2023-10-27 11:45:30.09,-689,57,-1893,-352,-196,69,-129,-1074,945,601
,675,2023-10-27 11:45:30.10,-701,100,-1909,-361,-186,99,-394,-974,580,684
,676,2023-10-27 11:45:30.11,-725,105,-1923,-367,-165,129,-132,-1086,954,609
,677,2023-10-27 11:45:30.12,-728,104,-1925,-365,-135,163,-391,-988,597,689
,678,2023-10-27 11:45:30.13,-753,110,-1902,-356,-129,189,-140,-1095,955,617
,679,2023-10-27 11:45:30.14,-773,115,-1897,-383,-136,209,-397,-978,581,687
,680,2023-10-27 11:45:30.15,-783,127,-1897,-402,-140,202,-144,-1064,920,604
,681,2023-10-27 11:45:30.16,-750,127,-1876,-402,-128,184,-388,-958,570,673
,682,2023-10-27 11:45:30.17,-743,92,-1873,-395,-76,202,-142,-1071,929,606
,683,2023-10-27 11:45:30.18,-747,28,-1864,-340,-46,232,-380,-968,588,674
,684,2023-10-27 11:45:30.19,-758,61,-1896,-259,-62,249,-144,-1080,936,612
,685,2023-10-27 11:45:30.20,-778,87,-1854,-215,-109,243,-378,-974,596,676
,686,2023-10-27 11:45:30.21,-786,105,-1838,-202,-135,205,-155,-1076,921,615
,687,2023-10-27 11:45:30.22,-790,159,-1810,-194,-132,149,-377,-967,590,672
,688,2023-10-27 11:45:30.23,-820,202,-1840,-155,-94,100,-155,-1087,932,621
,689,2023-10-27 11:45:30.24,-806,183,-1891,-92,-81,57,-366,-983,617,674
,690,2023-10-27 11:45:30.25,-797,167,-1909,-11,-87,9,-157,-1100,943,628
,691,2023-10-27 11:45:30.26,-782,170,-1883,47,-95,-48,-361,-982,621,671
,692,2023-10-27 11:45:30.27,-800,194,-1855,78,-76,-123,-164,-1084,920,624
,693,2023-10-27 11:45:30.28,-797,231,-1851,95,-57,-212,-360,-971,611,665
,694,2023-10-27 11:45:30.29,-802,259,-1881,127,-37,-312,-172,-1078,906,625
,695,2023-10-27 11:45:30.30,-796,259,-1878,161,-13,-414,-357,-960,603,658
,696,2023-10-27 11:45:30.31,-789,259,-1864,193,26,-500,-168,-1074,906,621
,697,2023-10-27 11:45:30.32,-774,201,-1898,230,75,-565,-343,-968,625,655
,698,2023-10-27 11:45:30.33,-759,149,-1901,272,111,-606,-175,-1088,913,631
,699,2023-10-27 11:45:30.34,-739,116,-1863,297,137,-636,-347,-975,628,661
,700,2023-10-27 11:45:30.35,-757,105,-1817,285,184,-653,-173,-1086,913,629
,701,2023-10-27 11:45:30.36,-755,88,-1856,261,231,-649,-329,-972,643,650
,702,2023-10-27 11:45:30.37,-723,64,-1895,257,234,-627,-172,-1076,904,624
,703,2023-10-27 11:45:30.38,-735,63,-1891,254,226,-589,-327,-964,637,645
,704,2023-10-27 11:45:30.39,-713,63,-1893,234,236,-526,-188,-1078,890,633
,705,2023-10-27 11:45:30.40,-707,22,-1911,210,259,-444,-332,-975,643,653
,706,2023-10-27 11:45:30.41,-697,21,-1923,188,269,-354,-186,-1088,902,637
,707,2023-10-27 11:45:30.42,-683,8,-1896,153,270,-250,-314,-978,664,646
,708,2023-10-27 11:45:30.43,-685,2,-1901,123,270,-147,-196,-1080,884,638
,709,2023-10-27 11:45:30.44,-642,18,-1872,101,290,-57,-321,-964,643,642
,710,2023-10-27 11:45:30.45,-624,26,-1863,86,325,29,-212,-1060,848,636
,711,2023-10-27 11:45:30.46,-609,48,-1863,87,360,101,-310,-959,649,634
,712,2023-10-27 11:45:30.47,-587,62,-1855,88,387,160,-204,-1080,876,642
,713,2023-10-27 11:45:30.48,-567,71,-1862,94,413,211,-305,-984,679,644
,714,2023-10-27 11:45:30.49,-553,94,-1853,107,432,239,-217,-1086,869,651
,715,2023-10-27 11:45:30.50,-540,100,-1863,130,463,259,-295,-974,679,634
,716,2023-10-27 11:45:30.51,-549,109,-1890,155,487,269,-218,-1075,857,646
,717,2023-10-27 11:45:30.52,-543,119,-1900,171,503,275,-294,-981,687,637
,718,2023-10-27 11:45:30.53,-555,128,-1945,195,510,276,-222,-1080,858,651
,719,2023-10-27 11:45:30.54,-559,122,-1981,220,489,266,-285,-990,705,637
,720,2023-10-27 11:45:30.55,-541,93,-2016,243,454,254,-233,-1091,858,662
,721,2023-10-27 11:45:30.56,-530,104,-2003,276,443,244,-279,-992,713,635
,722,2023-10-27 11:45:30.57,-487,85,-2006,321,383,236,-226,-1081,855,653
,723,2023-10-27 11:45:30.58,-513,81,-2006,338,391,217,-263,-993,730,628
,724,2023-10-27 11:45:30.59,-519,80,-1986,343,370,199,-235,-1088,853,661
,725,2023-10-27 11:45:30.60,-553,58,-2011,357,375,166,-265,-999,734,632
,726,2023-10-27 11:45:30.61,-547,-40,-2077,430,317,88,-240,-1081,841,660
,727,2023-10-27 11:45:30.62,-540,-73,-2063,474,280,59,-256,-1007,751,631
,728,2023-10-27 11:45:30.63,-544,-101,-2080,478,265,27,-243,-1098,855,670
,729,2023-10-27 11:45:30.64,-544,-56,-2087,443,257,-1,-246,-1006,760,626
,730,2023-10-27 11:45:30.65,-540,-20,-2066,405,231,-37,-253,-1071,818,662
,731,2023-10-27 11:45:30.66,-544,2,-2088,356,213,-71,-245,-993,748,619
,732,2023-10-27 11:45:30.67,-527,19,-2079,313,198,-103,-260,-1068,808,664
,733,2023-10-27 11:45:30.68,-502,21,-2054,280,156,-121,-232,-993,761,612
,734,2023-10-27 11:45:30.69,-502,-13,-2027,215,165,-134,-258,-1061,803,659
,735,2023-10-27 11:45:30.70,-490,-53,-1981,136,189,-143,-224,-996,772,610
,736,2023-10-27 11:45:30.71,-482,-78,-1965,64,214,-149,-270,-1067,797,668
,737,2023-10-27 11:45:30.72,-469,-115,-1953,19,218,-145,-220,-990,770,605
,738,2023-10-27 11:45:30.73,-451,-130,-1916,-4,203,-132,-280,-1050,770,665
,739,2023-10-27 11:45:30.74,-465,-148,-1885,-8,186,-109,-221,-991,770,606
,740,2023-10-27 11:45:30.75,-457,-186,-1875,-5,177,-88,-285,-1059,774,672
,741,2023-10-27 11:45:30.76,-452,-219,-1875,8,186,-69,-212,-993,781,602
,742,2023-10-27 11:45:30.77,-434,-241,-1893,43,182,-43,-293,-1050,757,671
,743,2023-10-27 11:45:30.78,-416,-255,-1895,91,181,-19,-209,-993,784,601
,744,2023-10-27 11:45:30.79,-418,-247,-1895,140,178,-5,-299,-1052,753,675
,745,2023-10-27 11:45:30.80,-425,-215,-1898,182,183,7,-202,-990,788,596
,746,2023-10-27 11:45:30.81,-433,-178,-1924,215,210,14,-301,-1034,733,667
,747,2023-10-27 11:45:30.82,-433,-182,-1966,227,241,21,-195,-999,804,597
,748,2023-10-27 11:45:30.83,-419,-177,-1962,234,259,28,-294,-1058,764,676
,749,2023-10-27 11:45:30.84,-429,-182,-1993,237,278,34,-184,-1010,826,597
,750,2023-10-27 11:45:30.85,-433,-184,-2029,235,287,39,-312,-1051,739,681
,751,2023-10-27 11:45:30.86,-442,-167,-2051,214,294,42,-193,-1005,812,599
,752,2023-10-27 11:45:30.87,-433,-144,-2070,188,296,50,-317,-1035,718,676
,753,2023-10-27 11:45:30.88,-447,-140,-2041,163,292,50,-181,-1000,819,590
,754,2023-10-27 11:45:30.89,-454,-120,-2024,149,300,41,-317,-1034,717,675
,755,2023-10-27 11:45:30.90,-449,-149,-2037,121,320,40,-176,-1020,844,598
,756,2023-10-27 11:45:30.91,-445,-170,-2032,95,329,37,-327,-1047,720,687
,757,2023-10-27 11:45:30.92,-437,-165,-2028,89,317,47,-174,-1018,844,596
,758,2023-10-27 11:45:30.93,-449,-152,-2025,76,298,52,-342,-1034,692,688
,759,2023-10-27 11:45:30.94,-453,-90,-2007,67,291,51,-179,-1020,841,599
,760,2023-10-27 11:45:30.95,-471,-65,-1981,47,292,28,-352,-1037,685,694
,761,2023-10-27 11:45:30.96,-494,-34,-1977,34,309,-3,-166,-1010,844,588
,762,2023-10-27 11:45:30.97,-490,-21,-1974,21,334,-45,-352,-1025,673,688
,763,2023-10-27 11:45:30.98,-484,-21,-1971,8,360,-93,-163,-1006,843,584
,764,2023-10-27 11:45:30.99,-495,0,-1957,7,376,-155,-360,-1015,655,687
,765,2023-10-27 11:45:31.00,-479,25,-1943,11,388,-235,-162,-1011,849,586
,766,2023-10-27 11:45:31.01,-471,41,-1928,25,398,-327,-363,-1028,665,695
,767,2023-10-27 11:45:31.02,-464,64,-1942,39,398,-438,-153,-1032,879,592
,768,2023-10-27 11:45:31.03,-460,89,-1976,51,393,-554,-361,-1036,675,698
,769,2023-10-27 11:45:31.04,-456,119,-1975,56,369,-685,-146,-1021,875,583
,770,2023-10-27 11:45:31.05,-443,142,-2003,52,368,-833,-367,-1016,649,691
,771,2023-10-27 11:45:31.06,-438,183,-2036,30,358,-990,-152,-1015,863,583
,772,2023-10-27 11:45:31.07,-406,176,-2038,-1,359,-1159,-382,-1005,623,693
,773,2023-10-27 11:45:31.08,-387,209,-2055,-11,352,-1340,-152,-1019,867,585
,774,2023-10-27 11:45:31.09,-377,270,-2070,-15,332,-1535,-382,-1017,635,699
,775,2023-10-27 11:45:31.10,-339,307,-2091,-16,304,-1760,-149,-1037,888,593
,776,2023-10-27 11:45:31.11,-331,330,-2103,-39,277,-1999,-389,-1025,636,707
,777,2023-10-27 11:45:31.12,-302,338,-2121,-56,251,-2245,-151,-1037,886,594
,778,2023-10-27 11:45:31.13,-254,311,-2099,-69,206,-2497,-394,-1020,626,707
,779,2023-10-27 11:45:31.14,-198,299,-2094,-88,169,-2735,-148,-1039,891,593
,780,2023-10-27 11:45:31.15,-136,252,-2056,-120,164,-2958,-396,-1014,618,705
,781,2023-10-27 11:45:31.16,-74,232,-2048,-158,167,-3168,-148,-1046,898,597
,782,2023-10-27 11:45:31.17,-18,215,-2032,-194,172,-3367,-406,-1026,620,716
,783,2023-10-27 11:45:31.18,34,190,-2043,-221,177,-3549,-142,-1045,903,593
,784,2023-10-27 11:45:31.19,100,160,-2040,-238,174,-3726,-402,-1014,612,708
,785,2023-10-27 11:45:31.20,144,148,-2026,-238,152,-3900,-135,-1026,891,580
,786,2023-10-27 11:45:31.21,210,127,-2037,-230,119,-4067,-408,-995,587,701
,787,2023-10-27 11:45:31.22,265,109,-2046,-216,84,-4221,-128,-1033,905,580
,788,2023-10-27 11:45:31.23,318,68,-2094,-207,41,-4353,-399,-1007,608,703
,789,2023-10-27 11:45:31.24,356,37,-2130,-185,12,-4458,-128,-1047,919,587
,790,2023-10-27 11:45:31.25,413,15,-2125,-160,-32,-4533,-407,-1012,605,709
,791,2023-10-27 11:45:31.26,462,36,-2107,-158,-36,-4577,-122,-1052,930,587
,792,2023-10-27 11:45:31.27,473,-3,-2098,-177,-13,-4616,-394,-1008,614,701
,793,2023-10-27 11:45:31.28,470,-72,-2056,-180,3,-4652,-106,-1029,923,567
,794,2023-10-27 11:45:31.29,509,37,-2158,-176,31,-4665,-404,-986,582,695
,795,2023-10-27 11:45:31.30,562,-34,-2114,-201,52,-4667,-134,-1042,908,588
,796,2023-10-27 11:45:31.31,569,8,-2128,-216,40,-4669,-419,-999,580,709
,797,2023-10-27 11:45:31.32,572,-24,-2113,-279,83,-4644,-124,-1064,940,594
,798,2023-10-27 11:45:31.33,564,-25,-2142,-333,122,-4613,-403,-1000,597,701
,799,2023-10-27 11:45:31.34,584,-13,-2137,-380,116,-4564,-112,-1063,951,587
,800,2023-10-27 11:45:31.35,587,5,-2137,-417,109,-4506,-404,-991,587,697
,801,2023-10-27 11:45:31.36,542,-16,-2134,-436,62,-4452,-127,-1057,930,592
,802,2023-10-27 11:45:31.37,533,-74,-2126,-474,26,-4381,-423,-983,560,703
,803,2023-10-27 11:45:31.38,520,-100,-2150,-527,-23,-4282,-125,-1058,933,591
,804,2023-10-27 11:45:31.39,521,-138,-2120,-573,-90,-4152,-420,-992,572,706
,805,2023-10-27 11:45:31.40,499,-145,-2104,-573,-181,-4002,-128,-1065,937,596
,806,2023-10-27 11:45:31.41,507,10,-2084,-586,-239,-3842,-426,-999,573,712
,807,2023-10-27 11:45:31.42,471,-172,-2077,-622,-276,-3689,-131,-1063,932,597
,808,2023-10-27 11:45:31.43,442,-174,-2085,-648,-282,-3535,-428,-990,562,709
,809,2023-10-27 11:45:31.44,436,-181,-2103,-673,-278,-3377,-139,-1051,912,595
,810,2023-10-27 11:45:31.45,393,-149,-2120,-667,-313,-3218,-431,-981,550,706
,811,2023-10-27 11:45:31.46,378,-107,-2135,-642,-353,-3074,-135,-1049,914,592
,812,2023-10-27 11:45:31.47,345,-107,-2089,-608,-410,-2940,-418,-978,560,698
,813,2023-10-27 11:45:31.48,319,-89,-2040,-566,-429,-2815,-130,-1075,945,602
,814,2023-10-27 11:45:31.49,317,-35,-2131,-579,-451,-2680,-421,-997,576,709
,815,2023-10-27 11:45:31.50,267,-52,-2114,-629,-407,-2556,-127,-1064,937,595
,816,2023-10-27 11:45:31.51,248,-80,-2083,-662,-371,-2438,-414,-974,560,694
,817,2023-10-27 11:45:31.52,222,-55,-2115,-684,-351,-2313,-125,-1069,944,597
,818,2023-10-27 11:45:31.53,186,-62,-2114,-679,-400,-2188,-416,-987,571,701
,819,2023-10-27 11:45:31.54,153,-61,-2161,-645,-425,-2059,-119,-1078,959,598
,820,2023-10-27 11:45:31.55,130,-44,-2122,-609,-437,-1944,-403,-983,580,693
,821,2023-10-27 11:45:31.56,119,-46,-2074,-583,-439,-1835,-120,-1054,934,587
,822,2023-10-27 11:45:31.57,90,-73,-2051,-594,-384,-1719,-409,-963,554,686
,823,2023-10-27 11:45:31.58,107,-118,-2036,-571,-318,-1599,-128,-1068,940,598
,824,2023-10-27 11:45:31.59,70,-130,-2058,-524,-279,-1466,-406,-982,576,694
,825,2023-10-27 11:45:31.60,78,-160,-2038,-453,-251,-1327,-106,-1074,968,590
,826,2023-10-27 11:45:31.61,64,-167,-2029,-361,-244,-1189,-330,-1010,680,670
,827,2023-10-27 11:45:31.62,41,-184,-2005,-269,-222,-1045,-1052,-1197,145,1124
,828,2023-10-27 11:45:31.63,21,-162,-2013,-188,-205,-911,-1251,-1130,-121,1190
,829,2023-10-27 11:45:31.64,13,-149,-1991,-112,-183,-785,-1379,-1247,-132,1313
,830,2023-10-27 11:45:31.65,13,-153,-1977,-31,-153,-669,-1181,-1131,-50,1156
,831,2023-10-27 11:45:31.66,8,-130,-1967,47,-124,-559,-1236,-1238,2,1237
,832,2023-10-27 11:45:31.67,17,-112,-1966,106,-83,-451,-1108,-1128,20,1118
,833,2023-10-27 11:45:31.68,-14,-77,-1974,153,-39,-351,-1238,-1242,4,1240
,834,2023-10-27 11:45:31.69,-15,-68,-1955,192,27,-264,-1123,-1126,3,1124
,835,2023-10-27 11:45:31.70,-15,-66,-1944,219,93,-187,-1247,-1245,-2,1246
,836,2023-10-27 11:45:31.71,-15,-75,-1974,237,151,-106,-1123,-1133,10,1128
,837,2023-10-27 11:45:31.72,-38,-83,-1987,264,205,-34,-1244,-1253,9,1248
,838,2023-10-27 11:45:31.73,-52,-69,-2024,293,223,38,-1118,-1139,21,1128
,839,2023-10-27 11:45:31.74,-57,-65,-2027,320,219,107,-1244,-1255,11,1249
,840,2023-10-27 11:45:31.75,-81,-59,-2038,333,224,162,-1125,-1143,18,1134
,841,2023-10-27 11:45:31.76,-79,-43,-2046,344,226,204,-1244,-1256,12,1250
