// Data mode  : Full
// Data quality  : High
// Acceleration sensor's range  : 16g
// Gyroscope sensor's range  : 2000dps
//
//ARTIFACT,NUM,DATE,ACC_X,ACC_Y,ACC_Z,GYRO_X,GYRO_Y,GYRO_Z,EOG_L,EOG_R,EOG_H,EOG_V
,1,2023-10-27 11:39:25.19,370,-44,-1978,-136,-104,65,294,-652,946,179
,2,2023-10-27 11:39:25.20,380,-66,-1934,-171,-56,55,317,-553,870,118
,3,2023-10-27 11:39:25.21,363,-81,-1944,-177,-27,48,299,-651,950,176
,4,2023-10-27 11:39:25.22,383,-71,-1994,-166,-8,39,351,-497,848,73
,5,2023-10-27 11:39:25.23,368,-51,-2004,-161,15,30,334,-571,905,118
,6,2023-10-27 11:39:25.24,353,-42,-2047,-165,34,14,332,-456,788,62
,7,2023-10-27 11:39:25.25,343,-50,-2086,-165,37,8,291,-561,852,135
,8,2023-10-27 11:39:25.26,348,-44,-2087,-145,22,1,308,-456,764,74
,9,2023-10-27 11:39:25.27,350,-52,-2112,-128,7,0,318,-550,868,116
,10,2023-10-27 11:39:25.28,352,-64,-2077,-109,-10,-2,349,-431,780,41
,11,2023-10-27 11:39:25.29,347,-45,-2091,-87,-27,-2,335,-571,906,118
,12,2023-10-27 11:39:25.30,332,-61,-2066,-56,-45,-4,354,-441,795,43
,13,2023-10-27 11:39:25.31,350,-39,-2040,-34,-79,-2,311,-571,882,130
,14,2023-10-27 11:39:25.32,343,-47,-2035,-16,-105,5,312,-463,775,75
,15,2023-10-27 11:39:25.33,352,-26,-2042,6,-114,9,291,-596,887,152
,16,2023-10-27 11:39:25.34,345,-10,-1986,3,-104,10,320,-456,776,68
,17,2023-10-27 11:39:25.35,373,-22,-1959,-9,-82,9,267,-604,871,168
,18,2023-10-27 11:39:25.36,364,-25,-1958,-26,-47,0,263,-475,738,106
,19,2023-10-27 11:39:25.37,328,4,-1998,-59,-17,-1,268,-590,858,161
,20,2023-10-27 11:39:25.38,307,-41,-1988,-74,-29,-4,296,-450,746,77
,21,2023-10-27 11:39:25.39,330,-35,-2057,-65,-49,4,320,-600,920,140
,22,2023-10-27 11:39:25.40,313,-15,-2052,-71,-47,5,309,-504,813,97
,23,2023-10-27 11:39:25.41,317,-11,-2088,-91,-46,-1,310,-625,935,157
,24,2023-10-27 11:39:25.42,313,-2,-2102,-113,-57,0,288,-482,770,97
,25,2023-10-27 11:39:25.43,318,-8,-2098,-112,-74,3,308,-613,921,152
,26,2023-10-27 11:39:25.44,307,1,-2103,-103,-97,1,317,-479,796,81
,27,2023-10-27 11:39:25.45,312,2,-2065,-102,-112,3,348,-614,962,133
,28,2023-10-27 11:39:25.46,300,-4,-2061,-98,-116,0,315,-473,788,79
,29,2023-10-27 11:39:25.47,304,-11,-2046,-90,-121,1,339,-596,935,128
,30,2023-10-27 11:39:25.48,319,-12,-2027,-89,-111,-2,304,-485,789,90
,31,2023-10-27 11:39:25.49,334,-15,-2043,-84,-78,-3,335,-604,939,134
,32,2023-10-27 11:39:25.50,306,34,-2081,-109,-20,-16,277,-463,740,93
,33,2023-10-27 11:39:25.51,276,21,-2019,-149,-1,-24,283,-612,895,164
,34,2023-10-27 11:39:25.52,288,24,-1998,-153,-12,-19,262,-494,756,116
,35,2023-10-27 11:39:25.53,285,47,-2008,-145,-50,-16,286,-631,917,172
,36,2023-10-27 11:39:25.54,289,46,-1962,-147,-63,-11,265,-497,762,116
,37,2023-10-27 11:39:25.55,278,49,-1937,-167,-36,-13,293,-599,892,153
,38,2023-10-27 11:39:25.56,273,41,-2001,-193,-26,-10,263,-459,722,98
,39,2023-10-27 11:39:25.57,278,48,-2019,-201,-54,-9,317,-559,876,121
,40,2023-10-27 11:39:25.58,314,49,-2034,-204,-46,-11,275,-450,725,87
,41,2023-10-27 11:39:25.59,302,51,-2037,-205,-28,-21,347,-614,961,133
,42,2023-10-27 11:39:25.60,309,56,-2034,-215,0,-33,300,-508,808,104
,43,2023-10-27 11:39:25.61,290,50,-2092,-209,12,-48,321,-620,941,149
,44,2023-10-27 11:39:25.62,291,59,-2131,-200,-4,-46,267,-477,744,105
,45,2023-10-27 11:39:25.63,305,66,-2082,-171,-21,-48,324,-612,936,144
,46,2023-10-27 11:39:25.64,295,32,-2088,-145,-28,-52,286,-489,775,101
,47,2023-10-27 11:39:25.65,295,30,-2091,-127,-34,-56,329,-610,939,140
,48,2023-10-27 11:39:25.66,299,34,-2073,-103,-35,-55,266,-474,740,104
,49,2023-10-27 11:39:25.67,292,34,-2064,-69,-48,-52,305,-595,900,145
,50,2023-10-27 11:39:25.68,295,44,-2044,-35,-65,-44,246,-469,715,111
,51,2023-10-27 11:39:25.69,293,53,-2031,-11,-66,-38,344,-607,951,131
,52,2023-10-27 11:39:25.70,289,70,-2044,-11,-59,-34,300,-490,790,95
,53,2023-10-27 11:39:25.71,303,51,-2023,-10,-64,-27,345,-579,924,117
,54,2023-10-27 11:39:25.72,287,101,-2125,-21,-30,-26,256,-468,724,106
,55,2023-10-27 11:39:25.73,235,145,-2213,-80,-32,-14,328,-616,944,144
,56,2023-10-27 11:39:25.74,241,168,-2193,-172,-70,-3,257,-513,770,128
,57,2023-10-27 11:39:25.75,248,128,-2116,-237,-113,14,353,-621,974,134
,58,2023-10-27 11:39:25.76,218,117,-2095,-275,-153,42,258,-504,762,123
,59,2023-10-27 11:39:25.77,202,149,-2033,-315,-187,65,358,-603,961,122
,60,2023-10-27 11:39:25.78,182,177,-2051,-364,-228,89,285,-489,774,102
,61,2023-10-27 11:39:25.79,180,204,-2076,-418,-301,116,380,-567,947,93
,62,2023-10-27 11:39:25.80,210,244,-2038,-461,-371,138,291,-457,748,83
,63,2023-10-27 11:39:25.81,207,251,-2028,-485,-406,154,410,-549,959,69
,64,2023-10-27 11:39:25.82,209,280,-2016,-513,-419,160,295,-488,783,96
,65,2023-10-27 11:39:25.83,206,280,-2021,-542,-413,156,398,-600,998,101
,66,2023-10-27 11:39:25.84,196,258,-2050,-548,-403,150,318,-502,820,92
,67,2023-10-27 11:39:25.85,209,247,-2053,-524,-406,153,450,-586,1036,68
,68,2023-10-27 11:39:25.86,194,267,-2033,-467,-402,154,335,-488,823,76
,69,2023-10-27 11:39:25.87,199,258,-2021,-390,-397,154,450,-578,1028,64
,70,2023-10-27 11:39:25.88,183,266,-2024,-321,-383,154,330,-476,806,73
,71,2023-10-27 11:39:25.89,174,300,-2049,-256,-363,156,421,-528,949,53
,72,2023-10-27 11:39:25.90,155,313,-2068,-209,-347,164,313,-450,763,68
,73,2023-10-27 11:39:25.91,157,308,-2048,-168,-338,175,471,-501,972,15
,74,2023-10-27 11:39:25.92,133,313,-2045,-122,-324,178,365,-425,790,30
,75,2023-10-27 11:39:25.93,119,299,-2062,-85,-315,189,510,-522,1032,6
,76,2023-10-27 11:39:25.94,104,288,-2079,-59,-309,194,393,-437,830,22
,77,2023-10-27 11:39:25.95,112,268,-2072,-28,-315,210,523,-477,1000,-23
,78,2023-10-27 11:39:25.96,111,242,-2046,8,-312,222,430,-392,822,-19
,79,2023-10-27 11:39:25.97,126,248,-2023,51,-310,229,616,-427,1043,-94
,80,2023-10-27 11:39:25.98,157,253,-1971,95,-287,230,471,-379,850,-46
,81,2023-10-27 11:39:25.99,174,244,-1956,135,-238,220,585,-436,1021,-74
,82,2023-10-27 11:39:26.00,161,235,-1919,168,-185,198,425,-406,831,-9
,83,2023-10-27 11:39:26.01,159,224,-1879,195,-124,181,526,-470,996,-28
,84,2023-10-27 11:39:26.02,145,220,-1901,217,-75,164,265,-465,730,100
,85,2023-10-27 11:39:26.03,105,210,-1758,248,-72,163,231,-633,864,201
,86,2023-10-27 11:39:26.04,-46,36,-1930,338,-107,144,128,-641,769,256
,87,2023-10-27 11:39:26.05,-74,43,-2185,404,-182,189,289,-683,972,197
,88,2023-10-27 11:39:26.06,-137,98,-2206,357,-314,269,210,-634,844,212
,89,2023-10-27 11:39:26.07,-128,211,-2187,265,-473,354,422,-695,1117,136
,90,2023-10-27 11:39:26.08,-116,188,-2209,214,-678,428,356,-609,965,126
,91,2023-10-27 11:39:26.09,-62,221,-2217,183,-892,490,543,-593,1136,25
,92,2023-10-27 11:39:26.10,43,174,-2138,159,-1025,536,441,-554,995,56
,93,2023-10-27 11:39:26.11,135,137,-2203,80,-967,534,664,-554,1218,-55
,94,2023-10-27 11:39:26.12,124,120,-2204,-56,-871,514,659,-466,1125,-96
,95,2023-10-27 11:39:26.13,206,49,-1920,-142,-738,478,916,-423,1339,-246
,96,2023-10-27 11:39:26.14,244,-33,-1867,-101,-539,449,801,-307,1108,-247
,97,2023-10-27 11:39:26.15,238,-73,-1865,-30,-343,433,914,-228,1142,-343
,98,2023-10-27 11:39:26.16,218,-102,-1816,41,-150,421,691,-215,906,-238
,99,2023-10-27 11:39:26.17,199,-113,-1848,147,44,415,813,-238,1051,-287
,100,2023-10-27 11:39:26.18,223,-118,-1922,246,238,417,614,-272,886,-171
,101,2023-10-27 11:39:26.19,166,-87,-1954,310,423,412,678,-301,979,-188
,102,2023-10-27 11:39:26.20,133,-52,-2034,331,563,427,434,-342,776,-46
,103,2023-10-27 11:39:26.21,111,-86,-2018,339,633,428,476,-375,851,-50
,104,2023-10-27 11:39:26.22,95,-98,-1979,377,668,440,295,-436,731,70
,105,2023-10-27 11:39:26.23,66,-104,-1955,473,628,453,354,-468,822,57
,106,2023-10-27 11:39:26.24,104,-75,-1961,594,562,465,156,-525,681,184
,107,2023-10-27 11:39:26.25,102,-43,-2055,692,489,466,216,-575,791,179
,108,2023-10-27 11:39:26.26,120,-89,-2001,731,457,457,82,-623,705,270
,109,2023-10-27 11:39:26.27,125,-142,-1947,753,488,449,185,-632,817,223
,110,2023-10-27 11:39:26.28,137,-215,-1937,771,518,458,48,-664,712,308
,111,2023-10-27 11:39:26.29,90,-256,-2031,779,506,487,151,-662,813,255
,112,2023-10-27 11:39:26.30,108,-302,-1995,832,427,537,36,-694,730,329
,113,2023-10-27 11:39:26.31,171,-332,-2031,955,357,600,114,-677,791,281
,114,2023-10-27 11:39:26.32,163,-295,-2196,1069,303,661,9,-674,683,332
,115,2023-10-27 11:39:26.33,163,-243,-2251,1076,263,711,144,-649,793,252
,116,2023-10-27 11:39:26.34,173,-274,-2267,1041,263,753,48,-670,718,311
,117,2023-10-27 11:39:26.35,141,-311,-2308,990,268,810,159,-621,780,231
,118,2023-10-27 11:39:26.36,121,-309,-2308,930,229,888,-2,-654,652,328
,119,2023-10-27 11:39:26.37,113,-282,-2334,829,184,981,76,-639,715,281
,120,2023-10-27 11:39:26.38,120,-284,-2283,709,122,1073,-56,-675,619,365
,121,2023-10-27 11:39:26.39,128,-266,-2170,603,63,1156,75,-616,691,270
,122,2023-10-27 11:39:26.40,116,-168,-2116,500,8,1223,2,-645,647,321
,123,2023-10-27 11:39:26.41,72,-67,-1994,375,-70,1270,74,-625,699,275
,124,2023-10-27 11:39:26.42,134,-153,-2086,255,-106,1291,-45,-685,640,365
,125,2023-10-27 11:39:26.43,71,-11,-1987,134,-129,1294,44,-642,686,299
,126,2023-10-27 11:39:26.44,113,-110,-2019,55,-211,1307,-8,-682,674,345
,127,2023-10-27 11:39:26.45,95,-52,-1953,-51,-221,1283,134,-616,750,241
,128,2023-10-27 11:39:26.46,127,-35,-1869,-159,-208,1256,78,-660,738,291
,129,2023-10-27 11:39:26.47,110,-79,-1861,-236,-199,1207,172,-590,762,209
,130,2023-10-27 11:39:26.48,116,-114,-1904,-287,-175,1161,70,-641,711,285
,131,2023-10-27 11:39:26.49,127,-91,-1934,-323,-143,1107,152,-595,747,221
,132,2023-10-27 11:39:26.50,113,-103,-2075,-362,-103,1046,68,-659,727,295
,133,2023-10-27 11:39:26.51,97,-158,-2055,-384,-119,989,217,-589,806,186
,134,2023-10-27 11:39:26.52,99,-179,-1983,-338,-109,933,111,-682,793,285
,135,2023-10-27 11:39:26.53,88,-212,-2028,-245,-93,869,246,-627,873,190
,136,2023-10-27 11:39:26.54,37,-111,-2122,-172,-96,822,160,-695,855,267
,137,2023-10-27 11:39:26.55,48,-137,-2204,-140,-148,778,235,-639,874,202
,138,2023-10-27 11:39:26.56,29,-25,-2212,-135,-150,731,163,-690,853,263
,139,2023-10-27 11:39:26.57,35,26,-2206,-156,-153,681,303,-545,848,121
,140,2023-10-27 11:39:26.58,30,-48,-2233,-214,-158,628,246,-624,870,189
,141,2023-10-27 11:39:26.59,-32,49,-2164,-291,-129,579,334,-553,887,109
,142,2023-10-27 11:39:26.60,-19,46,-2134,-375,-115,532,293,-648,941,177
,143,2023-10-27 11:39:26.61,-33,64,-2097,-428,-131,504,370,-521,891,75
,144,2023-10-27 11:39:26.62,-36,50,-2098,-476,-141,476,255,-615,870,180
,145,2023-10-27 11:39:26.63,-44,13,-2074,-519,-163,464,348,-536,884,94
,146,2023-10-27 11:39:26.64,-49,10,-2013,-536,-163,463,305,-608,913,151
,147,2023-10-27 11:39:26.65,-37,10,-1968,-526,-168,456,390,-495,885,52
,148,2023-10-27 11:39:26.66,-20,7,-1921,-499,-171,459,350,-587,937,118
,149,2023-10-27 11:39:26.67,-38,35,-1920,-476,-158,460,437,-475,912,19
,150,2023-10-27 11:39:26.68,-2,89,-1859,-447,-137,465,394,-565,959,85
,151,2023-10-27 11:39:26.69,22,126,-1857,-398,-104,458,447,-456,903,4
,152,2023-10-27 11:39:26.70,65,144,-1969,-381,-30,439,391,-570,961,89
,153,2023-10-27 11:39:26.71,50,181,-1988,-403,45,400,428,-508,936,40
,154,2023-10-27 11:39:26.72,55,211,-1864,-378,85,370,374,-605,979,115
,155,2023-10-27 11:39:26.73,46,225,-1817,-267,110,331,422,-479,901,28
,156,2023-10-27 11:39:26.74,45,199,-1924,-110,112,291,388,-552,940,82
,157,2023-10-27 11:39:26.75,43,177,-2087,-22,131,255,436,-432,868,-2
,158,2023-10-27 11:39:26.76,35,173,-2098,26,179,215,377,-558,935,90
,159,2023-10-27 11:39:26.77,37,188,-2121,85,218,181,405,-461,866,28
,160,2023-10-27 11:39:26.78,15,164,-2149,146,243,147,390,-550,940,80
,161,2023-10-27 11:39:26.79,7,143,-2165,205,239,123,432,-420,852,-6
,162,2023-10-27 11:39:26.80,17,130,-2110,261,216,103,349,-567,916,109
,163,2023-10-27 11:39:26.81,31,122,-2075,325,207,84,359,-472,831,56
,164,2023-10-27 11:39:26.82,10,83,-2075,396,204,61,302,-587,889,142
,165,2023-10-27 11:39:26.83,-3,67,-2057,453,212,35,360,-447,807,43
,166,2023-10-27 11:39:26.84,-9,47,-2025,498,213,10,334,-595,929,130
,167,2023-10-27 11:39:26.85,-31,38,-2028,533,201,-13,347,-500,847,76
,168,2023-10-27 11:39:26.86,-53,43,-2058,540,183,-37,300,-623,923,161
,169,2023-10-27 11:39:26.87,5,3,-1983,534,190,-64,352,-465,817,56
,170,2023-10-27 11:39:26.88,-1,-1,-1941,544,195,-102,339,-565,904,113
,171,2023-10-27 11:39:26.89,-17,-17,-1949,565,180,-143,347,-426,773,39
,172,2023-10-27 11:39:26.90,-17,-36,-1980,563,174,-193,290,-540,830,125
,173,2023-10-27 11:39:26.91,1,-53,-1976,540,184,-239,274,-420,694,73
,174,2023-10-27 11:39:26.92,-5,-52,-1951,487,206,-293,214,-616,830,201
,175,2023-10-27 11:39:26.93,19,-88,-2002,448,200,-347,181,-560,741,189
,176,2023-10-27 11:39:26.94,15,-91,-2030,398,194,-403,85,-688,773,301
,177,2023-10-27 11:39:26.95,56,-112,-2059,327,240,-452,95,-545,640,225
,178,2023-10-27 11:39:26.96,2,-150,-2074,245,245,-501,43,-693,736,325
,179,2023-10-27 11:39:26.97,47,-136,-2067,163,242,-540,40,-582,622,271
,180,2023-10-27 11:39:26.98,51,-177,-2095,91,244,-578,-99,-759,660,429
,181,2023-10-27 11:39:26.99,53,-193,-2131,15,247,-595,-134,-666,532,400
,182,2023-10-27 11:39:27.00,104,-218,-2150,-52,242,-604,-260,-842,582,551
,183,2023-10-27 11:39:27.01,79,-185,-2175,-107,190,-613,-242,-755,513,498
,184,2023-10-27 11:39:27.02,152,-249,-2020,-172,221,-621,-361,-909,548,635
,185,2023-10-27 11:39:27.03,166,-221,-2041,-176,241,-634,-342,-795,453,568
,186,2023-10-27 11:39:27.04,233,-213,-2036,-189,246,-637,-419,-944,525,681
,187,2023-10-27 11:39:27.05,231,-221,-2053,-196,267,-649,-370,-822,452,596
,188,2023-10-27 11:39:27.06,238,-218,-2091,-196,259,-651,-430,-961,531,695
,189,2023-10-27 11:39:27.07,319,-201,-2069,-184,273,-651,-352,-827,475,589
,190,2023-10-27 11:39:27.08,332,-198,-2057,-166,307,-658,-390,-947,557,668
,191,2023-10-27 11:39:27.09,332,-189,-2034,-141,312,-658,-298,-794,496,546
,192,2023-10-27 11:39:27.10,373,-201,-2056,-116,316,-655,-306,-913,607,609
,193,2023-10-27 11:39:27.11,401,-169,-2024,-97,324,-644,-200,-777,577,488
,194,2023-10-27 11:39:27.12,386,-141,-2038,-82,330,-630,-176,-902,726,539
,195,2023-10-27 11:39:27.13,355,-153,-2055,-78,342,-616,-110,-739,629,424
,196,2023-10-27 11:39:27.14,346,-141,-2037,-81,305,-586,-52,-852,800,452
,197,2023-10-27 11:39:27.15,362,-122,-2017,-82,252,-551,44,-672,716,314
,198,2023-10-27 11:39:27.16,397,-43,-1931,-86,217,-513,148,-754,902,303
,199,2023-10-27 11:39:27.17,426,53,-1862,-114,188,-488,184,-587,771,201
,200,2023-10-27 11:39:27.18,399,56,-1969,-146,162,-480,321,-698,1019,188
,201,2023-10-27 11:39:27.19,437,14,-2038,-172,155,-472,368,-525,893,78
,202,2023-10-27 11:39:27.20,452,-35,-2122,-161,187,-482,522,-596,1118,37
,203,2023-10-27 11:39:27.21,422,-84,-2133,-132,221,-496,463,-429,892,-17
,204,2023-10-27 11:39:27.22,406,-161,-2090,-73,222,-514,500,-512,1012,6
,205,2023-10-27 11:39:27.23,375,-229,-2100,14,216,-526,433,-404,837,-14
,206,2023-10-27 11:39:27.24,403,-256,-2173,95,202,-530,523,-494,1017,-14
,207,2023-10-27 11:39:27.25,403,-262,-2217,195,186,-540,429,-380,809,-24
,208,2023-10-27 11:39:27.26,427,-250,-2116,325,170,-564,512,-501,1013,-5
,209,2023-10-27 11:39:27.27,431,-239,-2051,461,183,-606,446,-390,836,-28
,210,2023-10-27 11:39:27.28,448,-319,-2007,576,200,-642,520,-483,1003,-18
,211,2023-10-27 11:39:27.29,411,-369,-1966,670,251,-690,396,-434,830,19
,212,2023-10-27 11:39:27.30,384,-347,-1974,772,258,-715,461,-604,1065,71
,213,2023-10-27 11:39:27.31,420,-311,-1967,874,256,-731,408,-501,909,46
,214,2023-10-27 11:39:27.32,413,-344,-1957,947,253,-758,492,-569,1061,38
,215,2023-10-27 11:39:27.33,398,-359,-1956,979,247,-778,354,-446,800,46
,216,2023-10-27 11:39:27.34,455,-373,-1972,997,260,-781,414,-581,995,83
,217,2023-10-27 11:39:27.35,448,-342,-1953,1006,288,-793,348,-491,839,71
,218,2023-10-27 11:39:27.36,452,-433,-2018,1013,293,-780,430,-592,1022,81
,219,2023-10-27 11:39:27.37,440,-430,-2069,979,244,-725,263,-497,760,117
,220,2023-10-27 11:39:27.38,398,-379,-2035,944,200,-690,313,-608,921,147
,221,2023-10-27 11:39:27.39,386,-408,-2012,879,174,-651,226,-520,746,147
,222,2023-10-27 11:39:27.40,407,-504,-2029,813,168,-619,263,-614,877,175
,223,2023-10-27 11:39:27.41,441,-406,-2034,739,179,-575,144,-544,688,200
,224,2023-10-27 11:39:27.42,363,-426,-1975,664,102,-544,254,-686,940,216
,225,2023-10-27 11:39:27.43,417,-426,-1997,595,73,-493,171,-626,797,227
,226,2023-10-27 11:39:27.44,384,-425,-2020,517,45,-450,276,-709,985,216
,227,2023-10-27 11:39:27.45,371,-427,-2014,444,-12,-399,197,-586,783,194
,228,2023-10-27 11:39:27.46,343,-405,-2018,364,-77,-350,338,-683,1021,172
,229,2023-10-27 11:39:27.47,326,-397,-2028,287,-136,-297,235,-592,827,178
,230,2023-10-27 11:39:27.48,334,-386,-2033,217,-192,-246,357,-645,1002,144
,231,2023-10-27 11:39:27.49,329,-382,-2001,136,-240,-201,264,-532,796,134
,232,2023-10-27 11:39:27.50,307,-332,-2012,52,-267,-164,403,-588,991,92
,233,2023-10-27 11:39:27.51,333,-301,-2031,-41,-275,-135,274,-509,783,117
,234,2023-10-27 11:39:27.52,315,-297,-2002,-117,-285,-122,422,-568,990,73
,235,2023-10-27 11:39:27.53,302,-276,-2051,-187,-290,-115,335,-471,806,68
,236,2023-10-27 11:39:27.54,356,-239,-2132,-291,-257,-112,484,-526,1010,21
,237,2023-10-27 11:39:27.55,295,-244,-2126,-406,-258,-117,364,-431,795,33
,238,2023-10-27 11:39:27.56,320,-267,-2079,-496,-239,-121,506,-462,968,-22
,239,2023-10-27 11:39:27.57,298,-257,-2025,-545,-239,-123,378,-421,799,21
,240,2023-10-27 11:39:27.58,307,-230,-2028,-569,-253,-123,503,-506,1009,1
,241,2023-10-27 11:39:27.59,273,-237,-2020,-584,-284,-120,375,-471,846,48
,242,2023-10-27 11:39:27.60,294,-245,-2022,-581,-288,-121,513,-506,1019,-3
,243,2023-10-27 11:39:27.61,263,-221,-2009,-551,-304,-120,382,-442,824,30
,244,2023-10-27 11:39:27.62,249,-215,-2034,-516,-309,-118,509,-452,961,-28
,245,2023-10-27 11:39:27.63,270,-200,-2045,-489,-300,-116,374,-407,781,16
,246,2023-10-27 11:39:27.64,250,-178,-2053,-473,-274,-112,506,-468,974,-19
,247,2023-10-27 11:39:27.65,260,-140,-2057,-438,-267,-107,386,-427,813,20
,248,2023-10-27 11:39:27.66,263,-143,-2067,-401,-252,-105,503,-472,975,-15
,249,2023-10-27 11:39:27.67,275,-132,-2070,-361,-246,-97,354,-419,773,32
,250,2023-10-27 11:39:27.68,296,-122,-2074,-321,-227,-92,474,-437,911,-18
,251,2023-10-27 11:39:27.69,292,-122,-2058,-277,-211,-87,359,-389,748,15
,252,2023-10-27 11:39:27.70,298,-115,-2023,-242,-174,-80,492,-432,924,-30
,253,2023-10-27 11:39:27.71,286,-123,-1989,-199,-154,-66,345,-433,778,44
,254,2023-10-27 11:39:27.72,304,-138,-2003,-147,-124,-48,438,-495,933,28
,255,2023-10-27 11:39:27.73,288,-136,-2020,-97,-88,-32,281,-478,759,98
,256,2023-10-27 11:39:27.74,304,-160,-2020,-49,-60,-8,397,-506,903,54
,257,2023-10-27 11:39:27.75,311,-160,-2057,-9,-27,19,282,-498,780,108
,258,2023-10-27 11:39:27.76,295,-184,-2037,30,2,47,384,-517,901,66
,259,2023-10-27 11:39:27.77,334,-167,-1991,75,24,84,229,-505,734,138
,260,2023-10-27 11:39:27.78,331,-161,-1970,115,38,125,305,-522,827,108
,261,2023-10-27 11:39:27.79,316,-194,-2008,146,40,161,169,-509,678,170
,262,2023-10-27 11:39:27.80,340,-204,-2018,169,72,201,242,-536,778,147
,263,2023-10-27 11:39:27.81,327,-219,-2008,195,106,234,117,-543,660,213
,264,2023-10-27 11:39:27.82,328,-249,-2023,226,128,267,217,-558,775,170
,265,2023-10-27 11:39:27.83,336,-265,-2005,260,137,297,122,-566,688,222
,266,2023-10-27 11:39:27.84,342,-242,-1992,297,152,324,215,-579,794,182
,267,2023-10-27 11:39:27.85,325,-250,-2027,323,171,339,87,-599,686,256
,268,2023-10-27 11:39:27.86,325,-282,-2036,344,169,362,198,-611,809,206
,269,2023-10-27 11:39:27.87,322,-293,-2054,357,174,377,64,-628,692,282
,270,2023-10-27 11:39:27.88,328,-308,-2053,357,170,399,168,-615,783,223
,271,2023-10-27 11:39:27.89,337,-301,-2062,345,171,421,43,-630,673,293
,272,2023-10-27 11:39:27.90,359,-288,-2066,322,184,440,144,-619,763,237
,273,2023-10-27 11:39:27.91,335,-312,-2026,297,171,455,25,-636,661,305
,274,2023-10-27 11:39:27.92,349,-322,-2017,282,164,482,116,-625,741,254
,275,2023-10-27 11:39:27.93,332,-350,-2009,260,170,493,-17,-649,632,333
,276,2023-10-27 11:39:27.94,312,-391,-1999,255,161,509,80,-612,692,266
,277,2023-10-27 11:39:27.95,311,-394,-2036,256,152,534,-18,-644,626,331
,278,2023-10-27 11:39:27.96,309,-396,-2031,249,122,560,75,-609,684,267
,279,2023-10-27 11:39:27.97,342,-382,-1994,247,102,580,-19,-624,605,321
,280,2023-10-27 11:39:27.98,335,-353,-2013,239,105,587,88,-587,675,249
,281,2023-10-27 11:39:27.99,304,-373,-2021,225,54,597,-20,-644,624,332
,282,2023-10-27 11:39:28.00,384,-357,-1986,220,44,621,77,-606,683,264
,283,2023-10-27 11:39:28.01,315,-427,-2040,188,91,615,-49,-654,605,351
,284,2023-10-27 11:39:28.02,280,-426,-2033,135,110,630,55,-602,657,273
,285,2023-10-27 11:39:28.03,271,-482,-2003,136,65,668,-45,-648,603,346
,286,2023-10-27 11:39:28.04,305,-548,-1993,171,40,711,57,-591,648,267
,287,2023-10-27 11:39:28.05,280,-582,-1997,208,30,771,-68,-644,576,356
,288,2023-10-27 11:39:28.06,272,-634,-2011,226,9,857,26,-582,608,278
,289,2023-10-27 11:39:28.07,270,-678,-2005,231,-17,963,-53,-623,570,338
,290,2023-10-27 11:39:28.08,325,-682,-2015,214,25,1091,68,-535,603,233
,291,2023-10-27 11:39:28.09,335,-704,-1973,195,45,1218,-19,-590,571,304
,292,2023-10-27 11:39:28.10,347,-715,-1919,196,71,1345,108,-509,617,200
,293,2023-10-27 11:39:28.11,356,-697,-1901,209,114,1462,14,-563,577,274
,294,2023-10-27 11:39:28.12,375,-662,-1922,210,155,1579,126,-478,604,176
,295,2023-10-27 11:39:28.13,367,-639,-1929,181,214,1689,48,-540,588,246
,296,2023-10-27 11:39:28.14,362,-618,-1864,141,268,1783,149,-446,595,148
,297,2023-10-27 11:39:28.15,348,-626,-1737,152,272,1881,84,-527,611,221
,298,2023-10-27 11:39:28.16,425,-622,-1857,181,336,1972,188,-441,629,126
,299,2023-10-27 11:39:28.17,458,-438,-1874,159,427,2039,87,-520,607,216
,300,2023-10-27 11:39:28.18,363,-531,-1894,94,471,2096,180,-434,614,127
,301,2023-10-27 11:39:28.19,461,-604,-1781,32,536,2174,86,-541,627,227
,302,2023-10-27 11:39:28.20,469,-613,-1798,47,593,2237,178,-445,623,133
,303,2023-10-27 11:39:28.21,441,-667,-1917,78,649,2312,91,-525,616,217
,304,2023-10-27 11:39:28.22,462,-682,-1967,59,711,2397,180,-423,603,121
,305,2023-10-27 11:39:28.23,477,-1051,-2078,20,766,2490,71,-518,589,223
,306,2023-10-27 11:39:28.24,409,-707,-1941,28,774,2595,148,-424,572,138
,307,2023-10-27 11:39:28.25,558,-761,-1927,-19,846,2701,45,-531,576,243
,308,2023-10-27 11:39:28.26,517,-730,-1871,-35,892,2788,129,-430,559,150
,309,2023-10-27 11:39:28.27,530,-687,-1890,-37,931,2870,26,-543,569,258
,310,2023-10-27 11:39:28.28,544,-669,-1942,-55,959,2949,114,-440,554,163
,311,2023-10-27 11:39:28.29,549,-527,-1903,-88,1001,3016,38,-551,589,256
,312,2023-10-27 11:39:28.30,576,-637,-1936,-128,1004,3063,122,-435,557,156
,313,2023-10-27 11:39:28.31,589,-587,-1981,-208,1078,3102,56,-507,563,225
,314,2023-10-27 11:39:28.32,547,-600,-1868,-264,1085,3130,160,-380,540,110
,315,2023-10-27 11:39:28.33,606,-600,-1873,-257,1066,3168,91,-482,573,195
,316,2023-10-27 11:39:28.34,605,-547,-1946,-269,1069,3177,173,-371,544,99
,317,2023-10-27 11:39:28.35,622,-339,-1793,-313,1125,3169,119,-470,589,175
,318,2023-10-27 11:39:28.36,622,-502,-1909,-393,1123,3143,210,-337,547,63
,319,2023-10-27 11:39:28.37,615,-544,-1889,-497,1185,3122,146,-419,565,136
,320,2023-10-27 11:39:28.38,646,-687,-1928,-515,1204,3069,217,-297,514,40
,321,2023-10-27 11:39:28.39,576,-424,-1921,-482,1140,3010,147,-394,541,123
,322,2023-10-27 11:39:28.40,619,-418,-1968,-551,1125,2936,188,-285,473,48
,323,2023-10-27 11:39:28.41,584,-381,-1986,-619,1085,2848,110,-389,499,139
,324,2023-10-27 11:39:28.42,604,-368,-2005,-692,1086,2752,173,-274,447,50
,325,2023-10-27 11:39:28.43,545,-351,-1954,-733,1039,2635,91,-383,474,146
,326,2023-10-27 11:39:28.44,499,-365,-1995,-776,980,2509,152,-279,431,63
,327,2023-10-27 11:39:28.45,497,-373,-2036,-803,890,2388,92,-393,485,150
,328,2023-10-27 11:39:28.46,474,-374,-2058,-818,801,2263,143,-285,428,71
,329,2023-10-27 11:39:28.47,475,-370,-2070,-835,720,2136,64,-398,462,167
,330,2023-10-27 11:39:28.48,455,-370,-2076,-856,651,2006,118,-293,411,87
,331,2023-10-27 11:39:28.49,435,-361,-2076,-865,574,1874,64,-427,491,181
,332,2023-10-27 11:39:28.50,393,-334,-2057,-856,481,1734,117,-329,446,106
,333,2023-10-27 11:39:28.51,382,-293,-2049,-845,399,1591,36,-465,501,214
,334,2023-10-27 11:39:28.52,347,-293,-2064,-837,328,1446,76,-367,443,145
,335,2023-10-27 11:39:28.53,338,-324,-2077,-841,262,1311,11,-498,509,243
,336,2023-10-27 11:39:28.54,317,-330,-2079,-844,228,1187,59,-393,452,167
,337,2023-10-27 11:39:28.55,323,-322,-2031,-842,187,1069,-16,-542,526,279
,338,2023-10-27 11:39:28.56,305,-321,-2012,-842,161,964,38,-446,484,204
,339,2023-10-27 11:39:28.57,285,-336,-2007,-859,161,866,-7,-609,602,308
,340,2023-10-27 11:39:28.58,277,-359,-2014,-871,173,773,50,-502,552,226
,341,2023-10-27 11:39:28.59,272,-367,-2034,-872,184,689,-4,-646,642,325
,342,2023-10-27 11:39:28.60,250,-378,-2031,-861,194,611,49,-528,577,239
,343,2023-10-27 11:39:28.61,253,-355,-2018,-843,207,543,-6,-676,670,341
,344,2023-10-27 11:39:28.62,245,-345,-2002,-816,227,474,38,-558,596,260
,345,2023-10-27 11:39:28.63,255,-343,-2030,-777,248,404,-27,-706,679,366
,346,2023-10-27 11:39:28.64,241,-342,-2054,-742,267,346,10,-586,596,288
,347,2023-10-27 11:39:28.65,228,-337,-2074,-705,270,301,-40,-723,683,381
,348,2023-10-27 11:39:28.66,194,-352,-2079,-651,267,266,8,-589,597,290
,349,2023-10-27 11:39:28.67,198,-374,-2091,-580,230,243,-10,-714,704,362
,350,2023-10-27 11:39:28.68,191,-375,-2117,-523,174,233,44,-575,619,265
,351,2023-10-27 11:39:28.69,209,-282,-2082,-468,115,221,-7,-702,695,354
,352,2023-10-27 11:39:28.70,240,-209,-2040,-426,86,199,15,-578,593,281
,353,2023-10-27 11:39:28.71,247,-196,-2013,-432,90,165,-31,-712,681,371
,354,2023-10-27 11:39:28.72,257,-203,-1976,-454,112,141,-1,-591,590,296
,355,2023-10-27 11:39:28.73,267,-231,-1962,-463,141,122,-53,-727,674,390
,356,2023-10-27 11:39:28.74,281,-253,-1965,-460,172,113,-36,-602,566,319
,357,2023-10-27 11:39:28.75,282,-246,-1957,-446,180,113,-95,-745,650,420
,358,2023-10-27 11:39:28.76,285,-262,-1970,-435,193,117,-78,-631,553,354
,359,2023-10-27 11:39:28.77,295,-229,-1981,-424,204,128,-164,-773,609,468
,360,2023-10-27 11:39:28.78,328,-180,-1975,-435,217,138,-145,-655,510,400
,361,2023-10-27 11:39:28.79,368,-182,-1969,-455,222,148,-191,-800,609,495
,362,2023-10-27 11:39:28.80,414,-173,-1958,-470,252,169,-164,-686,522,425
,363,2023-10-27 11:39:28.81,410,-160,-1963,-466,278,172,-226,-816,590,521
,364,2023-10-27 11:39:28.82,444,-137,-1942,-462,284,182,-180,-693,513,436
,365,2023-10-27 11:39:28.83,440,-131,-1980,-468,291,192,-209,-808,599,508
,366,2023-10-27 11:39:28.84,460,-107,-1976,-478,298,214,-162,-680,518,421
,367,2023-10-27 11:39:28.85,479,-101,-1967,-488,314,233,-179,-790,611,484
,368,2023-10-27 11:39:28.86,511,-81,-1978,-496,327,253,-146,-663,517,404
,369,2023-10-27 11:39:28.87,557,-113,-1922,-494,341,277,-174,-795,621,484
,370,2023-10-27 11:39:28.88,561,-75,-1929,-462,355,294,-143,-674,531,408
,371,2023-10-27 11:39:28.89,588,-56,-1919,-424,351,315,-159,-778,619,468
,372,2023-10-27 11:39:28.90,609,-34,-1881,-390,361,328,-129,-652,523,390
,373,2023-10-27 11:39:28.91,602,5,-1887,-375,383,333,-147,-763,616,455
,374,2023-10-27 11:39:28.92,612,5,-1928,-378,402,340,-117,-645,528,381
,375,2023-10-27 11:39:28.93,629,67,-1929,-371,399,345,-129,-774,645,451
,376,2023-10-27 11:39:28.94,634,98,-1942,-358,381,335,-107,-668,561,387
,377,2023-10-27 11:39:28.95,645,104,-1957,-372,376,336,-92,-775,683,433
,378,2023-10-27 11:39:28.96,675,100,-1974,-392,358,332,-84,-659,575,371
,379,2023-10-27 11:39:28.97,702,89,-1945,-401,338,332,-111,-764,653,437
,380,2023-10-27 11:39:28.98,751,77,-1899,-378,336,327,-115,-662,547,388
,381,2023-10-27 11:39:28.99,748,70,-1910,-344,338,320,-122,-759,637,440
,382,2023-10-27 11:39:29.00,756,88,-1917,-308,343,309,-123,-658,535,390
,383,2023-10-27 11:39:29.01,763,119,-1936,-286,337,292,-139,-767,628,453
,384,2023-10-27 11:39:29.02,768,144,-1963,-270,334,275,-161,-666,505,413
,385,2023-10-27 11:39:29.03,772,156,-2003,-259,328,258,-163,-760,597,461
,386,2023-10-27 11:39:29.04,784,173,-2022,-249,298,234,-157,-666,509,411
,387,2023-10-27 11:39:29.05,779,169,-2038,-248,262,208,-173,-775,602,474
,388,2023-10-27 11:39:29.06,785,188,-2051,-240,223,188,-178,-682,504,430
,389,2023-10-27 11:39:29.07,805,219,-2056,-217,180,158,-174,-792,618,483
,390,2023-10-27 11:39:29.08,831,267,-2015,-187,124,120,-192,-707,515,449
,391,2023-10-27 11:39:29.09,845,287,-2029,-131,68,58,-190,-799,609,494
,392,2023-10-27 11:39:29.10,813,254,-2086,-39,-25,-9,-219,-704,485,461
,393,2023-10-27 11:39:29.11,753,228,-2174,70,-132,-69,-213,-806,593,509
,394,2023-10-27 11:39:29.12,746,216,-2188,148,-274,-124,-191,-709,518,450
,395,2023-10-27 11:39:29.13,764,226,-2164,192,-387,-178,-157,-782,625,469
,396,2023-10-27 11:39:29.14,774,250,-2154,211,-455,-237,-155,-700,545,427
,397,2023-10-27 11:39:29.15,751,219,-2135,210,-490,-297,-109,-788,679,448
,398,2023-10-27 11:39:29.16,747,166,-2148,210,-531,-324,-122,-716,594,419
,399,2023-10-27 11:39:29.17,755,93,-2146,227,-575,-315,-85,-789,704,437
,400,2023-10-27 11:39:29.18,744,48,-2063,247,-598,-288,-107,-703,596,405
,401,2023-10-27 11:39:29.19,699,27,-2004,247,-570,-240,-50,-773,723,411
,402,2023-10-27 11:39:29.20,671,-27,-1980,244,-520,-179,-82,-674,592,378
,403,2023-10-27 11:39:29.21,622,-64,-1957,261,-482,-103,-18,-727,709,372
,404,2023-10-27 11:39:29.22,569,-60,-1943,286,-445,-16,-23,-648,625,335
,405,2023-10-27 11:39:29.23,561,-45,-1907,303,-426,67,16,-699,715,341
,406,2023-10-27 11:39:29.24,551,-16,-1871,304,-395,150,-8,-623,615,315
,407,2023-10-27 11:39:29.25,537,-28,-1875,295,-341,222,77,-654,731,288
,408,2023-10-27 11:39:29.26,548,-30,-1854,281,-276,287,62,-593,655,265
,409,2023-10-27 11:39:29.27,525,-22,-1842,272,-218,334,132,-629,761,248
,410,2023-10-27 11:39:29.28,491,-5,-1841,257,-169,361,73,-578,651,252
,411,2023-10-27 11:39:29.29,461,57,-1874,225,-133,372,149,-643,792,247
,412,2023-10-27 11:39:29.30,453,71,-1915,189,-112,371,75,-579,654,252
,413,2023-10-27 11:39:29.31,458,72,-1954,155,-109,351,157,-594,751,218
,414,2023-10-27 11:39:29.32,451,98,-1944,112,-111,326,103,-517,620,207
,415,2023-10-27 11:39:29.33,472,103,-1938,78,-122,277,226,-507,733,140
,416,2023-10-27 11:39:29.34,493,103,-1966,42,-114,225,182,-463,645,140
,417,2023-10-27 11:39:29.35,481,83,-1933,16,-115,170,290,-472,762,91
,418,2023-10-27 11:39:29.36,463,120,-1933,-15,-99,108,246,-443,689,98
,419,2023-10-27 11:39:29.37,464,132,-1965,-51,-84,44,362,-443,805,40
,420,2023-10-27 11:39:29.38,457,119,-1994,-70,-87,-17,301,-388,689,43
,421,2023-10-27 11:39:29.39,451,119,-2001,-102,-86,-80,370,-389,759,9
,422,2023-10-27 11:39:29.40,448,135,-2008,-140,-88,-133,304,-395,699,45
,423,2023-10-27 11:39:29.41,441,118,-2044,-176,-85,-169,408,-403,811,-2
,424,2023-10-27 11:39:29.42,448,119,-2038,-198,-90,-200,339,-393,732,27
,425,2023-10-27 11:39:29.43,459,129,-2022,-227,-116,-251,389,-389,778,0
,426,2023-10-27 11:39:29.44,445,140,-2030,-243,-115,-272,268,-387,655,59
,427,2023-10-27 11:39:29.45,448,149,-2001,-269,-110,-293,349,-383,732,17
,428,2023-10-27 11:39:29.46,443,174,-1990,-292,-101,-311,254,-386,640,66
,429,2023-10-27 11:39:29.47,448,183,-1988,-300,-95,-332,332,-384,716,26
,430,2023-10-27 11:39:29.48,452,213,-1996,-298,-97,-344,214,-417,631,101
,431,2023-10-27 11:39:29.49,453,238,-1980,-295,-88,-360,367,-411,778,22
,432,2023-10-27 11:39:29.50,461,238,-1995,-293,-72,-380,289,-423,712,67
,433,2023-10-27 11:39:29.51,470,229,-2011,-290,-65,-404,370,-382,752,6
,434,2023-10-27 11:39:29.52,463,271,-2028,-285,-51,-423,233,-397,630,82
,435,2023-10-27 11:39:29.53,468,299,-2026,-272,-44,-439,312,-355,667,21
,436,2023-10-27 11:39:29.54,465,277,-2017,-263,-45,-459,220,-424,644,102
,437,2023-10-27 11:39:29.55,466,283,-2023,-250,-53,-481,274,-447,721,86
,438,2023-10-27 11:39:29.56,461,334,-2027,-228,-46,-507,196,-482,678,143
,439,2023-10-27 11:39:29.57,459,364,-2017,-215,-39,-535,297,-400,697,51
,440,2023-10-27 11:39:29.58,460,380,-2060,-200,-40,-566,242,-390,632,74
,441,2023-10-27 11:39:29.59,457,347,-2089,-194,-51,-587,352,-344,696,-4
,442,2023-10-27 11:39:29.60,471,369,-2111,-190,-64,-599,210,-448,658,119
,443,2023-10-27 11:39:29.61,478,359,-2112,-175,-79,-604,291,-404,695,56
,444,2023-10-27 11:39:29.62,488,378,-2097,-159,-95,-614,216,-460,676,122
,445,2023-10-27 11:39:29.63,505,385,-2102,-146,-96,-630,336,-427,763,45
,446,2023-10-27 11:39:29.64,514,395,-2076,-133,-89,-652,280,-478,758,99
,447,2023-10-27 11:39:29.65,488,402,-2057,-124,-59,-685,365,-379,744,7
,448,2023-10-27 11:39:29.66,448,391,-2056,-122,-34,-702,296,-435,731,69
,449,2023-10-27 11:39:29.67,422,317,-2086,-102,-30,-700,389,-366,755,-11
,450,2023-10-27 11:39:29.68,403,248,-2111,-53,-51,-678,303,-418,721,57
,451,2023-10-27 11:39:29.69,405,229,-2105,14,-83,-644,384,-358,742,-13
,452,2023-10-27 11:39:29.70,437,255,-2069,79,-111,-604,258,-465,723,103
,453,2023-10-27 11:39:29.71,440,296,-2038,145,-127,-575,334,-412,746,39
,454,2023-10-27 11:39:29.72,428,312,-2040,191,-122,-557,208,-449,657,120
,455,2023-10-27 11:39:29.73,408,294,-2038,206,-113,-547,312,-331,643,9
,456,2023-10-27 11:39:29.74,398,243,-2035,213,-91,-536,248,-393,641,72
,457,2023-10-27 11:39:29.75,384,200,-2026,232,-78,-509,353,-332,685,-10
,458,2023-10-27 11:39:29.76,381,190,-1980,269,-84,-484,248,-425,673,88
,459,2023-10-27 11:39:29.77,406,199,-1964,319,-99,-465,312,-320,632,4
,460,2023-10-27 11:39:29.78,385,195,-1951,356,-114,-444,214,-403,617,94
,461,2023-10-27 11:39:29.79,392,188,-1977,363,-113,-428,286,-324,610,19
,462,2023-10-27 11:39:29.80,405,200,-1993,356,-107,-411,216,-402,618,93
,463,2023-10-27 11:39:29.81,403,192,-1986,337,-88,-396,311,-292,603,-9
,464,2023-10-27 11:39:29.82,422,166,-1970,319,-59,-374,222,-369,591,73
,465,2023-10-27 11:39:29.83,408,127,-1956,314,-37,-344,300,-267,567,-16
,466,2023-10-27 11:39:29.84,416,70,-1949,319,-32,-305,188,-371,559,91
,467,2023-10-27 11:39:29.85,413,10,-1971,340,-21,-254,272,-278,550,3
,468,2023-10-27 11:39:29.86,425,47,-1950,387,2,-204,188,-333,521,72
,469,2023-10-27 11:39:29.87,447,59,-1948,421,21,-142,264,-211,475,-26
,470,2023-10-27 11:39:29.88,456,74,-1973,434,45,-89,144,-294,438,75
,471,2023-10-27 11:39:29.89,459,71,-1988,438,85,-36,203,-192,395,-5
,472,2023-10-27 11:39:29.90,438,56,-1989,430,127,17,137,-289,426,76
,473,2023-10-27 11:39:29.91,446,-7,-2012,419,159,79,248,-200,448,-24
,474,2023-10-27 11:39:29.92,438,-37,-2034,430,179,145,207,-280,487,36
,475,2023-10-27 11:39:29.93,462,-42,-2015,459,187,213,280,-156,436,-62
,476,2023-10-27 11:39:29.94,466,-19,-2023,480,189,273,178,-258,436,40
,477,2023-10-27 11:39:29.95,463,2,-2030,482,209,328,260,-161,421,-49
,478,2023-10-27 11:39:29.96,479,-10,-2033,478,232,376,250,-230,480,-10
,479,2023-10-27 11:39:29.97,484,-12,-2017,481,254,413,362,-104,466,-129
,480,2023-10-27 11:39:29.98,485,-45,-2023,482,271,450,275,-223,498,-26
,481,2023-10-27 11:39:29.99,474,-47,-2042,479,285,484,327,-129,456,-99
,482,2023-10-27 11:39:30.00,502,-56,-2059,475,284,517,282,-230,512,-26
,483,2023-10-27 11:39:30.01,513,-46,-2071,472,285,539,352,-118,470,-117
,484,2023-10-27 11:39:30.02,515,-8,-2061,461,278,553,328,-216,544,-56
,485,2023-10-27 11:39:30.03,530,-27,-2049,434,262,552,413,-114,527,-149
,486,2023-10-27 11:39:30.04,523,-29,-2045,415,264,544,438,-174,612,-132
,487,2023-10-27 11:39:30.05,510,-18,-2034,397,256,523,503,-40,543,-231
,488,2023-10-27 11:39:30.06,501,-32,-2044,373,236,499,483,-152,635,-165
,489,2023-10-27 11:39:30.07,497,-56,-2073,352,209,469,488,-90,578,-199
,490,2023-10-27 11:39:30.08,502,-61,-2073,330,178,445,466,-216,682,-125
,491,2023-10-27 11:39:30.09,526,-69,-2032,324,150,415,482,-112,594,-185
,492,2023-10-27 11:39:30.10,510,-83,-2036,322,117,378,424,-213,637,-105
,493,2023-10-27 11:39:30.11,503,-103,-2032,318,101,344,416,-127,543,-144
,494,2023-10-27 11:39:30.12,499,-110,-2019,321,92,308,365,-254,619,-55
,495,2023-10-27 11:39:30.13,462,-143,-2030,312,71,285,361,-174,535,-93
,496,2023-10-27 11:39:30.14,461,-170,-2034,305,43,278,288,-312,600,12
,497,2023-10-27 11:39:30.15,471,-228,-2048,300,-1,287,276,-215,491,-30
,498,2023-10-27 11:39:30.16,488,-275,-2034,318,-48,307,166,-345,511,89
,499,2023-10-27 11:39:30.17,489,-258,-2019,328,-45,323,164,-249,413,42
,500,2023-10-27 11:39:30.18,489,-271,-1990,325,-57,334,106,-406,512,150
,501,2023-10-27 11:39:30.19,486,-259,-1982,306,-62,347,114,-325,439,105
,502,2023-10-27 11:39:30.20,466,-275,-1988,277,-49,357,49,-474,523,212
,503,2023-10-27 11:39:30.21,445,-312,-1987,258,-49,369,58,-400,458,171
,504,2023-10-27 11:39:30.22,412,-327,-2005,238,-35,382,-20,-557,537,288
,505,2023-10-27 11:39:30.23,404,-340,-2028,216,-57,396,7,-458,465,225
,506,2023-10-27 11:39:30.24,431,-359,-2014,203,-88,413,-77,-621,544,349
,507,2023-10-27 11:39:30.25,396,-380,-1998,196,-86,430,-34,-525,491,279
,508,2023-10-27 11:39:30.26,417,-379,-1975,199,-73,440,-81,-679,598,380
,509,2023-10-27 11:39:30.27,369,-358,-1985,195,-64,439,-30,-551,521,290
,510,2023-10-27 11:39:30.28,362,-344,-2012,182,-72,437,-74,-698,624,386
,511,2023-10-27 11:39:30.29,347,-341,-2036,153,-97,434,-30,-570,540,300
,512,2023-10-27 11:39:30.30,331,-354,-2031,125,-104,438,-63,-682,619,372
,513,2023-10-27 11:39:30.31,334,-369,-2012,109,-110,439,-15,-534,519,274
,514,2023-10-27 11:39:30.32,318,-403,-2009,88,-106,434,-63,-655,592,359
,515,2023-10-27 11:39:30.33,320,-382,-1999,63,-111,433,-17,-501,484,259
,516,2023-10-27 11:39:30.34,329,-381,-1995,42,-103,426,-28,-611,583,319
,517,2023-10-27 11:39:30.35,339,-380,-1969,28,-88,418,-3,-481,478,242
,518,2023-10-27 11:39:30.36,320,-359,-1949,20,-63,410,-55,-606,551,330
,519,2023-10-27 11:39:30.37,296,-380,-1964,1,-55,393,-36,-490,454,263
,520,2023-10-27 11:39:30.38,324,-371,-1943,-17,-53,385,-93,-636,543,364
,521,2023-10-27 11:39:30.39,338,-381,-1923,-16,-31,377,-68,-530,462,299
,522,2023-10-27 11:39:30.40,322,-397,-1924,-14,9,366,-113,-672,559,392
,523,2023-10-27 11:39:30.41,285,-386,-1961,-26,33,358,-100,-567,467,333
,524,2023-10-27 11:39:30.42,303,-375,-1944,-35,9,355,-138,-728,590,433
,525,2023-10-27 11:39:30.43,286,-373,-1991,-52,16,350,-106,-624,518,365
,526,2023-10-27 11:39:30.44,275,-362,-2016,-64,-6,344,-110,-729,619,419
,527,2023-10-27 11:39:30.45,300,-345,-2002,-71,-20,336,-80,-587,507,333
,528,2023-10-27 11:39:30.46,318,-334,-1974,-80,-23,308,-85,-720,635,402
,529,2023-10-27 11:39:30.47,340,-336,-1970,-92,11,284,-73,-601,528,337
,530,2023-10-27 11:39:30.48,329,-365,-1968,-98,53,257,-71,-714,643,392
,531,2023-10-27 11:39:30.49,310,-395,-1970,-83,61,229,-52,-579,527,315
,532,2023-10-27 11:39:30.50,326,-394,-2030,-46,47,209,-80,-685,605,382
,533,2023-10-27 11:39:30.51,323,-351,-2041,-7,10,192,-65,-578,513,321
,534,2023-10-27 11:39:30.52,327,-325,-2010,0,-21,169,-62,-688,626,375
,535,2023-10-27 11:39:30.53,332,-279,-1997,-14,-10,133,-36,-561,525,298
,536,2023-10-27 11:39:30.54,324,-306,-2003,-45,-22,95,-21,-672,651,346
,537,2023-10-27 11:39:30.55,349,-308,-2021,-73,-16,65,-16,-552,536,284
,538,2023-10-27 11:39:30.56,344,-325,-2005,-76,-27,46,-5,-640,635,322
,539,2023-10-27 11:39:30.57,384,-327,-2000,-93,-19,35,-24,-543,519,283
,540,2023-10-27 11:39:30.58,340,-361,-2015,-111,-19,35,-10,-665,655,337
,541,2023-10-27 11:39:30.59,356,-358,-2029,-133,11,42,-10,-567,557,288
,542,2023-10-27 11:39:30.60,357,-358,-2002,-141,22,55,-2,-656,654,329
,543,2023-10-27 11:39:30.61,363,-374,-1970,-130,12,82,-13,-554,541,283
,544,2023-10-27 11:39:30.62,342,-378,-1982,-125,18,110,16,-652,668,318
,545,2023-10-27 11:39:30.63,363,-389,-1979,-119,20,136,-9,-558,549,283
,546,2023-10-27 11:39:30.64,361,-364,-1971,-107,42,165,5,-640,645,317
,547,2023-10-27 11:39:30.65,385,-342,-1981,-92,47,185,-30,-550,520,290
,548,2023-10-27 11:39:30.66,386,-331,-1975,-82,54,210,6,-648,654,321
,549,2023-10-27 11:39:30.67,377,-287,-1979,-75,81,219,-14,-580,566,297
,550,2023-10-27 11:39:30.68,377,-265,-1996,-90,86,224,12,-672,684,330
,551,2023-10-27 11:39:30.69,364,-254,-2014,-112,95,230,-19,-582,563,300
,552,2023-10-27 11:39:30.70,399,-257,-2045,-128,96,235,60,-658,718,299
,553,2023-10-27 11:39:30.71,396,-227,-2048,-142,107,235,44,-555,599,255
,554,2023-10-27 11:39:30.72,408,-204,-2036,-152,105,235,84,-600,684,258
,555,2023-10-27 11:39:30.73,406,-224,-2045,-163,100,232,8,-523,531,257
,556,2023-10-27 11:39:30.74,422,-213,-2038,-162,102,236,53,-593,646,270
,557,2023-10-27 11:39:30.75,429,-203,-2034,-150,112,231,20,-528,548,254
,558,2023-10-27 11:39:30.76,415,-192,-2061,-147,107,230,92,-583,675,245
,559,2023-10-27 11:39:30.77,432,-202,-2113,-164,92,245,31,-525,556,247
,560,2023-10-27 11:39:30.78,410,-161,-2075,-135,73,251,78,-585,663,253
,561,2023-10-27 11:39:30.79,400,-168,-2064,-102,55,253,27,-524,551,248
,562,2023-10-27 11:39:30.80,419,-185,-2053,-81,22,257,88,-581,669,246
,563,2023-10-27 11:39:30.81,430,-152,-2029,-41,6,251,19,-535,554,258
,564,2023-10-27 11:39:30.82,420,-131,-2006,-7,13,236,92,-572,664,240
,565,2023-10-27 11:39:30.83,416,-103,-2007,22,16,209,15,-524,539,254
,566,2023-10-27 11:39:30.84,401,-86,-2007,39,11,181,24,-590,614,283
,567,2023-10-27 11:39:30.85,409,-78,-2000,47,14,148,-40,-561,521,300
,568,2023-10-27 11:39:30.86,410,-84,-1989,62,11,120,33,-609,642,288
,569,2023-10-27 11:39:30.87,404,-100,-1988,80,11,85,-58,-585,527,321
,570,2023-10-27 11:39:30.88,428,-123,-2010,106,23,46,6,-630,636,312
,571,2023-10-27 11:39:30.89,417,-112,-2027,150,25,13,-64,-602,538,333
,572,2023-10-27 11:39:30.90,420,-101,-2002,192,2,-23,-3,-651,648,327
,573,2023-10-27 11:39:30.91,428,-110,-1967,207,-12,-58,-96,-634,538,365
,574,2023-10-27 11:39:30.92,395,-66,-1945,208,-18,-92,-31,-670,639,350
,575,2023-10-27 11:39:30.93,394,-55,-1988,172,-17,-129,-136,-632,496,384
,576,2023-10-27 11:39:30.94,388,-97,-2030,106,-43,-160,-35,-658,623,346
,577,2023-10-27 11:39:30.95,395,-83,-2023,81,-47,-188,-114,-645,531,379
,578,2023-10-27 11:39:30.96,428,-84,-1991,79,-45,-231,-55,-633,578,344
,579,2023-10-27 11:39:30.97,441,-86,-1970,71,-43,-275,-133,-614,481,373
,580,2023-10-27 11:39:30.98,451,-70,-1978,61,-42,-324,-38,-634,596,336
,581,2023-10-27 11:39:30.99,442,-95,-2027,58,-28,-376,-83,-639,556,361
,582,2023-10-27 11:39:31.00,449,-144,-2041,72,-41,-411,-8,-654,646,331
,583,2023-10-27 11:39:31.01,471,-181,-2053,110,-66,-440,-119,-654,535,386
,584,2023-10-27 11:39:31.02,449,-205,-2068,165,-96,-459,-57,-635,578,346
,585,2023-10-27 11:39:31.03,431,-227,-2029,206,-104,-468,-174,-640,466,407
,586,2023-10-27 11:39:31.04,433,-225,-2088,232,-118,-468,-116,-637,521,376
,587,2023-10-27 11:39:31.05,450,-272,-2098,269,-168,-456,-217,-684,467,450
,588,2023-10-27 11:39:31.06,439,-266,-2105,297,-200,-444,-142,-703,561,422
,589,2023-10-27 11:39:31.07,433,-275,-2108,307,-205,-430,-234,-728,494,481
,590,2023-10-27 11:39:31.08,416,-295,-2085,299,-211,-413,-179,-710,531,444
,591,2023-10-27 11:39:31.09,428,-299,-2093,285,-220,-383,-259,-729,470,494
,592,2023-10-27 11:39:31.10,424,-341,-2063,272,-215,-347,-183,-727,544,455
,593,2023-10-27 11:39:31.11,421,-406,-2032,275,-199,-298,-288,-771,483,529
,594,2023-10-27 11:39:31.12,415,-430,-2014,285,-180,-247,-190,-732,542,461
,595,2023-10-27 11:39:31.13,420,-443,-1994,306,-172,-185,-272,-748,476,510
,596,2023-10-27 11:39:31.14,410,-451,-1971,318,-138,-129,-161,-702,541,431
,597,2023-10-27 11:39:31.15,408,-436,-1940,320,-111,-80,-196,-705,509,450
,598,2023-10-27 11:39:31.16,410,-449,-1925,320,-77,-30,-34,-652,618,343
,599,2023-10-27 11:39:31.17,399,-459,-1929,313,-51,20,-102,-667,565,384
,600,2023-10-27 11:39:31.18,397,-484,-1930,307,-35,67,12,-611,623,299
,601,2023-10-27 11:39:31.19,393,-496,-1935,300,-12,112,-54,-645,591,349
,602,2023-10-27 11:39:31.20,393,-479,-1944,281,-1,148,86,-589,675,251
,603,2023-10-27 11:39:31.21,384,-464,-1937,255,14,177,55,-631,686,288
,604,2023-10-27 11:39:31.22,393,-442,-1929,219,24,196,174,-551,725,188
,605,2023-10-27 11:39:31.23,393,-428,-1915,174,34,211,76,-572,648,248
,606,2023-10-27 11:39:31.24,412,-464,-1919,143,63,216,195,-478,673,141
,607,2023-10-27 11:39:31.25,393,-477,-1908,142,86,216,135,-520,655,192
,608,2023-10-27 11:39:31.26,394,-462,-1991,145,50,215,244,-431,675,93
,609,2023-10-27 11:39:31.27,389,-449,-1995,136,50,215,141,-539,680,199
,610,2023-10-27 11:39:31.28,421,-423,-1993,127,51,206,237,-488,725,125
,611,2023-10-27 11:39:31.29,391,-445,-2045,122,79,186,113,-536,649,211
,612,2023-10-27 11:39:31.30,390,-445,-2028,136,6,172,220,-437,657,108
,613,2023-10-27 11:39:31.31,405,-430,-1998,142,-24,147,140,-495,635,177
,614,2023-10-27 11:39:31.32,396,-420,-1997,133,-15,112,220,-391,611,85
,615,2023-10-27 11:39:31.33,399,-423,-2009,115,6,79,168,-507,675,169
,616,2023-10-27 11:39:31.34,402,-411,-2010,103,-5,44,264,-462,726,99
,617,2023-10-27 11:39:31.35,390,-412,-2020,97,-25,13,172,-586,758,207
,618,2023-10-27 11:39:31.36,389,-440,-2025,86,-28,-13,256,-525,781,134
,619,2023-10-27 11:39:31.37,393,-444,-2043,68,-43,-39,121,-596,717,237
,620,2023-10-27 11:39:31.38,402,-418,-2019,50,-39,-66,182,-495,677,156
,621,2023-10-27 11:39:31.39,397,-409,-2001,32,-42,-92,112,-549,661,218
,622,2023-10-27 11:39:31.40,380,-414,-1975,11,-36,-125,232,-458,690,113
,623,2023-10-27 11:39:31.41,379,-424,-1973,-10,-49,-154,155,-556,711,200
,624,2023-10-27 11:39:31.42,362,-431,-1953,-33,-39,-182,222,-435,657,106
,625,2023-10-27 11:39:31.43,337,-414,-1960,-44,-35,-205,133,-504,637,185
,626,2023-10-27 11:39:31.44,343,-421,-1931,-58,-60,-224,253,-404,657,75
,627,2023-10-27 11:39:31.45,345,-394,-1993,-117,-72,-232,235,-485,720,125
,628,2023-10-27 11:39:31.46,360,-413,-1923,-135,-60,-241,304,-367,671,31
,629,2023-10-27 11:39:31.47,360,-379,-1879,-141,-10,-273,223,-514,737,145
,630,2023-10-27 11:39:31.48,352,-373,-1932,-156,-16,-296,297,-409,706,56
,631,2023-10-27 11:39:31.49,375,-369,-1912,-151,24,-325,302,-485,787,91
,632,2023-10-27 11:39:31.50,387,-391,-1955,-131,33,-332,369,-360,729,-4
,633,2023-10-27 11:39:31.51,361,-374,-2024,-101,42,-339,295,-441,736,73
,634,2023-10-27 11:39:31.52,350,-346,-2085,-82,17,-343,348,-345,693,-1
,635,2023-10-27 11:39:31.53,357,-313,-2108,-73,-12,-339,328,-470,798,71
,636,2023-10-27 11:39:31.54,382,-309,-2114,-62,-54,-336,366,-343,709,-11
,637,2023-10-27 11:39:31.55,394,-325,-2109,-48,-78,-325,281,-457,738,88
,638,2023-10-27 11:39:31.56,396,-301,-2098,-35,-100,-314,315,-349,664,17
,639,2023-10-27 11:39:31.57,403,-284,-2071,-19,-111,-298,267,-467,734,100
,640,2023-10-27 11:39:31.58,394,-322,-2071,-11,-104,-278,329,-377,706,24
,641,2023-10-27 11:39:31.59,408,-349,-2071,-4,-100,-253,286,-484,770,99
,642,2023-10-27 11:39:31.60,391,-348,-2054,9,-112,-213,332,-351,683,9
,643,2023-10-27 11:39:31.61,384,-366,-2028,27,-126,-166,284,-460,744,88
,644,2023-10-27 11:39:31.62,361,-355,-2008,38,-130,-131,272,-343,615,35
,645,2023-10-27 11:39:31.63,349,-368,-2021,30,-110,-89,233,-530,763,148
,646,2023-10-27 11:39:31.64,344,-368,-2015,35,-108,-47,275,-427,702,76
,647,2023-10-27 11:39:31.65,321,-359,-2010,39,-93,-5,202,-553,755,175
,648,2023-10-27 11:39:31.66,315,-350,-2002,40,-88,29,248,-414,662,83
,649,2023-10-27 11:39:31.67,345,-349,-1980,34,-58,64,209,-555,764,173
,650,2023-10-27 11:39:31.68,321,-350,-1980,34,-22,98,236,-445,681,104
,651,2023-10-27 11:39:31.69,326,-341,-1981,39,0,131,179,-576,755,198
,652,2023-10-27 11:39:31.70,343,-326,-1964,41,38,163,210,-440,650,115
,653,2023-10-27 11:39:31.71,351,-318,-1968,50,74,201,176,-530,706,177
,654,2023-10-27 11:39:31.72,363,-318,-1957,62,103,228,202,-395,597,96
,655,2023-10-27 11:39:31.73,371,-299,-1986,74,142,254,198,-545,743,173
,656,2023-10-27 11:39:31.74,368,-301,-2017,89,166,277,215,-439,654,112
,657,2023-10-27 11:39:31.75,381,-318,-2023,114,188,305,191,-581,772,195
,658,2023-10-27 11:39:31.76,364,-287,-2029,155,208,328,223,-444,667,110
,659,2023-10-27 11:39:31.77,369,-267,-2020,188,223,347,194,-584,778,195
,660,2023-10-27 11:39:31.78,398,-286,-2038,215,222,369,192,-442,634,125
,661,2023-10-27 11:39:31.79,388,-282,-2037,232,208,380,108,-581,689,236
,662,2023-10-27 11:39:31.80,383,-272,-2057,246,197,391,106,-468,574,181
,663,2023-10-27 11:39:31.81,389,-277,-2065,261,179,397,42,-637,679,297
,664,2023-10-27 11:39:31.82,402,-285,-2031,281,152,393,72,-502,574,215
,665,2023-10-27 11:39:31.83,431,-285,-2018,301,132,379,19,-652,671,316
,666,2023-10-27 11:39:31.84,420,-270,-1990,317,119,356,50,-523,573,236
,667,2023-10-27 11:39:31.85,434,-277,-1987,328,113,327,21,-644,665,311
,668,2023-10-27 11:39:31.86,415,-277,-1988,324,104,293,54,-491,545,218
,669,2023-10-27 11:39:31.87,421,-306,-1990,320,98,264,51,-619,670,284
,670,2023-10-27 11:39:31.88,423,-320,-2005,317,74,226,80,-480,560,200
,671,2023-10-27 11:39:31.89,406,-335,-1997,319,56,193,57,-611,668,277
,672,2023-10-27 11:39:31.90,425,-357,-1987,324,29,154,65,-488,553,211
,673,2023-10-27 11:39:31.91,422,-391,-1981,333,12,118,30,-625,655,297
,674,2023-10-27 11:39:31.92,421,-414,-1982,344,-3,85,58,-484,542,213
,675,2023-10-27 11:39:31.93,423,-420,-1970,360,-28,48,49,-606,655,278
,676,2023-10-27 11:39:31.94,425,-425,-1953,375,-46,13,69,-480,549,205
,677,2023-10-27 11:39:31.95,470,-472,-1951,388,-43,-21,81,-598,679,258
,678,2023-10-27 11:39:31.96,436,-501,-1955,411,-97,-46,92,-450,542,179
,679,2023-10-27 11:39:31.97,454,-545,-1970,417,-71,-61,73,-564,637,245
,680,2023-10-27 11:39:31.98,410,-562,-2004,408,-80,-68,81,-447,528,183
,681,2023-10-27 11:39:31.99,448,-570,-2013,382,-62,-68,94,-578,672,242
,682,2023-10-27 11:39:32.00,410,-621,-2039,359,-57,-71,88,-468,556,190
,683,2023-10-27 11:39:32.01,418,-572,-2041,339,-76,-62,94,-608,702,257
,684,2023-10-27 11:39:32.02,406,-553,-1998,314,-103,-61,89,-495,584,203
,685,2023-10-27 11:39:32.03,402,-578,-1994,285,-125,-56,100,-601,701,250
,686,2023-10-27 11:39:32.04,409,-583,-2036,240,-108,-55,80,-489,569,204
,687,2023-10-27 11:39:32.05,384,-620,-2009,205,-103,-60,96,-635,731,269
,688,2023-10-27 11:39:32.06,386,-612,-1992,198,-114,-61,68,-521,589,226
,689,2023-10-27 11:39:32.07,406,-608,-1976,185,-117,-65,74,-635,709,280
,690,2023-10-27 11:39:32.08,343,-597,-1976,164,-110,-73,66,-514,580,224
,691,2023-10-27 11:39:32.09,346,-571,-1955,131,-123,-82,57,-622,679,282
,692,2023-10-27 11:39:32.10,351,-583,-1978,88,-113,-93,46,-510,556,232
,693,2023-10-27 11:39:32.11,323,-580,-1964,50,-117,-106,89,-636,725,273
,694,2023-10-27 11:39:32.12,337,-551,-1939,57,-185,-122,66,-534,600,234
,695,2023-10-27 11:39:32.13,358,-542,-1901,55,-191,-143,71,-647,718,288
,696,2023-10-27 11:39:32.14,344,-552,-1872,43,-172,-167,57,-524,581,233
,697,2023-10-27 11:39:32.15,347,-557,-1828,40,-144,-195,134,-601,735,233
,698,2023-10-27 11:39:32.16,320,-577,-1843,23,-124,-216,106,-491,597,192
,699,2023-10-27 11:39:32.17,316,-588,-1859,17,-103,-230,173,-585,758,206
,700,2023-10-27 11:39:32.18,290,-583,-1871,27,-90,-238,140,-477,617,168
,701,2023-10-27 11:39:32.19,308,-582,-1873,34,-109,-234,180,-546,726,183
,702,2023-10-27 11:39:32.20,309,-571,-1862,39,-111,-237,119,-448,567,164
,703,2023-10-27 11:39:32.21,334,-557,-1860,50,-111,-247,171,-515,686,172
,704,2023-10-27 11:39:32.22,336,-544,-1864,48,-102,-268,129,-437,566,154
,705,2023-10-27 11:39:32.23,338,-533,-1896,40,-59,-298,188,-512,700,162
,706,2023-10-27 11:39:32.24,303,-464,-1992,8,-23,-331,133,-426,559,146
,707,2023-10-27 11:39:32.25,296,-499,-1992,-27,-99,-364,188,-504,692,158
,708,2023-10-27 11:39:32.26,359,-512,-2018,-49,-108,-391,115,-450,565,167
,709,2023-10-27 11:39:32.27,360,-495,-1995,-56,-119,-434,169,-534,703,182
,710,2023-10-27 11:39:32.28,342,-469,-1962,-69,-121,-485,117,-463,580,173
,711,2023-10-27 11:39:32.29,358,-429,-1970,-115,-80,-558,200,-545,745,172
,712,2023-10-27 11:39:32.30,362,-403,-1989,-177,-50,-637,121,-482,603,180
,713,2023-10-27 11:39:32.31,361,-421,-2002,-214,-66,-721,183,-555,738,186
,714,2023-10-27 11:39:32.32,396,-330,-1987,-237,-77,-817,93,-503,596,205
,715,2023-10-27 11:39:32.33,413,-271,-1971,-283,-51,-944,122,-583,705,230
,716,2023-10-27 11:39:32.34,422,-199,-1948,-350,4,-1097,36,-548,584,256
,717,2023-10-27 11:39:32.35,435,-166,-1961,-395,12,-1273,103,-662,765,279
,718,2023-10-27 11:39:32.36,456,-159,-2012,-424,28,-1445,-2,-632,630,317
,719,2023-10-27 11:39:32.37,453,-192,-2037,-402,-15,-1620,12,-733,745,360
,720,2023-10-27 11:39:32.38,494,-289,-2051,-347,-34,-1791,-111,-722,611,416
,721,2023-10-27 11:39:32.39,451,-305,-2106,-294,-17,-1959,-26,-819,793,422
,722,2023-10-27 11:39:32.40,465,-282,-2065,-260,-3,-2124,-69,-798,729,433
,723,2023-10-27 11:39:32.41,426,-282,-2082,-188,-107,-2284,6,-862,868,428
,724,2023-10-27 11:39:32.42,461,-255,-2105,-81,-241,-2421,-72,-841,769,456
,725,2023-10-27 11:39:32.43,496,-229,-2092,23,-346,-2563,-23,-913,890,468
,726,2023-10-27 11:39:32.44,505,-225,-2062,83,-414,-2699,-141,-856,715,498
,727,2023-10-27 11:39:32.45,517,-266,-2014,141,-433,-2842,-54,-876,822,465
,728,2023-10-27 11:39:32.46,530,-300,-1997,213,-458,-2974,-40,-848,808,444
,729,2023-10-27 11:39:32.47,539,-337,-2041,302,-492,-3088,93,-893,986,400
,730,2023-10-27 11:39:32.48,523,-332,-2065,395,-555,-3177,26,-871,897,422
,731,2023-10-27 11:39:32.49,543,-315,-2074,465,-607,-3258,128,-915,1043,393
,732,2023-10-27 11:39:32.50,561,-334,-2020,520,-660,-3328,-18,-905,887,461
,733,2023-10-27 11:39:32.51,571,-351,-2032,555,-688,-3376,107,-934,1041,413
,734,2023-10-27 11:39:32.52,581,-374,-2017,568,-709,-3404,26,-920,946,447
,735,2023-10-27 11:39:32.53,590,-389,-2040,565,-725,-3419,157,-916,1073,379
,736,2023-10-27 11:39:32.54,611,-422,-2042,553,-743,-3415,53,-873,926,410
,737,2023-10-27 11:39:32.55,589,-440,-2046,539,-760,-3391,167,-864,1031,348
,738,2023-10-27 11:39:32.56,602,-443,-2021,508,-782,-3352,58,-847,905,394
,739,2023-10-27 11:39:32.57,590,-484,-2029,479,-798,-3294,196,-814,1010,309
,740,2023-10-27 11:39:32.58,603,-505,-2017,463,-820,-3236,73,-795,868,361
,741,2023-10-27 11:39:32.59,628,-480,-1980,442,-828,-3166,206,-751,957,272
,742,2023-10-27 11:39:32.60,645,-455,-1948,416,-809,-3097,146,-736,882,295
,743,2023-10-27 11:39:32.61,654,-460,-1984,376,-773,-3016,298,-708,1006,205
,744,2023-10-27 11:39:32.62,629,-455,-2033,332,-750,-2931,217,-688,905,235
,745,2023-10-27 11:39:32.63,653,-449,-2030,312,-749,-2823,337,-610,947,136
,746,2023-10-27 11:39:32.64,618,-447,-1994,298,-761,-2713,202,-630,832,214
,747,2023-10-27 11:39:32.65,649,-426,-1928,302,-770,-2595,345,-571,916,113
,748,2023-10-27 11:39:32.66,640,-410,-1928,306,-768,-2484,194,-561,755,183
,749,2023-10-27 11:39:32.67,600,-373,-1966,288,-718,-2390,318,-512,830,97
,750,2023-10-27 11:39:32.68,583,-422,-1954,245,-660,-2291,270,-545,815,137
,751,2023-10-27 11:39:32.69,585,-371,-1874,243,-618,-2195,441,-503,944,31
,752,2023-10-27 11:39:32.70,555,-338,-1920,266,-593,-2110,353,-560,913,103
,753,2023-10-27 11:39:32.71,530,-419,-1895,247,-574,-2018,517,-472,989,-22
,754,2023-10-27 11:39:32.72,516,-348,-1894,221,-525,-1925,401,-482,883,40
,755,2023-10-27 11:39:32.73,500,-314,-1939,191,-478,-1845,556,-400,956,-78
,756,2023-10-27 11:39:32.74,498,-298,-1934,149,-442,-1779,503,-451,954,-26
,757,2023-10-27 11:39:32.75,471,-317,-1889,116,-405,-1725,618,-350,968,-134
,758,2023-10-27 11:39:32.76,447,-296,-1930,119,-359,-1681,510,-371,881,-69
,759,2023-10-27 11:39:32.77,420,-292,-1960,108,-317,-1631,596,-283,879,-156
,760,2023-10-27 11:39:32.78,409,-305,-1965,79,-286,-1586,501,-379,880,-61
,761,2023-10-27 11:39:32.79,426,-349,-1969,74,-251,-1546,620,-356,976,-132
,762,2023-10-27 11:39:32.80,382,-307,-1990,90,-226,-1513,515,-430,945,-42
,763,2023-10-27 11:39:32.81,405,-326,-1995,94,-220,-1482,568,-355,923,-106
,764,2023-10-27 11:39:32.82,392,-332,-2027,100,-207,-1450,488,-484,972,-2
,765,2023-10-27 11:39:32.83,381,-331,-2013,100,-204,-1417,566,-448,1014,-59
,766,2023-10-27 11:39:32.84,400,-319,-1996,109,-197,-1374,441,-479,920,19
,767,2023-10-27 11:39:32.85,385,-383,-1989,120,-194,-1331,513,-405,918,-54
,768,2023-10-27 11:39:32.86,387,-385,-1983,132,-168,-1288,407,-481,888,37
,769,2023-10-27 11:39:32.87,377,-386,-2014,136,-148,-1242,466,-416,882,-25
,770,2023-10-27 11:39:32.88,374,-401,-2021,111,-130,-1185,397,-539,936,71
,771,2023-10-27 11:39:32.89,394,-432,-1990,109,-119,-1123,451,-435,886,-8
,772,2023-10-27 11:39:32.90,386,-459,-1953,137,-124,-1063,325,-513,838,94
,773,2023-10-27 11:39:32.91,377,-488,-1900,171,-139,-999,385,-451,836,33
,774,2023-10-27 11:39:32.92,358,-441,-1930,195,-129,-934,331,-601,932,135
,775,2023-10-27 11:39:32.93,361,-435,-1942,196,-140,-878,406,-527,933,60
,776,2023-10-27 11:39:32.94,366,-426,-1960,188,-130,-829,278,-617,895,169
,777,2023-10-27 11:39:32.95,367,-415,-1975,187,-113,-787,355,-537,892,91
,778,2023-10-27 11:39:32.96,402,-435,-1912,186,-81,-760,249,-640,889,195
,779,2023-10-27 11:39:32.97,319,-448,-1949,191,-47,-755,308,-557,865,124
,780,2023-10-27 11:39:32.98,373,-445,-1977,187,6,-717,216,-692,908,238
,781,2023-10-27 11:39:32.99,372,-439,-1978,212,10,-711,253,-557,810,152
,782,2023-10-27 11:39:33.00,355,-506,-2010,239,6,-688,170,-656,826,243
,783,2023-10-27 11:39:33.01,345,-521,-2024,273,4,-663,260,-587,847,163
,784,2023-10-27 11:39:33.02,358,-531,-2052,307,3,-632,231,-712,943,240
,785,2023-10-27 11:39:33.03,381,-576,-2061,321,-3,-589,328,-583,911,127
,786,2023-10-27 11:39:33.04,369,-562,-2054,329,8,-552,280,-675,955,197
,787,2023-10-27 11:39:33.05,362,-558,-1995,333,29,-516,356,-562,918,103
,788,2023-10-27 11:39:33.06,362,-563,-1962,330,46,-474,298,-700,998,201
,789,2023-10-27 11:39:33.07,361,-531,-1980,320,62,-434,360,-587,947,113
,790,2023-10-27 11:39:33.08,357,-519,-1980,308,63,-396,330,-694,1024,182
,791,2023-10-27 11:39:33.09,352,-513,-1994,284,58,-356,348,-563,911,107
,792,2023-10-27 11:39:33.10,346,-501,-2001,256,33,-313,334,-679,1013,172
,793,2023-10-27 11:39:33.11,337,-492,-1993,218,12,-274,381,-533,914,76
,794,2023-10-27 11:39:33.12,329,-488,-1997,172,-18,-241,364,-649,1013,142
,795,2023-10-27 11:39:33.13,334,-504,-2009,123,-49,-206,404,-540,944,68
,796,2023-10-27 11:39:33.14,349,-519,-2014,88,-79,-163,459,-682,1141,111
,797,2023-10-27 11:39:33.15,328,-497,-1991,52,-114,-126,447,-547,994,50
,798,2023-10-27 11:39:33.16,328,-490,-1954,8,-158,-98,419,-668,1087,124
,799,2023-10-27 11:39:33.17,330,-506,-2000,-40,-164,-69,404,-538,942,67
,800,2023-10-27 11:39:33.18,335,-484,-2011,-85,-172,-49,361,-660,1021,149
,801,2023-10-27 11:39:33.19,335,-449,-2011,-118,-195,-32,355,-545,900,95
,802,2023-10-27 11:39:33.20,336,-420,-2022,-147,-212,-25,400,-704,1104,152
,803,2023-10-27 11:39:33.21,335,-387,-2014,-178,-231,-29,412,-584,996,86
,804,2023-10-27 11:39:33.22,330,-375,-2025,-201,-239,-46,420,-716,1136,148
,805,2023-10-27 11:39:33.23,297,-394,-2038,-215,-249,-58,410,-570,980,80
,806,2023-10-27 11:39:33.24,280,-409,-2058,-226,-256,-70,431,-705,1136,137
,807,2023-10-27 11:39:33.25,292,-432,-2073,-228,-275,-72,396,-577,973,90
,808,2023-10-27 11:39:33.26,281,-430,-2071,-226,-280,-64,420,-693,1113,136
,809,2023-10-27 11:39:33.27,265,-397,-2056,-230,-284,-57,402,-548,950,73
