// Data mode  : Full
// Data quality  : High
// Acceleration sensor's range  : 16g
// Gyroscope sensor's range  : 2000dps
//
//ARTIFACT,NUM,DATE,ACC_X,ACC_Y,ACC_Z,GYRO_X,GYRO_Y,GYRO_Z,EOG_L,EOG_R,EOG_H,EOG_V
,1,2023-10-27 11:45:10.29,-101,507,-2011,-32,46,-7,-234,-1040,806,637
,2,2023-10-27 11:45:10.30,-60,463,-1966,-11,56,-67,-283,-952,669,617
,3,2023-10-27 11:45:10.31,-59,379,-2006,-36,101,-72,-232,-1050,818,641
,4,2023-10-27 11:45:10.32,-60,395,-2019,-45,114,-55,-279,-964,685,621
,5,2023-10-27 11:45:10.33,-51,404,-2008,-26,100,-53,-244,-1061,817,652
,6,2023-10-27 11:45:10.34,-56,385,-1997,-14,95,-62,-273,-964,691,618
,7,2023-10-27 11:45:10.35,-60,368,-2003,-16,106,-73,-256,-1047,791,651
,8,2023-10-27 11:45:10.36,-57,364,-2008,-9,115,-72,-267,-951,684,609
,9,2023-10-27 11:45:10.37,-46,359,-2010,16,129,-55,-265,-1039,774,652
,10,2023-10-27 11:45:10.38,-44,331,-2032,40,132,-31,-274,-959,685,616
,11,2023-10-27 11:45:10.39,-36,322,-2029,57,123,-1,-275,-1045,770,660
,12,2023-10-27 11:45:10.40,-34,328,-2032,74,113,32,-262,-966,704,614
,13,2023-10-27 11:45:10.41,-22,340,-2030,98,97,57,-260,-1044,784,652
,14,2023-10-27 11:45:10.42,-38,355,-2028,112,85,90,-255,-980,725,617
,15,2023-10-27 11:45:10.43,-40,351,-2019,126,84,118,-273,-1056,783,664
,16,2023-10-27 11:45:10.44,-29,370,-2026,138,83,140,-252,-974,722,613
,17,2023-10-27 11:45:10.45,-25,376,-2007,146,77,156,-283,-1036,753,659
,18,2023-10-27 11:45:10.46,-22,370,-2019,146,78,177,-246,-966,720,606
,19,2023-10-27 11:45:10.47,-35,368,-2010,146,74,193,-285,-1037,752,661
,20,2023-10-27 11:45:10.48,-24,368,-1985,147,71,198,-236,-972,736,604
,21,2023-10-27 11:45:10.49,-31,351,-2010,145,80,211,-290,-1035,745,662
,22,2023-10-27 11:45:10.50,-29,357,-2036,141,74,220,-228,-964,736,596
,23,2023-10-27 11:45:10.51,-24,365,-2027,141,60,230,-297,-1021,724,659
,24,2023-10-27 11:45:10.52,-23,376,-2011,137,59,240,-228,-960,732,594
,25,2023-10-27 11:45:10.53,-20,389,-2016,122,73,243,-309,-1021,712,665
,26,2023-10-27 11:45:10.54,-3,385,-2023,108,85,249,-224,-960,736,592
,27,2023-10-27 11:45:10.55,-13,381,-2027,107,97,248,-315,-1013,698,664
,28,2023-10-27 11:45:10.56,-6,379,-2016,110,88,251,-224,-957,733,590
,29,2023-10-27 11:45:10.57,-15,362,-2014,112,86,253,-327,-1013,686,670
,30,2023-10-27 11:45:10.58,-15,357,-2011,115,87,249,-217,-972,755,594
,31,2023-10-27 11:45:10.59,-12,357,-2016,114,83,253,-326,-1026,700,676
,32,2023-10-27 11:45:10.60,1,358,-2014,114,88,260,-210,-978,768,594
,33,2023-10-27 11:45:10.61,3,359,-2010,118,83,264,-340,-1018,678,679
,34,2023-10-27 11:45:10.62,4,364,-2015,114,86,263,-206,-969,763,587
,35,2023-10-27 11:45:10.63,7,355,-2016,110,92,260,-336,-1010,674,673
,36,2023-10-27 11:45:10.64,13,354,-2021,109,96,259,-190,-984,794,587
,37,2023-10-27 11:45:10.65,18,340,-2020,113,96,259,-331,-1030,699,680
,38,2023-10-27 11:45:10.66,20,342,-2022,118,101,261,-183,-993,810,588
,39,2023-10-27 11:45:10.67,19,332,-2019,119,95,255,-342,-1017,675,679
,40,2023-10-27 11:45:10.68,10,334,-2024,124,102,252,-184,-977,793,580
,41,2023-10-27 11:45:10.69,24,338,-2032,129,103,248,-349,-1001,652,675
,42,2023-10-27 11:45:10.70,17,326,-2023,132,115,246,-183,-984,801,583
,43,2023-10-27 11:45:10.71,20,321,-2029,143,116,246,-358,-1013,655,685
,44,2023-10-27 11:45:10.72,38,318,-2034,151,117,243,-185,-984,799,584
,45,2023-10-27 11:45:10.73,32,308,-2035,162,114,240,-363,-996,633,679
,46,2023-10-27 11:45:10.74,42,300,-2045,173,114,242,-173,-987,814,580
,47,2023-10-27 11:45:10.75,41,290,-2053,183,112,239,-359,-1009,650,684
,48,2023-10-27 11:45:10.76,49,277,-2041,197,114,242,-166,-988,822,577
,49,2023-10-27 11:45:10.77,55,264,-2042,207,116,250,-356,-988,632,672
,50,2023-10-27 11:45:10.78,45,229,-2052,217,123,267,-164,-992,828,578
,51,2023-10-27 11:45:10.79,53,230,-2053,230,126,276,-372,-1009,637,690
,52,2023-10-27 11:45:10.80,89,234,-2035,248,137,299,-167,-1009,842,588
,53,2023-10-27 11:45:10.81,84,227,-2032,252,148,326,-384,-1010,626,697
,54,2023-10-27 11:45:10.82,82,217,-2033,257,152,343,-160,-998,838,579
,55,2023-10-27 11:45:10.83,80,230,-2038,269,160,355,-385,-1002,617,693
,56,2023-10-27 11:45:10.84,93,231,-2039,270,155,363,-157,-1004,847,580
,57,2023-10-27 11:45:10.85,84,236,-2036,279,152,373,-393,-1001,608,697
,58,2023-10-27 11:45:10.86,100,240,-2033,284,135,385,-157,-997,840,577
,59,2023-10-27 11:45:10.87,84,233,-2045,277,122,395,-399,-985,586,692
,60,2023-10-27 11:45:10.88,88,202,-2064,259,103,410,-155,-989,834,572
,61,2023-10-27 11:45:10.89,90,196,-2066,232,89,425,-398,-979,581,688
,62,2023-10-27 11:45:10.90,95,193,-2057,213,70,440,-150,-1003,853,576
,63,2023-10-27 11:45:10.91,110,193,-2046,200,64,455,-406,-988,582,697
,64,2023-10-27 11:45:10.92,120,190,-2039,186,59,470,-150,-1015,865,582
,65,2023-10-27 11:45:10.93,119,199,-2038,167,77,480,-401,-990,589,695
,66,2023-10-27 11:45:10.94,135,188,-2043,153,78,485,-144,-993,849,568
,67,2023-10-27 11:45:10.95,116,206,-2054,145,71,484,-405,-961,556,683
,68,2023-10-27 11:45:10.96,142,211,-2042,127,64,486,-145,-1003,858,574
,69,2023-10-27 11:45:10.97,131,205,-2043,107,60,482,-408,-982,574,695
,70,2023-10-27 11:45:10.98,134,180,-2051,102,68,476,-144,-1008,864,576
,71,2023-10-27 11:45:10.99,129,191,-2057,101,69,464,-413,-968,555,690
,72,2023-10-27 11:45:11.00,121,179,-2053,94,80,467,-142,-1008,866,575
,73,2023-10-27 11:45:11.01,137,156,-2068,81,89,471,-411,-975,564,693
,74,2023-10-27 11:45:11.02,129,149,-2060,74,86,477,-140,-1022,882,581
,75,2023-10-27 11:45:11.03,139,146,-2064,65,80,485,-416,-976,560,696
,76,2023-10-27 11:45:11.04,149,123,-2055,59,78,491,-143,-1021,878,582
,77,2023-10-27 11:45:11.05,151,153,-2041,55,82,489,-422,-972,550,697
,78,2023-10-27 11:45:11.06,165,140,-2037,44,79,492,-138,-1027,889,582
,79,2023-10-27 11:45:11.07,158,154,-2016,44,78,487,-416,-977,561,696
,80,2023-10-27 11:45:11.08,169,172,-2012,43,86,473,-136,-1038,902,587
,81,2023-10-27 11:45:11.09,186,197,-1996,34,92,462,-422,-979,557,700
,82,2023-10-27 11:45:11.10,174,202,-2010,16,109,438,-140,-1023,883,581
,83,2023-10-27 11:45:11.11,168,191,-2018,6,111,413,-426,-961,535,693
,84,2023-10-27 11:45:11.12,159,201,-2006,-16,113,384,-134,-1035,901,584
,85,2023-10-27 11:45:11.13,161,197,-2014,-51,119,354,-418,-980,562,699
,86,2023-10-27 11:45:11.14,157,208,-2022,-79,116,326,-139,-1036,897,587
,87,2023-10-27 11:45:11.15,158,217,-2058,-109,123,296,-437,-966,529,701
,88,2023-10-27 11:45:11.16,165,204,-2073,-144,113,269,-138,-1024,886,581
,89,2023-10-27 11:45:11.17,160,210,-2061,-172,106,241,-419,-961,542,690
,90,2023-10-27 11:45:11.18,175,225,-2078,-196,98,209,-120,-1031,911,575
,91,2023-10-27 11:45:11.19,166,219,-2075,-215,96,175,-426,-964,538,695
,92,2023-10-27 11:45:11.20,169,223,-2059,-236,74,144,-132,-1019,887,575
,93,2023-10-27 11:45:11.21,192,207,-2073,-266,71,124,-429,-948,519,688
,94,2023-10-27 11:45:11.22,177,178,-2095,-289,44,104,-138,-1021,883,579
,95,2023-10-27 11:45:11.23,173,163,-2071,-302,13,90,-436,-951,515,693
,96,2023-10-27 11:45:11.24,189,201,-2063,-323,-13,79,-143,-1039,896,591
,97,2023-10-27 11:45:11.25,186,210,-2065,-349,-28,73,-423,-955,532,689
,98,2023-10-27 11:45:11.26,197,241,-2063,-356,-45,68,-141,-1033,892,587
,99,2023-10-27 11:45:11.27,200,252,-2073,-360,-60,60,-440,-955,515,697
,100,2023-10-27 11:45:11.28,184,254,-2045,-369,-50,54,-146,-1047,901,596
,101,2023-10-27 11:45:11.29,207,258,-2036,-379,-43,46,-427,-958,531,692
,102,2023-10-27 11:45:11.30,195,259,-2039,-387,-49,47,-132,-1032,900,582
,103,2023-10-27 11:45:11.31,198,268,-2030,-387,-52,43,-418,-942,524,680
,104,2023-10-27 11:45:11.32,193,292,-2049,-374,-66,39,-137,-1043,906,590
,105,2023-10-27 11:45:11.33,182,302,-2048,-377,-82,45,-422,-958,536,690
,106,2023-10-27 11:45:11.34,175,340,-2046,-390,-108,47,-139,-1048,909,593
,107,2023-10-27 11:45:11.35,194,337,-2050,-420,-140,55,-419,-948,529,683
,108,2023-10-27 11:45:11.36,212,358,-2041,-433,-134,50,-127,-1033,906,580
,109,2023-10-27 11:45:11.37,205,346,-2034,-429,-90,62,-404,-942,538,673
,110,2023-10-27 11:45:11.38,202,325,-2030,-422,-54,94,-142,-1060,918,601
,111,2023-10-27 11:45:11.39,188,288,-2082,-403,-45,134,-422,-968,546,695
,112,2023-10-27 11:45:11.40,156,321,-2091,-349,-84,152,-158,-1058,900,608
,113,2023-10-27 11:45:11.41,178,366,-2045,-283,-135,154,-420,-946,526,683
,114,2023-10-27 11:45:11.42,164,378,-2005,-250,-175,147,-146,-1048,902,597
,115,2023-10-27 11:45:11.43,158,401,-2005,-261,-189,157,-402,-948,546,675
,116,2023-10-27 11:45:11.44,167,439,-2021,-267,-195,168,-150,-1054,904,602
,117,2023-10-27 11:45:11.45,171,448,-1994,-281,-194,174,-407,-952,545,679
,118,2023-10-27 11:45:11.46,161,456,-2000,-300,-194,185,-154,-1058,904,606
,119,2023-10-27 11:45:11.47,150,465,-2010,-320,-168,185,-403,-953,550,678
,120,2023-10-27 11:45:11.48,158,471,-1985,-327,-155,175,-160,-1054,894,607
,121,2023-10-27 11:45:11.49,155,447,-1954,-337,-141,172,-401,-936,535,668
,122,2023-10-27 11:45:11.50,156,454,-1965,-325,-153,167,-167,-1042,875,604
,123,2023-10-27 11:45:11.51,162,486,-1954,-292,-171,152,-402,-952,550,677
,124,2023-10-27 11:45:11.52,156,496,-1930,-280,-173,140,-166,-1081,915,623
,125,2023-10-27 11:45:11.53,146,502,-1951,-278,-163,124,-394,-973,579,683
,126,2023-10-27 11:45:11.54,150,509,-1973,-258,-151,117,-167,-1073,906,620
,127,2023-10-27 11:45:11.55,141,504,-1998,-226,-138,110,-389,-954,565,671
,128,2023-10-27 11:45:11.56,143,503,-2004,-186,-129,107,-170,-1056,886,613
,129,2023-10-27 11:45:11.57,136,491,-2004,-148,-117,102,-385,-947,562,666
,130,2023-10-27 11:45:11.58,145,465,-1997,-110,-104,98,-176,-1051,875,613
,131,2023-10-27 11:45:11.59,133,454,-2010,-65,-96,91,-377,-948,571,662
,132,2023-10-27 11:45:11.60,130,482,-2018,-17,-84,82,-173,-1081,908,627
,133,2023-10-27 11:45:11.61,127,495,-2031,39,-94,69,-369,-968,599,668
,134,2023-10-27 11:45:11.62,119,510,-1972,98,-109,45,-179,-1066,887,622
,135,2023-10-27 11:45:11.63,124,534,-1965,146,-101,18,-373,-950,577,661
,136,2023-10-27 11:45:11.64,114,510,-2002,166,-69,1,-189,-1061,872,625
,137,2023-10-27 11:45:11.65,113,512,-1992,175,-37,-1,-372,-955,583,663
,138,2023-10-27 11:45:11.66,116,515,-1997,181,-26,11,-190,-1057,867,623
,139,2023-10-27 11:45:11.67,98,510,-2012,197,-30,1,-363,-938,575,650
,140,2023-10-27 11:45:11.68,102,518,-1995,224,-29,-26,-197,-1037,840,617
,141,2023-10-27 11:45:11.69,111,497,-1975,231,-28,-45,-357,-936,579,646
,142,2023-10-27 11:45:11.70,102,491,-1976,214,-13,-40,-196,-1054,858,625
,143,2023-10-27 11:45:11.71,94,488,-1988,207,-17,-27,-346,-952,606,649
,144,2023-10-27 11:45:11.72,105,477,-1989,196,-26,-27,-191,-1061,870,626
,145,2023-10-27 11:45:11.73,86,468,-1989,189,-26,-31,-339,-945,606,642
,146,2023-10-27 11:45:11.74,90,458,-2008,188,-28,-36,-216,-1042,826,629
,147,2023-10-27 11:45:11.75,89,457,-1995,186,-35,-46,-346,-935,589,640
,148,2023-10-27 11:45:11.76,98,444,-1991,169,-36,-43,-212,-1042,830,627
,149,2023-10-27 11:45:11.77,83,454,-1990,140,-46,-47,-326,-941,615,633
,150,2023-10-27 11:45:11.78,65,470,-2003,108,-54,-54,-206,-1048,842,627
,151,2023-10-27 11:45:11.79,79,450,-2011,78,-61,-63,-317,-945,628,631
,152,2023-10-27 11:45:11.80,69,450,-2034,47,-72,-74,-210,-1049,839,629
,153,2023-10-27 11:45:11.81,67,433,-2057,20,-84,-81,-314,-946,632,630
,154,2023-10-27 11:45:11.82,55,435,-2057,-9,-102,-88,-224,-1048,824,636
,155,2023-10-27 11:45:11.83,64,447,-2041,-37,-115,-87,-312,-953,641,632
,156,2023-10-27 11:45:11.84,72,424,-2041,-63,-123,-95,-230,-1060,830,645
,157,2023-10-27 11:45:11.85,74,423,-2039,-84,-133,-104,-299,-958,659,628
,158,2023-10-27 11:45:11.86,63,415,-2026,-108,-131,-118,-226,-1053,827,639
,159,2023-10-27 11:45:11.87,66,406,-2026,-124,-119,-123,-294,-957,663,625
,160,2023-10-27 11:45:11.88,65,388,-2044,-123,-113,-123,-237,-1063,826,650
,161,2023-10-27 11:45:11.89,56,384,-2032,-118,-110,-123,-290,-973,683,631
,162,2023-10-27 11:45:11.90,55,393,-2018,-109,-127,-125,-245,-1066,821,655
,163,2023-10-27 11:45:11.91,45,410,-2031,-113,-139,-128,-283,-965,682,624
,164,2023-10-27 11:45:11.92,33,429,-2015,-120,-154,-145,-252,-1042,790,647
,165,2023-10-27 11:45:11.93,34,436,-2008,-123,-162,-165,-276,-948,672,612
,166,2023-10-27 11:45:11.94,48,426,-2004,-121,-141,-178,-248,-1036,788,642
,167,2023-10-27 11:45:11.95,44,407,-1996,-103,-121,-177,-269,-954,685,611
,168,2023-10-27 11:45:11.96,42,394,-2002,-66,-104,-179,-264,-1045,781,654
,169,2023-10-27 11:45:11.97,37,404,-1983,-24,-94,-173,-273,-968,695,620
,170,2023-10-27 11:45:11.98,36,413,-1970,10,-88,-166,-267,-1046,779,656
,171,2023-10-27 11:45:11.99,26,407,-1978,42,-84,-162,-258,-966,708,612
,172,2023-10-27 11:45:12.00,21,427,-1971,70,-76,-154,-263,-1039,776,651
,173,2023-10-27 11:45:12.01,30,437,-1964,94,-53,-145,-254,-971,717,612
,174,2023-10-27 11:45:12.02,20,425,-1974,110,-28,-137,-274,-1044,770,659
,175,2023-10-27 11:45:12.03,18,438,-1987,129,-6,-128,-248,-963,715,605
,176,2023-10-27 11:45:12.04,11,439,-2001,161,29,-110,-284,-1027,743,655
,177,2023-10-27 11:45:12.05,11,445,-1978,169,39,-110,-248,-968,720,608
,178,2023-10-27 11:45:12.06,-14,448,-1993,158,43,-104,-289,-1046,757,667
,179,2023-10-27 11:45:12.07,3,452,-2008,137,34,-99,-235,-969,734,602
,180,2023-10-27 11:45:12.08,-9,445,-2010,116,30,-95,-293,-1023,730,658
,181,2023-10-27 11:45:12.09,-6,465,-2005,95,29,-91,-241,-986,745,613
,182,2023-10-27 11:45:12.10,6,453,-1987,64,26,-84,-301,-1063,762,682
,183,2023-10-27 11:45:12.11,14,434,-2012,27,18,-71,-224,-995,771,609
,184,2023-10-27 11:45:12.12,0,457,-2003,-3,0,-69,-299,-1037,738,668
,185,2023-10-27 11:45:12.13,8,456,-1990,-32,-3,-73,-218,-971,753,594
,186,2023-10-27 11:45:12.14,8,440,-1984,-67,1,-73,-311,-1022,711,666
,187,2023-10-27 11:45:12.15,2,440,-1993,-100,-13,-74,-215,-975,760,595
,188,2023-10-27 11:45:12.16,3,436,-2006,-116,-28,-78,-314,-1034,720,674
,189,2023-10-27 11:45:12.17,6,433,-2017,-134,-37,-83,-204,-987,783,595
,190,2023-10-27 11:45:12.18,-2,421,-2035,-157,-35,-81,-314,-1034,720,674
,191,2023-10-27 11:45:12.19,-3,419,-2063,-170,-50,-79,-196,-988,792,592
,192,2023-10-27 11:45:12.20,-2,410,-2050,-169,-64,-82,-325,-1031,706,678
,193,2023-10-27 11:45:12.21,-5,404,-2048,-167,-79,-78,-197,-987,790,592
,194,2023-10-27 11:45:12.22,0,402,-2051,-163,-92,-72,-335,-1025,690,680
,195,2023-10-27 11:45:12.23,-17,408,-2037,-155,-97,-71,-193,-995,802,594
,196,2023-10-27 11:45:12.24,10,403,-2033,-143,-104,-73,-332,-1034,702,683
,197,2023-10-27 11:45:12.25,7,409,-2024,-136,-94,-79,-181,-1001,820,591
,198,2023-10-27 11:45:12.26,17,402,-2028,-119,-86,-77,-343,-1026,683,684
,199,2023-10-27 11:45:12.27,4,381,-2017,-94,-82,-79,-185,-997,812,591
,200,2023-10-27 11:45:12.28,2,397,-2005,-61,-78,-80,-352,-1018,666,685
,201,2023-10-27 11:45:12.29,3,394,-1997,-39,-72,-78,-180,-994,814,587
,202,2023-10-27 11:45:12.30,0,399,-1997,-15,-67,-72,-352,-1017,665,684
,203,2023-10-27 11:45:12.31,-1,419,-1981,-5,-63,-67,-173,-990,817,581
,204,2023-10-27 11:45:12.32,2,439,-1988,5,-56,-64,-345,-1004,659,674
,205,2023-10-27 11:45:12.33,-3,446,-1988,20,-40,-70,-166,-994,828,580
,206,2023-10-27 11:45:12.34,-7,452,-1978,39,-21,-76,-364,-1015,651,689
,207,2023-10-27 11:45:12.35,-6,451,-1972,52,-4,-73,-172,-1002,830,587
,208,2023-10-27 11:45:12.36,8,453,-1965,56,17,-69,-364,-1008,644,686
,209,2023-10-27 11:45:12.37,-5,447,-1960,68,26,-71,-161,-985,824,573
,210,2023-10-27 11:45:12.38,-5,442,-1974,77,34,-72,-372,-989,617,680
,211,2023-10-27 11:45:12.39,-8,439,-1988,83,38,-67,-165,-1002,837,583
,212,2023-10-27 11:45:12.40,-16,451,-1992,82,36,-66,-379,-1023,644,701
,213,2023-10-27 11:45:12.41,-15,451,-2003,76,41,-54,-155,-1023,868,589
,214,2023-10-27 11:45:12.42,-24,464,-2002,69,51,-39,-382,-1019,637,700
,215,2023-10-27 11:45:12.43,-19,475,-2016,62,45,-19,-154,-1000,846,577
,216,2023-10-27 11:45:12.44,-35,474,-2009,51,22,-11,-383,-988,605,685
,217,2023-10-27 11:45:12.45,-28,482,-1997,42,-1,-14,-150,-1000,850,575
,218,2023-10-27 11:45:12.46,-47,493,-2003,31,3,-16,-384,-1002,618,693
,219,2023-10-27 11:45:12.47,-18,472,-2003,14,2,-15,-140,-1024,884,582
,220,2023-10-27 11:45:12.48,-31,467,-2008,0,-1,2,-387,-1011,624,699
,221,2023-10-27 11:45:12.49,-18,470,-1998,8,-13,6,-138,-1011,873,574
,222,2023-10-27 11:45:12.50,-29,459,-1989,1,-12,2,-396,-992,596,694
,223,2023-10-27 11:45:12.51,-30,453,-1990,-8,-3,-5,-137,-1005,868,571
,224,2023-10-27 11:45:12.52,-23,450,-2008,-9,-3,-8,-399,-989,590,694
,225,2023-10-27 11:45:12.53,-24,450,-2010,-15,-17,-4,-143,-1020,877,581
,226,2023-10-27 11:45:12.54,-50,468,-2004,-22,-32,-6,-412,-1001,589,706
,227,2023-10-27 11:45:12.55,-33,465,-2001,-36,-34,-14,-137,-1020,883,578
,228,2023-10-27 11:45:12.56,-40,459,-2001,-52,-30,-21,-397,-986,589,691
,229,2023-10-27 11:45:12.57,-34,463,-2011,-69,-23,-18,-130,-1019,889,574
,230,2023-10-27 11:45:12.58,-38,465,-2011,-83,-20,-17,-408,-987,579,697
,231,2023-10-27 11:45:12.59,-37,456,-1997,-94,-16,-25,-133,-1023,890,578
,232,2023-10-27 11:45:12.60,-34,457,-1984,-106,-6,-41,-409,-988,579,698
,233,2023-10-27 11:45:12.61,-40,452,-1993,-109,-7,-50,-129,-1027,898,578
,234,2023-10-27 11:45:12.62,-33,441,-1997,-108,-10,-61,-408,-987,579,697
,235,2023-10-27 11:45:12.63,-33,458,-1989,-109,-11,-62,-130,-1026,896,578
,236,2023-10-27 11:45:12.64,-39,456,-1996,-116,-15,-69,-420,-972,552,696
,237,2023-10-27 11:45:12.65,-38,455,-1990,-129,-21,-73,-141,-1017,876,579
,238,2023-10-27 11:45:12.66,-29,444,-2002,-147,-21,-83,-423,-974,551,698
,239,2023-10-27 11:45:12.67,-51,458,-1999,-161,-16,-85,-131,-1030,899,580
,240,2023-10-27 11:45:12.68,-44,462,-2007,-180,-15,-86,-410,-977,567,693
,241,2023-10-27 11:45:12.69,-29,466,-2007,-197,-19,-89,-130,-1045,915,587
,242,2023-10-27 11:45:12.70,-31,464,-1998,-214,-21,-92,-425,-991,566,708
,243,2023-10-27 11:45:12.71,-39,460,-1982,-225,-20,-105,-144,-1054,910,599
,244,2023-10-27 11:45:12.72,-34,459,-1984,-243,-12,-112,-428,-987,559,707
,245,2023-10-27 11:45:12.73,-41,462,-1990,-269,-16,-112,-133,-1053,920,593
,246,2023-10-27 11:45:12.74,-34,491,-2012,-303,-25,-109,-419,-988,569,703
,247,2023-10-27 11:45:12.75,-40,508,-2015,-328,-40,-108,-133,-1051,918,592
,248,2023-10-27 11:45:12.76,-40,510,-2006,-341,-48,-122,-423,-980,557,701
,249,2023-10-27 11:45:12.77,-33,496,-2006,-354,-44,-133,-134,-1049,915,591
,250,2023-10-27 11:45:12.78,-28,494,-1997,-364,-29,-133,-425,-973,548,699
,251,2023-10-27 11:45:12.79,-25,500,-1984,-360,-22,-128,-134,-1030,896,582
,252,2023-10-27 11:45:12.80,-28,497,-1987,-347,-22,-124,-424,-956,532,690
,253,2023-10-27 11:45:12.81,-37,494,-1974,-331,-19,-119,-130,-1029,899,579
,254,2023-10-27 11:45:12.82,-25,510,-1966,-312,-20,-128,-417,-957,540,687
,255,2023-10-27 11:45:12.83,-45,517,-1969,-282,-7,-127,-131,-1043,912,587
,256,2023-10-27 11:45:12.84,-35,529,-1975,-247,-3,-122,-424,-966,542,695
,257,2023-10-27 11:45:12.85,-46,541,-1971,-219,1,-109,-128,-1043,915,585
,258,2023-10-27 11:45:12.86,-50,561,-1970,-198,1,-104,-421,-960,539,690
,259,2023-10-27 11:45:12.87,-44,603,-1959,-180,13,-102,-132,-1031,899,581
,260,2023-10-27 11:45:12.88,-39,614,-1955,-159,25,-107,-425,-949,524,687
,261,2023-10-27 11:45:12.89,-55,622,-1957,-137,42,-113,-142,-1036,894,589
,262,2023-10-27 11:45:12.90,-54,627,-1949,-109,52,-123,-428,-949,521,688
,263,2023-10-27 11:45:12.91,-64,632,-1960,-81,64,-124,-148,-1032,884,590
,264,2023-10-27 11:45:12.92,-61,632,-1955,-53,59,-126,-420,-944,524,682
,265,2023-10-27 11:45:12.93,-75,621,-1947,-35,58,-122,-142,-1046,904,594
,266,2023-10-27 11:45:12.94,-70,627,-1950,-31,43,-114,-423,-957,534,690
,267,2023-10-27 11:45:12.95,-66,637,-1951,-35,34,-110,-145,-1054,909,599
,268,2023-10-27 11:45:12.96,-73,642,-1949,-36,32,-103,-416,-956,540,686
,269,2023-10-27 11:45:12.97,-72,652,-1952,-38,30,-99,-144,-1048,904,596
,270,2023-10-27 11:45:12.98,-64,650,-1963,-42,18,-88,-412,-947,535,679
,271,2023-10-27 11:45:12.99,-79,649,-1963,-36,3,-81,-145,-1044,899,594
,272,2023-10-27 11:45:13.00,-78,642,-1966,-27,-7,-84,-412,-949,537,680
,273,2023-10-27 11:45:13.01,-77,629,-1964,-15,-21,-81,-144,-1065,921,604
,274,2023-10-27 11:45:13.02,-87,633,-1962,-2,-31,-75,-403,-961,558,682
,275,2023-10-27 11:45:13.03,-65,615,-1969,-2,-47,-63,-150,-1042,892,596
,276,2023-10-27 11:45:13.04,-73,606,-1965,4,-58,-57,-403,-939,536,671
,277,2023-10-27 11:45:13.05,-56,612,-1935,13,-49,-64,-149,-1059,910,604
,278,2023-10-27 11:45:13.06,-61,600,-1941,21,-29,-64,-393,-960,567,676
,279,2023-10-27 11:45:13.07,-46,559,-1978,33,-3,-52,-150,-1060,910,605
,280,2023-10-27 11:45:13.08,-59,513,-2027,62,-3,-26,-392,-950,558,671
,281,2023-10-27 11:45:13.09,-61,473,-2057,102,-18,9,-159,-1055,896,607
,282,2023-10-27 11:45:13.10,-45,425,-2081,137,-32,50,-393,-951,558,672
,283,2023-10-27 11:45:13.11,-40,370,-2042,196,-79,114,-161,-1064,903,612
,284,2023-10-27 11:45:13.12,34,346,-2088,260,-94,191,-384,-958,574,671
,285,2023-10-27 11:45:13.13,16,249,-2041,318,-108,286,-157,-1055,898,606
,286,2023-10-27 11:45:13.14,120,182,-2065,414,-114,407,-375,-944,569,659
,287,2023-10-27 11:45:13.15,183,135,-2089,542,-147,552,-164,-1051,887,607
,288,2023-10-27 11:45:13.16,226,47,-2097,676,-188,722,-375,-951,576,663
,289,2023-10-27 11:45:13.17,221,-61,-2126,821,-231,937,-162,-1067,905,614
,290,2023-10-27 11:45:13.18,232,-159,-2222,966,-267,1185,-368,-956,588,662
,291,2023-10-27 11:45:13.19,257,-248,-2279,1132,-344,1472,-166,-1046,880,606
,292,2023-10-27 11:45:13.20,337,-278,-2288,1342,-475,1790,-365,-943,578,654
,293,2023-10-27 11:45:13.21,354,-247,-2194,1586,-645,2098,-178,-1070,892,624
,294,2023-10-27 11:45:13.22,407,-213,-2137,1780,-774,2404,-368,-963,595,665
,295,2023-10-27 11:45:13.23,390,-222,-2151,1826,-860,2693,-185,-1068,883,626
,296,2023-10-27 11:45:13.24,382,-90,-2178,1787,-882,2922,-357,-960,603,658
,297,2023-10-27 11:45:13.25,338,114,-2172,1740,-894,3076,-183,-1069,886,626
,298,2023-10-27 11:45:13.26,296,239,-2171,1640,-886,3187,-350,-953,603,651
,299,2023-10-27 11:45:13.27,232,306,-2176,1465,-858,3249,-186,-1062,876,624
,300,2023-10-27 11:45:13.28,151,360,-2129,1252,-809,3241,-342,-934,592,638
,301,2023-10-27 11:45:13.29,91,415,-2028,1072,-774,3163,-229,-1034,805,631
,302,2023-10-27 11:45:13.30,54,399,-1979,900,-719,3049,-371,-929,558,650
,303,2023-10-27 11:45:13.31,20,324,-1914,696,-658,2937,-214,-1044,830,629
,304,2023-10-27 11:45:13.32,-2,225,-1867,477,-579,2840,-339,-917,578,628
,305,2023-10-27 11:45:13.33,-49,228,-1809,255,-459,2743,-249,-1003,754,626
,306,2023-10-27 11:45:13.34,-75,219,-1761,36,-303,2658,-383,-904,521,643
,307,2023-10-27 11:45:13.35,-91,93,-1760,-151,-141,2593,-351,-1029,678,690
,308,2023-10-27 11:45:13.36,-27,6,-1770,-311,40,2556,-438,-954,516,696
,309,2023-10-27 11:45:13.37,33,-63,-1789,-416,169,2547,-394,-1070,676,732
,310,2023-10-27 11:45:13.38,68,-55,-1780,-476,259,2557,-432,-962,530,697
,311,2023-10-27 11:45:13.39,108,-32,-1709,-522,336,2570,-366,-1079,713,722
,312,2023-10-27 11:45:13.40,100,-14,-1733,-534,371,2570,-403,-990,587,696
,313,2023-10-27 11:45:13.41,153,9,-1859,-555,483,2565,-274,-1119,845,696
,314,2023-10-27 11:45:13.42,266,-44,-1937,-550,508,2599,-340,-986,646,663
,315,2023-10-27 11:45:13.43,355,-95,-2111,-505,494,2687,-301,-1059,758,680
,316,2023-10-27 11:45:13.44,458,-95,-2204,-426,404,2830,-380,-916,536,648
,317,2023-10-27 11:45:13.45,511,-21,-2192,-345,295,2986,-309,-1008,699,658
,318,2023-10-27 11:45:13.46,542,95,-2127,-255,226,3134,-349,-908,559,628
,319,2023-10-27 11:45:13.47,594,237,-2136,-195,218,3235,-273,-1025,752,649
,320,2023-10-27 11:45:13.48,630,427,-2229,-117,249,3287,-323,-900,577,611
,321,2023-10-27 11:45:13.49,651,525,-2391,26,216,3315,-280,-1018,738,649
,322,2023-10-27 11:45:13.50,692,592,-2442,219,113,3337,-327,-937,610,632
,323,2023-10-27 11:45:13.51,709,649,-2426,433,3,3333,-282,-1056,774,669
,324,2023-10-27 11:45:13.52,690,714,-2426,696,-132,3280,-310,-955,645,632
,325,2023-10-27 11:45:13.53,683,806,-2518,923,-242,3224,-281,-1044,763,662
,326,2023-10-27 11:45:13.54,639,939,-2445,1067,-375,3157,-296,-972,676,634
,327,2023-10-27 11:45:13.55,519,809,-2225,1167,-389,3047,-280,-1076,796,678
,328,2023-10-27 11:45:13.56,583,642,-2274,1222,-425,2918,-282,-980,698,631
,329,2023-10-27 11:45:13.57,474,688,-2248,1222,-373,2773,-282,-1066,784,674
,330,2023-10-27 11:45:13.58,442,738,-2197,1178,-292,2601,-276,-981,705,628
,331,2023-10-27 11:45:13.59,406,706,-2090,1158,-238,2401,-286,-1073,787,679
,332,2023-10-27 11:45:13.60,324,616,-2011,1139,-212,2199,-267,-1008,741,637
,333,2023-10-27 11:45:13.61,299,622,-1989,1072,-171,2014,-291,-1088,797,689
,334,2023-10-27 11:45:13.62,203,515,-1861,1000,-159,1830,-260,-1014,754,637
,335,2023-10-27 11:45:13.63,183,405,-1851,938,-156,1677,-288,-1087,799,687
,336,2023-10-27 11:45:13.64,160,363,-1883,893,-129,1522,-247,-1013,766,630
,337,2023-10-27 11:45:13.65,184,341,-1898,839,-74,1376,-285,-1091,806,688
,338,2023-10-27 11:45:13.66,139,237,-1896,867,-100,1257,-239,-1019,780,629
,339,2023-10-27 11:45:13.67,155,219,-1966,929,-168,1149,-288,-1082,794,685
,340,2023-10-27 11:45:13.68,123,130,-1956,968,-236,1080,-225,-1015,790,620
,341,2023-10-27 11:45:13.69,77,13,-1863,999,-315,1013,-287,-1079,792,683
,342,2023-10-27 11:45:13.70,55,-41,-1908,952,-347,961,-223,-1025,802,624
,343,2023-10-27 11:45:13.71,32,108,-1824,860,-332,921,-297,-1086,789,691
,344,2023-10-27 11:45:13.72,63,-117,-2046,743,-302,890,-220,-1025,805,622
,345,2023-10-27 11:45:13.73,46,-4,-2116,659,-267,870,-311,-1069,758,690
,346,2023-10-27 11:45:13.74,-17,-12,-2100,540,-280,837,-217,-1020,803,618
,347,2023-10-27 11:45:13.75,8,-23,-2125,415,-295,822,-304,-1077,773,690
,348,2023-10-27 11:45:13.76,-36,-204,-2078,334,-360,773,-198,-1033,835,615
,349,2023-10-27 11:45:13.77,-22,-63,-2122,256,-442,755,-314,-1078,764,696
,350,2023-10-27 11:45:13.78,-45,-34,-2134,151,-507,732,-204,-1024,820,614
,351,2023-10-27 11:45:13.79,-92,60,-2093,38,-548,683,-322,-1061,739,691
,352,2023-10-27 11:45:13.80,-107,69,-2079,-89,-585,623,-190,-1039,849,614
,353,2023-10-27 11:45:13.81,-44,122,-2025,-229,-619,554,-328,-1090,762,709
,354,2023-10-27 11:45:13.82,-62,143,-1963,-350,-630,504,-191,-1048,857,619
,355,2023-10-27 11:45:13.83,-35,92,-1955,-453,-632,482,-328,-1069,741,698
,356,2023-10-27 11:45:13.84,-1,288,-1952,-533,-623,459,-180,-1033,853,606
,357,2023-10-27 11:45:13.85,-65,93,-1864,-581,-614,399,-337,-1064,727,700
,358,2023-10-27 11:45:13.86,-61,140,-1900,-634,-592,335,-172,-1052,880,612
,359,2023-10-27 11:45:13.87,-87,181,-1976,-664,-542,282,-296,-1087,791,691
,360,2023-10-27 11:45:13.88,-90,152,-2002,-688,-509,269,-136,-1065,929,600
,361,2023-10-27 11:45:13.89,-102,188,-1968,-690,-505,263,-329,-1079,750,704
,362,2023-10-27 11:45:13.90,-127,277,-1959,-688,-464,237,-176,-1064,888,620
,363,2023-10-27 11:45:13.91,-163,414,-1964,-677,-384,180,-350,-1086,736,718
,364,2023-10-27 11:45:13.92,-249,511,-2009,-648,-324,98,-171,-1068,897,619
,365,2023-10-27 11:45:13.93,-327,532,-2060,-594,-295,14,-365,-1079,714,722
,366,2023-10-27 11:45:13.94,-342,500,-2088,-550,-278,-39,-176,-1082,906,629
,367,2023-10-27 11:45:13.95,-350,420,-2094,-439,-307,-71,-362,-1099,737,730
,368,2023-10-27 11:45:13.96,-311,455,-2077,-378,-259,-90,-162,-1093,931,627
,369,2023-10-27 11:45:13.97,-334,433,-2090,-347,-144,-135,-164,-1112,948,638
,370,2023-10-27 11:45:13.98,-326,465,-2083,-269,-37,-180,-823,-1179,356,1001
,371,2023-10-27 11:45:13.99,-350,477,-2125,-109,-31,-216,-1291,-1198,-93,1244
,372,2023-10-27 11:45:14.00,-349,491,-2136,69,-87,-232,-1437,-1217,-220,1327
,373,2023-10-27 11:45:14.01,-355,439,-2151,202,-137,-252,-1365,-1184,-181,1274
,374,2023-10-27 11:45:14.02,-367,398,-2164,300,-103,-278,-1299,-1192,-107,1245
,375,2023-10-27 11:45:14.03,-323,392,-2177,382,-74,-304,-1247,-1169,-78,1208
,376,2023-10-27 11:45:14.04,-363,353,-2134,404,-37,-292,-1271,-1196,-75,1233
,377,2023-10-27 11:45:14.05,-392,336,-2101,386,7,-298,-1258,-1182,-76,1220
,378,2023-10-27 11:45:14.06,-402,383,-2125,349,31,-334,-1284,-1212,-72,1248
,379,2023-10-27 11:45:14.07,-347,292,-2075,256,64,-379,-1251,-1152,-99,1201
,380,2023-10-27 11:45:14.08,-338,306,-2098,168,100,-437,-1274,-1162,-112,1218
,381,2023-10-27 11:45:14.09,-376,281,-2026,64,84,-505,-1241,-1112,-129,1176
,382,2023-10-27 11:45:14.10,-464,287,-1929,-272,60,-694,-1274,-1150,-124,1212
,383,2023-10-27 11:45:14.11,-310,215,-1983,-458,46,-738,-1234,-1108,-126,1171
,384,2023-10-27 11:45:14.12,-320,94,-1922,-645,0,-783,-1271,-1141,-130,1206
,385,2023-10-27 11:45:14.13,-269,5,-1795,-823,-21,-791,-1227,-1032,-195,1129
,386,2023-10-27 11:45:14.14,-171,-14,-1758,-991,25,-792,-1271,-1058,-213,1164
,387,2023-10-27 11:45:14.15,-216,-5,-1648,-1143,91,-775,-1223,-945,-278,1084
,388,2023-10-27 11:45:14.16,-316,-7,-1642,-1261,177,-766,-1269,-1019,-250,1144
,389,2023-10-27 11:45:14.17,-202,-24,-1678,-1316,193,-727,-1213,-995,-218,1104
,390,2023-10-27 11:45:14.18,-137,-102,-1745,-1279,179,-640,-1264,-1079,-185,1171
,391,2023-10-27 11:45:14.19,-150,-112,-1755,-1179,142,-540,-1203,-962,-241,1082
,392,2023-10-27 11:45:14.20,-41,-25,-1739,-1065,169,-440,-1259,-1019,-240,1139
,393,2023-10-27 11:45:14.21,-107,95,-1828,-920,260,-397,-1189,-951,-238,1070
,394,2023-10-27 11:45:14.22,27,140,-2025,-717,306,-345,-1249,-1043,-206,1146
,395,2023-10-27 11:45:14.23,55,131,-2167,-440,320,-296,-1178,-935,-243,1056
,396,2023-10-27 11:45:14.24,104,171,-2269,-95,269,-207,-1248,-1015,-233,1131
,397,2023-10-27 11:45:14.25,133,151,-2420,253,176,-104,-1171,-933,-238,1052
,398,2023-10-27 11:45:14.26,152,149,-2478,586,83,-12,-1240,-1029,-211,1134
,399,2023-10-27 11:45:14.27,198,157,-2500,867,45,63,-1154,-925,-229,1039
,400,2023-10-27 11:45:14.28,166,196,-2497,1055,62,115,-1221,-1014,-207,1117
,401,2023-10-27 11:45:14.29,116,239,-2450,1122,92,162,-1115,-904,-211,1009
,402,2023-10-27 11:45:14.30,-18,300,-2434,1100,62,183,-1168,-991,-177,1079
,403,2023-10-27 11:45:14.31,-14,293,-2423,969,71,180,-1018,-860,-158,939
,404,2023-10-27 11:45:14.32,-71,254,-2324,829,96,165,-1081,-966,-115,1023
,405,2023-10-27 11:45:14.33,-150,314,-2275,750,89,149,-940,-870,-70,905
,406,2023-10-27 11:45:14.34,-94,387,-2270,687,25,119,-1024,-972,-52,998
,407,2023-10-27 11:45:14.35,-142,291,-2174,531,13,20,-874,-815,-59,844
,408,2023-10-27 11:45:14.36,-143,220,-2044,347,34,-136,-979,-935,-44,957
,409,2023-10-27 11:45:14.37,-153,146,-1934,176,40,-252,-858,-854,-4,856
,410,2023-10-27 11:45:14.38,-136,12,-1855,86,-38,-317,-981,-979,-2,980
,411,2023-10-27 11:45:14.39,-94,-138,-1772,28,-118,-326,-858,-827,-31,842
,412,2023-10-27 11:45:14.40,-94,-228,-1764,-35,-163,-293,-991,-940,-51,965
,413,2023-10-27 11:45:14.41,-90,-264,-1778,-120,-130,-241,-881,-827,-54,854
,414,2023-10-27 11:45:14.42,-100,-299,-1757,-188,-72,-190,-1027,-1016,-11,1021
,415,2023-10-27 11:45:14.43,-106,-331,-1751,-204,-62,-138,-925,-1018,93,971
,416,2023-10-27 11:45:14.44,-82,-328,-1790,-184,-45,-55,-1042,-1159,117,1100
,417,2023-10-27 11:45:14.45,-89,-328,-1840,-103,-61,40,-902,-1010,108,956
,418,2023-10-27 11:45:14.46,-75,-317,-1943,2,-97,139,-1016,-1089,73,1052
,419,2023-10-27 11:45:14.47,-85,-199,-1947,118,-73,215,-882,-967,85,924
,420,2023-10-27 11:45:14.48,-109,-59,-1994,244,-37,264,-997,-1092,95,1044
,421,2023-10-27 11:45:14.49,-141,60,-2053,365,-33,281,-853,-986,133,919
,422,2023-10-27 11:45:14.50,-173,119,-2115,469,-67,260,-942,-1065,123,1003
,423,2023-10-27 11:45:14.51,-179,146,-2160,530,-73,236,-778,-869,91,823
,424,2023-10-27 11:45:14.52,-196,158,-2213,540,-58,231,-881,-944,63,912
,425,2023-10-27 11:45:14.53,-215,172,-2279,528,-72,213,-741,-780,39,760
,426,2023-10-27 11:45:14.54,-243,203,-2296,502,-84,165,-820,-951,131,885
,427,2023-10-27 11:45:14.55,-258,214,-2267,478,-99,94,-656,-894,238,775
,428,2023-10-27 11:45:14.56,-265,204,-2296,424,-107,30,-718,-1040,322,879
,429,2023-10-27 11:45:14.57,-302,212,-2232,345,-108,-41,-567,-898,331,732
,430,2023-10-27 11:45:14.58,-300,138,-2209,287,-161,-128,-624,-1032,408,828
,431,2023-10-27 11:45:14.59,-290,66,-2117,218,-192,-210,-479,-927,448,703
,432,2023-10-27 11:45:14.60,-285,-18,-2077,134,-202,-265,-550,-1084,534,817
,433,2023-10-27 11:45:14.61,-276,-107,-1993,70,-215,-305,-430,-985,555,707
,434,2023-10-27 11:45:14.62,-289,-138,-1907,1,-217,-336,-513,-1127,614,820
,435,2023-10-27 11:45:14.63,-300,-170,-1838,-113,-177,-347,-410,-1008,598,709
,436,2023-10-27 11:45:14.64,-339,-196,-1794,-244,-129,-367,-471,-1124,653,797
,437,2023-10-27 11:45:14.65,-383,-205,-1791,-381,-98,-379,-351,-987,636,669
,438,2023-10-27 11:45:14.66,-404,-238,-1802,-546,-104,-376,-356,-1113,757,734
,439,2023-10-27 11:45:14.67,-423,-296,-1793,-732,-130,-376,-239,-996,757,617
,440,2023-10-27 11:45:14.68,-387,-354,-1770,-947,-140,-377,-214,-1123,909,668
,441,2023-10-27 11:45:14.69,-336,-424,-1777,-1149,-121,-369,-137,-989,852,563
,442,2023-10-27 11:45:14.70,-299,-518,-1859,-1320,-101,-329,-145,-1124,979,634
,443,2023-10-27 11:45:14.71,-263,-597,-1926,-1464,-117,-268,-117,-1010,893,563
,444,2023-10-27 11:45:14.72,-209,-688,-1984,-1539,-187,-205,-169,-1152,983,660
,445,2023-10-27 11:45:14.73,-154,-641,-1936,-1496,-245,-160,-181,-1042,861,611
,446,2023-10-27 11:45:14.74,-71,-538,-2026,-1402,-253,-47,-331,-1180,849,755
,447,2023-10-27 11:45:14.75,-15,-423,-2134,-1272,-268,107,-364,-1071,707,717
,448,2023-10-27 11:45:14.76,-46,-178,-2233,-1022,-311,188,-549,-1205,656,877
,449,2023-10-27 11:45:14.77,-56,57,-2350,-758,-333,238,-524,-1095,571,809
,450,2023-10-27 11:45:14.78,-86,241,-2367,-527,-294,279,-645,-1212,567,928
,451,2023-10-27 11:45:14.79,-141,373,-2345,-239,-239,302,-580,-1084,504,832
,452,2023-10-27 11:45:14.80,-148,408,-2241,51,-210,362,-632,-1192,560,912
,453,2023-10-27 11:45:14.81,-170,330,-2140,285,-229,434,-527,-1054,527,790
,454,2023-10-27 11:45:14.82,-185,294,-2068,446,-263,448,-521,-1168,647,844
,455,2023-10-27 11:45:14.83,-156,305,-1962,495,-257,420,-399,-1045,646,722
,456,2023-10-27 11:45:14.84,-165,272,-1881,447,-191,410,-340,-1144,804,742
,457,2023-10-27 11:45:14.85,-224,301,-1893,342,-113,425,-232,-992,760,612
,458,2023-10-27 11:45:14.86,-305,405,-1926,203,-86,456,-126,-1118,992,622
,459,2023-10-27 11:45:14.87,-399,521,-1935,33,-140,475,3,-1024,1027,510
,460,2023-10-27 11:45:14.88,-474,627,-1994,-130,-236,422,232,-1175,1407,471
,461,2023-10-27 11:45:14.89,-636,690,-2064,-320,-299,298,344,-1086,1430,371
,462,2023-10-27 11:45:14.90,-553,803,-2074,-516,-307,180,613,-1176,1789,281
,463,2023-10-27 11:45:14.91,-594,770,-2188,-787,-259,65,625,-1022,1647,198
,464,2023-10-27 11:45:14.92,-594,526,-2133,-1087,-214,-76,868,-1118,1986,125
,465,2023-10-27 11:45:14.93,-521,257,-2024,-1272,-177,-255,696,-1013,1709,158
,466,2023-10-27 11:45:14.94,-414,36,-1954,-1364,-111,-356,755,-1146,1901,195
,467,2023-10-27 11:45:14.95,-329,-128,-1899,-1391,-42,-329,382,-1060,1442,339
,468,2023-10-27 11:45:14.96,-213,-218,-1931,-1347,-42,-242,154,-1182,1336,514
,469,2023-10-27 11:45:14.97,-140,-196,-1845,-1117,-125,-214,-119,-1079,960,599
,470,2023-10-27 11:45:14.98,-94,-20,-1827,-675,-191,-221,-299,-1179,880,739
,471,2023-10-27 11:45:14.99,-7,218,-1922,-233,-194,-165,-457,-1069,612,763
,472,2023-10-27 11:45:15.00,12,392,-1909,212,-193,-95,-640,-1183,543,911
,473,2023-10-27 11:45:15.01,34,396,-1904,626,-227,-30,-678,-1096,418,887
,474,2023-10-27 11:45:15.02,68,356,-1872,932,-303,4,-681,-1164,483,922
,475,2023-10-27 11:45:15.03,-13,331,-1832,1176,-384,24,-630,-1024,394,827
,476,2023-10-27 11:45:15.04,-64,363,-1793,1285,-443,109,-588,-1088,500,838
,477,2023-10-27 11:45:15.05,-249,381,-1919,1224,-442,190,-550,-983,433,766
,478,2023-10-27 11:45:15.06,-415,456,-2016,972,-365,217,-444,-1113,669,778
,479,2023-10-27 11:45:15.07,-599,450,-2159,596,-229,259,-352,-1052,700,702
,480,2023-10-27 11:45:15.08,-747,541,-2435,213,-191,315,-114,-1160,1046,637
,481,2023-10-27 11:45:15.09,-814,718,-2553,-74,-217,348,82,-1074,1156,496
,482,2023-10-27 11:45:15.10,-940,956,-2483,-329,-182,297,423,-1172,1595,374
,483,2023-10-27 11:45:15.11,-881,1074,-2333,-567,-28,154,557,-1097,1654,270
,484,2023-10-27 11:45:15.12,-782,1025,-2310,-720,111,-6,769,-1143,1912,187
,485,2023-10-27 11:45:15.13,-720,741,-2380,-785,87,-150,639,-1027,1666,194
,486,2023-10-27 11:45:15.14,-584,382,-2179,-910,52,-272,629,-1111,1740,241
,487,2023-10-27 11:45:15.15,-431,58,-1751,-988,-1,-316,186,-1057,1243,435
,488,2023-10-27 11:45:15.16,-314,-27,-1565,-815,-103,-302,-51,-1163,1112,607
,489,2023-10-27 11:45:15.17,-225,15,-1445,-513,-238,-253,-413,-1104,691,758
,490,2023-10-27 11:45:15.18,-203,-18,-1276,-226,-270,-207,-574,-1180,606,877
,491,2023-10-27 11:45:15.19,-245,110,-1339,37,-221,-142,-680,-1110,430,895
,492,2023-10-27 11:45:15.20,-216,124,-1490,260,-200,-54,-643,-1184,541,913
,493,2023-10-27 11:45:15.21,-223,125,-1600,522,-199,-2,-650,-1123,473,886
,494,2023-10-27 11:45:15.22,-236,172,-1691,769,-185,64,-559,-1180,621,869
,495,2023-10-27 11:45:15.23,-225,191,-1755,962,-112,156,-574,-1106,532,840
,496,2023-10-27 11:45:15.24,-245,252,-1756,1089,-17,220,-432,-1139,707,785
,497,2023-10-27 11:45:15.25,-297,339,-1779,1179,83,208,-423,-1062,639,742
,498,2023-10-27 11:45:15.26,-350,479,-1961,1255,156,179,-215,-1110,895,662
,499,2023-10-27 11:45:15.27,-385,517,-2088,1303,176,184,-214,-1054,840,634
,500,2023-10-27 11:45:15.28,-482,559,-2217,1354,129,207,4,-1092,1096,544
,501,2023-10-27 11:45:15.29,-510,696,-2290,1373,38,259,7,-1034,1041,513
,502,2023-10-27 11:45:15.30,-627,719,-2300,1326,-16,316,234,-1059,1293,412
,503,2023-10-27 11:45:15.31,-659,737,-2285,1220,-33,350,168,-1009,1177,420
,504,2023-10-27 11:45:15.32,-732,771,-2345,1089,9,346,352,-997,1349,322
,505,2023-10-27 11:45:15.33,-743,710,-2457,962,44,302,238,-944,1182,353
,506,2023-10-27 11:45:15.34,-717,595,-2458,876,64,221,396,-942,1338,273
,507,2023-10-27 11:45:15.35,-690,486,-2330,801,100,135,257,-926,1183,334
,508,2023-10-27 11:45:15.36,-676,368,-2202,773,138,40,412,-1032,1444,310
,509,2023-10-27 11:45:15.37,-643,269,-2065,836,150,-50,219,-1063,1282,422
,510,2023-10-27 11:45:15.38,-592,187,-1981,916,145,-114,336,-1096,1432,380
,511,2023-10-27 11:45:15.39,-584,98,-1934,994,155,-179,118,-1065,1183,473
,512,2023-10-27 11:45:15.40,-526,-8,-1790,1036,162,-242,202,-1073,1275,435
,513,2023-10-27 11:45:15.41,-486,-56,-1650,1099,201,-296,-41,-1062,1021,551
,514,2023-10-27 11:45:15.42,-468,-103,-1600,1180,239,-329,37,-1095,1132,529
,515,2023-10-27 11:45:15.43,-437,-150,-1555,1225,283,-358,-146,-1098,952,622
,516,2023-10-27 11:45:15.44,-426,-164,-1585,1223,320,-378,-10,-1121,1111,565
,517,2023-10-27 11:45:15.45,-385,-182,-1594,1250,315,-408,-147,-1117,970,632
,518,2023-10-27 11:45:15.46,-352,-226,-1598,1258,326,-418,0,-1131,1131,565
,519,2023-10-27 11:45:15.47,-370,-273,-1680,1257,303,-427,-130,-1128,998,629
,520,2023-10-27 11:45:15.48,-364,-306,-1767,1235,220,-460,25,-1128,1153,551
,521,2023-10-27 11:45:15.49,-347,-361,-1862,1144,150,-483,-88,-1128,1040,608
,522,2023-10-27 11:45:15.50,-376,-390,-2024,977,100,-475,74,-1122,1196,524
,523,2023-10-27 11:45:15.51,-415,-362,-2130,775,66,-461,-31,-1127,1096,579
,524,2023-10-27 11:45:15.52,-406,-333,-2111,565,23,-459,116,-1145,1261,514
,525,2023-10-27 11:45:15.53,-408,-301,-2154,313,38,-438,-19,-1172,1153,595
,526,2023-10-27 11:45:15.54,-422,-268,-2242,79,64,-424,117,-1170,1287,526
,527,2023-10-27 11:45:15.55,-367,-343,-2226,-173,96,-405,-25,-1177,1152,601
,528,2023-10-27 11:45:15.56,-355,-411,-2152,-394,123,-397,101,-1136,1237,517
,529,2023-10-27 11:45:15.57,-309,-447,-2140,-557,115,-371,-87,-1140,1053,613
,530,2023-10-27 11:45:15.58,-242,-507,-2194,-692,104,-303,9,-1120,1129,555
,531,2023-10-27 11:45:15.59,-241,-473,-2054,-753,117,-228,-203,-1150,947,676
,532,2023-10-27 11:45:15.60,-179,-484,-1980,-691,23,-178,-108,-1121,1013,614
,533,2023-10-27 11:45:15.61,-216,-438,-1909,-615,82,-144,-302,-1148,846,725
,534,2023-10-27 11:45:15.62,-191,-429,-1869,-524,115,-106,-178,-1147,969,662
,535,2023-10-27 11:45:15.63,-201,-459,-1854,-417,142,-75,-365,-1194,829,779
,536,2023-10-27 11:45:15.64,-157,-455,-1891,-295,155,-29,-230,-1165,935,697
,537,2023-10-27 11:45:15.65,-115,-440,-1919,-163,156,48,-400,-1193,793,796
,538,2023-10-27 11:45:15.66,-126,-387,-1964,-33,151,119,-245,-1143,898,694
,539,2023-10-27 11:45:15.67,-129,-352,-1969,68,122,151,-366,-1175,809,770
,540,2023-10-27 11:45:15.68,-145,-277,-1984,125,115,160,-161,-1142,981,651
,541,2023-10-27 11:45:15.69,-166,-221,-2044,173,114,163,-262,-1192,930,727
,542,2023-10-27 11:45:15.70,-169,-194,-2098,208,117,157,-55,-1149,1094,602
,543,2023-10-27 11:45:15.71,-205,-146,-2148,224,107,154,-125,-1194,1069,659
,544,2023-10-27 11:45:15.72,-215,-44,-2188,235,83,113,74,-1143,1217,534
,545,2023-10-27 11:45:15.73,-251,-101,-2098,219,61,35,4,-1191,1195,593
,546,2023-10-27 11:45:15.74,-266,-90,-2089,189,46,-45,175,-1124,1299,474
,547,2023-10-27 11:45:15.75,-319,-143,-2097,138,33,-132,94,-1178,1272,542
,548,2023-10-27 11:45:15.76,-319,-182,-2043,83,8,-239,230,-1129,1359,449
,549,2023-10-27 11:45:15.77,-343,-220,-1981,25,-7,-361,136,-1191,1327,527
,550,2023-10-27 11:45:15.78,-361,-227,-1984,-33,5,-482,257,-1098,1355,420
,551,2023-10-27 11:45:15.79,-375,-258,-1969,-94,16,-611,211,-1155,1366,472
,552,2023-10-27 11:45:15.80,-411,-278,-1940,-160,7,-745,330,-1116,1446,393
,553,2023-10-27 11:45:15.81,-421,-272,-1902,-256,11,-901,332,-1206,1538,437
,554,2023-10-27 11:45:15.82,-413,-300,-1916,-412,38,-1059,427,-1156,1583,364
,555,2023-10-27 11:45:15.83,-390,-360,-1935,-581,95,-1229,416,-1223,1639,403
,556,2023-10-27 11:45:15.84,-342,-373,-1954,-726,149,-1381,453,-1138,1591,342
,557,2023-10-27 11:45:15.85,-339,-363,-1950,-891,193,-1499,434,-1202,1636,384
,558,2023-10-27 11:45:15.86,-417,-454,-2009,-1100,218,-1583,457,-1129,1586,336
,559,2023-10-27 11:45:15.87,-379,-636,-2089,-1281,123,-1623,428,-1210,1638,391
,560,2023-10-27 11:45:15.88,-315,-801,-2126,-1393,-65,-1555,397,-1138,1535,370
,561,2023-10-27 11:45:15.89,-217,-939,-2085,-1552,-203,-1347,90,-1219,1309,564
,562,2023-10-27 11:45:15.90,-168,-1036,-2076,-1715,-230,-1054,16,-1130,1146,557
,563,2023-10-27 11:45:15.91,-128,-974,-2046,-1825,-217,-728,-285,-1207,922,746
,564,2023-10-27 11:45:15.92,-154,-787,-1958,-1846,-195,-411,-225,-1109,884,667
,565,2023-10-27 11:45:15.93,-218,-628,-1832,-1770,-216,-162,-352,-1191,839,771
,566,2023-10-27 11:45:15.94,-200,-569,-1830,-1633,-261,76,-192,-1096,904,644
,567,2023-10-27 11:45:15.95,-185,-520,-1989,-1414,-331,334,-351,-1192,841,771
,568,2023-10-27 11:45:15.96,-122,-287,-2036,-1058,-421,577,-230,-1104,874,667
,569,2023-10-27 11:45:15.97,-70,-131,-1997,-762,-478,848,-424,-1198,774,811
,570,2023-10-27 11:45:15.98,-127,14,-2086,-507,-463,1050,-286,-1087,801,686
,571,2023-10-27 11:45:15.99,-125,174,-2150,-247,-488,1181,-402,-1180,778,791
,572,2023-10-27 11:45:16.00,-147,285,-2203,26,-522,1280,-234,-1087,853,660
,573,2023-10-27 11:45:16.01,-125,420,-2203,348,-594,1346,-360,-1196,836,778
,574,2023-10-27 11:45:16.02,-194,519,-2190,542,-549,1410,-208,-1094,886,651
,575,2023-10-27 11:45:16.03,-282,637,-2180,639,-440,1427,-284,-1195,911,739
,576,2023-10-27 11:45:16.04,-304,714,-2143,648,-312,1422,-102,-1089,987,595
,577,2023-10-27 11:45:16.05,-356,765,-2110,630,-179,1347,-77,-1197,1120,637
,578,2023-10-27 11:45:16.06,-383,801,-1989,616,-17,1206,99,-1088,1187,494
,579,2023-10-27 11:45:16.07,-370,791,-1943,623,136,1032,173,-1196,1369,511
,580,2023-10-27 11:45:16.08,-358,711,-1964,692,234,839,298,-1088,1386,395
,581,2023-10-27 11:45:16.09,-344,644,-1976,762,277,630,430,-1191,1621,380
,582,2023-10-27 11:45:16.10,-327,572,-1898,771,308,411,507,-1061,1568,277
,583,2023-10-27 11:45:16.11,-337,478,-1854,770,275,169,708,-1174,1882,233
,584,2023-10-27 11:45:16.12,-328,407,-1890,738,225,-99,690,-1084,1774,197
,585,2023-10-27 11:45:16.13,-285,253,-1895,654,163,-323,809,-1210,2019,200
,586,2023-10-27 11:45:16.14,-235,136,-1965,593,72,-472,641,-1104,1745,231
,587,2023-10-27 11:45:16.15,-217,-21,-2001,524,-17,-549,608,-1222,1830,307
,588,2023-10-27 11:45:16.16,-243,-185,-1903,239,-13,-617,449,-1123,1572,337
,589,2023-10-27 11:45:16.17,-281,-207,-2005,32,13,-615,428,-1228,1656,400
,590,2023-10-27 11:45:16.18,-300,-284,-2044,-183,-15,-602,340,-1094,1434,377
,591,2023-10-27 11:45:16.19,-289,-330,-2015,-380,-89,-574,376,-1198,1574,411
,592,2023-10-27 11:45:16.20,-293,-348,-2037,-576,-129,-496,289,-1073,1362,392
,593,2023-10-27 11:45:16.21,-293,-403,-2059,-756,-151,-374,250,-1179,1429,464
,594,2023-10-27 11:45:16.22,-273,-388,-2060,-902,-183,-250,158,-1042,1200,442
,595,2023-10-27 11:45:16.23,-297,-308,-2024,-991,-226,-135,117,-1168,1285,525
,596,2023-10-27 11:45:16.24,-323,-223,-1882,-1020,-244,-41,58,-1070,1128,506
,597,2023-10-27 11:45:16.25,-336,-170,-1944,-921,-346,40,10,-1206,1216,598
,598,2023-10-27 11:45:16.26,-354,-83,-1983,-756,-348,115,-54,-1100,1046,577
,599,2023-10-27 11:45:16.27,-353,25,-1999,-585,-338,207,-183,-1210,1027,696
,600,2023-10-27 11:45:16.28,-400,104,-2037,-409,-324,274,-216,-1074,858,645
,601,2023-10-27 11:45:16.29,-409,257,-2031,-221,-303,311,-295,-1187,892,741
,602,2023-10-27 11:45:16.30,-411,298,-2030,-26,-272,336,-260,-1069,809,664
,603,2023-10-27 11:45:16.31,-407,307,-2112,185,-214,341,-293,-1182,889,737
,604,2023-10-27 11:45:16.32,-431,311,-2145,392,-172,337,-236,-1044,808,640
,605,2023-10-27 11:45:16.33,-448,335,-2132,580,-190,359,-248,-1182,934,715
,606,2023-10-27 11:45:16.34,-462,346,-2134,735,-223,365,-180,-1104,924,642
,607,2023-10-27 11:45:16.35,-486,384,-2059,793,-200,337,-114,-1236,1122,675
,608,2023-10-27 11:45:16.36,-512,397,-2017,806,-144,286,-39,-1118,1079,578
,609,2023-10-27 11:45:16.37,-489,383,-2026,797,-61,241,56,-1216,1272,580
,610,2023-10-27 11:45:16.38,-466,328,-2031,771,4,193,109,-1078,1187,484
,611,2023-10-27 11:45:16.39,-477,288,-1992,753,61,127,231,-1195,1426,482
,612,2023-10-27 11:45:16.40,-480,261,-1982,739,83,57,235,-1092,1327,428
,613,2023-10-27 11:45:16.41,-468,268,-2047,711,80,-1,356,-1223,1579,433
,614,2023-10-27 11:45:16.42,-440,244,-2001,670,28,-67,323,-1126,1449,401
,615,2023-10-27 11:45:16.43,-436,173,-1959,583,-24,-147,457,-1229,1686,386
,616,2023-10-27 11:45:16.44,-438,70,-1948,435,-46,-232,402,-1090,1492,344
,617,2023-10-27 11:45:16.45,-435,-24,-1925,258,-54,-293,536,-1181,1717,322
,618,2023-10-27 11:45:16.46,-429,-91,-1917,66,-35,-323,427,-1056,1483,314
,619,2023-10-27 11:45:16.47,-427,-186,-1887,-129,10,-329,536,-1187,1723,325
,620,2023-10-27 11:45:16.48,-423,-252,-1881,-307,48,-310,405,-1099,1504,347
,621,2023-10-27 11:45:16.49,-423,-291,-1843,-483,70,-276,476,-1218,1694,371
,622,2023-10-27 11:45:16.50,-427,-320,-1860,-644,94,-249,352,-1108,1460,378
,623,2023-10-27 11:45:16.51,-401,-364,-1878,-785,130,-220,426,-1226,1652,400
,624,2023-10-27 11:45:16.52,-420,-443,-1977,-876,148,-184,312,-1127,1439,407
,625,2023-10-27 11:45:16.53,-364,-514,-1972,-875,109,-138,375,-1234,1609,429
,626,2023-10-27 11:45:16.54,-322,-536,-1880,-862,85,-37,222,-1124,1346,451
,627,2023-10-27 11:45:16.55,-282,-525,-1834,-821,94,80,217,-1229,1446,506
,628,2023-10-27 11:45:16.56,-233,-483,-1845,-752,107,214,46,-1131,1177,542
,629,2023-10-27 11:45:16.57,-229,-321,-1860,-584,118,346,6,-1231,1237,612
,630,2023-10-27 11:45:16.58,-253,-150,-1930,-406,118,504,-136,-1123,987,629
,631,2023-10-27 11:45:16.59,-310,-2,-2044,-207,72,622,-180,-1218,1038,699
,632,2023-10-27 11:45:16.60,-377,117,-2085,-11,-31,697,-250,-1120,870,685
,633,2023-10-27 11:45:16.61,-466,265,-2084,202,-173,713,-192,-1218,1026,705
,634,2023-10-27 11:45:16.62,-482,406,-2074,387,-280,697,-217,-1127,910,672
,635,2023-10-27 11:45:16.63,-484,515,-2142,538,-326,686,-157,-1202,1045,679
,636,2023-10-27 11:45:16.64,-519,635,-2209,616,-360,674,-204,-1087,883,645
,637,2023-10-27 11:45:16.65,-545,727,-2217,587,-345,641,-131,-1168,1037,649
,638,2023-10-27 11:45:16.66,-577,823,-2194,497,-304,588,-124,-1081,957,602
,639,2023-10-27 11:45:16.67,-513,879,-2161,376,-269,534,36,-1154,1190,559
,640,2023-10-27 11:45:16.68,-479,841,-2086,321,-230,456,16,-1058,1074,521
,641,2023-10-27 11:45:16.69,-405,860,-2070,353,-207,368,122,-1166,1288,522
,642,2023-10-27 11:45:16.70,-416,772,-2074,354,-155,290,23,-1115,1138,546
,643,2023-10-27 11:45:16.71,-455,655,-2084,355,-134,204,96,-1193,1289,548
,644,2023-10-27 11:45:16.72,-529,521,-2155,340,-146,124,3,-1106,1109,551
,645,2023-10-27 11:45:16.73,-587,432,-2170,325,-198,55,62,-1186,1248,562
,646,2023-10-27 11:45:16.74,-659,297,-2153,285,-226,22,-55,-1122,1067,588
,647,2023-10-27 11:45:16.75,-750,155,-2135,286,-241,-4,-28,-1184,1156,606
,648,2023-10-27 11:45:16.76,-848,32,-2098,324,-243,-49,-135,-1106,971,620
,649,2023-10-27 11:45:16.77,-941,-89,-2201,392,-239,-105,-84,-1148,1064,616
,650,2023-10-27 11:45:16.78,-909,-233,-2220,475,-301,-173,-144,-1068,924,606
,651,2023-10-27 11:45:16.79,-827,-336,-2082,651,-411,-278,-67,-1040,973,553
,652,2023-10-27 11:45:16.80,-634,-350,-1788,908,-485,-423,-170,-948,778,559
,653,2023-10-27 11:45:16.81,-443,-354,-1464,1088,-412,-585,-150,-1024,874,587
,654,2023-10-27 11:45:16.82,-320,-333,-1313,1152,-186,-723,-286,-1018,732,652
,655,2023-10-27 11:45:16.83,-209,-392,-1468,1166,36,-784,-228,-1057,829,642
,656,2023-10-27 11:45:16.84,-113,-489,-1700,1198,120,-754,-301,-1003,702,652
,657,2023-10-27 11:45:16.85,-44,-382,-1734,1223,121,-650,-156,-1016,860,586
,658,2023-10-27 11:45:16.86,-13,-328,-1689,1198,177,-502,-206,-978,772,592
,659,2023-10-27 11:45:16.87,-6,-375,-1798,1106,290,-377,-39,-1085,1046,562
,660,2023-10-27 11:45:16.88,-6,-328,-1843,933,423,-295,-73,-1094,1021,583
,661,2023-10-27 11:45:16.89,-28,-323,-1830,734,473,-221,146,-1145,1291,499
,662,2023-10-27 11:45:16.90,-128,-414,-1962,535,529,-143,99,-1109,1208,505
,663,2023-10-27 11:45:16.91,-212,-490,-2103,368,492,-31,292,-1161,1453,434
,664,2023-10-27 11:45:16.92,-204,-616,-2183,230,351,89,193,-1144,1337,475
,665,2023-10-27 11:45:16.93,-232,-734,-2201,111,196,225,382,-1166,1548,392
,666,2023-10-27 11:45:16.94,-210,-781,-2243,12,101,355,192,-1124,1316,466
,667,2023-10-27 11:45:16.95,-191,-718,-2162,-72,81,452,304,-1111,1415,403
,668,2023-10-27 11:45:16.96,-211,-630,-2081,-105,42,502,126,-1065,1191,469
,669,2023-10-27 11:45:16.97,-229,-470,-2073,-92,48,504,277,-1061,1338,392
,670,2023-10-27 11:45:16.98,-187,-353,-2076,-49,65,513,144,-1037,1181,446
,671,2023-10-27 11:45:16.99,-208,-272,-2131,15,23,553,316,-984,1300,334
,672,2023-10-27 11:45:17.00,-246,-168,-2127,117,-67,571,194,-963,1157,384
,673,2023-10-27 11:45:17.01,-300,-66,-2093,207,-145,551,369,-1004,1373,317
,674,2023-10-27 11:45:17.02,-344,-11,-2082,266,-190,512,234,-1042,1276,404
,675,2023-10-27 11:45:17.03,-410,11,-2076,301,-194,498,378,-1106,1484,364
,676,2023-10-27 11:45:17.04,-482,-5,-2080,312,-219,480,232,-1132,1364,450
,677,2023-10-27 11:45:17.05,-514,-21,-2075,309,-230,447,378,-1168,1546,395
,678,2023-10-27 11:45:17.06,-529,-70,-2061,317,-239,420,236,-1176,1412,470
,679,2023-10-27 11:45:17.07,-536,-132,-2042,338,-248,406,368,-1181,1549,406
,680,2023-10-27 11:45:17.08,-566,-177,-1993,355,-237,380,206,-1176,1382,485
,681,2023-10-27 11:45:17.09,-578,-200,-1954,365,-203,342,322,-1176,1498,427
,682,2023-10-27 11:45:17.10,-591,-224,-1901,381,-183,301,166,-1183,1349,508
,683,2023-10-27 11:45:17.11,-616,-270,-1854,396,-180,285,275,-1170,1445,447
,684,2023-10-27 11:45:17.12,-642,-307,-1888,397,-192,265,114,-1176,1290,531
,685,2023-10-27 11:45:17.13,-627,-377,-1852,398,-232,221,232,-1162,1394,465
,686,2023-10-27 11:45:17.14,-637,-437,-1797,374,-254,179,102,-1178,1280,538
,687,2023-10-27 11:45:17.15,-623,-454,-1802,338,-260,154,213,-1160,1373,473
,688,2023-10-27 11:45:17.16,-653,-439,-1830,259,-260,125,92,-1177,1269,542
,689,2023-10-27 11:45:17.17,-686,-460,-1893,154,-261,82,224,-1152,1376,464
,690,2023-10-27 11:45:17.18,-688,-448,-1936,6,-284,57,138,-1177,1315,519
,691,2023-10-27 11:45:17.19,-702,-451,-1969,-140,-329,25,272,-1165,1437,446
,692,2023-10-27 11:45:17.20,-710,-427,-1966,-290,-366,-9,209,-1201,1410,496
,693,2023-10-27 11:45:17.21,-725,-386,-1997,-492,-384,-40,328,-1180,1508,426
,694,2023-10-27 11:45:17.22,-716,-411,-2022,-728,-395,-71,251,-1214,1465,481
,695,2023-10-27 11:45:17.23,-698,-430,-2011,-932,-415,-113,339,-1179,1518,420
,696,2023-10-27 11:45:17.24,-634,-459,-1998,-1138,-421,-110,215,-1209,1424,497
,697,2023-10-27 11:45:17.25,-610,-521,-1973,-1269,-438,-80,282,-1164,1446,441
,698,2023-10-27 11:45:17.26,-582,-498,-1961,-1319,-479,-51,112,-1197,1309,542
,699,2023-10-27 11:45:17.27,-553,-470,-1939,-1326,-514,-16,167,-1143,1310,488
,700,2023-10-27 11:45:17.28,-527,-419,-1867,-1290,-540,15,-2,-1184,1182,593
,701,2023-10-27 11:45:17.29,-516,-356,-1766,-1204,-532,30,68,-1147,1215,539
,702,2023-10-27 11:45:17.30,-510,-311,-1669,-1049,-485,47,-112,-1199,1087,655
,703,2023-10-27 11:45:17.31,-540,-198,-1641,-902,-391,81,-38,-1149,1111,593
,704,2023-10-27 11:45:17.32,-563,-117,-1699,-768,-290,104,-192,-1199,1007,695
,705,2023-10-27 11:45:17.33,-560,-87,-1743,-645,-211,103,-78,-1150,1072,614
,706,2023-10-27 11:45:17.34,-590,-32,-1798,-549,-146,118,-202,-1193,991,697
,707,2023-10-27 11:45:17.35,-605,18,-1773,-420,-102,114,-71,-1084,1013,577
,708,2023-10-27 11:45:17.36,-643,84,-1749,-288,-68,99,-178,-1136,958,657
,709,2023-10-27 11:45:17.37,-680,121,-1828,-160,-45,74,-23,-1090,1067,556
,710,2023-10-27 11:45:17.38,-707,134,-1912,-31,-54,33,-88,-1176,1088,632
,711,2023-10-27 11:45:17.39,-742,125,-1989,50,-58,4,69,-1102,1171,516
,712,2023-10-27 11:45:17.40,-757,129,-2012,107,-51,-23,12,-1168,1180,578
,713,2023-10-27 11:45:17.41,-804,140,-2053,134,-37,-46,147,-1099,1246,476
,714,2023-10-27 11:45:17.42,-816,159,-2102,122,-42,-68,115,-1183,1298,534
,715,2023-10-27 11:45:17.43,-840,171,-2113,84,-68,-104,240,-1120,1360,440
,716,2023-10-27 11:45:17.44,-877,181,-2101,13,-93,-148,238,-1200,1438,481
,717,2023-10-27 11:45:17.45,-874,174,-2089,-87,-105,-191,346,-1124,1470,389
,718,2023-10-27 11:45:17.46,-844,180,-2067,-194,-122,-224,338,-1206,1544,434
,719,2023-10-27 11:45:17.47,-835,152,-2003,-306,-123,-262,386,-1130,1516,372
,720,2023-10-27 11:45:17.48,-798,119,-1926,-360,-116,-328,337,-1219,1556,441
,721,2023-10-27 11:45:17.49,-795,113,-1873,-377,-75,-372,351,-1149,1500,399
,722,2023-10-27 11:45:17.50,-780,85,-1856,-358,-46,-382,239,-1233,1472,497
,723,2023-10-27 11:45:17.51,-749,95,-1835,-317,-67,-394,253,-1136,1389,441
,724,2023-10-27 11:45:17.52,-739,35,-1776,-271,-99,-443,172,-1205,1377,516
,725,2023-10-27 11:45:17.53,-689,20,-1764,-220,-75,-472,214,-1070,1284,428
,726,2023-10-27 11:45:17.54,-655,8,-1773,-165,-20,-454,94,-1143,1237,524
,727,2023-10-27 11:45:17.55,-657,3,-1792,-65,0,-425,140,-1027,1167,443
,728,2023-10-27 11:45:17.56,-654,9,-1789,39,-12,-428,90,-1141,1231,525
,729,2023-10-27 11:45:17.57,-637,21,-1770,130,-29,-453,184,-1065,1249,440
,730,2023-10-27 11:45:17.58,-639,14,-1843,179,-5,-455,186,-1184,1370,499
,731,2023-10-27 11:45:17.59,-655,-27,-1888,225,22,-444,276,-1086,1362,405
,732,2023-10-27 11:45:17.60,-649,-44,-1883,220,62,-416,296,-1162,1458,433
,733,2023-10-27 11:45:17.61,-676,-30,-1892,199,95,-411,370,-999,1369,314
,734,2023-10-27 11:45:17.62,-703,-33,-1934,154,80,-438,456,-1104,1560,324
,735,2023-10-27 11:45:17.63,-723,-40,-2009,15,37,-472,511,-1019,1530,254
,736,2023-10-27 11:45:17.64,-737,-91,-2054,-203,-32,-515,660,-1154,1814,247
,737,2023-10-27 11:45:17.65,-703,-119,-1983,-468,-103,-567,677,-1048,1725,185
,738,2023-10-27 11:45:17.66,-759,-168,-1755,-770,-119,-648,876,-1160,2036,142
,739,2023-10-27 11:45:17.67,-815,-216,-1815,-1132,-41,-709,765,-1046,1811,140
,740,2023-10-27 11:45:17.68,-778,-390,-1963,-1549,48,-707,867,-1165,2032,149
,741,2023-10-27 11:45:17.69,-709,-636,-1876,-1895,71,-629,592,-1053,1645,230
,742,2023-10-27 11:45:17.70,-729,-721,-1738,-2063,79,-508,384,-1165,1549,390
,743,2023-10-27 11:45:17.71,-674,-691,-1707,-2093,123,-339,112,-1038,1150,463
,744,2023-10-27 11:45:17.72,-606,-586,-1669,-1921,158,-168,-268,-1168,900,718
,745,2023-10-27 11:45:17.73,-605,-289,-1779,-1576,151,-38,-384,-1072,688,728
,746,2023-10-27 11:45:17.74,-579,-111,-1853,-1250,128,75,-595,-1182,587,888
,747,2023-10-27 11:45:17.75,-605,-13,-1830,-946,118,126,-520,-1020,500,770
,748,2023-10-27 11:45:17.76,-610,145,-1872,-611,91,145,-570,-1138,568,854
,749,2023-10-27 11:45:17.77,-641,206,-1940,-299,7,193,-445,-1038,593,741
,750,2023-10-27 11:45:17.78,-649,146,-1882,-74,-28,242,-494,-1160,666,827
,751,2023-10-27 11:45:17.79,-648,252,-1928,111,31,299,-379,-1018,639,698
,752,2023-10-27 11:45:17.80,-676,336,-1962,265,90,356,-380,-1121,741,750
,753,2023-10-27 11:45:17.81,-693,364,-2029,369,159,412,-232,-982,750,607
,754,2023-10-27 11:45:17.82,-674,358,-2118,431,206,437,-124,-1099,975,611
,755,2023-10-27 11:45:17.83,-645,353,-2147,474,250,427,16,-966,982,475
,756,2023-10-27 11:45:17.84,-626,348,-2119,549,271,396,128,-1124,1252,498
,757,2023-10-27 11:45:17.85,-563,331,-2112,630,296,388,169,-1041,1210,436
,758,2023-10-27 11:45:17.86,-531,311,-2074,745,302,414,227,-1187,1414,480
,759,2023-10-27 11:45:17.87,-506,320,-2066,862,302,447,224,-1069,1293,422
,760,2023-10-27 11:45:17.88,-506,311,-2080,899,321,487,279,-1161,1440,441
,761,2023-10-27 11:45:17.89,-524,242,-2032,877,330,489,256,-1000,1256,372
,762,2023-10-27 11:45:17.90,-549,153,-1989,812,341,470,316,-1103,1419,393
,763,2023-10-27 11:45:17.91,-513,118,-1955,755,367,466,259,-973,1232,357
,764,2023-10-27 11:45:17.92,-487,75,-1925,741,364,495,266,-1128,1394,431
,765,2023-10-27 11:45:17.93,-499,48,-1903,753,362,506,211,-1039,1250,414
,766,2023-10-27 11:45:17.94,-495,67,-1885,739,346,480,259,-1150,1409,445
,767,2023-10-27 11:45:17.95,-473,111,-1876,693,327,431,223,-1000,1223,388
,768,2023-10-27 11:45:17.96,-479,150,-1894,647,309,369,292,-1099,1391,403
,769,2023-10-27 11:45:17.97,-462,201,-1914,588,294,315,255,-970,1225,357
,770,2023-10-27 11:45:17.98,-462,263,-1967,502,278,277,352,-1121,1473,384
,771,2023-10-27 11:45:17.99,-471,182,-1965,439,248,230,296,-1036,1332,370
,772,2023-10-27 11:45:18.00,-463,189,-2008,369,199,200,393,-1161,1554,384
,773,2023-10-27 11:45:18.01,-468,157,-2024,287,156,198,309,-1037,1346,364
,774,2023-10-27 11:45:18.02,-465,119,-2062,184,96,196,386,-1082,1468,348
,775,2023-10-27 11:45:18.03,-459,126,-2061,53,65,200,291,-916,1207,312
,776,2023-10-27 11:45:18.04,-475,134,-2030,-80,59,189,370,-1008,1378,319
,777,2023-10-27 11:45:18.05,-476,185,-1985,-181,60,171,279,-909,1188,315
,778,2023-10-27 11:45:18.06,-489,204,-1969,-234,73,143,372,-1073,1445,350
,779,2023-10-27 11:45:18.07,-514,212,-1953,-232,62,109,266,-1012,1278,373
,780,2023-10-27 11:45:18.08,-525,230,-1959,-188,17,81,349,-1136,1485,393
,781,2023-10-27 11:45:18.09,-531,227,-1966,-148,-24,42,234,-1031,1265,398
,782,2023-10-27 11:45:18.10,-537,225,-1956,-136,-50,-15,315,-1134,1449,409
,783,2023-10-27 11:45:18.11,-548,240,-1957,-151,-41,-74,202,-1034,1236,416
,784,2023-10-27 11:45:18.12,-556,257,-1956,-147,-23,-125,302,-1154,1456,426
,785,2023-10-27 11:45:18.13,-555,273,-1948,-127,-17,-179,192,-1074,1266,441
,786,2023-10-27 11:45:18.14,-573,297,-1943,-91,-5,-227,312,-1140,1452,414
,787,2023-10-27 11:45:18.15,-597,322,-1969,-50,14,-283,213,-1020,1233,403
,788,2023-10-27 11:45:18.16,-596,334,-1989,-8,21,-348,364,-1029,1393,332
,789,2023-10-27 11:45:18.17,-612,335,-1997,27,27,-428,263,-905,1168,321
,790,2023-10-27 11:45:18.18,-620,339,-1993,53,31,-522,408,-1010,1418,301
,791,2023-10-27 11:45:18.19,-638,362,-1986,76,43,-623,298,-964,1262,333
,792,2023-10-27 11:45:18.20,-654,383,-1948,83,70,-738,457,-1078,1535,310
,793,2023-10-27 11:45:18.21,-662,488,-1892,80,160,-1057,367,-1013,1380,323
,794,2023-10-27 11:45:18.22,-658,543,-1893,69,215,-1265,580,-1110,1690,265
,795,2023-10-27 11:45:18.23,-651,578,-1899,70,260,-1520,525,-1046,1571,260
,796,2023-10-27 11:45:18.24,-640,620,-1907,71,295,-1804,794,-1178,1972,192
,797,2023-10-27 11:45:18.25,-619,661,-1883,61,333,-2115,752,-1130,1882,189
,798,2023-10-27 11:45:18.26,-579,681,-1870,32,376,-2435,1031,-1154,2185,61
,799,2023-10-27 11:45:18.27,-559,651,-1891,-12,429,-2757,926,-1039,1965,56
,800,2023-10-27 11:45:18.28,-519,611,-1926,-65,480,-3077,1089,-1006,2095,-41
,801,2023-10-27 11:45:18.29,-454,515,-1977,-116,519,-3377,915,-902,1817,-6
,802,2023-10-27 11:45:18.30,-410,434,-1867,-178,580,-3641,994,-803,1797,-95
,803,2023-10-27 11:45:18.31,-354,335,-1949,-217,587,-3872,768,-703,1471,-32
,804,2023-10-27 11:45:18.32,-284,258,-1997,-272,641,-4072,819,-556,1375,-131
,805,2023-10-27 11:45:18.33,-229,191,-2023,-319,668,-4238,627,-471,1098,-78
,806,2023-10-27 11:45:18.34,-165,149,-2027,-355,675,-4374,704,-316,1020,-194
,807,2023-10-27 11:45:18.35,-122,125,-2033,-379,661,-4486,543,-273,816,-135
,808,2023-10-27 11:45:18.36,-59,111,-2044,-408,638,-4581,676,-124,800,-276
,809,2023-10-27 11:45:18.37,-34,93,-2042,-440,609,-4662,540,-114,654,-213
,810,2023-10-27 11:45:18.38,35,106,-2033,-485,591,-4734,704,36,668,-370
,811,2023-10-27 11:45:18.39,69,82,-2071,-545,564,-4793,574,0,574,-287
,812,2023-10-27 11:45:18.40,112,70,-2089,-623,529,-4831,756,133,623,-444
,813,2023-10-27 11:45:18.41,133,-25,-2119,-700,484,-4851,609,69,540,-339
,814,2023-10-27 11:45:18.42,129,-65,-2188,-782,412,-4841,797,201,596,-499
,815,2023-10-27 11:45:18.43,182,7,-2190,-883,344,-4812,634,123,511,-378
,816,2023-10-27 11:45:18.44,188,-5,-2160,-996,281,-4773,820,250,570,-535
,817,2023-10-27 11:45:18.45,217,95,-2274,-1063,173,-4735,640,157,483,-398
,818,2023-10-27 11:45:18.46,220,20,-2190,-1182,155,-4686,822,278,544,-550
,819,2023-10-27 11:45:18.47,256,1,-2145,-1297,201,-4670,591,175,416,-383
,820,2023-10-27 11:45:18.48,280,18,-2121,-1403,202,-4642,781,286,495,-533
,821,2023-10-27 11:45:18.49,310,45,-2189,-1488,224,-4597,562,169,393,-365
,822,2023-10-27 11:45:18.50,248,-50,-2115,-1534,212,-4559,753,278,475,-515
,823,2023-10-27 11:45:18.51,274,245,-2301,-1565,169,-4495,549,173,376,-361
,824,2023-10-27 11:45:18.52,184,-96,-2230,-1605,88,-4408,740,286,454,-513
,825,2023-10-27 11:45:18.53,157,-179,-2276,-1616,8,-4288,543,173,370,-358
,826,2023-10-27 11:45:18.54,110,-263,-2338,-1652,-17,-4111,713,267,446,-490
,827,2023-10-27 11:45:18.55,137,-283,-2277,-1639,-131,-3924,499,149,350,-324
,828,2023-10-27 11:45:18.56,220,-192,-2270,-1609,-183,-3737,665,229,436,-447
,829,2023-10-27 11:45:18.57,243,-111,-2135,-1599,-165,-3581,483,140,343,-311
,830,2023-10-27 11:45:18.58,222,-86,-1958,-1592,-100,-3471,675,263,412,-469
,831,2023-10-27 11:45:18.59,227,25,-1951,-1587,51,-3362,490,169,321,-329
,832,2023-10-27 11:45:18.60,240,83,-1957,-1536,122,-3232,669,275,394,-472
,833,2023-10-27 11:45:18.61,214,83,-1951,-1408,131,-3129,483,148,335,-315
,834,2023-10-27 11:45:18.62,230,59,-1907,-1279,136,-3018,645,221,424,-433
,835,2023-10-27 11:45:18.63,216,22,-1867,-1190,206,-2892,468,106,362,-287
,836,2023-10-27 11:45:18.64,176,20,-1921,-1129,308,-2776,643,206,437,-424
,837,2023-10-27 11:45:18.65,151,-15,-1960,-1050,367,-2668,477,105,372,-291
,838,2023-10-27 11:45:18.66,128,-5,-1981,-933,379,-2556,642,214,428,-428
,839,2023-10-27 11:45:18.67,101,48,-1995,-803,368,-2424,471,110,361,-290
,840,2023-10-27 11:45:18.68,68,92,-1987,-718,378,-2288,630,202,428,-416
,841,2023-10-27 11:45:18.69,21,160,-2018,-675,381,-2152,446,74,372,-260
,842,2023-10-27 11:45:18.70,3,233,-2104,-642,358,-2020,585,153,432,-369
,843,2023-10-27 11:45:18.71,-9,296,-2130,-583,320,-1905,400,26,374,-213
,844,2023-10-27 11:45:18.72,-12,362,-2108,-494,257,-1808,530,99,431,-314
,845,2023-10-27 11:45:18.73,-27,401,-2106,-411,227,-1728,361,-7,368,-177
,846,2023-10-27 11:45:18.74,-28,447,-2068,-334,212,-1671,484,80,404,-282
,847,2023-10-27 11:45:18.75,-37,530,-2078,-258,212,-1626,321,-22,343,-149
,848,2023-10-27 11:45:18.76,-42,554,-2106,-195,216,-1584,440,62,378,-251
,849,2023-10-27 11:45:18.77,-71,610,-2121,-123,202,-1554,290,-52,342,-119
,850,2023-10-27 11:45:18.78,-93,643,-2100,-49,162,-1545,395,20,375,-207
,851,2023-10-27 11:45:18.79,-91,640,-2065,17,143,-1552,250,-70,320,-90
,852,2023-10-27 11:45:18.80,-119,617,-2064,96,137,-1570,354,24,330,-189
,853,2023-10-27 11:45:18.81,-139,627,-2072,186,110,-1585,212,-76,288,-68
,854,2023-10-27 11:45:18.82,-147,595,-2057,269,71,-1583,299,-1,300,-149
,855,2023-10-27 11:45:18.83,-159,572,-2032,327,49,-1564,150,-119,269,-15
,856,2023-10-27 11:45:18.84,-212,562,-2072,352,25,-1542,220,-46,266,-87
,857,2023-10-27 11:45:18.85,-197,527,-2040,344,11,-1522,84,-150,234,33
,858,2023-10-27 11:45:18.86,-207,513,-2034,346,14,-1506,152,-71,223,-40
,859,2023-10-27 11:45:18.87,-194,510,-2011,349,-9,-1489,1,-193,194,96
,860,2023-10-27 11:45:18.88,-183,492,-1989,337,-26,-1468,36,-131,167,47
,861,2023-10-27 11:45:18.89,-201,484,-1989,318,-29,-1451,-90,-247,157,168
,862,2023-10-27 11:45:18.90,-210,497,-2005,320,-31,-1452,-29,-173,144,101
,863,2023-10-27 11:45:18.91,-197,493,-2001,347,-54,-1451,-152,-304,152,228
,864,2023-10-27 11:45:18.92,-183,461,-1993,378,-89,-1440,-123,-248,125,185
,865,2023-10-27 11:45:18.93,-162,387,-1924,392,-117,-1420,-306,-409,103,357
,866,2023-10-27 11:45:18.94,-186,386,-1943,378,-79,-1397,-310,-371,61,340
,867,2023-10-27 11:45:18.95,-192,394,-1947,358,-83,-1375,-418,-503,85,460
,868,2023-10-27 11:45:18.96,-188,364,-1930,334,-62,-1348,-343,-421,78,382
,869,2023-10-27 11:45:18.97,-180,319,-1933,294,-34,-1293,-331,-489,158,410
,870,2023-10-27 11:45:18.98,-200,297,-1946,247,-6,-1241,-185,-350,165,267
,871,2023-10-27 11:45:18.99,-194,259,-1939,185,34,-1175,-86,-356,270,221
,872,2023-10-27 11:45:19.00,-185,282,-1952,129,69,-1116,73,-208,281,67
,873,2023-10-27 11:45:19.01,-166,276,-1929,97,81,-1056,280,-159,439,-60
,874,2023-10-27 11:45:19.02,-167,239,-1895,61,144,-991,489,8,481,-248
,875,2023-10-27 11:45:19.03,-177,249,-1931,9,198,-924,711,-96,807,-307
,876,2023-10-27 11:45:19.04,-194,216,-1952,-45,235,-851,807,-102,909,-352
,877,2023-10-27 11:45:19.05,-196,188,-1962,-82,245,-768,952,-140,1092,-406
,878,2023-10-27 11:45:19.06,-210,175,-1991,-93,238,-680,891,-13,904,-439
