// Data mode  : Full
// Data quality  : High
// Acceleration sensor's range  : 16g
// Gyroscope sensor's range  : 2000dps
//
//ARTIFACT,NUM,DATE,ACC_X,ACC_Y,ACC_Z,GYRO_X,GYRO_Y,GYRO_Z,EOG_L,EOG_R,EOG_H,EOG_V
,1,2023-10-27 12:03:51.14,50,-251,-2045,32,1,17,-102,-265,163,183
,2,2023-10-27 12:03:51.15,50,-251,-2031,31,6,16,-64,-225,161,144
,3,2023-10-27 12:03:51.16,44,-252,-2036,28,9,16,-102,-263,161,182
,4,2023-10-27 12:03:51.17,45,-257,-2039,23,15,12,-64,-225,161,144
,5,2023-10-27 12:03:51.18,43,-254,-2042,18,14,11,-104,-267,163,185
,6,2023-10-27 12:03:51.19,38,-254,-2046,18,16,16,-63,-220,157,141
,7,2023-10-27 12:03:51.20,38,-257,-2051,13,10,14,-103,-262,159,182
,8,2023-10-27 12:03:51.21,39,-250,-2055,7,11,16,-63,-218,155,140
,9,2023-10-27 12:03:51.22,57,-247,-2048,2,2,21,-109,-272,163,190
,10,2023-10-27 12:03:51.23,51,-255,-2042,2,0,19,-71,-226,155,148
,11,2023-10-27 12:03:51.24,47,-248,-2038,-2,2,19,-119,-275,156,197
,12,2023-10-27 12:03:51.25,40,-248,-2040,-3,0,18,-72,-223,151,147
,13,2023-10-27 12:03:51.26,37,-246,-2042,-3,5,17,-122,-283,161,202
,14,2023-10-27 12:03:51.27,36,-248,-2044,-3,1,13,-72,-232,160,152
,15,2023-10-27 12:03:51.28,35,-248,-2040,1,5,12,-130,-291,161,210
,16,2023-10-27 12:03:51.29,47,-248,-2046,1,4,12,-78,-233,155,155
,17,2023-10-27 12:03:51.30,49,-250,-2047,2,1,11,-118,-271,153,194
,18,2023-10-27 12:03:51.31,38,-250,-2046,2,-2,9,-70,-218,148,144
,19,2023-10-27 12:03:51.32,41,-254,-2050,6,-7,9,-132,-288,156,210
,20,2023-10-27 12:03:51.33,39,-254,-2041,3,-3,10,-76,-236,160,156
,21,2023-10-27 12:03:51.34,35,-249,-2043,2,0,9,-134,-294,160,214
,22,2023-10-27 12:03:51.35,40,-250,-2044,2,1,12,-76,-231,155,153
,23,2023-10-27 12:03:51.36,37,-250,-2046,1,4,16,-133,-287,154,210
,24,2023-10-27 12:03:51.37,54,-246,-2042,0,6,14,-72,-227,155,149
,25,2023-10-27 12:03:51.38,46,-250,-2046,1,7,17,-132,-291,159,211
,26,2023-10-27 12:03:51.39,36,-249,-2042,0,6,18,-72,-230,158,151
,27,2023-10-27 12:03:51.40,52,-245,-2044,2,9,20,-136,-291,155,213
,28,2023-10-27 12:03:51.41,40,-249,-2042,2,4,21,-73,-228,155,150
,29,2023-10-27 12:03:51.42,43,-251,-2035,3,9,23,-136,-290,154,213
,30,2023-10-27 12:03:51.43,28,-249,-2045,5,3,17,-74,-224,150,149
,31,2023-10-27 12:03:51.44,34,-250,-2044,9,2,18,-131,-285,154,208
,32,2023-10-27 12:03:51.45,43,-241,-2048,10,-1,19,-73,-226,153,149
,33,2023-10-27 12:03:51.46,37,-244,-2044,12,0,21,-137,-298,161,217
,34,2023-10-27 12:03:51.47,39,-245,-2042,14,-3,18,-78,-234,156,156
,35,2023-10-27 12:03:51.48,48,-243,-2039,12,3,20,-139,-299,160,219
,36,2023-10-27 12:03:51.49,48,-244,-2048,10,2,23,-78,-230,152,154
,37,2023-10-27 12:03:51.50,39,-245,-2045,10,3,25,-140,-299,159,219
,38,2023-10-27 12:03:51.51,34,-245,-2051,6,3,23,-80,-233,153,156
,39,2023-10-27 12:03:51.52,43,-246,-2040,6,2,24,-144,-306,162,225
,40,2023-10-27 12:03:51.53,34,-250,-2040,10,4,26,-76,-230,154,153
,41,2023-10-27 12:03:51.54,39,-247,-2039,10,3,23,-136,-301,165,218
,42,2023-10-27 12:03:51.55,47,-240,-2038,10,4,19,-67,-228,161,147
,43,2023-10-27 12:03:51.56,48,-243,-2044,16,0,20,-136,-307,171,221
,44,2023-10-27 12:03:51.57,32,-246,-2041,16,3,20,-69,-234,165,151
,45,2023-10-27 12:03:51.58,36,-248,-2042,18,6,17,-137,-308,171,222
,46,2023-10-27 12:03:51.59,35,-251,-2039,20,8,18,-67,-226,159,146
,47,2023-10-27 12:03:51.60,41,-246,-2038,19,9,17,-135,-299,164,217
,48,2023-10-27 12:03:51.61,30,-255,-2045,16,9,17,-64,-222,158,143
,49,2023-10-27 12:03:51.62,34,-260,-2045,21,1,17,-138,-304,166,221
,50,2023-10-27 12:03:51.63,46,-255,-2045,21,10,24,-70,-229,159,149
,51,2023-10-27 12:03:51.64,35,-254,-2042,18,7,23,-142,-311,169,226
,52,2023-10-27 12:03:51.65,41,-257,-2039,18,9,25,-67,-232,165,149
,53,2023-10-27 12:03:51.66,53,-248,-2053,17,8,28,-139,-303,164,221
,54,2023-10-27 12:03:51.67,49,-249,-2058,15,3,30,-65,-221,156,143
,55,2023-10-27 12:03:51.68,41,-243,-2058,12,-5,29,-137,-298,161,217
,56,2023-10-27 12:03:51.69,53,-243,-2046,8,-5,29,-68,-226,158,147
,57,2023-10-27 12:03:51.70,40,-246,-2044,11,-8,31,-143,-304,161,223
,58,2023-10-27 12:03:51.71,43,-238,-2048,11,-12,30,-65,-220,155,142
,59,2023-10-27 12:03:51.72,53,-238,-2040,12,-14,30,-135,-291,156,213
,60,2023-10-27 12:03:51.73,53,-236,-2049,6,-18,27,-61,-215,154,138
,61,2023-10-27 12:03:51.74,36,-233,-2042,5,-14,30,-135,-302,167,218
,62,2023-10-27 12:03:51.75,45,-238,-2051,3,-15,29,-69,-224,155,146
,63,2023-10-27 12:03:51.76,42,-243,-2051,2,-17,27,-142,-302,160,222
,64,2023-10-27 12:03:51.77,45,-245,-2048,7,-19,32,-76,-224,148,150
,65,2023-10-27 12:03:51.78,46,-250,-2048,15,-26,35,-143,-297,154,220
,66,2023-10-27 12:03:51.79,41,-250,-2039,22,-30,41,-79,-225,146,152
,67,2023-10-27 12:03:51.80,36,-248,-2042,27,-34,44,-148,-307,159,227
,68,2023-10-27 12:03:51.81,37,-250,-2046,30,-26,47,-83,-234,151,158
,69,2023-10-27 12:03:51.82,37,-255,-2035,31,-27,51,-158,-320,162,239
,70,2023-10-27 12:03:51.83,33,-246,-2036,35,-17,50,-97,-253,156,175
,71,2023-10-27 12:03:51.84,36,-249,-2036,42,-15,49,-180,-344,164,262
,72,2023-10-27 12:03:51.85,24,-246,-2034,43,-11,53,-125,-281,156,203
,73,2023-10-27 12:03:51.86,34,-263,-2042,44,-6,48,-215,-381,166,298
,74,2023-10-27 12:03:51.87,36,-254,-2051,49,-7,46,-148,-308,160,228
,75,2023-10-27 12:03:51.88,24,-259,-2042,50,-5,46,-209,-378,169,293
,76,2023-10-27 12:03:51.89,29,-257,-2038,49,-4,41,-122,-279,157,200
,77,2023-10-27 12:03:51.90,24,-257,-2035,51,-9,40,-164,-323,159,243
,78,2023-10-27 12:03:51.91,22,-255,-2043,53,-8,34,-92,-234,142,163
,79,2023-10-27 12:03:51.92,23,-253,-2042,47,-13,27,-152,-305,153,228
,80,2023-10-27 12:03:51.93,21,-254,-2046,37,-8,20,-82,-228,146,155
,81,2023-10-27 12:03:51.94,11,-273,-2046,33,-4,17,-140,-298,158,219
,82,2023-10-27 12:03:51.95,24,-270,-2043,32,-6,19,-75,-220,145,147
,83,2023-10-27 12:03:51.96,13,-276,-2040,31,-7,16,-136,-290,154,213
,84,2023-10-27 12:03:51.97,17,-274,-2035,31,-11,16,-71,-216,145,143
,85,2023-10-27 12:03:51.98,19,-270,-2039,26,-2,18,-129,-289,160,209
,86,2023-10-27 12:03:51.99,20,-275,-2034,23,-1,19,-66,-212,146,139
,87,2023-10-27 12:03:52.00,28,-269,-2034,17,0,22,-124,-281,157,202
,88,2023-10-27 12:03:52.01,18,-268,-2039,10,5,18,-64,-208,144,136
,89,2023-10-27 12:03:52.02,22,-274,-2039,7,5,22,-128,-281,153,204
,90,2023-10-27 12:03:52.03,7,-273,-2040,5,4,22,-69,-212,143,140
,91,2023-10-27 12:03:52.04,2,-266,-2043,4,9,22,-135,-288,153,211
,92,2023-10-27 12:03:52.05,18,-274,-2037,3,2,21,-76,-220,144,148
,93,2023-10-27 12:03:52.06,21,-269,-2041,2,7,22,-141,-297,156,219
,94,2023-10-27 12:03:52.07,16,-269,-2040,5,5,20,-79,-226,147,152
,95,2023-10-27 12:03:52.08,23,-264,-2044,4,5,20,-138,-291,153,214
,96,2023-10-27 12:03:52.09,16,-266,-2041,4,4,19,-81,-229,148,155
,97,2023-10-27 12:03:52.10,19,-264,-2043,8,3,18,-150,-312,162,231
,98,2023-10-27 12:03:52.11,23,-257,-2040,7,7,20,-98,-253,155,175
,99,2023-10-27 12:03:52.12,33,-261,-2040,11,9,21,-176,-340,164,258
,100,2023-10-27 12:03:52.13,33,-268,-2043,14,4,24,-132,-290,158,211
,101,2023-10-27 12:03:52.14,32,-262,-2048,13,8,25,-197,-358,161,277
,102,2023-10-27 12:03:52.15,31,-271,-2041,18,5,26,-131,-292,161,211
,103,2023-10-27 12:03:52.16,21,-262,-2050,20,5,31,-182,-340,158,261
,104,2023-10-27 12:03:52.17,24,-256,-2044,18,-1,33,-111,-261,150,186
,105,2023-10-27 12:03:52.18,28,-258,-2052,16,-1,33,-148,-296,148,222
,106,2023-10-27 12:03:52.19,29,-249,-2041,6,13,35,-90,-229,139,159
,107,2023-10-27 12:03:52.20,29,-255,-2031,-1,10,31,-130,-274,144,202
,108,2023-10-27 12:03:52.21,29,-265,-2028,7,12,30,-80,-218,138,149
,109,2023-10-27 12:03:52.22,19,-255,-2034,17,-5,27,-122,-267,145,194
,110,2023-10-27 12:03:52.23,29,-253,-2036,21,-1,27,-77,-215,138,146
,111,2023-10-27 12:03:52.24,43,-254,-2033,20,1,25,-112,-258,146,185
,112,2023-10-27 12:03:52.25,29,-257,-2039,20,7,24,-66,-207,141,136
,113,2023-10-27 12:03:52.26,36,-251,-2044,19,6,23,-104,-252,148,178
,114,2023-10-27 12:03:52.27,29,-248,-2047,20,4,20,-69,-211,142,140
,115,2023-10-27 12:03:52.28,23,-264,-2047,21,5,20,-109,-264,155,186
,116,2023-10-27 12:03:52.29,34,-269,-2048,18,6,20,-75,-220,145,147
,117,2023-10-27 12:03:52.30,38,-263,-2045,21,10,20,-106,-264,158,185
,118,2023-10-27 12:03:52.31,20,-260,-2048,22,3,19,-67,-213,146,140
,119,2023-10-27 12:03:52.32,24,-271,-2040,22,5,21,-101,-254,153,177
,120,2023-10-27 12:03:52.33,37,-266,-2040,24,1,20,-74,-215,141,144
,121,2023-10-27 12:03:52.34,29,-266,-2041,23,2,20,-107,-259,152,183
,122,2023-10-27 12:03:52.35,26,-273,-2033,23,-2,17,-79,-221,142,150
,123,2023-10-27 12:03:52.36,39,-271,-2040,24,0,19,-110,-261,151,185
,124,2023-10-27 12:03:52.37,32,-278,-2031,25,2,24,-81,-224,143,152
,125,2023-10-27 12:03:52.38,24,-279,-2043,24,3,23,-112,-269,157,190
,126,2023-10-27 12:03:52.39,33,-282,-2041,25,2,26,-86,-229,143,157
,127,2023-10-27 12:03:52.40,27,-275,-2043,26,2,27,-118,-262,144,190
,128,2023-10-27 12:03:52.41,25,-271,-2052,26,-4,30,-97,-227,130,162
,129,2023-10-27 12:03:52.42,31,-276,-2033,13,16,29,-134,-264,130,199
,130,2023-10-27 12:03:52.43,24,-292,-2027,9,20,28,-109,-227,118,168
,131,2023-10-27 12:03:52.44,32,-278,-2048,13,16,30,-136,-255,119,195
,132,2023-10-27 12:03:52.45,34,-274,-2049,15,-1,30,-102,-217,115,159
,133,2023-10-27 12:03:52.46,26,-279,-2039,11,1,31,-121,-240,119,180
,134,2023-10-27 12:03:52.47,20,-273,-2037,6,3,32,-93,-213,120,153
,135,2023-10-27 12:03:52.48,19,-270,-2033,3,5,29,-117,-242,125,179
,136,2023-10-27 12:03:52.49,28,-272,-2039,-1,-5,28,-98,-228,130,163
,137,2023-10-27 12:03:52.50,24,-267,-2034,-3,-6,27,-125,-262,137,193
,138,2023-10-27 12:03:52.51,13,-267,-2034,-9,0,28,-102,-238,136,170
,139,2023-10-27 12:03:52.52,32,-270,-2047,-12,-3,26,-115,-256,141,185
,140,2023-10-27 12:03:52.53,27,-275,-2043,-11,-7,27,-91,-229,138,160
,141,2023-10-27 12:03:52.54,21,-265,-2040,-7,-11,27,-112,-253,141,182
,142,2023-10-27 12:03:52.55,27,-272,-2037,-7,-9,30,-95,-240,145,167
,143,2023-10-27 12:03:52.56,19,-263,-2036,-4,2,30,-112,-265,153,188
,144,2023-10-27 12:03:52.57,20,-264,-2035,-4,6,28,-104,-250,146,177
,145,2023-10-27 12:03:52.58,22,-272,-2039,-2,7,30,-117,-262,145,189
,146,2023-10-27 12:03:52.59,31,-273,-2039,3,11,32,-111,-252,141,181
,147,2023-10-27 12:03:52.60,25,-270,-2040,3,10,29,-117,-255,138,186
,148,2023-10-27 12:03:52.61,24,-255,-2031,0,22,27,-108,-249,141,178
,149,2023-10-27 12:03:52.62,30,-262,-2038,-1,21,23,-111,-258,147,184
,150,2023-10-27 12:03:52.63,32,-257,-2042,0,24,22,-106,-253,147,179
,151,2023-10-27 12:03:52.64,27,-268,-2043,3,20,21,-115,-261,146,188
,152,2023-10-27 12:03:52.65,22,-252,-2038,-1,16,12,-118,-258,140,188
,153,2023-10-27 12:03:52.66,28,-265,-2037,-6,19,10,-115,-260,145,187
,154,2023-10-27 12:03:52.67,35,-265,-2029,-7,22,5,-116,-263,147,189
,155,2023-10-27 12:03:52.68,40,-263,-2029,-4,27,0,-114,-264,150,189
,156,2023-10-27 12:03:52.69,41,-257,-2050,-9,25,-5,-120,-269,149,194
,157,2023-10-27 12:03:52.70,36,-259,-2047,-14,20,-6,-121,-272,151,196
,158,2023-10-27 12:03:52.71,33,-268,-2047,-11,20,-7,-130,-276,146,203
,159,2023-10-27 12:03:52.72,38,-264,-2052,-11,15,-4,-123,-272,149,197
,160,2023-10-27 12:03:52.73,40,-269,-2043,-14,7,-2,-140,-287,147,213
,161,2023-10-27 12:03:52.74,39,-272,-2046,-16,5,2,-136,-292,156,214
,162,2023-10-27 12:03:52.75,24,-271,-2051,-18,1,4,-152,-301,149,226
,163,2023-10-27 12:03:52.76,36,-265,-2039,-18,0,9,-152,-300,148,226
,164,2023-10-27 12:03:52.77,35,-257,-2037,-20,3,9,-172,-314,142,243
,165,2023-10-27 12:03:52.78,24,-257,-2039,-24,5,10,-171,-320,149,245
,166,2023-10-27 12:03:52.79,29,-249,-2037,-24,6,10,-194,-344,150,269
,167,2023-10-27 12:03:52.80,21,-253,-2031,-24,8,11,-182,-347,165,264
,168,2023-10-27 12:03:52.81,38,-257,-2039,-21,9,12,-192,-360,168,276
,169,2023-10-27 12:03:52.82,32,-258,-2048,-17,7,15,-164,-344,180,254
,170,2023-10-27 12:03:52.83,38,-252,-2044,-12,9,18,-165,-341,176,253
,171,2023-10-27 12:03:52.84,31,-249,-2041,-9,9,18,-124,-308,184,216
,172,2023-10-27 12:03:52.85,36,-251,-2050,-7,8,16,-135,-310,175,222
,173,2023-10-27 12:03:52.86,21,-248,-2041,-4,6,15,-99,-278,179,188
,174,2023-10-27 12:03:52.87,33,-250,-2038,1,12,19,-120,-293,173,206
,175,2023-10-27 12:03:52.88,34,-250,-2042,6,11,17,-81,-254,173,167
,176,2023-10-27 12:03:52.89,40,-245,-2044,7,9,18,-109,-273,164,191
,177,2023-10-27 12:03:52.90,38,-250,-2042,11,7,13,-76,-244,168,160
,178,2023-10-27 12:03:52.91,30,-250,-2045,12,6,17,-108,-269,161,188
,179,2023-10-27 12:03:52.92,29,-252,-2041,11,13,14,-69,-232,163,150
,180,2023-10-27 12:03:52.93,21,-257,-2041,12,10,17,-103,-262,159,182
,181,2023-10-27 12:03:52.94,27,-257,-2052,11,11,16,-63,-226,163,144
,182,2023-10-27 12:03:52.95,46,-254,-2055,10,9,16,-103,-259,156,181
,183,2023-10-27 12:03:52.96,27,-259,-2039,10,7,18,-68,-223,155,145
,184,2023-10-27 12:03:52.97,34,-264,-2039,11,4,17,-100,-252,152,176
,185,2023-10-27 12:03:52.98,31,-258,-2041,8,8,17,-65,-217,152,141
,186,2023-10-27 12:03:52.99,37,-257,-2043,8,6,19,-106,-255,149,180
,187,2023-10-27 12:03:53.00,45,-259,-2046,8,5,21,-76,-226,150,151
,188,2023-10-27 12:03:53.01,37,-262,-2045,6,5,23,-115,-267,152,191
,189,2023-10-27 12:03:53.02,41,-259,-2040,4,5,27,-75,-228,153,151
,190,2023-10-27 12:03:53.03,35,-261,-2043,9,-2,22,-116,-267,151,191
,191,2023-10-27 12:03:53.04,45,-258,-2036,9,-2,23,-71,-225,154,148
,192,2023-10-27 12:03:53.05,36,-252,-2041,8,2,27,-119,-272,153,195
,193,2023-10-27 12:03:53.06,28,-257,-2044,8,8,27,-76,-230,154,153
,194,2023-10-27 12:03:53.07,28,-262,-2044,9,3,25,-124,-279,155,201
,195,2023-10-27 12:03:53.08,33,-260,-2045,9,7,30,-76,-227,151,151
,196,2023-10-27 12:03:53.09,34,-262,-2039,11,6,29,-126,-281,155,203
,197,2023-10-27 12:03:53.10,38,-261,-2047,13,6,28,-76,-226,150,151
,198,2023-10-27 12:03:53.11,34,-262,-2038,13,8,30,-132,-273,141,202
,199,2023-10-27 12:03:53.12,33,-262,-2042,15,3,29,-85,-213,128,149
,200,2023-10-27 12:03:53.13,36,-250,-2046,7,7,27,-138,-259,121,198
,201,2023-10-27 12:03:53.14,41,-260,-2042,7,8,30,-85,-198,113,141
,202,2023-10-27 12:03:53.15,39,-255,-2037,5,10,27,-136,-257,121,196
,203,2023-10-27 12:03:53.16,44,-271,-2047,7,10,29,-78,-200,122,139
,204,2023-10-27 12:03:53.17,38,-265,-2053,10,4,30,-130,-255,125,192
,205,2023-10-27 12:03:53.18,38,-263,-2049,10,-1,31,-68,-194,126,131
,206,2023-10-27 12:03:53.19,38,-275,-2053,10,-5,33,-128,-261,133,194
,207,2023-10-27 12:03:53.20,44,-261,-2053,3,-9,39,-73,-206,133,139
,208,2023-10-27 12:03:53.21,48,-264,-2045,-1,-15,40,-129,-264,135,196
,209,2023-10-27 12:03:53.22,40,-262,-2036,-7,-18,43,-66,-204,138,135
,210,2023-10-27 12:03:53.23,43,-259,-2035,-9,-13,43,-129,-269,140,199
,211,2023-10-27 12:03:53.24,32,-253,-2056,-12,-14,44,-67,-210,143,138
,212,2023-10-27 12:03:53.25,39,-251,-2053,-13,-13,50,-133,-277,144,205
,213,2023-10-27 12:03:53.26,37,-252,-2050,-14,-18,55,-73,-218,145,145
,214,2023-10-27 12:03:53.27,26,-255,-2043,-14,-23,54,-137,-279,142,208
,215,2023-10-27 12:03:53.28,16,-249,-2040,-8,-28,56,-74,-215,141,144
,216,2023-10-27 12:03:53.29,18,-247,-2042,-4,-34,55,-142,-290,148,216
,217,2023-10-27 12:03:53.30,16,-230,-2042,-5,-29,55,-80,-227,147,153
,218,2023-10-27 12:03:53.31,9,-233,-2028,-12,-22,48,-142,-289,147,215
,219,2023-10-27 12:03:53.32,35,-231,-2033,-11,-12,38,-74,-222,148,148
,220,2023-10-27 12:03:53.33,24,-223,-2038,-7,-11,34,-144,-286,142,215
,221,2023-10-27 12:03:53.34,20,-236,-2038,-3,-5,31,-78,-220,142,149
,222,2023-10-27 12:03:53.35,12,-244,-2040,1,-6,22,-155,-298,143,226
,223,2023-10-27 12:03:53.36,15,-244,-2051,11,-6,19,-82,-232,150,157
,224,2023-10-27 12:03:53.37,23,-238,-2040,16,-8,16,-153,-307,154,230
,225,2023-10-27 12:03:53.38,12,-238,-2042,20,0,15,-82,-235,153,158
,226,2023-10-27 12:03:53.39,17,-239,-2052,24,-4,12,-162,-304,142,233
,227,2023-10-27 12:03:53.40,20,-234,-2060,23,0,6,-102,-240,138,171
,228,2023-10-27 12:03:53.41,13,-234,-2052,22,4,0,-186,-336,150,261
,229,2023-10-27 12:03:53.42,11,-246,-2047,23,4,0,-117,-271,154,194
,230,2023-10-27 12:03:53.43,21,-249,-2047,24,3,-3,-202,-362,160,282
,231,2023-10-27 12:03:53.44,16,-237,-2039,26,-2,-8,-138,-304,166,221
,232,2023-10-27 12:03:53.45,26,-244,-2034,23,0,-8,-229,-406,177,317
,233,2023-10-27 12:03:53.46,16,-251,-2024,26,9,-10,-159,-344,185,251
,234,2023-10-27 12:03:53.47,7,-256,-2024,31,15,-10,-224,-426,202,325
,235,2023-10-27 12:03:53.48,13,-248,-2036,35,16,-17,-133,-342,209,237
,236,2023-10-27 12:03:53.49,17,-249,-2035,35,22,-18,-182,-398,216,290
,237,2023-10-27 12:03:53.50,6,-262,-2029,34,22,-24,-87,-299,212,193
,238,2023-10-27 12:03:53.51,22,-258,-2044,35,23,-24,-125,-339,214,232
,239,2023-10-27 12:03:53.52,13,-255,-2046,31,25,-23,-35,-241,206,138
,240,2023-10-27 12:03:53.53,10,-274,-2028,30,29,-23,-86,-300,214,193
,241,2023-10-27 12:03:53.54,15,-265,-2044,33,21,-23,-14,-220,206,117
,242,2023-10-27 12:03:53.55,15,-254,-2047,32,17,-24,-76,-279,203,177
,243,2023-10-27 12:03:53.56,27,-258,-2043,23,23,-25,-10,-197,187,103
,244,2023-10-27 12:03:53.57,29,-261,-2041,14,33,-23,-74,-258,184,166
,245,2023-10-27 12:03:53.58,28,-262,-2042,8,38,-25,-5,-180,175,92
,246,2023-10-27 12:03:53.59,22,-257,-2036,9,30,-29,-79,-255,176,167
,247,2023-10-27 12:03:53.60,33,-260,-2033,12,36,-30,-18,-184,166,101
,248,2023-10-27 12:03:53.61,26,-262,-2039,15,36,-32,-83,-251,168,167
,249,2023-10-27 12:03:53.62,29,-264,-2039,15,37,-33,-22,-178,156,100
,250,2023-10-27 12:03:53.63,38,-266,-2040,20,33,-30,-95,-259,164,177
,251,2023-10-27 12:03:53.64,30,-266,-2048,23,23,-32,-28,-190,162,109
,252,2023-10-27 12:03:53.65,30,-263,-2051,22,30,-28,-97,-256,159,176
,253,2023-10-27 12:03:53.66,27,-270,-2047,19,33,-25,-33,-180,147,106
,254,2023-10-27 12:03:53.67,42,-269,-2050,18,33,-20,-98,-249,151,173
,255,2023-10-27 12:03:53.68,40,-262,-2037,17,26,-16,-37,-183,146,110
,256,2023-10-27 12:03:53.69,40,-266,-2036,14,26,-16,-107,-264,157,185
,257,2023-10-27 12:03:53.70,48,-268,-2035,11,32,-12,-44,-195,151,119
,258,2023-10-27 12:03:53.71,49,-267,-2033,10,34,-8,-103,-254,151,178
,259,2023-10-27 12:03:53.72,45,-266,-2039,9,37,-6,-41,-182,141,111
,260,2023-10-27 12:03:53.73,40,-265,-2045,8,35,-5,-108,-251,143,179
,261,2023-10-27 12:03:53.74,61,-264,-2046,12,35,0,-53,-189,136,121
,262,2023-10-27 12:03:53.75,49,-263,-2043,15,35,4,-123,-273,150,198
,263,2023-10-27 12:03:53.76,37,-257,-2046,18,36,7,-68,-204,136,136
,264,2023-10-27 12:03:53.77,55,-262,-2053,22,35,4,-127,-271,144,199
,265,2023-10-27 12:03:53.78,50,-261,-2037,33,36,11,-66,-198,132,132
,266,2023-10-27 12:03:53.79,53,-250,-2045,39,41,8,-120,-261,141,190
,267,2023-10-27 12:03:53.80,41,-249,-2061,46,48,13,-66,-200,134,133
,268,2023-10-27 12:03:53.81,40,-248,-2045,54,39,18,-135,-284,149,209
,269,2023-10-27 12:03:53.82,54,-273,-2039,67,42,19,-77,-215,138,146
,270,2023-10-27 12:03:53.83,59,-257,-2007,96,67,23,-136,-279,143,207
,271,2023-10-27 12:03:53.84,46,-245,-2011,126,90,24,-74,-210,136,142
,272,2023-10-27 12:03:53.85,38,-247,-2007,170,119,29,-136,-278,142,207
,273,2023-10-27 12:03:53.86,39,-245,-1991,222,132,37,-79,-214,135,146
,274,2023-10-27 12:03:53.87,32,-227,-2047,294,112,46,-141,-288,147,214
,275,2023-10-27 12:03:53.88,27,-221,-2070,345,141,60,-78,-215,137,146
,276,2023-10-27 12:03:53.89,38,-235,-2018,376,162,66,-135,-279,144,207
,277,2023-10-27 12:03:53.90,58,-251,-2029,412,186,60,-83,-211,128,147
,278,2023-10-27 12:03:53.91,60,-272,-2030,464,199,60,-153,-284,131,218
,279,2023-10-27 12:03:53.92,74,-307,-2013,499,202,65,-98,-211,113,154
,280,2023-10-27 12:03:53.93,77,-369,-1990,534,214,78,-163,-268,105,215
,281,2023-10-27 12:03:53.94,89,-409,-1976,563,231,100,-103,-200,97,151
,282,2023-10-27 12:03:53.95,96,-403,-2020,581,236,125,-155,-262,107,208
,283,2023-10-27 12:03:53.96,108,-415,-2018,569,233,151,-93,-197,104,145
,284,2023-10-27 12:03:53.97,108,-444,-2008,562,230,173,-148,-266,118,207
,285,2023-10-27 12:03:53.98,117,-489,-2043,552,231,195,-90,-207,117,148
,286,2023-10-27 12:03:53.99,114,-496,-1999,556,235,222,-144,-271,127,207
,287,2023-10-27 12:03:54.00,119,-451,-1972,542,247,237,-88,-205,117,146
,288,2023-10-27 12:03:54.01,118,-460,-1995,525,251,247,-138,-260,122,199
,289,2023-10-27 12:03:54.02,131,-467,-2013,505,250,255,-81,-204,123,142
,290,2023-10-27 12:03:54.03,145,-476,-1993,495,221,257,-133,-261,128,197
,291,2023-10-27 12:03:54.04,159,-483,-2021,488,204,252,-78,-202,124,140
,292,2023-10-27 12:03:54.05,143,-461,-2014,457,216,242,-119,-247,128,183
,293,2023-10-27 12:03:54.06,146,-474,-2020,415,208,229,-66,-194,128,130
,294,2023-10-27 12:03:54.07,139,-501,-2045,380,187,217,-110,-242,132,176
,295,2023-10-27 12:03:54.08,138,-510,-2037,338,162,207,-66,-191,125,128
,296,2023-10-27 12:03:54.09,137,-519,-2045,287,129,196,-112,-243,131,177
,297,2023-10-27 12:03:54.10,131,-534,-2058,233,90,184,-68,-196,128,132
,298,2023-10-27 12:03:54.11,141,-552,-2093,170,45,178,-106,-237,131,171
,299,2023-10-27 12:03:54.12,124,-552,-2084,98,1,181,-65,-190,125,127
,300,2023-10-27 12:03:54.13,126,-551,-2055,20,-40,178,-98,-231,133,164
,301,2023-10-27 12:03:54.14,130,-521,-2056,-72,-75,167,-56,-194,138,125
,302,2023-10-27 12:03:54.15,127,-504,-2022,-167,-93,155,-100,-240,140,170
,303,2023-10-27 12:03:54.16,117,-509,-2001,-258,-118,131,-71,-203,132,137
,304,2023-10-27 12:03:54.17,113,-487,-2037,-338,-133,106,-117,-249,132,183
,305,2023-10-27 12:03:54.18,126,-483,-2014,-414,-176,81,-82,-215,133,148
,306,2023-10-27 12:03:54.19,135,-495,-2006,-476,-211,46,-120,-259,139,189
,307,2023-10-27 12:03:54.20,126,-470,-2045,-537,-212,19,-88,-225,137,156
,308,2023-10-27 12:03:54.21,132,-434,-2046,-612,-235,-16,-123,-266,143,194
,309,2023-10-27 12:03:54.22,152,-463,-2021,-669,-289,-44,-93,-229,136,161
,310,2023-10-27 12:03:54.23,164,-487,-2022,-694,-291,-57,-123,-264,141,193
,311,2023-10-27 12:03:54.24,154,-476,-1984,-704,-290,-67,-93,-224,131,158
,312,2023-10-27 12:03:54.25,166,-470,-1997,-699,-284,-68,-116,-256,140,186
,313,2023-10-27 12:03:54.26,154,-467,-2029,-688,-281,-60,-95,-231,136,163
,314,2023-10-27 12:03:54.27,133,-462,-2065,-669,-301,-43,-128,-275,147,201
,315,2023-10-27 12:03:54.28,123,-442,-2099,-643,-310,-19,-109,-243,134,176
,316,2023-10-27 12:03:54.29,123,-463,-2061,-605,-312,16,-138,-274,136,206
,317,2023-10-27 12:03:54.30,122,-451,-1994,-530,-292,61,-133,-264,131,198
,318,2023-10-27 12:03:54.31,124,-428,-1916,-424,-274,98,-183,-323,140,253
,319,2023-10-27 12:03:54.32,135,-440,-1921,-287,-210,143,-169,-300,131,234
,320,2023-10-27 12:03:54.33,123,-422,-1859,-134,-152,187,-194,-325,131,259
,321,2023-10-27 12:03:54.34,124,-374,-1890,7,-53,219,-159,-281,122,220
,322,2023-10-27 12:03:54.35,96,-350,-1940,131,-11,250,-158,-284,126,221
,323,2023-10-27 12:03:54.36,76,-319,-1970,232,12,275,-125,-243,118,184
,324,2023-10-27 12:03:54.37,79,-288,-1977,290,33,306,-128,-248,120,188
,325,2023-10-27 12:03:54.38,72,-290,-1992,306,48,333,-106,-219,113,162
,326,2023-10-27 12:03:54.39,50,-302,-2030,301,53,352,-112,-228,116,170
,327,2023-10-27 12:03:54.40,48,-294,-2059,284,26,374,-96,-209,113,152
,328,2023-10-27 12:03:54.41,4,-287,-2107,223,44,398,-107,-223,116,165
,329,2023-10-27 12:03:54.42,20,-303,-2093,169,-6,416,-99,-213,114,156
,330,2023-10-27 12:03:54.43,1,-285,-2114,95,-12,424,-107,-226,119,166
,331,2023-10-27 12:03:54.44,12,-269,-2075,23,-33,420,-110,-231,121,170
,332,2023-10-27 12:03:54.45,26,-277,-2028,-47,-41,415,-118,-251,133,184
,333,2023-10-27 12:03:54.46,11,-289,-2050,-99,-25,400,-116,-244,128,180
,334,2023-10-27 12:03:54.47,-8,-288,-2038,-142,-40,385,-122,-253,131,187
,335,2023-10-27 12:03:54.48,-36,-305,-2061,-163,-35,381,-130,-255,125,192
,336,2023-10-27 12:03:54.49,-54,-269,-2076,-193,-81,379,-144,-278,134,211
,337,2023-10-27 12:03:54.50,-68,-306,-2035,-229,-103,388,-151,-285,134,218
,338,2023-10-27 12:03:54.51,-68,-335,-1994,-225,-106,393,-146,-291,145,218
,339,2023-10-27 12:03:54.52,-66,-309,-2007,-198,-86,401,-144,-282,138,213
,340,2023-10-27 12:03:54.53,-85,-274,-2017,-189,-62,404,-140,-284,144,212
,341,2023-10-27 12:03:54.54,-117,-288,-2015,-175,-52,400,-145,-284,139,214
,342,2023-10-27 12:03:54.55,-110,-289,-2010,-138,-66,397,-135,-283,148,209
,343,2023-10-27 12:03:54.56,-118,-266,-2016,-103,-55,396,-141,-285,144,213
,344,2023-10-27 12:03:54.57,-97,-268,-1985,-79,-18,392,-124,-280,156,202
,345,2023-10-27 12:03:54.58,-95,-267,-1982,-52,25,380,-143,-288,145,215
,346,2023-10-27 12:03:54.59,-73,-218,-2069,-36,89,367,-126,-276,150,201
,347,2023-10-27 12:03:54.60,-73,-217,-2019,-101,264,346,-137,-283,146,210
,348,2023-10-27 12:03:54.61,-103,-399,-1870,-69,249,318,-114,-270,156,192
,349,2023-10-27 12:03:54.62,8,-342,-2046,119,127,315,-134,-278,144,206
,350,2023-10-27 12:03:54.63,-92,-297,-2105,201,167,322,-117,-264,147,190
,351,2023-10-27 12:03:54.64,-85,-350,-1980,247,25,310,-132,-276,144,204
,352,2023-10-27 12:03:54.65,-19,-302,-2083,243,111,300,-111,-258,147,184
,353,2023-10-27 12:03:54.66,4,-377,-1988,252,180,299,-123,-274,151,198
,354,2023-10-27 12:03:54.67,10,-395,-1985,298,214,296,-97,-254,157,175
,355,2023-10-27 12:03:54.68,15,-373,-2045,324,221,294,-114,-269,155,191
,356,2023-10-27 12:03:54.69,33,-406,-2011,356,182,292,-92,-246,154,169
,357,2023-10-27 12:03:54.70,66,-357,-2034,350,251,288,-113,-261,148,187
,358,2023-10-27 12:03:54.71,63,-418,-1963,300,296,289,-86,-232,146,159
,359,2023-10-27 12:03:54.72,112,-421,-2037,293,253,291,-116,-254,138,185
,360,2023-10-27 12:03:54.73,65,-381,-2067,270,226,314,-102,-232,130,167
,361,2023-10-27 12:03:54.74,96,-402,-2052,225,187,329,-128,-254,126,191
,362,2023-10-27 12:03:54.75,104,-381,-2093,131,203,351,-99,-225,126,162
,363,2023-10-27 12:03:54.76,97,-378,-2087,21,201,374,-133,-263,130,198
,364,2023-10-27 12:03:54.77,105,-386,-2060,-47,139,394,-107,-238,131,172
,365,2023-10-27 12:03:54.78,98,-344,-2092,-103,76,412,-137,-270,133,203
,366,2023-10-27 12:03:54.79,93,-311,-2086,-164,-9,419,-104,-233,129,168
,367,2023-10-27 12:03:54.80,96,-282,-2081,-226,-77,421,-130,-260,130,195
,368,2023-10-27 12:03:54.81,79,-268,-2083,-294,-107,417,-93,-218,125,155
,369,2023-10-27 12:03:54.82,86,-261,-2045,-364,-104,415,-130,-264,134,197
,370,2023-10-27 12:03:54.83,85,-255,-2032,-414,-86,403,-96,-230,134,163
,371,2023-10-27 12:03:54.84,86,-246,-2029,-434,-84,386,-133,-272,139,202
,372,2023-10-27 12:03:54.85,67,-224,-2037,-433,-99,368,-98,-230,132,164
,373,2023-10-27 12:03:54.86,54,-222,-2047,-425,-99,345,-137,-268,131,202
,374,2023-10-27 12:03:54.87,55,-193,-2080,-419,-96,319,-97,-224,127,160
,375,2023-10-27 12:03:54.88,55,-166,-2123,-415,-96,292,-138,-276,138,207
,376,2023-10-27 12:03:54.89,65,-168,-2106,-398,-99,267,-98,-232,134,165
,377,2023-10-27 12:03:54.90,49,-157,-2083,-363,-88,232,-135,-273,138,204
,378,2023-10-27 12:03:54.91,33,-145,-2078,-312,-96,194,-85,-215,130,150
,379,2023-10-27 12:03:54.92,30,-159,-2084,-245,-101,159,-127,-258,131,192
,380,2023-10-27 12:03:54.93,7,-193,-2028,-167,-107,132,-78,-208,130,143
,381,2023-10-27 12:03:54.94,10,-218,-2009,-63,-119,106,-125,-267,142,196
,382,2023-10-27 12:03:54.95,-19,-224,-1996,37,-126,84,-77,-221,144,149
,383,2023-10-27 12:03:54.96,27,-230,-1996,147,-171,63,-123,-273,150,198
,384,2023-10-27 12:03:54.97,11,-214,-2019,217,-150,44,-73,-216,143,144
,385,2023-10-27 12:03:54.98,-25,-243,-2024,253,-103,28,-120,-266,146,193
,386,2023-10-27 12:03:54.99,-29,-299,-1993,286,-83,9,-72,-206,134,139
,387,2023-10-27 12:03:55.00,-53,-326,-2007,334,-84,6,-123,-274,151,198
,388,2023-10-27 12:03:55.01,-38,-332,-2014,373,-96,2,-70,-220,150,145
,389,2023-10-27 12:03:55.02,-24,-334,-2001,385,-78,2,-123,-278,155,200
,390,2023-10-27 12:03:55.03,-36,-354,-2000,378,-80,-1,-81,-230,149,155
,391,2023-10-27 12:03:55.04,-50,-340,-2032,360,-49,-5,-154,-321,167,237
,392,2023-10-27 12:03:55.05,-43,-334,-2035,322,-31,-14,-114,-291,177,202
,393,2023-10-27 12:03:55.06,-47,-342,-2027,274,-18,-25,-178,-372,194,275
,394,2023-10-27 12:03:55.07,-40,-338,-2038,224,-7,-36,-114,-311,197,212
,395,2023-10-27 12:03:55.08,-21,-331,-2049,174,-6,-47,-154,-366,212,260
,396,2023-10-27 12:03:55.09,-31,-322,-2050,125,-6,-54,-92,-289,197,190
,397,2023-10-27 12:03:55.10,-40,-325,-2054,67,4,-63,-146,-342,196,244
,398,2023-10-27 12:03:55.11,-23,-338,-2059,18,-9,-73,-78,-262,184,170
,399,2023-10-27 12:03:55.12,-20,-352,-2043,-11,-28,-76,-144,-331,187,237
,400,2023-10-27 12:03:55.13,-18,-360,-2038,-31,-56,-72,-73,-255,182,164
,401,2023-10-27 12:03:55.14,-27,-354,-2036,-46,-69,-67,-130,-316,186,223
,402,2023-10-27 12:03:55.15,-23,-353,-2024,-59,-76,-59,-68,-244,176,156
,403,2023-10-27 12:03:55.16,-39,-351,-2028,-63,-81,-53,-137,-314,177,225
,404,2023-10-27 12:03:55.17,-34,-341,-2031,-64,-102,-42,-79,-246,167,162
,405,2023-10-27 12:03:55.18,-49,-347,-2014,-64,-106,-33,-149,-323,174,236
,406,2023-10-27 12:03:55.19,-58,-348,-2024,-61,-103,-23,-87,-252,165,169
,407,2023-10-27 12:03:55.20,-61,-328,-2032,-57,-104,-16,-156,-336,180,246
,408,2023-10-27 12:03:55.21,-70,-334,-2025,-62,-92,-6,-90,-262,172,176
,409,2023-10-27 12:03:55.22,-64,-340,-2016,-52,-93,-3,-163,-343,180,253
,410,2023-10-27 12:03:55.23,-79,-323,-2029,-40,-92,5,-107,-272,165,189
,411,2023-10-27 12:03:55.24,-75,-318,-2017,-32,-84,6,-185,-349,164,267
,412,2023-10-27 12:03:55.25,-74,-315,-2015,-26,-70,5,-122,-281,159,201
,413,2023-10-27 12:03:55.26,-86,-308,-2022,-22,-67,2,-212,-380,168,296
,414,2023-10-27 12:03:55.27,-64,-299,-2028,-19,-55,-9,-156,-317,161,236
,415,2023-10-27 12:03:55.28,-71,-299,-2041,-16,-45,-17,-222,-401,179,311
,416,2023-10-27 12:03:55.29,-84,-305,-2029,-17,-30,-27,-138,-320,182,229
,417,2023-10-27 12:03:55.30,-78,-305,-2034,-9,-32,-35,-185,-381,196,283
,418,2023-10-27 12:03:55.31,-84,-299,-2035,-8,-22,-42,-94,-282,188,188
,419,2023-10-27 12:03:55.32,-99,-307,-2018,-6,-9,-55,-140,-337,197,238
,420,2023-10-27 12:03:55.33,-73,-314,-2013,-2,0,-62,-62,-244,182,153
,421,2023-10-27 12:03:55.34,-67,-314,-2015,13,-6,-67,-124,-314,190,219
,422,2023-10-27 12:03:55.35,-53,-327,-2019,26,13,-68,-48,-228,180,138
,423,2023-10-27 12:03:55.36,-49,-327,-2031,29,30,-66,-109,-295,186,202
,424,2023-10-27 12:03:55.37,-44,-331,-2018,38,26,-63,-39,-210,171,124
,425,2023-10-27 12:03:55.38,-39,-329,-2024,46,27,-53,-104,-287,183,195
,426,2023-10-27 12:03:55.39,-49,-331,-2024,50,20,-44,-40,-206,166,123
,427,2023-10-27 12:03:55.40,-45,-335,-2031,51,25,-36,-117,-287,170,202
,428,2023-10-27 12:03:55.41,-45,-335,-2032,54,19,-29,-39,-202,163,120
,429,2023-10-27 12:03:55.42,-42,-329,-2039,50,20,-19,-104,-282,178,193
,430,2023-10-27 12:03:55.43,-46,-333,-2020,44,20,-12,-34,-196,162,115
,431,2023-10-27 12:03:55.44,-55,-334,-2028,40,21,-1,-109,-280,171,194
,432,2023-10-27 12:03:55.45,-37,-331,-2037,34,23,4,-43,-201,158,122
,433,2023-10-27 12:03:55.46,-37,-332,-2039,26,20,7,-116,-284,168,200
,434,2023-10-27 12:03:55.47,-38,-328,-2043,22,18,14,-48,-202,154,125
,435,2023-10-27 12:03:55.48,-39,-328,-2039,15,17,15,-117,-277,160,197
,436,2023-10-27 12:03:55.49,-32,-326,-2032,13,13,18,-55,-205,150,130
,437,2023-10-27 12:03:55.50,-38,-325,-2025,14,13,17,-121,-278,157,199
,438,2023-10-27 12:03:55.51,-40,-323,-2032,14,14,16,-55,-206,151,130
,439,2023-10-27 12:03:55.52,-36,-317,-2042,15,14,19,-126,-291,165,208
,440,2023-10-27 12:03:55.53,-41,-320,-2037,21,8,17,-60,-215,155,137
,441,2023-10-27 12:03:55.54,-44,-315,-2040,26,4,18,-127,-290,163,208
,442,2023-10-27 12:03:55.55,-29,-321,-2038,27,-2,14,-60,-208,148,134
,443,2023-10-27 12:03:55.56,-49,-317,-2036,31,1,13,-129,-282,153,205
,444,2023-10-27 12:03:55.57,-36,-318,-2034,36,-5,12,-67,-210,143,138
,445,2023-10-27 12:03:55.58,-34,-325,-2024,44,3,14,-142,-292,150,217
,446,2023-10-27 12:03:55.59,-32,-338,-2021,53,7,16,-82,-213,131,147
,447,2023-10-27 12:03:55.60,-37,-329,-2034,60,8,18,-149,-286,137,217
,448,2023-10-27 12:03:55.61,-44,-338,-2027,66,10,18,-78,-211,133,144
,449,2023-10-27 12:03:55.62,-51,-337,-2015,68,14,23,-138,-286,148,212
,450,2023-10-27 12:03:55.63,-46,-330,-2024,73,19,27,-70,-212,142,141
,451,2023-10-27 12:03:55.64,-48,-343,-2017,67,25,28,-140,-295,155,217
,452,2023-10-27 12:03:55.65,-53,-357,-2036,67,22,34,-79,-224,145,151
,453,2023-10-27 12:03:55.66,-40,-351,-2042,69,13,41,-150,-304,154,227
,454,2023-10-27 12:03:55.67,-41,-357,-2024,71,9,46,-87,-231,144,159
,455,2023-10-27 12:03:55.68,-49,-363,-2024,71,9,49,-154,-310,156,232
,456,2023-10-27 12:03:55.69,-35,-353,-2030,68,6,53,-86,-234,148,160
,457,2023-10-27 12:03:55.70,-45,-343,-2040,62,1,51,-150,-311,161,230
,458,2023-10-27 12:03:55.71,-43,-342,-2032,59,-5,48,-87,-238,151,162
,459,2023-10-27 12:03:55.72,-42,-343,-2025,54,-7,43,-158,-321,163,239
,460,2023-10-27 12:03:55.73,-40,-343,-2019,50,-4,38,-99,-252,153,175
,461,2023-10-27 12:03:55.74,-46,-341,-2035,44,-4,32,-160,-327,167,243
,462,2023-10-27 12:03:55.75,-41,-351,-2031,39,-10,26,-95,-252,157,173
,463,2023-10-27 12:03:55.76,-58,-347,-2031,39,-20,24,-157,-326,169,241
,464,2023-10-27 12:03:55.77,-42,-351,-2017,37,-21,19,-95,-252,157,173
,465,2023-10-27 12:03:55.78,-49,-343,-2014,36,-20,9,-153,-321,168,237
,466,2023-10-27 12:03:55.79,-55,-346,-2014,31,-13,4,-96,-251,155,173
,467,2023-10-27 12:03:55.80,-48,-353,-2015,31,-7,2,-152,-318,166,235
,468,2023-10-27 12:03:55.81,-66,-361,-2018,25,-2,1,-104,-257,153,180
,469,2023-10-27 12:03:55.82,-55,-366,-2011,24,-1,3,-153,-322,169,237
,470,2023-10-27 12:03:55.83,-57,-354,-2024,25,3,6,-96,-254,158,175
,471,2023-10-27 12:03:55.84,-56,-359,-2026,21,5,6,-148,-318,170,233
,472,2023-10-27 12:03:55.85,-56,-359,-2026,14,7,10,-99,-258,159,178
,473,2023-10-27 12:03:55.86,-62,-357,-2032,14,8,14,-153,-326,173,239
,474,2023-10-27 12:03:55.87,-58,-361,-2024,10,10,12,-98,-264,166,181
,475,2023-10-27 12:03:55.88,-59,-353,-2031,10,15,11,-140,-335,195,237
,476,2023-10-27 12:03:55.89,-52,-341,-2020,11,9,4,-84,-271,187,177
,477,2023-10-27 12:03:55.90,-56,-354,-2022,10,13,1,-124,-326,202,225
,478,2023-10-27 12:03:55.91,-43,-349,-2024,10,12,-6,-77,-264,187,170
,479,2023-10-27 12:03:55.92,-46,-347,-2027,12,8,-11,-126,-324,198,225
,480,2023-10-27 12:03:55.93,-43,-352,-2028,10,6,-14,-79,-266,187,172
,481,2023-10-27 12:03:55.94,-47,-349,-2027,8,6,-21,-128,-322,194,225
,482,2023-10-27 12:03:55.95,-39,-353,-2029,8,5,-22,-86,-266,180,176
,483,2023-10-27 12:03:55.96,-52,-358,-2019,9,10,-20,-131,-321,190,226
,484,2023-10-27 12:03:55.97,-56,-358,-2025,11,13,-17,-92,-267,175,179
,485,2023-10-27 12:03:55.98,-33,-361,-2028,13,17,-12,-134,-320,186,227
,486,2023-10-27 12:03:55.99,-44,-364,-2028,17,20,-6,-76,-289,213,182
,487,2023-10-27 12:03:56.00,-37,-361,-2030,21,15,5,-116,-699,583,407
,488,2023-10-27 12:03:56.01,-39,-366,-2037,31,11,14,-105,-892,787,498
,489,2023-10-27 12:03:56.02,-44,-364,-2029,36,7,25,-203,-1126,923,664
,490,2023-10-27 12:03:56.03,-39,-355,-2032,39,4,32,-191,-1039,848,615
,491,2023-10-27 12:03:56.04,-38,-347,-2038,41,1,36,-276,-1102,826,689
,492,2023-10-27 12:03:56.05,-41,-355,-2025,37,-4,38,-256,-988,732,622
,493,2023-10-27 12:03:56.06,-56,-358,-2026,42,2,41,-329,-1089,760,709
,494,2023-10-27 12:03:56.07,-45,-369,-2023,46,-4,46,-309,-1037,728,673
,495,2023-10-27 12:03:56.08,-33,-384,-2019,47,-6,58,-412,-1237,825,824
,496,2023-10-27 12:03:56.09,-44,-398,-2016,49,8,72,-356,-1202,846,779
,497,2023-10-27 12:03:56.10,-37,-403,-2027,55,23,97,-379,-1309,930,844
,498,2023-10-27 12:03:56.11,-49,-410,-2014,55,26,124,-295,-1196,901,745
,499,2023-10-27 12:03:56.12,-45,-424,-2022,56,30,161,-322,-1280,958,801
,500,2023-10-27 12:03:56.13,-51,-455,-2012,67,33,201,-241,-1095,854,668
,501,2023-10-27 12:03:56.14,-34,-506,-2010,84,54,265,-427,-1046,619,736
,502,2023-10-27 12:03:56.15,-43,-569,-1987,99,73,353,-529,-941,412,735
,503,2023-10-27 12:03:56.16,-41,-611,-1963,121,111,471,-666,-1068,402,867
,504,2023-10-27 12:03:56.17,-21,-605,-1955,152,148,597,-581,-1015,434,798
,505,2023-10-27 12:03:56.18,-13,-636,-1964,186,179,728,-581,-1103,522,842
,506,2023-10-27 12:03:56.19,33,-660,-1968,218,216,876,-481,-1006,525,743
,507,2023-10-27 12:03:56.20,40,-676,-1968,247,246,1036,-517,-1076,559,796
,508,2023-10-27 12:03:56.21,61,-699,-1975,287,286,1222,-454,-995,541,724
,509,2023-10-27 12:03:56.22,90,-697,-2014,332,303,1407,-485,-1084,599,784
,510,2023-10-27 12:03:56.23,104,-727,-2008,371,326,1592,-410,-1006,596,708
,511,2023-10-27 12:03:56.24,118,-786,-1927,421,373,1803,-419,-1083,664,751
,512,2023-10-27 12:03:56.25,141,-802,-1883,464,423,2020,-352,-1003,651,677
,513,2023-10-27 12:03:56.26,153,-789,-1934,531,461,2226,-362,-1077,715,719
,514,2023-10-27 12:03:56.27,158,-668,-1982,584,478,2409,-323,-1005,682,664
,515,2023-10-27 12:03:56.28,194,-602,-2030,587,485,2556,-353,-1078,725,715
,516,2023-10-27 12:03:56.29,217,-630,-1988,572,515,2707,-320,-1009,689,664
,517,2023-10-27 12:03:56.30,242,-589,-2036,556,536,2821,-335,-1077,742,706
,518,2023-10-27 12:03:56.31,251,-569,-2099,549,510,2921,-292,-1009,717,650
,519,2023-10-27 12:03:56.32,247,-504,-2105,530,499,2996,-296,-1071,775,683
,520,2023-10-27 12:03:56.33,210,-516,-2084,491,478,3043,-286,-1015,729,650
,521,2023-10-27 12:03:56.34,218,-539,-2038,469,455,3078,-300,-1077,777,688
,522,2023-10-27 12:03:56.35,164,-407,-2016,467,417,3107,-284,-1011,727,647
,523,2023-10-27 12:03:56.36,214,-538,-2016,424,442,3119,-296,-1060,764,678
,524,2023-10-27 12:03:56.37,185,-442,-2141,397,416,3105,-294,-1005,711,649
,525,2023-10-27 12:03:56.38,197,-354,-2103,401,319,3061,-317,-1061,744,689
,526,2023-10-27 12:03:56.39,197,-319,-2073,369,261,2995,-319,-1019,700,669
,527,2023-10-27 12:03:56.40,189,-294,-2102,318,237,2895,-319,-1068,749,693
,528,2023-10-27 12:03:56.41,157,-278,-2098,263,218,2778,-310,-1018,708,664
,529,2023-10-27 12:03:56.42,97,-240,-2097,218,175,2637,-324,-1061,737,692
,530,2023-10-27 12:03:56.43,65,-210,-2068,173,122,2469,-325,-1018,693,671
,531,2023-10-27 12:03:56.44,7,-196,-1977,125,96,2292,-339,-1055,716,697
,532,2023-10-27 12:03:56.45,-24,-249,-1960,88,87,2115,-346,-1022,676,684
,533,2023-10-27 12:03:56.46,-80,-340,-1983,44,116,1955,-342,-1061,719,701
,534,2023-10-27 12:03:56.47,-126,-169,-1861,38,104,1826,-332,-1023,691,677
,535,2023-10-27 12:03:56.48,-125,-371,-1986,18,36,1711,-318,-1053,735,685
,536,2023-10-27 12:03:56.49,-165,-302,-2118,-27,54,1586,-328,-1024,696,676
,537,2023-10-27 12:03:56.50,-197,-246,-2083,-89,-8,1463,-333,-1054,721,693
,538,2023-10-27 12:03:56.51,-146,-300,-2011,-115,-85,1334,-340,-1024,684,682
,539,2023-10-27 12:03:56.52,-152,-354,-1980,-136,-82,1247,-326,-1049,723,687
,540,2023-10-27 12:03:56.53,-153,-403,-1925,-130,-65,1189,-344,-1032,688,688
,541,2023-10-27 12:03:56.54,-208,-438,-1958,-111,-67,1151,-344,-1058,714,701
,542,2023-10-27 12:03:56.55,-250,-334,-1981,-129,-57,1116,-368,-1043,675,705
,543,2023-10-27 12:03:56.56,-284,-243,-2064,-200,-78,1049,-359,-1054,695,706
,544,2023-10-27 12:03:56.57,-291,-215,-2075,-307,-118,948,-374,-1028,654,701
,545,2023-10-27 12:03:56.58,-283,-261,-1967,-378,-116,849,-372,-1030,658,701
,546,2023-10-27 12:03:56.59,-279,-260,-1927,-375,-100,729,-404,-1017,613,710
,547,2023-10-27 12:03:56.60,-282,-230,-1923,-337,-101,616,-391,-1027,636,709
,548,2023-10-27 12:03:56.61,-319,-249,-1917,-275,-92,523,-417,-1033,616,725
,549,2023-10-27 12:03:56.62,-315,-277,-1982,-255,-77,432,-395,-1039,644,717
,550,2023-10-27 12:03:56.63,-347,-291,-1933,-229,-65,369,-445,-1041,596,743
,551,2023-10-27 12:03:56.64,-387,-384,-2009,-223,-80,313,-434,-1032,598,733
,552,2023-10-27 12:03:56.65,-370,-348,-2093,-196,-144,297,-470,-1036,566,753
,553,2023-10-27 12:03:56.66,-377,-306,-2059,-202,-196,296,-439,-1032,593,735
,554,2023-10-27 12:03:56.67,-368,-312,-1964,-209,-215,283,-443,-1038,595,740
,555,2023-10-27 12:03:56.68,-387,-292,-1951,-206,-200,259,-399,-1028,629,713
,556,2023-10-27 12:03:56.69,-367,-261,-1938,-208,-181,220,-422,-1032,610,727
,557,2023-10-27 12:03:56.70,-382,-329,-1942,-189,-141,217,-378,-1020,642,699
,558,2023-10-27 12:03:56.71,-367,-340,-1992,-154,-130,211,-417,-1039,622,728
,559,2023-10-27 12:03:56.72,-362,-324,-2071,-124,-118,228,-379,-1030,651,704
,560,2023-10-27 12:03:56.73,-360,-267,-2046,-90,-156,212,-413,-1049,636,731
,561,2023-10-27 12:03:56.74,-359,-245,-2029,-86,-157,195,-373,-1031,658,702
,562,2023-10-27 12:03:56.75,-374,-276,-1997,-74,-150,179,-426,-1054,628,740
,563,2023-10-27 12:03:56.76,-379,-307,-1948,-58,-144,170,-391,-1039,648,715
,564,2023-10-27 12:03:56.77,-412,-333,-1932,-35,-111,165,-417,-1055,638,736
,565,2023-10-27 12:03:56.78,-423,-298,-2021,-21,-99,162,-354,-1024,670,689
,566,2023-10-27 12:03:56.79,-438,-266,-2042,-19,-119,174,-376,-1051,675,713
,567,2023-10-27 12:03:56.80,-432,-281,-2004,-30,-154,189,-322,-1027,705,674
,568,2023-10-27 12:03:56.81,-438,-269,-2005,-43,-183,193,-369,-1072,703,720
,569,2023-10-27 12:03:56.82,-440,-242,-1957,-72,-192,198,-325,-1052,727,688
,570,2023-10-27 12:03:56.83,-464,-300,-1927,-88,-165,203,-372,-1071,699,721
,571,2023-10-27 12:03:56.84,-472,-301,-1966,-99,-143,207,-328,-1022,694,675
,572,2023-10-27 12:03:56.85,-491,-308,-2024,-108,-125,214,-361,-1060,699,710
,573,2023-10-27 12:03:56.86,-500,-299,-2052,-92,-108,232,-310,-1024,714,667
,574,2023-10-27 12:03:56.87,-496,-273,-2068,-66,-132,225,-368,-1064,696,716
,575,2023-10-27 12:03:56.88,-444,-234,-2033,-39,-125,203,-322,-1024,702,673
,576,2023-10-27 12:03:56.89,-444,-225,-1957,4,-90,154,-377,-1061,684,719
,577,2023-10-27 12:03:56.90,-439,-233,-1936,29,-39,93,-316,-1012,696,664
,578,2023-10-27 12:03:56.91,-430,-284,-1945,51,4,40,-350,-1056,706,703
,579,2023-10-27 12:03:56.92,-382,-307,-1912,54,45,15,-298,-1011,713,654
,580,2023-10-27 12:03:56.93,-393,-335,-1886,55,78,8,-368,-1067,699,717
,581,2023-10-27 12:03:56.94,-367,-318,-1963,32,71,3,-319,-1021,702,670
,582,2023-10-27 12:03:56.95,-359,-287,-2028,-25,40,7,-361,-1071,710,716
,583,2023-10-27 12:03:56.96,-347,-283,-2049,-82,-3,24,-285,-1011,726,648
,584,2023-10-27 12:03:56.97,-359,-247,-2091,-132,-70,31,-335,-1072,737,703
,585,2023-10-27 12:03:56.98,-355,-254,-2109,-172,-156,42,-286,-1020,734,653
,586,2023-10-27 12:03:56.99,-354,-232,-2029,-176,-227,57,-361,-1075,714,718
,587,2023-10-27 12:03:57.00,-377,-199,-1981,-178,-283,55,-302,-1011,709,656
,588,2023-10-27 12:03:57.01,-395,-199,-1968,-170,-277,48,-345,-1061,716,703
,589,2023-10-27 12:03:57.02,-421,-231,-2021,-145,-249,34,-286,-999,713,642
,590,2023-10-27 12:03:57.03,-427,-240,-2074,-116,-205,20,-369,-1082,713,725
,591,2023-10-27 12:03:57.04,-453,-242,-2065,-80,-134,6,-330,-1027,697,678
,592,2023-10-27 12:03:57.05,-441,-257,-2025,-20,-52,-28,-412,-1086,674,749
,593,2023-10-27 12:03:57.06,-426,-224,-1944,59,11,-72,-350,-1010,660,680
,594,2023-10-27 12:03:57.07,-397,-231,-1857,144,66,-111,-412,-1071,659,741
,595,2023-10-27 12:03:57.08,-396,-297,-1916,207,104,-124,-336,-997,661,666
,596,2023-10-27 12:03:57.09,-407,-331,-1985,224,141,-104,-405,-1072,667,738
,597,2023-10-27 12:03:57.10,-362,-335,-1921,223,134,-63,-338,-1005,667,671
,598,2023-10-27 12:03:57.11,-338,-337,-1926,201,110,-23,-404,-1084,680,744
,599,2023-10-27 12:03:57.12,-333,-335,-1949,181,64,18,-328,-1006,678,667
,600,2023-10-27 12:03:57.13,-348,-318,-1998,157,-2,57,-381,-1088,707,734
,601,2023-10-27 12:03:57.14,-357,-312,-1998,112,-55,86,-301,-1009,708,655
,602,2023-10-27 12:03:57.15,-398,-305,-1934,62,-80,114,-369,-1090,721,729
,603,2023-10-27 12:03:57.16,-452,-304,-1965,20,-93,135,-296,-1004,708,650
,604,2023-10-27 12:03:57.17,-483,-279,-2006,-20,-91,150,-371,-1083,712,727
,605,2023-10-27 12:03:57.18,-517,-243,-2026,-57,-82,166,-292,-992,700,642
,606,2023-10-27 12:03:57.19,-525,-229,-2012,-94,-72,175,-348,-1069,721,708
,607,2023-10-27 12:03:57.20,-530,-211,-1965,-107,-59,175,-275,-983,708,629
,608,2023-10-27 12:03:57.21,-541,-212,-1978,-108,-29,162,-354,-1081,727,717
,609,2023-10-27 12:03:57.22,-557,-175,-1957,-105,27,139,-280,-998,718,639
,610,2023-10-27 12:03:57.23,-539,-194,-1970,-89,77,111,-373,-1093,720,733
,611,2023-10-27 12:03:57.24,-522,-215,-1960,-58,137,97,-306,-1000,694,653
,612,2023-10-27 12:03:57.25,-482,-239,-1941,-4,182,82,-375,-1096,721,735
,613,2023-10-27 12:03:57.26,-448,-258,-1988,39,216,73,-301,-1001,700,651
,614,2023-10-27 12:03:57.27,-398,-239,-2018,67,230,59,-392,-1100,708,746
,615,2023-10-27 12:03:57.28,-357,-256,-2037,103,217,43,-322,-1004,682,663
,616,2023-10-27 12:03:57.29,-341,-268,-2057,127,186,25,-413,-1100,687,756
,617,2023-10-27 12:03:57.30,-314,-299,-2058,136,147,4,-341,-997,656,669
,618,2023-10-27 12:03:57.31,-286,-354,-2042,149,116,-7,-436,-1093,657,764
,619,2023-10-27 12:03:57.32,-269,-390,-1971,165,93,-8,-368,-992,624,680
,620,2023-10-27 12:03:57.33,-271,-408,-1966,185,78,-4,-464,-1095,631,779
,621,2023-10-27 12:03:57.34,-288,-381,-1984,198,53,-5,-381,-994,613,687
,622,2023-10-27 12:03:57.35,-278,-405,-1989,185,36,-2,-460,-1098,638,779
,623,2023-10-27 12:03:57.36,-284,-392,-1997,167,28,4,-377,-997,620,687
,624,2023-10-27 12:03:57.37,-309,-374,-2021,150,6,11,-454,-1106,652,780
,625,2023-10-27 12:03:57.38,-308,-373,-2042,121,-30,17,-362,-1001,639,681
,626,2023-10-27 12:03:57.39,-311,-365,-1983,94,-56,16,-441,-1098,657,769
,627,2023-10-27 12:03:57.40,-331,-384,-1939,80,-58,13,-358,-986,628,672
,628,2023-10-27 12:03:57.41,-347,-424,-1935,77,-52,14,-448,-1087,639,767
,629,2023-10-27 12:03:57.42,-386,-412,-1942,95,-9,37,-367,-980,613,673
,630,2023-10-27 12:03:57.43,-394,-415,-1962,104,17,51,-467,-1094,627,780
,631,2023-10-27 12:03:57.44,-423,-356,-1980,114,31,56,-381,-986,605,683
,632,2023-10-27 12:03:57.45,-408,-349,-1998,89,26,62,-461,-1089,628,775
,633,2023-10-27 12:03:57.46,-404,-389,-1929,70,42,73,-368,-975,607,671
,634,2023-10-27 12:03:57.47,-400,-359,-1957,61,71,75,-459,-1087,628,773
,635,2023-10-27 12:03:57.48,-407,-340,-1998,57,62,74,-384,-984,600,684
,636,2023-10-27 12:03:57.49,-405,-337,-1998,51,49,73,-489,-1106,617,797
,637,2023-10-27 12:03:57.50,-395,-305,-2009,36,16,67,-407,-992,585,699
,638,2023-10-27 12:03:57.51,-382,-284,-1964,10,-19,63,-504,-1102,598,803
,639,2023-10-27 12:03:57.52,-407,-310,-1969,-20,-28,55,-421,-988,567,704
,640,2023-10-27 12:03:57.53,-399,-312,-1940,-48,-25,49,-528,-1097,569,812
,641,2023-10-27 12:03:57.54,-411,-316,-1961,-77,-11,41,-446,-985,539,715
,642,2023-10-27 12:03:57.55,-429,-319,-1987,-100,-10,45,-516,-1088,572,802
,643,2023-10-27 12:03:57.56,-438,-311,-1957,-92,-18,59,-409,-974,565,691
,644,2023-10-27 12:03:57.57,-424,-305,-1966,-78,-21,67,-463,-1081,618,772
,645,2023-10-27 12:03:57.58,-426,-290,-1977,-67,-20,70,-375,-975,600,675
,646,2023-10-27 12:03:57.59,-435,-275,-1985,-56,1,67,-484,-1090,606,787
,647,2023-10-27 12:03:57.60,-436,-254,-2007,-47,0,55,-412,-985,573,698
,648,2023-10-27 12:03:57.61,-424,-250,-1993,-37,0,44,-502,-1093,591,797
,649,2023-10-27 12:03:57.62,-415,-260,-2000,-15,5,24,-412,-982,570,697
,650,2023-10-27 12:03:57.63,-430,-223,-2032,-1,-3,9,-475,-1101,626,788
,651,2023-10-27 12:03:57.64,-410,-214,-2024,-11,-25,-22,-383,-995,612,689
,652,2023-10-27 12:03:57.65,-384,-292,-1973,-8,-17,-23,-476,-1106,630,791
,653,2023-10-27 12:03:57.66,-389,-309,-1968,-6,1,-30,-400,-992,592,696
,654,2023-10-27 12:03:57.67,-384,-306,-1983,0,25,-27,-479,-1100,621,789
,655,2023-10-27 12:03:57.68,-381,-330,-2012,16,30,-22,-391,-991,600,691
,656,2023-10-27 12:03:57.69,-365,-327,-2016,36,35,-11,-466,-1106,640,786
,657,2023-10-27 12:03:57.70,-362,-281,-2031,45,31,-18,-381,-992,611,686
,658,2023-10-27 12:03:57.71,-359,-310,-2035,51,23,-29,-452,-1089,637,770
,659,2023-10-27 12:03:57.72,-344,-319,-2018,56,22,-43,-379,-980,601,679
,660,2023-10-27 12:03:57.73,-357,-317,-2019,66,13,-56,-460,-1095,635,777
,661,2023-10-27 12:03:57.74,-340,-340,-2007,62,-4,-67,-388,-988,600,688
,662,2023-10-27 12:03:57.75,-328,-373,-1950,74,-2,-65,-464,-1093,629,778
,663,2023-10-27 12:03:57.76,-332,-361,-1932,75,8,-74,-386,-982,596,684
,664,2023-10-27 12:03:57.77,-338,-383,-1953,69,22,-75,-453,-1083,630,768
,665,2023-10-27 12:03:57.78,-359,-374,-1967,59,22,-76,-381,-980,599,680
,666,2023-10-27 12:03:57.79,-363,-417,-1965,31,14,-72,-454,-1093,639,773
,667,2023-10-27 12:03:57.80,-355,-436,-1969,12,12,-60,-384,-990,606,687
,668,2023-10-27 12:03:57.81,-362,-431,-1977,-3,-19,-50,-449,-1088,639,768
,669,2023-10-27 12:03:57.82,-369,-437,-1988,-9,-48,-41,-385,-983,598,684
,670,2023-10-27 12:03:57.83,-376,-409,-1988,-18,-68,-42,-468,-1081,613,774
,671,2023-10-27 12:03:57.84,-367,-373,-1981,-36,-92,-59,-424,-992,568,708
,672,2023-10-27 12:03:57.85,-375,-400,-1942,-51,-97,-60,-507,-1104,597,805
,673,2023-10-27 12:03:57.86,-400,-406,-1908,-43,-83,-74,-446,-1007,561,726
,674,2023-10-27 12:03:57.87,-407,-409,-1924,-41,-60,-77,-522,-1092,570,807
,675,2023-10-27 12:03:57.88,-432,-405,-1975,-39,-54,-63,-455,-994,539,724
,676,2023-10-27 12:03:57.89,-427,-388,-2009,-51,-64,-39,-522,-1094,572,808
,677,2023-10-27 12:03:57.90,-420,-414,-1974,-67,-61,-10,-454,-999,545,726
,678,2023-10-27 12:03:57.91,-439,-395,-1928,-56,-25,21,-532,-1096,564,814
,679,2023-10-27 12:03:57.92,-473,-265,-1995,-49,-20,32,-467,-1004,537,735
,680,2023-10-27 12:03:57.93,-441,-306,-2050,-123,-59,49,-525,-1091,566,808
,681,2023-10-27 12:03:57.94,-426,-335,-1916,-144,-29,62,-466,-996,530,731
,682,2023-10-27 12:03:57.95,-429,-272,-1917,-146,38,50,-520,-1082,562,801
,683,2023-10-27 12:03:57.96,-420,-259,-1972,-100,57,25,-450,-989,539,719
,684,2023-10-27 12:03:57.97,-426,-217,-1993,-54,68,-4,-506,-1075,569,790
,685,2023-10-27 12:03:57.98,-397,-196,-1986,-34,56,-46,-453,-998,545,725
,686,2023-10-27 12:03:57.99,-392,-229,-1995,-27,50,-89,-499,-1089,590,794
,687,2023-10-27 12:03:58.00,-381,-260,-1979,-4,63,-117,-436,-1008,572,722
,688,2023-10-27 12:03:58.01,-386,-277,-1996,13,54,-146,-488,-1094,606,791
,689,2023-10-27 12:03:58.02,-367,-306,-1977,10,56,-157,-444,-1006,562,725
,690,2023-10-27 12:03:58.03,-369,-336,-1969,8,57,-160,-510,-1077,567,793
,691,2023-10-27 12:03:58.04,-366,-340,-1992,12,56,-146,-474,-997,523,735
,692,2023-10-27 12:03:58.05,-366,-351,-2029,-6,34,-133,-537,-1074,537,805
,693,2023-10-27 12:03:58.06,-358,-356,-2008,-14,27,-103,-496,-999,503,747
,694,2023-10-27 12:03:58.07,-348,-356,-2002,-28,13,-80,-534,-1072,538,803
,695,2023-10-27 12:03:58.08,-360,-352,-1990,-34,11,-61,-476,-997,521,736
,696,2023-10-27 12:03:58.09,-354,-351,-1961,-24,4,-41,-518,-1064,546,791
,697,2023-10-27 12:03:58.10,-351,-350,-1979,-9,-14,-30,-474,-993,519,733
,698,2023-10-27 12:03:58.11,-357,-328,-1979,5,-24,-19,-516,-1061,545,788
,699,2023-10-27 12:03:58.12,-360,-327,-1963,20,-19,-6,-480,-1003,523,741
,700,2023-10-27 12:03:58.13,-392,-297,-2006,11,-15,-8,-519,-1071,552,795
,701,2023-10-27 12:03:58.14,-396,-286,-2045,-44,-29,-14,-478,-1005,527,741
,702,2023-10-27 12:03:58.15,-384,-318,-1996,-77,-22,-2,-500,-1060,560,780
,703,2023-10-27 12:03:58.16,-382,-309,-1971,-90,-8,-4,-445,-1004,559,724
,704,2023-10-27 12:03:58.17,-378,-297,-1982,-91,-12,-5,-458,-1066,608,762
,705,2023-10-27 12:03:58.18,-368,-320,-1995,-68,-33,0,-433,-1008,575,720
,706,2023-10-27 12:03:58.19,-359,-295,-1995,-49,-20,7,-470,-1060,590,765
,707,2023-10-27 12:03:58.20,-372,-281,-2013,-38,-25,4,-444,-1000,556,722
,708,2023-10-27 12:03:58.21,-370,-260,-2014,-34,-30,-2,-468,-1047,579,757
,709,2023-10-27 12:03:58.22,-372,-274,-2009,-50,-35,-7,-443,-1007,564,725
,710,2023-10-27 12:03:58.23,-358,-307,-1964,-52,-31,-10,-468,-1066,598,767
,711,2023-10-27 12:03:58.24,-362,-311,-1968,-46,-17,-8,-445,-1022,577,733
,712,2023-10-27 12:03:58.25,-376,-324,-1994,-36,-8,-4,-465,-1065,600,765
,713,2023-10-27 12:03:58.26,-357,-326,-2000,-19,-10,0,-445,-1015,570,730
,714,2023-10-27 12:03:58.27,-360,-286,-2011,-9,-20,-2,-464,-1055,591,759
,715,2023-10-27 12:03:58.28,-369,-278,-2026,-17,-39,-8,-432,-1018,586,725
,716,2023-10-27 12:03:58.29,-353,-295,-1972,-17,-31,-15,-441,-1062,621,751
,717,2023-10-27 12:03:58.30,-349,-298,-1965,-11,-13,-29,-427,-1029,602,728
,718,2023-10-27 12:03:58.31,-372,-315,-1986,9,-9,-39,-420,-1060,640,740
,719,2023-10-27 12:03:58.32,-370,-298,-1993,26,-19,-47,-400,-1024,624,712
,720,2023-10-27 12:03:58.33,-373,-319,-1991,32,-22,-51,-395,-1053,658,724
,721,2023-10-27 12:03:58.34,-366,-336,-1983,36,-12,-48,-393,-1030,637,711
,722,2023-10-27 12:03:58.35,-373,-336,-1992,38,-16,-45,-393,-1056,663,724
,723,2023-10-27 12:03:58.36,-386,-319,-2015,30,-20,-41,-389,-1029,640,709
,724,2023-10-27 12:03:58.37,-389,-294,-2026,8,-49,-43,-378,-1048,670,713
,725,2023-10-27 12:03:58.38,-370,-299,-2000,-25,-59,-41,-384,-1025,641,704
,726,2023-10-27 12:03:58.39,-397,-326,-1979,-54,-57,-40,-398,-1044,646,721
,727,2023-10-27 12:03:58.40,-403,-328,-1983,-63,-45,-38,-428,-1026,598,727
,728,2023-10-27 12:03:58.41,-409,-337,-2004,-59,-54,-22,-432,-1042,610,737
,729,2023-10-27 12:03:58.42,-410,-349,-2009,-47,-64,5,-454,-1045,591,749
,730,2023-10-27 12:03:58.43,-422,-330,-1987,-37,-70,40,-453,-1071,618,762
,731,2023-10-27 12:03:58.44,-426,-290,-2002,-41,-84,51,-462,-1049,587,755
,732,2023-10-27 12:03:58.45,-415,-280,-1969,-53,-86,57,-437,-1040,603,738
,733,2023-10-27 12:03:58.46,-434,-282,-1955,-60,-65,50,-446,-1030,584,738
,734,2023-10-27 12:03:58.47,-426,-294,-1971,-53,-61,42,-440,-1040,600,740
,735,2023-10-27 12:03:58.48,-435,-296,-1980,-36,-50,37,-475,-1043,568,759
,736,2023-10-27 12:03:58.49,-436,-280,-1987,-16,-63,25,-473,-1046,573,759
,737,2023-10-27 12:03:58.50,-442,-273,-1977,-3,-68,12,-501,-1046,545,773
,738,2023-10-27 12:03:58.51,-444,-266,-1976,6,-71,-13,-475,-1042,567,758
,739,2023-10-27 12:03:58.52,-447,-266,-1982,0,-65,-41,-496,-1040,544,768
,740,2023-10-27 12:03:58.53,-459,-266,-1996,-14,-53,-67,-472,-1032,560,752
,741,2023-10-27 12:03:58.54,-451,-285,-1974,-28,-47,-89,-492,-1037,545,764
,742,2023-10-27 12:03:58.55,-448,-325,-1966,-37,-40,-97,-452,-1028,576,740
,743,2023-10-27 12:03:58.56,-430,-337,-1963,-31,-22,-88,-481,-1047,566,764
,744,2023-10-27 12:03:58.57,-423,-326,-1952,-19,-18,-82,-450,-1036,586,743
,745,2023-10-27 12:03:58.58,-435,-309,-1951,-17,-9,-70,-481,-1056,575,768
,746,2023-10-27 12:03:58.59,-438,-291,-1973,-23,3,-64,-450,-1037,587,743
,747,2023-10-27 12:03:58.60,-411,-280,-1959,-27,8,-62,-502,-1056,554,779
,748,2023-10-27 12:03:58.61,-413,-261,-1967,-34,27,-69,-479,-1034,555,756
,749,2023-10-27 12:03:58.62,-406,-260,-1964,-36,33,-85,-533,-1053,520,793
,750,2023-10-27 12:03:58.63,-425,-241,-1981,-31,29,-106,-520,-1030,510,775
,751,2023-10-27 12:03:58.64,-416,-223,-1991,-27,25,-130,-568,-1065,497,816
,752,2023-10-27 12:03:58.65,-421,-223,-2012,-28,15,-159,-520,-1035,515,777
,753,2023-10-27 12:03:58.66,-443,-200,-2001,-28,-1,-197,-565,-1059,494,812
,754,2023-10-27 12:03:58.67,-462,-170,-2030,-27,-16,-247,-522,-1019,497,770
,755,2023-10-27 12:03:58.68,-462,-125,-2026,-40,-24,-309,-589,-1064,475,826
,756,2023-10-27 12:03:58.69,-457,-119,-2014,-58,-22,-388,-541,-1028,487,784
,757,2023-10-27 12:03:58.70,-470,-101,-1983,-77,-3,-482,-587,-1068,481,827
,758,2023-10-27 12:03:58.71,-496,-66,-1968,-92,9,-595,-544,-1026,482,785
,759,2023-10-27 12:03:58.72,-490,-78,-1998,-109,8,-711,-589,-1059,470,824
,760,2023-10-27 12:03:58.73,-498,-92,-2022,-130,8,-827,-523,-1013,490,768
,761,2023-10-27 12:03:58.74,-473,-119,-1992,-171,15,-945,-553,-1057,504,805
,762,2023-10-27 12:03:58.75,-449,-155,-1983,-191,30,-1051,-477,-1012,535,744
,763,2023-10-27 12:03:58.76,-425,-156,-1981,-193,14,-1155,-526,-1072,546,799
,764,2023-10-27 12:03:58.77,-413,-164,-2008,-178,-1,-1248,-461,-1025,564,743
,765,2023-10-27 12:03:58.78,-397,-167,-2006,-192,2,-1332,-523,-1077,554,800
,766,2023-10-27 12:03:58.79,-387,-170,-1993,-206,0,-1420,-457,-1016,559,736
,767,2023-10-27 12:03:58.80,-408,-218,-2009,-208,-7,-1495,-512,-1069,557,790
,768,2023-10-27 12:03:58.81,-399,-313,-2006,-208,-15,-1535,-449,-1010,561,729
,769,2023-10-27 12:03:58.82,-403,-386,-1971,-183,-19,-1528,-530,-1077,547,803
,770,2023-10-27 12:03:58.83,-396,-403,-1956,-143,-44,-1501,-470,-1016,546,743
,771,2023-10-27 12:03:58.84,-378,-379,-1963,-111,-60,-1467,-514,-1072,558,793
,772,2023-10-27 12:03:58.85,-358,-333,-1967,-111,-64,-1444,-416,-1001,585,708
,773,2023-10-27 12:03:58.86,-347,-318,-1949,-115,-51,-1426,-458,-1071,613,764
,774,2023-10-27 12:03:58.87,-346,-292,-1988,-144,-25,-1426,-391,-1006,615,698
,775,2023-10-27 12:03:58.88,-340,-279,-2004,-179,-8,-1431,-479,-1082,603,780
,776,2023-10-27 12:03:58.89,-363,-352,-1995,-196,7,-1428,-423,-1016,593,719
,777,2023-10-27 12:03:58.90,-381,-420,-1988,-196,36,-1397,-487,-1097,610,792
,778,2023-10-27 12:03:58.91,-364,-422,-1955,-160,39,-1345,-400,-1021,621,710
,779,2023-10-27 12:03:58.92,-346,-401,-1962,-109,49,-1288,-452,-1096,644,774
,780,2023-10-27 12:03:58.93,-338,-338,-1978,-81,52,-1246,-368,-1011,643,689
,781,2023-10-27 12:03:58.94,-325,-293,-1991,-71,55,-1222,-448,-1083,635,765
,782,2023-10-27 12:03:58.95,-305,-292,-2001,-71,74,-1205,-374,-998,624,686
,783,2023-10-27 12:03:58.96,-302,-296,-1994,-62,76,-1193,-425,-1073,648,749
,784,2023-10-27 12:03:58.97,-295,-290,-2005,-44,77,-1184,-337,-992,655,664
,785,2023-10-27 12:03:58.98,-292,-291,-2012,-31,80,-1178,-410,-1080,670,745
,786,2023-10-27 12:03:58.99,-275,-305,-2014,-30,86,-1176,-330,-997,667,663
,787,2023-10-27 12:03:59.00,-259,-298,-2024,-27,83,-1171,-381,-1087,706,734
,788,2023-10-27 12:03:59.01,-269,-287,-2012,-20,83,-1168,-296,-1000,704,648
,789,2023-10-27 12:03:59.02,-237,-287,-1990,-15,72,-1171,-377,-1093,716,735
,790,2023-10-27 12:03:59.03,-233,-270,-1999,-23,88,-1183,-313,-1005,692,659
,791,2023-10-27 12:03:59.04,-217,-288,-1973,-22,95,-1194,-388,-1099,711,743
,792,2023-10-27 12:03:59.05,-226,-313,-1972,-20,118,-1210,-303,-1007,704,655
,793,2023-10-27 12:03:59.06,-195,-325,-1975,-13,128,-1224,-371,-1095,724,733
,794,2023-10-27 12:03:59.07,-208,-357,-1968,-2,144,-1234,-313,-1006,693,659
,795,2023-10-27 12:03:59.08,-203,-397,-1953,17,143,-1241,-407,-1104,697,755
,796,2023-10-27 12:03:59.09,-177,-352,-1973,35,147,-1238,-350,-1014,664,682
,797,2023-10-27 12:03:59.10,-130,-309,-1946,23,103,-1247,-422,-1101,679,761
,798,2023-10-27 12:03:59.11,-159,-366,-1988,5,184,-1281,-326,-1000,674,663
,799,2023-10-27 12:03:59.12,-153,-348,-1988,-5,226,-1294,-404,-1098,694,751
,800,2023-10-27 12:03:59.13,-180,-403,-1969,-25,233,-1311,-329,-999,670,664
,801,2023-10-27 12:03:59.14,-139,-334,-2007,-27,219,-1333,-428,-1099,671,763
,802,2023-10-27 12:03:59.15,-125,-357,-1973,-48,221,-1351,-356,-999,643,677
,803,2023-10-27 12:03:59.16,-115,-394,-1972,-69,239,-1378,-454,-1109,655,781
,804,2023-10-27 12:03:59.17,-106,-414,-1994,-77,244,-1389,-370,-1009,639,689
,805,2023-10-27 12:03:59.18,-102,-414,-2010,-77,243,-1399,-461,-1113,652,787
,806,2023-10-27 12:03:59.19,-71,-397,-2006,-73,237,-1410,-374,-1004,630,689
,807,2023-10-27 12:03:59.20,-68,-384,-1996,-76,225,-1424,-446,-1097,651,771
,808,2023-10-27 12:03:59.21,-61,-376,-2008,-83,211,-1440,-358,-991,633,674
,809,2023-10-27 12:03:59.22,-44,-369,-2037,-97,193,-1457,-457,-1103,646,780
,810,2023-10-27 12:03:59.23,-25,-377,-2031,-104,181,-1468,-376,-1000,624,688
,811,2023-10-27 12:03:59.24,-8,-362,-2028,-105,179,-1481,-454,-1105,651,779
,812,2023-10-27 12:03:59.25,3,-362,-2022,-104,185,-1496,-359,-996,637,677
,813,2023-10-27 12:03:59.26,20,-367,-2017,-103,188,-1510,-436,-1105,669,770
,814,2023-10-27 12:03:59.27,31,-387,-2026,-99,202,-1529,-348,-996,648,672
,815,2023-10-27 12:03:59.28,33,-389,-2035,-91,219,-1538,-445,-1107,662,776
,816,2023-10-27 12:03:59.29,29,-423,-2022,-86,227,-1537,-371,-1000,629,685
,817,2023-10-27 12:03:59.30,44,-429,-2040,-67,224,-1525,-478,-1114,636,796
,818,2023-10-27 12:03:59.31,52,-455,-2031,-49,203,-1503,-396,-1000,604,698
,819,2023-10-27 12:03:59.32,47,-472,-2028,-30,188,-1476,-482,-1102,620,792
,820,2023-10-27 12:03:59.33,90,-462,-2027,-18,189,-1444,-390,-987,597,688
,821,2023-10-27 12:03:59.34,85,-457,-2013,-1,138,-1411,-471,-1097,626,784
,822,2023-10-27 12:03:59.35,108,-444,-2024,-1,134,-1387,-380,-989,609,684
,823,2023-10-27 12:03:59.36,124,-435,-2005,3,111,-1358,-444,-1103,659,773
,824,2023-10-27 12:03:59.37,140,-407,-2012,-7,125,-1339,-346,-991,645,668
,825,2023-10-27 12:03:59.38,155,-389,-2040,-43,155,-1322,-433,-1106,673,769
,826,2023-10-27 12:03:59.39,155,-404,-2055,-87,184,-1303,-356,-993,637,674
,827,2023-10-27 12:03:59.40,154,-423,-2057,-117,193,-1277,-442,-1104,662,773
,828,2023-10-27 12:03:59.41,153,-408,-2050,-109,163,-1242,-370,-996,626,683
,829,2023-10-27 12:03:59.42,164,-414,-2021,-99,144,-1201,-460,-1113,653,786
,830,2023-10-27 12:03:59.43,175,-425,-2019,-100,137,-1167,-382,-1000,618,691
,831,2023-10-27 12:03:59.44,178,-410,-2017,-101,142,-1130,-468,-1104,636,786
,832,2023-10-27 12:03:59.45,163,-412,-2033,-99,147,-1085,-390,-986,596,688
,833,2023-10-27 12:03:59.46,152,-411,-2049,-105,140,-1048,-461,-1095,634,778
,834,2023-10-27 12:03:59.47,159,-394,-2041,-107,129,-1007,-368,-981,613,674
,835,2023-10-27 12:03:59.48,178,-358,-2014,-126,130,-946,-459,-1103,644,781
,836,2023-10-27 12:03:59.49,185,-353,-1999,-140,144,-923,-375,-994,619,684
,837,2023-10-27 12:03:59.50,208,-357,-1997,-141,157,-903,-456,-1112,656,784
,838,2023-10-27 12:03:59.51,227,-358,-1979,-133,176,-886,-368,-1000,632,684
,839,2023-10-27 12:03:59.52,248,-363,-1987,-121,191,-863,-446,-1118,672,782
,840,2023-10-27 12:03:59.53,256,-380,-1981,-102,208,-833,-373,-1008,635,690
,841,2023-10-27 12:03:59.54,279,-406,-2004,-71,224,-797,-449,-1116,667,782
,842,2023-10-27 12:03:59.55,293,-398,-2010,-36,226,-758,-376,-1000,624,688
,843,2023-10-27 12:03:59.56,313,-406,-2015,-3,222,-718,-460,-1103,643,781
,844,2023-10-27 12:03:59.57,340,-405,-1986,37,218,-680,-391,-991,600,691
,845,2023-10-27 12:03:59.58,368,-387,-1976,75,212,-644,-471,-1103,632,787
,846,2023-10-27 12:03:59.59,389,-392,-1992,101,227,-611,-395,-994,599,694
,847,2023-10-27 12:03:59.60,408,-400,-2009,121,230,-573,-436,-1096,660,766
,848,2023-10-27 12:03:59.61,419,-389,-2034,138,223,-538,-345,-990,645,667
,849,2023-10-27 12:03:59.62,437,-386,-2047,154,195,-505,-405,-1094,689,749
,850,2023-10-27 12:03:59.63,452,-371,-2062,174,151,-482,-333,-988,655,660
,851,2023-10-27 12:03:59.64,452,-338,-2087,182,111,-467,-414,-1092,678,753
,852,2023-10-27 12:03:59.65,480,-340,-2077,180,75,-457,-366,-995,629,680
,853,2023-10-27 12:03:59.66,473,-345,-2049,174,45,-452,-440,-1100,660,770
,854,2023-10-27 12:03:59.67,480,-344,-2046,178,8,-449,-380,-996,616,688
,855,2023-10-27 12:03:59.68,495,-338,-2047,181,-27,-446,-459,-1098,639,778
,856,2023-10-27 12:03:59.69,500,-351,-2025,180,-53,-450,-402,-998,596,700
,857,2023-10-27 12:03:59.70,495,-359,-2020,182,-74,-451,-464,-1095,631,779
,858,2023-10-27 12:03:59.71,502,-354,-2010,184,-86,-458,-400,-996,596,698
,859,2023-10-27 12:03:59.72,509,-346,-1980,176,-101,-462,-464,-1090,626,777
,860,2023-10-27 12:03:59.73,493,-350,-1969,176,-124,-467,-399,-990,591,694
,861,2023-10-27 12:03:59.74,491,-311,-2008,175,-144,-479,-462,-1079,617,770
,862,2023-10-27 12:03:59.75,487,-338,-2042,155,-152,-496,-414,-995,581,704
,863,2023-10-27 12:03:59.76,464,-344,-2092,130,-149,-510,-484,-1096,612,790
,864,2023-10-27 12:03:59.77,450,-342,-2144,86,-157,-518,-423,-999,576,711
,865,2023-10-27 12:03:59.78,413,-367,-2152,22,-165,-510,-478,-1080,602,779
,866,2023-10-27 12:03:59.79,360,-390,-2150,-30,-213,-496,-416,-988,572,702
,867,2023-10-27 12:03:59.80,313,-391,-2183,-73,-282,-465,-472,-1070,598,771
,868,2023-10-27 12:03:59.81,279,-379,-2188,-140,-359,-415,-423,-992,569,707
,869,2023-10-27 12:03:59.82,261,-242,-2271,-248,-410,-363,-482,-1086,604,784
,870,2023-10-27 12:03:59.83,208,-316,-2097,-325,-474,-310,-441,-1004,563,722
,871,2023-10-27 12:03:59.84,189,-293,-2073,-354,-523,-266,-513,-1082,569,797
,872,2023-10-27 12:03:59.85,175,-324,-1997,-405,-559,-220,-465,-1004,539,734
,873,2023-10-27 12:03:59.86,163,-314,-1953,-432,-574,-186,-515,-1086,571,800
,874,2023-10-27 12:03:59.87,172,-300,-1925,-419,-595,-149,-456,-1005,549,730
,875,2023-10-27 12:03:59.88,155,-280,-1909,-398,-594,-122,-479,-1068,589,773
,876,2023-10-27 12:03:59.89,153,-280,-1931,-375,-570,-104,-424,-999,575,711
,877,2023-10-27 12:03:59.90,144,-271,-1921,-358,-523,-89,-459,-1078,619,768
,878,2023-10-27 12:03:59.91,136,-205,-1972,-326,-472,-89,-425,-1014,589,719
,879,2023-10-27 12:03:59.92,130,-256,-1948,-300,-419,-95,-477,-1075,598,776
,880,2023-10-27 12:03:59.93,130,-227,-1999,-262,-353,-111,-440,-998,558,719
,881,2023-10-27 12:03:59.94,112,-246,-1991,-239,-277,-135,-477,-1056,579,766
,882,2023-10-27 12:03:59.95,123,-238,-2008,-202,-212,-158,-439,-991,552,715
,883,2023-10-27 12:03:59.96,107,-269,-2013,-155,-159,-174,-467,-1053,586,760
,884,2023-10-27 12:03:59.97,98,-290,-2028,-101,-117,-185,-436,-1006,570,721
,885,2023-10-27 12:03:59.98,84,-317,-2023,-53,-71,-178,-457,-1068,611,762
,886,2023-10-27 12:03:59.99,96,-336,-2023,2,-44,-164,-440,-1012,572,726
,887,2023-10-27 12:04:00.00,97,-340,-2037,46,-13,-138,-481,-1066,585,773
,888,2023-10-27 12:04:00.01,107,-339,-2034,72,28,-110,-457,-1014,557,735
,889,2023-10-27 12:04:00.02,108,-331,-2018,102,53,-85,-486,-1070,584,778
,890,2023-10-27 12:04:00.03,118,-321,-2028,130,73,-57,-452,-1011,559,731
,891,2023-10-27 12:04:00.04,127,-325,-2020,158,67,-27,-468,-1052,584,760
,892,2023-10-27 12:04:00.05,117,-345,-1998,180,64,3,-444,-1013,569,728
,893,2023-10-27 12:04:00.06,120,-341,-1978,208,60,33,-461,-1066,605,763
