// Data mode  : Full
// Data quality  : High
// Acceleration sensor's range  : 16g
// Gyroscope sensor's range  : 2000dps
//
//ARTIFACT,NUM,DATE,ACC_X,ACC_Y,ACC_Z,GYRO_X,GYRO_Y,GYRO_Z,EOG_L,EOG_R,EOG_H,EOG_V
,1,2023-10-27 12:04:18.31,10,-133,-2053,61,27,4,22,-439,461,208
,2,2023-10-27 12:04:18.32,4,-128,-2054,56,28,5,-41,-432,391,236
,3,2023-10-27 12:04:18.33,4,-140,-2066,50,32,5,30,-433,463,201
,4,2023-10-27 12:04:18.34,20,-141,-2053,39,39,7,-34,-423,389,228
,5,2023-10-27 12:04:18.35,11,-166,-2048,36,28,8,38,-418,456,190
,6,2023-10-27 12:04:18.36,16,-170,-2062,41,19,8,-30,-409,379,219
,7,2023-10-27 12:04:18.37,19,-167,-2052,43,18,15,47,-398,445,175
,8,2023-10-27 12:04:18.38,8,-172,-2050,30,14,16,-22,-394,372,208
,9,2023-10-27 12:04:18.39,24,-175,-2052,17,7,20,54,-386,440,166
,10,2023-10-27 12:04:18.40,21,-187,-2057,5,3,27,-18,-394,376,206
,11,2023-10-27 12:04:18.41,32,-194,-2076,-6,3,30,59,-384,443,162
,12,2023-10-27 12:04:18.42,32,-187,-2084,-24,-6,32,-14,-394,380,204
,13,2023-10-27 12:04:18.43,40,-187,-2076,-45,-9,33,62,-380,442,159
,14,2023-10-27 12:04:18.44,29,-205,-2075,-54,-20,37,-4,-392,388,198
,15,2023-10-27 12:04:18.45,29,-185,-2072,-69,-30,36,66,-379,445,156
,16,2023-10-27 12:04:18.46,20,-163,-2084,-81,-40,35,-12,-399,387,205
,17,2023-10-27 12:04:18.47,18,-162,-2059,-101,-45,34,55,-389,444,167
,18,2023-10-27 12:04:18.48,18,-160,-2076,-108,-64,31,-18,-410,392,214
,19,2023-10-27 12:04:18.49,21,-148,-2068,-115,-72,32,61,-385,446,162
,20,2023-10-27 12:04:18.50,13,-145,-2033,-116,-73,32,-23,-418,395,220
,21,2023-10-27 12:04:18.51,17,-147,-2032,-105,-77,26,53,-392,445,169
,22,2023-10-27 12:04:18.52,7,-149,-2039,-91,-80,24,-38,-432,394,235
,23,2023-10-27 12:04:18.53,-6,-146,-2036,-72,-78,26,42,-406,448,182
,24,2023-10-27 12:04:18.54,-11,-135,-2040,-63,-68,22,-41,-438,397,239
,25,2023-10-27 12:04:18.55,-12,-134,-2033,-51,-72,16,50,-401,451,175
,26,2023-10-27 12:04:18.56,-7,-125,-2044,-38,-69,17,-44,-444,400,244
,27,2023-10-27 12:04:18.57,-20,-124,-2042,-36,-56,16,48,-407,455,179
,28,2023-10-27 12:04:18.58,-13,-120,-2037,-42,-47,15,-47,-451,404,249
,29,2023-10-27 12:04:18.59,-31,-122,-2048,-42,-41,15,46,-407,453,180
,30,2023-10-27 12:04:18.60,-24,-121,-2044,-41,-35,18,-47,-450,403,248
,31,2023-10-27 12:04:18.61,-23,-116,-2042,-43,-33,19,48,-403,451,177
,32,2023-10-27 12:04:18.62,-29,-122,-2050,-45,-27,20,-48,-453,405,250
,33,2023-10-27 12:04:18.63,-26,-119,-2060,-46,-26,25,44,-403,447,179
,34,2023-10-27 12:04:18.64,-27,-118,-2060,-46,-31,30,-49,-454,405,251
,35,2023-10-27 12:04:18.65,-14,-115,-2051,-47,-30,30,41,-403,444,181
,36,2023-10-27 12:04:18.66,-20,-115,-2050,-50,-26,34,-52,-463,411,257
,37,2023-10-27 12:04:18.67,-18,-108,-2054,-51,-26,33,40,-406,446,183
,38,2023-10-27 12:04:18.68,-28,-107,-2055,-50,-24,33,-54,-467,413,260
,39,2023-10-27 12:04:18.69,-10,-102,-2049,-52,-28,30,42,-404,446,181
,40,2023-10-27 12:04:18.70,-30,-102,-2047,-54,-27,28,-59,-471,412,265
,41,2023-10-27 12:04:18.71,-14,-103,-2049,-53,-33,29,39,-405,444,183
,42,2023-10-27 12:04:18.72,-28,-108,-2056,-52,-35,24,-57,-471,414,264
,43,2023-10-27 12:04:18.73,-22,-108,-2059,-52,-39,24,47,-401,448,177
,44,2023-10-27 12:04:18.74,-19,-108,-2049,-53,-38,25,-53,-466,413,259
,45,2023-10-27 12:04:18.75,-18,-111,-2046,-55,-42,24,52,-391,443,169
,46,2023-10-27 12:04:18.76,-11,-105,-2048,-59,-38,22,-48,-465,417,256
,47,2023-10-27 12:04:18.77,-20,-108,-2048,-61,-42,19,54,-393,447,169
,48,2023-10-27 12:04:18.78,-23,-99,-2062,-66,-40,22,-50,-471,421,260
,49,2023-10-27 12:04:18.79,-28,-93,-2068,-67,-44,18,47,-396,443,174
,50,2023-10-27 12:04:18.80,-30,-88,-2068,-66,-44,17,-52,-477,425,264
,51,2023-10-27 12:04:18.81,-34,-86,-2052,-59,-45,13,50,-398,448,174
,52,2023-10-27 12:04:18.82,-30,-87,-2053,-49,-44,10,-52,-480,428,266
,53,2023-10-27 12:04:18.83,-31,-82,-2047,-38,-38,8,44,-399,443,177
,54,2023-10-27 12:04:18.84,-35,-72,-2043,-26,-38,0,-55,-484,429,269
,55,2023-10-27 12:04:18.85,-46,-82,-2041,-9,-35,-3,52,-393,445,170
,56,2023-10-27 12:04:18.86,-50,-83,-2055,5,-28,-3,-58,-489,431,273
,57,2023-10-27 12:04:18.87,-34,-85,-2042,18,-24,-8,31,-411,442,190
,58,2023-10-27 12:04:18.88,-38,-77,-2044,32,-21,-12,-91,-525,434,308
,59,2023-10-27 12:04:18.89,-32,-76,-2040,41,-13,-18,3,-444,447,220
,60,2023-10-27 12:04:18.90,-46,-73,-2045,45,-2,-20,-114,-563,449,338
,61,2023-10-27 12:04:18.91,-43,-76,-2052,45,2,-22,-25,-484,459,254
,62,2023-10-27 12:04:18.92,-56,-82,-2053,47,3,-23,-128,-588,460,358
,63,2023-10-27 12:04:18.93,-51,-81,-2054,44,1,-23,-28,-491,463,259
,64,2023-10-27 12:04:18.94,-58,-79,-2052,40,-2,-18,-126,-585,459,355
,65,2023-10-27 12:04:18.95,-64,-76,-2059,37,3,-11,-22,-480,458,251
,66,2023-10-27 12:04:18.96,-55,-83,-2047,33,1,-10,-120,-575,455,347
,67,2023-10-27 12:04:18.97,-49,-72,-2052,38,5,-7,-16,-472,456,244
,68,2023-10-27 12:04:18.98,-58,-71,-2042,37,5,-10,-113,-570,457,341
,69,2023-10-27 12:04:18.99,-50,-66,-2044,39,12,-9,-8,-461,453,234
,70,2023-10-27 12:04:19.00,-45,-72,-2040,45,14,-11,-101,-554,453,327
,71,2023-10-27 12:04:19.01,-51,-81,-2052,51,14,-15,6,-441,447,217
,72,2023-10-27 12:04:19.02,-46,-81,-2051,58,10,-17,-91,-544,453,317
,73,2023-10-27 12:04:19.03,-59,-96,-2057,68,14,-16,9,-437,446,214
,74,2023-10-27 12:04:19.04,-38,-102,-2048,72,21,-14,-85,-538,453,311
,75,2023-10-27 12:04:19.05,-46,-101,-2047,71,21,-14,14,-427,441,206
,76,2023-10-27 12:04:19.06,-36,-101,-2054,74,27,-12,-77,-527,450,302
,77,2023-10-27 12:04:19.07,-32,-108,-2051,76,27,-10,14,-419,433,202
,78,2023-10-27 12:04:19.08,-38,-124,-2055,74,31,-5,-74,-522,448,298
,79,2023-10-27 12:04:19.09,-35,-119,-2052,76,35,-1,20,-408,428,194
,80,2023-10-27 12:04:19.10,-43,-132,-2051,70,35,4,-64,-514,450,289
,81,2023-10-27 12:04:19.11,-43,-141,-2060,69,29,8,19,-406,425,193
,82,2023-10-27 12:04:19.12,-27,-140,-2049,65,28,14,-65,-515,450,290
,83,2023-10-27 12:04:19.13,-14,-135,-2046,58,32,19,20,-405,425,192
,84,2023-10-27 12:04:19.14,-27,-129,-2042,47,38,23,-62,-513,451,287
,85,2023-10-27 12:04:19.15,-29,-133,-2050,38,38,21,22,-399,421,188
,86,2023-10-27 12:04:19.16,-28,-131,-2061,31,35,22,-58,-511,453,284
,87,2023-10-27 12:04:19.17,-29,-133,-2062,22,32,21,23,-397,420,187
,88,2023-10-27 12:04:19.18,-20,-128,-2059,19,29,19,-55,-506,451,280
,89,2023-10-27 12:04:19.19,-25,-122,-2056,13,24,16,27,-388,415,180
,90,2023-10-27 12:04:19.20,-27,-123,-2060,15,22,15,-56,-506,450,281
,91,2023-10-27 12:04:19.21,-25,-118,-2057,19,16,12,24,-390,414,183
,92,2023-10-27 12:04:19.22,-23,-124,-2050,24,6,3,-56,-509,453,282
,93,2023-10-27 12:04:19.23,-30,-123,-2053,24,10,1,25,-391,416,183
,94,2023-10-27 12:04:19.24,-26,-116,-2044,26,8,-5,-56,-510,454,283
,95,2023-10-27 12:04:19.25,-26,-120,-2046,30,6,-6,20,-392,412,186
,96,2023-10-27 12:04:19.26,-23,-121,-2048,30,9,-7,-44,-501,457,272
,97,2023-10-27 12:04:19.27,-27,-124,-2046,26,14,-7,25,-389,414,182
,98,2023-10-27 12:04:19.28,-25,-128,-2047,23,21,-6,-46,-507,461,276
,99,2023-10-27 12:04:19.29,-28,-132,-2048,18,22,-3,12,-399,411,193
,100,2023-10-27 12:04:19.30,-21,-127,-2052,12,30,1,-54,-510,456,282
,101,2023-10-27 12:04:19.31,-37,-131,-2053,6,26,3,12,-395,407,191
,102,2023-10-27 12:04:19.32,-23,-128,-2053,-1,24,5,-61,-516,455,288
,103,2023-10-27 12:04:19.33,-25,-128,-2051,-4,24,8,16,-397,413,190
,104,2023-10-27 12:04:19.34,-29,-126,-2052,-4,23,6,-49,-515,466,282
,105,2023-10-27 12:04:19.35,-16,-110,-2053,-9,22,8,17,-401,418,192
,106,2023-10-27 12:04:19.36,-22,-110,-2054,-20,17,10,-50,-512,462,281
,107,2023-10-27 12:04:19.37,-22,-109,-2056,-32,20,13,11,-400,411,194
,108,2023-10-27 12:04:19.38,-13,-127,-2056,-34,23,18,-48,-510,462,279
,109,2023-10-27 12:04:19.39,-26,-122,-2065,-27,12,17,7,-400,407,196
,110,2023-10-27 12:04:19.40,-18,-112,-2059,-18,10,18,-48,-511,463,279
,111,2023-10-27 12:04:19.41,-15,-104,-2056,-7,1,13,5,-396,401,195
,112,2023-10-27 12:04:19.42,-24,-116,-2052,-5,-5,9,-46,-504,458,275
,113,2023-10-27 12:04:19.43,-11,-125,-2053,-1,-6,15,4,-396,400,196
,114,2023-10-27 12:04:19.44,-23,-126,-2053,-1,-9,22,-44,-506,462,275
,115,2023-10-27 12:04:19.45,-31,-129,-2066,0,-19,23,0,-395,395,197
,116,2023-10-27 12:04:19.46,-27,-117,-2066,-6,-36,22,-44,-505,461,274
,117,2023-10-27 12:04:19.47,-29,-121,-2072,-18,-46,15,1,-396,397,197
,118,2023-10-27 12:04:19.48,-22,-122,-2072,-27,-58,13,-36,-507,471,271
,119,2023-10-27 12:04:19.49,-25,-145,-2056,-32,-57,8,4,-396,400,196
,120,2023-10-27 12:04:19.50,-35,-122,-2017,-32,-45,13,-35,-505,470,270
,121,2023-10-27 12:04:19.51,-44,-105,-2075,-64,-28,7,2,-395,397,196
,122,2023-10-27 12:04:19.52,-23,-112,-2058,-64,-39,5,-32,-498,466,265
,123,2023-10-27 12:04:19.53,-35,-129,-2031,-56,-24,11,3,-389,392,193
,124,2023-10-27 12:04:19.54,-28,-120,-2033,-37,-7,7,-32,-492,460,262
,125,2023-10-27 12:04:19.55,-39,-91,-2044,-25,8,6,4,-387,391,191
,126,2023-10-27 12:04:19.56,-39,-85,-2044,-15,19,9,-29,-495,466,262
,127,2023-10-27 12:04:19.57,-29,-83,-2031,-3,19,13,0,-396,396,198
,128,2023-10-27 12:04:19.58,-34,-91,-2051,1,30,13,-34,-501,467,267
,129,2023-10-27 12:04:19.59,-36,-89,-2046,15,28,17,-6,-402,396,204
,130,2023-10-27 12:04:19.60,-31,-89,-2053,29,22,22,-31,-502,471,266
,131,2023-10-27 12:04:19.61,-20,-103,-2059,37,24,27,-2,-406,404,204
,132,2023-10-27 12:04:19.62,-16,-125,-2058,47,27,33,-28,-502,474,265
,133,2023-10-27 12:04:19.63,-22,-122,-2049,52,33,38,-8,-408,400,208
,134,2023-10-27 12:04:19.64,-16,-124,-2049,61,41,38,-26,-498,472,262
,135,2023-10-27 12:04:19.65,-22,-123,-2064,72,44,36,-5,-403,398,204
,136,2023-10-27 12:04:19.66,-24,-99,-2070,73,43,35,-17,-488,471,252
,137,2023-10-27 12:04:19.67,-18,-100,-2048,67,34,31,9,-389,398,190
,138,2023-10-27 12:04:19.68,-25,-110,-2051,65,29,22,-12,-482,470,247
,139,2023-10-27 12:04:19.69,-32,-94,-2049,47,29,17,-6,-396,390,201
,140,2023-10-27 12:04:19.70,-24,-106,-2047,26,32,19,-16,-489,473,252
,141,2023-10-27 12:04:19.71,-41,-102,-2059,9,35,20,-6,-398,392,202
,142,2023-10-27 12:04:19.72,-35,-97,-2053,-9,35,21,-5,-482,477,243
,143,2023-10-27 12:04:19.73,-37,-99,-2037,-25,36,21,-10,-402,392,206
,144,2023-10-27 12:04:19.74,-39,-107,-2036,-26,45,21,-3,-488,485,245
,145,2023-10-27 12:04:19.75,-30,-101,-2045,-27,52,22,-10,-410,400,210
,146,2023-10-27 12:04:19.76,-21,-96,-2040,-15,57,23,-4,-493,489,248
,147,2023-10-27 12:04:19.77,-14,-102,-2050,0,53,19,-13,-414,401,213
,148,2023-10-27 12:04:19.78,-24,-82,-2056,18,51,14,-6,-495,489,250
,149,2023-10-27 12:04:19.79,-8,-76,-2060,37,49,7,-16,-420,404,218
,150,2023-10-27 12:04:19.80,-4,-81,-2053,57,50,2,-16,-501,485,258
,151,2023-10-27 12:04:19.81,-9,-104,-2040,73,56,-3,-27,-427,400,227
,152,2023-10-27 12:04:19.82,-6,-121,-2055,87,58,-16,-20,-498,478,259
,153,2023-10-27 12:04:19.83,-9,-117,-2065,94,55,-14,-29,-426,397,227
,154,2023-10-27 12:04:19.84,-6,-121,-2067,97,51,-12,-17,-498,481,257
,155,2023-10-27 12:04:19.85,-1,-133,-2070,98,39,-8,-28,-430,402,229
,156,2023-10-27 12:04:19.86,-6,-115,-2072,88,33,-8,-16,-494,478,255
,157,2023-10-27 12:04:19.87,-4,-130,-2061,71,17,-4,-31,-427,396,229
,158,2023-10-27 12:04:19.88,-21,-144,-2074,53,7,-3,-14,-489,475,251
,159,2023-10-27 12:04:19.89,-4,-134,-2063,38,-7,11,-35,-431,396,233
,160,2023-10-27 12:04:19.90,1,-152,-2058,27,-24,18,-16,-492,476,254
,161,2023-10-27 12:04:19.91,-8,-166,-2037,14,-26,31,-37,-436,399,236
,162,2023-10-27 12:04:19.92,-17,-163,-2044,10,-11,44,-16,-491,475,253
,163,2023-10-27 12:04:19.93,-14,-154,-2048,2,-1,53,-45,-438,393,241
,164,2023-10-27 12:04:19.94,-2,-158,-2063,-2,15,66,-25,-496,471,260
,165,2023-10-27 12:04:19.95,-3,-167,-2066,6,17,85,-68,-453,385,260
,166,2023-10-27 12:04:19.96,0,-162,-2069,18,21,102,-49,-506,457,277
,167,2023-10-27 12:04:19.97,-7,-151,-2074,26,10,115,-87,-464,377,275
,168,2023-10-27 12:04:19.98,-1,-146,-2076,37,1,128,-60,-513,453,286
,169,2023-10-27 12:04:19.99,-1,-157,-2074,48,-3,140,-94,-471,377,282
,170,2023-10-27 12:04:20.00,-1,-160,-2065,60,-9,150,-61,-504,443,282
,171,2023-10-27 12:04:20.01,4,-166,-2061,76,-10,164,-96,-461,365,278
,172,2023-10-27 12:04:20.02,-19,-163,-2064,95,-2,174,-52,-488,436,270
,173,2023-10-27 12:04:20.03,-25,-155,-2064,112,-2,188,-89,-450,361,269
,174,2023-10-27 12:04:20.04,-31,-171,-2059,132,-10,200,-37,-473,436,255
,175,2023-10-27 12:04:20.05,-28,-160,-2041,145,-6,213,-78,-437,359,257
,176,2023-10-27 12:04:20.06,-21,-156,-2025,147,2,228,-27,-457,430,242
,177,2023-10-27 12:04:20.07,-30,-153,-2017,148,14,241,-74,-434,360,254
,178,2023-10-27 12:04:20.08,-31,-150,-2018,146,18,248,-12,-455,443,233
,179,2023-10-27 12:04:20.09,-43,-145,-2021,141,25,262,-74,-442,368,258
,180,2023-10-27 12:04:20.10,-25,-148,-2025,133,40,271,-18,-460,442,239
,181,2023-10-27 12:04:20.11,-24,-148,-2032,125,46,275,-75,-448,373,261
,182,2023-10-27 12:04:20.12,-28,-143,-2040,119,53,278,-15,-456,441,235
,183,2023-10-27 12:04:20.13,-20,-136,-2036,115,53,277,-76,-451,375,263
,184,2023-10-27 12:04:20.14,-14,-133,-2037,109,46,273,-29,-469,440,249
,185,2023-10-27 12:04:20.15,-16,-122,-2049,106,45,265,-81,-460,379,270
,186,2023-10-27 12:04:20.16,-8,-107,-2051,99,52,254,-18,-465,447,241
,187,2023-10-27 12:04:20.17,-19,-115,-2062,87,52,238,-77,-465,388,271
,188,2023-10-27 12:04:20.18,-13,-122,-2056,80,52,221,-11,-461,450,236
,189,2023-10-27 12:04:20.19,-12,-135,-2059,84,51,208,-75,-462,387,268
,190,2023-10-27 12:04:20.20,3,-149,-2058,98,43,196,1,-454,455,226
,191,2023-10-27 12:04:20.21,2,-152,-2048,112,43,185,-65,-460,395,262
,192,2023-10-27 12:04:20.22,1,-162,-2057,119,46,173,15,-443,458,214
,193,2023-10-27 12:04:20.23,0,-166,-2057,133,45,169,-60,-454,394,257
,194,2023-10-27 12:04:20.24,13,-179,-2041,147,47,165,21,-435,456,207
,195,2023-10-27 12:04:20.25,21,-186,-2027,168,49,164,-55,-452,397,253
,196,2023-10-27 12:04:20.26,32,-195,-2043,181,52,163,26,-429,455,201
,197,2023-10-27 12:04:20.27,29,-204,-2040,192,50,163,-55,-451,396,253
,198,2023-10-27 12:04:20.28,23,-211,-2044,201,48,168,33,-423,456,195
,199,2023-10-27 12:04:20.29,26,-231,-2040,199,59,180,-51,-447,396,249
,200,2023-10-27 12:04:20.30,24,-249,-2029,197,66,191,36,-415,451,189
,201,2023-10-27 12:04:20.31,34,-260,-2019,200,75,208,-52,-448,396,250
,202,2023-10-27 12:04:20.32,33,-285,-2046,203,101,274,38,-419,457,190
,203,2023-10-27 12:04:20.33,56,-308,-2047,203,105,317,-52,-452,400,252
,204,2023-10-27 12:04:20.34,61,-329,-2050,212,111,365,37,-416,453,189
,205,2023-10-27 12:04:20.35,54,-347,-2048,224,116,422,-51,-444,393,247
,206,2023-10-27 12:04:20.36,57,-358,-2036,235,124,481,39,-407,446,184
,207,2023-10-27 12:04:20.37,64,-365,-2067,254,124,541,-58,-455,397,256
,208,2023-10-27 12:04:20.38,67,-406,-2047,282,119,611,32,-420,452,194
,209,2023-10-27 12:04:20.39,75,-427,-2023,311,115,689,-61,-465,404,263
,210,2023-10-27 12:04:20.40,73,-437,-2041,343,122,775,32,-420,452,194
,211,2023-10-27 12:04:20.41,74,-450,-2088,370,119,874,-63,-458,395,260
,212,2023-10-27 12:04:20.42,98,-478,-2074,400,100,994,24,-405,429,190
,213,2023-10-27 12:04:20.43,104,-500,-2059,428,100,1124,-73,-456,383,264
,214,2023-10-27 12:04:20.44,93,-482,-2054,457,87,1246,16,-405,421,194
,215,2023-10-27 12:04:20.45,105,-464,-2037,478,84,1361,-76,-455,379,265
,216,2023-10-27 12:04:20.46,97,-472,-2020,505,94,1463,18,-396,414,189
,217,2023-10-27 12:04:20.47,110,-468,-1946,532,120,1575,-71,-453,382,262
,218,2023-10-27 12:04:20.48,104,-465,-1944,556,152,1660,28,-386,414,179
,219,2023-10-27 12:04:20.49,97,-441,-1974,578,185,1735,-60,-441,381,250
,220,2023-10-27 12:04:20.50,97,-421,-1996,591,217,1808,27,-384,411,178
,221,2023-10-27 12:04:20.51,116,-426,-1994,594,240,1872,-73,-453,380,263
,222,2023-10-27 12:04:20.52,127,-419,-1984,583,262,1936,22,-392,414,185
,223,2023-10-27 12:04:20.53,132,-441,-2012,571,286,1992,-75,-461,386,268
,224,2023-10-27 12:04:20.54,128,-463,-2029,558,313,2049,18,-395,413,188
,225,2023-10-27 12:04:20.55,125,-459,-2013,544,327,2118,-83,-472,389,277
,226,2023-10-27 12:04:20.56,133,-475,-2034,527,333,2179,18,-401,419,191
,227,2023-10-27 12:04:20.57,119,-472,-2031,504,353,2232,-80,-478,398,279
,228,2023-10-27 12:04:20.58,122,-443,-2035,476,365,2259,27,-400,427,186
,229,2023-10-27 12:04:20.59,128,-488,-2025,454,381,2291,-74,-479,405,276
,230,2023-10-27 12:04:20.60,154,-534,-1994,424,401,2343,29,-400,429,185
,231,2023-10-27 12:04:20.61,158,-527,-2029,404,414,2388,-77,-484,407,280
,232,2023-10-27 12:04:20.62,175,-485,-2080,405,386,2425,26,-404,430,189
,233,2023-10-27 12:04:20.63,166,-454,-2081,403,361,2453,-77,-492,415,284
,234,2023-10-27 12:04:20.64,170,-448,-2008,382,352,2462,28,-410,438,191
,235,2023-10-27 12:04:20.65,142,-442,-1968,361,362,2443,-76,-495,419,285
,236,2023-10-27 12:04:20.66,143,-487,-1965,345,383,2434,24,-411,435,193
,237,2023-10-27 12:04:20.67,129,-533,-1990,347,404,2442,-75,-492,417,283
,238,2023-10-27 12:04:20.68,181,-520,-2049,335,409,2454,27,-405,432,189
,239,2023-10-27 12:04:20.69,170,-525,-2077,317,410,2448,-76,-498,422,287
,240,2023-10-27 12:04:20.70,169,-421,-2097,315,376,2438,20,-413,433,196
,241,2023-10-27 12:04:20.71,137,-368,-2092,305,320,2413,-82,-506,424,294
,242,2023-10-27 12:04:20.72,132,-344,-2067,272,270,2356,14,-414,428,200
,243,2023-10-27 12:04:20.73,102,-366,-2018,248,254,2289,-86,-513,427,299
,244,2023-10-27 12:04:20.74,109,-442,-1974,224,249,2247,11,-418,429,203
,245,2023-10-27 12:04:20.75,109,-561,-1955,230,248,2256,-86,-513,427,299
,246,2023-10-27 12:04:20.76,135,-645,-1980,242,246,2325,7,-416,423,204
,247,2023-10-27 12:04:20.77,118,-629,-2074,266,232,2415,-93,-524,431,308
,248,2023-10-27 12:04:20.78,101,-453,-2182,271,166,2461,0,-424,424,212
,249,2023-10-27 12:04:20.79,75,-274,-2246,218,99,2433,-101,-530,429,315
,250,2023-10-27 12:04:20.80,30,-158,-2189,141,31,2332,-3,-426,423,214
,251,2023-10-27 12:04:20.81,35,-145,-2057,62,-3,2188,-102,-534,432,318
,252,2023-10-27 12:04:20.82,-29,-179,-1976,42,-23,2027,-7,-431,424,219
,253,2023-10-27 12:04:20.83,-89,-152,-1927,50,-42,1849,-110,-541,431,325
,254,2023-10-27 12:04:20.84,-160,-173,-1879,60,-21,1668,-19,-439,420,229
,255,2023-10-27 12:04:20.85,-245,-249,-1893,58,13,1502,-122,-554,432,338
,256,2023-10-27 12:04:20.86,-268,-275,-1942,69,18,1370,-24,-446,422,235
,257,2023-10-27 12:04:20.87,-279,-282,-2027,70,-1,1252,-119,-562,443,340
,258,2023-10-27 12:04:20.88,-283,-284,-2049,61,-31,1144,-24,-460,436,242
,259,2023-10-27 12:04:20.89,-272,-405,-2073,49,-46,1050,-122,-571,449,346
,260,2023-10-27 12:04:20.90,-312,-369,-2022,48,-44,975,-22,-457,435,239
,261,2023-10-27 12:04:20.91,-305,-375,-1976,53,-49,916,-124,-572,448,348
,262,2023-10-27 12:04:20.92,-332,-389,-1943,93,-38,866,-29,-463,434,246
,263,2023-10-27 12:04:20.93,-355,-359,-1951,120,-26,807,-120,-579,459,349
,264,2023-10-27 12:04:20.94,-364,-374,-2015,104,-9,750,-30,-465,435,247
,265,2023-10-27 12:04:20.95,-352,-437,-2065,83,-12,715,-120,-577,457,348
,266,2023-10-27 12:04:20.96,-334,-484,-2048,84,-44,712,-35,-469,434,252
,267,2023-10-27 12:04:20.97,-244,-506,-2021,112,-74,743,-126,-581,455,353
,268,2023-10-27 12:04:20.98,-317,-536,-1964,139,-110,771,-42,-469,427,255
,269,2023-10-27 12:04:20.99,-321,-516,-1870,141,-72,792,-128,-583,455,355
,270,2023-10-27 12:04:21.00,-338,-630,-1841,166,-33,833,-46,-468,422,257
,271,2023-10-27 12:04:21.01,-367,-553,-1686,239,-7,930,-132,-587,455,359
,272,2023-10-27 12:04:21.02,-250,-869,-1872,328,-6,1099,-58,-475,417,266
,273,2023-10-27 12:04:21.03,-205,-764,-1895,453,-17,1262,-141,-592,451,366
,274,2023-10-27 12:04:21.04,-224,-562,-2089,500,-37,1337,-62,-478,416,270
,275,2023-10-27 12:04:21.05,-242,-247,-2111,422,-32,1304,-143,-602,459,372
,276,2023-10-27 12:04:21.06,-259,-284,-2103,319,-40,1196,-68,-486,418,277
,277,2023-10-27 12:04:21.07,-297,-359,-1953,268,-34,1063,-153,-608,455,380
,278,2023-10-27 12:04:21.08,-354,-388,-1937,264,-53,924,-81,-502,421,291
,279,2023-10-27 12:04:21.09,-354,-420,-1979,194,-113,783,-160,-639,479,399
,280,2023-10-27 12:04:21.10,-326,-572,-1929,137,-158,697,-82,-523,441,302
,281,2023-10-27 12:04:21.11,-337,-591,-1881,141,-174,662,-158,-635,477,396
,282,2023-10-27 12:04:21.12,-340,-529,-1902,120,-180,619,-76,-506,430,291
,283,2023-10-27 12:04:21.13,-340,-546,-1902,75,-152,614,-148,-617,469,382
,284,2023-10-27 12:04:21.14,-369,-505,-1966,39,-123,619,-72,-492,420,282
,285,2023-10-27 12:04:21.15,-391,-405,-1960,12,-127,615,-151,-612,461,381
,286,2023-10-27 12:04:21.16,-417,-335,-1858,-23,-96,616,-80,-494,414,287
,287,2023-10-27 12:04:21.17,-473,-258,-1887,-56,-52,568,-163,-621,458,392
,288,2023-10-27 12:04:21.18,-491,-211,-1942,-144,-11,497,-95,-507,412,301
,289,2023-10-27 12:04:21.19,-506,-289,-2023,-215,5,458,-171,-627,456,399
,290,2023-10-27 12:04:21.20,-512,-319,-2085,-231,-51,445,-104,-515,411,309
,291,2023-10-27 12:04:21.21,-491,-306,-2100,-230,-135,458,-182,-635,453,408
,292,2023-10-27 12:04:21.22,-472,-332,-2073,-175,-209,487,-121,-523,402,322
,293,2023-10-27 12:04:21.23,-471,-251,-1981,-111,-251,485,-186,-638,452,412
,294,2023-10-27 12:04:21.24,-492,-177,-1868,-65,-202,435,-119,-521,402,320
,295,2023-10-27 12:04:21.25,-555,-181,-1913,-67,-96,330,-176,-631,455,403
,296,2023-10-27 12:04:21.26,-574,-254,-1999,-100,-10,209,-111,-516,405,313
,297,2023-10-27 12:04:21.27,-519,-400,-2060,-65,18,145,-160,-624,464,392
,298,2023-10-27 12:04:21.28,-453,-531,-2148,61,-48,143,-98,-508,410,303
,299,2023-10-27 12:04:21.29,-373,-554,-2123,173,-141,161,-142,-609,467,375
,300,2023-10-27 12:04:21.30,-301,-483,-2030,281,-224,169,-88,-492,404,290
,301,2023-10-27 12:04:21.31,-272,-485,-1902,378,-250,153,-128,-591,463,359
,302,2023-10-27 12:04:21.32,-276,-482,-1837,424,-229,109,-85,-485,400,285
,303,2023-10-27 12:04:21.33,-323,-537,-1780,411,-137,71,-135,-591,456,363
,304,2023-10-27 12:04:21.34,-378,-632,-1809,373,-86,65,-90,-487,397,288
,305,2023-10-27 12:04:21.35,-351,-746,-1850,329,-89,145,-131,-595,464,363
,306,2023-10-27 12:04:21.36,-363,-839,-1950,358,-162,279,-86,-486,400,286
,307,2023-10-27 12:04:21.37,-351,-619,-2020,382,-332,393,-127,-593,466,360
,308,2023-10-27 12:04:21.38,-382,-384,-1909,331,-464,469,-78,-479,401,278
,309,2023-10-27 12:04:21.39,-377,-510,-1818,329,-544,501,-109,-581,472,345
,310,2023-10-27 12:04:21.40,-439,-531,-1728,308,-518,533,-68,-471,403,269
,311,2023-10-27 12:04:21.41,-449,-501,-1743,345,-501,577,-107,-574,467,340
,312,2023-10-27 12:04:21.42,-564,-557,-1717,377,-463,664,-76,-476,400,276
,313,2023-10-27 12:04:21.43,-652,-508,-1764,479,-470,698,-113,-579,466,346
,314,2023-10-27 12:04:21.44,-689,-343,-1862,464,-448,666,-84,-485,401,284
,315,2023-10-27 12:04:21.45,-737,-322,-2032,395,-384,560,-124,-593,469,358
,316,2023-10-27 12:04:21.46,-740,-319,-2077,223,-247,445,-99,-510,411,304
,317,2023-10-27 12:04:21.47,-801,-320,-1979,18,-86,277,-138,-626,488,382
,318,2023-10-27 12:04:21.48,-840,-306,-1919,-128,-10,78,-125,-553,428,339
,319,2023-10-27 12:04:21.49,-863,-428,-1824,-173,-18,-71,-162,-664,502,413
,320,2023-10-27 12:04:21.50,-849,-604,-1751,-119,-47,-128,-139,-575,436,357
,321,2023-10-27 12:04:21.51,-828,-623,-1759,-55,-52,-155,-168,-664,496,416
,322,2023-10-27 12:04:21.52,-754,-589,-1781,-80,-5,-169,-145,-569,424,357
,323,2023-10-27 12:04:21.53,-724,-590,-1879,-130,68,-180,-164,-649,485,406
,324,2023-10-27 12:04:21.54,-649,-540,-1917,-216,120,-178,-146,-557,411,351
,325,2023-10-27 12:04:21.55,-581,-513,-1912,-252,107,-149,-160,-638,478,399
,326,2023-10-27 12:04:21.56,-526,-531,-1903,-234,63,-87,-141,-546,405,343
,327,2023-10-27 12:04:21.57,-502,-450,-1875,-191,14,-31,-139,-608,469,373
,328,2023-10-27 12:04:21.58,-470,-355,-1806,-136,-14,-9,-112,-508,396,310
,329,2023-10-27 12:04:21.59,-519,-277,-1827,-99,-15,-30,-100,-563,463,331
,330,2023-10-27 12:04:21.60,-572,-328,-1853,-129,55,-86,-88,-479,391,283
,331,2023-10-27 12:04:21.61,-634,-432,-1815,-180,142,-123,-87,-552,465,319
,332,2023-10-27 12:04:21.62,-655,-585,-1832,-198,179,-109,-89,-477,388,283
,333,2023-10-27 12:04:21.63,-614,-654,-1842,-157,175,-25,-84,-536,452,310
,334,2023-10-27 12:04:21.64,-577,-533,-1905,-90,133,43,-83,-461,378,272
,335,2023-10-27 12:04:21.65,-566,-398,-2007,-121,134,61,-74,-523,449,298
,336,2023-10-27 12:04:21.66,-566,-342,-2047,-206,132,32,-82,-456,374,269
,337,2023-10-27 12:04:21.67,-578,-393,-2005,-305,147,-3,-78,-515,437,296
,338,2023-10-27 12:04:21.68,-566,-570,-1992,-358,131,4,-90,-456,366,273
,339,2023-10-27 12:04:21.69,-515,-661,-1963,-309,71,84,-78,-519,441,298
,340,2023-10-27 12:04:21.70,-483,-554,-1958,-155,-10,180,-90,-465,375,277
,341,2023-10-27 12:04:21.71,-451,-378,-1978,-86,-28,198,-80,-523,443,301
,342,2023-10-27 12:04:21.72,-470,-278,-1959,-99,35,153,-92,-463,371,277
,343,2023-10-27 12:04:21.73,-522,-297,-1905,-122,114,76,-80,-518,438,299
,344,2023-10-27 12:04:21.74,-554,-468,-1957,-144,137,35,-104,-470,366,287
,345,2023-10-27 12:04:21.75,-507,-572,-1943,-128,92,68,-82,-523,441,302
,346,2023-10-27 12:04:21.76,-464,-479,-1882,-34,0,117,-112,-482,370,297
,347,2023-10-27 12:04:21.77,-446,-340,-1903,19,-54,116,-93,-541,448,317
,348,2023-10-27 12:04:21.78,-471,-331,-1934,-22,-21,75,-127,-507,380,317
,349,2023-10-27 12:04:21.79,-524,-348,-1940,-82,13,41,-100,-544,444,322
,350,2023-10-27 12:04:21.80,-509,-474,-1918,-117,-13,32,-132,-501,369,316
,351,2023-10-27 12:04:21.81,-497,-548,-1855,-124,-32,85,-109,-544,435,326
,352,2023-10-27 12:04:21.82,-510,-465,-1900,-67,-63,133,-132,-496,364,314
,353,2023-10-27 12:04:21.83,-483,-357,-1983,-49,-83,138,-95,-532,437,313
,354,2023-10-27 12:04:21.84,-518,-344,-1967,-100,-40,103,-132,-492,360,312
,355,2023-10-27 12:04:21.85,-550,-382,-1898,-147,10,69,-95,-523,428,309
,356,2023-10-27 12:04:21.86,-585,-537,-1939,-151,19,75,-131,-488,357,309
,357,2023-10-27 12:04:21.87,-563,-542,-1963,-85,-23,118,-91,-515,424,303
,358,2023-10-27 12:04:21.88,-535,-431,-1943,-12,-87,146,-128,-484,356,306
,359,2023-10-27 12:04:21.89,-531,-325,-1947,17,-94,122,-89,-508,419,298
,360,2023-10-27 12:04:21.90,-563,-288,-1937,-4,-59,50,-133,-486,353,309
,361,2023-10-27 12:04:21.91,-602,-362,-1947,-39,-11,-31,-91,-508,417,299
,362,2023-10-27 12:04:21.92,-592,-495,-1951,-48,-4,-69,-135,-491,356,313
,363,2023-10-27 12:04:21.93,-552,-600,-1925,0,-54,-8,-87,-504,417,295
,364,2023-10-27 12:04:21.94,-548,-523,-1960,112,-170,82,-133,-488,355,310
,365,2023-10-27 12:04:21.95,-529,-353,-1969,173,-249,111,-74,-496,422,285
,366,2023-10-27 12:04:21.96,-551,-263,-1949,127,-234,72,-125,-487,362,306
,367,2023-10-27 12:04:21.97,-620,-280,-1913,55,-173,2,-65,-490,425,277
,368,2023-10-27 12:04:21.98,-658,-378,-1829,-11,-114,-74,-126,-486,360,306
,369,2023-10-27 12:04:21.99,-716,-486,-1797,-38,-66,-115,-63,-486,423,274
,370,2023-10-27 12:04:22.00,-731,-513,-1792,-24,-32,-113,-128,-486,358,307
,371,2023-10-27 12:04:22.01,-734,-516,-1806,-27,6,-86,-59,-484,425,271
,372,2023-10-27 12:04:22.02,-710,-569,-1803,-71,69,-57,-122,-483,361,302
,373,2023-10-27 12:04:22.03,-663,-606,-1880,-101,138,11,-49,-472,423,260
,374,2023-10-27 12:04:22.04,-629,-530,-1923,-68,133,83,-115,-475,360,295
,375,2023-10-27 12:04:22.05,-588,-371,-1996,-26,71,109,-44,-467,423,255
,376,2023-10-27 12:04:22.06,-534,-267,-2027,-40,34,83,-118,-476,358,297
,377,2023-10-27 12:04:22.07,-525,-297,-1970,-62,52,24,-50,-466,416,258
,378,2023-10-27 12:04:22.08,-540,-368,-1908,-64,94,-33,-123,-482,359,302
,379,2023-10-27 12:04:22.09,-524,-453,-1891,-38,84,-67,-52,-470,418,261
,380,2023-10-27 12:04:22.10,-522,-500,-1885,14,81,-61,-123,-493,370,308
,381,2023-10-27 12:04:22.11,-512,-430,-1891,15,105,-62,-51,-471,420,261
,382,2023-10-27 12:04:22.12,-499,-388,-1952,-34,113,-79,-126,-495,369,310
,383,2023-10-27 12:04:22.13,-519,-376,-1957,-97,94,-94,-45,-466,421,255
,384,2023-10-27 12:04:22.14,-504,-370,-1932,-146,42,-106,-133,-502,369,317
,385,2023-10-27 12:04:22.15,-483,-447,-1964,-146,-18,-91,-52,-471,419,261
,386,2023-10-27 12:04:22.16,-460,-421,-1956,-89,-77,-41,-134,-504,370,319
,387,2023-10-27 12:04:22.17,-475,-305,-1902,-35,-118,-14,-47,-464,417,255
,388,2023-10-27 12:04:22.18,-510,-284,-1880,-24,-122,-21,-133,-500,367,316
,389,2023-10-27 12:04:22.19,-580,-319,-1897,-40,-39,-46,-53,-472,419,262
,390,2023-10-27 12:04:22.20,-624,-378,-1945,-70,33,-67,-136,-504,368,320
,391,2023-10-27 12:04:22.21,-647,-394,-1945,-98,48,-73,-47,-464,417,255
,392,2023-10-27 12:04:22.22,-627,-412,-1985,-103,18,-70,-131,-501,370,316
,393,2023-10-27 12:04:22.23,-598,-395,-1980,-93,8,-49,-44,-460,416,252
,394,2023-10-27 12:04:22.24,-565,-361,-1976,-62,-21,-38,-134,-499,365,316
,395,2023-10-27 12:04:22.25,-567,-333,-1980,-30,-51,-35,-40,-450,410,245
,396,2023-10-27 12:04:22.26,-543,-294,-1989,4,-61,-50,-129,-496,367,312
,397,2023-10-27 12:04:22.27,-555,-264,-1941,11,-60,-91,-40,-449,409,244
,398,2023-10-27 12:04:22.28,-594,-305,-1907,-1,-24,-142,-130,-500,370,315
,399,2023-10-27 12:04:22.29,-603,-380,-1922,-28,24,-192,-41,-446,405,243
,400,2023-10-27 12:04:22.30,-626,-429,-1946,-54,51,-215,-131,-498,367,314
,401,2023-10-27 12:04:22.31,-598,-480,-1923,-94,58,-205,-37,-440,403,238
,402,2023-10-27 12:04:22.32,-566,-498,-1895,-86,45,-148,-123,-498,375,310
,403,2023-10-27 12:04:22.33,-543,-417,-1861,-27,6,-103,-29,-434,405,231
,404,2023-10-27 12:04:22.34,-535,-363,-1890,-14,8,-89,-119,-495,376,307
,405,2023-10-27 12:04:22.35,-548,-322,-1889,-52,42,-105,-22,-427,405,224
,406,2023-10-27 12:04:22.36,-545,-355,-1922,-80,64,-120,-116,-494,378,305
,407,2023-10-27 12:04:22.37,-530,-428,-1917,-66,43,-113,-22,-426,404,224
,408,2023-10-27 12:04:22.38,-536,-428,-1891,-15,21,-90,-118,-495,377,306
,409,2023-10-27 12:04:22.39,-550,-347,-1936,25,24,-83,-15,-421,406,218
,410,2023-10-27 12:04:22.40,-555,-332,-1940,4,41,-105,-114,-494,380,304
,411,2023-10-27 12:04:22.41,-569,-347,-1963,-19,57,-135,-12,-416,404,214
,412,2023-10-27 12:04:22.42,-560,-394,-1966,-51,63,-168,-112,-492,380,302
,413,2023-10-27 12:04:22.43,-562,-427,-1993,-61,57,-175,-12,-416,404,214
,414,2023-10-27 12:04:22.44,-539,-439,-1964,-38,20,-151,-119,-500,381,309
,415,2023-10-27 12:04:22.45,-512,-402,-1946,11,-28,-136,-20,-423,403,221
,416,2023-10-27 12:04:22.46,-519,-353,-1964,30,-43,-136,-128,-513,385,320
,417,2023-10-27 12:04:22.47,-542,-324,-1978,20,-36,-159,-30,-438,408,234
,418,2023-10-27 12:04:22.48,-542,-330,-1962,12,-28,-177,-134,-525,391,329
,419,2023-10-27 12:04:22.49,-549,-407,-1958,7,-27,-193,-37,-451,414,244
,420,2023-10-27 12:04:22.50,-530,-444,-1952,14,-32,-174,-143,-537,394,340
,421,2023-10-27 12:04:22.51,-524,-426,-1914,58,-57,-147,-46,-455,409,250
,422,2023-10-27 12:04:22.52,-532,-382,-1887,86,-52,-133,-144,-544,400,344
,423,2023-10-27 12:04:22.53,-548,-369,-1921,59,-17,-136,-40,-460,420,250
,424,2023-10-27 12:04:22.54,-574,-380,-1945,37,1,-146,-136,-547,411,341
,425,2023-10-27 12:04:22.55,-567,-363,-1952,33,-10,-149,-38,-464,426,251
,426,2023-10-27 12:04:22.56,-559,-335,-1970,37,-29,-162,-134,-550,416,342
,427,2023-10-27 12:04:22.57,-558,-279,-1965,48,-63,-197,-33,-459,426,246
,428,2023-10-27 12:04:22.58,-573,-241,-1902,53,-73,-251,-127,-547,420,337
,429,2023-10-27 12:04:22.59,-603,-263,-1882,50,-52,-319,-26,-450,424,238
,430,2023-10-27 12:04:22.60,-623,-293,-1888,31,-10,-392,-115,-542,427,328
,431,2023-10-27 12:04:22.61,-645,-284,-1934,12,22,-458,-14,-438,424,226
,432,2023-10-27 12:04:22.62,-659,-309,-1976,1,40,-505,-105,-532,427,318
,433,2023-10-27 12:04:22.63,-646,-319,-1945,8,31,-535,-5,-430,425,217
,434,2023-10-27 12:04:22.64,-670,-303,-1926,27,35,-557,-95,-528,433,311
,435,2023-10-27 12:04:22.65,-704,-234,-1933,52,39,-591,1,-424,425,211
,436,2023-10-27 12:04:22.66,-731,-160,-2009,58,48,-656,-89,-523,434,306
,437,2023-10-27 12:04:22.67,-745,-129,-1997,63,65,-737,5,-418,423,206
,438,2023-10-27 12:04:22.68,-762,-142,-1961,58,98,-831,-86,-521,435,303
,439,2023-10-27 12:04:22.69,-747,-177,-1885,53,141,-929,16,-410,426,197
,440,2023-10-27 12:04:22.70,-746,-240,-1917,88,180,-1016,-76,-512,436,294
,441,2023-10-27 12:04:22.71,-702,-232,-1937,139,184,-1087,19,-401,420,191
,442,2023-10-27 12:04:22.72,-632,-272,-1892,156,197,-1161,-68,-504,436,286
,443,2023-10-27 12:04:22.73,-531,-421,-1780,128,259,-1200,25,-394,419,184
,444,2023-10-27 12:04:22.74,-490,-594,-1862,139,320,-1188,-64,-499,435,281
,445,2023-10-27 12:04:22.75,-457,-576,-1968,195,281,-1144,28,-386,414,179
,446,2023-10-27 12:04:22.76,-422,-549,-1983,213,225,-1096,-54,-492,438,273
,447,2023-10-27 12:04:22.77,-392,-526,-1940,166,201,-1079,38,-381,419,171
,448,2023-10-27 12:04:22.78,-387,-529,-1948,98,207,-1086,-43,-483,440,263
,449,2023-10-27 12:04:22.79,-361,-535,-1900,62,189,-1097,44,-371,415,163
,450,2023-10-27 12:04:22.80,-369,-518,-1873,53,186,-1119,-34,-471,437,252
,451,2023-10-27 12:04:22.81,-395,-521,-1890,23,194,-1174,51,-358,409,153
,452,2023-10-27 12:04:22.82,-414,-559,-1862,-4,212,-1221,-24,-460,436,242
,453,2023-10-27 12:04:22.83,-406,-598,-1835,32,213,-1234,51,-351,402,150
,454,2023-10-27 12:04:22.84,-363,-587,-1834,117,191,-1242,-20,-454,434,237
,455,2023-10-27 12:04:22.85,-331,-565,-1800,142,204,-1256,55,-344,399,144
,456,2023-10-27 12:04:22.86,-271,-589,-1785,154,247,-1267,-16,-448,432,232
,457,2023-10-27 12:04:22.87,-263,-602,-1833,184,255,-1273,52,-343,395,145
,458,2023-10-27 12:04:22.88,-209,-602,-1863,208,247,-1270,-19,-454,435,236
,459,2023-10-27 12:04:22.89,-208,-636,-1912,212,235,-1268,45,-348,393,151
,460,2023-10-27 12:04:22.90,-179,-624,-1972,198,214,-1275,-20,-457,437,238
,461,2023-10-27 12:04:22.91,-172,-598,-1965,162,207,-1281,47,-347,394,150
,462,2023-10-27 12:04:22.92,-151,-552,-1942,122,198,-1307,-18,-457,439,237
,463,2023-10-27 12:04:22.93,-150,-533,-1936,82,202,-1358,43,-349,392,153
,464,2023-10-27 12:04:22.94,-161,-568,-1926,57,200,-1415,-22,-463,441,242
,465,2023-10-27 12:04:22.95,-153,-594,-1937,67,193,-1468,38,-350,388,156
,466,2023-10-27 12:04:22.96,-137,-593,-1929,95,174,-1520,-27,-466,439,246
,467,2023-10-27 12:04:22.97,-114,-552,-1910,117,162,-1588,32,-359,391,163
,468,2023-10-27 12:04:22.98,-122,-553,-1930,126,176,-1665,-25,-475,450,250
,469,2023-10-27 12:04:22.99,-100,-603,-1926,137,181,-1728,28,-365,393,168
,470,2023-10-27 12:04:23.00,-77,-584,-1919,177,171,-1776,-33,-479,446,256
,471,2023-10-27 12:04:23.01,-51,-548,-1915,219,157,-1837,18,-371,389,176
,472,2023-10-27 12:04:23.02,-36,-546,-1927,231,160,-1909,-41,-484,443,262
,473,2023-10-27 12:04:23.03,23,-585,-1909,233,170,-1987,16,-376,392,180
,474,2023-10-27 12:04:23.04,85,-660,-1886,248,194,-2047,-37,-484,447,260
,475,2023-10-27 12:04:23.05,136,-599,-1857,254,231,-2118,19,-373,392,177
,476,2023-10-27 12:04:23.06,187,-574,-1878,260,223,-2205,-33,-481,448,257
,477,2023-10-27 12:04:23.07,183,-594,-1918,244,236,-2286,16,-377,393,180
,478,2023-10-27 12:04:23.08,176,-698,-1977,210,238,-2345,-33,-486,453,259
,479,2023-10-27 12:04:23.09,207,-803,-1992,212,192,-2342,13,-382,395,184
,480,2023-10-27 12:04:23.10,260,-730,-1991,277,103,-2321,-30,-483,453,256
,481,2023-10-27 12:04:23.11,306,-638,-2011,313,22,-2328,17,-378,395,180
,482,2023-10-27 12:04:23.12,347,-584,-1977,293,-10,-2358,-23,-477,454,250
,483,2023-10-27 12:04:23.13,390,-572,-1939,281,-15,-2407,19,-374,393,177
,484,2023-10-27 12:04:23.14,451,-579,-1900,302,-46,-2452,-12,-466,454,239
,485,2023-10-27 12:04:23.15,501,-598,-1898,332,-79,-2506,31,-366,397,167
,486,2023-10-27 12:04:23.16,510,-574,-1923,353,-92,-2576,2,-457,459,227
,487,2023-10-27 12:04:23.17,536,-551,-1915,371,-122,-2657,33,-360,393,163
,488,2023-10-27 12:04:23.18,542,-552,-1939,367,-170,-2738,13,-447,460,217
,489,2023-10-27 12:04:23.19,533,-624,-1922,317,-171,-2816,38,-355,393,158
,490,2023-10-27 12:04:23.20,582,-630,-1937,278,-188,-2871,19,-446,465,213
,491,2023-10-27 12:04:23.21,622,-626,-1947,320,-311,-2907,40,-354,394,157
,492,2023-10-27 12:04:23.22,638,-655,-1931,305,-344,-2937,31,-438,469,203
,493,2023-10-27 12:04:23.23,637,-686,-1960,223,-325,-2966,50,-342,392,146
,494,2023-10-27 12:04:23.24,636,-810,-1972,141,-326,-2945,40,-424,464,192
,495,2023-10-27 12:04:23.25,677,-907,-1946,138,-380,-2880,51,-338,389,143
,496,2023-10-27 12:04:23.26,651,-885,-1955,160,-397,-2806,45,-421,466,188
,497,2023-10-27 12:04:23.27,666,-788,-1963,147,-428,-2748,50,-336,386,143
,498,2023-10-27 12:04:23.28,652,-790,-1975,96,-450,-2684,44,-418,462,187
,499,2023-10-27 12:04:23.29,660,-824,-1942,70,-480,-2602,46,-335,381,144
,500,2023-10-27 12:04:23.30,659,-856,-1960,48,-488,-2506,40,-418,458,189
,501,2023-10-27 12:04:23.31,661,-917,-1938,24,-473,-2415,40,-338,378,149
,502,2023-10-27 12:04:23.32,736,-1024,-2029,12,-483,-2322,33,-421,454,194
,503,2023-10-27 12:04:23.33,629,-774,-1922,10,-495,-2224,36,-344,380,154
,504,2023-10-27 12:04:23.34,605,-852,-1866,-4,-472,-2123,37,-423,460,193
,505,2023-10-27 12:04:23.35,587,-905,-1854,-6,-448,-2004,33,-344,377,155
,506,2023-10-27 12:04:23.36,559,-924,-1846,22,-420,-1867,32,-415,447,191
,507,2023-10-27 12:04:23.37,593,-888,-1834,73,-429,-1742,27,-348,375,160
,508,2023-10-27 12:04:23.38,560,-825,-1831,123,-406,-1631,29,-423,452,197
,509,2023-10-27 12:04:23.39,543,-809,-1829,153,-399,-1537,30,-351,381,160
,510,2023-10-27 12:04:23.40,542,-800,-1841,171,-369,-1435,32,-423,455,195
,511,2023-10-27 12:04:23.41,545,-812,-1800,180,-334,-1339,21,-360,381,169
,512,2023-10-27 12:04:23.42,535,-815,-1823,201,-301,-1248,22,-430,452,204
,513,2023-10-27 12:04:23.43,553,-806,-1831,200,-264,-1158,12,-364,376,176
,514,2023-10-27 12:04:23.44,543,-809,-1827,201,-228,-1077,22,-423,445,200
,515,2023-10-27 12:04:23.45,541,-794,-1869,210,-222,-999,7,-365,372,179
,516,2023-10-27 12:04:23.46,544,-794,-1877,203,-209,-922,18,-424,442,203
,517,2023-10-27 12:04:23.47,540,-789,-1884,190,-199,-846,-3,-367,364,185
,518,2023-10-27 12:04:23.48,578,-962,-1988,148,-169,-775,22,-417,439,197
,519,2023-10-27 12:04:23.49,539,-743,-1888,135,-182,-714,-6,-369,363,187
,520,2023-10-27 12:04:23.50,543,-767,-1888,115,-189,-647,16,-425,441,204
,521,2023-10-27 12:04:23.51,542,-730,-1896,83,-178,-598,-12,-376,364,194
,522,2023-10-27 12:04:23.52,538,-723,-1897,41,-163,-549,16,-425,441,204
,523,2023-10-27 12:04:23.53,539,-722,-1920,12,-155,-503,-16,-378,362,197
,524,2023-10-27 12:04:23.54,518,-739,-1915,-9,-149,-455,12,-425,437,206
,525,2023-10-27 12:04:23.55,517,-733,-1909,-23,-154,-401,-22,-380,358,201
,526,2023-10-27 12:04:23.56,524,-711,-1910,-38,-153,-357,12,-428,440,208
,527,2023-10-27 12:04:23.57,525,-684,-1941,-55,-146,-317,-23,-382,359,202
,528,2023-10-27 12:04:23.58,518,-670,-1913,-76,-143,-284,6,-426,432,210
,529,2023-10-27 12:04:23.59,513,-653,-1930,-82,-139,-256,-30,-383,353,206
,530,2023-10-27 12:04:23.60,515,-642,-1907,-101,-128,-228,4,-419,423,207
,531,2023-10-27 12:04:23.61,511,-650,-1906,-108,-117,-207,-31,-380,349,205
,532,2023-10-27 12:04:23.62,510,-640,-1908,-103,-109,-184,4,-419,423,207
,533,2023-10-27 12:04:23.63,498,-640,-1915,-85,-117,-161,-38,-392,354,215
,534,2023-10-27 12:04:23.64,491,-649,-1909,-72,-113,-135,1,-423,424,211
,535,2023-10-27 12:04:23.65,485,-636,-1914,-66,-110,-110,-40,-394,354,217
,536,2023-10-27 12:04:23.66,472,-632,-1907,-45,-102,-98,4,-416,420,206
,537,2023-10-27 12:04:23.67,471,-622,-1923,-15,-121,-85,-45,-396,351,220
,538,2023-10-27 12:04:23.68,477,-608,-1932,3,-134,-76,6,-422,428,208
,539,2023-10-27 12:04:23.69,454,-605,-1924,9,-118,-69,-45,-399,354,222
,540,2023-10-27 12:04:23.70,458,-599,-1927,9,-121,-67,7,-415,422,204
