// Data mode  : Full
// Data quality  : High
// Acceleration sensor's range  : 16g
// Gyroscope sensor's range  : 2000dps
//
//ARTIFACT,NUM,DATE,ACC_X,ACC_Y,ACC_Z,GYRO_X,GYRO_Y,GYRO_Z,EOG_L,EOG_R,EOG_H,EOG_V
,1,2023-10-27 11:39:58.38,117,-79,-2049,19,-10,13,-732,-893,161,812
,2,2023-10-27 11:39:58.39,126,-85,-2047,19,-3,18,-582,-749,167,665
,3,2023-10-27 11:39:58.40,123,-91,-2060,21,-2,22,-735,-891,156,813
,4,2023-10-27 11:39:58.41,119,-80,-2056,21,-2,28,-583,-751,168,667
,5,2023-10-27 11:39:58.42,133,-71,-2042,22,4,31,-731,-888,157,809
,6,2023-10-27 11:39:58.43,140,-59,-2039,21,10,28,-580,-749,169,664
,7,2023-10-27 11:39:58.44,123,-60,-2040,14,16,22,-730,-888,158,809
,8,2023-10-27 11:39:58.45,136,-60,-2059,11,17,19,-585,-752,167,668
,9,2023-10-27 11:39:58.46,138,-71,-2072,7,14,16,-727,-884,157,805
,10,2023-10-27 11:39:58.47,127,-100,-2069,18,12,20,-581,-748,167,664
,11,2023-10-27 11:39:58.48,137,-56,-2031,36,15,18,-722,-878,156,800
,12,2023-10-27 11:39:58.49,125,-69,-2027,41,29,17,-586,-752,166,669
,13,2023-10-27 11:39:58.50,111,-67,-2074,10,22,28,-727,-883,156,805
,14,2023-10-27 11:39:58.51,113,-65,-2081,17,11,30,-594,-760,166,677
,15,2023-10-27 11:39:58.52,118,-67,-2065,36,4,32,-728,-885,157,806
,16,2023-10-27 11:39:58.53,128,-70,-2056,41,-3,36,-592,-760,168,676
,17,2023-10-27 11:39:58.54,140,-76,-2048,35,1,33,-711,-874,163,792
,18,2023-10-27 11:39:58.55,130,-70,-2046,36,5,33,-589,-759,170,674
,19,2023-10-27 11:39:58.56,131,-73,-2052,42,9,34,-713,-876,163,794
,20,2023-10-27 11:39:58.57,136,-89,-2051,55,16,34,-592,-765,173,678
,21,2023-10-27 11:39:58.58,134,-83,-2086,63,25,34,-712,-872,160,792
,22,2023-10-27 11:39:58.59,134,-88,-2048,72,22,32,-591,-762,171,676
,23,2023-10-27 11:39:58.60,137,-100,-2040,84,36,28,-705,-868,163,786
,24,2023-10-27 11:39:58.61,133,-77,-2035,96,47,28,-593,-759,166,676
,25,2023-10-27 11:39:58.62,131,-76,-2059,97,50,26,-702,-862,160,782
,26,2023-10-27 11:39:58.63,127,-91,-2056,93,48,24,-587,-760,173,673
,27,2023-10-27 11:39:58.64,120,-79,-2035,100,57,20,-686,-857,171,771
,28,2023-10-27 11:39:58.65,126,-81,-2047,105,57,23,-586,-760,174,673
,29,2023-10-27 11:39:58.66,123,-87,-2048,110,53,24,-690,-854,164,772
,30,2023-10-27 11:39:58.67,113,-73,-2050,106,52,29,-592,-762,170,677
,31,2023-10-27 11:39:58.68,113,-70,-2059,86,46,29,-681,-853,172,767
,32,2023-10-27 11:39:58.69,103,-98,-2074,53,28,38,-583,-764,181,673
,33,2023-10-27 11:39:58.70,117,-94,-2067,25,7,46,-672,-845,173,758
,34,2023-10-27 11:39:58.71,119,-85,-2064,20,3,56,-578,-759,181,668
,35,2023-10-27 11:39:58.72,142,-114,-2060,32,4,55,-641,-828,187,734
,36,2023-10-27 11:39:58.73,158,-147,-2038,60,23,58,-529,-733,204,631
,37,2023-10-27 11:39:58.74,163,-116,-2003,98,62,44,-596,-805,209,700
,38,2023-10-27 11:39:58.75,154,-152,-2023,117,82,38,-520,-731,211,625
,39,2023-10-27 11:39:58.76,155,-126,-2044,123,68,47,-604,-805,201,704
,40,2023-10-27 11:39:58.77,165,-127,-2058,131,73,50,-537,-735,198,636
,41,2023-10-27 11:39:58.78,127,-129,-2052,149,85,45,-621,-806,185,713
,42,2023-10-27 11:39:58.79,139,-129,-2058,160,70,45,-566,-750,184,658
,43,2023-10-27 11:39:58.80,143,-99,-2079,148,63,49,-647,-816,169,731
,44,2023-10-27 11:39:58.81,122,-89,-2076,120,49,49,-603,-766,163,684
,45,2023-10-27 11:39:58.82,140,-94,-2084,82,40,53,-666,-824,158,745
,46,2023-10-27 11:39:58.83,136,-104,-2066,50,30,52,-619,-775,156,697
,47,2023-10-27 11:39:58.84,143,-98,-2064,31,16,48,-675,-830,155,752
,48,2023-10-27 11:39:58.85,147,-114,-2055,9,-2,49,-634,-787,153,710
,49,2023-10-27 11:39:58.86,144,-106,-2055,-8,-14,45,-684,-831,147,757
,50,2023-10-27 11:39:58.87,145,-110,-2049,-18,-21,42,-645,-792,147,718
,51,2023-10-27 11:39:58.88,143,-118,-2053,-22,-20,34,-675,-821,146,748
,52,2023-10-27 11:39:58.89,149,-118,-2059,-29,-26,28,-637,-786,149,711
,53,2023-10-27 11:39:58.90,153,-116,-2055,-36,-34,23,-668,-818,150,743
,54,2023-10-27 11:39:58.91,149,-115,-2057,-39,-38,21,-640,-792,152,716
,55,2023-10-27 11:39:58.92,149,-116,-2060,-42,-45,19,-666,-816,150,741
,56,2023-10-27 11:39:58.93,136,-121,-2060,-47,-50,19,-647,-795,148,721
,57,2023-10-27 11:39:58.94,131,-126,-2059,-44,-53,20,-663,-810,147,736
,58,2023-10-27 11:39:58.95,128,-113,-2069,-51,-58,22,-650,-795,145,722
,59,2023-10-27 11:39:58.96,133,-114,-2070,-64,-59,22,-671,-816,145,743
,60,2023-10-27 11:39:58.97,116,-105,-2072,-77,-62,22,-671,-812,141,741
,61,2023-10-27 11:39:58.98,144,-119,-2063,-84,-74,20,-673,-818,145,745
,62,2023-10-27 11:39:58.99,154,-125,-2051,-84,-72,22,-676,-816,140,746
,63,2023-10-27 11:39:59.00,149,-129,-2035,-84,-75,22,-669,-812,143,740
,64,2023-10-27 11:39:59.01,160,-155,-2048,-88,-67,25,-676,-818,142,747
,65,2023-10-27 11:39:59.02,149,-167,-2024,-86,-49,21,-666,-806,140,736
,66,2023-10-27 11:39:59.03,166,-168,-2035,-58,-35,28,-683,-821,138,752
,67,2023-10-27 11:39:59.04,128,-130,-2042,-24,-12,19,-668,-809,141,738
,68,2023-10-27 11:39:59.05,139,-92,-2057,-20,-13,25,-690,-828,138,759
,69,2023-10-27 11:39:59.06,142,-123,-2057,-46,-16,30,-661,-804,143,732
,70,2023-10-27 11:39:59.07,121,-77,-2036,-58,-15,33,-687,-828,141,757
,71,2023-10-27 11:39:59.08,127,-115,-2062,-54,-11,32,-657,-800,143,728
,72,2023-10-27 11:39:59.09,110,-104,-2070,-58,-26,40,-688,-829,141,758
,73,2023-10-27 11:39:59.10,120,-72,-2079,-80,-29,41,-648,-795,147,721
,74,2023-10-27 11:39:59.11,112,-98,-2068,-99,-53,50,-687,-832,145,759
,75,2023-10-27 11:39:59.12,123,-77,-2057,-103,-51,52,-641,-792,151,716
,76,2023-10-27 11:39:59.13,114,-76,-2049,-104,-52,53,-688,-834,146,761
,77,2023-10-27 11:39:59.14,111,-93,-2071,-120,-63,58,-638,-790,152,714
,78,2023-10-27 11:39:59.15,125,-87,-2062,-140,-76,62,-691,-837,146,764
,79,2023-10-27 11:39:59.16,120,-83,-2049,-137,-81,67,-631,-785,154,708
,80,2023-10-27 11:39:59.17,122,-79,-2078,-134,-76,69,-691,-840,149,765
,81,2023-10-27 11:39:59.18,127,-70,-2085,-158,-62,70,-626,-782,156,704
,82,2023-10-27 11:39:59.19,123,-81,-2053,-190,-51,73,-692,-841,149,766
,83,2023-10-27 11:39:59.20,102,-66,-2051,-196,-53,73,-623,-778,155,700
,84,2023-10-27 11:39:59.21,107,-64,-2064,-178,-71,78,-699,-844,145,771
,85,2023-10-27 11:39:59.22,112,-57,-2054,-160,-87,80,-626,-780,154,703
,86,2023-10-27 11:39:59.23,93,-22,-2035,-159,-87,77,-704,-850,146,777
,87,2023-10-27 11:39:59.24,110,-18,-2051,-188,-79,70,-626,-781,155,703
,88,2023-10-27 11:39:59.25,95,-63,-2121,-232,-73,74,-709,-857,148,783
,89,2023-10-27 11:39:59.26,83,-7,-2087,-242,-76,67,-619,-775,156,697
,90,2023-10-27 11:39:59.27,96,-27,-2048,-220,-75,59,-704,-851,147,777
,91,2023-10-27 11:39:59.28,94,-48,-2059,-202,-79,59,-613,-769,156,691
,92,2023-10-27 11:39:59.29,89,-40,-2041,-197,-103,63,-711,-855,144,783
,93,2023-10-27 11:39:59.30,102,-36,-2031,-195,-97,62,-616,-766,150,691
,94,2023-10-27 11:39:59.31,103,-41,-2046,-176,-81,58,-716,-855,139,785
,95,2023-10-27 11:39:59.32,99,-32,-2037,-151,-57,55,-611,-759,148,685
,96,2023-10-27 11:39:59.33,97,-41,-2024,-130,-46,50,-717,-855,138,786
,97,2023-10-27 11:39:59.34,99,-44,-2037,-104,-41,51,-612,-762,150,687
,98,2023-10-27 11:39:59.35,85,-39,-2040,-79,-44,55,-728,-863,135,795
,99,2023-10-27 11:39:59.36,107,-27,-2044,-50,-39,59,-613,-755,142,684
,100,2023-10-27 11:39:59.37,103,-10,-2032,-27,-19,56,-729,-859,130,794
,101,2023-10-27 11:39:59.38,104,10,-2030,-20,-2,50,-612,-751,139,681
,102,2023-10-27 11:39:59.39,95,12,-2049,-20,13,45,-734,-864,130,799
,103,2023-10-27 11:39:59.40,81,4,-2062,-22,17,40,-623,-764,141,693
,104,2023-10-27 11:39:59.41,88,12,-2062,-18,17,39,-745,-875,130,810
,105,2023-10-27 11:39:59.42,87,10,-2062,-9,17,38,-621,-764,143,692
,106,2023-10-27 11:39:59.43,84,-4,-2053,-5,15,36,-740,-871,131,805
,107,2023-10-27 11:39:59.44,82,-22,-2048,-5,17,37,-606,-751,145,678
,108,2023-10-27 11:39:59.45,70,15,-2028,12,26,32,-736,-873,137,804
,109,2023-10-27 11:39:59.46,80,15,-2035,22,37,27,-611,-757,146,684
,110,2023-10-27 11:39:59.47,77,7,-2073,2,24,31,-748,-881,133,814
,111,2023-10-27 11:39:59.48,67,29,-2057,-13,7,36,-611,-756,145,683
,112,2023-10-27 11:39:59.49,64,38,-2068,-5,5,32,-746,-879,133,812
,113,2023-10-27 11:39:59.50,83,13,-2066,-4,1,29,-608,-753,145,680
,114,2023-10-27 11:39:59.51,74,30,-2054,-15,-11,33,-748,-881,133,814
,115,2023-10-27 11:39:59.52,74,20,-2062,-23,-7,28,-601,-752,151,676
,116,2023-10-27 11:39:59.53,71,5,-2077,-29,-11,31,-747,-881,134,814
,117,2023-10-27 11:39:59.54,82,16,-2052,-27,-18,32,-600,-747,147,673
,118,2023-10-27 11:39:59.55,87,7,-2062,-22,-19,34,-747,-884,137,815
,119,2023-10-27 11:39:59.56,92,12,-2053,-22,-20,38,-596,-749,153,672
,120,2023-10-27 11:39:59.57,92,9,-2053,-23,-14,38,-746,-885,139,815
,121,2023-10-27 11:39:59.58,79,1,-2044,-21,-8,39,-591,-742,151,666
,122,2023-10-27 11:39:59.59,91,-2,-2052,-17,0,41,-747,-884,137,815
,123,2023-10-27 11:39:59.60,81,1,-2052,-9,5,44,-589,-738,149,663
,124,2023-10-27 11:39:59.61,90,-15,-2042,-5,20,51,-741,-880,139,810
,125,2023-10-27 11:39:59.62,96,-40,-2052,-1,41,62,-584,-735,151,659
,126,2023-10-27 11:39:59.63,94,-28,-2038,0,58,72,-739,-878,139,808
,127,2023-10-27 11:39:59.64,87,-33,-2048,6,72,89,-578,-729,151,653
,128,2023-10-27 11:39:59.65,84,-46,-2049,8,74,106,-740,-876,136,808
,129,2023-10-27 11:39:59.66,102,-37,-2054,14,80,129,-579,-729,150,654
,130,2023-10-27 11:39:59.67,101,-40,-2042,16,83,155,-743,-877,134,810
,131,2023-10-27 11:39:59.68,104,-49,-2044,14,91,183,-575,-723,148,649
,132,2023-10-27 11:39:59.69,106,-52,-2051,14,96,215,-740,-874,134,807
,133,2023-10-27 11:39:59.70,93,-84,-2081,8,103,255,-578,-727,149,652
,134,2023-10-27 11:39:59.71,101,-144,-2044,1,101,312,-742,-881,139,811
,135,2023-10-27 11:39:59.72,91,-188,-2036,20,101,389,-574,-725,151,649
,136,2023-10-27 11:39:59.73,102,-232,-2005,49,93,482,-742,-877,135,809
,137,2023-10-27 11:39:59.74,127,-263,-2017,72,101,595,-579,-728,149,653
,138,2023-10-27 11:39:59.75,125,-293,-2024,82,113,727,-748,-882,134,815
,139,2023-10-27 11:39:59.76,132,-326,-2016,79,144,876,-584,-733,149,658
,140,2023-10-27 11:39:59.77,148,-387,-1996,67,185,1050,-759,-886,127,822
,141,2023-10-27 11:39:59.78,158,-444,-1992,66,234,1239,-604,-740,136,672
,142,2023-10-27 11:39:59.79,170,-454,-1945,77,270,1441,-782,-899,117,840
,143,2023-10-27 11:39:59.80,217,-457,-1910,111,293,1647,-626,-755,129,690
,144,2023-10-27 11:39:59.81,230,-441,-1918,152,318,1846,-806,-913,107,859
,145,2023-10-27 11:39:59.82,255,-402,-1984,184,345,2040,-649,-767,118,708
,146,2023-10-27 11:39:59.83,291,-377,-2014,193,365,2218,-823,-925,102,874
,147,2023-10-27 11:39:59.84,301,-311,-2086,172,404,2385,-653,-769,116,711
,148,2023-10-27 11:39:59.85,330,-308,-2108,119,421,2537,-815,-918,103,866
,149,2023-10-27 11:39:59.86,340,-299,-2006,75,434,2670,-644,-762,118,703
,150,2023-10-27 11:39:59.87,310,-65,-1919,80,415,2788,-804,-912,108,858
,151,2023-10-27 11:39:59.88,440,-308,-1988,53,452,2891,-633,-756,123,694
,152,2023-10-27 11:39:59.89,410,-273,-2012,52,518,2976,-791,-902,111,846
,153,2023-10-27 11:39:59.90,424,-248,-2015,51,501,3065,-626,-753,127,689
,154,2023-10-27 11:39:59.91,525,-115,-2071,66,473,3158,-783,-903,120,843
,155,2023-10-27 11:39:59.92,439,-292,-2040,58,448,3228,-620,-756,136,688
,156,2023-10-27 11:39:59.93,546,-332,-2061,19,501,3304,-783,-905,122,844
,157,2023-10-27 11:39:59.94,503,-236,-1989,37,495,3377,-628,-766,138,697
,158,2023-10-27 11:39:59.95,576,-278,-2018,106,454,3439,-781,-914,133,847
,159,2023-10-27 11:39:59.96,570,-268,-2051,140,430,3485,-625,-773,148,699
,160,2023-10-27 11:39:59.97,597,-197,-2038,126,444,3521,-771,-914,143,842
,161,2023-10-27 11:39:59.98,637,-188,-2008,75,509,3516,-619,-776,157,697
,162,2023-10-27 11:39:59.99,572,-157,-2014,10,567,3498,-762,-912,150,837
,163,2023-10-27 11:40:00.00,678,-139,-2064,11,588,3482,-620,-781,161,700
,164,2023-10-27 11:40:00.01,608,20,-2002,14,591,3427,-763,-914,151,838
,165,2023-10-27 11:40:00.02,632,-89,-2027,30,539,3381,-621,-784,163,702
,166,2023-10-27 11:40:00.03,690,-131,-2004,43,533,3324,-756,-913,157,834
,167,2023-10-27 11:40:00.04,619,-95,-1992,49,505,3251,-626,-788,162,707
,168,2023-10-27 11:40:00.05,665,-305,-2048,46,508,3188,-754,-918,164,836
,169,2023-10-27 11:40:00.06,588,-114,-2023,60,513,3111,-630,-800,170,715
,170,2023-10-27 11:40:00.07,553,-179,-2071,39,494,3029,-750,-922,172,836
,171,2023-10-27 11:40:00.08,561,-145,-2071,29,462,2952,-628,-809,181,718
,172,2023-10-27 11:40:00.09,572,-154,-2060,22,454,2874,-742,-924,182,833
,173,2023-10-27 11:40:00.10,554,-205,-1935,58,392,2789,-629,-814,185,721
,174,2023-10-27 11:40:00.11,546,-201,-2010,127,347,2727,-734,-925,191,829
,175,2023-10-27 11:40:00.12,545,-243,-2018,158,328,2657,-619,-815,196,717
,176,2023-10-27 11:40:00.13,508,-269,-2010,173,336,2588,-723,-922,199,822
,177,2023-10-27 11:40:00.14,493,-241,-2007,151,386,2521,-615,-817,202,716
,178,2023-10-27 11:40:00.15,461,-271,-2017,113,432,2452,-690,-905,215,797
,179,2023-10-27 11:40:00.16,463,-288,-2053,82,454,2390,-563,-783,220,673
,180,2023-10-27 11:40:00.17,491,-278,-2109,69,453,2328,-635,-868,233,751
,181,2023-10-27 11:40:00.18,505,-315,-2062,99,463,2289,-528,-751,223,639
,182,2023-10-27 11:40:00.19,389,-176,-2059,151,503,2204,-629,-852,223,740
,183,2023-10-27 11:40:00.20,397,-273,-2157,110,497,2164,-555,-768,213,661
,184,2023-10-27 11:40:00.21,394,-320,-2270,19,449,2131,-658,-887,229,772
,185,2023-10-27 11:40:00.22,384,-229,-2305,-41,356,2070,-568,-806,238,687
,186,2023-10-27 11:40:00.23,376,-165,-2274,-43,237,1978,-635,-890,255,762
,187,2023-10-27 11:40:00.24,354,-104,-2230,-26,149,1843,-519,-781,262,650
,188,2023-10-27 11:40:00.25,349,-94,-2167,-34,92,1676,-586,-851,265,718
,189,2023-10-27 11:40:00.26,327,-85,-2116,-57,56,1492,-486,-749,263,617
,190,2023-10-27 11:40:00.27,320,-84,-2059,-64,23,1298,-551,-821,270,686
,191,2023-10-27 11:40:00.28,286,-72,-2043,-32,-22,1097,-454,-722,268,588
,192,2023-10-27 11:40:00.29,256,-92,-2047,-5,-79,901,-502,-786,284,644
,193,2023-10-27 11:40:00.30,249,-85,-2011,9,-137,717,-410,-693,283,551
,194,2023-10-27 11:40:00.31,237,-94,-1975,1,-164,541,-458,-759,301,608
,195,2023-10-27 11:40:00.32,219,-194,-1975,-31,-159,386,-378,-676,298,527
,196,2023-10-27 11:40:00.33,199,-275,-1946,-42,-148,265,-403,-727,324,565
,197,2023-10-27 11:40:00.34,186,-323,-1946,-29,-139,185,-307,-639,332,473
,198,2023-10-27 11:40:00.35,188,-405,-1925,-24,-148,145,-320,-681,361,500
,199,2023-10-27 11:40:00.36,188,-437,-1924,-25,-125,132,-266,-617,351,441
,200,2023-10-27 11:40:00.37,196,-444,-1910,-45,-69,136,-309,-670,361,489
,201,2023-10-27 11:40:00.38,224,-479,-1909,-83,9,150,-269,-614,345,441
,202,2023-10-27 11:40:00.39,211,-492,-1944,-128,87,177,-315,-674,359,494
,203,2023-10-27 11:40:00.40,217,-505,-1984,-174,157,218,-300,-641,341,470
,204,2023-10-27 11:40:00.41,212,-541,-2018,-219,217,270,-350,-701,351,525
,205,2023-10-27 11:40:00.42,234,-549,-2038,-241,252,326,-333,-668,335,500
,206,2023-10-27 11:40:00.43,225,-534,-2018,-253,256,386,-379,-718,339,548
,207,2023-10-27 11:40:00.44,246,-548,-2002,-254,263,443,-373,-696,323,534
,208,2023-10-27 11:40:00.45,244,-534,-2008,-252,279,480,-415,-745,330,580
,209,2023-10-27 11:40:00.46,246,-504,-2005,-246,290,514,-416,-722,306,569
,210,2023-10-27 11:40:00.47,240,-454,-1994,-247,292,524,-450,-756,306,603
,211,2023-10-27 11:40:00.48,259,-438,-1988,-266,303,524,-451,-732,281,591
,212,2023-10-27 11:40:00.49,244,-408,-1984,-305,321,520,-489,-767,278,628
,213,2023-10-27 11:40:00.50,250,-399,-1959,-353,329,509,-523,-765,242,644
,214,2023-10-27 11:40:00.51,243,-414,-1942,-390,350,510,-575,-804,229,689
,215,2023-10-27 11:40:00.52,233,-428,-1926,-396,363,510,-616,-810,194,713
,216,2023-10-27 11:40:00.53,228,-439,-1923,-383,352,515,-672,-854,182,763
,217,2023-10-27 11:40:00.54,215,-411,-1939,-376,331,524,-720,-873,153,796
,218,2023-10-27 11:40:00.55,205,-352,-1952,-369,299,530,-762,-900,138,831
,219,2023-10-27 11:40:00.56,254,-331,-1953,-387,275,543,-798,-914,116,856
,220,2023-10-27 11:40:00.57,282,-323,-1931,-390,314,553,-831,-933,102,882
,221,2023-10-27 11:40:00.58,314,-296,-1926,-373,353,551,-876,-955,79,915
,222,2023-10-27 11:40:00.59,345,-239,-1925,-339,371,539,-896,-960,64,928
,223,2023-10-27 11:40:00.60,384,-182,-1945,-290,360,515,-928,-976,48,952
,224,2023-10-27 11:40:00.61,480,-210,-1965,-222,360,483,-919,-966,47,942
,225,2023-10-27 11:40:00.62,282,-11,-1964,-123,399,430,-948,-978,30,963
,226,2023-10-27 11:40:00.63,450,-43,-2041,-177,362,372,-920,-949,29,934
,227,2023-10-27 11:40:00.64,476,-65,-2095,-283,331,339,-928,-952,24,940
,228,2023-10-27 11:40:00.65,498,53,-2070,-271,280,287,-886,-926,40,906
,229,2023-10-27 11:40:00.66,532,62,-2038,-240,274,206,-904,-936,32,920
,230,2023-10-27 11:40:00.67,544,-61,-2038,-251,259,143,-844,-890,46,867
,231,2023-10-27 11:40:00.68,546,-40,-2085,-234,204,98,-834,-890,56,862
,232,2023-10-27 11:40:00.69,569,-53,-2080,-157,107,64,-724,-820,96,772
,233,2023-10-27 11:40:00.70,596,-79,-2054,-104,38,44,-726,-834,108,780
,234,2023-10-27 11:40:00.71,615,-183,-2052,-103,11,44,-626,-774,148,700
,235,2023-10-27 11:40:00.72,596,-187,-2041,-131,34,52,-624,-797,173,710
,236,2023-10-27 11:40:00.73,532,-20,-2031,-150,62,44,-509,-739,230,624
,237,2023-10-27 11:40:00.74,529,-11,-2038,-183,85,67,-545,-788,243,666
,238,2023-10-27 11:40:00.75,493,-166,-2070,-185,82,81,-470,-730,260,600
,239,2023-10-27 11:40:00.76,496,-209,-2051,-165,64,122,-533,-773,240,653
,240,2023-10-27 11:40:00.77,481,-207,-2033,-119,68,155,-440,-689,249,564
,241,2023-10-27 11:40:00.78,476,-207,-2001,-54,82,175,-512,-734,222,623
,242,2023-10-27 11:40:00.79,475,-202,-1971,21,99,191,-444,-656,212,550
,243,2023-10-27 11:40:00.80,474,-195,-1963,84,121,204,-538,-719,181,628
,244,2023-10-27 11:40:00.81,472,-165,-1945,125,164,215,-453,-624,171,538
,245,2023-10-27 11:40:00.82,455,-93,-1981,150,208,218,-537,-655,118,596
,246,2023-10-27 11:40:00.83,427,-72,-2009,150,229,204,-456,-560,104,508
,247,2023-10-27 11:40:00.84,430,-51,-2052,114,223,195,-544,-619,75,581
,248,2023-10-27 11:40:00.85,462,-85,-2084,69,195,183,-430,-501,71,465
,249,2023-10-27 11:40:00.86,510,-119,-2004,77,198,161,-484,-543,59,513
,250,2023-10-27 11:40:00.87,529,-78,-1932,108,219,122,-353,-437,84,395
,251,2023-10-27 11:40:00.88,527,-87,-1924,119,254,83,-418,-514,96,466
,252,2023-10-27 11:40:00.89,517,-67,-1956,124,259,45,-314,-414,100,364
,253,2023-10-27 11:40:00.90,526,-83,-1951,129,242,14,-416,-538,122,477
,254,2023-10-27 11:40:00.91,516,-90,-1930,144,232,-5,-294,-479,185,386
,255,2023-10-27 11:40:00.92,552,-95,-1889,158,222,-26,-386,-601,215,493
,256,2023-10-27 11:40:00.93,557,-108,-1868,167,241,-41,-277,-508,231,392
,257,2023-10-27 11:40:00.94,557,-139,-1854,169,248,-62,-438,-634,196,536
,258,2023-10-27 11:40:00.95,567,-142,-1884,149,273,-72,-347,-559,212,453
,259,2023-10-27 11:40:00.96,565,-154,-1857,145,305,-80,-480,-688,208,584
,260,2023-10-27 11:40:00.97,573,-115,-1896,122,323,-93,-380,-584,204,482
,261,2023-10-27 11:40:00.98,552,-128,-1903,81,340,-89,-529,-684,155,606
,262,2023-10-27 11:40:00.99,573,-152,-1940,46,349,-95,-414,-566,152,490
,263,2023-10-27 11:40:01.00,588,-154,-1952,6,361,-96,-552,-677,125,614
,264,2023-10-27 11:40:01.01,635,-129,-1942,-24,372,-102,-435,-577,142,506
,265,2023-10-27 11:40:01.02,647,-126,-1923,-54,391,-116,-575,-710,135,642
,266,2023-10-27 11:40:01.03,697,-161,-1924,-89,440,-122,-446,-591,145,518
,267,2023-10-27 11:40:01.04,674,-173,-1965,-122,506,-125,-626,-731,105,678
,268,2023-10-27 11:40:01.05,699,-161,-2011,-148,523,-142,-502,-624,122,563
,269,2023-10-27 11:40:01.06,702,-115,-2027,-167,519,-142,-641,-767,126,704
,270,2023-10-27 11:40:01.07,698,-74,-2072,-158,480,-148,-478,-644,166,561
,271,2023-10-27 11:40:01.08,709,-78,-2083,-151,429,-146,-597,-781,184,689
,272,2023-10-27 11:40:01.09,747,-116,-2077,-148,387,-142,-447,-669,222,558
,273,2023-10-27 11:40:01.10,789,-132,-2045,-122,350,-138,-616,-819,203,717
,274,2023-10-27 11:40:01.11,805,-109,-2008,-78,310,-144,-487,-694,207,590
,275,2023-10-27 11:40:01.12,830,-58,-2006,-44,289,-167,-633,-819,186,726
,276,2023-10-27 11:40:01.13,832,-48,-2034,-25,274,-199,-461,-675,214,568
,277,2023-10-27 11:40:01.14,810,-67,-2055,-18,263,-225,-606,-802,196,704
,278,2023-10-27 11:40:01.15,774,-56,-2089,-19,217,-260,-461,-669,208,565
,279,2023-10-27 11:40:01.16,802,-91,-2083,-47,146,-271,-629,-822,193,725
,280,2023-10-27 11:40:01.17,837,-115,-2058,-56,73,-262,-491,-696,205,593
,281,2023-10-27 11:40:01.18,836,-90,-1998,-43,43,-250,-682,-849,167,765
,282,2023-10-27 11:40:01.19,819,-143,-1923,-53,61,-243,-557,-716,159,636
,283,2023-10-27 11:40:01.20,826,-187,-1902,-107,96,-234,-736,-868,132,802
,284,2023-10-27 11:40:01.21,797,-183,-1906,-148,118,-216,-579,-726,147,652
,285,2023-10-27 11:40:01.22,854,-210,-1938,-158,134,-172,-728,-862,134,795
,286,2023-10-27 11:40:01.23,770,-207,-1870,-128,167,-124,-556,-697,141,626
,287,2023-10-27 11:40:01.24,747,-161,-1956,-137,161,-84,-722,-833,111,777
,288,2023-10-27 11:40:01.25,801,-230,-2046,-210,97,-29,-551,-667,116,609
,289,2023-10-27 11:40:01.26,804,-233,-2011,-212,16,9,-701,-804,103,752
,290,2023-10-27 11:40:01.27,795,-135,-1991,-156,-44,30,-511,-637,126,574
,291,2023-10-27 11:40:01.28,801,-100,-2009,-140,-99,39,-629,-780,151,704
,292,2023-10-27 11:40:01.29,781,-70,-1976,-172,-131,41,-415,-603,188,509
,293,2023-10-27 11:40:01.30,792,-62,-1941,-215,-103,17,-552,-749,197,650
,294,2023-10-27 11:40:01.31,800,-89,-1928,-248,-47,-3,-375,-591,216,483
,295,2023-10-27 11:40:01.32,803,-100,-1950,-239,-7,-27,-526,-762,236,644
,296,2023-10-27 11:40:01.33,786,-134,-1976,-186,-11,-38,-366,-621,255,493
,297,2023-10-27 11:40:01.34,768,-120,-1960,-76,-43,-56,-522,-802,280,662
,298,2023-10-27 11:40:01.35,759,-98,-1970,30,-83,-78,-344,-641,297,492
,299,2023-10-27 11:40:01.36,765,-85,-1971,94,-112,-103,-500,-797,297,648
,300,2023-10-27 11:40:01.37,767,-75,-1982,133,-116,-126,-344,-634,290,489
,301,2023-10-27 11:40:01.38,732,-98,-2000,166,-109,-144,-512,-797,285,654
,302,2023-10-27 11:40:01.39,725,-124,-2016,203,-145,-151,-338,-637,299,487
,303,2023-10-27 11:40:01.40,719,-137,-2010,235,-192,-154,-484,-803,319,643
,304,2023-10-27 11:40:01.41,725,-125,-1992,258,-230,-155,-326,-642,316,484
,305,2023-10-27 11:40:01.42,716,-136,-1974,270,-238,-158,-484,-818,334,651
,306,2023-10-27 11:40:01.43,719,-150,-1958,267,-222,-161,-332,-666,334,499
,307,2023-10-27 11:40:01.44,714,-184,-1958,258,-212,-167,-467,-823,356,645
,308,2023-10-27 11:40:01.45,714,-183,-1956,256,-203,-175,-292,-648,356,470
,309,2023-10-27 11:40:01.46,684,-159,-1947,275,-206,-184,-447,-790,343,618
,310,2023-10-27 11:40:01.47,673,-180,-1962,278,-216,-185,-293,-616,323,454
,311,2023-10-27 11:40:01.48,659,-215,-1978,260,-210,-180,-454,-772,318,613
,312,2023-10-27 11:40:01.49,687,-228,-1955,241,-215,-175,-307,-615,308,461
,313,2023-10-27 11:40:01.50,668,-246,-1952,235,-225,-167,-476,-785,309,630
,314,2023-10-27 11:40:01.51,648,-250,-1952,234,-226,-154,-342,-630,288,486
,315,2023-10-27 11:40:01.52,637,-259,-1959,230,-237,-138,-530,-796,266,663
,316,2023-10-27 11:40:01.53,629,-231,-1943,218,-234,-129,-397,-636,239,516
,317,2023-10-27 11:40:01.54,621,-202,-1927,200,-236,-126,-582,-804,222,693
,318,2023-10-27 11:40:01.55,618,-287,-1958,153,-218,-96,-448,-660,212,554
,319,2023-10-27 11:40:01.56,601,-232,-1921,132,-194,-85,-656,-836,180,746
,320,2023-10-27 11:40:01.57,619,-258,-1886,119,-157,-77,-528,-686,158,607
,321,2023-10-27 11:40:01.58,604,-292,-1888,117,-125,-67,-712,-847,135,779
,322,2023-10-27 11:40:01.59,611,-274,-1875,134,-107,-57,-570,-701,131,635
,323,2023-10-27 11:40:01.60,592,-271,-1853,164,-62,-57,-730,-867,137,798
,324,2023-10-27 11:40:01.61,607,-279,-1877,190,-20,-54,-583,-729,146,656
,325,2023-10-27 11:40:01.62,591,-267,-1906,202,18,-53,-733,-881,148,807
,326,2023-10-27 11:40:01.63,596,-270,-1935,222,35,-46,-584,-733,149,658
,327,2023-10-27 11:40:01.64,582,-239,-1942,242,56,-43,-742,-890,148,816
,328,2023-10-27 11:40:01.65,586,-232,-1952,249,75,-41,-587,-749,162,668
,329,2023-10-27 11:40:01.66,603,-234,-1961,238,78,-34,-732,-899,167,815
,330,2023-10-27 11:40:01.67,585,-247,-1986,223,76,-29,-577,-761,184,669
,331,2023-10-27 11:40:01.68,585,-265,-1984,226,60,-16,-729,-903,174,816
,332,2023-10-27 11:40:01.69,591,-264,-2006,232,39,-11,-592,-764,172,678
,333,2023-10-27 11:40:01.70,608,-260,-2009,230,3,-4,-728,-895,167,811
,334,2023-10-27 11:40:01.71,603,-244,-1993,217,-19,-5,-580,-750,170,665
,335,2023-10-27 11:40:01.72,600,-242,-2014,193,-29,-14,-722,-884,162,803
,336,2023-10-27 11:40:01.73,602,-281,-2029,158,-30,-24,-587,-749,162,668
,337,2023-10-27 11:40:01.74,599,-287,-2030,140,-43,-32,-720,-881,161,800
,338,2023-10-27 11:40:01.75,621,-288,-2002,147,-61,-35,-607,-762,155,684
,339,2023-10-27 11:40:01.76,610,-294,-2004,162,-91,-40,-765,-897,132,831
,340,2023-10-27 11:40:01.77,624,-311,-1975,158,-122,-43,-660,-783,123,721
,341,2023-10-27 11:40:01.78,633,-281,-1956,140,-117,-45,-794,-909,115,851
,342,2023-10-27 11:40:01.79,607,-284,-1957,123,-111,-53,-687,-802,115,744
,343,2023-10-27 11:40:01.80,614,-285,-1957,114,-110,-56,-794,-925,131,859
,344,2023-10-27 11:40:01.81,605,-285,-1959,108,-112,-56,-675,-805,130,740
,345,2023-10-27 11:40:01.82,584,-277,-1961,102,-109,-57,-755,-890,135,822
,346,2023-10-27 11:40:01.83,578,-278,-1969,92,-112,-59,-614,-772,158,693
,347,2023-10-27 11:40:01.84,584,-282,-1981,77,-111,-57,-691,-870,179,780
,348,2023-10-27 11:40:01.85,578,-270,-1960,67,-114,-58,-560,-750,190,655
,349,2023-10-27 11:40:01.86,574,-268,-1945,61,-108,-59,-624,-844,220,734
,350,2023-10-27 11:40:01.87,584,-273,-1934,59,-101,-62,-520,-742,222,631
,351,2023-10-27 11:40:01.88,576,-276,-1937,59,-84,-66,-585,-843,258,714
,352,2023-10-27 11:40:01.89,568,-271,-1936,62,-74,-76,-491,-758,267,624
,353,2023-10-27 11:40:01.90,583,-264,-1947,69,-64,-92,-559,-850,291,704
,354,2023-10-27 11:40:01.91,573,-266,-1963,75,-58,-101,-481,-760,279,620
,355,2023-10-27 11:40:01.92,574,-270,-1970,75,-54,-107,-571,-834,263,702
,356,2023-10-27 11:40:01.93,567,-285,-1977,74,-57,-108,-504,-744,240,624
,357,2023-10-27 11:40:01.94,557,-297,-1981,69,-53,-104,-560,-821,261,690
,358,2023-10-27 11:40:01.95,563,-298,-1985,63,-61,-96,-493,-745,252,619
,359,2023-10-27 11:40:01.96,564,-282,-1982,57,-74,-92,-553,-818,265,685
,360,2023-10-27 11:40:01.97,566,-280,-1978,47,-84,-88,-505,-749,244,627
,361,2023-10-27 11:40:01.98,573,-264,-1981,21,-73,-83,-560,-809,249,684
,362,2023-10-27 11:40:01.99,571,-312,-1994,-13,-84,-78,-525,-752,227,638
,363,2023-10-27 11:40:02.00,612,-304,-1955,-13,-87,-70,-560,-813,253,686
,364,2023-10-27 11:40:02.01,594,-296,-1948,13,-81,-69,-517,-762,245,639
,365,2023-10-27 11:40:02.02,595,-312,-1943,28,-83,-62,-558,-808,250,683
,366,2023-10-27 11:40:02.03,594,-299,-1947,25,-78,-63,-533,-759,226,646
,367,2023-10-27 11:40:02.04,583,-299,-1955,16,-52,-66,-563,-802,239,682
,368,2023-10-27 11:40:02.05,591,-307,-1973,21,-51,-62,-547,-769,222,658
,369,2023-10-27 11:40:02.06,585,-303,-1970,32,-45,-59,-568,-801,233,684
,370,2023-10-27 11:40:02.07,579,-314,-1982,38,-46,-55,-552,-767,215,659
,371,2023-10-27 11:40:02.08,593,-309,-1963,40,-53,-42,-568,-796,228,682
,372,2023-10-27 11:40:02.09,577,-315,-1958,34,-39,-37,-558,-776,218,667
,373,2023-10-27 11:40:02.10,577,-322,-1954,38,-29,-29,-567,-795,228,681
,374,2023-10-27 11:40:02.11,587,-334,-1957,53,-27,-16,-573,-779,206,676
,375,2023-10-27 11:40:02.12,568,-321,-1952,71,-19,-12,-569,-792,223,680
,376,2023-10-27 11:40:02.13,581,-310,-1949,86,-17,-8,-571,-783,212,677
,377,2023-10-27 11:40:02.14,580,-305,-1961,87,1,-8,-570,-795,225,682
,378,2023-10-27 11:40:02.15,565,-298,-1965,86,11,-14,-580,-793,213,686
,379,2023-10-27 11:40:02.16,572,-282,-1957,84,12,-16,-560,-791,231,675
,380,2023-10-27 11:40:02.17,579,-302,-1948,79,22,-23,-576,-793,217,684
,381,2023-10-27 11:40:02.18,552,-326,-1955,78,23,-20,-552,-789,237,670
,382,2023-10-27 11:40:02.19,579,-329,-1960,82,42,-21,-574,-799,225,686
,383,2023-10-27 11:40:02.20,582,-322,-1955,92,37,-19,-540,-781,241,660
,384,2023-10-27 11:40:02.21,584,-325,-1954,98,29,-22,-565,-800,235,682
,385,2023-10-27 11:40:02.22,565,-306,-1968,92,43,-27,-520,-776,256,648
,386,2023-10-27 11:40:02.23,582,-312,-1962,87,30,-33,-576,-804,228,690
,387,2023-10-27 11:40:02.24,576,-309,-1968,78,50,-37,-530,-774,244,652
,388,2023-10-27 11:40:02.25,594,-323,-1962,74,49,-36,-578,-803,225,690
,389,2023-10-27 11:40:02.26,593,-333,-1954,70,44,-35,-516,-768,252,642
,390,2023-10-27 11:40:02.27,589,-331,-1968,66,57,-36,-558,-807,249,682
,391,2023-10-27 11:40:02.28,602,-326,-1964,67,37,-35,-495,-764,269,629
,392,2023-10-27 11:40:02.29,593,-329,-1973,65,39,-35,-551,-808,257,679
,393,2023-10-27 11:40:02.30,597,-337,-1970,67,29,-32,-489,-760,271,624
,394,2023-10-27 11:40:02.31,590,-336,-1959,62,25,-32,-560,-808,248,684
,395,2023-10-27 11:40:02.32,583,-322,-1967,51,38,-35,-486,-752,266,619
,396,2023-10-27 11:40:02.33,596,-331,-1974,35,29,-35,-550,-810,260,680
,397,2023-10-27 11:40:02.34,594,-339,-1981,25,21,-30,-477,-749,272,613
,398,2023-10-27 11:40:02.35,601,-341,-1976,24,28,-26,-564,-813,249,688
,399,2023-10-27 11:40:02.36,596,-338,-1976,22,18,-21,-490,-744,254,617
,400,2023-10-27 11:40:02.37,604,-337,-1958,22,9,-16,-558,-815,257,686
,401,2023-10-27 11:40:02.38,587,-334,-1971,18,13,-14,-454,-740,286,597
,402,2023-10-27 11:40:02.39,593,-326,-1960,17,11,-12,-530,-808,278,669
,403,2023-10-27 11:40:02.40,601,-326,-1964,8,17,-12,-439,-723,284,581
,404,2023-10-27 11:40:02.41,581,-336,-1961,2,23,-8,-527,-801,274,664
,405,2023-10-27 11:40:02.42,571,-330,-1978,7,19,-4,-430,-720,290,575
,406,2023-10-27 11:40:02.43,577,-329,-1965,5,9,2,-525,-806,281,665
,407,2023-10-27 11:40:02.44,592,-336,-1952,4,8,9,-429,-718,289,573
,408,2023-10-27 11:40:02.45,578,-332,-1970,8,18,17,-524,-807,283,665
,409,2023-10-27 11:40:02.46,580,-314,-1956,15,-5,22,-411,-712,301,561
,410,2023-10-27 11:40:02.47,574,-311,-1947,13,0,26,-510,-804,294,657
,411,2023-10-27 11:40:02.48,575,-314,-1964,6,6,25,-405,-705,300,555
,412,2023-10-27 11:40:02.49,571,-310,-1983,3,0,22,-521,-805,284,663
,413,2023-10-27 11:40:02.50,583,-311,-1979,2,-1,25,-406,-706,300,556
,414,2023-10-27 11:40:02.51,577,-310,-1974,8,-3,24,-500,-809,309,654
,415,2023-10-27 11:40:02.52,599,-307,-1964,12,-1,18,-384,-704,320,544
,416,2023-10-27 11:40:02.53,597,-304,-1967,11,6,13,-492,-808,316,650
,417,2023-10-27 11:40:02.54,579,-303,-1975,9,6,4,-378,-698,320,538
,418,2023-10-27 11:40:02.55,576,-303,-1976,4,6,-1,-495,-809,314,652
,419,2023-10-27 11:40:02.56,573,-297,-1983,5,9,-4,-378,-689,311,533
,420,2023-10-27 11:40:02.57,578,-295,-1977,4,5,-9,-495,-805,310,650
,421,2023-10-27 11:40:02.58,576,-302,-1967,2,5,-10,-368,-686,318,527
,422,2023-10-27 11:40:02.59,583,-304,-1970,2,2,-11,-482,-803,321,642
,423,2023-10-27 11:40:02.60,579,-305,-1964,7,-6,-11,-357,-675,318,516
,424,2023-10-27 11:40:02.61,579,-303,-1958,8,-5,-8,-486,-799,313,642
,425,2023-10-27 11:40:02.62,589,-300,-1963,14,0,-8,-367,-674,307,520
,426,2023-10-27 11:40:02.63,591,-300,-1971,13,3,-9,-494,-804,310,649
,427,2023-10-27 11:40:02.64,584,-301,-1986,14,7,-10,-378,-683,305,530
,428,2023-10-27 11:40:02.65,581,-300,-1974,13,7,-9,-500,-809,309,654
,429,2023-10-27 11:40:02.66,583,-299,-1976,11,4,-8,-362,-674,312,518
,430,2023-10-27 11:40:02.67,581,-281,-1965,3,11,-6,-485,-801,316,643
,431,2023-10-27 11:40:02.68,599,-320,-1961,-18,21,-10,-355,-668,313,511
,432,2023-10-27 11:40:02.69,589,-340,-1982,-15,31,-8,-492,-809,317,650
,433,2023-10-27 11:40:02.70,594,-298,-1991,14,28,-2,-362,-673,311,517
,434,2023-10-27 11:40:02.71,590,-309,-1986,43,-25,0,-493,-815,322,654
,435,2023-10-27 11:40:02.72,600,-296,-1968,34,-11,-3,-351,-672,321,511
,436,2023-10-27 11:40:02.73,585,-301,-1981,23,-2,-6,-487,-813,326,650
,437,2023-10-27 11:40:02.74,586,-290,-1972,27,-5,-6,-350,-663,313,506
,438,2023-10-27 11:40:02.75,592,-307,-1978,39,-6,-4,-505,-809,304,657
,439,2023-10-27 11:40:02.76,583,-317,-1978,42,-16,3,-358,-661,303,509
,440,2023-10-27 11:40:02.77,584,-308,-1967,41,-20,8,-489,-812,323,650
,441,2023-10-27 11:40:02.78,590,-290,-1963,35,-16,7,-346,-666,320,506
,442,2023-10-27 11:40:02.79,579,-310,-1974,18,-12,3,-491,-813,322,652
,443,2023-10-27 11:40:02.80,582,-305,-1971,16,-9,1,-355,-662,307,508
,444,2023-10-27 11:40:02.81,580,-310,-1983,34,-10,0,-493,-818,325,655
,445,2023-10-27 11:40:02.82,578,-304,-1972,59,-38,-1,-349,-667,318,508
,446,2023-10-27 11:40:02.83,585,-309,-1949,57,-43,1,-492,-815,323,653
,447,2023-10-27 11:40:02.84,580,-306,-1943,38,-19,1,-350,-662,312,506
,448,2023-10-27 11:40:02.85,586,-332,-1952,21,-13,-3,-491,-818,327,654
,449,2023-10-27 11:40:02.86,590,-337,-1972,26,3,-1,-341,-665,324,503
,450,2023-10-27 11:40:02.87,576,-323,-1980,53,-9,1,-482,-816,334,649
,451,2023-10-27 11:40:02.88,572,-323,-1959,71,-46,3,-342,-659,317,500
,452,2023-10-27 11:40:02.89,586,-313,-1937,58,-18,-2,-487,-814,327,650
,453,2023-10-27 11:40:02.90,578,-314,-1959,45,-4,-8,-344,-662,318,503
,454,2023-10-27 11:40:02.91,580,-317,-1958,42,-2,-10,-485,-817,332,651
,455,2023-10-27 11:40:02.92,589,-331,-1965,44,2,-12,-338,-656,318,497
,456,2023-10-27 11:40:02.93,578,-318,-1958,36,2,-15,-478,-808,330,643
,457,2023-10-27 11:40:02.94,595,-324,-1956,24,13,-15,-333,-654,321,493
,458,2023-10-27 11:40:02.95,598,-330,-1967,37,17,-17,-467,-813,346,640
,459,2023-10-27 11:40:02.96,589,-320,-1976,58,13,-19,-327,-659,332,493
,460,2023-10-27 11:40:02.97,584,-308,-1937,66,-9,-22,-470,-816,346,643
,461,2023-10-27 11:40:02.98,567,-300,-1949,41,5,-31,-338,-660,322,499
,462,2023-10-27 11:40:02.99,580,-321,-1956,17,20,-40,-475,-815,340,645
,463,2023-10-27 11:40:03.00,581,-332,-1977,24,42,-40,-335,-665,330,500
,464,2023-10-27 11:40:03.01,574,-327,-1979,55,10,-36,-468,-822,354,645
,465,2023-10-27 11:40:03.02,573,-342,-1949,56,-4,-28,-334,-671,337,502
,466,2023-10-27 11:40:03.03,586,-358,-1945,43,9,-29,-478,-825,347,651
,467,2023-10-27 11:40:03.04,579,-333,-1971,46,36,-28,-348,-673,325,510
,468,2023-10-27 11:40:03.05,579,-335,-1970,63,-2,-23,-485,-824,339,654
,469,2023-10-27 11:40:03.06,585,-320,-1957,60,-6,-17,-340,-668,328,504
,470,2023-10-27 11:40:03.07,581,-337,-1953,33,15,-23,-464,-815,351,639
,471,2023-10-27 11:40:03.08,585,-347,-1969,21,23,-22,-335,-665,330,500
,472,2023-10-27 11:40:03.09,576,-338,-1997,33,30,-23,-472,-814,342,643
,473,2023-10-27 11:40:03.10,574,-342,-1978,52,-6,-15,-348,-669,321,508
,474,2023-10-27 11:40:03.11,596,-331,-1947,45,-7,-13,-480,-819,339,649
,475,2023-10-27 11:40:03.12,589,-322,-1963,23,16,-16,-342,-668,326,505
,476,2023-10-27 11:40:03.13,588,-338,-1962,5,20,-16,-446,-806,360,626
,477,2023-10-27 11:40:03.14,579,-328,-1955,-3,38,-21,-334,-670,336,502
,478,2023-10-27 11:40:03.15,590,-331,-1938,0,36,-30,-464,-818,354,641
,479,2023-10-27 11:40:03.16,585,-330,-1946,-7,48,-36,-356,-697,341,526
,480,2023-10-27 11:40:03.17,575,-338,-1952,-24,57,-41,-499,-855,356,677
,481,2023-10-27 11:40:03.18,568,-339,-1971,-26,53,-34,-392,-731,339,561
,482,2023-10-27 11:40:03.19,563,-340,-1972,-15,38,-28,-523,-870,347,696
,483,2023-10-27 11:40:03.20,581,-346,-1955,-12,30,-15,-397,-734,337,565
,484,2023-10-27 11:40:03.21,583,-339,-1950,-12,34,-9,-499,-858,359,678
,485,2023-10-27 11:40:03.22,595,-336,-1941,-8,35,-7,-363,-717,354,540
,486,2023-10-27 11:40:03.23,591,-331,-1934,-4,39,-2,-457,-835,378,646
,487,2023-10-27 11:40:03.24,600,-331,-1945,-1,45,0,-340,-694,354,517
,488,2023-10-27 11:40:03.25,594,-334,-1967,3,52,-1,-439,-810,371,624
,489,2023-10-27 11:40:03.26,599,-328,-1969,7,49,1,-324,-678,354,501
,490,2023-10-27 11:40:03.27,605,-334,-1965,14,48,5,-416,-789,373,602
,491,2023-10-27 11:40:03.28,598,-326,-1970,23,48,4,-316,-661,345,488
,492,2023-10-27 11:40:03.29,619,-328,-1971,30,45,2,-419,-777,358,598
,493,2023-10-27 11:40:03.30,599,-325,-1971,33,45,1,-327,-662,335,494
,494,2023-10-27 11:40:03.31,598,-312,-1974,30,40,-2,-421,-775,354,598
,495,2023-10-27 11:40:03.32,597,-313,-1982,26,38,-2,-332,-662,330,497
,496,2023-10-27 11:40:03.33,599,-314,-1991,27,32,-5,-415,-766,351,590
,497,2023-10-27 11:40:03.34,603,-323,-1986,27,20,-6,-337,-662,325,499
,498,2023-10-27 11:40:03.35,614,-318,-1974,23,8,-4,-421,-767,346,594
,499,2023-10-27 11:40:03.36,610,-320,-1969,27,-1,-3,-358,-674,316,516
,500,2023-10-27 11:40:03.37,614,-321,-1953,28,-6,-1,-444,-776,332,610
,501,2023-10-27 11:40:03.38,609,-327,-1953,26,-4,-3,-380,-682,302,531
,502,2023-10-27 11:40:03.39,617,-327,-1954,23,-5,-8,-450,-773,323,611
,503,2023-10-27 11:40:03.40,598,-326,-1962,26,-8,-7,-386,-691,305,538
,504,2023-10-27 11:40:03.41,609,-333,-1960,29,-17,-9,-467,-778,311,622
,505,2023-10-27 11:40:03.42,610,-330,-1955,29,-17,-7,-421,-705,284,563
,506,2023-10-27 11:40:03.43,604,-330,-1953,25,-20,-9,-470,-783,313,626
,507,2023-10-27 11:40:03.44,616,-334,-1957,23,-15,-9,-405,-704,299,554
,508,2023-10-27 11:40:03.45,602,-336,-1957,26,-19,-10,-450,-770,320,610
,509,2023-10-27 11:40:03.46,607,-338,-1955,27,-16,-11,-405,-704,299,554
,510,2023-10-27 11:40:03.47,609,-335,-1958,24,-17,-11,-430,-764,334,597
,511,2023-10-27 11:40:03.48,606,-342,-1962,25,-17,-9,-384,-701,317,542
,512,2023-10-27 11:40:03.49,603,-350,-1959,24,-13,-8,-426,-756,330,591
,513,2023-10-27 11:40:03.50,612,-346,-1957,25,-10,-4,-398,-703,305,550
,514,2023-10-27 11:40:03.51,617,-348,-1956,24,-5,0,-424,-755,331,589
,515,2023-10-27 11:40:03.52,621,-344,-1958,26,-5,1,-399,-713,314,556
,516,2023-10-27 11:40:03.53,601,-337,-1954,27,1,4,-429,-758,329,593
,517,2023-10-27 11:40:03.54,616,-346,-1961,28,2,5,-404,-709,305,556
,518,2023-10-27 11:40:03.55,602,-349,-1966,20,3,11,-426,-753,327,589
,519,2023-10-27 11:40:03.56,599,-340,-1952,14,2,19,-412,-716,304,564
,520,2023-10-27 11:40:03.57,605,-346,-1956,0,8,18,-433,-751,318,592
,521,2023-10-27 11:40:03.58,616,-365,-1955,5,3,27,-420,-718,298,569
,522,2023-10-27 11:40:03.59,592,-345,-1977,12,10,34,-413,-746,333,579
,523,2023-10-27 11:40:03.60,602,-353,-1960,20,-21,38,-400,-721,321,560
,524,2023-10-27 11:40:03.61,601,-336,-1955,10,-4,42,-406,-744,338,575
,525,2023-10-27 11:40:03.62,592,-335,-1957,1,0,40,-414,-728,314,571
,526,2023-10-27 11:40:03.63,606,-333,-1960,-2,5,42,-406,-739,333,572
,527,2023-10-27 11:40:03.64,586,-344,-1969,-2,-2,41,-415,-729,314,572
,528,2023-10-27 11:40:03.65,592,-336,-1953,0,-11,39,-413,-740,327,576
,529,2023-10-27 11:40:03.66,597,-336,-1961,2,-8,36,-420,-737,317,578
,530,2023-10-27 11:40:03.67,599,-336,-1957,-1,-6,34,-403,-743,340,573
,531,2023-10-27 11:40:03.68,605,-336,-1948,3,-3,29,-422,-738,316,580
,532,2023-10-27 11:40:03.69,590,-338,-1952,9,1,26,-401,-728,327,564
,533,2023-10-27 11:40:03.70,589,-332,-1954,12,-2,21,-423,-737,314,580
,534,2023-10-27 11:40:03.71,597,-338,-1953,12,0,16,-396,-726,330,561
,535,2023-10-27 11:40:03.72,597,-340,-1956,18,5,14,-426,-747,321,586
,536,2023-10-27 11:40:03.73,602,-334,-1958,17,6,12,-390,-730,340,560
,537,2023-10-27 11:40:03.74,582,-342,-1956,18,4,11,-433,-753,320,593
,538,2023-10-27 11:40:03.75,597,-346,-1950,20,7,9,-401,-726,325,563
,539,2023-10-27 11:40:03.76,592,-341,-1956,21,8,10,-432,-753,321,592
,540,2023-10-27 11:40:03.77,591,-349,-1947,19,11,8,-379,-724,345,551
,541,2023-10-27 11:40:03.78,586,-342,-1951,13,17,10,-437,-759,322,598
,542,2023-10-27 11:40:03.79,597,-341,-1953,8,15,11,-392,-718,326,555
,543,2023-10-27 11:40:03.80,594,-340,-1953,0,19,11,-432,-757,325,594
,544,2023-10-27 11:40:03.81,596,-343,-1964,-7,25,14,-371,-718,347,544
,545,2023-10-27 11:40:03.82,599,-348,-1959,-12,17,15,-431,-764,333,597
,546,2023-10-27 11:40:03.83,598,-343,-1950,-16,16,23,-375,-712,337,543
,547,2023-10-27 11:40:03.84,599,-343,-1955,-19,16,26,-432,-756,324,594
,548,2023-10-27 11:40:03.85,613,-339,-1947,-25,19,28,-373,-703,330,538
,549,2023-10-27 11:40:03.86,603,-342,-1954,-29,22,27,-440,-761,321,600
,550,2023-10-27 11:40:03.87,616,-333,-1956,-30,25,28,-379,-708,329,543
,551,2023-10-27 11:40:03.88,602,-326,-1951,-30,17,27,-443,-768,325,605
,552,2023-10-27 11:40:03.89,603,-332,-1972,-36,27,25,-364,-702,338,533
,553,2023-10-27 11:40:03.90,599,-334,-1974,-39,26,22,-437,-764,327,600
,554,2023-10-27 11:40:03.91,600,-330,-1970,-39,21,22,-361,-696,335,528
,555,2023-10-27 11:40:03.92,600,-329,-1969,-42,19,22,-447,-774,327,610
,556,2023-10-27 11:40:03.93,602,-331,-1965,-42,13,23,-366,-702,336,534
,557,2023-10-27 11:40:03.94,600,-330,-1974,-43,9,26,-453,-775,322,614
,558,2023-10-27 11:40:03.95,603,-323,-1965,-43,4,29,-361,-691,330,526
,559,2023-10-27 11:40:03.96,599,-322,-1969,-41,-3,31,-455,-778,323,616
,560,2023-10-27 11:40:03.97,603,-320,-1960,-38,-1,33,-366,-695,329,530
,561,2023-10-27 11:40:03.98,606,-310,-1953,-32,-3,34,-475,-789,314,632
,562,2023-10-27 11:40:03.99,600,-320,-1956,-24,-5,33,-383,-701,318,542
,563,2023-10-27 11:40:04.00,605,-316,-1956,-23,1,31,-490,-796,306,643
,564,2023-10-27 11:40:04.01,605,-315,-1957,-19,2,30,-383,-697,314,540
,565,2023-10-27 11:40:04.02,595,-315,-1959,-15,4,32,-474,-792,318,633
,566,2023-10-27 11:40:04.03,590,-315,-1972,-14,3,32,-357,-689,332,523
,567,2023-10-27 11:40:04.04,594,-321,-1968,-8,-1,34,-464,-792,328,628
,568,2023-10-27 11:40:04.05,599,-322,-1968,-1,-1,32,-360,-686,326,523
,569,2023-10-27 11:40:04.06,602,-320,-1949,6,-3,27,-476,-795,319,635
,570,2023-10-27 11:40:04.07,604,-316,-1953,15,4,18,-358,-683,325,520
,571,2023-10-27 11:40:04.08,611,-314,-1957,18,11,13,-468,-797,329,632
,572,2023-10-27 11:40:04.09,609,-307,-1960,21,12,5,-347,-677,330,512
,573,2023-10-27 11:40:04.10,600,-302,-1965,20,15,0,-466,-792,326,629
,574,2023-10-27 11:40:04.11,600,-309,-1966,20,14,-2,-342,-671,329,506
,575,2023-10-27 11:40:04.12,600,-319,-1966,19,11,-2,-465,-793,328,629
,576,2023-10-27 11:40:04.13,597,-314,-1966,20,9,-5,-348,-676,328,512
,577,2023-10-27 11:40:04.14,615,-309,-1946,21,9,-3,-473,-801,328,637
,578,2023-10-27 11:40:04.15,605,-321,-1952,18,9,-3,-351,-675,324,513
,579,2023-10-27 11:40:04.16,620,-316,-1949,18,10,-5,-476,-801,325,638
,580,2023-10-27 11:40:04.17,605,-319,-1951,17,15,-3,-346,-671,325,508
,581,2023-10-27 11:40:04.18,606,-319,-1960,14,15,-1,-464,-802,338,633
,582,2023-10-27 11:40:04.19,600,-318,-1957,15,16,0,-328,-666,338,497
,583,2023-10-27 11:40:04.20,607,-328,-1967,16,16,3,-467,-801,334,634
,584,2023-10-27 11:40:04.21,602,-325,-1967,13,15,4,-334,-663,329,498
,585,2023-10-27 11:40:04.22,603,-329,-1963,13,14,7,-466,-800,334,633
,586,2023-10-27 11:40:04.23,612,-330,-1967,11,13,12,-337,-666,329,501
,587,2023-10-27 11:40:04.24,596,-329,-1962,13,10,15,-478,-809,331,643
,588,2023-10-27 11:40:04.25,619,-335,-1962,12,9,18,-338,-663,325,500
,589,2023-10-27 11:40:04.26,610,-318,-1969,10,9,20,-464,-804,340,634
,590,2023-10-27 11:40:04.27,607,-318,-1966,8,8,22,-323,-656,333,489
,591,2023-10-27 11:40:04.28,617,-314,-1974,5,6,21,-468,-808,340,638
,592,2023-10-27 11:40:04.29,600,-317,-1975,5,6,21,-320,-653,333,486
,593,2023-10-27 11:40:04.30,600,-321,-1971,2,3,18,-458,-801,343,629
,594,2023-10-27 11:40:04.31,599,-315,-1955,3,-1,19,-326,-652,326,489
,595,2023-10-27 11:40:04.32,608,-326,-1969,1,-3,21,-473,-804,331,638
,596,2023-10-27 11:40:04.33,601,-324,-1979,-1,-12,23,-334,-654,320,494
,597,2023-10-27 11:40:04.34,619,-307,-1962,2,-21,25,-473,-805,332,639
,598,2023-10-27 11:40:04.35,614,-316,-1960,4,-16,25,-330,-655,325,492
,599,2023-10-27 11:40:04.36,606,-325,-1953,4,-15,22,-470,-808,338,639
,600,2023-10-27 11:40:04.37,599,-314,-1966,7,-13,21,-339,-660,321,499
,601,2023-10-27 11:40:04.38,599,-325,-1957,13,-16,18,-485,-815,330,650
,602,2023-10-27 11:40:04.39,598,-326,-1952,16,-18,17,-341,-666,325,503
,603,2023-10-27 11:40:04.40,585,-323,-1958,19,-13,16,-471,-818,347,644
,604,2023-10-27 11:40:04.41,594,-318,-1965,19,-16,15,-331,-660,329,495
,605,2023-10-27 11:40:04.42,602,-317,-1954,21,-11,12,-474,-810,336,642
,606,2023-10-27 11:40:04.43,608,-318,-1959,19,-8,11,-334,-658,324,496
,607,2023-10-27 11:40:04.44,605,-319,-1954,20,-4,6,-472,-813,341,642
,608,2023-10-27 11:40:04.45,608,-322,-1956,19,-3,6,-333,-660,327,496
,609,2023-10-27 11:40:04.46,603,-318,-1949,22,3,3,-472,-816,344,644
,610,2023-10-27 11:40:04.47,602,-325,-1943,25,8,-1,-331,-659,328,495
,611,2023-10-27 11:40:04.48,585,-324,-1947,25,12,-3,-458,-808,350,633
,612,2023-10-27 11:40:04.49,600,-324,-1947,25,14,-4,-316,-652,336,484
,613,2023-10-27 11:40:04.50,597,-329,-1954,26,16,-4,-458,-806,348,632
,614,2023-10-27 11:40:04.51,600,-324,-1959,25,13,-2,-335,-656,321,495
,615,2023-10-27 11:40:04.52,599,-326,-1954,25,11,-4,-466,-808,342,637
,616,2023-10-27 11:40:04.53,587,-325,-1954,25,12,-3,-336,-659,323,497
,617,2023-10-27 11:40:04.54,607,-319,-1954,24,12,-3,-476,-814,338,645
,618,2023-10-27 11:40:04.55,606,-318,-1951,24,12,-6,-343,-665,322,504
,619,2023-10-27 11:40:04.56,602,-330,-1950,26,16,-4,-479,-821,342,650
,620,2023-10-27 11:40:04.57,603,-327,-1951,21,17,-6,-345,-670,325,507
,621,2023-10-27 11:40:04.58,606,-327,-1957,15,17,-3,-469,-817,348,643
,622,2023-10-27 11:40:04.59,604,-330,-1963,14,17,1,-341,-666,325,503
,623,2023-10-27 11:40:04.60,618,-318,-1957,15,16,3,-458,-810,352,634
,624,2023-10-27 11:40:04.61,622,-318,-1943,13,10,6,-335,-665,330,500
,625,2023-10-27 11:40:04.62,608,-324,-1954,13,12,4,-457,-813,356,635
,626,2023-10-27 11:40:04.63,610,-336,-1960,11,8,5,-341,-670,329,505
,627,2023-10-27 11:40:04.64,612,-328,-1966,12,11,6,-462,-814,352,638
,628,2023-10-27 11:40:04.65,616,-321,-1972,14,11,7,-340,-671,331,505
,629,2023-10-27 11:40:04.66,602,-325,-1966,13,7,10,-452,-803,351,627
,630,2023-10-27 11:40:04.67,625,-332,-1956,12,9,11,-346,-667,321,506
,631,2023-10-27 11:40:04.68,616,-331,-1952,22,13,8,-464,-810,346,637
,632,2023-10-27 11:40:04.69,595,-332,-1952,18,16,10,-370,-688,318,529
,633,2023-10-27 11:40:04.70,609,-325,-1953,13,29,7,-507,-828,321,667
,634,2023-10-27 11:40:04.71,609,-324,-1957,10,34,10,-432,-721,289,576
,635,2023-10-27 11:40:04.72,604,-328,-1969,10,39,7,-576,-881,305,728
,636,2023-10-27 11:40:04.73,599,-340,-1971,6,32,9,-510,-788,278,649
,637,2023-10-27 11:40:04.74,598,-326,-1970,-2,28,6,-695,-957,262,826
,638,2023-10-27 11:40:04.75,602,-329,-1976,-12,37,10,-673,-899,226,786
,639,2023-10-27 11:40:04.76,594,-332,-1980,-22,39,11,-796,-1048,252,922
,640,2023-10-27 11:40:04.77,589,-331,-1978,-37,44,9,-666,-964,298,815
,641,2023-10-27 11:40:04.78,600,-326,-1979,-54,41,3,-638,-1045,407,841
,642,2023-10-27 11:40:04.79,579,-341,-1996,-70,46,-1,-408,-885,477,646
,643,2023-10-27 11:40:04.80,603,-335,-1975,-86,38,-8,-341,-937,596,639
,644,2023-10-27 11:40:04.81,604,-324,-1944,-105,40,-11,-187,-857,670,522
,645,2023-10-27 11:40:04.82,596,-313,-1963,-122,58,-25,-137,-951,814,544
,646,2023-10-27 11:40:04.83,610,-310,-1966,-136,63,-31,-53,-857,804,455
,647,2023-10-27 11:40:04.84,608,-321,-1968,-150,57,-41,-95,-924,829,509
,648,2023-10-27 11:40:04.85,610,-324,-1968,-157,45,-47,-121,-830,709,475
,649,2023-10-27 11:40:04.86,606,-309,-1959,-149,41,-48,-174,-806,632,490
,650,2023-10-27 11:40:04.87,613,-300,-1969,-139,28,-49,-132,-633,501,382
,651,2023-10-27 11:40:04.88,614,-295,-1978,-142,11,-54,-223,-704,481,463
,652,2023-10-27 11:40:04.89,606,-287,-1963,-145,-3,-65,-218,-644,426,431
,653,2023-10-27 11:40:04.90,640,-299,-1927,-147,-13,-76,-268,-700,432,484
,654,2023-10-27 11:40:04.91,627,-258,-1923,-145,-11,-85,-264,-610,346,437
,655,2023-10-27 11:40:04.92,631,-223,-1920,-138,-1,-92,-307,-616,309,461
,656,2023-10-27 11:40:04.93,635,-265,-1913,-132,7,-102,-280,-519,239,399
,657,2023-10-27 11:40:04.94,640,-278,-1910,-132,18,-106,-306,-595,289,450
,658,2023-10-27 11:40:04.95,632,-274,-1927,-129,31,-102,-296,-619,323,457
,659,2023-10-27 11:40:04.96,632,-286,-1950,-133,36,-93,-346,-776,430,561
,660,2023-10-27 11:40:04.97,622,-277,-1966,-127,40,-80,-394,-747,353,570
,661,2023-10-27 11:40:04.98,629,-213,-1937,-130,41,-74,-393,-767,374,580
,662,2023-10-27 11:40:04.99,634,-259,-1945,-137,54,-64,-393,-749,356,571
,663,2023-10-27 11:40:05.00,618,-248,-1960,-148,55,-52,-357,-789,432,573
,664,2023-10-27 11:40:05.01,629,-240,-1968,-156,52,-41,-365,-729,364,547
,665,2023-10-27 11:40:05.02,635,-242,-1968,-163,52,-28,-293,-707,414,500
,666,2023-10-27 11:40:05.03,636,-238,-1962,-175,48,-14,-208,-625,417,416
,667,2023-10-27 11:40:05.04,645,-234,-1960,-180,52,-9,-130,-588,458,359
,668,2023-10-27 11:40:05.05,657,-240,-1964,-187,49,1,-119,-540,421,329
,669,2023-10-27 11:40:05.06,648,-235,-1966,-199,56,11,13,-550,563,268
,670,2023-10-27 11:40:05.07,643,-225,-1969,-210,72,20,-18,-518,500,268
,671,2023-10-27 11:40:05.08,646,-229,-1978,-213,70,32,3,-521,524,259
,672,2023-10-27 11:40:05.09,663,-217,-1977,-209,69,41,-8,-498,490,253
,673,2023-10-27 11:40:05.10,645,-222,-1963,-201,58,54,60,-544,604,242
,674,2023-10-27 11:40:05.11,658,-203,-1967,-200,58,63,13,-572,585,279
,675,2023-10-27 11:40:05.12,626,-209,-1984,-189,50,73,51,-565,616,257
,676,2023-10-27 11:40:05.13,648,-201,-1977,-181,39,78,27,-534,561,253
,677,2023-10-27 11:40:05.14,644,-199,-1968,-173,39,82,72,-509,581,218
,678,2023-10-27 11:40:05.15,635,-195,-1972,-166,35,90,18,-515,533,248
,679,2023-10-27 11:40:05.16,638,-186,-1960,-153,37,89,43,-504,547,230
,680,2023-10-27 11:40:05.17,638,-179,-1959,-136,35,86,-54,-486,432,270
,681,2023-10-27 11:40:05.18,640,-199,-1959,-108,27,80,-12,-454,442,233
,682,2023-10-27 11:40:05.19,632,-159,-1978,-80,16,82,-105,-478,373,291
,683,2023-10-27 11:40:05.20,638,-140,-1964,-62,-17,82,-28,-488,460,258
,684,2023-10-27 11:40:05.21,643,-134,-1961,-69,-10,72,-100,-536,436,318
,685,2023-10-27 11:40:05.22,647,-146,-1961,-90,25,63,-32,-499,467,265
,686,2023-10-27 11:40:05.23,641,-159,-1982,-99,40,52,-83,-525,442,304
,687,2023-10-27 11:40:05.24,637,-144,-1988,-82,32,44,-20,-488,468,254
,688,2023-10-27 11:40:05.25,655,-158,-1987,-59,12,41,-120,-558,438,339
,689,2023-10-27 11:40:05.26,654,-166,-1977,-54,-3,42,-107,-504,397,305
,690,2023-10-27 11:40:05.27,639,-143,-1973,-45,-9,40,-160,-532,372,346
,691,2023-10-27 11:40:05.28,655,-151,-1970,-43,-2,32,-77,-490,413,283
,692,2023-10-27 11:40:05.29,654,-155,-1974,-45,5,31,-150,-518,368,334
,693,2023-10-27 11:40:05.30,666,-151,-1976,-36,0,26,-67,-478,411,272
,694,2023-10-27 11:40:05.31,657,-150,-1972,-26,-6,24,-147,-550,403,348
,695,2023-10-27 11:40:05.32,652,-165,-1979,-14,-12,21,-88,-497,409,292
,696,2023-10-27 11:40:05.33,655,-156,-1978,-9,-14,20,-162,-558,396,360
,697,2023-10-27 11:40:05.34,650,-161,-1983,0,-19,21,-112,-480,368,296
,698,2023-10-27 11:40:05.35,660,-165,-1973,2,-24,22,-201,-569,368,385
,699,2023-10-27 11:40:05.36,647,-161,-1981,8,-30,17,-117,-544,427,330
,700,2023-10-27 11:40:05.37,655,-159,-1979,15,-36,18,-161,-619,458,390
,701,2023-10-27 11:40:05.38,642,-159,-1972,23,-33,19,-90,-539,449,314
,702,2023-10-27 11:40:05.39,651,-166,-1972,26,-31,16,-184,-609,425,396
,703,2023-10-27 11:40:05.40,649,-166,-1980,30,-28,14,-119,-554,435,336
,704,2023-10-27 11:40:05.41,637,-168,-1982,32,-35,14,-202,-649,447,425
,705,2023-10-27 11:40:05.42,641,-160,-1982,38,-43,12,-112,-564,452,338
,706,2023-10-27 11:40:05.43,634,-154,-1979,47,-47,6,-195,-653,458,424
,707,2023-10-27 11:40:05.44,651,-154,-1971,54,-42,1,-108,-579,471,343
,708,2023-10-27 11:40:05.45,656,-145,-1963,54,-45,-7,-230,-662,432,446
,709,2023-10-27 11:40:05.46,645,-139,-1982,58,-52,-21,-176,-594,418,385
,710,2023-10-27 11:40:05.47,668,-108,-1968,74,-66,-48,-300,-715,415,507
,711,2023-10-27 11:40:05.48,672,-77,-1983,98,-75,-93,-234,-637,403,435
,712,2023-10-27 11:40:05.49,675,-46,-2002,117,-86,-147,-411,-774,363,592
,713,2023-10-27 11:40:05.50,654,-24,-2015,141,-99,-216,-369,-725,356,547
,714,2023-10-27 11:40:05.51,656,-7,-2034,167,-115,-299,-524,-858,334,691
,715,2023-10-27 11:40:05.52,641,-8,-2030,208,-141,-375,-426,-761,335,593
,716,2023-10-27 11:40:05.53,636,-56,-2039,276,-168,-444,-547,-869,322,708
,717,2023-10-27 11:40:05.54,644,-75,-2047,358,-202,-510,-449,-775,326,612
,718,2023-10-27 11:40:05.55,653,-76,-2027,442,-248,-570,-582,-888,306,735
,719,2023-10-27 11:40:05.56,650,-54,-2019,517,-294,-628,-495,-778,283,636
,720,2023-10-27 11:40:05.57,656,-24,-2012,594,-344,-703,-648,-873,225,760
,721,2023-10-27 11:40:05.58,669,-23,-2005,659,-366,-785,-549,-736,187,642
,722,2023-10-27 11:40:05.59,669,-34,-2005,709,-373,-869,-658,-826,168,742
,723,2023-10-27 11:40:05.60,658,-41,-2029,757,-382,-958,-509,-673,164,591
,724,2023-10-27 11:40:05.61,645,-43,-2031,810,-398,-1040,-573,-754,181,663
,725,2023-10-27 11:40:05.62,635,-67,-2039,868,-437,-1119,-424,-615,191,519
,726,2023-10-27 11:40:05.63,618,-91,-2041,913,-480,-1187,-490,-716,226,603
,727,2023-10-27 11:40:05.64,611,-106,-2048,937,-514,-1256,-348,-584,236,466
,728,2023-10-27 11:40:05.65,611,-107,-2053,951,-550,-1322,-426,-688,262,557
,729,2023-10-27 11:40:05.66,609,-116,-2046,955,-575,-1391,-300,-552,252,426
,730,2023-10-27 11:40:05.67,623,-124,-2023,952,-589,-1463,-405,-671,266,538
,731,2023-10-27 11:40:05.68,615,-133,-2008,942,-603,-1548,-282,-543,261,412
,732,2023-10-27 11:40:05.69,621,-125,-1983,936,-606,-1637,-379,-661,282,520
,733,2023-10-27 11:40:05.70,613,-137,-1983,919,-606,-1728,-247,-525,278,386
,734,2023-10-27 11:40:05.71,606,-149,-1978,891,-600,-1821,-305,-629,324,467
,735,2023-10-27 11:40:05.72,596,-156,-1985,858,-607,-1912,-178,-487,309,332
,736,2023-10-27 11:40:05.73,592,-195,-1983,831,-619,-1990,-273,-602,329,437
,737,2023-10-27 11:40:05.74,584,-227,-1983,806,-626,-2061,-168,-470,302,319
,738,2023-10-27 11:40:05.75,565,-254,-1966,789,-641,-2123,-257,-590,333,423
,739,2023-10-27 11:40:05.76,563,-291,-1962,769,-661,-2163,-130,-446,316,288
,740,2023-10-27 11:40:05.77,562,-330,-1957,740,-690,-2190,-209,-557,348,383
,741,2023-10-27 11:40:05.78,551,-330,-1950,709,-717,-2200,-108,-424,316,266
,742,2023-10-27 11:40:05.79,568,-383,-1953,665,-714,-2198,-214,-553,339,383
,743,2023-10-27 11:40:05.80,548,-415,-1942,623,-735,-2179,-118,-424,306,271
,744,2023-10-27 11:40:05.81,555,-465,-1948,586,-733,-2147,-199,-538,339,368
,745,2023-10-27 11:40:05.82,554,-502,-1934,559,-718,-2108,-101,-402,301,251
,746,2023-10-27 11:40:05.83,546,-534,-1918,540,-690,-2067,-215,-528,313,371
,747,2023-10-27 11:40:05.84,507,-562,-1915,528,-687,-2009,-129,-408,279,268
,748,2023-10-27 11:40:05.85,522,-568,-1906,507,-670,-1942,-240,-549,309,394
,749,2023-10-27 11:40:05.86,510,-567,-1883,480,-642,-1872,-146,-420,274,283
,750,2023-10-27 11:40:05.87,519,-542,-1855,455,-593,-1820,-261,-555,294,408
,751,2023-10-27 11:40:05.88,499,-504,-1843,422,-536,-1779,-164,-427,263,295
,752,2023-10-27 11:40:05.89,495,-493,-1869,373,-478,-1740,-266,-560,294,413
,753,2023-10-27 11:40:05.90,487,-517,-1912,320,-438,-1694,-184,-450,266,317
,754,2023-10-27 11:40:05.91,470,-525,-1958,271,-398,-1648,-298,-601,303,449
,755,2023-10-27 11:40:05.92,464,-526,-1959,231,-375,-1597,-213,-485,272,349
,756,2023-10-27 11:40:05.93,443,-517,-1983,190,-362,-1551,-309,-612,303,460
,757,2023-10-27 11:40:05.94,441,-498,-1988,142,-358,-1507,-209,-481,272,345
,758,2023-10-27 11:40:05.95,429,-480,-2009,85,-353,-1468,-329,-626,297,477
,759,2023-10-27 11:40:05.96,438,-478,-2011,29,-356,-1435,-242,-506,264,374
,760,2023-10-27 11:40:05.97,427,-466,-2012,-9,-367,-1409,-358,-660,302,509
,761,2023-10-27 11:40:05.98,438,-436,-1992,-27,-381,-1399,-256,-533,277,394
,762,2023-10-27 11:40:05.99,445,-389,-1971,-44,-389,-1404,-367,-676,309,521
,763,2023-10-27 11:40:06.00,439,-372,-1960,-63,-386,-1418,-275,-548,273,411
,764,2023-10-27 11:40:06.01,420,-385,-1969,-81,-375,-1443,-393,-693,300,543
,765,2023-10-27 11:40:06.02,422,-394,-1976,-91,-363,-1464,-293,-565,272,429
,766,2023-10-27 11:40:06.03,424,-410,-1977,-92,-363,-1475,-400,-717,317,558
,767,2023-10-27 11:40:06.04,421,-438,-1997,-89,-364,-1473,-309,-599,290,454
,768,2023-10-27 11:40:06.05,416,-445,-2007,-85,-373,-1464,-418,-757,339,587
,769,2023-10-27 11:40:06.06,423,-407,-1991,-81,-386,-1457,-326,-636,310,481
,770,2023-10-27 11:40:06.07,429,-375,-1953,-77,-383,-1456,-440,-787,347,613
,771,2023-10-27 11:40:06.08,432,-348,-1913,-58,-372,-1469,-330,-654,324,492
,772,2023-10-27 11:40:06.09,438,-366,-1978,-62,-341,-1476,-388,-771,383,579
,773,2023-10-27 11:40:06.10,439,-359,-1992,-81,-322,-1489,-273,-625,352,449
,774,2023-10-27 11:40:06.11,427,-334,-1965,-92,-310,-1495,-355,-742,387,548
,775,2023-10-27 11:40:06.12,405,-376,-1993,-95,-292,-1486,-270,-606,336,438
,776,2023-10-27 11:40:06.13,380,-459,-2043,-94,-285,-1446,-342,-712,370,527
,777,2023-10-27 11:40:06.14,384,-467,-2030,-93,-296,-1387,-237,-570,333,403
,778,2023-10-27 11:40:06.15,403,-408,-1970,-73,-322,-1327,-293,-677,384,485
,779,2023-10-27 11:40:06.16,431,-348,-1927,-51,-312,-1288,-192,-543,351,367
,780,2023-10-27 11:40:06.17,431,-302,-1896,-36,-290,-1272,-262,-655,393,458
,781,2023-10-27 11:40:06.18,442,-270,-1882,-32,-259,-1270,-190,-537,347,363
,782,2023-10-27 11:40:06.19,454,-241,-1901,-18,-209,-1283,-251,-644,393,447
,783,2023-10-27 11:40:06.20,414,-269,-1911,11,-189,-1306,-181,-525,344,353
,784,2023-10-27 11:40:06.21,424,-219,-1955,48,-167,-1326,-243,-630,387,436
,785,2023-10-27 11:40:06.22,412,-214,-2009,62,-160,-1354,-184,-527,343,355
,786,2023-10-27 11:40:06.23,421,-162,-2029,39,-150,-1394,-251,-639,388,445
,787,2023-10-27 11:40:06.24,431,-107,-2022,0,-141,-1459,-190,-538,348,364
,788,2023-10-27 11:40:06.25,427,-26,-1959,-11,-142,-1546,-253,-639,386,446
,789,2023-10-27 11:40:06.26,411,16,-1985,9,-140,-1643,-190,-543,353,366
,790,2023-10-27 11:40:06.27,392,-15,-2054,4,-144,-1741,-244,-648,404,446
,791,2023-10-27 11:40:06.28,376,-62,-2105,-30,-161,-1819,-201,-556,355,378
,792,2023-10-27 11:40:06.29,368,-113,-2111,-62,-205,-1876,-253,-646,393,449
,793,2023-10-27 11:40:06.30,352,-308,-2138,-63,-263,-1904,-191,-548,357,369
,794,2023-10-27 11:40:06.31,352,-198,-2029,12,-337,-1912,-245,-645,400,445
,795,2023-10-27 11:40:06.32,342,-223,-2048,72,-400,-1910,-198,-560,362,379
,796,2023-10-27 11:40:06.33,351,-191,-2034,99,-428,-1894,-244,-667,423,455
,797,2023-10-27 11:40:06.34,396,-155,-1992,111,-433,-1883,-188,-589,401,388
,798,2023-10-27 11:40:06.35,369,-104,-1964,127,-419,-1890,-219,-685,466,452
,799,2023-10-27 11:40:06.36,378,-84,-1959,145,-393,-1897,-190,-605,415,397
,800,2023-10-27 11:40:06.37,363,-90,-1963,164,-375,-1907,-209,-665,456,437
,801,2023-10-27 11:40:06.38,284,-107,-1989,190,-380,-1921,-159,-579,420,369
,802,2023-10-27 11:40:06.39,311,-115,-2034,197,-337,-1900,-172,-637,465,404
,803,2023-10-27 11:40:06.40,284,-154,-2099,211,-346,-1881,-144,-557,413,350
,804,2023-10-27 11:40:06.41,272,-174,-2134,200,-360,-1845,-169,-622,453,395
,805,2023-10-27 11:40:06.42,282,-162,-2124,191,-368,-1802,-154,-560,406,357
,806,2023-10-27 11:40:06.43,275,-156,-2113,185,-381,-1766,-182,-628,446,405
,807,2023-10-27 11:40:06.44,272,-154,-2112,194,-395,-1732,-175,-577,402,376
,808,2023-10-27 11:40:06.45,272,-139,-2129,197,-397,-1700,-185,-645,460,415
,809,2023-10-27 11:40:06.46,260,-131,-2137,194,-396,-1678,-167,-588,421,377
,810,2023-10-27 11:40:06.47,272,-119,-2179,175,-378,-1664,-169,-633,464,401
,811,2023-10-27 11:40:06.48,231,-118,-2134,144,-360,-1658,-174,-593,419,383
,812,2023-10-27 11:40:06.49,296,-95,-2115,113,-343,-1631,-186,-646,460,416
,813,2023-10-27 11:40:06.50,281,-96,-2111,103,-339,-1631,-184,-611,427,397
,814,2023-10-27 11:40:06.51,279,-92,-2047,91,-332,-1640,-184,-665,481,424
,815,2023-10-27 11:40:06.52,286,-79,-2044,74,-287,-1650,-182,-643,461,412
,816,2023-10-27 11:40:06.53,283,-70,-2002,68,-271,-1667,-174,-684,510,429
,817,2023-10-27 11:40:06.54,277,-76,-1996,71,-251,-1694,-184,-660,476,422
,818,2023-10-27 11:40:06.55,282,-49,-2027,59,-204,-1720,-184,-694,510,439
,819,2023-10-27 11:40:06.56,258,71,-2001,47,-191,-1752,-214,-684,470,449
,820,2023-10-27 11:40:06.57,216,-102,-1967,49,-217,-1773,-204,-714,510,459
,821,2023-10-27 11:40:06.58,247,-34,-2058,29,-155,-1785,-233,-706,473,469
,822,2023-10-27 11:40:06.59,190,-119,-2028,-7,-183,-1797,-215,-719,504,467
,823,2023-10-27 11:40:06.60,210,-139,-2033,-2,-232,-1776,-231,-704,473,467
,824,2023-10-27 11:40:06.61,256,-99,-1998,36,-260,-1763,-196,-703,507,449
,825,2023-10-27 11:40:06.62,242,-163,-1999,58,-230,-1767,-231,-699,468,465
,826,2023-10-27 11:40:06.63,247,-132,-1916,102,-264,-1759,-203,-699,496,451
,827,2023-10-27 11:40:06.64,231,-135,-2008,129,-229,-1763,-207,-691,484,449
,828,2023-10-27 11:40:06.65,194,-142,-2072,134,-220,-1746,-154,-674,520,414
,829,2023-10-27 11:40:06.66,226,-152,-2046,141,-217,-1729,-198,-680,482,439
,830,2023-10-27 11:40:06.67,216,-133,-2049,153,-213,-1711,-179,-661,482,420
,831,2023-10-27 11:40:06.68,217,-117,-2078,138,-195,-1694,-218,-684,466,451
,832,2023-10-27 11:40:06.69,197,-122,-2052,125,-195,-1680,-174,-670,496,422
,833,2023-10-27 11:40:06.70,218,-124,-2064,129,-194,-1656,-223,-694,471,458
,834,2023-10-27 11:40:06.71,204,-141,-2120,126,-182,-1631,-174,-664,490,419
,835,2023-10-27 11:40:06.72,192,-179,-2160,97,-165,-1598,-234,-698,464,466
