// Data mode  : Full
// Data quality  : High
// Acceleration sensor's range  : 16g
// Gyroscope sensor's range  : 2000dps
//
//ARTIFACT,NUM,DATE,ACC_X,ACC_Y,ACC_Z,GYRO_X,GYRO_Y,GYRO_Z,EOG_L,EOG_R,EOG_H,EOG_V
,1,2023-10-27 11:43:49.81,-154,88,-2037,-90,84,-53,311,-235,546,-38
,2,2023-10-27 11:43:49.82,-146,86,-2038,-92,82,-45,162,-332,494,85
,3,2023-10-27 11:43:49.83,-138,98,-2021,-88,76,-41,314,-236,550,-39
,4,2023-10-27 11:43:49.84,-155,108,-2025,-83,73,-32,169,-320,489,75
,5,2023-10-27 11:43:49.85,-146,100,-2053,-81,61,-26,310,-194,504,-58
,6,2023-10-27 11:43:49.86,-150,112,-2059,-76,48,-26,154,-268,422,57
,7,2023-10-27 11:43:49.87,-150,124,-2058,-64,34,-19,304,-133,437,-85
,8,2023-10-27 11:43:49.88,-147,123,-2056,-57,33,-18,156,-239,395,41
,9,2023-10-27 11:43:49.89,-153,128,-2050,-58,19,-20,305,-171,476,-67
,10,2023-10-27 11:43:49.90,-147,130,-2046,-57,18,-16,159,-314,473,77
,11,2023-10-27 11:43:49.91,-141,119,-2048,-48,10,-15,306,-255,561,-25
,12,2023-10-27 11:43:49.92,-145,109,-2051,-37,7,-11,164,-356,520,96
,13,2023-10-27 11:43:49.93,-129,96,-2043,-33,5,-4,303,-220,523,-41
,14,2023-10-27 11:43:49.94,-148,91,-2053,-31,18,2,166,-305,471,69
,15,2023-10-27 11:43:49.95,-134,92,-2050,-24,22,5,307,-248,555,-29
,16,2023-10-27 11:43:49.96,-127,83,-2056,-4,29,11,172,-371,543,99
,17,2023-10-27 11:43:49.97,-137,83,-2060,15,19,13,312,-300,612,-6
,18,2023-10-27 11:43:49.98,-136,82,-2059,35,18,25,174,-413,587,119
,19,2023-10-27 11:43:49.99,-117,85,-2047,48,11,30,310,-355,665,22
,20,2023-10-27 11:43:50.00,-126,86,-2034,63,12,38,174,-457,631,141
,21,2023-10-27 11:43:50.01,-120,96,-2046,72,19,37,306,-391,697,42
,22,2023-10-27 11:43:50.02,-126,94,-2063,76,16,35,177,-480,657,151
,23,2023-10-27 11:43:50.03,-123,101,-2056,84,20,37,310,-393,703,41
,24,2023-10-27 11:43:50.04,-120,97,-2066,96,-3,39,182,-464,646,141
,25,2023-10-27 11:43:50.05,-138,90,-2067,100,14,47,305,-356,661,25
,26,2023-10-27 11:43:50.06,-125,95,-2071,105,0,42,182,-436,618,127
,27,2023-10-27 11:43:50.07,-127,88,-2053,105,0,42,302,-305,607,1
,28,2023-10-27 11:43:50.08,-127,100,-2053,107,-10,40,183,-350,533,83
,29,2023-10-27 11:43:50.09,-117,90,-2049,111,-9,43,300,-229,529,-35
,30,2023-10-27 11:43:50.10,-117,78,-2051,107,-8,42,184,-305,489,60
,31,2023-10-27 11:43:50.11,-116,73,-2030,110,7,49,304,-178,482,-63
,32,2023-10-27 11:43:50.12,-120,80,-2024,111,22,41,193,-269,462,38
,33,2023-10-27 11:43:50.13,-108,70,-2026,116,19,39,304,-185,489,-59
,34,2023-10-27 11:43:50.14,-103,76,-2021,115,45,36,192,-282,474,45
,35,2023-10-27 11:43:50.15,-107,85,-2021,113,55,30,294,-166,460,-64
,36,2023-10-27 11:43:50.16,-110,91,-2021,108,80,23,183,-271,454,44
,37,2023-10-27 11:43:50.17,-114,90,-2025,101,80,12,294,-194,488,-50
,38,2023-10-27 11:43:50.18,-118,87,-2034,100,92,12,194,-282,476,44
,39,2023-10-27 11:43:50.19,-126,98,-2052,90,95,6,294,-160,454,-67
,40,2023-10-27 11:43:50.20,-118,93,-2048,76,81,5,192,-226,418,17
,41,2023-10-27 11:43:50.21,-126,88,-2051,58,87,4,281,-114,395,-83
,42,2023-10-27 11:43:50.22,-115,93,-2059,44,75,3,189,-188,377,0
,43,2023-10-27 11:43:50.23,-123,82,-2052,32,74,3,279,-78,357,-100
,44,2023-10-27 11:43:50.24,-125,85,-2043,16,59,-4,192,-190,382,-1
,45,2023-10-27 11:43:50.25,-108,82,-2050,1,65,-4,270,-139,409,-65
,46,2023-10-27 11:43:50.26,-111,88,-2042,-7,45,-14,187,-236,423,24
,47,2023-10-27 11:43:50.27,-104,78,-2058,-17,49,-15,260,-135,395,-62
,48,2023-10-27 11:43:50.28,-106,75,-2064,-24,52,-23,187,-226,413,19
,49,2023-10-27 11:43:50.29,-108,71,-2073,-29,38,-27,255,-170,425,-42
,50,2023-10-27 11:43:50.30,-108,71,-2063,-33,47,-30,178,-267,445,44
,51,2023-10-27 11:43:50.31,-105,70,-2069,-36,31,-34,242,-160,402,-41
,52,2023-10-27 11:43:50.32,-105,61,-2070,-36,31,-31,176,-199,375,11
,53,2023-10-27 11:43:50.33,-105,61,-2060,-35,21,-38,244,-97,341,-73
,54,2023-10-27 11:43:50.34,-108,57,-2063,-32,16,-38,178,-161,339,-8
,55,2023-10-27 11:43:50.35,-101,57,-2062,-29,12,-39,237,-68,305,-84
,56,2023-10-27 11:43:50.36,-91,66,-2051,-25,6,-40,187,-126,313,-30
,57,2023-10-27 11:43:50.37,-99,72,-2049,-20,6,-44,237,-48,285,-94
,58,2023-10-27 11:43:50.38,-105,77,-2053,-19,-7,-50,188,-108,296,-40
,59,2023-10-27 11:43:50.39,-97,78,-2044,-15,-4,-52,236,-35,271,-100
,60,2023-10-27 11:43:50.40,-109,83,-2051,-16,-11,-58,194,-90,284,-52
,61,2023-10-27 11:43:50.41,-114,76,-2052,-17,-9,-60,233,-18,251,-107
,62,2023-10-27 11:43:50.42,-111,77,-2068,-21,-13,-67,190,-80,270,-55
,63,2023-10-27 11:43:50.43,-115,70,-2058,-24,-18,-62,230,-15,245,-107
,64,2023-10-27 11:43:50.44,-127,81,-2057,-29,-29,-63,198,-72,270,-63
,65,2023-10-27 11:43:50.45,-121,87,-2051,-33,-31,-58,227,-19,246,-104
,66,2023-10-27 11:43:50.46,-113,80,-2058,-42,-45,-60,196,-108,304,-44
,67,2023-10-27 11:43:50.47,-128,97,-2060,-45,-50,-50,219,-78,297,-70
,68,2023-10-27 11:43:50.48,-123,94,-2050,-46,-61,-49,201,-122,323,-39
,69,2023-10-27 11:43:50.49,-132,91,-2056,-48,-71,-38,218,-56,274,-81
,70,2023-10-27 11:43:50.50,-127,93,-2046,-50,-74,-34,198,-105,303,-46
,71,2023-10-27 11:43:50.51,-138,95,-2046,-50,-79,-28,214,-66,280,-74
,72,2023-10-27 11:43:50.52,-126,87,-2048,-49,-70,-18,206,-107,313,-49
,73,2023-10-27 11:43:50.53,-129,77,-2033,-49,-59,-12,211,-58,269,-76
,74,2023-10-27 11:43:50.54,-126,75,-2027,-43,-49,-1,214,-80,294,-67
,75,2023-10-27 11:43:50.55,-129,71,-2030,-37,-45,3,218,-38,256,-90
,76,2023-10-27 11:43:50.56,-137,74,-2028,-22,-36,11,216,-81,297,-67
,77,2023-10-27 11:43:50.57,-123,73,-2014,0,-40,17,196,-50,246,-73
,78,2023-10-27 11:43:50.58,-128,68,-2036,18,-36,23,219,-81,300,-69
,79,2023-10-27 11:43:50.59,-136,72,-2052,36,-36,28,208,-66,274,-71
,80,2023-10-27 11:43:50.60,-148,78,-2046,55,-27,36,224,-99,323,-62
,81,2023-10-27 11:43:50.61,-135,71,-2059,70,-38,41,207,-71,278,-68
,82,2023-10-27 11:43:50.62,-131,74,-2044,79,-28,46,224,-79,303,-72
,83,2023-10-27 11:43:50.63,-133,87,-2048,86,-29,46,201,-44,245,-78
,84,2023-10-27 11:43:50.64,-141,79,-2055,93,-25,52,226,-50,276,-88
,85,2023-10-27 11:43:50.65,-122,83,-2043,102,-38,53,204,-35,239,-84
,86,2023-10-27 11:43:50.66,-136,82,-2038,112,-35,55,231,-52,283,-89
,87,2023-10-27 11:43:50.67,-145,74,-2054,114,-32,52,197,-35,232,-81
,88,2023-10-27 11:43:50.68,-128,85,-2055,114,-33,46,236,-40,276,-98
,89,2023-10-27 11:43:50.69,-121,99,-2032,112,-32,34,199,-33,232,-83
,90,2023-10-27 11:43:50.70,-111,113,-2035,105,-17,23,234,-36,270,-99
,91,2023-10-27 11:43:50.71,-120,142,-2015,91,0,-2,191,-31,222,-80
,92,2023-10-27 11:43:50.72,-124,156,-2016,73,26,-41,235,-26,261,-104
,93,2023-10-27 11:43:50.73,-105,176,-1996,57,46,-93,185,-15,200,-85
,94,2023-10-27 11:43:50.74,-84,216,-1959,49,57,-160,233,-3,236,-115
,95,2023-10-27 11:43:50.75,-98,254,-1952,36,74,-247,182,-15,197,-83
,96,2023-10-27 11:43:50.76,-108,268,-1990,13,92,-350,232,-4,236,-114
,97,2023-10-27 11:43:50.77,-112,267,-2023,-20,115,-452,174,-20,194,-77
,98,2023-10-27 11:43:50.78,-121,262,-2053,-57,130,-545,235,-15,250,-110
,99,2023-10-27 11:43:50.79,-119,239,-2056,-97,131,-639,179,-39,218,-70
,100,2023-10-27 11:43:50.80,-145,222,-2056,-132,143,-724,238,-30,268,-104
,101,2023-10-27 11:43:50.81,-135,198,-2072,-173,149,-808,170,-50,220,-60
,102,2023-10-27 11:43:50.82,-131,171,-2087,-216,149,-884,248,-26,274,-111
,103,2023-10-27 11:43:50.83,-126,162,-2106,-248,132,-954,189,-43,232,-73
,104,2023-10-27 11:43:50.84,-132,157,-2097,-269,116,-1015,285,-7,292,-139
,105,2023-10-27 11:43:50.85,-114,164,-2082,-276,84,-1073,216,-34,250,-91
,106,2023-10-27 11:43:50.86,-97,190,-2074,-284,52,-1140,320,-2,322,-159
,107,2023-10-27 11:43:50.87,-111,190,-2065,-298,36,-1202,232,-23,255,-104
,108,2023-10-27 11:43:50.88,-105,182,-2069,-317,42,-1259,333,32,301,-182
,109,2023-10-27 11:43:50.89,-94,153,-2069,-335,34,-1308,242,-5,247,-118
,110,2023-10-27 11:43:50.90,-104,140,-2066,-351,29,-1347,356,48,308,-202
,111,2023-10-27 11:43:50.91,-107,123,-2075,-365,17,-1371,255,7,248,-131
,112,2023-10-27 11:43:50.92,-112,102,-2069,-382,5,-1387,368,47,321,-207
,113,2023-10-27 11:43:50.93,-115,83,-2093,-394,-16,-1384,256,-19,275,-118
,114,2023-10-27 11:43:50.94,-123,72,-2090,-407,-43,-1378,368,25,343,-196
,115,2023-10-27 11:43:50.95,-122,68,-2087,-411,-64,-1361,254,-19,273,-117
,116,2023-10-27 11:43:50.96,-125,58,-2099,-414,-89,-1344,355,42,313,-198
,117,2023-10-27 11:43:50.97,-115,58,-2081,-415,-108,-1322,228,-19,247,-104
,118,2023-10-27 11:43:50.98,-93,59,-2070,-414,-122,-1301,325,-75,400,-125
,119,2023-10-27 11:43:50.99,-115,61,-2070,-409,-128,-1269,214,-188,402,-13
,120,2023-10-27 11:43:51.00,-115,62,-2081,-394,-137,-1241,331,-268,599,-31
,121,2023-10-27 11:43:51.01,-92,62,-2072,-379,-147,-1205,206,-330,536,62
,122,2023-10-27 11:43:51.02,-111,46,-2056,-365,-129,-1168,326,-317,643,-4
,123,2023-10-27 11:43:51.03,-119,56,-2076,-348,-131,-1133,206,-365,571,79
,124,2023-10-27 11:43:51.04,-133,35,-2089,-334,-130,-1095,331,-576,907,122
,125,2023-10-27 11:43:51.05,-127,16,-2077,-312,-129,-1055,201,-690,891,244
,126,2023-10-27 11:43:51.06,-148,28,-2051,-276,-144,-1008,327,-852,1179,262
,127,2023-10-27 11:43:51.07,-146,38,-2040,-241,-168,-964,196,-842,1038,323
,128,2023-10-27 11:43:51.08,-175,22,-2049,-214,-176,-925,318,-818,1136,250
,129,2023-10-27 11:43:51.09,-199,34,-2067,-201,-185,-893,180,-755,935,287
,130,2023-10-27 11:43:51.10,-188,63,-2032,-185,-187,-848,312,-877,1189,282
,131,2023-10-27 11:43:51.11,-218,77,-2060,-176,-198,-809,181,-882,1063,350
,132,2023-10-27 11:43:51.12,-231,76,-2063,-188,-200,-770,308,-957,1265,324
,133,2023-10-27 11:43:51.13,-228,78,-2039,-196,-225,-730,164,-915,1079,375
,134,2023-10-27 11:43:51.14,-241,102,-2048,-188,-233,-690,298,-997,1295,349
,135,2023-10-27 11:43:51.15,-257,111,-2036,-185,-264,-664,163,-966,1129,401
,136,2023-10-27 11:43:51.16,-240,132,-1994,-180,-261,-634,302,-1097,1399,397
,137,2023-10-27 11:43:51.17,-245,181,-1999,-179,-279,-612,165,-1062,1227,448
,138,2023-10-27 11:43:51.18,-239,193,-1966,-196,-272,-590,308,-1154,1462,423
,139,2023-10-27 11:43:51.19,-245,221,-1947,-220,-247,-579,164,-1092,1256,464
,140,2023-10-27 11:43:51.20,-267,238,-1985,-246,-201,-566,299,-1175,1474,438
,141,2023-10-27 11:43:51.21,-270,234,-1996,-259,-199,-561,162,-1102,1264,470
,142,2023-10-27 11:43:51.22,-278,246,-2021,-259,-197,-539,304,-1165,1469,430
,143,2023-10-27 11:43:51.23,-294,253,-2024,-257,-206,-524,164,-1092,1256,464
,144,2023-10-27 11:43:51.24,-327,265,-2025,-273,-197,-502,306,-1163,1469,428
,145,2023-10-27 11:43:51.25,-332,257,-2029,-287,-197,-486,155,-1103,1258,474
,146,2023-10-27 11:43:51.26,-338,255,-2057,-292,-199,-464,291,-1170,1461,439
,147,2023-10-27 11:43:51.27,-349,245,-2050,-278,-204,-426,152,-1108,1260,478
,148,2023-10-27 11:43:51.28,-323,252,-2020,-265,-220,-389,311,-1167,1478,428
,149,2023-10-27 11:43:51.29,-329,235,-1973,-259,-204,-344,172,-1098,1270,463
,150,2023-10-27 11:43:51.30,-315,246,-1962,-260,-185,-294,314,-1154,1468,420
,151,2023-10-27 11:43:51.31,-320,220,-1924,-253,-147,-255,165,-1097,1262,466
,152,2023-10-27 11:43:51.32,-299,234,-1921,-220,-125,-216,314,-1153,1467,419
,153,2023-10-27 11:43:51.33,-319,274,-1921,-168,-93,-196,166,-1100,1266,467
,154,2023-10-27 11:43:51.34,-312,291,-1882,-115,-80,-189,312,-1154,1466,421
,155,2023-10-27 11:43:51.35,-302,313,-1893,-71,-38,-186,166,-1108,1274,471
,156,2023-10-27 11:43:51.36,-318,331,-1897,-33,-16,-187,326,-1158,1484,416
,157,2023-10-27 11:43:51.37,-326,343,-1925,-10,27,-180,173,-1108,1281,467
,158,2023-10-27 11:43:51.38,-351,344,-1959,-8,57,-161,321,-1149,1470,414
,159,2023-10-27 11:43:51.39,-351,348,-1981,-12,84,-143,154,-1123,1277,484
,160,2023-10-27 11:43:51.40,-371,343,-2004,-15,97,-118,305,-1167,1472,431
,161,2023-10-27 11:43:51.41,-375,327,-2023,-7,103,-95,167,-1119,1286,476
,162,2023-10-27 11:43:51.42,-367,301,-2039,0,99,-66,316,-1148,1464,416
,163,2023-10-27 11:43:51.43,-365,294,-2045,0,95,-34,184,-1099,1283,457
,164,2023-10-27 11:43:51.44,-373,296,-2040,1,69,0,328,-1132,1460,402
,165,2023-10-27 11:43:51.45,-366,304,-2015,4,53,34,172,-1099,1271,463
,166,2023-10-27 11:43:51.46,-345,316,-1990,4,26,53,320,-1132,1452,406
,167,2023-10-27 11:43:51.47,-338,324,-1977,10,30,79,176,-1098,1274,461
,168,2023-10-27 11:43:51.48,-346,322,-1983,26,41,88,318,-1126,1444,404
,169,2023-10-27 11:43:51.49,-343,324,-1964,51,51,99,178,-1098,1276,460
,170,2023-10-27 11:43:51.50,-354,290,-1975,113,42,115,323,-1124,1447,400
,171,2023-10-27 11:43:51.51,-341,280,-1981,134,36,121,177,-1117,1294,470
,172,2023-10-27 11:43:51.52,-344,289,-1983,154,32,134,312,-1150,1462,419
,173,2023-10-27 11:43:51.53,-353,301,-1996,170,43,146,183,-1116,1299,466
,174,2023-10-27 11:43:51.54,-350,305,-1996,186,50,139,325,-1120,1445,397
,175,2023-10-27 11:43:51.55,-364,305,-2024,204,52,133,183,-1098,1281,457
,176,2023-10-27 11:43:51.56,-327,313,-2012,224,60,133,310,-1112,1422,401
,177,2023-10-27 11:43:51.57,-332,294,-2014,237,75,145,185,-1096,1281,455
,178,2023-10-27 11:43:51.58,-313,280,-1978,245,93,150,316,-1109,1425,396
,179,2023-10-27 11:43:51.59,-323,255,-1993,252,116,171,176,-1111,1287,467
,180,2023-10-27 11:43:51.60,-315,222,-2004,267,130,181,300,-1125,1425,412
,181,2023-10-27 11:43:51.61,-294,196,-1996,304,124,193,178,-1114,1292,468
,182,2023-10-27 11:43:51.62,-284,191,-1991,351,112,199,302,-1112,1414,405
,183,2023-10-27 11:43:51.63,-292,187,-1990,398,110,200,180,-1105,1285,462
,184,2023-10-27 11:43:51.64,-287,187,-1984,430,120,195,303,-1107,1410,402
,185,2023-10-27 11:43:51.65,-284,181,-1986,457,143,203,179,-1115,1294,468
,186,2023-10-27 11:43:51.66,-281,177,-2002,473,151,204,296,-1116,1412,410
,187,2023-10-27 11:43:51.67,-287,159,-1992,478,187,212,186,-1119,1305,466
,188,2023-10-27 11:43:51.68,-301,148,-1995,476,211,212,301,-1105,1406,402
,189,2023-10-27 11:43:51.69,-298,145,-2029,479,238,221,184,-1100,1284,458
,190,2023-10-27 11:43:51.70,-281,141,-2017,477,218,224,288,-1085,1373,398
,191,2023-10-27 11:43:51.71,-277,140,-2016,485,197,233,182,-1100,1282,459
,192,2023-10-27 11:43:51.72,-288,145,-2016,493,182,237,288,-1094,1382,403
,193,2023-10-27 11:43:51.73,-270,154,-2004,476,186,244,178,-1120,1298,471
,194,2023-10-27 11:43:51.74,-291,144,-2000,447,191,245,281,-1106,1387,412
,195,2023-10-27 11:43:51.75,-291,122,-2032,416,188,246,167,-1123,1290,478
,196,2023-10-27 11:43:51.76,-292,111,-2041,392,171,254,265,-1097,1362,416
,197,2023-10-27 11:43:51.77,-269,107,-2027,382,146,258,188,-1114,1302,463
,198,2023-10-27 11:43:51.78,-289,101,-2025,368,135,263,274,-1088,1362,407
,199,2023-10-27 11:43:51.79,-267,97,-2028,346,137,264,184,-1111,1295,463
,200,2023-10-27 11:43:51.80,-243,104,-2034,322,145,266,258,-1093,1351,417
,201,2023-10-27 11:43:51.81,-249,105,-2031,309,146,262,172,-1130,1302,479
,202,2023-10-27 11:43:51.82,-222,105,-2018,299,153,265,255,-1104,1359,424
,203,2023-10-27 11:43:51.83,-223,101,-2021,287,154,265,178,-1135,1313,478
,204,2023-10-27 11:43:51.84,-227,103,-2013,271,174,264,266,-1098,1364,416
,205,2023-10-27 11:43:51.85,-203,100,-2021,257,186,260,189,-1126,1315,468
,206,2023-10-27 11:43:51.86,-204,96,-2020,251,197,256,257,-1090,1347,416
,207,2023-10-27 11:43:51.87,-199,94,-2024,239,210,253,178,-1139,1317,480
,208,2023-10-27 11:43:51.88,-196,92,-2033,232,229,255,259,-1103,1362,422
,209,2023-10-27 11:43:51.89,-191,70,-2032,226,228,260,185,-1148,1333,481
,210,2023-10-27 11:43:51.90,-192,43,-2033,225,232,268,257,-1102,1359,422
,211,2023-10-27 11:43:51.91,-186,25,-2034,218,238,276,178,-1151,1329,486
,212,2023-10-27 11:43:51.92,-188,19,-2042,218,240,283,248,-1105,1353,428
,213,2023-10-27 11:43:51.93,-175,8,-2042,217,255,293,178,-1159,1337,490
,214,2023-10-27 11:43:51.94,-177,3,-2046,227,247,302,245,-1108,1353,431
,215,2023-10-27 11:43:51.95,-176,-4,-2063,243,235,307,192,-1166,1358,487
,216,2023-10-27 11:43:51.96,-166,-19,-2067,262,207,317,252,-1111,1363,429
,217,2023-10-27 11:43:51.97,-166,-10,-2072,276,198,321,188,-1164,1352,488
,218,2023-10-27 11:43:51.98,-168,-20,-2068,286,178,330,250,-1104,1354,427
,219,2023-10-27 11:43:51.99,-135,-21,-2066,289,183,335,202,-1155,1357,476
,220,2023-10-27 11:43:52.00,-136,-29,-2055,299,175,339,253,-1098,1351,422
,221,2023-10-27 11:43:52.01,-140,-42,-2062,312,175,346,195,-1177,1372,491
,222,2023-10-27 11:43:52.02,-132,-59,-2055,327,161,354,242,-1117,1359,437
,223,2023-10-27 11:43:52.03,-133,-73,-2064,341,158,361,198,-1181,1379,491
,224,2023-10-27 11:43:52.04,-129,-92,-2070,361,148,369,242,-1113,1355,435
,225,2023-10-27 11:43:52.05,-135,-101,-2087,373,135,376,201,-1186,1387,492
,226,2023-10-27 11:43:52.06,-137,-101,-2087,389,119,389,234,-1122,1356,444
,227,2023-10-27 11:43:52.07,-127,-107,-2065,396,112,401,196,-1200,1396,502
,228,2023-10-27 11:43:52.08,-107,-118,-2062,403,113,424,239,-1130,1369,445
,229,2023-10-27 11:43:52.09,-105,-126,-2048,401,122,440,195,-1214,1409,509
,230,2023-10-27 11:43:52.10,-113,-142,-2050,403,121,461,226,-1139,1365,456
,231,2023-10-27 11:43:52.11,-100,-149,-2028,406,120,480,198,-1220,1418,511
,232,2023-10-27 11:43:52.12,-95,-143,-2018,409,120,499,224,-1133,1357,454
,233,2023-10-27 11:43:52.13,-87,-141,-2028,403,121,515,193,-1196,1389,501
,234,2023-10-27 11:43:52.14,-99,-144,-2023,385,137,534,219,-1096,1315,438
,235,2023-10-27 11:43:52.15,-84,-120,-2015,358,158,553,193,-1145,1338,476
,236,2023-10-27 11:43:52.16,-94,-132,-2009,325,179,575,209,-1035,1244,413
,237,2023-10-27 11:43:52.17,-103,-155,-2036,287,203,599,180,-1072,1252,446
,238,2023-10-27 11:43:52.18,-105,-166,-2063,250,215,629,205,-951,1156,373
,239,2023-10-27 11:43:52.19,-91,-198,-2054,225,210,661,172,-978,1150,403
,240,2023-10-27 11:43:52.20,-92,-194,-2056,206,200,691,189,-847,1036,329
,241,2023-10-27 11:43:52.21,-87,-198,-2047,181,205,716,175,-846,1021,335
,242,2023-10-27 11:43:52.22,-94,-176,-2066,147,206,738,199,-697,896,249
,243,2023-10-27 11:43:52.23,-78,-154,-2057,114,251,757,196,-714,910,259
,244,2023-10-27 11:43:52.24,-75,-171,-2054,100,191,775,209,-620,829,205
,245,2023-10-27 11:43:52.25,-92,-143,-2031,68,221,789,210,-652,862,221
,246,2023-10-27 11:43:52.26,-88,-145,-2006,43,180,798,208,-561,769,176
,247,2023-10-27 11:43:52.27,-75,-169,-2044,20,187,803,212,-631,843,209
,248,2023-10-27 11:43:52.28,-65,-167,-2061,1,205,821,208,-566,774,179
,249,2023-10-27 11:43:52.29,-70,-151,-2055,-25,194,814,216,-612,828,198
,250,2023-10-27 11:43:52.30,-72,-141,-2046,-57,206,814,196,-530,726,167
,251,2023-10-27 11:43:52.31,-55,-117,-2048,-78,204,798,219,-560,779,170
,252,2023-10-27 11:43:52.32,-45,-115,-2065,-86,193,775,200,-491,691,145
,253,2023-10-27 11:43:52.33,-56,-106,-2074,-85,191,766,219,-511,730,146
,254,2023-10-27 11:43:52.34,-67,-120,-2074,-85,176,751,196,-432,628,118
,255,2023-10-27 11:43:52.35,-58,-128,-2059,-88,173,744,219,-438,657,109
,256,2023-10-27 11:43:52.36,-60,-124,-2056,-90,154,724,189,-369,558,90
,257,2023-10-27 11:43:52.37,-50,-120,-2065,-90,145,709,224,-369,593,72
,258,2023-10-27 11:43:52.38,-45,-103,-2075,-85,119,687,188,-295,483,53
,259,2023-10-27 11:43:52.39,-64,-97,-2072,-80,115,664,228,-325,553,48
,260,2023-10-27 11:43:52.40,-42,-84,-2066,-74,102,637,187,-314,501,63
,261,2023-10-27 11:43:52.41,-47,-75,-2065,-65,98,609,224,-333,557,54
,262,2023-10-27 11:43:52.42,-59,-83,-2068,-66,110,586,178,-283,461,52
,263,2023-10-27 11:43:52.43,-39,-74,-2062,-57,93,555,227,-264,491,18
,264,2023-10-27 11:43:52.44,-50,-78,-2070,-44,104,535,179,-233,412,27
,265,2023-10-27 11:43:52.45,-59,-95,-2060,-34,95,504,224,-232,456,4
,266,2023-10-27 11:43:52.46,-23,-89,-2047,-17,104,483,164,-205,369,20
,267,2023-10-27 11:43:52.47,-33,-91,-2028,-1,105,458,225,-180,405,-22
,268,2023-10-27 11:43:52.48,-30,-65,-2025,23,111,416,162,-165,327,1
,269,2023-10-27 11:43:52.49,-16,-55,-2024,46,128,373,215,-156,371,-29
,270,2023-10-27 11:43:52.50,-27,-34,-2006,63,135,323,148,-162,310,7
,271,2023-10-27 11:43:52.51,-29,-16,-2041,81,147,276,198,-152,350,-23
,272,2023-10-27 11:43:52.52,-41,-48,-2052,96,148,232,126,-156,282,15
,273,2023-10-27 11:43:52.53,-31,-61,-2044,116,171,199,184,-133,317,-25
,274,2023-10-27 11:43:52.54,-23,-68,-2026,138,187,163,106,-148,254,21
,275,2023-10-27 11:43:52.55,-33,-80,-2025,148,201,128,161,-137,298,-12
,276,2023-10-27 11:43:52.56,-2,-58,-2003,148,216,91,91,-158,249,33
,277,2023-10-27 11:43:52.57,-3,-59,-2011,149,231,60,161,-134,295,-13
,278,2023-10-27 11:43:52.58,17,-59,-1999,166,259,23,97,-138,235,20
,279,2023-10-27 11:43:52.59,19,-61,-2013,194,268,-16,227,-56,283,-85
,280,2023-10-27 11:43:52.60,21,-72,-2030,210,283,-54,166,-64,230,-51
,281,2023-10-27 11:43:52.61,37,-76,-2030,221,266,-83,292,-3,295,-144
,282,2023-10-27 11:43:52.62,32,-90,-2034,240,275,-117,191,-68,259,-61
,283,2023-10-27 11:43:52.63,48,-94,-2057,271,289,-147,310,-12,322,-149
,284,2023-10-27 11:43:52.64,57,-100,-2046,293,287,-177,203,-45,248,-79
,285,2023-10-27 11:43:52.65,55,-107,-2045,295,274,-203,302,15,287,-158
,286,2023-10-27 11:43:52.66,66,-100,-2035,296,279,-230,197,-37,234,-80
,287,2023-10-27 11:43:52.67,80,-105,-2045,304,284,-249,308,21,287,-164
,288,2023-10-27 11:43:52.68,75,-123,-2066,305,274,-271,191,-38,229,-76
,289,2023-10-27 11:43:52.69,90,-151,-2064,310,271,-295,301,27,274,-164
,290,2023-10-27 11:43:52.70,83,-166,-2090,307,270,-313,183,-38,221,-72
,291,2023-10-27 11:43:52.71,96,-171,-2076,312,264,-334,290,31,259,-160
,292,2023-10-27 11:43:52.72,113,-193,-2063,317,246,-346,173,-29,202,-72
,293,2023-10-27 11:43:52.73,115,-204,-2071,317,238,-360,304,48,256,-176
,294,2023-10-27 11:43:52.74,123,-198,-2072,316,213,-371,181,-21,202,-80
,295,2023-10-27 11:43:52.75,123,-206,-2045,335,199,-381,296,50,246,-173
,296,2023-10-27 11:43:52.76,140,-224,-2044,340,176,-393,167,-33,200,-67
,297,2023-10-27 11:43:52.77,137,-260,-2045,319,182,-394,290,8,282,-149
,298,2023-10-27 11:43:52.78,152,-244,-2046,316,193,-396,161,-92,253,-34
,299,2023-10-27 11:43:52.79,153,-261,-2046,322,197,-401,284,-22,306,-131
,300,2023-10-27 11:43:52.80,157,-272,-2041,328,181,-406,155,-91,246,-32
,301,2023-10-27 11:43:52.81,162,-267,-2034,318,169,-410,281,-8,289,-136
,302,2023-10-27 11:43:52.82,152,-278,-2056,315,156,-414,145,-88,233,-28
,303,2023-10-27 11:43:52.83,157,-303,-2051,327,156,-413,278,-1,279,-138
,304,2023-10-27 11:43:52.84,153,-303,-2055,347,140,-406,143,-73,216,-35
,305,2023-10-27 11:43:52.85,166,-313,-2028,355,128,-405,277,15,262,-146
,306,2023-10-27 11:43:52.86,151,-324,-2052,349,117,-403,145,-80,225,-32
,307,2023-10-27 11:43:52.87,164,-313,-2064,332,104,-400,274,8,266,-141
,308,2023-10-27 11:43:52.88,155,-297,-2058,317,91,-404,136,-82,218,-27
,309,2023-10-27 11:43:52.89,142,-286,-2063,309,84,-404,275,16,259,-145
,310,2023-10-27 11:43:52.90,173,-291,-2039,299,55,-405,133,-77,210,-28
,311,2023-10-27 11:43:52.91,177,-312,-2005,282,51,-397,265,10,255,-137
,312,2023-10-27 11:43:52.92,175,-327,-2000,263,51,-395,123,-99,222,-12
,313,2023-10-27 11:43:52.93,200,-337,-2000,233,56,-399,268,-6,274,-131
,314,2023-10-27 11:43:52.94,204,-348,-2027,200,68,-398,125,-104,229,-10
,315,2023-10-27 11:43:52.95,213,-353,-2024,191,65,-394,264,-6,270,-129
,316,2023-10-27 11:43:52.96,207,-385,-1987,197,88,-387,120,-104,224,-8
,317,2023-10-27 11:43:52.97,218,-397,-1989,200,95,-376,260,1,259,-130
,318,2023-10-27 11:43:52.98,229,-415,-1995,195,108,-353,103,-107,210,2
,319,2023-10-27 11:43:52.99,210,-420,-2007,189,117,-331,238,-15,253,-111
,320,2023-10-27 11:43:53.00,219,-429,-2022,188,111,-313,86,-106,192,10
,321,2023-10-27 11:43:53.01,220,-439,-1984,190,102,-282,197,-3,200,-97
,322,2023-10-27 11:43:53.02,239,-455,-1974,194,109,-249,55,-98,153,21
,323,2023-10-27 11:43:53.03,235,-497,-1992,203,116,-215,182,3,179,-92
,324,2023-10-27 11:43:53.04,242,-519,-2004,209,109,-173,64,-77,141,6
,325,2023-10-27 11:43:53.05,282,-514,-1949,226,140,-133,216,70,146,-143
,326,2023-10-27 11:43:53.06,289,-508,-1935,273,159,-99,88,-20,108,-34
,327,2023-10-27 11:43:53.07,309,-533,-1942,332,190,-70,270,134,136,-202
,328,2023-10-27 11:43:53.08,299,-585,-1986,391,226,-44,132,28,104,-80
,329,2023-10-27 11:43:53.09,302,-582,-1986,443,226,-16,292,154,138,-223
,330,2023-10-27 11:43:53.10,309,-556,-1985,496,227,15,151,28,123,-89
,331,2023-10-27 11:43:53.11,313,-557,-1978,542,223,31,305,153,152,-229
,332,2023-10-27 11:43:53.12,287,-530,-2026,590,227,50,156,17,139,-86
,333,2023-10-27 11:43:53.13,288,-507,-2031,621,204,62,306,125,181,-215
,334,2023-10-27 11:43:53.14,309,-483,-2044,622,183,72,164,-12,176,-76
,335,2023-10-27 11:43:53.15,296,-502,-2003,617,141,81,321,98,223,-209
,336,2023-10-27 11:43:53.16,299,-477,-2006,608,165,92,164,-43,207,-60
,337,2023-10-27 11:43:53.17,311,-487,-1970,593,170,107,306,58,248,-182
,338,2023-10-27 11:43:53.18,336,-573,-1945,578,196,133,149,-76,225,-36
,339,2023-10-27 11:43:53.19,325,-627,-2028,604,213,156,294,20,274,-157
,340,2023-10-27 11:43:53.20,335,-702,-1944,656,206,179,154,-117,271,-18
,341,2023-10-27 11:43:53.21,281,-646,-1995,734,180,193,306,-3,309,-151
,342,2023-10-27 11:43:53.22,324,-604,-1962,769,129,195,158,-121,279,-18
,343,2023-10-27 11:43:53.23,306,-605,-1976,756,67,214,289,-13,302,-138
,344,2023-10-27 11:43:53.24,300,-508,-2118,759,57,230,129,-128,257,0
,345,2023-10-27 11:43:53.25,340,-581,-1794,718,109,254,243,-16,259,-113
,346,2023-10-27 11:43:53.26,204,-644,-2148,722,181,254,65,-150,215,42
,347,2023-10-27 11:43:53.27,310,-614,-2026,777,-25,284,174,-52,226,-61
,348,2023-10-27 11:43:53.28,250,-658,-2052,826,-108,305,25,-182,207,78
,349,2023-10-27 11:43:53.29,231,-611,-1985,841,-179,326,152,-79,231,-36
,350,2023-10-27 11:43:53.30,230,-595,-1921,792,-123,301,29,-190,219,80
,351,2023-10-27 11:43:53.31,204,-556,-1895,705,1,284,170,-53,223,-58
,352,2023-10-27 11:43:53.32,284,-602,-1847,673,92,267,68,-144,212,38
,353,2023-10-27 11:43:53.33,214,-616,-1934,651,228,255,219,-18,237,-100
,354,2023-10-27 11:43:53.34,204,-634,-1952,668,112,225,118,-112,230,-3
,355,2023-10-27 11:43:53.35,263,-692,-1889,698,74,204,263,23,240,-143
,356,2023-10-27 11:43:53.36,277,-331,-1950,671,121,186,168,-53,221,-57
,357,2023-10-27 11:43:53.37,209,-919,-1758,657,184,137,328,93,235,-210
,358,2023-10-27 11:43:53.38,276,-683,-2007,703,141,129,246,6,240,-126
,359,2023-10-27 11:43:53.39,255,-742,-1905,717,65,120,389,136,253,-262
,360,2023-10-27 11:43:53.40,237,-817,-1901,754,-14,90,292,45,247,-168
,361,2023-10-27 11:43:53.41,271,-822,-1888,744,11,81,429,183,246,-306
,362,2023-10-27 11:43:53.42,253,-829,-1915,697,-11,42,305,64,241,-184
,363,2023-10-27 11:43:53.43,273,-896,-1904,627,40,35,424,182,242,-303
,364,2023-10-27 11:43:53.44,264,-893,-1874,599,47,14,324,73,251,-198
,365,2023-10-27 11:43:53.45,284,-923,-1868,581,8,9,454,201,253,-327
,366,2023-10-27 11:43:53.46,253,-978,-1845,537,-25,6,363,95,268,-229
,367,2023-10-27 11:43:53.47,269,-971,-1843,490,-19,8,448,193,255,-320
,368,2023-10-27 11:43:53.48,307,-970,-1827,430,-10,14,316,74,242,-195
,369,2023-10-27 11:43:53.49,261,-1040,-1806,370,61,14,382,162,220,-272
,370,2023-10-27 11:43:53.50,274,-998,-1846,338,22,16,229,43,186,-136
,371,2023-10-27 11:43:53.51,309,-951,-1814,304,31,16,286,124,162,-205
,372,2023-10-27 11:43:53.52,256,-1022,-1758,254,53,15,123,-10,133,-56
,373,2023-10-27 11:43:53.53,303,-1027,-1755,195,89,10,187,70,117,-128
,374,2023-10-27 11:43:53.54,245,-995,-1819,149,114,8,73,-33,106,-20
,375,2023-10-27 11:43:53.55,336,-1028,-1677,125,120,5,159,61,98,-110
,376,2023-10-27 11:43:53.56,275,-978,-1748,123,126,-4,79,-19,98,-30
,377,2023-10-27 11:43:53.57,262,-971,-1755,123,134,-19,182,89,93,-135
,378,2023-10-27 11:43:53.58,297,-973,-1724,137,150,-29,115,20,95,-67
,379,2023-10-27 11:43:53.59,266,-977,-1774,138,195,-52,226,138,88,-182
,380,2023-10-27 11:43:53.60,269,-936,-1818,137,225,-61,186,96,90,-141
,381,2023-10-27 11:43:53.61,283,-977,-1836,150,210,-72,285,193,92,-239
,382,2023-10-27 11:43:53.62,298,-957,-1820,165,194,-74,239,133,106,-186
,383,2023-10-27 11:43:53.63,295,-993,-1813,184,186,-70,317,217,100,-267
,384,2023-10-27 11:43:53.64,299,-1003,-1849,197,149,-65,263,150,113,-206
,385,2023-10-27 11:43:53.65,329,-1005,-1841,205,95,-49,338,220,118,-279
,386,2023-10-27 11:43:53.66,342,-1029,-1845,221,49,-35,297,152,145,-224
,387,2023-10-27 11:43:53.67,364,-1035,-1801,221,78,-23,348,214,134,-281
,388,2023-10-27 11:43:53.68,367,-1010,-1808,205,63,-4,293,128,165,-210
,389,2023-10-27 11:43:53.69,347,-1041,-1803,176,49,-6,341,181,160,-261
,390,2023-10-27 11:43:53.70,356,-1053,-1807,164,35,13,287,99,188,-193
,391,2023-10-27 11:43:53.71,339,-1061,-1789,157,15,11,320,145,175,-232
,392,2023-10-27 11:43:53.72,365,-1059,-1760,162,-7,22,263,68,195,-165
,393,2023-10-27 11:43:53.73,351,-1036,-1728,151,-5,22,294,124,170,-209
,394,2023-10-27 11:43:53.74,332,-1044,-1745,144,11,20,249,59,190,-154
,395,2023-10-27 11:43:53.75,332,-1038,-1769,137,23,16,288,121,167,-204
,396,2023-10-27 11:43:53.76,316,-1028,-1781,133,36,10,253,77,176,-165
,397,2023-10-27 11:43:53.77,320,-992,-1766,136,18,4,284,134,150,-209
,398,2023-10-27 11:43:53.78,311,-991,-1774,140,-12,0,265,89,176,-177
,399,2023-10-27 11:43:53.79,310,-1008,-1797,153,-12,-4,288,140,148,-214
,400,2023-10-27 11:43:53.80,310,-997,-1769,155,1,-11,255,102,153,-178
,401,2023-10-27 11:43:53.81,341,-1019,-1732,147,17,-15,270,142,128,-206
,402,2023-10-27 11:43:53.82,314,-1041,-1748,139,49,-16,244,104,140,-174
,403,2023-10-27 11:43:53.83,321,-1027,-1743,134,83,-17,240,118,122,-179
,404,2023-10-27 11:43:53.84,328,-1051,-1752,132,99,-20,216,62,154,-139
,405,2023-10-27 11:43:53.85,338,-1054,-1747,138,95,-13,219,77,142,-148
,406,2023-10-27 11:43:53.86,352,-1056,-1751,158,67,-13,226,57,169,-141
,407,2023-10-27 11:43:53.87,334,-1057,-1770,163,61,-13,237,87,150,-162
,408,2023-10-27 11:43:53.88,347,-1059,-1750,163,53,-10,234,46,188,-140
,409,2023-10-27 11:43:53.89,366,-1055,-1732,160,24,-7,236,66,170,-151
,410,2023-10-27 11:43:53.90,349,-1065,-1754,160,32,-10,223,22,201,-122
,411,2023-10-27 11:43:53.91,365,-1084,-1725,151,32,-16,198,32,166,-115
,412,2023-10-27 11:43:53.92,379,-1106,-1963,134,103,-17,183,-1,184,-91
,413,2023-10-27 11:43:53.93,344,-1066,-1727,105,-13,-15,156,5,151,-80
,414,2023-10-27 11:43:53.94,360,-1098,-1746,93,20,-19,132,-40,172,-46
,415,2023-10-27 11:43:53.95,368,-1066,-1737,97,-3,-7,128,-22,150,-53
,416,2023-10-27 11:43:53.96,366,-1072,-1729,91,-9,-6,138,-29,167,-54
,417,2023-10-27 11:43:53.97,350,-1092,-1742,73,3,0,139,-3,142,-68
,418,2023-10-27 11:43:53.98,358,-1087,-1742,50,23,-5,147,-20,167,-63
,419,2023-10-27 11:43:53.99,363,-1094,-1757,35,42,3,134,-1,135,-66
,420,2023-10-27 11:43:54.00,356,-1079,-1772,36,57,12,156,-6,162,-75
,421,2023-10-27 11:43:54.01,371,-1074,-1732,48,34,17,146,4,142,-75
,422,2023-10-27 11:43:54.02,347,-1050,-1757,48,30,23,184,8,176,-96
,423,2023-10-27 11:43:54.03,370,-1045,-1760,49,31,27,156,13,143,-84
,424,2023-10-27 11:43:54.04,358,-1050,-1758,47,39,27,198,20,178,-109
,425,2023-10-27 11:43:54.05,360,-1048,-1743,52,31,22,178,27,151,-102
,426,2023-10-27 11:43:54.06,372,-1049,-1743,65,21,16,218,39,179,-128
,427,2023-10-27 11:43:54.07,367,-1049,-1732,71,17,8,180,37,143,-108
,428,2023-10-27 11:43:54.08,373,-1062,-1724,72,5,-1,238,62,176,-150
,429,2023-10-27 11:43:54.09,365,-1078,-1723,70,12,-5,191,51,140,-121
,430,2023-10-27 11:43:54.10,376,-1085,-1726,74,15,-7,253,78,175,-165
,431,2023-10-27 11:43:54.11,358,-1087,-1731,78,7,-2,213,69,144,-141
,432,2023-10-27 11:43:54.12,353,-1103,-1742,82,0,1,283,102,181,-192
,433,2023-10-27 11:43:54.13,362,-1097,-1717,77,-3,10,224,77,147,-150
,434,2023-10-27 11:43:54.14,363,-1103,-1709,63,-5,15,308,126,182,-217
,435,2023-10-27 11:43:54.15,373,-1105,-1703,54,17,23,235,96,139,-165
,436,2023-10-27 11:43:54.16,370,-1103,-1708,44,33,29,315,135,180,-225
,437,2023-10-27 11:43:54.17,377,-1109,-1723,35,33,25,240,90,150,-165
,438,2023-10-27 11:43:54.18,377,-1098,-1730,37,21,20,307,122,185,-214
,439,2023-10-27 11:43:54.19,375,-1090,-1717,38,18,10,216,70,146,-143
,440,2023-10-27 11:43:54.20,375,-1095,-1723,28,20,3,292,101,191,-196
,441,2023-10-27 11:43:54.21,381,-1098,-1725,33,14,-10,202,52,150,-127
,442,2023-10-27 11:43:54.22,379,-1108,-1722,41,11,-17,290,100,190,-195
,443,2023-10-27 11:43:54.23,371,-1130,-1729,34,12,-27,220,67,153,-143
,444,2023-10-27 11:43:54.24,376,-1124,-1718,22,26,-27,311,122,189,-216
,445,2023-10-27 11:43:54.25,367,-1117,-1708,15,16,-21,217,73,144,-145
,446,2023-10-27 11:43:54.26,369,-1122,-1720,28,-1,-13,298,121,177,-209
,447,2023-10-27 11:43:54.27,359,-1102,-1723,29,7,-7,202,67,135,-134
,448,2023-10-27 11:43:54.28,376,-1097,-1706,21,25,-4,290,118,172,-204
,449,2023-10-27 11:43:54.29,378,-1091,-1702,16,25,-3,189,54,135,-121
,450,2023-10-27 11:43:54.30,379,-1086,-1718,13,25,2,285,112,173,-198
,451,2023-10-27 11:43:54.31,377,-1096,-1710,26,32,7,172,37,135,-104
,452,2023-10-27 11:43:54.32,370,-1098,-1721,39,24,11,254,83,171,-168
,453,2023-10-27 11:43:54.33,368,-1098,-1707,45,30,7,162,23,139,-92
,454,2023-10-27 11:43:54.34,376,-1097,-1708,41,37,4,262,86,176,-174
,455,2023-10-27 11:43:54.35,388,-1104,-1730,46,49,0,154,13,141,-83
,456,2023-10-27 11:43:54.36,367,-1108,-1720,60,56,5,255,78,177,-166
,457,2023-10-27 11:43:54.37,364,-1104,-1706,67,43,8,143,7,136,-75
,458,2023-10-27 11:43:54.38,376,-1117,-1719,70,35,10,247,74,173,-160
,459,2023-10-27 11:43:54.39,396,-1133,-1696,70,43,19,128,-14,142,-57
,460,2023-10-27 11:43:54.40,372,-1105,-1737,143,1,17,236,55,181,-145
,461,2023-10-27 11:43:54.41,360,-1128,-1789,83,39,40,120,-24,144,-48
,462,2023-10-27 11:43:54.42,380,-1122,-1698,59,13,37,221,38,183,-129
,463,2023-10-27 11:43:54.43,402,-1143,-1704,51,43,51,104,-43,147,-30
,464,2023-10-27 11:43:54.44,377,-1134,-1716,38,23,55,215,35,180,-125
,465,2023-10-27 11:43:54.45,396,-1145,-1711,33,14,56,101,-45,146,-28
,466,2023-10-27 11:43:54.46,380,-1140,-1717,34,4,61,220,38,182,-129
,467,2023-10-27 11:43:54.47,396,-1136,-1711,37,0,65,102,-42,144,-30
,468,2023-10-27 11:43:54.48,390,-1137,-1701,40,-15,70,218,42,176,-130
,469,2023-10-27 11:43:54.49,387,-1128,-1703,42,-14,70,103,-45,148,-29
,470,2023-10-27 11:43:54.50,386,-1126,-1696,36,-8,74,228,51,177,-139
,471,2023-10-27 11:43:54.51,370,-1111,-1694,35,-8,70,109,-38,147,-35
,472,2023-10-27 11:43:54.52,347,-1119,-1722,33,-12,79,234,50,184,-142
,473,2023-10-27 11:43:54.53,394,-1123,-1706,37,-24,74,100,-46,146,-27
,474,2023-10-27 11:43:54.54,369,-1103,-1685,43,-6,81,224,45,179,-134
,475,2023-10-27 11:43:54.55,363,-1107,-1695,28,7,78,103,-47,150,-28
,476,2023-10-27 11:43:54.56,388,-1126,-1716,34,-2,69,238,65,173,-151
,477,2023-10-27 11:43:54.57,387,-1113,-1702,50,-12,72,104,-37,141,-33
,478,2023-10-27 11:43:54.58,380,-1106,-1683,52,7,70,236,58,178,-147
,479,2023-10-27 11:43:54.59,375,-1115,-1680,48,3,70,108,-36,144,-36
,480,2023-10-27 11:43:54.60,369,-1124,-1697,41,16,58,242,70,172,-156
,481,2023-10-27 11:43:54.61,366,-1127,-1694,49,0,60,102,-43,145,-29
,482,2023-10-27 11:43:54.62,360,-1140,-1725,41,17,62,238,59,179,-148
,483,2023-10-27 11:43:54.63,364,-1141,-1709,44,-8,69,104,-51,155,-26
,484,2023-10-27 11:43:54.64,363,-1126,-1698,53,-24,77,257,72,185,-164
,485,2023-10-27 11:43:54.65,363,-1131,-1680,52,-26,77,122,-34,156,-44
,486,2023-10-27 11:43:54.66,357,-1144,-1668,40,-29,77,267,84,183,-175
,487,2023-10-27 11:43:54.67,361,-1161,-1674,33,-11,83,121,-38,159,-41
,488,2023-10-27 11:43:54.68,359,-1145,-1668,34,-8,89,269,82,187,-175
,489,2023-10-27 11:43:54.69,358,-1119,-1700,87,-54,78,124,-28,152,-48
,490,2023-10-27 11:43:54.70,328,-1131,-1789,21,9,97,260,77,183,-168
,491,2023-10-27 11:43:54.71,354,-1146,-1654,-3,-11,83,122,-40,162,-41
,492,2023-10-27 11:43:54.72,358,-1129,-1698,-11,17,76,254,71,183,-162
,493,2023-10-27 11:43:54.73,332,-1121,-1707,-10,12,67,110,-47,157,-31
,494,2023-10-27 11:43:54.74,356,-1132,-1684,-9,-1,56,257,69,188,-163
,495,2023-10-27 11:43:54.75,344,-1116,-1684,-8,12,43,117,-41,158,-38
,496,2023-10-27 11:43:54.76,345,-1120,-1688,-1,11,34,262,78,184,-170
,497,2023-10-27 11:43:54.77,327,-1125,-1690,2,17,26,122,-42,164,-40
,498,2023-10-27 11:43:54.78,332,-1136,-1703,7,20,27,266,81,185,-173
,499,2023-10-27 11:43:54.79,337,-1144,-1708,13,18,21,125,-38,163,-43
,500,2023-10-27 11:43:54.80,344,-1138,-1710,14,27,27,268,79,189,-173
,501,2023-10-27 11:43:54.81,350,-1147,-1704,10,22,28,131,-37,168,-47
,502,2023-10-27 11:43:54.82,342,-1137,-1704,10,22,31,273,86,187,-179
,503,2023-10-27 11:43:54.83,354,-1116,-1689,16,18,29,128,-39,167,-44
,504,2023-10-27 11:43:54.84,353,-1120,-1688,17,17,25,272,79,193,-175
,505,2023-10-27 11:43:54.85,354,-1125,-1696,12,16,11,133,-36,169,-48
,506,2023-10-27 11:43:54.86,365,-1132,-1692,17,12,6,270,81,189,-175
,507,2023-10-27 11:43:54.87,369,-1138,-1694,17,5,2,134,-48,182,-43
,508,2023-10-27 11:43:54.88,354,-1143,-1694,19,-5,-2,270,72,198,-171
,509,2023-10-27 11:43:54.89,358,-1146,-1685,19,-3,0,135,-51,186,-42
,510,2023-10-27 11:43:54.90,360,-1156,-1689,15,-4,5,273,66,207,-169
,511,2023-10-27 11:43:54.91,341,-1151,-1700,11,-12,9,138,-57,195,-40
,512,2023-10-27 11:43:54.92,350,-1146,-1694,7,-20,14,272,63,209,-167
,513,2023-10-27 11:43:54.93,351,-1144,-1694,4,-31,17,139,-56,195,-41
,514,2023-10-27 11:43:54.94,351,-1141,-1683,6,-32,20,280,65,215,-172
,515,2023-10-27 11:43:54.95,352,-1137,-1690,4,-30,20,147,-48,195,-49
,516,2023-10-27 11:43:54.96,341,-1137,-1692,4,-35,17,278,67,211,-172
,517,2023-10-27 11:43:54.97,336,-1144,-1705,6,-39,16,148,-49,197,-49
,518,2023-10-27 11:43:54.98,350,-1156,-1714,11,-49,17,278,74,204,-176
,519,2023-10-27 11:43:54.99,343,-1136,-1697,13,-62,12,150,-36,186,-57
,520,2023-10-27 11:43:55.00,340,-1137,-1701,6,-62,12,282,79,203,-180
,521,2023-10-27 11:43:55.01,344,-1148,-1689,-2,-60,13,164,-39,203,-62
,522,2023-10-27 11:43:55.02,342,-1138,-1690,-2,-57,17,290,74,216,-182
,523,2023-10-27 11:43:55.03,336,-1138,-1692,-3,-50,21,174,-41,215,-66
,524,2023-10-27 11:43:55.04,334,-1128,-1687,-9,-50,25,301,71,230,-186
,525,2023-10-27 11:43:55.05,333,-1116,-1694,-21,-46,24,202,-32,234,-85
,526,2023-10-27 11:43:55.06,330,-1116,-1688,-33,-46,20,316,67,249,-191
,527,2023-10-27 11:43:55.07,334,-1122,-1666,-42,-34,14,224,-40,264,-92
,528,2023-10-27 11:43:55.08,335,-1137,-1657,-48,-25,10,354,70,284,-212
,529,2023-10-27 11:43:55.09,339,-1143,-1666,-53,-4,3,266,-27,293,-119
,530,2023-10-27 11:43:55.10,326,-1140,-1689,-49,5,0,383,84,299,-233
,531,2023-10-27 11:43:55.11,324,-1148,-1690,-45,7,-3,300,-21,321,-139
,532,2023-10-27 11:43:55.12,321,-1139,-1688,-41,8,-2,412,94,318,-253
,533,2023-10-27 11:43:55.13,331,-1138,-1699,-33,6,-7,325,-6,331,-159
,534,2023-10-27 11:43:55.14,344,-1140,-1691,-25,4,-7,424,97,327,-260
,535,2023-10-27 11:43:55.15,317,-1232,-1024,141,-168,-46,323,7,316,-165
,536,2023-10-27 11:43:55.16,320,-1040,-2099,156,101,-9,402,109,293,-255
,537,2023-10-27 11:43:55.17,298,-1152,-1896,-18,-35,-30,300,16,284,-158
,538,2023-10-27 11:43:55.18,423,-1123,-1667,-25,27,-33,371,114,257,-242
,539,2023-10-27 11:43:55.19,328,-1123,-1725,-2,24,-23,259,5,254,-132
,540,2023-10-27 11:43:55.20,361,-1129,-1714,-9,2,-48,324,89,235,-206
,541,2023-10-27 11:43:55.21,360,-1134,-1725,-25,33,-41,222,-4,226,-109
,542,2023-10-27 11:43:55.22,356,-1118,-1750,-19,26,-51,290,86,204,-188
,543,2023-10-27 11:43:55.23,382,-1125,-1735,-7,0,-42,190,-11,201,-89
,544,2023-10-27 11:43:55.24,368,-1126,-1741,10,-31,-34,264,77,187,-170
,545,2023-10-27 11:43:55.25,388,-1130,-1726,20,-51,-25,180,-13,193,-83
,546,2023-10-27 11:43:55.26,370,-1123,-1739,29,-70,-9,252,72,180,-162
,547,2023-10-27 11:43:55.27,365,-1125,-1714,29,-88,1,188,-7,195,-90
,548,2023-10-27 11:43:55.28,339,-1121,-1713,28,-96,22,255,74,181,-164
,549,2023-10-27 11:43:55.29,341,-1106,-1711,24,-119,46,194,-4,198,-95
,550,2023-10-27 11:43:55.30,361,-1117,-1702,25,-134,61,269,78,191,-173
,551,2023-10-27 11:43:55.31,352,-1119,-1694,32,-144,78,220,10,210,-115
,552,2023-10-27 11:43:55.32,351,-1116,-1699,36,-153,81,287,91,196,-189
,553,2023-10-27 11:43:55.33,327,-1104,-1697,23,-138,84,253,34,219,-143
,554,2023-10-27 11:43:55.34,326,-1107,-1675,-3,-131,83,303,116,187,-209
,555,2023-10-27 11:43:55.35,309,-1103,-1709,-19,-107,79,250,66,184,-158
,556,2023-10-27 11:43:55.36,306,-1141,-1691,-39,-129,82,288,133,155,-210
,557,2023-10-27 11:43:55.37,302,-1163,-1686,-48,-129,98,247,71,176,-159
,558,2023-10-27 11:43:55.38,312,-1175,-1676,-41,-148,94,286,124,162,-205
,559,2023-10-27 11:43:55.39,320,-1172,-1664,-45,-144,95,234,55,179,-144
,560,2023-10-27 11:43:55.40,296,-1158,-1701,-68,-143,83,264,107,157,-185
,561,2023-10-27 11:43:55.41,306,-1146,-1710,-96,-119,77,218,48,170,-133
,562,2023-10-27 11:43:55.42,289,-1136,-1717,-120,-119,74,238,89,149,-163
,563,2023-10-27 11:43:55.43,284,-1133,-1701,-127,-114,85,198,25,173,-111
,564,2023-10-27 11:43:55.44,279,-1148,-1717,-127,-144,95,223,72,151,-147
,565,2023-10-27 11:43:55.45,256,-1155,-1696,-131,-138,103,186,12,174,-99
,566,2023-10-27 11:43:55.46,257,-1138,-1695,-129,-128,114,208,56,152,-132
,567,2023-10-27 11:43:55.47,246,-1165,-1666,-132,-117,112,172,-8,180,-82
,568,2023-10-27 11:43:55.48,253,-1129,-1681,-126,-93,108,189,34,155,-111
,569,2023-10-27 11:43:55.49,255,-1134,-1657,-131,-80,105,167,-23,190,-72
,570,2023-10-27 11:43:55.50,244,-1130,-1680,-136,-48,110,188,26,162,-107
,571,2023-10-27 11:43:55.51,268,-1142,-1654,-134,-34,101,172,-12,184,-80
,572,2023-10-27 11:43:55.52,260,-1140,-1701,-112,1,105,178,16,162,-97
,573,2023-10-27 11:43:55.53,261,-1143,-1677,-91,2,94,184,-9,193,-87
,574,2023-10-27 11:43:55.54,282,-1148,-1697,-87,6,74,192,23,169,-107
,575,2023-10-27 11:43:55.55,305,-1156,-1664,-95,40,64,193,-7,200,-93
,576,2023-10-27 11:43:55.56,303,-1164,-1701,-94,48,49,192,19,173,-105
,577,2023-10-27 11:43:55.57,312,-1170,-1719,-96,92,51,186,-21,207,-82
,578,2023-10-27 11:43:55.58,274,-1156,-1741,-82,105,53,171,-8,179,-81
,579,2023-10-27 11:43:55.59,292,-1156,-1716,-70,92,37,176,-37,213,-69
,580,2023-10-27 11:43:55.60,257,-1095,-1743,-67,58,21,170,-13,183,-78
,581,2023-10-27 11:43:55.61,275,-1082,-1743,-77,45,9,186,-26,212,-80
,582,2023-10-27 11:43:55.62,266,-1072,-1729,-97,37,-6,177,-4,181,-86
,583,2023-10-27 11:43:55.63,291,-1040,-1700,-125,44,-20,194,-12,206,-91
,584,2023-10-27 11:43:55.64,306,-1051,-1688,-172,68,-22,176,6,170,-91
,585,2023-10-27 11:43:55.65,295,-1075,-1736,-241,97,-14,208,2,206,-105
,586,2023-10-27 11:43:55.66,343,-961,-1801,-299,126,3,193,14,179,-103
,587,2023-10-27 11:43:55.67,293,-1131,-1779,-328,113,14,243,31,212,-137
,588,2023-10-27 11:43:55.68,310,-1154,-1781,-325,71,26,208,32,176,-120
,589,2023-10-27 11:43:55.69,306,-1070,-1804,-310,22,47,246,33,213,-139
,590,2023-10-27 11:43:55.70,294,-1057,-1764,-280,-34,45,203,28,175,-115
,591,2023-10-27 11:43:55.71,315,-1040,-1767,-287,-72,54,252,33,219,-142
,592,2023-10-27 11:43:55.72,303,-1041,-1757,-329,-60,54,212,27,185,-119
,593,2023-10-27 11:43:55.73,308,-1037,-1788,-366,-67,66,272,42,230,-157
,594,2023-10-27 11:43:55.74,308,-1021,-1798,-394,-55,72,211,23,188,-117
,595,2023-10-27 11:43:55.75,308,-1036,-1796,-425,-62,82,250,25,225,-137
,596,2023-10-27 11:43:55.76,287,-1038,-1820,-446,-78,84,180,-5,185,-87
,597,2023-10-27 11:43:55.77,304,-1032,-1826,-461,-105,85,213,-4,217,-104
,598,2023-10-27 11:43:55.78,288,-1026,-1833,-481,-119,95,144,-34,178,-55
,599,2023-10-27 11:43:55.79,294,-1020,-1818,-498,-160,101,190,-22,212,-84
,600,2023-10-27 11:43:55.80,298,-994,-1837,-525,-172,105,138,-40,178,-49
,601,2023-10-27 11:43:55.81,292,-987,-1832,-550,-154,106,202,-15,217,-93
,602,2023-10-27 11:43:55.82,278,-994,-1831,-580,-188,106,138,-34,172,-52
,603,2023-10-27 11:43:55.83,274,-971,-1847,-615,-175,117,216,14,202,-115
,604,2023-10-27 11:43:55.84,287,-985,-1864,-643,-202,128,157,-11,168,-73
,605,2023-10-27 11:43:55.85,250,-984,-1890,-653,-235,141,242,38,204,-140
,606,2023-10-27 11:43:55.86,272,-967,-1903,-671,-255,152,174,8,166,-91
,607,2023-10-27 11:43:55.87,257,-930,-1924,-697,-261,153,272,79,193,-175
,608,2023-10-27 11:43:55.88,249,-929,-1886,-733,-265,155,187,33,154,-110
,609,2023-10-27 11:43:55.89,245,-887,-1903,-770,-280,161,284,89,195,-186
,610,2023-10-27 11:43:55.90,253,-885,-1921,-809,-294,180,199,40,159,-119
,611,2023-10-27 11:43:55.91,222,-855,-1923,-819,-314,194,284,93,191,-188
,612,2023-10-27 11:43:55.92,230,-850,-1889,-816,-346,215,181,31,150,-106
,613,2023-10-27 11:43:55.93,213,-836,-1922,-819,-361,223,274,91,183,-182
,614,2023-10-27 11:43:55.94,180,-815,-1925,-831,-356,235,176,25,151,-100
,615,2023-10-27 11:43:55.95,198,-797,-1887,-860,-332,241,284,91,193,-187
,616,2023-10-27 11:43:55.96,156,-764,-1927,-877,-314,244,178,15,163,-96
,617,2023-10-27 11:43:55.97,149,-718,-1951,-874,-332,249,288,89,199,-188
,618,2023-10-27 11:43:55.98,143,-700,-1947,-886,-322,251,169,14,155,-91
,619,2023-10-27 11:43:55.99,92,-679,-1960,-875,-324,256,283,93,190,-188
,620,2023-10-27 11:43:56.00,105,-637,-1967,-864,-387,258,182,33,149,-107
,621,2023-10-27 11:43:56.01,109,-592,-1959,-856,-419,267,310,122,188,-216
,622,2023-10-27 11:43:56.02,102,-571,-1922,-862,-409,272,197,46,151,-121
,623,2023-10-27 11:43:56.03,88,-570,-1912,-879,-379,269,323,137,186,-230
,624,2023-10-27 11:43:56.04,86,-568,-1927,-893,-349,263,199,51,148,-125
,625,2023-10-27 11:43:56.05,78,-583,-1925,-892,-339,251,318,132,186,-225
,626,2023-10-27 11:43:56.06,71,-569,-1927,-877,-334,253,204,50,154,-127
,627,2023-10-27 11:43:56.07,46,-531,-1957,-850,-334,257,341,149,192,-245
,628,2023-10-27 11:43:56.08,38,-491,-1971,-837,-343,252,217,60,157,-138
,629,2023-10-27 11:43:56.09,35,-435,-1971,-840,-332,243,364,159,205,-261
,630,2023-10-27 11:43:56.10,25,-408,-1999,-843,-315,226,234,66,168,-150
,631,2023-10-27 11:43:56.11,12,-381,-1997,-852,-302,211,374,168,206,-271
,632,2023-10-27 11:43:56.12,6,-362,-1982,-856,-288,199,240,68,172,-154
,633,2023-10-27 11:43:56.13,1,-355,-2008,-852,-281,182,382,169,213,-275
,634,2023-10-27 11:43:56.14,-21,-329,-2043,-853,-274,162,233,62,171,-147
,635,2023-10-27 11:43:56.15,-38,-315,-2045,-857,-289,135,372,157,215,-264
,636,2023-10-27 11:43:56.16,-20,-279,-2034,-869,-291,120,231,48,183,-139
,637,2023-10-27 11:43:56.17,-45,-226,-2050,-875,-285,91,378,155,223,-266
,638,2023-10-27 11:43:56.18,-31,-191,-2032,-883,-287,55,235,48,187,-141
,639,2023-10-27 11:43:56.19,-48,-153,-2031,-889,-284,17,381,160,221,-270
,640,2023-10-27 11:43:56.20,-56,-123,-2029,-884,-299,-30,236,57,179,-146
,641,2023-10-27 11:43:56.21,-56,-106,-2017,-891,-326,-70,376,166,210,-271
,642,2023-10-27 11:43:56.22,-89,-73,-2055,-892,-340,-108,212,41,171,-126
,643,2023-10-27 11:43:56.23,-83,-47,-2054,-896,-344,-151,348,146,202,-247
,644,2023-10-27 11:43:56.24,-100,-31,-2054,-905,-346,-187,194,30,164,-112
,645,2023-10-27 11:43:56.25,-113,-38,-2065,-920,-360,-224,346,146,200,-246
,646,2023-10-27 11:43:56.26,-111,-30,-2077,-922,-363,-265,198,31,167,-114
,647,2023-10-27 11:43:56.27,-124,-27,-2080,-929,-373,-286,328,144,184,-236
,648,2023-10-27 11:43:56.28,-131,-28,-2094,-930,-403,-315,174,25,149,-99
,649,2023-10-27 11:43:56.29,-158,-10,-2114,-933,-416,-335,318,138,180,-228
,650,2023-10-27 11:43:56.30,-139,14,-2097,-939,-454,-355,170,24,146,-97
,651,2023-10-27 11:43:56.31,-171,25,-2097,-937,-494,-373,315,146,169,-230
,652,2023-10-27 11:43:56.32,-159,33,-2099,-934,-537,-388,163,30,133,-96
,653,2023-10-27 11:43:56.33,-197,48,-2082,-930,-546,-406,312,158,154,-235
,654,2023-10-27 11:43:56.34,-217,70,-2076,-951,-557,-416,159,35,124,-97
,655,2023-10-27 11:43:56.35,-207,89,-2052,-982,-562,-410,312,173,139,-242
,656,2023-10-27 11:43:56.36,-226,80,-2004,-1000,-532,-405,170,61,109,-115
,657,2023-10-27 11:43:56.37,-245,90,-1966,-974,-495,-400,306,181,125,-243
,658,2023-10-27 11:43:56.38,-254,97,-1929,-924,-441,-403,173,75,98,-124
,659,2023-10-27 11:43:56.39,-256,107,-1926,-866,-412,-413,340,221,119,-280
,660,2023-10-27 11:43:56.40,-285,86,-1919,-804,-345,-429,203,107,96,-155
,661,2023-10-27 11:43:56.41,-291,73,-1940,-738,-300,-435,364,255,109,-309
,662,2023-10-27 11:43:56.42,-300,75,-1950,-663,-287,-442,221,132,89,-176
,663,2023-10-27 11:43:56.43,-295,70,-1949,-574,-299,-438,381,278,103,-329
,664,2023-10-27 11:43:56.44,-341,110,-1965,-457,-310,-450,237,142,95,-189
,665,2023-10-27 11:43:56.45,-326,122,-1933,-349,-296,-457,398,267,131,-332
,666,2023-10-27 11:43:56.46,-348,121,-1954,-264,-276,-468,260,129,131,-194
,667,2023-10-27 11:43:56.47,-350,137,-1994,-194,-234,-472,419,259,160,-339
,668,2023-10-27 11:43:56.48,-356,150,-2008,-133,-191,-470,282,128,154,-205
,669,2023-10-27 11:43:56.49,-361,155,-2019,-82,-168,-473,441,271,170,-356
,670,2023-10-27 11:43:56.50,-367,152,-2019,-33,-132,-470,285,126,159,-205
,671,2023-10-27 11:43:56.51,-372,146,-2035,2,-102,-476,424,247,177,-335
,672,2023-10-27 11:43:56.52,-345,126,-2025,29,-78,-480,273,112,161,-192
,673,2023-10-27 11:43:56.53,-334,109,-2023,53,-52,-470,412,236,176,-324
,674,2023-10-27 11:43:56.54,-320,113,-2034,77,-52,-467,268,105,163,-186
,675,2023-10-27 11:43:56.55,-317,103,-2022,91,-24,-452,415,235,180,-325
,676,2023-10-27 11:43:56.56,-305,63,-2005,100,1,-435,268,96,172,-182
,677,2023-10-27 11:43:56.57,-304,53,-1997,123,37,-428,402,217,185,-309
,678,2023-10-27 11:43:56.58,-295,47,-1982,144,48,-424,264,89,175,-176
,679,2023-10-27 11:43:56.59,-294,40,-2004,152,45,-408,395,217,178,-306
,680,2023-10-27 11:43:56.60,-295,39,-1998,146,49,-390,266,96,170,-181
,681,2023-10-27 11:43:56.61,-285,53,-1976,139,58,-383,404,220,184,-312
,682,2023-10-27 11:43:56.62,-268,54,-1965,125,83,-369,261,75,186,-168
,683,2023-10-27 11:43:56.63,-266,44,-1978,114,107,-350,377,182,195,-279
,684,2023-10-27 11:43:56.64,-276,20,-1987,101,122,-337,258,71,187,-164
,685,2023-10-27 11:43:56.65,-263,23,-1990,94,127,-314,390,202,188,-296
,686,2023-10-27 11:43:56.66,-250,10,-1983,87,138,-300,259,67,192,-163
,687,2023-10-27 11:43:56.67,-248,2,-1991,75,147,-285,375,172,203,-273
,688,2023-10-27 11:43:56.68,-256,14,-2014,63,147,-267,244,48,196,-146
,689,2023-10-27 11:43:56.69,-259,15,-2022,47,140,-252,365,168,197,-266
,690,2023-10-27 11:43:56.70,-255,49,-2031,32,134,-233,237,41,196,-139
,691,2023-10-27 11:43:56.71,-245,57,-2043,6,128,-219,346,155,191,-250
,692,2023-10-27 11:43:56.72,-246,69,-2037,-23,132,-210,221,38,183,-129
,693,2023-10-27 11:43:56.73,-237,69,-2032,-47,151,-203,330,153,177,-241
,694,2023-10-27 11:43:56.74,-228,73,-2052,-68,155,-198,218,34,184,-126
,695,2023-10-27 11:43:56.75,-230,63,-2044,-86,163,-192,309,126,183,-217
,696,2023-10-27 11:43:56.76,-223,61,-2042,-100,169,-185,200,25,175,-112
,697,2023-10-27 11:43:56.77,-227,62,-2032,-113,172,-182,300,131,169,-215
,698,2023-10-27 11:43:56.78,-222,59,-2030,-126,170,-179,193,19,174,-106
,699,2023-10-27 11:43:56.79,-222,67,-2047,-135,182,-174,285,113,172,-199
,700,2023-10-27 11:43:56.80,-221,71,-2044,-139,176,-168,188,1,187,-94
,701,2023-10-27 11:43:56.81,-213,67,-2046,-141,177,-170,275,96,179,-185
,702,2023-10-27 11:43:56.82,-200,68,-2047,-142,185,-167,176,-13,189,-81
,703,2023-10-27 11:43:56.83,-196,78,-2046,-139,186,-169,267,83,184,-175
,704,2023-10-27 11:43:56.84,-178,72,-2045,-129,193,-176,160,-27,187,-66
,705,2023-10-27 11:43:56.85,-174,71,-2040,-112,190,-181,235,55,180,-145
,706,2023-10-27 11:43:56.86,-161,73,-2032,-103,208,-188,139,-62,201,-38
,707,2023-10-27 11:43:56.87,-159,84,-2025,-102,227,-193,212,18,194,-115
,708,2023-10-27 11:43:56.88,-138,84,-2036,-111,224,-199,121,-92,213,-14
,709,2023-10-27 11:43:56.89,-150,102,-2032,-112,228,-202,202,-8,210,-97
,710,2023-10-27 11:43:56.90,-127,105,-2035,-115,242,-200,116,-103,219,-6
,711,2023-10-27 11:43:56.91,-128,92,-2037,-110,235,-206,190,-22,212,-84
,712,2023-10-27 11:43:56.92,-147,105,-2048,-108,241,-206,118,-105,223,-6
,713,2023-10-27 11:43:56.93,-152,97,-2061,-125,214,-203,187,-17,204,-85
,714,2023-10-27 11:43:56.94,-114,94,-2068,-152,199,-201,117,-110,227,-3
,715,2023-10-27 11:43:56.95,-203,113,-2072,-109,195,-196,180,-33,213,-73
,716,2023-10-27 11:43:56.96,-142,177,-1963,-69,195,-206,136,-94,230,-21
,717,2023-10-27 11:43:56.97,-179,94,-2059,-144,135,-201,208,0,208,-104
,718,2023-10-27 11:43:56.98,-162,174,-2114,-254,68,-194,140,-67,207,-36
,719,2023-10-27 11:43:56.99,-183,286,-2107,-249,33,-206,189,14,175,-101
,720,2023-10-27 11:43:57.00,-170,247,-2052,-197,34,-226,138,-48,186,-45
,721,2023-10-27 11:43:57.01,-211,167,-2065,-206,20,-237,195,28,167,-111
,722,2023-10-27 11:43:57.02,-202,170,-2083,-255,-14,-252,166,-17,183,-74
,723,2023-10-27 11:43:57.03,-202,196,-2072,-294,-67,-247,210,54,156,-132
,724,2023-10-27 11:43:57.04,-218,214,-2070,-300,-101,-246,166,1,165,-83
,725,2023-10-27 11:43:57.05,-225,213,-2048,-314,-125,-256,210,66,144,-138
,726,2023-10-27 11:43:57.06,-228,223,-2043,-350,-145,-249,182,34,148,-108
,727,2023-10-27 11:43:57.07,-223,238,-2036,-385,-154,-240,224,92,132,-158
,728,2023-10-27 11:43:57.08,-252,240,-2053,-394,-163,-228,224,63,161,-143
,729,2023-10-27 11:43:57.09,-235,253,-2020,-387,-176,-235,262,119,143,-190
,730,2023-10-27 11:43:57.10,-245,257,-2013,-369,-184,-238,278,102,176,-190
,731,2023-10-27 11:43:57.11,-250,265,-2014,-354,-190,-248,304,143,161,-223
,732,2023-10-27 11:43:57.12,-256,301,-2013,-334,-205,-264,315,107,208,-211
,733,2023-10-27 11:43:57.13,-267,322,-2018,-296,-213,-307,317,127,190,-222
,734,2023-10-27 11:43:57.14,-294,362,-2014,-261,-232,-356,312,84,228,-198
,735,2023-10-27 11:43:57.15,-266,380,-2006,-258,-229,-396,292,99,193,-195
,736,2023-10-27 11:43:57.16,-273,392,-2002,-277,-204,-418,274,40,234,-157
,737,2023-10-27 11:43:57.17,-273,415,-2012,-307,-149,-446,264,63,201,-163
,738,2023-10-27 11:43:57.18,-270,404,-2012,-344,-100,-467,248,17,231,-132
,739,2023-10-27 11:43:57.19,-265,394,-2005,-381,-62,-501,230,39,191,-134
,740,2023-10-27 11:43:57.20,-268,390,-2008,-411,-48,-530,219,16,203,-117
,741,2023-10-27 11:43:57.21,-272,402,-2016,-434,-49,-555,192,28,164,-110
,742,2023-10-27 11:43:57.22,-268,406,-2023,-452,-59,-580,183,-5,188,-89
,743,2023-10-27 11:43:57.23,-273,413,-2029,-472,-75,-601,172,-2,174,-85
,744,2023-10-27 11:43:57.24,-271,423,-2016,-505,-74,-619,170,-36,206,-67
,745,2023-10-27 11:43:57.25,-284,418,-2008,-549,-73,-631,153,-24,177,-64
,746,2023-10-27 11:43:57.26,-279,400,-2029,-589,-71,-634,165,-40,205,-62
,747,2023-10-27 11:43:57.27,-277,387,-2009,-617,-76,-636,141,-18,159,-61
,748,2023-10-27 11:43:57.28,-260,372,-2000,-625,-78,-643,154,-22,176,-66
,749,2023-10-27 11:43:57.29,-247,335,-1976,-624,-77,-639,130,-16,146,-57
,750,2023-10-27 11:43:57.30,-243,331,-1975,-602,-81,-637,156,-28,184,-64
,751,2023-10-27 11:43:57.31,-240,340,-1968,-550,-75,-619,131,-22,153,-54
,752,2023-10-27 11:43:57.32,-257,326,-1962,-479,-84,-622,171,-9,180,-81
,753,2023-10-27 11:43:57.33,-245,323,-1951,-402,-79,-613,147,4,143,-75
,754,2023-10-27 11:43:57.34,-269,317,-1975,-336,-81,-599,182,21,161,-101
,755,2023-10-27 11:43:57.35,-264,335,-1978,-262,-69,-589,145,19,126,-82
,756,2023-10-27 11:43:57.36,-260,328,-1994,-191,-70,-570,195,39,156,-117
,757,2023-10-27 11:43:57.37,-296,363,-1982,-130,-66,-556,146,24,122,-85
,758,2023-10-27 11:43:57.38,-307,375,-2004,-103,-76,-544,193,39,154,-116
,759,2023-10-27 11:43:57.39,-320,407,-2021,-89,-87,-526,147,18,129,-82
,760,2023-10-27 11:43:57.40,-306,433,-2014,-66,-83,-504,201,44,157,-122
,761,2023-10-27 11:43:57.41,-338,440,-2025,-30,-74,-483,147,22,125,-84
,762,2023-10-27 11:43:57.42,-339,472,-2001,4,-54,-467,208,55,153,-131
,763,2023-10-27 11:43:57.43,-336,437,-1977,1,-63,-447,144,26,118,-85
,764,2023-10-27 11:43:57.44,-354,426,-1995,-13,-59,-425,199,51,148,-125
,765,2023-10-27 11:43:57.45,-345,423,-1968,-12,-71,-406,137,15,122,-76
,766,2023-10-27 11:43:57.46,-347,404,-1952,5,-64,-382,212,55,157,-133
,767,2023-10-27 11:43:57.47,-366,378,-1951,26,-50,-348,142,14,128,-78
,768,2023-10-27 11:43:57.48,-373,394,-1927,35,-55,-337,218,57,161,-137
,769,2023-10-27 11:43:57.49,-355,377,-1924,32,-66,-298,144,15,129,-79
,770,2023-10-27 11:43:57.50,-371,404,-1916,46,-55,-282,217,50,167,-133
,771,2023-10-27 11:43:57.51,-356,412,-1883,63,-36,-263,140,7,133,-73
,772,2023-10-27 11:43:57.52,-397,410,-1906,72,-16,-241,224,50,174,-137
,773,2023-10-27 11:43:57.53,-396,395,-1922,77,-1,-227,142,4,138,-73
,774,2023-10-27 11:43:57.54,-390,387,-1923,82,13,-201,243,64,179,-153
,775,2023-10-27 11:43:57.55,-398,379,-1928,94,6,-176,152,7,145,-79
,776,2023-10-27 11:43:57.56,-403,354,-1933,107,9,-151,241,69,172,-155
,777,2023-10-27 11:43:57.57,-417,360,-1939,109,8,-119,136,0,136,-68
,778,2023-10-27 11:43:57.58,-411,369,-1948,113,18,-92,245,64,181,-154
,779,2023-10-27 11:43:57.59,-401,362,-1963,115,22,-65,145,9,136,-77
,780,2023-10-27 11:43:57.60,-419,366,-1977,115,11,-41,247,85,162,-166
,781,2023-10-27 11:43:57.61,-424,371,-1980,119,2,-23,144,7,137,-75
,782,2023-10-27 11:43:57.62,-414,377,-1988,126,-9,4,255,79,176,-167
,783,2023-10-27 11:43:57.63,-430,367,-2003,125,-28,23,145,8,137,-76
,784,2023-10-27 11:43:57.64,-426,369,-1988,118,-20,39,255,87,168,-171
,785,2023-10-27 11:43:57.65,-424,378,-1988,101,-36,67,133,7,126,-70
,786,2023-10-27 11:43:57.66,-418,389,-1982,98,-30,81,246,78,168,-162
,787,2023-10-27 11:43:57.67,-415,391,-1963,95,-28,81,136,-10,146,-63
,788,2023-10-27 11:43:57.68,-401,389,-1954,91,-10,81,254,76,178,-165
,789,2023-10-27 11:43:57.69,-391,380,-1942,90,2,83,138,0,138,-69
,790,2023-10-27 11:43:57.70,-388,376,-1929,93,29,80,262,92,170,-177
,791,2023-10-27 11:43:57.71,-375,372,-1926,104,40,72,140,1,139,-70
,792,2023-10-27 11:43:57.72,-385,355,-1942,117,63,64,261,90,171,-175
,793,2023-10-27 11:43:57.73,-382,354,-1947,134,65,61,133,-8,141,-62
,794,2023-10-27 11:43:57.74,-384,349,-1959,150,70,57,267,86,181,-176
,795,2023-10-27 11:43:57.75,-380,339,-1970,159,72,52,143,12,131,-77
,796,2023-10-27 11:43:57.76,-366,335,-1972,168,82,49,273,121,152,-197
