// Data mode  : Full
// Data quality  : High
// Acceleration sensor's range  : 16g
// Gyroscope sensor's range  : 2000dps
//
//ARTIFACT,NUM,DATE,ACC_X,ACC_Y,ACC_Z,GYRO_X,GYRO_Y,GYRO_Z,EOG_L,EOG_R,EOG_H,EOG_V
,1,2023-10-27 12:02:53.79,8,-270,-2036,7,14,-12,-166,-320,154,243
,2,2023-10-27 12:02:53.80,13,-270,-2043,7,14,-10,-176,-328,152,252
,3,2023-10-27 12:02:53.81,2,-271,-2043,8,14,-9,-178,-333,155,255
,4,2023-10-27 12:02:53.82,-5,-275,-2044,12,8,-10,-203,-362,159,282
,5,2023-10-27 12:02:53.83,15,-272,-2039,13,1,-5,-201,-358,157,279
,6,2023-10-27 12:02:53.84,10,-277,-2041,15,1,-7,-222,-380,158,301
,7,2023-10-27 12:02:53.85,4,-277,-2043,17,-3,-7,-224,-394,170,309
,8,2023-10-27 12:02:53.86,1,-283,-2041,19,-6,0,-242,-422,180,332
,9,2023-10-27 12:02:53.87,2,-283,-2035,18,-6,6,-227,-422,195,324
,10,2023-10-27 12:02:53.88,2,-288,-2035,19,1,9,-221,-426,205,323
,11,2023-10-27 12:02:53.89,-6,-291,-2034,18,3,14,-187,-395,208,291
,12,2023-10-27 12:02:53.90,-10,-286,-2041,14,7,18,-187,-391,204,289
,13,2023-10-27 12:02:53.91,6,-283,-2036,13,8,20,-151,-356,205,253
,14,2023-10-27 12:02:53.92,1,-287,-2033,11,12,20,-161,-362,201,261
,15,2023-10-27 12:02:53.93,5,-279,-2034,10,16,23,-131,-329,198,230
,16,2023-10-27 12:02:53.94,-3,-278,-2040,11,18,21,-152,-345,193,248
,17,2023-10-27 12:02:53.95,11,-275,-2041,11,17,17,-121,-310,189,215
,18,2023-10-27 12:02:53.96,-4,-275,-2036,13,22,14,-148,-329,181,238
,19,2023-10-27 12:02:53.97,-5,-272,-2039,17,13,8,-116,-292,176,204
,20,2023-10-27 12:02:53.98,-2,-275,-2036,18,6,7,-143,-321,178,232
,21,2023-10-27 12:02:53.99,1,-273,-2041,18,5,4,-115,-285,170,200
,22,2023-10-27 12:02:54.00,0,-284,-2037,19,3,1,-146,-319,173,232
,23,2023-10-27 12:02:54.01,3,-281,-2039,20,-1,2,-118,-282,164,200
,24,2023-10-27 12:02:54.02,6,-281,-2040,17,-4,3,-154,-317,163,235
,25,2023-10-27 12:02:54.03,12,-276,-2038,15,-4,4,-124,-284,160,204
,26,2023-10-27 12:02:54.04,1,-288,-2038,11,1,6,-158,-324,166,241
,27,2023-10-27 12:02:54.05,0,-286,-2042,8,3,7,-123,-284,161,203
,28,2023-10-27 12:02:54.06,-5,-280,-2049,4,6,13,-162,-327,165,244
,29,2023-10-27 12:02:54.07,5,-275,-2049,6,-4,12,-122,-283,161,202
,30,2023-10-27 12:02:54.08,-4,-270,-2047,8,-7,12,-163,-325,162,244
,31,2023-10-27 12:02:54.09,-13,-277,-2044,13,-10,15,-123,-282,159,202
,32,2023-10-27 12:02:54.10,-11,-265,-2032,15,-11,18,-165,-328,163,246
,33,2023-10-27 12:02:54.11,-2,-271,-2029,17,-8,20,-127,-284,157,205
,34,2023-10-27 12:02:54.12,3,-268,-2029,21,-1,20,-173,-336,163,254
,35,2023-10-27 12:02:54.13,-2,-265,-2028,26,5,18,-128,-287,159,207
,36,2023-10-27 12:02:54.14,-11,-269,-2024,27,11,16,-177,-332,155,254
,37,2023-10-27 12:02:54.15,2,-270,-2033,29,15,18,-127,-283,156,205
,38,2023-10-27 12:02:54.16,1,-278,-2037,33,22,21,-174,-336,162,255
,39,2023-10-27 12:02:54.17,-2,-283,-2035,34,22,20,-122,-280,158,201
,40,2023-10-27 12:02:54.18,3,-287,-2038,34,23,20,-178,-339,161,258
,41,2023-10-27 12:02:54.19,-3,-285,-2039,35,24,23,-124,-283,159,203
,42,2023-10-27 12:02:54.20,13,-288,-2040,33,26,23,-180,-342,162,261
,43,2023-10-27 12:02:54.21,17,-286,-2040,30,27,20,-122,-279,157,200
,44,2023-10-27 12:02:54.22,9,-281,-2049,27,28,18,-174,-341,167,257
,45,2023-10-27 12:02:54.23,7,-293,-2041,25,22,18,-122,-282,160,202
,46,2023-10-27 12:02:54.24,6,-297,-2040,25,20,18,-178,-344,166,261
,47,2023-10-27 12:02:54.25,16,-293,-2040,23,16,13,-124,-281,157,202
,48,2023-10-27 12:02:54.26,9,-302,-2039,23,10,12,-178,-342,164,260
,49,2023-10-27 12:02:54.27,20,-302,-2034,18,6,9,-122,-281,159,201
,50,2023-10-27 12:02:54.28,13,-298,-2040,17,6,8,-180,-348,168,264
,51,2023-10-27 12:02:54.29,6,-304,-2040,11,8,7,-127,-284,157,205
,52,2023-10-27 12:02:54.30,6,-301,-2045,5,7,6,-185,-349,164,267
,53,2023-10-27 12:02:54.31,3,-296,-2048,2,2,7,-127,-285,158,206
,54,2023-10-27 12:02:54.32,16,-298,-2048,-1,-1,11,-186,-349,163,267
,55,2023-10-27 12:02:54.33,8,-291,-2043,-8,-6,11,-127,-285,158,206
,56,2023-10-27 12:02:54.34,3,-285,-2044,-10,-6,15,-189,-353,164,271
,57,2023-10-27 12:02:54.35,2,-280,-2039,-11,-5,16,-129,-288,159,208
,58,2023-10-27 12:02:54.36,7,-279,-2034,-13,-10,16,-192,-359,167,275
,59,2023-10-27 12:02:54.37,4,-271,-2037,-11,-4,17,-132,-288,156,210
,60,2023-10-27 12:02:54.38,13,-274,-2027,-13,-3,18,-201,-361,160,281
,61,2023-10-27 12:02:54.39,9,-277,-2032,-11,-4,17,-144,-299,155,221
,62,2023-10-27 12:02:54.40,-2,-278,-2033,-8,-4,16,-224,-387,163,305
,63,2023-10-27 12:02:54.41,-2,-280,-2040,-4,-4,18,-169,-331,162,250
,64,2023-10-27 12:02:54.42,8,-277,-2042,1,-6,20,-248,-422,174,335
,65,2023-10-27 12:02:54.43,-1,-274,-2035,7,-2,20,-191,-360,169,275
,66,2023-10-27 12:02:54.44,4,-283,-2034,10,-5,20,-272,-448,176,360
,67,2023-10-27 12:02:54.45,0,-283,-2040,13,-4,22,-206,-380,174,293
,68,2023-10-27 12:02:54.46,-6,-286,-2034,18,-3,23,-264,-446,182,355
,69,2023-10-27 12:02:54.47,9,-291,-2035,17,-4,25,-177,-354,177,265
,70,2023-10-27 12:02:54.48,10,-282,-2035,18,-1,27,-222,-407,185,314
,71,2023-10-27 12:02:54.49,-4,-284,-2032,16,8,28,-139,-315,176,227
,72,2023-10-27 12:02:54.50,6,-283,-2035,18,6,28,-194,-373,179,283
,73,2023-10-27 12:02:54.51,2,-279,-2041,18,10,25,-120,-288,168,204
,74,2023-10-27 12:02:54.52,8,-289,-2042,14,6,24,-177,-352,175,264
,75,2023-10-27 12:02:54.53,4,-279,-2040,12,9,21,-108,-269,161,188
,76,2023-10-27 12:02:54.54,8,-287,-2038,13,3,19,-174,-340,166,257
,77,2023-10-27 12:02:54.55,6,-285,-2039,11,6,19,-111,-263,152,187
,78,2023-10-27 12:02:54.56,-3,-288,-2040,11,1,19,-172,-339,167,255
,79,2023-10-27 12:02:54.57,11,-285,-2039,9,-2,12,-98,-261,163,179
,80,2023-10-27 12:02:54.58,16,-289,-2037,6,-2,12,-165,-333,168,249
,81,2023-10-27 12:02:54.59,7,-284,-2030,6,-1,13,-99,-259,160,179
,82,2023-10-27 12:02:54.60,7,-287,-2041,3,-4,10,-170,-335,165,252
,83,2023-10-27 12:02:54.61,1,-287,-2043,1,-6,7,-102,-262,160,182
,84,2023-10-27 12:02:54.62,12,-278,-2047,-2,-6,10,-169,-333,164,251
,85,2023-10-27 12:02:54.63,3,-282,-2050,-4,-13,10,-97,-255,158,176
,86,2023-10-27 12:02:54.64,8,-275,-2044,-12,0,14,-173,-334,161,253
,87,2023-10-27 12:02:54.65,5,-283,-2047,-14,-6,11,-102,-260,158,181
,88,2023-10-27 12:02:54.66,-1,-281,-2047,-15,-12,15,-180,-342,162,261
,89,2023-10-27 12:02:54.67,-4,-289,-2033,-10,-17,18,-101,-262,161,181
,90,2023-10-27 12:02:54.68,3,-281,-2038,-9,-20,23,-180,-342,162,261
,91,2023-10-27 12:02:54.69,-4,-275,-2044,-12,-15,26,-107,-262,155,184
,92,2023-10-27 12:02:54.70,-6,-263,-2038,-16,-3,25,-181,-343,162,262
,93,2023-10-27 12:02:54.71,-5,-273,-2045,-12,1,28,-108,-267,159,187
,94,2023-10-27 12:02:54.72,-13,-271,-2044,-2,-7,26,-182,-343,161,262
,95,2023-10-27 12:02:54.73,-2,-271,-2039,14,-14,26,-107,-262,155,184
,96,2023-10-27 12:02:54.74,-13,-259,-2039,21,-17,23,-181,-343,162,262
,97,2023-10-27 12:02:54.75,-1,-261,-2041,20,-7,21,-110,-265,155,187
,98,2023-10-27 12:02:54.76,-15,-256,-2043,24,5,19,-185,-346,161,265
,99,2023-10-27 12:02:54.77,-3,-263,-2032,34,5,14,-110,-266,156,188
,100,2023-10-27 12:02:54.78,0,-252,-2038,42,5,13,-184,-345,161,264
,101,2023-10-27 12:02:54.79,8,-254,-2040,58,2,10,-112,-264,152,188
,102,2023-10-27 12:02:54.80,9,-244,-2040,64,9,6,-182,-343,161,262
,103,2023-10-27 12:02:54.81,18,-242,-2051,69,19,3,-113,-265,152,189
,104,2023-10-27 12:02:54.82,15,-251,-2059,76,23,4,-187,-346,159,266
,105,2023-10-27 12:02:54.83,26,-251,-2061,90,19,5,-119,-269,150,194
,106,2023-10-27 12:02:54.84,26,-257,-2067,106,10,5,-189,-348,159,268
,107,2023-10-27 12:02:54.85,27,-261,-2066,131,-2,13,-118,-269,151,193
,108,2023-10-27 12:02:54.86,12,-259,-2068,151,-10,15,-189,-348,159,268
,109,2023-10-27 12:02:54.87,14,-268,-2063,168,-9,18,-118,-270,152,194
,110,2023-10-27 12:02:54.88,18,-272,-2048,186,-1,23,-185,-348,163,266
,111,2023-10-27 12:02:54.89,22,-298,-2040,209,-5,28,-121,-270,149,195
,112,2023-10-27 12:02:54.90,9,-301,-2036,231,3,32,-189,-346,157,267
,113,2023-10-27 12:02:54.91,12,-309,-2023,246,12,37,-125,-272,147,198
,114,2023-10-27 12:02:54.92,-16,-321,-2015,259,12,36,-194,-348,154,271
,115,2023-10-27 12:02:54.93,-7,-322,-2018,273,26,45,-126,-275,149,200
,116,2023-10-27 12:02:54.94,5,-338,-1986,287,43,42,-193,-350,157,271
,117,2023-10-27 12:02:54.95,-22,-339,-1956,315,73,39,-131,-277,146,204
,118,2023-10-27 12:02:54.96,-22,-332,-1975,357,94,27,-200,-351,151,275
,119,2023-10-27 12:02:54.97,-19,-294,-1991,400,114,17,-133,-277,144,205
,120,2023-10-27 12:02:54.98,-22,-275,-2002,419,148,3,-194,-344,150,269
,121,2023-10-27 12:02:54.99,-20,-288,-2005,432,174,-18,-129,-272,143,200
,122,2023-10-27 12:02:55.00,-31,-302,-2015,452,164,-43,-191,-343,152,267
,123,2023-10-27 12:02:55.01,-23,-316,-2010,472,151,-60,-136,-276,140,206
,124,2023-10-27 12:02:55.02,-13,-352,-1983,492,158,-78,-197,-346,149,271
,125,2023-10-27 12:02:55.03,-20,-375,-1963,511,171,-93,-134,-274,140,204
,126,2023-10-27 12:02:55.04,1,-388,-1953,564,215,-112,-184,-339,155,261
,127,2023-10-27 12:02:55.05,1,-402,-1950,581,246,-128,-135,-284,149,209
,128,2023-10-27 12:02:55.06,12,-412,-1972,598,257,-137,-186,-340,154,263
,129,2023-10-27 12:02:55.07,1,-417,-1985,607,271,-142,-137,-282,145,209
,130,2023-10-27 12:02:55.08,25,-457,-1977,625,285,-149,-192,-352,160,272
,131,2023-10-27 12:02:55.09,27,-465,-1976,648,301,-155,-146,-297,151,221
,132,2023-10-27 12:02:55.10,28,-488,-1984,667,307,-169,-200,-362,162,281
,133,2023-10-27 12:02:55.11,59,-507,-1983,696,314,-176,-152,-305,153,228
,134,2023-10-27 12:02:55.12,63,-490,-1955,716,323,-192,-212,-374,162,293
,135,2023-10-27 12:02:55.13,74,-485,-1956,745,329,-211,-164,-320,156,242
,136,2023-10-27 12:02:55.14,67,-475,-1971,768,345,-233,-220,-385,165,302
,137,2023-10-27 12:02:55.15,92,-496,-1959,781,332,-260,-179,-336,157,257
,138,2023-10-27 12:02:55.16,93,-533,-1971,791,334,-286,-242,-405,163,323
,139,2023-10-27 12:02:55.17,107,-571,-1945,804,360,-305,-201,-360,159,280
,140,2023-10-27 12:02:55.18,141,-602,-1906,810,368,-329,-272,-444,172,358
,141,2023-10-27 12:02:55.19,153,-632,-1885,827,377,-342,-235,-407,172,321
,142,2023-10-27 12:02:55.20,166,-661,-1868,840,409,-354,-316,-491,175,403
,143,2023-10-27 12:02:55.21,180,-703,-1865,861,409,-357,-262,-437,175,349
,144,2023-10-27 12:02:55.22,193,-733,-1879,885,397,-347,-308,-485,177,396
,145,2023-10-27 12:02:55.23,203,-773,-1866,884,420,-335,-241,-411,170,326
,146,2023-10-27 12:02:55.24,229,-790,-1875,894,422,-326,-279,-455,176,367
,147,2023-10-27 12:02:55.25,230,-805,-1857,903,431,-311,-215,-387,172,301
,148,2023-10-27 12:02:55.26,262,-804,-1875,912,426,-304,-253,-432,179,342
,149,2023-10-27 12:02:55.27,284,-855,-1832,927,439,-289,-193,-367,174,280
,150,2023-10-27 12:02:55.28,282,-836,-1773,953,454,-282,-222,-399,177,310
,151,2023-10-27 12:02:55.29,320,-854,-1790,980,429,-276,-165,-334,169,249
,152,2023-10-27 12:02:55.30,316,-871,-1847,1019,429,-266,-192,-363,171,277
,153,2023-10-27 12:02:55.31,320,-865,-1854,1044,413,-254,-144,-308,164,226
,154,2023-10-27 12:02:55.32,363,-859,-1854,1021,398,-262,-170,-343,173,256
,155,2023-10-27 12:02:55.33,338,-898,-1864,1010,398,-261,-131,-295,164,213
,156,2023-10-27 12:02:55.34,377,-890,-1872,968,392,-258,-157,-326,169,241
,157,2023-10-27 12:02:55.35,370,-946,-1852,934,395,-252,-125,-286,161,205
,158,2023-10-27 12:02:55.36,399,-1001,-1809,940,376,-243,-152,-318,166,235
,159,2023-10-27 12:02:55.37,387,-1004,-1776,946,383,-233,-132,-286,154,209
,160,2023-10-27 12:02:55.38,418,-1003,-1766,932,369,-218,-146,-313,167,229
,161,2023-10-27 12:02:55.39,375,-1038,-1786,902,391,-205,-123,-281,158,202
,162,2023-10-27 12:02:55.40,416,-1041,-1803,889,328,-187,-147,-311,164,229
,163,2023-10-27 12:02:55.41,422,-1101,-1832,861,343,-163,-132,-290,158,211
,164,2023-10-27 12:02:55.42,407,-1119,-1795,829,330,-139,-162,-320,158,241
,165,2023-10-27 12:02:55.43,446,-1116,-1788,800,302,-117,-144,-297,153,220
,166,2023-10-27 12:02:55.44,415,-1136,-1756,773,287,-96,-166,-322,156,244
,167,2023-10-27 12:02:55.45,439,-1118,-1732,761,267,-82,-149,-299,150,224
,168,2023-10-27 12:02:55.46,456,-1121,-1755,724,245,-71,-170,-325,155,247
,169,2023-10-27 12:02:55.47,456,-1167,-1762,701,235,-62,-157,-307,150,232
,170,2023-10-27 12:02:55.48,481,-1193,-1700,699,178,-58,-176,-324,148,250
,171,2023-10-27 12:02:55.49,430,-1171,-1743,666,226,-49,-160,-306,146,233
,172,2023-10-27 12:02:55.50,438,-1202,-1694,652,147,-45,-170,-314,144,242
,173,2023-10-27 12:02:55.51,433,-1237,-1669,632,146,-32,-154,-297,143,225
,174,2023-10-27 12:02:55.52,420,-1272,-1636,638,111,-22,-157,-301,144,229
,175,2023-10-27 12:02:55.53,446,-1257,-1625,621,104,-14,-145,-284,139,214
,176,2023-10-27 12:02:55.54,424,-1281,-1608,598,135,3,-150,-285,135,217
,177,2023-10-27 12:02:55.55,406,-1271,-1598,573,134,7,-134,-267,133,200
,178,2023-10-27 12:02:55.56,426,-1311,-1609,569,106,18,-123,-250,127,186
,179,2023-10-27 12:02:55.57,427,-1287,-1582,578,88,32,-103,-235,132,169
,180,2023-10-27 12:02:55.58,428,-1257,-1567,547,100,27,-95,-220,125,157
,181,2023-10-27 12:02:55.59,407,-1288,-1562,523,143,27,-96,-220,124,158
,182,2023-10-27 12:02:55.60,409,-1264,-1574,498,122,15,-93,-216,123,154
,183,2023-10-27 12:02:55.61,427,-1303,-1597,480,103,18,-99,-226,127,162
,184,2023-10-27 12:02:55.62,420,-1318,-1596,455,91,14,-99,-227,128,163
,185,2023-10-27 12:02:55.63,427,-1313,-1593,404,98,4,-108,-242,134,175
,186,2023-10-27 12:02:55.64,425,-1349,-1556,363,134,6,-109,-237,128,173
,187,2023-10-27 12:02:55.65,433,-1313,-1547,327,138,2,-116,-251,135,183
,188,2023-10-27 12:02:55.66,468,-1340,-1534,308,116,4,-116,-247,131,181
,189,2023-10-27 12:02:55.67,450,-1363,-1505,293,130,9,-129,-263,134,196
,190,2023-10-27 12:02:55.68,489,-1328,-1477,297,131,14,-120,-253,133,186
,191,2023-10-27 12:02:55.69,452,-1319,-1528,266,171,16,-129,-272,143,200
,192,2023-10-27 12:02:55.70,488,-1317,-1541,244,169,23,-120,-261,141,190
,193,2023-10-27 12:02:55.71,496,-1340,-1576,211,162,29,-135,-283,148,209
,194,2023-10-27 12:02:55.72,510,-1362,-1554,187,172,30,-133,-277,144,205
,195,2023-10-27 12:02:55.73,509,-1329,-1565,161,154,26,-151,-301,150,226
,196,2023-10-27 12:02:55.74,521,-1308,-1582,148,133,22,-143,-294,151,218
,197,2023-10-27 12:02:55.75,544,-1335,-1541,144,91,17,-151,-315,164,233
,198,2023-10-27 12:02:55.76,515,-1328,-1524,136,69,6,-148,-303,155,225
,199,2023-10-27 12:02:55.77,540,-1320,-1554,133,57,-5,-170,-330,160,250
,200,2023-10-27 12:02:55.78,567,-1317,-1563,113,47,-6,-171,-327,156,249
,201,2023-10-27 12:02:55.79,556,-1356,-1512,95,54,-2,-181,-344,163,262
,202,2023-10-27 12:02:55.80,536,-1335,-1542,95,47,-18,-165,-327,162,246
,203,2023-10-27 12:02:55.81,530,-1296,-1556,102,4,-29,-178,-344,166,261
,204,2023-10-27 12:02:55.82,535,-1293,-1539,108,-43,-40,-165,-327,162,246
,205,2023-10-27 12:02:55.83,524,-1291,-1527,87,-44,-45,-182,-351,169,266
,206,2023-10-27 12:02:55.84,534,-1344,-1513,58,-32,-41,-161,-330,169,245
,207,2023-10-27 12:02:55.85,515,-1373,-1468,51,-14,-38,-184,-355,171,269
,208,2023-10-27 12:02:55.86,512,-1368,-1465,56,14,-26,-164,-328,164,246
,209,2023-10-27 12:02:55.87,498,-1362,-1482,80,24,-13,-194,-358,164,276
,210,2023-10-27 12:02:55.88,513,-1359,-1489,87,21,-5,-164,-330,166,247
,211,2023-10-27 12:02:55.89,508,-1373,-1500,87,18,4,-194,-360,166,277
,212,2023-10-27 12:02:55.90,503,-1367,-1528,89,13,10,-158,-327,169,242
,213,2023-10-27 12:02:55.91,504,-1372,-1501,87,6,17,-192,-357,165,274
,214,2023-10-27 12:02:55.92,515,-1354,-1493,78,9,18,-160,-318,158,239
,215,2023-10-27 12:02:55.93,501,-1381,-1499,68,7,21,-198,-356,158,277
,216,2023-10-27 12:02:55.94,502,-1381,-1495,61,11,29,-158,-310,152,234
,217,2023-10-27 12:02:55.95,496,-1377,-1513,43,10,44,-216,-369,153,292
,218,2023-10-27 12:02:55.96,510,-1397,-1520,22,0,63,-202,-351,149,276
,219,2023-10-27 12:02:55.97,500,-1391,-1535,6,-7,74,-277,-431,154,354
,220,2023-10-27 12:02:55.98,512,-1358,-1558,-23,-31,82,-261,-409,148,335
,221,2023-10-27 12:02:55.99,515,-1345,-1563,-55,-66,74,-324,-478,154,401
,222,2023-10-27 12:02:56.00,519,-1331,-1559,-92,-95,60,-292,-442,150,367
,223,2023-10-27 12:02:56.01,529,-1343,-1524,-125,-104,42,-337,-497,160,417
,224,2023-10-27 12:02:56.02,515,-1329,-1483,-147,-97,18,-296,-448,152,372
,225,2023-10-27 12:02:56.03,510,-1348,-1449,-138,-83,5,-337,-497,160,417
,226,2023-10-27 12:02:56.04,509,-1328,-1439,-116,-80,-15,-288,-439,151,363
,227,2023-10-27 12:02:56.05,489,-1331,-1457,-86,-61,-24,-320,-478,158,399
,228,2023-10-27 12:02:56.06,472,-1320,-1476,-67,-42,-25,-262,-412,150,337
,229,2023-10-27 12:02:56.07,465,-1330,-1491,-39,-27,-25,-296,-452,156,374
,230,2023-10-27 12:02:56.08,470,-1313,-1509,-13,-35,-20,-235,-387,152,311
,231,2023-10-27 12:02:56.09,470,-1334,-1528,4,-28,-5,-272,-430,158,351
,232,2023-10-27 12:02:56.10,465,-1335,-1518,24,-14,13,-218,-369,151,293
,233,2023-10-27 12:02:56.11,477,-1301,-1511,43,4,17,-260,-420,160,340
,234,2023-10-27 12:02:56.12,482,-1297,-1523,56,4,26,-204,-360,156,282
,235,2023-10-27 12:02:56.13,493,-1312,-1524,69,15,32,-251,-415,164,333
,236,2023-10-27 12:02:56.14,461,-1322,-1521,87,12,33,-194,-352,158,273
,237,2023-10-27 12:02:56.15,484,-1298,-1537,93,13,36,-241,-403,162,322
,238,2023-10-27 12:02:56.16,469,-1310,-1521,102,39,42,-170,-332,162,251
,239,2023-10-27 12:02:56.17,465,-1299,-1504,111,55,40,-222,-383,161,302
,240,2023-10-27 12:02:56.18,491,-1315,-1484,129,54,49,-156,-312,156,234
,241,2023-10-27 12:02:56.19,482,-1350,-1467,163,58,65,-218,-377,159,297
,242,2023-10-27 12:02:56.20,457,-1336,-1495,196,60,80,-146,-301,155,223
,243,2023-10-27 12:02:56.21,446,-1300,-1556,218,39,75,-197,-358,161,277
,244,2023-10-27 12:02:56.22,448,-1256,-1601,225,-5,49,-129,-285,156,207
,245,2023-10-27 12:02:56.23,445,-1263,-1562,212,-28,16,-192,-354,162,273
,246,2023-10-27 12:02:56.24,448,-1249,-1518,187,-30,-21,-127,-286,159,206
,247,2023-10-27 12:02:56.25,478,-1266,-1474,157,-28,-52,-187,-352,165,269
,248,2023-10-27 12:02:56.26,480,-1285,-1470,124,-10,-80,-118,-273,155,195
,249,2023-10-27 12:02:56.27,474,-1308,-1471,93,19,-92,-179,-340,161,259
,250,2023-10-27 12:02:56.28,462,-1339,-1494,65,27,-98,-115,-267,152,191
,251,2023-10-27 12:02:56.29,461,-1353,-1527,42,20,-100,-180,-341,161,260
,252,2023-10-27 12:02:56.30,472,-1379,-1541,26,1,-86,-112,-266,154,189
,253,2023-10-27 12:02:56.31,477,-1404,-1548,10,-28,-69,-178,-339,161,258
,254,2023-10-27 12:02:56.32,484,-1416,-1533,1,-50,-53,-112,-264,152,188
,255,2023-10-27 12:02:56.33,487,-1401,-1510,-3,-66,-42,-177,-337,160,257
,256,2023-10-27 12:02:56.34,490,-1382,-1489,-4,-67,-33,-112,-262,150,187
,257,2023-10-27 12:02:56.35,520,-1384,-1459,-6,-64,-31,-177,-342,165,259
,258,2023-10-27 12:02:56.36,508,-1385,-1452,-10,-53,-32,-114,-267,153,190
,259,2023-10-27 12:02:56.37,506,-1408,-1443,-7,-41,-35,-182,-344,162,263
,260,2023-10-27 12:02:56.38,521,-1418,-1464,13,-17,-34,-117,-269,152,193
,261,2023-10-27 12:02:56.39,515,-1423,-1443,35,-5,-30,-185,-345,160,265
,262,2023-10-27 12:02:56.40,521,-1438,-1446,62,8,-27,-125,-278,153,201
,263,2023-10-27 12:02:56.41,519,-1431,-1439,85,24,-22,-208,-380,172,294
,264,2023-10-27 12:02:56.42,528,-1406,-1449,112,33,-21,-152,-318,166,235
,265,2023-10-27 12:02:56.43,535,-1396,-1452,122,46,-18,-224,-405,181,314
,266,2023-10-27 12:02:56.44,532,-1395,-1449,124,74,-19,-152,-320,168,236
,267,2023-10-27 12:02:56.45,523,-1409,-1450,123,79,-19,-206,-378,172,292
,268,2023-10-27 12:02:56.46,531,-1407,-1452,131,77,-16,-132,-291,159,211
,269,2023-10-27 12:02:56.47,534,-1414,-1439,143,67,-13,-197,-357,160,277
,270,2023-10-27 12:02:56.48,525,-1415,-1452,146,56,-10,-126,-275,149,200
,271,2023-10-27 12:02:56.49,548,-1422,-1458,138,49,2,-194,-350,156,272
,272,2023-10-27 12:02:56.50,521,-1428,-1459,129,57,10,-125,-272,147,198
,273,2023-10-27 12:02:56.51,527,-1432,-1458,107,65,20,-190,-339,149,264
,274,2023-10-27 12:02:56.52,512,-1424,-1467,90,56,27,-124,-264,140,194
,275,2023-10-27 12:02:56.53,526,-1426,-1463,66,52,34,-189,-333,144,261
,276,2023-10-27 12:02:56.54,526,-1422,-1461,40,51,36,-122,-257,135,189
,277,2023-10-27 12:02:56.55,524,-1423,-1453,18,50,40,-193,-338,145,265
,278,2023-10-27 12:02:56.56,534,-1423,-1459,-5,52,41,-127,-265,138,196
,279,2023-10-27 12:02:56.57,531,-1413,-1453,-31,52,37,-191,-351,160,271
,280,2023-10-27 12:02:56.58,543,-1400,-1457,-54,60,35,-132,-286,154,209
,281,2023-10-27 12:02:56.59,525,-1394,-1456,-70,64,35,-192,-368,176,280
,282,2023-10-27 12:02:56.60,542,-1398,-1460,-81,54,31,-131,-299,168,215
,283,2023-10-27 12:02:56.61,522,-1392,-1467,-90,46,29,-184,-363,179,273
,284,2023-10-27 12:02:56.62,528,-1401,-1490,-100,32,31,-116,-286,170,201
,285,2023-10-27 12:02:56.63,527,-1407,-1490,-98,17,38,-178,-356,178,267
,286,2023-10-27 12:02:56.64,526,-1407,-1481,-93,4,45,-112,-278,166,195
,287,2023-10-27 12:02:56.65,554,-1408,-1460,-82,-5,48,-175,-349,174,262
,288,2023-10-27 12:02:56.66,546,-1396,-1433,-62,-5,54,-115,-275,160,195
,289,2023-10-27 12:02:56.67,541,-1379,-1436,-39,-1,52,-182,-345,163,263
,290,2023-10-27 12:02:56.68,534,-1371,-1451,-21,3,55,-123,-280,157,201
,291,2023-10-27 12:02:56.69,530,-1380,-1442,-7,2,61,-194,-356,162,275
,292,2023-10-27 12:02:56.70,510,-1372,-1477,9,-7,65,-128,-281,153,204
,293,2023-10-27 12:02:56.71,514,-1377,-1486,13,-8,70,-194,-356,162,275
,294,2023-10-27 12:02:56.72,504,-1384,-1485,19,-19,77,-134,-284,150,209
,295,2023-10-27 12:02:56.73,498,-1398,-1480,27,-31,80,-202,-360,158,281
,296,2023-10-27 12:02:56.74,500,-1389,-1469,41,-38,88,-135,-292,157,213
,297,2023-10-27 12:02:56.75,493,-1375,-1478,50,-44,90,-203,-361,158,282
,298,2023-10-27 12:02:56.76,494,-1370,-1470,52,-38,100,-138,-290,152,214
,299,2023-10-27 12:02:56.77,483,-1365,-1484,35,-36,104,-202,-362,160,282
,300,2023-10-27 12:02:56.78,479,-1374,-1487,17,-28,106,-138,-291,153,214
,301,2023-10-27 12:02:56.79,471,-1373,-1502,-5,-27,112,-195,-363,168,279
,302,2023-10-27 12:02:56.80,489,-1381,-1511,-26,-32,114,-131,-290,159,210
,303,2023-10-27 12:02:56.81,480,-1405,-1500,-36,-37,121,-187,-360,173,273
,304,2023-10-27 12:02:56.82,474,-1400,-1491,-48,-40,122,-132,-292,160,212
,305,2023-10-27 12:02:56.83,488,-1379,-1485,-54,-41,127,-190,-359,169,274
,306,2023-10-27 12:02:56.84,479,-1375,-1494,-58,-43,127,-134,-291,157,212
,307,2023-10-27 12:02:56.85,469,-1372,-1481,-61,-55,122,-192,-357,165,274
,308,2023-10-27 12:02:56.86,491,-1382,-1474,-64,-52,121,-137,-292,155,214
,309,2023-10-27 12:02:56.87,496,-1378,-1442,-63,-48,118,-194,-356,162,275
,310,2023-10-27 12:02:56.88,478,-1367,-1445,-51,-24,114,-142,-298,156,220
,311,2023-10-27 12:02:56.89,483,-1363,-1453,-40,-20,105,-203,-371,168,287
,312,2023-10-27 12:02:56.90,483,-1353,-1463,-24,-17,93,-156,-316,160,236
,313,2023-10-27 12:02:56.91,473,-1361,-1470,-14,-8,89,-224,-387,163,305
,314,2023-10-27 12:02:56.92,465,-1364,-1494,-12,-4,82,-177,-336,159,256
,315,2023-10-27 12:02:56.93,472,-1380,-1502,-6,-12,79,-244,-409,165,326
,316,2023-10-27 12:02:56.94,477,-1384,-1495,-12,-26,76,-197,-355,158,276
,317,2023-10-27 12:02:56.95,465,-1393,-1490,-14,-35,69,-255,-418,163,336
,318,2023-10-27 12:02:56.96,475,-1371,-1489,-14,-35,64,-201,-357,156,279
,319,2023-10-27 12:02:56.97,467,-1366,-1488,-19,-40,57,-251,-410,159,330
,320,2023-10-27 12:02:56.98,472,-1370,-1495,-22,-39,53,-186,-341,155,263
,321,2023-10-27 12:02:56.99,461,-1369,-1504,-29,-47,45,-244,-394,150,319
,322,2023-10-27 12:02:57.00,466,-1372,-1509,-43,-57,37,-193,-338,145,265
,323,2023-10-27 12:02:57.01,471,-1365,-1512,-59,-78,29,-250,-391,141,320
,324,2023-10-27 12:02:57.02,460,-1381,-1521,-77,-89,27,-186,-323,137,254
,325,2023-10-27 12:02:57.03,461,-1395,-1519,-97,-93,23,-228,-360,132,294
,326,2023-10-27 12:02:57.04,482,-1401,-1504,-117,-86,21,-174,-303,129,238
,327,2023-10-27 12:02:57.05,462,-1409,-1471,-130,-64,18,-201,-319,118,260
,328,2023-10-27 12:02:57.06,460,-1384,-1458,-128,-55,15,-139,-257,118,198
,329,2023-10-27 12:02:57.07,448,-1364,-1458,-112,-54,18,-159,-271,112,215
,330,2023-10-27 12:02:57.08,448,-1352,-1468,-106,-43,18,-108,-218,110,163
,331,2023-10-27 12:02:57.09,442,-1351,-1493,-106,-41,19,-129,-233,104,181
,332,2023-10-27 12:02:57.10,443,-1358,-1500,-106,-43,15,-84,-192,108,138
,333,2023-10-27 12:02:57.11,441,-1358,-1494,-91,-44,17,-109,-212,103,160
,334,2023-10-27 12:02:57.12,427,-1363,-1486,-76,-39,21,-75,-187,112,131
,335,2023-10-27 12:02:57.13,438,-1335,-1473,-58,-24,14,-110,-218,108,164
,336,2023-10-27 12:02:57.14,449,-1331,-1468,-48,-15,10,-88,-205,117,146
,337,2023-10-27 12:02:57.15,429,-1340,-1476,-29,7,5,-126,-238,112,182
,338,2023-10-27 12:02:57.16,439,-1339,-1503,-19,25,5,-103,-225,122,164
,339,2023-10-27 12:02:57.17,442,-1342,-1515,-7,22,2,-139,-256,117,197
,340,2023-10-27 12:02:57.18,437,-1338,-1523,-9,18,2,-112,-236,124,174
,341,2023-10-27 12:02:57.19,441,-1353,-1537,-17,10,2,-143,-263,120,203
,342,2023-10-27 12:02:57.20,437,-1372,-1535,-17,6,6,-122,-248,126,185
,343,2023-10-27 12:02:57.21,440,-1342,-1531,-10,5,4,-151,-275,124,213
,344,2023-10-27 12:02:57.22,438,-1338,-1510,-1,6,-3,-129,-263,134,196
,345,2023-10-27 12:02:57.23,424,-1283,-1513,-7,10,-6,-161,-288,127,224
,346,2023-10-27 12:02:57.24,435,-1308,-1549,-28,0,-7,-139,-276,137,207
,347,2023-10-27 12:02:57.25,425,-1354,-1543,-25,-16,-1,-166,-298,132,232
,348,2023-10-27 12:02:57.26,433,-1337,-1543,-29,-26,1,-144,-281,137,212
,349,2023-10-27 12:02:57.27,423,-1349,-1542,-25,-28,6,-168,-302,134,235
,350,2023-10-27 12:02:57.28,427,-1334,-1517,-23,-33,0,-147,-286,139,216
,351,2023-10-27 12:02:57.29,438,-1319,-1502,-8,-16,-10,-171,-307,136,239
,352,2023-10-27 12:02:57.30,441,-1300,-1503,5,12,-26,-152,-293,141,222
,353,2023-10-27 12:02:57.31,441,-1295,-1510,13,38,-36,-174,-311,137,242
,354,2023-10-27 12:02:57.32,440,-1311,-1458,21,57,-42,-159,-297,138,228
,355,2023-10-27 12:02:57.33,432,-1317,-1475,38,96,-48,-174,-308,134,241
,356,2023-10-27 12:02:57.34,419,-1299,-1508,48,109,-51,-157,-292,135,224
,357,2023-10-27 12:02:57.35,420,-1312,-1561,50,92,-54,-168,-298,130,233
,358,2023-10-27 12:02:57.36,435,-1333,-1558,59,68,-53,-155,-284,129,219
,359,2023-10-27 12:02:57.37,439,-1326,-1550,56,55,-56,-173,-292,119,232
,360,2023-10-27 12:02:57.38,449,-1314,-1542,54,51,-56,-170,-288,118,229
,361,2023-10-27 12:02:57.39,457,-1319,-1524,61,41,-71,-172,-288,116,230
,362,2023-10-27 12:02:57.40,469,-1350,-1497,56,51,-63,-172,-288,116,230
,363,2023-10-27 12:02:57.41,484,-1368,-1485,69,67,-62,-173,-290,117,231
,364,2023-10-27 12:02:57.42,472,-1358,-1475,73,89,-58,-179,-296,117,237
,365,2023-10-27 12:02:57.43,487,-1382,-1488,79,101,-46,-171,-288,117,229
,366,2023-10-27 12:02:57.44,485,-1369,-1508,87,105,-33,-172,-295,123,233
,367,2023-10-27 12:02:57.45,479,-1364,-1528,83,100,-30,-168,-290,122,229
,368,2023-10-27 12:02:57.46,484,-1373,-1538,74,86,-26,-170,-298,128,234
,369,2023-10-27 12:02:57.47,488,-1398,-1534,70,76,-18,-164,-295,131,229
,370,2023-10-27 12:02:57.48,484,-1385,-1516,69,65,-12,-170,-302,132,236
,371,2023-10-27 12:02:57.49,494,-1375,-1505,57,63,-7,-164,-292,128,228
,372,2023-10-27 12:02:57.50,505,-1365,-1494,53,63,4,-170,-302,132,236
,373,2023-10-27 12:02:57.51,506,-1370,-1489,46,64,14,-160,-292,132,226
,374,2023-10-27 12:02:57.52,497,-1363,-1486,43,61,20,-171,-306,135,238
,375,2023-10-27 12:02:57.53,502,-1363,-1502,34,47,24,-159,-296,137,227
,376,2023-10-27 12:02:57.54,507,-1376,-1514,35,33,28,-175,-315,140,245
,377,2023-10-27 12:02:57.55,510,-1361,-1488,28,31,26,-161,-302,141,231
,378,2023-10-27 12:02:57.56,497,-1355,-1490,19,37,23,-175,-317,142,246
,379,2023-10-27 12:02:57.57,509,-1359,-1501,17,34,18,-154,-295,141,224
,380,2023-10-27 12:02:57.58,507,-1361,-1493,23,25,9,-171,-316,145,243
,381,2023-10-27 12:02:57.59,493,-1345,-1498,27,15,-4,-153,-295,142,224
,382,2023-10-27 12:02:57.60,514,-1357,-1478,32,11,-7,-176,-321,145,248
,383,2023-10-27 12:02:57.61,515,-1374,-1476,33,4,-3,-154,-296,142,225
,384,2023-10-27 12:02:57.62,511,-1396,-1472,28,30,11,-173,-316,143,244
,385,2023-10-27 12:02:57.63,495,-1395,-1465,31,51,26,-144,-279,135,211
,386,2023-10-27 12:02:57.64,486,-1372,-1492,45,43,43,-170,-306,136,238
,387,2023-10-27 12:02:57.65,484,-1345,-1509,50,37,60,-148,-275,127,211
,388,2023-10-27 12:02:57.66,494,-1339,-1520,40,27,72,-181,-314,133,247
,389,2023-10-27 12:02:57.67,472,-1359,-1496,21,28,72,-150,-280,130,215
,390,2023-10-27 12:02:57.68,466,-1350,-1508,8,34,71,-176,-316,140,246
,391,2023-10-27 12:02:57.69,499,-1360,-1484,4,37,69,-142,-279,137,210
,392,2023-10-27 12:02:57.70,501,-1356,-1481,-2,39,62,-174,-318,144,246
,393,2023-10-27 12:02:57.71,496,-1386,-1462,-3,46,62,-146,-282,136,214
,394,2023-10-27 12:02:57.72,459,-1361,-1469,4,61,57,-177,-325,148,251
,395,2023-10-27 12:02:57.73,478,-1333,-1525,6,49,43,-145,-283,138,214
,396,2023-10-27 12:02:57.74,489,-1372,-1495,17,29,53,-174,-322,148,248
,397,2023-10-27 12:02:57.75,493,-1369,-1479,19,30,47,-142,-278,136,210
,398,2023-10-27 12:02:57.76,492,-1371,-1485,15,48,45,-179,-323,144,251
,399,2023-10-27 12:02:57.77,493,-1367,-1501,20,46,41,-146,-283,137,214
,400,2023-10-27 12:02:57.78,490,-1375,-1500,18,38,46,-177,-328,151,252
,401,2023-10-27 12:02:57.79,493,-1393,-1492,14,36,45,-139,-278,139,208
,402,2023-10-27 12:02:57.80,490,-1375,-1500,9,31,46,-170,-321,151,245
,403,2023-10-27 12:02:57.81,494,-1367,-1489,4,21,42,-141,-277,136,209
,404,2023-10-27 12:02:57.82,478,-1373,-1484,2,24,50,-180,-326,146,253
,405,2023-10-27 12:02:57.83,497,-1363,-1482,1,19,50,-150,-285,135,217
,406,2023-10-27 12:02:57.84,500,-1378,-1486,0,22,54,-179,-325,146,252
,407,2023-10-27 12:02:57.85,486,-1381,-1499,0,14,54,-137,-272,135,204
,408,2023-10-27 12:02:57.86,500,-1359,-1503,-12,16,51,-174,-324,150,249
,409,2023-10-27 12:02:57.87,491,-1364,-1495,-16,6,45,-135,-274,139,204
,410,2023-10-27 12:02:57.88,494,-1350,-1484,-25,1,42,-182,-330,148,256
,411,2023-10-27 12:02:57.89,492,-1361,-1491,-30,-3,38,-143,-282,139,212
,412,2023-10-27 12:02:57.90,502,-1371,-1493,-32,1,32,-184,-333,149,258
,413,2023-10-27 12:02:57.91,493,-1359,-1494,-28,-7,29,-138,-280,142,209
,414,2023-10-27 12:02:57.92,500,-1360,-1482,-21,-4,27,-186,-337,151,261
,415,2023-10-27 12:02:57.93,492,-1347,-1481,-15,-5,22,-140,-283,143,211
,416,2023-10-27 12:02:57.94,496,-1354,-1494,-12,-4,19,-189,-343,154,266
,417,2023-10-27 12:02:57.95,491,-1355,-1496,-7,-6,16,-137,-282,145,209
,418,2023-10-27 12:02:57.96,491,-1357,-1501,-9,-13,14,-208,-361,153,284
,419,2023-10-27 12:02:57.97,486,-1364,-1495,-6,-16,16,-176,-329,153,252
,420,2023-10-27 12:02:57.98,491,-1358,-1495,-6,-17,17,-255,-418,163,336
,421,2023-10-27 12:02:57.99,484,-1361,-1495,-8,-20,23,-213,-380,167,296
,422,2023-10-27 12:02:58.00,487,-1366,-1493,-12,-21,21,-291,-478,187,384
,423,2023-10-27 12:02:58.01,478,-1368,-1484,-17,-16,24,-238,-430,192,334
,424,2023-10-27 12:02:58.02,486,-1367,-1482,-20,-7,27,-297,-504,207,400
,425,2023-10-27 12:02:58.03,498,-1372,-1474,-26,15,31,-218,-433,215,325
,426,2023-10-27 12:02:58.04,483,-1372,-1478,-28,28,33,-257,-482,225,369
,427,2023-10-27 12:02:58.05,488,-1370,-1487,-30,38,37,-177,-396,219,286
,428,2023-10-27 12:02:58.06,481,-1372,-1486,-26,49,44,-214,-438,224,326
,429,2023-10-27 12:02:58.07,471,-1374,-1488,-19,39,48,-136,-351,215,243
,430,2023-10-27 12:02:58.08,481,-1365,-1490,-10,29,53,-184,-406,222,295
,431,2023-10-27 12:02:58.09,471,-1354,-1515,-4,22,60,-112,-326,214,219
,432,2023-10-27 12:02:58.10,485,-1354,-1516,-7,5,57,-170,-388,218,279
,433,2023-10-27 12:02:58.11,476,-1314,-1525,-13,3,51,-103,-313,210,208
,434,2023-10-27 12:02:58.12,504,-1347,-1488,-18,1,38,-160,-371,211,265
,435,2023-10-27 12:02:58.13,496,-1347,-1457,-22,31,35,-91,-288,197,189
,436,2023-10-27 12:02:58.14,492,-1354,-1475,-16,45,28,-156,-358,202,257
,437,2023-10-27 12:02:58.15,482,-1358,-1484,4,45,23,-96,-283,187,189
,438,2023-10-27 12:02:58.16,496,-1358,-1491,21,38,25,-168,-356,188,262
,439,2023-10-27 12:02:58.17,495,-1358,-1496,35,33,31,-104,-280,176,192
,440,2023-10-27 12:02:58.18,485,-1378,-1501,44,40,43,-173,-352,179,262
,441,2023-10-27 12:02:58.19,496,-1365,-1526,40,37,54,-108,-274,166,191
,442,2023-10-27 12:02:58.20,490,-1392,-1547,33,28,71,-174,-350,176,262
,443,2023-10-27 12:02:58.21,486,-1380,-1546,32,5,83,-98,-268,170,183
,444,2023-10-27 12:02:58.22,479,-1370,-1529,28,-16,88,-173,-353,180,263
,445,2023-10-27 12:02:58.23,492,-1358,-1496,24,-24,87,-113,-278,165,195
,446,2023-10-27 12:02:58.24,479,-1343,-1496,14,-21,79,-188,-365,177,276
,447,2023-10-27 12:02:58.25,485,-1340,-1488,2,-15,66,-116,-277,161,196
,448,2023-10-27 12:02:58.26,485,-1345,-1477,0,-8,54,-180,-351,171,265
,449,2023-10-27 12:02:58.27,486,-1341,-1473,-7,-1,37,-119,-278,159,198
,450,2023-10-27 12:02:58.28,479,-1340,-1472,-5,8,27,-183,-355,172,269
,451,2023-10-27 12:02:58.29,470,-1349,-1481,-7,22,21,-121,-282,161,201
,452,2023-10-27 12:02:58.30,468,-1366,-1466,2,32,17,-192,-358,166,275
,453,2023-10-27 12:02:58.31,479,-1363,-1473,11,40,18,-128,-284,156,206
,454,2023-10-27 12:02:58.32,465,-1362,-1489,20,38,17,-194,-358,164,276
,455,2023-10-27 12:02:58.33,464,-1351,-1508,25,27,15,-127,-285,158,206
,456,2023-10-27 12:02:58.34,472,-1357,-1503,29,26,16,-193,-361,168,277
,457,2023-10-27 12:02:58.35,479,-1354,-1490,31,21,11,-126,-287,161,206
,458,2023-10-27 12:02:58.36,487,-1344,-1481,34,28,9,-199,-364,165,281
,459,2023-10-27 12:02:58.37,486,-1359,-1477,38,38,4,-134,-291,157,212
,460,2023-10-27 12:02:58.38,484,-1365,-1467,42,49,4,-200,-366,166,283
,461,2023-10-27 12:02:58.39,487,-1362,-1485,55,54,9,-131,-290,159,210
,462,2023-10-27 12:02:58.40,473,-1360,-1495,61,45,7,-199,-365,166,282
,463,2023-10-27 12:02:58.41,482,-1364,-1523,59,34,13,-127,-290,163,208
,464,2023-10-27 12:02:58.42,476,-1374,-1511,46,40,18,-200,-366,166,283
,465,2023-10-27 12:02:58.43,481,-1369,-1512,35,43,23,-132,-294,162,213
,466,2023-10-27 12:02:58.44,484,-1381,-1509,27,38,28,-205,-374,169,289
,467,2023-10-27 12:02:58.45,488,-1387,-1501,23,29,37,-137,-301,164,219
,468,2023-10-27 12:02:58.46,489,-1390,-1496,24,22,42,-215,-386,171,300
,469,2023-10-27 12:02:58.47,494,-1393,-1488,19,19,50,-154,-316,162,235
,470,2023-10-27 12:02:58.48,483,-1367,-1514,21,7,50,-246,-410,164,328
,471,2023-10-27 12:02:58.49,489,-1363,-1512,10,0,51,-183,-341,158,262
,472,2023-10-27 12:02:58.50,492,-1367,-1487,-1,-5,37,-266,-431,165,348
,473,2023-10-27 12:02:58.51,508,-1382,-1478,-7,-4,34,-196,-353,157,274
,474,2023-10-27 12:02:58.52,507,-1391,-1467,0,-2,28,-262,-423,161,342
,475,2023-10-27 12:02:58.53,493,-1379,-1466,-2,4,26,-182,-332,150,257
,476,2023-10-27 12:02:58.54,492,-1377,-1474,-3,16,23,-244,-398,154,321
,477,2023-10-27 12:02:58.55,489,-1376,-1471,-2,19,22,-172,-310,138,241
,478,2023-10-27 12:02:58.56,494,-1372,-1475,-5,26,25,-222,-365,143,293
,479,2023-10-27 12:02:58.57,483,-1373,-1480,-4,31,24,-150,-278,128,214
,480,2023-10-27 12:02:58.58,489,-1375,-1478,1,31,25,-203,-335,132,269
,481,2023-10-27 12:02:58.59,479,-1366,-1473,10,21,23,-136,-259,123,197
,482,2023-10-27 12:02:58.60,484,-1349,-1481,19,18,20,-189,-319,130,254
,483,2023-10-27 12:02:58.61,487,-1341,-1481,26,14,14,-127,-253,126,190
,484,2023-10-27 12:02:58.62,489,-1344,-1482,28,14,7,-172,-309,137,240
,485,2023-10-27 12:02:58.63,487,-1354,-1482,27,24,3,-124,-255,131,189
,486,2023-10-27 12:02:58.64,477,-1344,-1503,25,22,-2,-181,-322,141,251
,487,2023-10-27 12:02:58.65,500,-1347,-1517,32,5,-15,-137,-271,134,204
,488,2023-10-27 12:02:58.66,485,-1400,-1470,35,8,2,-178,-320,142,249
,489,2023-10-27 12:02:58.67,490,-1369,-1471,42,18,-8,-123,-259,136,191
,490,2023-10-27 12:02:58.68,481,-1385,-1488,39,29,6,-181,-322,141,251
,491,2023-10-27 12:02:58.69,482,-1380,-1504,37,23,13,-119,-265,146,192
,492,2023-10-27 12:02:58.70,486,-1388,-1500,39,17,24,-176,-324,148,250
,493,2023-10-27 12:02:58.71,489,-1379,-1498,29,12,33,-125,-271,146,198
,494,2023-10-27 12:02:58.72,494,-1395,-1485,29,5,40,-180,-330,150,255
,495,2023-10-27 12:02:58.73,488,-1386,-1486,22,8,51,-124,-269,145,196
,496,2023-10-27 12:02:58.74,495,-1370,-1490,21,1,49,-176,-326,150,251
,497,2023-10-27 12:02:58.75,493,-1375,-1481,17,-1,50,-124,-268,144,196
,498,2023-10-27 12:02:58.76,488,-1373,-1475,12,-4,47,-178,-330,152,254
,499,2023-10-27 12:02:58.77,493,-1372,-1474,6,-2,43,-125,-273,148,199
,500,2023-10-27 12:02:58.78,485,-1368,-1477,1,-2,43,-180,-332,152,256
,501,2023-10-27 12:02:58.79,492,-1386,-1476,3,-4,40,-135,-282,147,208
,502,2023-10-27 12:02:58.80,491,-1387,-1474,-1,-1,40,-192,-344,152,268
,503,2023-10-27 12:02:58.81,488,-1383,-1484,-1,-7,36,-144,-293,149,218
,504,2023-10-27 12:02:58.82,498,-1393,-1489,-5,-10,41,-198,-358,160,278
,505,2023-10-27 12:02:58.83,503,-1391,-1467,-3,-15,33,-156,-306,150,231
,506,2023-10-27 12:02:58.84,493,-1375,-1469,1,-18,30,-209,-368,159,288
,507,2023-10-27 12:02:58.85,490,-1379,-1469,0,-20,26,-163,-317,154,240
,508,2023-10-27 12:02:58.86,491,-1375,-1466,1,-20,16,-216,-376,160,296
,509,2023-10-27 12:02:58.87,488,-1364,-1472,-2,-18,16,-175,-330,155,252
,510,2023-10-27 12:02:58.88,486,-1396,-1490,-5,-22,16,-230,-394,164,312
,511,2023-10-27 12:02:58.89,499,-1412,-1480,0,-36,19,-192,-350,158,271
,512,2023-10-27 12:02:58.90,485,-1392,-1480,1,-48,25,-239,-407,168,323
,513,2023-10-27 12:02:58.91,488,-1404,-1492,-8,-59,30,-189,-351,162,270
,514,2023-10-27 12:02:58.92,479,-1404,-1484,-9,-57,36,-213,-384,171,298
,515,2023-10-27 12:02:58.93,484,-1388,-1467,-22,-53,39,-165,-328,163,246
,516,2023-10-27 12:02:58.94,481,-1397,-1456,-29,-50,43,-196,-359,163,277
,517,2023-10-27 12:02:58.95,488,-1401,-1453,-32,-39,46,-156,-314,158,235
,518,2023-10-27 12:02:58.96,486,-1408,-1433,-45,-19,50,-187,-349,162,268
,519,2023-10-27 12:02:58.97,495,-1418,-1403,-67,8,59,-153,-314,161,233
,520,2023-10-27 12:02:58.98,499,-1440,-1405,-99,42,66,-184,-348,164,266
,521,2023-10-27 12:02:58.99,499,-1475,-1449,-142,62,75,-158,-317,159,237
,522,2023-10-27 12:02:59.00,504,-1492,-1472,-183,62,86,-192,-354,162,273
,523,2023-10-27 12:02:59.01,514,-1497,-1493,-230,42,96,-167,-327,160,247
,524,2023-10-27 12:02:59.02,520,-1508,-1523,-278,12,105,-196,-358,162,277
,525,2023-10-27 12:02:59.03,521,-1489,-1523,-333,-37,104,-162,-323,161,242
,526,2023-10-27 12:02:59.04,525,-1454,-1531,-386,-91,104,-195,-355,160,275
,527,2023-10-27 12:02:59.05,518,-1445,-1560,-440,-142,107,-166,-324,158,245
,528,2023-10-27 12:02:59.06,509,-1410,-1563,-495,-205,103,-192,-350,158,271
,529,2023-10-27 12:02:59.07,523,-1399,-1558,-561,-259,105,-155,-313,158,234
,530,2023-10-27 12:02:59.08,511,-1442,-1550,-593,-319,108,-178,-330,152,254
,531,2023-10-27 12:02:59.09,507,-1401,-1547,-624,-365,110,-157,-312,155,234
,532,2023-10-27 12:02:59.10,494,-1377,-1556,-648,-401,106,-170,-320,150,245
,533,2023-10-27 12:02:59.11,486,-1365,-1575,-671,-444,106,-143,-294,151,218
,534,2023-10-27 12:02:59.12,462,-1345,-1571,-695,-471,106,-145,-292,147,218
,535,2023-10-27 12:02:59.13,451,-1315,-1578,-723,-486,107,-114,-263,149,188
,536,2023-10-27 12:02:59.14,450,-1293,-1586,-758,-476,107,-115,-258,143,186
,537,2023-10-27 12:02:59.15,418,-1279,-1597,-800,-450,102,-95,-240,145,167
,538,2023-10-27 12:02:59.16,399,-1248,-1611,-838,-421,99,-98,-239,141,168
,539,2023-10-27 12:02:59.17,385,-1229,-1613,-868,-400,96,-88,-233,145,160
,540,2023-10-27 12:02:59.18,349,-1193,-1650,-890,-405,93,-104,-243,139,173
,541,2023-10-27 12:02:59.19,323,-1170,-1650,-888,-439,91,-108,-246,138,177
,542,2023-10-27 12:02:59.20,343,-1116,-1728,-903,-440,95,-119,-253,134,186
,543,2023-10-27 12:02:59.21,312,-1103,-1716,-961,-376,98,-118,-256,138,187
,544,2023-10-27 12:02:59.22,290,-1092,-1745,-1015,-336,98,-123,-263,140,193
,545,2023-10-27 12:02:59.23,283,-1127,-1747,-1036,-346,98,-129,-270,141,199
,546,2023-10-27 12:02:59.24,279,-1107,-1771,-1016,-376,106,-136,-272,136,204
,547,2023-10-27 12:02:59.25,273,-1053,-1786,-1002,-414,116,-139,-276,137,207
,548,2023-10-27 12:02:59.26,264,-1020,-1806,-1018,-444,126,-136,-272,136,204
,549,2023-10-27 12:02:59.27,240,-1040,-1797,-1042,-409,138,-141,-284,143,212
,550,2023-10-27 12:02:59.28,252,-1012,-1811,-1062,-388,156,-140,-285,145,212
,551,2023-10-27 12:02:59.29,239,-987,-1831,-1074,-384,172,-153,-296,143,224
,552,2023-10-27 12:02:59.30,213,-972,-1839,-1098,-378,193,-148,-291,143,219
,553,2023-10-27 12:02:59.31,192,-959,-1822,-1100,-385,215,-162,-302,140,232
,554,2023-10-27 12:02:59.32,201,-913,-1835,-1083,-419,240,-152,-289,137,220
,555,2023-10-27 12:02:59.33,203,-870,-1865,-1078,-455,250,-162,-305,143,233
,556,2023-10-27 12:02:59.34,220,-823,-1878,-1086,-461,261,-152,-297,145,224
,557,2023-10-27 12:02:59.35,192,-780,-1889,-1113,-426,268,-168,-316,148,242
,558,2023-10-27 12:02:59.36,205,-761,-1881,-1139,-425,268,-154,-298,144,226
,559,2023-10-27 12:02:59.37,195,-759,-1868,-1135,-424,262,-172,-320,148,246
,560,2023-10-27 12:02:59.38,165,-741,-1853,-1123,-389,262,-160,-301,141,230
,561,2023-10-27 12:02:59.39,147,-729,-1854,-1107,-366,261,-181,-324,143,252
,562,2023-10-27 12:02:59.40,152,-718,-1861,-1084,-351,259,-162,-300,138,231
,563,2023-10-27 12:02:59.41,131,-702,-1887,-1051,-333,255,-183,-325,142,254
,564,2023-10-27 12:02:59.42,124,-669,-1900,-1014,-353,254,-159,-299,140,229
,565,2023-10-27 12:02:59.43,130,-650,-1941,-976,-351,249,-183,-328,145,255
