// Data mode  : Full
// Data quality  : High
// Acceleration sensor's range  : 16g
// Gyroscope sensor's range  : 2000dps
//
//ARTIFACT,NUM,DATE,ACC_X,ACC_Y,ACC_Z,GYRO_X,GYRO_Y,GYRO_Z,EOG_L,EOG_R,EOG_H,EOG_V
,1,2023-10-27 12:31:29.28,193,-335,-2028,10,17,-24,-338,47,-385,145
,2,2023-10-27 12:31:29.29,195,-338,-2030,9,15,-23,-200,2,-202,99
,3,2023-10-27 12:31:29.30,192,-341,-2030,9,10,-28,-369,43,-412,163
,4,2023-10-27 12:31:29.31,194,-348,-2025,11,9,-27,-206,3,-209,101
,5,2023-10-27 12:31:29.32,192,-343,-2023,9,7,-30,-346,47,-393,149
,6,2023-10-27 12:31:29.33,189,-342,-2025,10,8,-31,-173,19,-192,77
,7,2023-10-27 12:31:29.34,183,-344,-2031,7,6,-31,-344,37,-381,153
,8,2023-10-27 12:31:29.35,185,-337,-2032,8,1,-36,-188,3,-191,92
,9,2023-10-27 12:31:29.36,197,-341,-2028,11,3,-39,-371,15,-386,178
,10,2023-10-27 12:31:29.37,205,-336,-2025,9,2,-43,-204,5,-209,99
,11,2023-10-27 12:31:29.38,210,-340,-2059,21,-2,-44,-382,17,-399,182
,12,2023-10-27 12:31:29.39,195,-346,-2029,11,-2,-55,-206,7,-213,99
,13,2023-10-27 12:31:29.40,187,-343,-2017,6,2,-58,-371,15,-386,178
,14,2023-10-27 12:31:29.41,218,-339,-2066,12,4,-62,-201,4,-205,98
,15,2023-10-27 12:31:29.42,211,-341,-2026,10,4,-74,-383,7,-390,188
,16,2023-10-27 12:31:29.43,225,-341,-2020,17,17,-85,-199,9,-208,95
,17,2023-10-27 12:31:29.44,226,-332,-2018,34,34,-104,-368,17,-385,175
,18,2023-10-27 12:31:29.45,222,-334,-2005,44,50,-126,-185,12,-197,86
,19,2023-10-27 12:31:29.46,216,-334,-2004,54,72,-149,-359,16,-375,171
,20,2023-10-27 12:31:29.47,207,-344,-1997,64,86,-172,-178,20,-198,79
,21,2023-10-27 12:31:29.48,213,-350,-2010,79,96,-190,-367,12,-379,177
,22,2023-10-27 12:31:29.49,196,-346,-2030,88,98,-199,-184,18,-202,83
,23,2023-10-27 12:31:29.50,207,-343,-2028,87,82,-208,-377,9,-386,184
,24,2023-10-27 12:31:29.51,202,-330,-2020,85,74,-214,-201,28,-229,86
,25,2023-10-27 12:31:29.52,211,-336,-2021,95,53,-217,-399,6,-405,196
,26,2023-10-27 12:31:29.53,196,-346,-2048,97,43,-217,-210,25,-235,92
,27,2023-10-27 12:31:29.54,208,-349,-2042,91,9,-217,-391,0,-391,195
,28,2023-10-27 12:31:29.55,209,-352,-2027,88,1,-213,-196,22,-218,87
,29,2023-10-27 12:31:29.56,216,-354,-2035,87,-7,-212,-378,7,-385,185
,30,2023-10-27 12:31:29.57,209,-358,-2024,73,-12,-210,-190,36,-226,77
,31,2023-10-27 12:31:29.58,204,-349,-2031,61,-13,-207,-377,18,-395,179
,32,2023-10-27 12:31:29.59,218,-357,-2026,52,-14,-205,-191,43,-234,74
,33,2023-10-27 12:31:29.60,220,-358,-2009,41,-18,-201,-391,15,-406,188
,34,2023-10-27 12:31:29.61,206,-361,-2015,26,-17,-192,-192,43,-235,74
,35,2023-10-27 12:31:29.62,222,-368,-2017,18,-15,-186,-377,12,-389,182
,36,2023-10-27 12:31:29.63,210,-368,-2027,6,-15,-175,-193,47,-240,73
,37,2023-10-27 12:31:29.64,211,-370,-2016,-6,-14,-164,-404,5,-409,199
,38,2023-10-27 12:31:29.65,232,-366,-2034,-12,-9,-155,-212,45,-257,83
,39,2023-10-27 12:31:29.66,220,-372,-2030,-22,-8,-145,-398,-8,-390,203
,40,2023-10-27 12:31:29.67,223,-365,-2021,-34,-2,-135,-199,38,-237,80
,41,2023-10-27 12:31:29.68,221,-370,-2011,-43,6,-123,-392,-14,-378,203
,42,2023-10-27 12:31:29.69,244,-376,-2039,-32,1,-106,-200,42,-242,79
,43,2023-10-27 12:31:29.70,231,-370,-2043,-34,3,-95,-390,-10,-380,200
,44,2023-10-27 12:31:29.71,222,-366,-2028,-48,6,-81,-200,49,-249,75
,45,2023-10-27 12:31:29.72,211,-364,-2028,-58,9,-66,-391,-1,-390,196
,46,2023-10-27 12:31:29.73,223,-356,-2032,-59,8,-51,-203,55,-258,74
,47,2023-10-27 12:31:29.74,217,-366,-2025,-58,9,-34,-388,1,-389,193
,48,2023-10-27 12:31:29.75,229,-356,-2031,-60,8,-21,-202,45,-247,78
,49,2023-10-27 12:31:29.76,226,-355,-2025,-59,7,-9,-394,-18,-376,206
,50,2023-10-27 12:31:29.77,227,-351,-2036,-57,5,6,-203,36,-239,83
,51,2023-10-27 12:31:29.78,224,-348,-2026,-56,7,20,-389,-21,-368,205
,52,2023-10-27 12:31:29.79,227,-346,-2023,-53,8,31,-201,53,-254,74
,53,2023-10-27 12:31:29.80,215,-346,-2025,-52,9,39,-402,-32,-370,217
,54,2023-10-27 12:31:29.81,223,-346,-2032,-48,1,45,-213,48,-261,82
,55,2023-10-27 12:31:29.82,227,-334,-2028,-41,-2,55,-402,-34,-368,218
,56,2023-10-27 12:31:29.83,233,-332,-2028,-35,-2,59,-205,45,-250,80
,57,2023-10-27 12:31:29.84,237,-327,-2027,-33,-3,62,-380,-36,-344,208
,58,2023-10-27 12:31:29.85,216,-326,-2029,-29,0,63,-196,45,-241,75
,59,2023-10-27 12:31:29.86,224,-323,-2026,-25,0,61,-379,-32,-347,205
,60,2023-10-27 12:31:29.87,233,-322,-2027,-19,0,60,-202,55,-257,73
,61,2023-10-27 12:31:29.88,221,-323,-2025,-13,-1,57,-381,-27,-354,204
,62,2023-10-27 12:31:29.89,207,-317,-2026,-9,-4,55,-206,58,-264,74
,63,2023-10-27 12:31:29.90,217,-321,-2028,-4,-4,54,-388,-32,-356,210
,64,2023-10-27 12:31:29.91,214,-319,-2026,0,-6,52,-208,58,-266,75
,65,2023-10-27 12:31:29.92,220,-317,-2027,2,-7,49,-384,-36,-348,210
,66,2023-10-27 12:31:29.93,222,-315,-2028,4,-7,46,-211,67,-278,72
,67,2023-10-27 12:31:29.94,216,-311,-2022,1,-5,43,-388,-31,-357,209
,68,2023-10-27 12:31:29.95,217,-318,-2018,-1,-4,37,-215,72,-287,71
,69,2023-10-27 12:31:29.96,217,-316,-2025,0,-3,33,-384,-38,-346,211
,70,2023-10-27 12:31:29.97,219,-314,-2027,-3,2,29,-208,63,-271,72
,71,2023-10-27 12:31:29.98,202,-323,-2015,-9,8,23,-370,-46,-324,208
,72,2023-10-27 12:31:29.99,221,-314,-2019,-3,4,17,-213,65,-278,74
,73,2023-10-27 12:31:30.00,220,-318,-2034,-3,2,13,-381,-38,-343,209
,74,2023-10-27 12:31:30.01,229,-311,-2027,-4,5,8,-209,71,-280,69
,75,2023-10-27 12:31:30.02,215,-319,-2028,-7,6,5,-362,-39,-323,200
,76,2023-10-27 12:31:30.03,223,-319,-2026,-5,6,1,-211,68,-279,71
,77,2023-10-27 12:31:30.04,217,-317,-2026,-4,7,-3,-372,-48,-324,210
,78,2023-10-27 12:31:30.05,219,-315,-2031,-9,8,-8,-208,67,-275,70
,79,2023-10-27 12:31:30.06,230,-311,-2023,-10,6,-12,-356,-45,-311,200
,80,2023-10-27 12:31:30.07,229,-320,-2027,-7,6,-17,-209,74,-283,67
,81,2023-10-27 12:31:30.08,212,-316,-2034,-7,5,-21,-366,-47,-319,206
,82,2023-10-27 12:31:30.09,225,-307,-2032,-10,3,-25,-232,73,-305,79
,83,2023-10-27 12:31:30.10,228,-316,-2029,-14,4,-27,-377,-56,-321,216
,84,2023-10-27 12:31:30.11,222,-316,-2027,-16,-2,-33,-244,68,-312,88
,85,2023-10-27 12:31:30.12,227,-310,-2040,-15,-5,-37,-383,-64,-319,223
,86,2023-10-27 12:31:30.13,228,-314,-2037,-17,-8,-34,-236,65,-301,85
,87,2023-10-27 12:31:30.14,228,-332,-2035,-15,-7,-34,-357,-61,-296,209
,88,2023-10-27 12:31:30.15,227,-329,-2042,-13,-12,-32,-228,81,-309,73
,89,2023-10-27 12:31:30.16,222,-330,-2028,-9,-15,-28,-360,-55,-305,207
,90,2023-10-27 12:31:30.17,224,-334,-2031,-4,-17,-24,-235,72,-307,81
,91,2023-10-27 12:31:30.18,234,-316,-2061,-4,-26,-21,-352,-61,-291,206
,92,2023-10-27 12:31:30.19,230,-318,-2026,-4,-23,-19,-232,73,-305,79
,93,2023-10-27 12:31:30.20,231,-320,-2028,-4,-22,-11,-350,-59,-291,204
,94,2023-10-27 12:31:30.21,235,-343,-2019,-1,-25,-7,-248,71,-319,88
,95,2023-10-27 12:31:30.22,255,-319,-2009,1,-27,-2,-361,-64,-297,212
,96,2023-10-27 12:31:30.23,234,-330,-2034,19,-26,5,-241,76,-317,82
,97,2023-10-27 12:31:30.24,236,-328,-1971,21,-24,10,-344,-61,-283,202
,98,2023-10-27 12:31:30.25,242,-341,-1976,31,-17,20,-242,74,-316,84
,99,2023-10-27 12:31:30.26,242,-355,-2007,66,-25,24,-340,-68,-272,204
,100,2023-10-27 12:31:30.27,237,-346,-1997,73,-18,32,-256,66,-322,95
,101,2023-10-27 12:31:30.28,251,-353,-1994,75,-13,43,-348,-72,-276,210
,102,2023-10-27 12:31:30.29,236,-356,-2014,79,-8,49,-250,64,-314,93
,103,2023-10-27 12:31:30.30,230,-352,-2004,80,-1,59,-332,-68,-264,200
,104,2023-10-27 12:31:30.31,228,-344,-2018,81,-11,71,-222,71,-293,75
,105,2023-10-27 12:31:30.32,219,-346,-2021,65,1,80,-310,-66,-244,188
,106,2023-10-27 12:31:30.33,222,-349,-2028,44,3,85,-227,69,-296,79
,107,2023-10-27 12:31:30.34,225,-372,-2002,47,-1,90,-317,-69,-248,193
,108,2023-10-27 12:31:30.35,220,-360,-2052,57,0,99,-241,70,-311,85
,109,2023-10-27 12:31:30.36,217,-366,-2067,49,-3,106,-318,-66,-252,192
,110,2023-10-27 12:31:30.37,216,-356,-2060,37,-5,108,-248,74,-322,87
,111,2023-10-27 12:31:30.38,202,-375,-2024,22,-3,115,-318,-64,-254,191
,112,2023-10-27 12:31:30.39,221,-365,-2038,18,-8,121,-249,73,-322,88
,113,2023-10-27 12:31:30.40,202,-358,-2015,21,-4,122,-302,-62,-240,182
,114,2023-10-27 12:31:30.41,214,-365,-2018,27,-11,125,-260,68,-328,96
,115,2023-10-27 12:31:30.42,209,-350,-2044,28,-13,125,-309,-69,-240,189
,116,2023-10-27 12:31:30.43,214,-346,-2047,11,-6,126,-266,70,-336,98
,117,2023-10-27 12:31:30.44,200,-369,-2031,3,-3,123,-303,-58,-245,180
,118,2023-10-27 12:31:30.45,203,-357,-2082,17,-13,120,-283,75,-358,104
,119,2023-10-27 12:31:30.46,192,-340,-2074,9,-18,117,-315,-58,-257,186
,120,2023-10-27 12:31:30.47,193,-327,-2045,-7,-22,107,-305,70,-375,117
,121,2023-10-27 12:31:30.48,203,-320,-2059,-13,-25,100,-345,-76,-269,210
,122,2023-10-27 12:31:30.49,199,-326,-2032,-15,-43,93,-328,48,-376,140
,123,2023-10-27 12:31:30.50,201,-332,-2007,-8,-56,86,-335,-100,-235,217
,124,2023-10-27 12:31:30.51,206,-337,-2020,0,-71,78,-317,40,-357,138
,125,2023-10-27 12:31:30.52,194,-340,-2001,2,-76,72,-337,-107,-230,222
,126,2023-10-27 12:31:30.53,184,-355,-2020,7,-92,67,-331,32,-363,149
,127,2023-10-27 12:31:30.54,185,-356,-2024,18,-105,67,-331,-114,-217,222
,128,2023-10-27 12:31:30.55,191,-356,-2026,30,-120,71,-295,34,-329,130
,129,2023-10-27 12:31:30.56,181,-357,-2005,45,-141,71,-273,-91,-182,182
,130,2023-10-27 12:31:30.57,175,-347,-2037,62,-157,70,-280,53,-333,113
,131,2023-10-27 12:31:30.58,158,-350,-2019,61,-169,69,-272,-79,-193,175
,132,2023-10-27 12:31:30.59,162,-365,-2005,57,-172,69,-277,56,-333,110
,133,2023-10-27 12:31:30.60,158,-384,-1992,61,-180,71,-260,-66,-194,163
,134,2023-10-27 12:31:30.61,152,-398,-2028,78,-181,69,-269,64,-333,102
,135,2023-10-27 12:31:30.62,169,-407,-2033,96,-191,74,-248,-67,-181,157
,136,2023-10-27 12:31:30.63,166,-415,-2014,111,-188,84,-276,64,-340,106
,137,2023-10-27 12:31:30.64,154,-420,-2002,132,-168,91,-254,-60,-194,157
,138,2023-10-27 12:31:30.65,144,-440,-2009,171,-162,107,-297,64,-361,116
,139,2023-10-27 12:31:30.66,140,-460,-2002,186,-146,120,-264,-56,-208,160
,140,2023-10-27 12:31:30.67,153,-467,-1981,222,-138,131,-304,67,-371,118
,141,2023-10-27 12:31:30.68,149,-474,-2012,265,-117,139,-257,-59,-198,158
,142,2023-10-27 12:31:30.69,144,-484,-2015,294,-105,156,-308,69,-377,119
,143,2023-10-27 12:31:30.70,136,-478,-2021,308,-70,172,-263,-50,-213,156
,144,2023-10-27 12:31:30.71,123,-478,-2027,331,-57,186,-336,64,-400,136
,145,2023-10-27 12:31:30.72,122,-448,-2013,351,-32,196,-268,-58,-210,163
,146,2023-10-27 12:31:30.73,97,-425,-1976,351,-34,213,-331,54,-385,138
,147,2023-10-27 12:31:30.74,111,-419,-1965,338,-5,215,-247,-56,-191,151
,148,2023-10-27 12:31:30.75,114,-431,-1997,317,9,215,-309,56,-365,126
,149,2023-10-27 12:31:30.76,117,-412,-1975,298,19,215,-230,-50,-180,140
,150,2023-10-27 12:31:30.77,123,-421,-1974,286,45,210,-315,60,-375,127
,151,2023-10-27 12:31:30.78,120,-419,-1987,276,50,208,-232,-45,-187,138
,152,2023-10-27 12:31:30.79,130,-416,-1983,258,52,201,-325,54,-379,135
,153,2023-10-27 12:31:30.80,126,-417,-1984,241,67,192,-240,-52,-188,146
,154,2023-10-27 12:31:30.81,146,-422,-1980,226,67,186,-323,56,-379,133
,155,2023-10-27 12:31:30.82,168,-425,-1981,209,94,173,-231,-38,-193,134
,156,2023-10-27 12:31:30.83,140,-445,-1932,200,112,166,-325,59,-384,133
,157,2023-10-27 12:31:30.84,161,-465,-1979,204,107,158,-228,-41,-187,134
,158,2023-10-27 12:31:30.85,155,-459,-2003,207,111,151,-326,53,-379,136
,159,2023-10-27 12:31:30.86,161,-441,-1996,201,121,145,-223,-42,-181,132
,160,2023-10-27 12:31:30.87,151,-435,-1993,183,149,133,-339,50,-389,144
,161,2023-10-27 12:31:30.88,145,-439,-2009,172,155,124,-227,-34,-193,130
,162,2023-10-27 12:31:30.89,128,-432,-2011,154,149,116,-356,46,-402,155
,163,2023-10-27 12:31:30.90,151,-425,-2038,127,152,117,-236,-34,-202,135
,164,2023-10-27 12:31:30.91,155,-430,-2007,104,156,112,-368,35,-403,166
,165,2023-10-27 12:31:30.92,146,-428,-2005,95,147,108,-243,-42,-201,142
,166,2023-10-27 12:31:30.93,162,-387,-2077,80,117,100,-372,29,-401,171
,167,2023-10-27 12:31:30.94,163,-396,-2021,44,118,89,-239,-37,-202,138
,168,2023-10-27 12:31:30.95,157,-409,-2003,19,114,76,-370,32,-402,169
,169,2023-10-27 12:31:30.96,153,-405,-2026,8,110,71,-234,-38,-196,136
,170,2023-10-27 12:31:30.97,149,-386,-2056,0,94,59,-367,33,-400,167
,171,2023-10-27 12:31:30.98,146,-377,-2073,-21,78,46,-228,-36,-192,132
,172,2023-10-27 12:31:30.99,171,-375,-2066,-45,70,31,-372,29,-401,171
,173,2023-10-27 12:31:31.00,169,-369,-2060,-66,64,16,-215,-29,-186,122
,174,2023-10-27 12:31:31.01,173,-363,-2057,-83,57,1,-368,29,-397,169
,175,2023-10-27 12:31:31.02,189,-345,-2060,-104,54,-18,-212,-26,-186,119
,176,2023-10-27 12:31:31.03,173,-369,-2047,-114,47,-31,-370,19,-389,175
,177,2023-10-27 12:31:31.04,178,-357,-2046,-122,46,-47,-205,-24,-181,114
,178,2023-10-27 12:31:31.05,178,-360,-2056,-127,39,-65,-360,17,-377,171
,179,2023-10-27 12:31:31.06,171,-353,-2051,-133,29,-74,-205,-32,-173,118
,180,2023-10-27 12:31:31.07,163,-361,-2037,-138,24,-87,-361,16,-377,172
,181,2023-10-27 12:31:31.08,163,-361,-2033,-132,11,-94,-207,-20,-187,113
,182,2023-10-27 12:31:31.09,141,-370,-2028,-133,-6,-96,-385,14,-399,185
,183,2023-10-27 12:31:31.10,142,-386,-2036,-140,-19,-99,-217,-19,-198,118
,184,2023-10-27 12:31:31.11,138,-387,-2052,-139,-32,-99,-378,11,-389,183
,185,2023-10-27 12:31:31.12,159,-381,-2053,-136,-41,-100,-212,-19,-193,115
,186,2023-10-27 12:31:31.13,140,-367,-2053,-129,-55,-99,-373,13,-386,180
,187,2023-10-27 12:31:31.14,136,-361,-2030,-129,-62,-100,-204,-6,-198,105
,188,2023-10-27 12:31:31.15,137,-374,-2028,-137,-54,-104,-374,14,-388,180
,189,2023-10-27 12:31:31.16,129,-382,-2045,-134,-66,-106,-199,-5,-194,102
,190,2023-10-27 12:31:31.17,130,-376,-2046,-123,-85,-103,-374,12,-386,181
,191,2023-10-27 12:31:31.18,134,-370,-2052,-116,-83,-106,-200,2,-202,99
,192,2023-10-27 12:31:31.19,134,-358,-2041,-122,-90,-106,-384,8,-392,188
,193,2023-10-27 12:31:31.20,135,-374,-2035,-131,-83,-110,-197,-2,-195,99
,194,2023-10-27 12:31:31.21,121,-373,-2033,-125,-87,-113,-378,10,-388,184
,195,2023-10-27 12:31:31.22,121,-381,-2033,-118,-89,-112,-198,17,-215,90
,196,2023-10-27 12:31:31.23,120,-394,-2020,-111,-92,-110,-390,19,-409,185
,197,2023-10-27 12:31:31.24,117,-388,-2024,-101,-98,-106,-206,22,-228,92
,198,2023-10-27 12:31:31.25,107,-398,-2023,-89,-105,-103,-389,20,-409,184
,199,2023-10-27 12:31:31.26,107,-392,-2026,-81,-112,-96,-202,28,-230,87
,200,2023-10-27 12:31:31.27,106,-403,-2024,-80,-118,-93,-384,24,-408,180
,201,2023-10-27 12:31:31.28,106,-406,-2032,-79,-122,-88,-204,32,-236,86
,202,2023-10-27 12:31:31.29,98,-404,-2039,-75,-124,-84,-391,17,-408,187
,203,2023-10-27 12:31:31.30,110,-395,-2029,-77,-124,-79,-200,26,-226,87
,204,2023-10-27 12:31:31.31,106,-401,-2021,-83,-124,-74,-382,7,-389,187
,205,2023-10-27 12:31:31.32,101,-391,-2019,-90,-121,-73,-192,22,-214,85
,206,2023-10-27 12:31:31.33,86,-392,-2022,-105,-110,-72,-394,-3,-391,198
,207,2023-10-27 12:31:31.34,97,-383,-2031,-120,-100,-74,-199,22,-221,88
,208,2023-10-27 12:31:31.35,92,-381,-2034,-133,-102,-73,-392,-9,-383,200
,209,2023-10-27 12:31:31.36,94,-362,-2031,-148,-91,-72,-195,21,-216,87
,210,2023-10-27 12:31:31.37,100,-360,-2022,-169,-91,-74,-396,-17,-379,206
,211,2023-10-27 12:31:31.38,95,-366,-2015,-195,-79,-76,-186,26,-212,80
,212,2023-10-27 12:31:31.39,86,-356,-2032,-214,-73,-77,-392,-26,-366,209
,213,2023-10-27 12:31:31.40,86,-351,-2051,-233,-77,-72,-184,17,-201,83
,214,2023-10-27 12:31:31.41,91,-349,-2048,-258,-78,-69,-374,-18,-356,196
,215,2023-10-27 12:31:31.42,114,-321,-2066,-283,-70,-71,-176,41,-217,67
,216,2023-10-27 12:31:31.43,105,-320,-2044,-307,-66,-69,-372,0,-372,186
,217,2023-10-27 12:31:31.44,86,-338,-2019,-327,-66,-67,-176,45,-221,65
,218,2023-10-27 12:31:31.45,112,-305,-2045,-339,-60,-66,-366,1,-367,182
,219,2023-10-27 12:31:31.46,94,-318,-2041,-352,-53,-64,-173,48,-221,62
,220,2023-10-27 12:31:31.47,104,-312,-2009,-365,-37,-61,-372,-12,-360,192
,221,2023-10-27 12:31:31.48,114,-321,-1996,-354,-43,-50,-185,48,-233,68
,222,2023-10-27 12:31:31.49,113,-303,-2030,-341,-47,-39,-388,-7,-381,197
,223,2023-10-27 12:31:31.50,133,-268,-2048,-335,-63,-35,-192,56,-248,68
,224,2023-10-27 12:31:31.51,107,-294,-2024,-335,-70,-30,-380,-11,-369,195
,225,2023-10-27 12:31:31.52,111,-274,-2042,-328,-73,-22,-178,54,-232,62
,226,2023-10-27 12:31:31.53,133,-249,-2074,-334,-75,-12,-366,-12,-354,189
,227,2023-10-27 12:31:31.54,90,-295,-2031,-353,-65,-6,-183,66,-249,58
,228,2023-10-27 12:31:31.55,108,-272,-2026,-353,-66,6,-387,-5,-382,196
,229,2023-10-27 12:31:31.56,93,-258,-2045,-340,-78,17,-197,68,-265,64
,230,2023-10-27 12:31:31.57,97,-260,-2043,-336,-90,28,-380,-6,-374,193
,231,2023-10-27 12:31:31.58,117,-258,-2038,-338,-108,38,-195,69,-264,63
,232,2023-10-27 12:31:31.59,113,-247,-2047,-340,-112,45,-384,-8,-376,196
,233,2023-10-27 12:31:31.60,126,-219,-2054,-336,-116,54,-210,66,-276,72
,234,2023-10-27 12:31:31.61,105,-240,-2054,-339,-120,62,-393,-15,-378,204
,235,2023-10-27 12:31:31.62,109,-221,-2046,-337,-121,72,-201,66,-267,67
,236,2023-10-27 12:31:31.63,117,-225,-2039,-339,-120,80,-371,-10,-361,190
,237,2023-10-27 12:31:31.64,121,-226,-2046,-336,-124,88,-187,74,-261,56
,238,2023-10-27 12:31:31.65,93,-223,-2019,-333,-113,95,-365,-15,-350,190
,239,2023-10-27 12:31:31.66,101,-217,-2030,-319,-119,111,-190,67,-257,61
,240,2023-10-27 12:31:31.67,106,-211,-2032,-302,-112,122,-368,-28,-340,198
,241,2023-10-27 12:31:31.68,132,-206,-2025,-290,-117,134,-204,66,-270,69
,242,2023-10-27 12:31:31.69,101,-222,-2027,-271,-110,150,-386,-32,-354,209
,243,2023-10-27 12:31:31.70,92,-208,-2027,-250,-98,164,-211,69,-280,71
,244,2023-10-27 12:31:31.71,88,-206,-2023,-226,-103,180,-381,-30,-351,205
,245,2023-10-27 12:31:31.72,91,-207,-2015,-213,-84,193,-210,77,-287,66
,246,2023-10-27 12:31:31.73,102,-202,-2008,-191,-81,209,-373,-19,-354,196
,247,2023-10-27 12:31:31.74,74,-187,-2024,-168,-69,228,-207,92,-299,57
,248,2023-10-27 12:31:31.75,87,-198,-2023,-142,-74,249,-369,-8,-361,188
,249,2023-10-27 12:31:31.76,78,-235,-2020,-120,-68,267,-219,91,-310,64
,250,2023-10-27 12:31:31.77,97,-223,-2024,-87,-59,292,-380,-21,-359,200
,251,2023-10-27 12:31:31.78,88,-227,-2026,-51,-40,315,-211,85,-296,63
,252,2023-10-27 12:31:31.79,99,-211,-2021,-18,-17,334,-354,-11,-343,182
,253,2023-10-27 12:31:31.80,97,-206,-2026,8,17,349,-216,94,-310,61
,254,2023-10-27 12:31:31.81,103,-213,-2004,42,35,365,-377,-20,-357,198
,255,2023-10-27 12:31:31.82,84,-206,-2002,84,64,376,-233,88,-321,72
,256,2023-10-27 12:31:31.83,72,-196,-2002,119,81,381,-378,-30,-348,204
,257,2023-10-27 12:31:31.84,96,-191,-2020,154,96,386,-237,89,-326,74
,258,2023-10-27 12:31:31.85,72,-190,-1996,175,117,385,-378,-43,-335,210
,259,2023-10-27 12:31:31.86,86,-189,-2005,207,130,385,-229,83,-312,73
,260,2023-10-27 12:31:31.87,81,-195,-2012,236,153,374,-356,-39,-317,197
,261,2023-10-27 12:31:31.88,83,-191,-1999,279,157,368,-225,89,-314,68
,262,2023-10-27 12:31:31.89,63,-193,-2032,321,178,357,-349,-38,-311,193
,263,2023-10-27 12:31:31.90,45,-178,-2019,364,179,341,-238,86,-324,76
,264,2023-10-27 12:31:31.91,43,-175,-2022,402,176,323,-357,-39,-318,198
,265,2023-10-27 12:31:31.92,45,-179,-2037,435,162,302,-248,90,-338,79
,266,2023-10-27 12:31:31.93,67,-161,-2062,454,151,279,-356,-36,-320,196
,267,2023-10-27 12:31:31.94,69,-158,-2051,470,144,251,-259,86,-345,86
,268,2023-10-27 12:31:31.95,74,-145,-2049,497,167,214,-365,-44,-321,204
,269,2023-10-27 12:31:31.96,57,-149,-2061,511,194,174,-278,83,-361,97
,270,2023-10-27 12:31:31.97,60,-157,-2076,516,221,136,-377,-53,-324,215
,271,2023-10-27 12:31:31.98,81,-183,-2082,525,243,91,-269,80,-349,94
,272,2023-10-27 12:31:31.99,95,-195,-2062,549,262,50,-352,-58,-294,205
,273,2023-10-27 12:31:32.00,118,-211,-2039,592,291,9,-276,79,-355,98
,274,2023-10-27 12:31:32.01,120,-220,-2020,640,324,-35,-360,-61,-299,210
,275,2023-10-27 12:31:32.02,126,-233,-2021,680,357,-79,-280,80,-360,100
,276,2023-10-27 12:31:32.03,109,-269,-2004,706,423,-120,-347,-52,-295,199
,277,2023-10-27 12:31:32.04,149,-310,-1975,753,437,-152,-300,84,-384,108
,278,2023-10-27 12:31:32.05,169,-324,-1961,794,469,-179,-368,-54,-314,211
,279,2023-10-27 12:31:32.06,197,-356,-1946,853,492,-207,-322,85,-407,118
,280,2023-10-27 12:31:32.07,186,-388,-1906,918,541,-241,-368,-51,-317,209
,281,2023-10-27 12:31:32.08,218,-376,-1900,969,594,-275,-321,80,-401,120
,282,2023-10-27 12:31:32.09,214,-410,-1915,1022,634,-310,-363,-60,-303,211
,283,2023-10-27 12:31:32.10,230,-437,-1937,1055,661,-334,-315,80,-395,117
,284,2023-10-27 12:31:32.11,246,-471,-1944,1084,662,-356,-351,-54,-297,202
,285,2023-10-27 12:31:32.12,281,-501,-1944,1123,665,-366,-327,85,-412,121
,286,2023-10-27 12:31:32.13,272,-540,-1938,1167,679,-377,-364,-53,-311,208
,287,2023-10-27 12:31:32.14,315,-537,-1940,1196,688,-379,-356,84,-440,136
,288,2023-10-27 12:31:32.15,336,-554,-1936,1197,719,-391,-378,-56,-322,217
,289,2023-10-27 12:31:32.16,349,-581,-1942,1189,746,-395,-345,88,-433,128
,290,2023-10-27 12:31:32.17,357,-618,-1937,1197,764,-400,-353,-55,-298,204
,291,2023-10-27 12:31:32.18,397,-635,-1949,1210,766,-388,-357,87,-444,135
,292,2023-10-27 12:31:32.19,390,-718,-1919,1229,748,-379,-369,-56,-313,212
,293,2023-10-27 12:31:32.20,405,-725,-1908,1269,717,-356,-370,92,-462,139
,294,2023-10-27 12:31:32.21,420,-698,-1977,1270,715,-331,-363,-58,-305,210
,295,2023-10-27 12:31:32.22,447,-768,-1931,1242,704,-305,-365,86,-451,139
,296,2023-10-27 12:31:32.23,436,-836,-1905,1232,696,-278,-344,-53,-291,198
,297,2023-10-27 12:31:32.24,482,-872,-1889,1248,664,-235,-376,90,-466,143
,298,2023-10-27 12:31:32.25,485,-881,-1870,1286,650,-191,-356,-48,-308,202
,299,2023-10-27 12:31:32.26,521,-878,-1819,1316,615,-155,-378,75,-453,151
,300,2023-10-27 12:31:32.27,535,-874,-1842,1319,581,-129,-347,-56,-291,201
,301,2023-10-27 12:31:32.28,549,-914,-1842,1308,560,-98,-412,79,-491,166
,302,2023-10-27 12:31:32.29,573,-922,-1831,1299,563,-81,-378,-52,-326,215
,303,2023-10-27 12:31:32.30,575,-934,-1777,1293,569,-72,-413,84,-497,164
,304,2023-10-27 12:31:32.31,586,-956,-1768,1268,576,-71,-359,-53,-306,206
,305,2023-10-27 12:31:32.32,575,-1007,-1746,1234,594,-74,-392,83,-475,154
,306,2023-10-27 12:31:32.33,573,-998,-1736,1214,599,-77,-341,-56,-285,198
,307,2023-10-27 12:31:32.34,577,-1034,-1754,1181,591,-74,-402,82,-484,160
,308,2023-10-27 12:31:32.35,582,-1018,-1732,1134,583,-67,-351,-55,-296,203
,309,2023-10-27 12:31:32.36,608,-1039,-1734,1087,575,-65,-410,77,-487,166
,310,2023-10-27 12:31:32.37,607,-1079,-1733,1033,558,-48,-341,-56,-285,198
,311,2023-10-27 12:31:32.38,607,-1065,-1694,989,560,-35,-408,74,-482,167
,312,2023-10-27 12:31:32.39,623,-1054,-1672,934,534,-21,-340,-52,-288,196
,313,2023-10-27 12:31:32.40,639,-1083,-1662,879,525,-5,-442,74,-516,184
,314,2023-10-27 12:31:32.41,654,-1102,-1659,836,516,12,-360,-49,-311,204
,315,2023-10-27 12:31:32.42,665,-1133,-1592,793,524,29,-431,74,-505,178
,316,2023-10-27 12:31:32.43,667,-1140,-1566,765,541,39,-336,-51,-285,193
,317,2023-10-27 12:31:32.44,677,-1146,-1603,752,522,53,-424,70,-494,177
,318,2023-10-27 12:31:32.45,679,-1173,-1604,732,516,82,-338,-55,-283,196
,319,2023-10-27 12:31:32.46,686,-1214,-1526,734,499,103,-428,76,-504,176
,320,2023-10-27 12:31:32.47,706,-1210,-1509,744,497,113,-336,-43,-293,189
,321,2023-10-27 12:31:32.48,706,-1238,-1459,766,496,125,-438,77,-515,180
,322,2023-10-27 12:31:32.49,706,-1190,-1467,800,491,122,-331,-52,-279,191
,323,2023-10-27 12:31:32.50,721,-1194,-1505,809,466,115,-436,61,-497,187
,324,2023-10-27 12:31:32.51,719,-1240,-1501,806,445,110,-328,-52,-276,190
,325,2023-10-27 12:31:32.52,747,-1261,-1475,795,442,101,-454,61,-515,196
,326,2023-10-27 12:31:32.53,751,-1270,-1446,780,452,87,-336,-48,-288,192
,327,2023-10-27 12:31:32.54,759,-1305,-1429,780,434,70,-445,58,-503,193
,328,2023-10-27 12:31:32.55,758,-1317,-1433,777,429,58,-322,-42,-280,182
,329,2023-10-27 12:31:32.56,761,-1309,-1455,757,418,43,-458,64,-522,197
,330,2023-10-27 12:31:32.57,760,-1306,-1468,702,386,31,-335,-35,-300,185
,331,2023-10-27 12:31:32.58,789,-1359,-1466,622,378,22,-442,62,-504,190
,332,2023-10-27 12:31:32.59,785,-1386,-1412,564,352,16,-307,-40,-267,173
,333,2023-10-27 12:31:32.60,787,-1383,-1409,525,330,15,-423,58,-481,182
,334,2023-10-27 12:31:32.61,795,-1395,-1397,487,303,15,-301,-31,-270,166
,335,2023-10-27 12:31:32.62,802,-1406,-1394,460,268,17,-457,57,-514,200
,336,2023-10-27 12:31:32.63,801,-1389,-1382,422,223,14,-326,-43,-283,184
,337,2023-10-27 12:31:32.64,802,-1402,-1372,369,197,12,-458,51,-509,203
,338,2023-10-27 12:31:32.65,789,-1419,-1377,326,183,9,-325,-32,-293,178
,339,2023-10-27 12:31:32.66,797,-1402,-1382,296,143,2,-497,61,-558,218
,340,2023-10-27 12:31:32.67,813,-1416,-1371,262,119,8,-361,-27,-334,194
,341,2023-10-27 12:31:32.68,824,-1435,-1326,228,103,9,-511,57,-568,227
,342,2023-10-27 12:31:32.69,822,-1441,-1321,192,88,14,-346,-21,-325,183
,343,2023-10-27 12:31:32.70,825,-1479,-1302,173,85,18,-493,55,-548,219
,344,2023-10-27 12:31:32.71,794,-1457,-1300,173,60,27,-332,-17,-315,174
,345,2023-10-27 12:31:32.72,808,-1437,-1316,148,18,36,-488,61,-549,213
,346,2023-10-27 12:31:32.73,809,-1482,-1318,119,3,29,-338,-7,-331,172
,347,2023-10-27 12:31:32.74,804,-1435,-1328,93,-2,26,-512,59,-571,226
,348,2023-10-27 12:31:32.75,826,-1418,-1336,73,-34,19,-348,-11,-337,179
,349,2023-10-27 12:31:32.76,808,-1461,-1322,47,-36,14,-498,60,-558,219
,350,2023-10-27 12:31:32.77,815,-1452,-1324,21,-62,13,-338,-5,-333,171
,351,2023-10-27 12:31:32.78,826,-1445,-1302,-3,-60,7,-523,60,-583,231
,352,2023-10-27 12:31:32.79,801,-1447,-1296,-15,-83,4,-363,2,-365,180
,353,2023-10-27 12:31:32.80,810,-1448,-1303,-29,-103,-2,-542,54,-596,244
,354,2023-10-27 12:31:32.81,803,-1435,-1306,-50,-113,-6,-372,5,-377,183
,355,2023-10-27 12:31:32.82,811,-1437,-1305,-77,-125,-14,-535,52,-587,241
,356,2023-10-27 12:31:32.83,812,-1440,-1306,-99,-127,-18,-342,6,-348,168
,357,2023-10-27 12:31:32.84,805,-1429,-1316,-120,-148,-20,-485,48,-533,218
,358,2023-10-27 12:31:32.85,813,-1440,-1308,-135,-163,-22,-323,8,-331,157
,359,2023-10-27 12:31:32.86,804,-1435,-1310,-155,-172,-29,-520,49,-569,235
,360,2023-10-27 12:31:32.87,804,-1426,-1314,-183,-186,-38,-364,12,-376,176
,361,2023-10-27 12:31:32.88,803,-1424,-1319,-210,-197,-52,-536,44,-580,246
,362,2023-10-27 12:31:32.89,799,-1415,-1328,-233,-211,-68,-352,11,-363,170
,363,2023-10-27 12:31:32.90,786,-1412,-1350,-260,-235,-79,-516,43,-559,236
,364,2023-10-27 12:31:32.91,786,-1400,-1344,-302,-260,-92,-326,11,-337,157
,365,2023-10-27 12:31:32.92,790,-1410,-1326,-367,-284,-97,-486,47,-533,219
,366,2023-10-27 12:31:32.93,810,-1455,-1340,-421,-292,-74,-318,23,-341,147
,367,2023-10-27 12:31:32.94,763,-1424,-1348,-457,-323,-62,-513,50,-563,231
,368,2023-10-27 12:31:32.95,792,-1448,-1361,-542,-340,-44,-330,25,-355,152
,369,2023-10-27 12:31:32.96,723,-1456,-1407,-588,-358,-39,-499,44,-543,227
,370,2023-10-27 12:31:32.97,729,-1388,-1439,-673,-382,-39,-314,35,-349,139
,371,2023-10-27 12:31:32.98,710,-1394,-1468,-758,-397,-39,-501,43,-544,229
,372,2023-10-27 12:31:32.99,695,-1348,-1469,-843,-409,-46,-328,35,-363,146
,373,2023-10-27 12:31:33.00,702,-1332,-1460,-923,-414,-61,-522,35,-557,243
,374,2023-10-27 12:31:33.01,706,-1323,-1476,-1007,-412,-81,-326,36,-362,145
,375,2023-10-27 12:31:33.02,733,-1278,-1450,-1100,-402,-93,-493,34,-527,229
,376,2023-10-27 12:31:33.03,722,-1290,-1432,-1180,-387,-101,-295,35,-330,130
,377,2023-10-27 12:31:33.04,719,-1277,-1492,-1251,-363,-111,-467,35,-502,216
,378,2023-10-27 12:31:33.05,730,-1277,-1523,-1311,-362,-116,-298,50,-348,124
,379,2023-10-27 12:31:33.06,713,-1229,-1522,-1366,-364,-118,-496,42,-538,227
,380,2023-10-27 12:31:33.07,739,-1185,-1541,-1412,-376,-118,-319,50,-369,134
,381,2023-10-27 12:31:33.08,726,-1141,-1562,-1450,-375,-129,-492,40,-532,226
,382,2023-10-27 12:31:33.09,720,-1102,-1601,-1480,-389,-155,-311,52,-363,129
,383,2023-10-27 12:31:33.10,760,-1076,-1644,-1503,-382,-172,-494,37,-531,228
,384,2023-10-27 12:31:33.11,701,-1039,-1676,-1501,-441,-188,-324,45,-369,139
,385,2023-10-27 12:31:33.12,710,-1021,-1699,-1498,-475,-195,-505,30,-535,237
,386,2023-10-27 12:31:33.13,705,-986,-1726,-1494,-509,-204,-329,55,-384,137
,387,2023-10-27 12:31:33.14,702,-948,-1776,-1491,-541,-208,-515,27,-542,244
,388,2023-10-27 12:31:33.15,686,-898,-1790,-1492,-574,-219,-339,63,-402,138
,389,2023-10-27 12:31:33.16,682,-886,-1795,-1490,-582,-233,-515,28,-543,243
,390,2023-10-27 12:31:33.17,690,-850,-1825,-1493,-588,-244,-332,62,-394,135
,391,2023-10-27 12:31:33.18,661,-814,-1811,-1487,-589,-254,-503,26,-529,238
,392,2023-10-27 12:31:33.19,657,-801,-1832,-1456,-601,-260,-321,62,-383,129
,393,2023-10-27 12:31:33.20,649,-765,-1854,-1422,-609,-260,-482,21,-503,230
,394,2023-10-27 12:31:33.21,632,-767,-1848,-1394,-608,-257,-325,58,-383,133
,395,2023-10-27 12:31:33.22,626,-722,-1886,-1332,-637,-250,-513,16,-529,248
,396,2023-10-27 12:31:33.23,606,-654,-1888,-1271,-675,-245,-355,62,-417,146
,397,2023-10-27 12:31:33.24,597,-623,-1918,-1233,-699,-243,-523,11,-534,256
,398,2023-10-27 12:31:33.25,600,-618,-1925,-1214,-715,-249,-348,64,-412,142
,399,2023-10-27 12:31:33.26,601,-595,-1929,-1189,-721,-252,-514,3,-517,255
,400,2023-10-27 12:31:33.27,573,-593,-1916,-1144,-741,-256,-336,64,-400,136
,401,2023-10-27 12:31:33.28,579,-570,-1945,-1096,-751,-258,-498,2,-500,248
,402,2023-10-27 12:31:33.29,568,-532,-1926,-1046,-764,-259,-328,67,-395,130
,403,2023-10-27 12:31:33.30,561,-545,-1936,-994,-788,-263,-492,3,-495,244
,404,2023-10-27 12:31:33.31,568,-534,-2007,-955,-781,-258,-336,72,-408,132
,405,2023-10-27 12:31:33.32,531,-510,-1954,-924,-800,-256,-496,0,-496,248
,406,2023-10-27 12:31:33.33,530,-498,-1918,-887,-795,-255,-340,68,-408,136
,407,2023-10-27 12:31:33.34,504,-466,-1961,-846,-785,-258,-495,-3,-492,249
,408,2023-10-27 12:31:33.35,477,-437,-1978,-822,-772,-256,-322,69,-391,126
,409,2023-10-27 12:31:33.36,467,-423,-2007,-806,-786,-251,-466,0,-466,233
,410,2023-10-27 12:31:33.37,426,-402,-1988,-806,-774,-247,-319,78,-397,120
,411,2023-10-27 12:31:33.38,429,-409,-2011,-773,-791,-238,-478,2,-480,238
,412,2023-10-27 12:31:33.39,415,-418,-1977,-709,-819,-234,-336,78,-414,129
,413,2023-10-27 12:31:33.40,411,-420,-2010,-647,-830,-224,-488,-7,-481,247
,414,2023-10-27 12:31:33.41,375,-374,-2018,-603,-835,-215,-329,74,-403,127
,415,2023-10-27 12:31:33.42,343,-359,-1980,-555,-832,-210,-468,-11,-457,239
,416,2023-10-27 12:31:33.43,354,-340,-1984,-516,-780,-215,-316,84,-400,116
,417,2023-10-27 12:31:33.44,307,-311,-2006,-496,-744,-220,-458,-10,-448,234
,418,2023-10-27 12:31:33.45,294,-330,-1952,-463,-741,-216,-320,85,-405,117
,419,2023-10-27 12:31:33.46,255,-323,-1946,-405,-717,-216,-464,-19,-445,241
,420,2023-10-27 12:31:33.47,237,-304,-1982,-335,-725,-207,-299,74,-373,112
,421,2023-10-27 12:31:33.48,216,-273,-2011,-291,-716,-200,-426,-31,-395,228
,422,2023-10-27 12:31:33.49,210,-277,-1972,-268,-701,-198,-254,76,-330,89
,423,2023-10-27 12:31:33.50,189,-264,-1957,-235,-676,-198,-386,-21,-365,203
,424,2023-10-27 12:31:33.51,183,-265,-1955,-183,-672,-202,-214,87,-301,63
,425,2023-10-27 12:31:33.52,154,-235,-2002,-135,-647,-202,-352,-14,-338,183
,426,2023-10-27 12:31:33.53,132,-233,-1999,-133,-627,-201,-188,95,-283,46
,427,2023-10-27 12:31:33.54,141,-247,-1965,-124,-588,-206,-333,-10,-323,171
,428,2023-10-27 12:31:33.55,107,-271,-1983,-101,-558,-206,-174,104,-278,35
,429,2023-10-27 12:31:33.56,102,-261,-2052,-74,-537,-197,-331,-10,-321,170
,430,2023-10-27 12:31:33.57,92,-255,-2004,-65,-505,-189,-188,105,-293,41
,431,2023-10-27 12:31:33.58,79,-254,-1972,-41,-469,-185,-349,-19,-330,184
,432,2023-10-27 12:31:33.59,72,-209,-2030,-20,-429,-190,-168,108,-276,30
,433,2023-10-27 12:31:33.60,88,-208,-2038,-4,-425,-188,-326,-17,-309,171
,434,2023-10-27 12:31:33.61,65,-175,-2073,-34,-363,-205,-152,109,-261,21
,435,2023-10-27 12:31:33.62,42,-183,-1998,-73,-326,-217,-340,-25,-315,182
,436,2023-10-27 12:31:33.63,76,-218,-1948,-78,-275,-234,-159,106,-265,26
,437,2023-10-27 12:31:33.64,35,-222,-1916,-29,-254,-251,-334,-31,-303,182
,438,2023-10-27 12:31:33.65,60,-240,-1885,87,-274,-248,-145,103,-248,21
,439,2023-10-27 12:31:33.66,31,-173,-2091,150,-246,-253,-321,-27,-294,174
,440,2023-10-27 12:31:33.67,27,-126,-2160,89,-197,-263,-101,108,-209,-3
,441,2023-10-27 12:31:33.68,32,-166,-2033,2,-153,-285,-292,-27,-265,159
,442,2023-10-27 12:31:33.69,5,-249,-1925,1,-127,-302,76,112,-36,-94
,443,2023-10-27 12:31:33.70,5,-249,-1946,91,-169,-300,35,-11,46,-12
,444,2023-10-27 12:31:33.71,-1,-190,-2024,136,-151,-289,188,127,61,-157
,445,2023-10-27 12:31:33.72,-7,-171,-2051,126,-123,-282,-39,-16,-23,27
,446,2023-10-27 12:31:33.73,0,-197,-2036,81,-79,-278,106,125,-19,-115
,447,2023-10-27 12:31:33.74,4,-259,-1931,47,-23,-278,-56,-22,-34,39
,448,2023-10-27 12:31:33.75,-2,-247,-2014,70,-47,-268,153,132,21,-142
,449,2023-10-27 12:31:33.76,-30,-223,-2019,77,-52,-271,-15,-20,5,17
,450,2023-10-27 12:31:33.77,-24,-207,-2064,72,-52,-270,126,140,-14,-133
,451,2023-10-27 12:31:33.78,-22,-220,-2006,49,-49,-258,-67,-26,-41,46
,452,2023-10-27 12:31:33.79,-42,-172,-2111,36,-36,-248,64,317,-253,-190
,453,2023-10-27 12:31:33.80,-35,-137,-2109,-37,-24,-222,-36,-62,26,49
,454,2023-10-27 12:31:33.81,-60,-183,-2103,-131,-45,-196,441,-30,471,-205
,455,2023-10-27 12:31:33.82,-58,-161,-2120,-221,-71,-176,35,-255,290,110
,456,2023-10-27 12:31:33.83,-34,-164,-2115,-302,-103,-158,25,-5,30,-10
,457,2023-10-27 12:31:33.84,-31,-178,-2097,-372,-123,-143,-314,-214,-100,264
,458,2023-10-27 12:31:33.85,-44,-216,-2101,-423,-129,-126,-62,-10,-52,36
,459,2023-10-27 12:31:33.86,-10,-267,-2034,-439,-104,-110,-282,-260,-22,271
,460,2023-10-27 12:31:33.87,-28,-268,-2099,-421,-93,-79,-32,-53,21,42
,461,2023-10-27 12:31:33.88,-16,-270,-2070,-407,-98,-49,-306,-298,-8,302
,462,2023-10-27 12:31:33.89,7,-247,-2028,-418,-59,-25,-74,-79,5,76
,463,2023-10-27 12:31:33.90,-12,-269,-2007,-384,-39,-15,-350,-332,-18,341
,464,2023-10-27 12:31:33.91,1,-256,-2012,-320,-31,3,-103,-109,6,106
,465,2023-10-27 12:31:33.92,-3,-227,-2052,-268,-30,24,-373,-360,-13,366
,466,2023-10-27 12:31:33.93,1,-206,-2002,-218,-31,38,-106,-118,12,112
,467,2023-10-27 12:31:33.94,11,-199,-2058,-192,12,58,-371,-362,-9,366
,468,2023-10-27 12:31:33.95,-32,-189,-2047,-176,5,74,-116,-128,12,122
,469,2023-10-27 12:31:33.96,8,-197,-1979,-146,35,82,-386,-375,-11,380
,470,2023-10-27 12:31:33.97,-31,-222,-1982,-70,-5,93,-128,-101,-27,114
,471,2023-10-27 12:31:33.98,23,-185,-2016,-1,-15,107,-465,1,-466,232
,472,2023-10-27 12:31:33.99,9,-199,-2013,40,1,112,-333,-665,332,499
,473,2023-10-27 12:31:34.00,14,-187,-1998,93,8,122,-659,-931,272,795
,474,2023-10-27 12:31:34.01,8,-213,-2004,163,16,136,-414,-757,343,585
,475,2023-10-27 12:31:34.02,-3,-231,-2015,232,14,155,-659,-416,-243,537
,476,2023-10-27 12:31:34.03,-7,-196,-2039,278,24,173,-385,8,-393,188
,477,2023-10-27 12:31:34.04,-20,-215,-2060,292,37,186,-644,48,-692,298
,478,2023-10-27 12:31:34.05,-30,-209,-2057,293,44,200,-381,185,-566,98
,479,2023-10-27 12:31:34.06,-31,-192,-2085,278,54,214,-638,41,-679,298
,480,2023-10-27 12:31:34.07,-21,-205,-2027,261,61,229,-368,162,-530,103
,481,2023-10-27 12:31:34.08,1,-198,-2032,263,78,234,-625,38,-663,293
,482,2023-10-27 12:31:34.09,-4,-203,-2013,263,98,234,-367,160,-527,103
,483,2023-10-27 12:31:34.10,3,-208,-2011,280,116,238,-630,45,-675,292
,484,2023-10-27 12:31:34.11,0,-192,-2011,286,131,247,-373,185,-558,94
,485,2023-10-27 12:31:34.12,3,-173,-2017,268,151,253,-635,70,-705,282
,486,2023-10-27 12:31:34.13,-4,-223,-2009,254,159,258,-364,194,-558,85
,487,2023-10-27 12:31:34.14,-27,-238,-2002,245,160,270,-623,63,-686,280
,488,2023-10-27 12:31:34.15,-1,-231,-2011,246,158,281,-360,203,-563,78
,489,2023-10-27 12:31:34.16,-2,-215,-2022,242,153,295,-631,78,-709,276
,490,2023-10-27 12:31:34.17,4,-207,-2009,221,164,299,-359,192,-551,83
,491,2023-10-27 12:31:34.18,14,-213,-1998,201,179,307,-619,55,-674,282
,492,2023-10-27 12:31:34.19,6,-214,-2021,190,178,306,-356,170,-526,93
,493,2023-10-27 12:31:34.20,18,-188,-2045,182,170,313,-620,53,-673,283
,494,2023-10-27 12:31:34.21,23,-181,-2035,162,164,315,-359,157,-516,101
,495,2023-10-27 12:31:34.22,15,-180,-2045,134,170,315,-616,43,-659,286
,496,2023-10-27 12:31:34.23,12,-168,-2070,95,172,317,-362,132,-494,115
,497,2023-10-27 12:31:34.24,6,-150,-2091,58,167,316,-621,27,-648,297
,498,2023-10-27 12:31:34.25,-2,-159,-2078,28,160,307,-374,134,-508,120
,499,2023-10-27 12:31:34.26,22,-147,-2086,17,141,303,-629,44,-673,292
,500,2023-10-27 12:31:34.27,24,-141,-2085,0,137,294,-362,144,-506,109
,501,2023-10-27 12:31:34.28,30,-114,-2098,-27,130,282,-612,44,-656,284
,502,2023-10-27 12:31:34.29,24,-135,-2099,-58,135,272,-362,154,-516,104
,503,2023-10-27 12:31:34.30,27,-135,-2076,-71,127,252,-622,60,-682,281
,504,2023-10-27 12:31:34.31,22,-132,-2104,-76,101,239,-376,164,-540,106
,505,2023-10-27 12:31:34.32,24,-122,-2097,-96,97,224,-620,72,-692,274
,506,2023-10-27 12:31:34.33,22,-110,-2105,-104,77,216,-376,162,-538,107
,507,2023-10-27 12:31:34.34,18,-117,-2114,-110,55,197,-620,70,-690,275
,508,2023-10-27 12:31:34.35,31,-60,-2115,-94,25,186,-383,141,-524,121
,509,2023-10-27 12:31:34.36,35,-93,-2091,-85,18,165,-623,58,-681,282
,510,2023-10-27 12:31:34.37,44,-70,-2099,-77,-5,150,-380,140,-520,120
,511,2023-10-27 12:31:34.38,25,-70,-2111,-76,-15,134,-618,67,-685,275
,512,2023-10-27 12:31:34.39,31,-71,-2103,-68,-39,114,-381,137,-518,122
,513,2023-10-27 12:31:34.40,22,-80,-2100,-60,-62,94,-615,66,-681,274
,514,2023-10-27 12:31:34.41,34,-91,-2075,-53,-87,80,-384,140,-524,122
,515,2023-10-27 12:31:34.42,30,-83,-2077,-40,-102,69,-615,70,-685,272
,516,2023-10-27 12:31:34.43,32,-94,-2072,-25,-111,59,-388,137,-525,125
,517,2023-10-27 12:31:34.44,35,-90,-2078,-8,-125,52,-611,71,-682,270
,518,2023-10-27 12:31:34.45,29,-103,-2071,7,-137,43,-382,130,-512,126
,519,2023-10-27 12:31:34.46,15,-118,-2079,23,-133,37,-598,77,-675,260
,520,2023-10-27 12:31:34.47,28,-146,-2069,50,-139,36,-396,143,-539,126
,521,2023-10-27 12:31:34.48,10,-153,-2088,81,-141,39,-612,98,-710,257
,522,2023-10-27 12:31:34.49,7,-173,-2085,109,-148,48,-401,157,-558,122
,523,2023-10-27 12:31:34.50,-2,-181,-2086,130,-150,61,-605,101,-706,252
,524,2023-10-27 12:31:34.51,-21,-187,-2080,150,-157,75,-390,144,-534,123
,525,2023-10-27 12:31:34.52,-7,-195,-2065,166,-161,88,-592,96,-688,248
,526,2023-10-27 12:31:34.53,-27,-199,-2070,181,-169,101,-391,148,-539,121
,527,2023-10-27 12:31:34.54,-21,-215,-2035,196,-175,117,-589,101,-690,244
,528,2023-10-27 12:31:34.55,-27,-199,-2046,210,-176,129,-395,138,-533,128
,529,2023-10-27 12:31:34.56,-19,-195,-2045,210,-170,145,-581,103,-684,239
,530,2023-10-27 12:31:34.57,-34,-209,-2002,199,-149,151,-397,144,-541,126
,531,2023-10-27 12:31:34.58,-55,-213,-2003,185,-137,155,-575,112,-687,231
,532,2023-10-27 12:31:34.59,-63,-194,-2012,170,-125,152,-397,128,-525,134
,533,2023-10-27 12:31:34.60,-57,-206,-2018,148,-112,150,-570,101,-671,234
,534,2023-10-27 12:31:34.61,-72,-217,-2024,131,-93,147,-401,120,-521,140
,535,2023-10-27 12:31:34.62,-80,-215,-2029,127,-76,145,-569,105,-674,232
,536,2023-10-27 12:31:34.63,-69,-206,-2021,122,-68,140,-390,129,-519,130
,537,2023-10-27 12:31:34.64,-61,-208,-2029,112,-54,126,-559,113,-672,223
,538,2023-10-27 12:31:34.65,-75,-213,-2032,99,-45,110,-406,125,-531,140
,539,2023-10-27 12:31:34.66,-67,-212,-2048,95,-33,89,-568,109,-677,229
,540,2023-10-27 12:31:34.67,-55,-205,-2053,93,-28,68,-404,126,-530,139
,541,2023-10-27 12:31:34.68,-55,-211,-2045,89,-16,44,-546,120,-666,213
,542,2023-10-27 12:31:34.69,-60,-217,-2064,92,-3,21,-401,132,-533,134
,543,2023-10-27 12:31:34.70,-54,-223,-2071,96,7,1,-544,128,-672,208
,544,2023-10-27 12:31:34.71,-50,-234,-2062,100,9,-15,-412,134,-546,139
,545,2023-10-27 12:31:34.72,-48,-254,-2052,102,14,-27,-540,140,-680,200
,546,2023-10-27 12:31:34.73,-50,-265,-2050,110,22,-29,-417,134,-551,141
,547,2023-10-27 12:31:34.74,-48,-259,-2051,119,18,-29,-538,145,-683,196
,548,2023-10-27 12:31:34.75,-45,-262,-2067,110,45,-28,-424,139,-563,142
,549,2023-10-27 12:31:34.76,-43,-274,-2042,86,64,-28,-536,151,-687,192
,550,2023-10-27 12:31:34.77,-24,-274,-2041,81,73,-24,-412,127,-539,142
,551,2023-10-27 12:31:34.78,-27,-287,-2023,71,126,-6,-518,134,-652,192
,552,2023-10-27 12:31:34.79,-24,-294,-2033,51,167,12,-425,116,-541,154
,553,2023-10-27 12:31:34.80,-19,-300,-1971,37,210,36,-527,136,-663,195
,554,2023-10-27 12:31:34.81,-10,-323,-1945,36,251,57,-441,111,-552,165
,555,2023-10-27 12:31:34.82,-22,-324,-1928,12,307,76,-524,140,-664,192
,556,2023-10-27 12:31:34.83,-1,-354,-1881,9,358,100,-446,111,-557,167
,557,2023-10-27 12:31:34.84,-12,-368,-1915,34,411,121,-526,148,-674,189
,558,2023-10-27 12:31:34.85,-36,-338,-1936,37,465,153,-304,73,-377,115
,559,2023-10-27 12:31:34.86,-28,-346,-1934,24,506,187,-586,45,-631,270
,560,2023-10-27 12:31:34.87,-10,-336,-1955,18,534,217,-1076,-4,-1072,540
,561,2023-10-27 12:31:34.88,-40,-323,-1994,-6,551,233,-1127,30,-1157,548
,562,2023-10-27 12:31:34.89,-25,-332,-1947,-38,569,254,-1163,-8,-1155,585
,563,2023-10-27 12:31:34.90,-33,-319,-2000,-59,585,274,-1008,25,-1033,491
,564,2023-10-27 12:31:34.91,-41,-266,-2106,-99,563,301,-1060,-17,-1043,538
,565,2023-10-27 12:31:34.92,-40,-283,-2127,-156,516,313,-987,24,-1011,481
,566,2023-10-27 12:31:34.93,-8,-262,-2156,-202,433,318,-1077,-10,-1067,543
,567,2023-10-27 12:31:34.94,23,-245,-2161,-257,377,316,-811,36,-847,387
,568,2023-10-27 12:31:34.95,51,-256,-2173,-307,323,314,-727,-10,-717,368
,569,2023-10-27 12:31:34.96,81,-248,-2153,-347,276,312,-412,33,-445,189
,570,2023-10-27 12:31:34.97,101,-226,-2123,-363,242,306,-386,-15,-371,200
,571,2023-10-27 12:31:34.98,124,-229,-2109,-371,197,296,-170,36,-206,67
,572,2023-10-27 12:31:34.99,129,-217,-2098,-381,179,282,-200,-20,-180,110
,573,2023-10-27 12:31:35.00,183,-159,-2080,-381,166,260,-76,37,-113,19
,574,2023-10-27 12:31:35.01,161,-185,-2102,-376,155,238,-192,-29,-163,110
,575,2023-10-27 12:31:35.02,164,-149,-2063,-379,160,213,-80,31,-111,24
,576,2023-10-27 12:31:35.03,171,-175,-2051,-378,169,186,-162,-38,-124,100
,577,2023-10-27 12:31:35.04,166,-160,-2043,-363,168,160,-28,35,-63,-3
,578,2023-10-27 12:31:35.05,174,-143,-2036,-343,165,135,-112,-41,-71,76
,579,2023-10-27 12:31:35.06,170,-148,-2008,-322,175,109,-20,25,-45,-2
,580,2023-10-27 12:31:35.07,173,-167,-2037,-300,169,87,-137,-38,-99,87
,581,2023-10-27 12:31:35.08,184,-138,-2026,-289,176,69,-8,48,-56,-20
,582,2023-10-27 12:31:35.09,197,-130,-2010,-273,170,51,-119,-19,-100,69
,583,2023-10-27 12:31:35.10,202,-140,-2014,-258,182,34,-5,64,-69,-29
,584,2023-10-27 12:31:35.11,206,-132,-2015,-250,182,22,-145,-31,-114,88
,585,2023-10-27 12:31:35.12,221,-141,-2009,-239,171,12,-20,46,-66,-13
,586,2023-10-27 12:31:35.13,227,-142,-2003,-226,172,7,-112,-27,-85,69
,587,2023-10-27 12:31:35.14,238,-142,-1995,-210,178,2,27,63,-36,-45
,588,2023-10-27 12:31:35.15,252,-157,-1990,-188,174,1,-102,-30,-72,66
,589,2023-10-27 12:31:35.16,285,-131,-2024,-158,161,-4,24,62,-38,-43
,590,2023-10-27 12:31:35.17,250,-178,-2029,-131,164,-9,-97,-28,-69,62
,591,2023-10-27 12:31:35.18,253,-144,-2025,-106,150,-1,23,72,-49,-47
,592,2023-10-27 12:31:35.19,256,-121,-2039,-90,141,1,-107,-19,-88,63
,593,2023-10-27 12:31:35.20,256,-135,-2063,-79,131,-1,34,76,-42,-55
,594,2023-10-27 12:31:35.21,259,-120,-2070,-74,113,-7,-78,-16,-62,47
,595,2023-10-27 12:31:35.22,257,-127,-2088,-52,86,0,76,81,-5,-78
,596,2023-10-27 12:31:35.23,264,-130,-2086,-39,68,2,-46,-10,-36,28
,597,2023-10-27 12:31:35.24,272,-136,-2084,-28,59,3,94,88,6,-91
,598,2023-10-27 12:31:35.25,274,-139,-2082,-13,48,3,-56,-19,-37,37
,599,2023-10-27 12:31:35.26,267,-157,-2082,11,34,4,88,80,8,-84
,600,2023-10-27 12:31:35.27,300,-169,-2068,40,24,9,-53,-23,-30,38
,601,2023-10-27 12:31:35.28,294,-185,-2045,73,29,10,84,89,-5,-86
,602,2023-10-27 12:31:35.29,299,-189,-2051,119,39,12,-70,-24,-46,47
