// Data mode  : Full
// Data quality  : High
// Acceleration sensor's range  : 16g
// Gyroscope sensor's range  : 2000dps
//
//ARTIFACT,NUM,DATE,ACC_X,ACC_Y,ACC_Z,GYRO_X,GYRO_Y,GYRO_Z,EOG_L,EOG_R,EOG_H,EOG_V
,1,2023-10-27 11:44:03.90,-397,341,-1966,67,20,-3,188,33,155,-110
,2,2023-10-27 11:44:03.91,-393,348,-1964,64,33,1,242,17,225,-129
,3,2023-10-27 11:44:03.92,-379,345,-1963,66,43,-3,180,-37,217,-71
,4,2023-10-27 11:44:03.93,-376,344,-1958,68,50,-9,246,-52,298,-97
,5,2023-10-27 11:44:03.94,-376,345,-1967,74,56,-9,181,-82,263,-49
,6,2023-10-27 11:44:03.95,-368,346,-1969,81,50,-11,245,-74,319,-85
,7,2023-10-27 11:44:03.96,-376,350,-1976,83,56,-13,180,-75,255,-52
,8,2023-10-27 11:44:03.97,-377,346,-1975,82,52,-17,249,-31,280,-109
,9,2023-10-27 11:44:03.98,-377,345,-1985,81,53,-16,173,-45,218,-64
,10,2023-10-27 11:44:03.99,-384,344,-1979,81,44,-20,257,-36,293,-110
,11,2023-10-27 11:44:04.00,-384,343,-1981,77,43,-18,176,-92,268,-42
,12,2023-10-27 11:44:04.01,-387,343,-1979,71,47,-17,254,-84,338,-85
,13,2023-10-27 11:44:04.02,-376,347,-1974,67,44,-23,171,-107,278,-32
,14,2023-10-27 11:44:04.03,-373,345,-1974,64,43,-23,254,-51,305,-101
,15,2023-10-27 11:44:04.04,-369,342,-1975,61,43,-27,165,-66,231,-49
,16,2023-10-27 11:44:04.05,-371,346,-1976,56,44,-31,260,-1,261,-129
,17,2023-10-27 11:44:04.06,-379,349,-1980,55,38,-33,164,-46,210,-59
,18,2023-10-27 11:44:04.07,-367,342,-1978,49,41,-43,258,-2,260,-128
,19,2023-10-27 11:44:04.08,-375,337,-1985,45,44,-44,165,-53,218,-56
,20,2023-10-27 11:44:04.09,-381,343,-1987,41,37,-44,256,5,251,-130
,21,2023-10-27 11:44:04.10,-361,333,-1977,39,41,-42,146,-40,186,-53
,22,2023-10-27 11:44:04.11,-365,322,-1978,35,40,-42,243,34,209,-138
,23,2023-10-27 11:44:04.12,-377,324,-1977,32,43,-43,133,-21,154,-56
,24,2023-10-27 11:44:04.13,-365,322,-1978,32,38,-41,245,55,190,-150
,25,2023-10-27 11:44:04.14,-355,315,-1984,32,41,-38,126,-29,155,-48
,26,2023-10-27 11:44:04.15,-372,320,-1976,32,39,-39,233,47,186,-140
,27,2023-10-27 11:44:04.16,-346,319,-1990,33,37,-37,112,-24,136,-44
,28,2023-10-27 11:44:04.17,-365,327,-1994,33,36,-34,232,70,162,-151
,29,2023-10-27 11:44:04.18,-351,322,-1991,34,35,-26,124,-10,134,-57
,30,2023-10-27 11:44:04.19,-366,321,-1993,33,36,-22,245,46,199,-145
,31,2023-10-27 11:44:04.20,-351,315,-1996,34,39,-20,126,-58,184,-34
,32,2023-10-27 11:44:04.21,-368,318,-1990,38,30,-23,256,21,235,-138
,33,2023-10-27 11:44:04.22,-360,318,-1994,41,28,-22,126,-55,181,-35
,34,2023-10-27 11:44:04.23,-355,313,-1991,46,25,-16,257,41,216,-149
,35,2023-10-27 11:44:04.24,-353,315,-1990,47,27,-13,137,-41,178,-48
,36,2023-10-27 11:44:04.25,-366,312,-1989,51,28,-11,267,55,212,-161
,37,2023-10-27 11:44:04.26,-355,320,-1992,53,24,-16,132,-41,173,-45
,38,2023-10-27 11:44:04.27,-354,319,-1985,55,18,-16,263,47,216,-155
,39,2023-10-27 11:44:04.28,-364,318,-1987,59,21,-18,134,-53,187,-40
,40,2023-10-27 11:44:04.29,-358,323,-1978,57,23,-24,268,41,227,-154
,41,2023-10-27 11:44:04.30,-356,315,-1983,55,24,-27,133,-49,182,-42
,42,2023-10-27 11:44:04.31,-352,321,-1988,55,27,-34,277,61,216,-169
,43,2023-10-27 11:44:04.32,-361,313,-1989,57,25,-32,137,-33,170,-52
,44,2023-10-27 11:44:04.33,-357,320,-1985,55,15,-41,270,67,203,-168
,45,2023-10-27 11:44:04.34,-361,323,-1990,50,18,-40,136,-34,170,-51
,46,2023-10-27 11:44:04.35,-360,318,-1997,44,14,-47,280,80,200,-180
,47,2023-10-27 11:44:04.36,-355,321,-2005,42,13,-48,138,-24,162,-57
,48,2023-10-27 11:44:04.37,-356,316,-2000,43,5,-50,289,91,198,-190
,49,2023-10-27 11:44:04.38,-365,318,-1999,42,-5,-55,140,-19,159,-60
,50,2023-10-27 11:44:04.39,-361,320,-1993,34,7,-58,282,91,191,-186
,51,2023-10-27 11:44:04.40,-356,304,-1990,24,5,-64,136,-25,161,-55
,52,2023-10-27 11:44:04.41,-343,306,-1966,23,23,-63,285,95,190,-190
,53,2023-10-27 11:44:04.42,-364,295,-1978,29,13,-69,134,-22,156,-56
,54,2023-10-27 11:44:04.43,-361,281,-1996,36,4,-72,287,95,192,-191
,55,2023-10-27 11:44:04.44,-360,285,-1998,47,-2,-73,136,-24,160,-56
,56,2023-10-27 11:44:04.45,-358,303,-1989,52,-2,-77,282,96,186,-189
,57,2023-10-27 11:44:04.46,-336,312,-1982,47,12,-84,128,-34,162,-47
,58,2023-10-27 11:44:04.47,-360,315,-1989,41,20,-95,279,81,198,-180
,59,2023-10-27 11:44:04.48,-359,312,-1997,48,29,-102,130,-52,182,-39
,60,2023-10-27 11:44:04.49,-360,309,-2001,56,13,-111,282,-13,295,-134
,61,2023-10-27 11:44:04.50,-361,298,-1995,60,9,-123,126,-177,303,25
,62,2023-10-27 11:44:04.51,-364,295,-1987,62,5,-127,262,-77,339,-92
,63,2023-10-27 11:44:04.52,-354,296,-1994,55,-1,-136,106,-171,277,32
,64,2023-10-27 11:44:04.53,-369,303,-2004,54,-2,-147,254,-57,311,-98
,65,2023-10-27 11:44:04.54,-366,301,-1989,53,-9,-156,106,-173,279,33
,66,2023-10-27 11:44:04.55,-368,303,-1989,47,-15,-165,237,-84,321,-76
,67,2023-10-27 11:44:04.56,-356,312,-1987,41,-10,-174,94,-197,291,51
,68,2023-10-27 11:44:04.57,-370,302,-1989,35,-8,-184,236,-81,317,-77
,69,2023-10-27 11:44:04.58,-366,291,-1986,33,-9,-195,111,-166,277,27
,70,2023-10-27 11:44:04.59,-365,285,-1987,28,-16,-203,278,-16,294,-131
,71,2023-10-27 11:44:04.60,-380,285,-2000,28,-13,-213,156,-97,253,-29
,72,2023-10-27 11:44:04.61,-375,267,-2002,25,-18,-216,326,47,279,-186
,73,2023-10-27 11:44:04.62,-377,270,-1996,24,-26,-221,194,-61,255,-66
,74,2023-10-27 11:44:04.63,-381,257,-2000,24,-18,-214,340,45,295,-192
,75,2023-10-27 11:44:04.64,-378,241,-2015,22,-21,-213,207,-82,289,-62
,76,2023-10-27 11:44:04.65,-383,239,-2004,19,-25,-206,359,52,307,-205
,77,2023-10-27 11:44:04.66,-385,233,-2003,25,-24,-193,217,-80,297,-68
,78,2023-10-27 11:44:04.67,-377,222,-2006,31,-40,-188,369,-12,381,-178
,79,2023-10-27 11:44:04.68,-376,227,-1999,34,-55,-183,221,-159,380,-31
,80,2023-10-27 11:44:04.69,-391,238,-1993,41,-53,-168,361,-35,396,-163
,81,2023-10-27 11:44:04.70,-374,239,-1981,42,-58,-164,208,-138,346,-35
,82,2023-10-27 11:44:04.71,-378,247,-1989,38,-55,-155,344,6,338,-175
,83,2023-10-27 11:44:04.72,-385,261,-1981,25,-52,-155,196,-96,292,-50
,84,2023-10-27 11:44:04.73,-374,265,-1976,18,-36,-152,329,34,295,-181
,85,2023-10-27 11:44:04.74,-378,254,-1975,15,-40,-148,190,-87,277,-51
,86,2023-10-27 11:44:04.75,-386,258,-1990,8,-35,-146,319,36,283,-177
,87,2023-10-27 11:44:04.76,-386,247,-1982,3,-37,-145,176,-89,265,-43
,88,2023-10-27 11:44:04.77,-390,248,-1985,-1,-30,-140,307,42,265,-174
,89,2023-10-27 11:44:04.78,-391,246,-1983,-5,-36,-137,170,-75,245,-47
,90,2023-10-27 11:44:04.79,-385,252,-1976,-9,-33,-141,292,47,245,-169
,91,2023-10-27 11:44:04.80,-381,247,-1977,-13,-30,-134,163,-68,231,-47
,92,2023-10-27 11:44:04.81,-392,245,-1974,-15,-33,-138,280,53,227,-166
,93,2023-10-27 11:44:04.82,-388,248,-1976,-15,-21,-136,151,-62,213,-44
,94,2023-10-27 11:44:04.83,-374,251,-1986,-9,-21,-144,278,68,210,-173
,95,2023-10-27 11:44:04.84,-370,263,-1980,-3,-21,-168,157,-49,206,-54
,96,2023-10-27 11:44:04.85,-350,295,-1955,13,-15,-198,274,53,221,-163
,97,2023-10-27 11:44:04.86,-343,355,-1943,33,1,-256,157,-83,240,-37
,98,2023-10-27 11:44:04.87,-335,398,-1935,33,15,-342,264,-9,273,-127
,99,2023-10-27 11:44:04.88,-351,414,-1958,27,57,-428,147,-130,277,-8
,100,2023-10-27 11:44:04.89,-353,408,-1966,9,94,-506,257,-11,268,-123
,101,2023-10-27 11:44:04.90,-342,394,-1976,-10,138,-583,145,-108,253,-18
,102,2023-10-27 11:44:04.91,-358,345,-1996,-24,173,-646,252,9,243,-130
,103,2023-10-27 11:44:04.92,-362,282,-2014,-40,204,-701,154,-72,226,-41
,104,2023-10-27 11:44:04.93,-362,235,-2018,-50,223,-753,254,34,220,-144
,105,2023-10-27 11:44:04.94,-350,211,-2012,-45,231,-793,156,-66,222,-45
,106,2023-10-27 11:44:04.95,-368,184,-2015,-29,212,-832,267,52,215,-159
,107,2023-10-27 11:44:04.96,-337,177,-2013,0,194,-865,172,-63,235,-54
,108,2023-10-27 11:44:04.97,-352,183,-2013,26,176,-897,273,41,232,-157
,109,2023-10-27 11:44:04.98,-363,181,-2014,49,156,-918,191,-50,241,-70
,110,2023-10-27 11:44:04.99,-382,162,-2015,69,133,-936,286,51,235,-168
,111,2023-10-27 11:44:05.00,-398,154,-2038,83,90,-941,214,-29,243,-92
,112,2023-10-27 11:44:05.01,-418,151,-2064,82,41,-941,293,65,228,-179
,113,2023-10-27 11:44:05.02,-443,152,-2054,64,4,-934,212,-42,254,-85
,114,2023-10-27 11:44:05.03,-443,156,-2059,34,-44,-924,274,40,234,-157
,115,2023-10-27 11:44:05.04,-445,161,-2061,-5,-86,-911,190,-34,224,-78
,116,2023-10-27 11:44:05.05,-460,168,-2055,-47,-129,-890,249,52,197,-150
,117,2023-10-27 11:44:05.06,-449,195,-2047,-90,-174,-874,173,-32,205,-70
,118,2023-10-27 11:44:05.07,-446,204,-2035,-132,-208,-858,240,48,192,-144
,119,2023-10-27 11:44:05.08,-434,208,-2008,-174,-234,-845,170,-44,214,-63
,120,2023-10-27 11:44:05.09,-448,216,-2008,-214,-248,-844,235,39,196,-137
,121,2023-10-27 11:44:05.10,-443,224,-1992,-246,-247,-843,174,-25,199,-74
,122,2023-10-27 11:44:05.11,-441,211,-1974,-269,-251,-845,224,53,171,-138
,123,2023-10-27 11:44:05.12,-446,192,-1956,-289,-230,-845,174,-35,209,-69
,124,2023-10-27 11:44:05.13,-451,190,-1971,-297,-210,-846,219,5,214,-112
,125,2023-10-27 11:44:05.14,-449,169,-1952,-301,-202,-848,164,-77,241,-43
,126,2023-10-27 11:44:05.15,-461,171,-1949,-292,-188,-844,208,-16,224,-96
,127,2023-10-27 11:44:05.16,-463,145,-1939,-282,-160,-833,171,-57,228,-57
,128,2023-10-27 11:44:05.17,-481,116,-1944,-272,-141,-820,207,12,195,-109
,129,2023-10-27 11:44:05.18,-464,117,-1966,-251,-131,-803,173,-69,242,-52
,130,2023-10-27 11:44:05.19,-478,110,-1961,-227,-108,-783,204,-46,250,-79
,131,2023-10-27 11:44:05.20,-481,112,-1937,-198,-94,-765,174,-189,363,7
,132,2023-10-27 11:44:05.21,-497,107,-1943,-177,-72,-749,199,-197,396,-1
,133,2023-10-27 11:44:05.22,-493,108,-1944,-154,-55,-726,185,-270,455,42
,134,2023-10-27 11:44:05.23,-547,-132,-1729,-86,-100,-717,204,-194,398,-5
,135,2023-10-27 11:44:05.24,-502,149,-1969,-47,7,-664,192,-252,444,30
,136,2023-10-27 11:44:05.25,-486,221,-2083,-61,-43,-616,211,-213,424,1
,137,2023-10-27 11:44:05.26,-509,51,-1914,-63,-30,-603,203,-339,542,68
,138,2023-10-27 11:44:05.27,-499,36,-1950,-65,17,-556,202,-343,545,70
,139,2023-10-27 11:44:05.28,-517,39,-1951,-57,49,-524,200,-447,647,123
,140,2023-10-27 11:44:05.29,-512,16,-1958,-30,43,-497,196,-405,601,104
,141,2023-10-27 11:44:05.30,-534,16,-1973,6,29,-456,203,-596,799,196
,142,2023-10-27 11:44:05.31,-539,34,-1977,45,12,-420,196,-635,831,219
,143,2023-10-27 11:44:05.32,-539,18,-1969,64,2,-382,210,-816,1026,303
,144,2023-10-27 11:44:05.33,-546,46,-1974,61,0,-349,193,-797,990,302
,145,2023-10-27 11:44:05.34,-540,56,-1978,50,-10,-315,213,-808,1021,297
,146,2023-10-27 11:44:05.35,-546,70,-1980,38,-9,-282,193,-678,871,242
,147,2023-10-27 11:44:05.36,-552,78,-1985,26,-10,-249,232,-907,1139,337
,148,2023-10-27 11:44:05.37,-542,96,-1961,8,-10,-223,191,-965,1156,387
,149,2023-10-27 11:44:05.38,-541,99,-1958,-4,-15,-203,221,-1157,1378,468
,150,2023-10-27 11:44:05.39,-527,105,-1936,-23,4,-186,179,-1098,1277,459
,151,2023-10-27 11:44:05.40,-536,96,-1941,-32,2,-179,232,-1185,1417,476
,152,2023-10-27 11:44:05.41,-535,95,-1949,-47,26,-168,185,-1079,1264,447
,153,2023-10-27 11:44:05.42,-517,92,-1936,-54,36,-161,217,-1182,1399,482
,154,2023-10-27 11:44:05.43,-511,91,-1934,-59,41,-152,180,-1076,1256,448
,155,2023-10-27 11:44:05.44,-522,89,-1941,-62,62,-137,241,-1169,1410,464
,156,2023-10-27 11:44:05.45,-531,83,-1956,-62,74,-129,182,-1076,1258,447
,157,2023-10-27 11:44:05.46,-510,86,-1952,-62,89,-123,235,-1185,1420,475
,158,2023-10-27 11:44:05.47,-493,90,-1947,-57,103,-112,175,-1081,1256,453
,159,2023-10-27 11:44:05.48,-502,84,-1961,-53,114,-106,246,-1168,1414,461
,160,2023-10-27 11:44:05.49,-486,84,-1960,-46,133,-102,186,-1063,1249,438
,161,2023-10-27 11:44:05.50,-487,94,-1964,-32,141,-97,259,-1168,1427,454
,162,2023-10-27 11:44:05.51,-486,100,-1977,-17,154,-99,179,-1077,1256,449
,163,2023-10-27 11:44:05.52,-473,117,-1969,-1,172,-98,250,-1181,1431,465
,164,2023-10-27 11:44:05.53,-482,113,-1978,3,191,-95,178,-1070,1248,446
,165,2023-10-27 11:44:05.54,-481,124,-1983,6,201,-99,272,-1154,1426,441
,166,2023-10-27 11:44:05.55,-478,129,-1986,14,221,-105,187,-1052,1239,432
,167,2023-10-27 11:44:05.56,-473,125,-1998,28,222,-106,260,-1161,1421,450
,168,2023-10-27 11:44:05.57,-455,130,-2003,39,221,-116,167,-1072,1239,452
,169,2023-10-27 11:44:05.58,-453,150,-1994,43,242,-115,250,-1175,1425,462
,170,2023-10-27 11:44:05.59,-453,166,-1984,35,245,-116,158,-1070,1228,456
,171,2023-10-27 11:44:05.60,-448,194,-1980,19,245,-120,251,-1157,1408,453
,172,2023-10-27 11:44:05.61,-453,206,-1981,14,252,-121,155,-1051,1206,448
,173,2023-10-27 11:44:05.62,-432,198,-1986,11,243,-114,243,-1148,1391,452
,174,2023-10-27 11:44:05.63,-451,180,-1983,-1,235,-111,140,-1064,1204,462
,175,2023-10-27 11:44:05.64,-459,176,-1997,-17,234,-93,232,-1175,1407,471
,176,2023-10-27 11:44:05.65,-454,176,-1998,-36,214,-80,128,-1084,1212,478
,177,2023-10-27 11:44:05.66,-460,162,-2004,-49,203,-56,221,-1177,1398,478
,178,2023-10-27 11:44:05.67,-467,163,-2018,-52,164,-35,126,-1069,1195,471
,179,2023-10-27 11:44:05.68,-457,176,-2007,-56,127,-17,234,-1160,1394,463
,180,2023-10-27 11:44:05.69,-465,191,-2005,-50,101,3,135,-1066,1201,465
,181,2023-10-27 11:44:05.70,-447,195,-1989,-47,83,18,245,-1160,1405,457
,182,2023-10-27 11:44:05.71,-453,225,-1987,-56,58,27,139,-1069,1208,465
,183,2023-10-27 11:44:05.72,-440,248,-1971,-65,62,38,259,-1162,1421,451
,184,2023-10-27 11:44:05.73,-423,278,-1959,-84,54,39,151,-1069,1220,459
,185,2023-10-27 11:44:05.74,-423,291,-1952,-99,82,35,269,-1160,1429,445
,186,2023-10-27 11:44:05.75,-436,294,-1960,-111,83,32,155,-1076,1231,460
,187,2023-10-27 11:44:05.76,-432,292,-1970,-119,81,25,286,-1171,1457,442
,188,2023-10-27 11:44:05.77,-433,284,-1969,-116,87,25,176,-1077,1253,450
,189,2023-10-27 11:44:05.78,-432,274,-1986,-117,79,27,305,-1157,1462,426
,190,2023-10-27 11:44:05.79,-423,274,-1990,-114,76,20,178,-1067,1245,444
,191,2023-10-27 11:44:05.80,-427,264,-2002,-105,90,23,296,-1156,1452,430
,192,2023-10-27 11:44:05.81,-420,256,-1995,-94,85,19,169,-1076,1245,453
,193,2023-10-27 11:44:05.82,-426,266,-2009,-82,101,20,313,-1164,1477,425
,194,2023-10-27 11:44:05.83,-410,264,-2002,-70,103,24,178,-1087,1265,454
,195,2023-10-27 11:44:05.84,-395,254,-2002,-52,99,22,328,-1161,1489,416
,196,2023-10-27 11:44:05.85,-403,252,-1991,-37,123,28,192,-1078,1270,443
,197,2023-10-27 11:44:05.86,-382,251,-1982,-13,127,32,328,-1152,1480,412
,198,2023-10-27 11:44:05.87,-379,241,-1994,9,138,32,190,-1084,1274,447
,199,2023-10-27 11:44:05.88,-389,231,-1996,35,148,36,327,-1161,1488,417
,200,2023-10-27 11:44:05.89,-377,218,-1983,63,145,36,189,-1081,1270,446
,201,2023-10-27 11:44:05.90,-364,210,-1984,97,159,40,338,-1144,1482,403
,202,2023-10-27 11:44:05.91,-375,190,-1988,125,173,47,195,-1074,1269,439
,203,2023-10-27 11:44:05.92,-372,170,-2009,151,176,55,333,-1145,1478,406
,204,2023-10-27 11:44:05.93,-357,161,-2014,182,183,66,188,-1083,1271,447
,205,2023-10-27 11:44:05.94,-360,156,-2022,207,185,82,326,-1140,1466,407
,206,2023-10-27 11:44:05.95,-343,143,-2013,258,184,107,184,-1077,1261,446
,207,2023-10-27 11:44:05.96,-335,138,-2013,284,193,118,331,-1142,1473,405
,208,2023-10-27 11:44:05.97,-333,127,-2001,303,187,133,183,-1080,1263,448
,209,2023-10-27 11:44:05.98,-346,109,-2003,315,192,148,322,-1135,1457,406
,210,2023-10-27 11:44:05.99,-330,98,-2004,331,196,165,179,-1072,1251,446
,211,2023-10-27 11:44:06.00,-332,89,-2011,344,187,180,317,-1120,1437,401
,212,2023-10-27 11:44:06.01,-340,76,-2003,354,190,198,175,-1072,1247,448
,213,2023-10-27 11:44:06.02,-326,68,-2006,362,177,217,323,-1133,1456,405
,214,2023-10-27 11:44:06.03,-322,72,-2025,373,164,235,176,-1088,1264,456
,215,2023-10-27 11:44:06.04,-323,74,-2019,377,162,255,313,-1141,1454,414
,216,2023-10-27 11:44:06.05,-312,61,-2022,380,153,272,165,-1093,1258,464
,217,2023-10-27 11:44:06.06,-318,49,-2030,380,139,289,303,-1133,1436,415
,218,2023-10-27 11:44:06.07,-321,45,-2033,384,128,303,151,-1088,1239,468
,219,2023-10-27 11:44:06.08,-305,38,-2043,388,111,317,296,-1120,1416,412
,220,2023-10-27 11:44:06.09,-307,25,-2047,385,120,337,154,-1078,1232,462
,221,2023-10-27 11:44:06.10,-306,14,-2036,376,123,354,300,-1114,1414,407
,222,2023-10-27 11:44:06.11,-304,2,-2034,374,121,371,163,-1073,1236,455
,223,2023-10-27 11:44:06.12,-273,8,-2054,370,118,388,303,-1108,1411,402
,224,2023-10-27 11:44:06.13,-277,13,-2025,362,117,400,157,-1081,1238,462
,225,2023-10-27 11:44:06.14,-265,9,-2010,346,119,420,289,-1117,1406,414
,226,2023-10-27 11:44:06.15,-268,8,-2026,327,131,435,148,-1093,1241,472
,227,2023-10-27 11:44:06.16,-252,14,-2019,309,138,455,283,-1120,1403,418
,228,2023-10-27 11:44:06.17,-239,22,-2006,289,157,471,146,-1098,1244,476
,229,2023-10-27 11:44:06.18,-241,28,-1998,258,170,482,288,-1124,1412,418
,230,2023-10-27 11:44:06.19,-231,34,-2008,219,214,495,144,-1113,1257,484
,231,2023-10-27 11:44:06.20,-222,44,-2018,177,227,504,276,-1134,1410,429
,232,2023-10-27 11:44:06.21,-220,58,-2035,138,252,516,145,-1122,1267,488
,233,2023-10-27 11:44:06.22,-224,53,-2053,105,259,536,285,-1139,1424,427
,234,2023-10-27 11:44:06.23,-226,47,-2076,79,245,554,136,-1119,1255,491
,235,2023-10-27 11:44:06.24,-221,35,-2085,52,231,578,257,-1127,1384,435
,236,2023-10-27 11:44:06.25,-219,22,-2093,32,209,609,130,-1115,1245,492
,237,2023-10-27 11:44:06.26,-210,5,-2078,12,196,641,263,-1125,1388,431
,238,2023-10-27 11:44:06.27,-188,9,-2068,-13,177,679,136,-1123,1259,493
,239,2023-10-27 11:44:06.28,-195,8,-2014,-44,195,717,270,-1131,1401,430
,240,2023-10-27 11:44:06.29,-168,5,-1997,-60,192,750,146,-1128,1274,491
,241,2023-10-27 11:44:06.30,-152,17,-2005,-64,207,779,274,-1133,1407,429
,242,2023-10-27 11:44:06.31,-147,26,-1977,-56,206,801,147,-1142,1289,497
,243,2023-10-27 11:44:06.32,-146,37,-1979,-43,208,816,269,-1143,1412,437
,244,2023-10-27 11:44:06.33,-126,38,-1977,-24,211,827,155,-1148,1303,496
,245,2023-10-27 11:44:06.34,-127,50,-1984,5,218,829,278,-1138,1416,430
,246,2023-10-27 11:44:06.35,-130,40,-1994,36,224,827,155,-1139,1294,492
,247,2023-10-27 11:44:06.36,-130,40,-2007,71,226,828,274,-1131,1405,428
,248,2023-10-27 11:44:06.37,-158,28,-2041,103,215,825,145,-1154,1299,504
,249,2023-10-27 11:44:06.38,-147,12,-2048,141,196,824,260,-1150,1410,445
,250,2023-10-27 11:44:06.39,-158,10,-2075,176,186,823,143,-1169,1312,513
,251,2023-10-27 11:44:06.40,-146,6,-2091,193,192,817,256,-1146,1402,445
,252,2023-10-27 11:44:06.41,-142,13,-2103,200,203,813,136,-1164,1300,514
,253,2023-10-27 11:44:06.42,-157,-7,-2099,216,200,811,252,-1139,1391,443
,254,2023-10-27 11:44:06.43,-125,-9,-2109,236,200,808,135,-1155,1290,510
,255,2023-10-27 11:44:06.44,-122,-1,-2068,267,175,810,246,-1101,1347,427
,256,2023-10-27 11:44:06.45,-114,2,-2046,282,190,801,144,-1104,1248,480
,257,2023-10-27 11:44:06.46,-109,-10,-2036,294,202,784,246,-1051,1297,402
,258,2023-10-27 11:44:06.47,-101,-11,-2029,314,206,761,133,-1077,1210,472
,259,2023-10-27 11:44:06.48,-103,-19,-2026,342,199,738,239,-1012,1251,386
,260,2023-10-27 11:44:06.49,-102,-18,-2018,372,195,715,134,-1036,1170,451
,261,2023-10-27 11:44:06.50,-111,-29,-2029,385,201,688,230,-962,1192,366
,262,2023-10-27 11:44:06.51,-102,-46,-2017,396,212,667,134,-979,1113,422
,263,2023-10-27 11:44:06.52,-116,-67,-2037,411,234,655,230,-892,1122,331
,264,2023-10-27 11:44:06.53,-111,-102,-2038,433,224,639,137,-910,1047,386
,265,2023-10-27 11:44:06.54,-113,-113,-2030,457,219,626,228,-809,1037,290
,266,2023-10-27 11:44:06.55,-113,-116,-2032,473,222,618,134,-818,952,342
,267,2023-10-27 11:44:06.56,-120,-136,-2031,490,205,605,219,-695,914,238
,268,2023-10-27 11:44:06.57,-104,-128,-2052,510,212,597,118,-716,834,299
,269,2023-10-27 11:44:06.58,-104,-120,-2047,529,202,581,200,-598,798,199
,270,2023-10-27 11:44:06.59,-106,-128,-2041,551,181,556,121,-678,799,278
,271,2023-10-27 11:44:06.60,-109,-134,-2056,563,208,541,200,-632,832,216
,272,2023-10-27 11:44:06.61,-109,-147,-2046,567,219,517,129,-685,814,278
,273,2023-10-27 11:44:06.62,-155,-95,-2077,540,227,501,206,-560,766,177
,274,2023-10-27 11:44:06.63,-102,-348,-1943,568,236,467,130,-579,709,224
,275,2023-10-27 11:44:06.64,-102,-195,-2063,615,246,471,201,-452,653,125
,276,2023-10-27 11:44:06.65,-138,-204,-2056,632,209,460,116,-509,625,196
,277,2023-10-27 11:44:06.66,-94,-237,-2016,657,203,452,176,-399,575,111
,278,2023-10-27 11:44:06.67,-120,-237,-2025,680,219,455,110,-438,548,164
,279,2023-10-27 11:44:06.68,-107,-261,-2043,698,224,439,178,-325,503,73
,280,2023-10-27 11:44:06.69,-105,-262,-2070,706,240,435,142,-385,527,121
,281,2023-10-27 11:44:06.70,-106,-225,-2041,712,231,419,221,-304,525,41
,282,2023-10-27 11:44:06.71,-76,-211,-2008,713,242,415,188,-368,556,90
,283,2023-10-27 11:44:06.72,-92,-223,-2047,716,254,401,246,-261,507,7
,284,2023-10-27 11:44:06.73,-67,-247,-2084,718,250,385,196,-291,487,47
,285,2023-10-27 11:44:06.74,-95,-239,-2102,702,253,379,233,-193,426,-20
,286,2023-10-27 11:44:06.75,-76,-228,-2097,674,245,371,193,-249,442,28
,287,2023-10-27 11:44:06.76,-83,-211,-2083,636,242,358,225,-179,404,-23
,288,2023-10-27 11:44:06.77,-68,-205,-2071,595,225,344,190,-242,432,26
,289,2023-10-27 11:44:06.78,-57,-222,-2075,554,198,332,216,-168,384,-24
,290,2023-10-27 11:44:06.79,-68,-232,-2073,500,185,327,187,-205,392,9
,291,2023-10-27 11:44:06.80,-68,-221,-2080,441,149,322,226,-122,348,-52
,292,2023-10-27 11:44:06.81,-54,-232,-2080,365,125,313,227,-171,398,-28
,293,2023-10-27 11:44:06.82,-42,-248,-2077,287,118,308,254,-132,386,-61
,294,2023-10-27 11:44:06.83,-51,-250,-2079,218,97,305,252,-184,436,-34
,295,2023-10-27 11:44:06.84,-74,-274,-2058,153,75,292,257,-108,365,-74
,296,2023-10-27 11:44:06.85,-5,-406,-1990,130,75,261,270,-138,408,-66
,297,2023-10-27 11:44:06.86,-41,-308,-2039,111,76,251,278,-99,377,-89
,298,2023-10-27 11:44:06.87,-21,-322,-1983,104,46,216,284,-148,432,-68
,299,2023-10-27 11:44:06.88,-2,-371,-1956,107,47,193,280,-101,381,-89
,300,2023-10-27 11:44:06.89,-5,-370,-1963,127,60,160,290,-110,400,-90
,301,2023-10-27 11:44:06.90,5,-387,-1934,155,59,126,271,-61,332,-105
,302,2023-10-27 11:44:06.91,-28,-406,-1969,173,89,94,294,-74,368,-110
,303,2023-10-27 11:44:06.92,12,-418,-1984,194,98,57,267,-42,309,-112
,304,2023-10-27 11:44:06.93,11,-429,-1971,217,103,31,279,-65,344,-107
,305,2023-10-27 11:44:06.94,17,-437,-1974,248,126,5,248,-35,283,-106
,306,2023-10-27 11:44:06.95,36,-474,-1971,287,154,-20,277,-53,330,-112
,307,2023-10-27 11:44:06.96,34,-503,-1978,325,177,-30,248,-24,272,-112
,308,2023-10-27 11:44:06.97,40,-526,-1968,365,200,-45,279,-22,301,-128
,309,2023-10-27 11:44:06.98,52,-537,-1976,416,212,-54,237,-2,239,-117
,310,2023-10-27 11:44:06.99,55,-538,-1968,458,214,-69,271,5,266,-138
,311,2023-10-27 11:44:07.00,49,-533,-1978,491,223,-79,230,12,218,-121
,312,2023-10-27 11:44:07.01,53,-522,-1995,509,217,-95,251,-13,264,-119
,313,2023-10-27 11:44:07.02,75,-521,-2003,508,228,-102,213,-9,222,-102
,314,2023-10-27 11:44:07.03,59,-539,-2000,512,234,-106,274,-15,289,-129
,315,2023-10-27 11:44:07.04,78,-556,-2015,502,248,-100,238,-5,243,-116
,316,2023-10-27 11:44:07.05,63,-576,-1990,487,253,-96,275,12,263,-143
,317,2023-10-27 11:44:07.06,91,-583,-1979,476,254,-88,200,-13,213,-93
,318,2023-10-27 11:44:07.07,99,-614,-1975,471,256,-79,250,-55,305,-97
,319,2023-10-27 11:44:07.08,101,-606,-1969,486,255,-68,201,-97,298,-52
,320,2023-10-27 11:44:07.09,119,-635,-1960,494,235,-55,288,-124,412,-82
,321,2023-10-27 11:44:07.10,99,-645,-1968,492,219,-46,236,-125,361,-55
,322,2023-10-27 11:44:07.11,117,-606,-1981,500,203,-38,292,-117,409,-87
,323,2023-10-27 11:44:07.12,118,-614,-1971,505,186,-36,212,-126,338,-43
,324,2023-10-27 11:44:07.13,120,-618,-1971,496,173,-38,277,-109,386,-84
,325,2023-10-27 11:44:07.14,117,-619,-1970,483,167,-34,197,-114,311,-41
,326,2023-10-27 11:44:07.15,122,-638,-1969,469,170,-27,267,-91,358,-88
,327,2023-10-27 11:44:07.16,130,-642,-1977,462,160,-18,177,-108,285,-34
,328,2023-10-27 11:44:07.17,145,-657,-1961,452,150,-8,219,-99,318,-60
,329,2023-10-27 11:44:07.18,138,-687,-1969,446,150,-4,126,-119,245,-3
,330,2023-10-27 11:44:07.19,136,-687,-1972,454,149,7,174,-81,255,-46
,331,2023-10-27 11:44:07.20,147,-705,-1958,472,145,7,91,-95,186,2
,332,2023-10-27 11:44:07.21,165,-722,-1951,492,132,11,158,-44,202,-57
,333,2023-10-27 11:44:07.22,155,-730,-1943,507,147,19,84,-82,166,-1
,334,2023-10-27 11:44:07.23,154,-711,-1953,525,132,19,152,-50,202,-51
,335,2023-10-27 11:44:07.24,175,-697,-1940,538,116,19,75,-76,151,0
,336,2023-10-27 11:44:07.25,153,-713,-1954,541,107,27,159,-15,174,-72
,337,2023-10-27 11:44:07.26,147,-705,-1960,535,96,22,80,-60,140,-10
,338,2023-10-27 11:44:07.27,168,-707,-1975,512,97,24,177,11,166,-94
,339,2023-10-27 11:44:07.28,159,-707,-1955,486,106,24,109,-36,145,-36
,340,2023-10-27 11:44:07.29,162,-718,-1958,458,104,30,235,34,201,-134
,341,2023-10-27 11:44:07.30,183,-735,-1937,431,116,35,145,-23,168,-61
,342,2023-10-27 11:44:07.31,174,-749,-1918,402,121,40,258,49,209,-153
,343,2023-10-27 11:44:07.32,149,-753,-1933,386,115,39,156,-19,175,-68
,344,2023-10-27 11:44:07.33,178,-772,-1908,367,100,39,253,50,203,-151
,345,2023-10-27 11:44:07.34,167,-776,-1910,344,103,43,143,-25,168,-59
,346,2023-10-27 11:44:07.35,167,-774,-1907,321,101,38,255,50,205,-152
,347,2023-10-27 11:44:07.36,175,-783,-1917,302,94,39,138,-24,162,-57
,348,2023-10-27 11:44:07.37,152,-796,-1907,286,91,40,263,61,202,-162
,349,2023-10-27 11:44:07.38,157,-790,-1894,266,77,45,158,-7,165,-75
,350,2023-10-27 11:44:07.39,161,-824,-1924,235,77,48,296,86,210,-191
,351,2023-10-27 11:44:07.40,173,-820,-1904,202,73,49,185,3,182,-94
,352,2023-10-27 11:44:07.41,178,-827,-1874,170,81,55,332,117,215,-224
,353,2023-10-27 11:44:07.42,168,-853,-1871,150,90,63,195,21,174,-108
,354,2023-10-27 11:44:07.43,178,-848,-1858,127,99,73,341,123,218,-232
,355,2023-10-27 11:44:07.44,161,-857,-1862,107,112,82,197,23,174,-110
,356,2023-10-27 11:44:07.45,173,-859,-1886,93,102,86,318,112,206,-215
,357,2023-10-27 11:44:07.46,164,-839,-1890,89,89,94,168,5,163,-86
,358,2023-10-27 11:44:07.47,150,-810,-1883,87,86,92,269,83,186,-176
,359,2023-10-27 11:44:07.48,168,-793,-1882,90,94,96,104,-40,144,-32
,360,2023-10-27 11:44:07.49,164,-834,-1858,80,101,99,188,34,154,-111
,361,2023-10-27 11:44:07.50,163,-839,-1860,84,110,105,42,-83,125,20
,362,2023-10-27 11:44:07.51,150,-853,-1854,90,128,111,158,-9,167,-74
,363,2023-10-27 11:44:07.52,166,-879,-1839,99,137,113,45,-101,146,28
,364,2023-10-27 11:44:07.53,190,-893,-1839,117,142,118,184,-7,191,-88
,365,2023-10-27 11:44:07.54,179,-889,-1851,145,151,128,78,-102,180,12
,366,2023-10-27 11:44:07.55,186,-879,-1847,176,156,137,226,7,219,-116
,367,2023-10-27 11:44:07.56,190,-893,-1832,205,161,139,103,-85,188,-9
,368,2023-10-27 11:44:07.57,192,-896,-1834,226,174,139,251,33,218,-142
,369,2023-10-27 11:44:07.58,196,-884,-1848,248,171,131,115,-52,167,-31
,370,2023-10-27 11:44:07.59,218,-902,-1860,267,161,128,265,73,192,-169
,371,2023-10-27 11:44:07.60,213,-915,-1868,294,143,117,131,-43,174,-44
,372,2023-10-27 11:44:07.61,216,-914,-1849,310,143,111,268,66,202,-167
,373,2023-10-27 11:44:07.62,231,-938,-1827,314,147,108,119,-41,160,-39
,374,2023-10-27 11:44:07.63,216,-970,-1859,307,155,105,256,78,178,-167
,375,2023-10-27 11:44:07.64,228,-959,-1842,298,161,104,111,-38,149,-36
,376,2023-10-27 11:44:07.65,208,-959,-1837,286,157,102,252,76,176,-164
,377,2023-10-27 11:44:07.66,238,-969,-1842,288,143,99,112,-37,149,-37
,378,2023-10-27 11:44:07.67,222,-997,-1757,281,146,85,249,87,162,-168
,379,2023-10-27 11:44:07.68,230,-925,-1810,276,156,82,103,-43,146,-30
,380,2023-10-27 11:44:07.69,226,-928,-1805,273,165,70,243,70,173,-156
,381,2023-10-27 11:44:07.70,217,-937,-1822,283,176,61,96,-47,143,-24
,382,2023-10-27 11:44:07.71,220,-942,-1809,280,163,45,237,74,163,-155
,383,2023-10-27 11:44:07.72,212,-954,-1807,287,168,29,98,-42,140,-28
,384,2023-10-27 11:44:07.73,212,-932,-1827,289,162,28,233,76,157,-154
,385,2023-10-27 11:44:07.74,218,-941,-1814,294,148,22,96,-43,139,-26
,386,2023-10-27 11:44:07.75,220,-927,-1805,288,166,21,242,85,157,-163
,387,2023-10-27 11:44:07.76,237,-937,-1813,281,193,18,107,-34,141,-36
,388,2023-10-27 11:44:07.77,220,-954,-1802,271,200,10,255,92,163,-173
,389,2023-10-27 11:44:07.78,228,-985,-1802,267,198,4,136,-11,147,-62
,390,2023-10-27 11:44:07.79,239,-976,-1795,282,199,-1,294,128,166,-211
,391,2023-10-27 11:44:07.80,249,-973,-1786,286,180,0,175,16,159,-95
,392,2023-10-27 11:44:07.81,247,-1018,-1795,302,176,-3,323,141,182,-232
,393,2023-10-27 11:44:07.82,256,-1009,-1801,309,161,-1,187,19,168,-103
,394,2023-10-27 11:44:07.83,269,-1003,-1807,298,152,-7,327,130,197,-228
,395,2023-10-27 11:44:07.84,268,-1046,-1810,294,155,-5,182,0,182,-91
,396,2023-10-27 11:44:07.85,273,-1040,-1805,297,148,-1,316,112,204,-214
,397,2023-10-27 11:44:07.86,283,-1039,-1788,293,129,-4,170,-16,186,-77
,398,2023-10-27 11:44:07.87,280,-1053,-1806,292,120,-5,297,108,189,-202
,399,2023-10-27 11:44:07.88,292,-1066,-1777,299,125,4,149,-20,169,-64
,400,2023-10-27 11:44:07.89,293,-1076,-1769,295,125,9,286,101,185,-193
,401,2023-10-27 11:44:07.90,297,-1073,-1749,286,134,3,146,-27,173,-59
,402,2023-10-27 11:44:07.91,286,-1070,-1759,293,117,-7,271,82,189,-176
,403,2023-10-27 11:44:07.92,310,-1050,-1760,305,95,-25,140,-44,184,-48
,404,2023-10-27 11:44:07.93,299,-1067,-1748,318,76,-40,266,80,186,-173
,405,2023-10-27 11:44:07.94,303,-1068,-1763,328,62,-52,152,-29,181,-61
,406,2023-10-27 11:44:07.95,296,-1065,-1726,332,20,-60,292,101,191,-196
,407,2023-10-27 11:44:07.96,294,-1074,-1709,328,38,-61,176,2,174,-89
,408,2023-10-27 11:44:07.97,292,-1104,-1691,313,59,-60,308,131,177,-219
,409,2023-10-27 11:44:07.98,297,-1134,-1705,287,74,-57,204,34,170,-119
,410,2023-10-27 11:44:07.99,290,-1132,-1709,255,110,-41,316,153,163,-234
,411,2023-10-27 11:44:08.00,289,-1127,-1714,239,113,-25,189,24,165,-106
,412,2023-10-27 11:44:08.01,280,-1109,-1723,225,118,-20,298,124,174,-211
,413,2023-10-27 11:44:08.02,288,-1116,-1722,210,112,-14,182,8,174,-95
,414,2023-10-27 11:44:08.03,314,-1118,-1719,200,120,-7,293,118,175,-205
,415,2023-10-27 11:44:08.04,299,-1089,-1717,192,129,-6,193,16,177,-104
,416,2023-10-27 11:44:08.05,310,-1125,-1706,181,150,-7,301,123,178,-212
,417,2023-10-27 11:44:08.06,309,-1105,-1712,169,155,1,204,20,184,-112
,418,2023-10-27 11:44:08.07,313,-1122,-1697,162,152,6,311,128,183,-219
,419,2023-10-27 11:44:08.08,316,-1161,-1689,166,150,11,205,20,185,-112
,420,2023-10-27 11:44:08.09,318,-1159,-1683,177,147,19,304,122,182,-213
,421,2023-10-27 11:44:08.10,323,-1163,-1693,193,146,28,212,23,189,-117
,422,2023-10-27 11:44:08.11,316,-1143,-1707,210,140,31,306,120,186,-213
,423,2023-10-27 11:44:08.12,333,-1135,-1688,214,139,34,221,24,197,-122
,424,2023-10-27 11:44:08.13,338,-1140,-1690,217,140,30,309,120,189,-214
,425,2023-10-27 11:44:08.14,343,-1155,-1709,221,130,23,223,20,203,-121
,426,2023-10-27 11:44:08.15,342,-1129,-1700,222,124,16,300,109,191,-204
,427,2023-10-27 11:44:08.16,363,-1128,-1702,224,122,4,214,14,200,-114
,428,2023-10-27 11:44:08.17,367,-1140,-1701,222,105,1,295,102,193,-198
,429,2023-10-27 11:44:08.18,352,-1174,-1717,219,110,-5,226,21,205,-123
,430,2023-10-27 11:44:08.19,364,-1187,-1711,210,103,-7,300,110,190,-205
,431,2023-10-27 11:44:08.20,361,-1169,-1703,204,85,0,236,24,212,-130
,432,2023-10-27 11:44:08.21,371,-1177,-1683,186,85,-1,298,105,193,-201
,433,2023-10-27 11:44:08.22,382,-1199,-1688,167,73,5,236,17,219,-126
,434,2023-10-27 11:44:08.23,362,-1192,-1648,160,76,5,308,99,209,-203
,435,2023-10-27 11:44:08.24,378,-1172,-1668,153,57,2,252,14,238,-133
,436,2023-10-27 11:44:08.25,355,-1201,-1655,140,50,-3,316,94,222,-205
,437,2023-10-27 11:44:08.26,368,-1199,-1636,138,55,-5,278,26,252,-152
,438,2023-10-27 11:44:08.27,371,-1179,-1659,137,58,-1,314,96,218,-205
,439,2023-10-27 11:44:08.28,364,-1208,-1656,137,48,-3,258,27,231,-142
,440,2023-10-27 11:44:08.29,362,-1203,-1668,136,36,0,302,98,204,-200
,441,2023-10-27 11:44:08.30,356,-1202,-1676,122,33,3,248,32,216,-140
,442,2023-10-27 11:44:08.31,354,-1197,-1680,115,37,10,285,95,190,-190
,443,2023-10-27 11:44:08.32,339,-1179,-1669,105,43,12,244,38,206,-141
,444,2023-10-27 11:44:08.33,341,-1175,-1662,101,43,8,277,96,181,-186
,445,2023-10-27 11:44:08.34,346,-1142,-1670,94,38,8,262,56,206,-159
,446,2023-10-27 11:44:08.35,349,-1159,-1658,86,48,4,290,116,174,-203
,447,2023-10-27 11:44:08.36,333,-1188,-1649,84,59,2,262,75,187,-168
,448,2023-10-27 11:44:08.37,355,-1176,-1634,89,63,-4,283,125,158,-204
,449,2023-10-27 11:44:08.38,358,-1194,-1639,93,74,-9,257,75,182,-166
,450,2023-10-27 11:44:08.39,344,-1213,-1634,106,76,-15,267,106,161,-186
,451,2023-10-27 11:44:08.40,353,-1224,-1622,103,93,-23,247,60,187,-153
,452,2023-10-27 11:44:08.41,368,-1236,-1632,105,104,-28,256,96,160,-176
,453,2023-10-27 11:44:08.42,377,-1222,-1660,130,102,-27,240,52,188,-146
,454,2023-10-27 11:44:08.43,389,-1234,-1630,154,73,-28,244,81,163,-162
,455,2023-10-27 11:44:08.44,397,-1211,-1612,168,71,-36,233,39,194,-136
,456,2023-10-27 11:44:08.45,390,-1193,-1593,167,76,-39,245,69,176,-157
,457,2023-10-27 11:44:08.46,402,-1202,-1601,150,89,-45,253,44,209,-148
,458,2023-10-27 11:44:08.47,407,-1233,-1605,140,89,-45,254,67,187,-160
,459,2023-10-27 11:44:08.48,404,-1242,-1624,135,105,-50,275,41,234,-158
,460,2023-10-27 11:44:08.49,400,-1279,-1643,141,89,-52,267,60,207,-163
,461,2023-10-27 11:44:08.50,397,-1259,-1640,140,76,-54,298,39,259,-168
,462,2023-10-27 11:44:08.51,412,-1265,-1600,133,67,-60,288,62,226,-175
,463,2023-10-27 11:44:08.52,431,-1264,-1593,125,68,-61,317,45,272,-181
,464,2023-10-27 11:44:08.53,424,-1267,-1573,118,74,-59,290,54,236,-172
,465,2023-10-27 11:44:08.54,422,-1262,-1598,115,78,-57,304,42,262,-173
,466,2023-10-27 11:44:08.55,414,-1278,-1608,114,59,-52,263,50,213,-156
,467,2023-10-27 11:44:08.56,427,-1278,-1599,114,47,-48,265,46,219,-155
,468,2023-10-27 11:44:08.57,412,-1271,-1597,106,50,-43,214,45,169,-129
,469,2023-10-27 11:44:08.58,429,-1254,-1597,88,60,-49,218,29,189,-123
,470,2023-10-27 11:44:08.59,416,-1243,-1602,69,61,-47,170,20,150,-95
,471,2023-10-27 11:44:08.60,413,-1235,-1597,63,71,-46,191,17,174,-104
,472,2023-10-27 11:44:08.61,415,-1253,-1602,64,55,-47,162,12,150,-87
,473,2023-10-27 11:44:08.62,428,-1246,-1600,62,55,-48,190,19,171,-104
,474,2023-10-27 11:44:08.63,428,-1247,-1595,63,52,-43,160,15,145,-87
,475,2023-10-27 11:44:08.64,430,-1224,-1596,65,59,-38,210,37,173,-123
,476,2023-10-27 11:44:08.65,429,-1238,-1599,55,56,-38,170,20,150,-95
,477,2023-10-27 11:44:08.66,423,-1252,-1610,48,67,-33,226,42,184,-134
,478,2023-10-27 11:44:08.67,423,-1230,-1601,50,64,-28,190,33,157,-111
,479,2023-10-27 11:44:08.68,426,-1229,-1603,50,40,-28,244,52,192,-148
,480,2023-10-27 11:44:08.69,420,-1235,-1641,37,20,-26,191,26,165,-108
,481,2023-10-27 11:44:08.70,445,-1237,-1627,29,5,-28,237,50,187,-143
,482,2023-10-27 11:44:08.71,441,-1231,-1618,24,12,-26,172,17,155,-94
,483,2023-10-27 11:44:08.72,429,-1234,-1617,19,9,-17,232,44,188,-138
,484,2023-10-27 11:44:08.73,432,-1265,-1609,11,3,-17,168,16,152,-92
,485,2023-10-27 11:44:08.74,437,-1270,-1599,11,4,-22,236,44,192,-140
,486,2023-10-27 11:44:08.75,431,-1259,-1598,19,6,-13,164,3,161,-83
,487,2023-10-27 11:44:08.76,439,-1265,-1591,29,3,-9,228,36,192,-132
,488,2023-10-27 11:44:08.77,439,-1264,-1588,29,6,-12,164,3,161,-83
,489,2023-10-27 11:44:08.78,440,-1257,-1583,31,18,-10,241,47,194,-144
,490,2023-10-27 11:44:08.79,452,-1257,-1586,26,22,-7,162,1,161,-81
,491,2023-10-27 11:44:08.80,451,-1260,-1592,26,25,-4,245,49,196,-147
,492,2023-10-27 11:44:08.81,448,-1261,-1585,23,19,-7,157,-3,160,-77
,493,2023-10-27 11:44:08.82,451,-1269,-1589,20,19,-8,238,41,197,-139
,494,2023-10-27 11:44:08.83,455,-1259,-1595,13,12,-6,155,-8,163,-73
,495,2023-10-27 11:44:08.84,450,-1254,-1597,10,1,-1,244,43,201,-143
,496,2023-10-27 11:44:08.85,461,-1257,-1593,8,-8,-6,157,-14,171,-71
,497,2023-10-27 11:44:08.86,452,-1265,-1581,9,-11,3,259,51,208,-155
,498,2023-10-27 11:44:08.87,452,-1260,-1583,5,-22,2,160,-13,173,-73
,499,2023-10-27 11:44:08.88,451,-1268,-1585,2,-28,2,262,50,212,-156
,500,2023-10-27 11:44:08.89,437,-1259,-1578,9,-25,4,171,-7,178,-82
,501,2023-10-27 11:44:08.90,442,-1266,-1583,12,-37,7,279,63,216,-171
,502,2023-10-27 11:44:08.91,437,-1262,-1589,15,-47,2,174,-2,176,-86
,503,2023-10-27 11:44:08.92,439,-1260,-1579,18,-45,5,291,72,219,-181
,504,2023-10-27 11:44:08.93,437,-1247,-1568,14,-37,4,179,-6,185,-86
,505,2023-10-27 11:44:08.94,437,-1257,-1580,12,-23,1,303,72,231,-187
,506,2023-10-27 11:44:08.95,423,-1264,-1590,8,-27,2,194,4,190,-99
,507,2023-10-27 11:44:08.96,420,-1269,-1589,2,-17,10,319,87,232,-203
,508,2023-10-27 11:44:08.97,412,-1269,-1596,5,-22,13,200,5,195,-102
,509,2023-10-27 11:44:08.98,429,-1276,-1593,3,-22,15,312,88,224,-200
,510,2023-10-27 11:44:08.99,420,-1249,-1573,-7,-6,7,188,0,188,-94
,511,2023-10-27 11:44:09.00,434,-1239,-1573,-17,9,0,312,89,223,-200
,512,2023-10-27 11:44:09.01,430,-1244,-1593,-20,16,-12,182,-3,185,-89
,513,2023-10-27 11:44:09.02,433,-1252,-1600,-20,23,-18,313,83,230,-198
,514,2023-10-27 11:44:09.03,434,-1250,-1613,-16,14,-25,181,-7,188,-87
,515,2023-10-27 11:44:09.04,433,-1258,-1606,-14,1,-30,303,80,223,-191
,516,2023-10-27 11:44:09.05,446,-1258,-1601,-14,-13,-37,172,-9,181,-81
,517,2023-10-27 11:44:09.06,437,-1247,-1587,-16,-16,-42,304,85,219,-194
,518,2023-10-27 11:44:09.07,434,-1251,-1588,-17,-20,-40,171,-11,182,-80
,519,2023-10-27 11:44:09.08,441,-1255,-1588,-22,-26,-39,305,88,217,-196
,520,2023-10-27 11:44:09.09,437,-1254,-1576,-21,-21,-37,156,-21,177,-67
,521,2023-10-27 11:44:09.10,440,-1254,-1580,-29,-18,-30,292,76,216,-184
,522,2023-10-27 11:44:09.11,441,-1244,-1581,-42,-12,-23,160,-26,186,-67
,523,2023-10-27 11:44:09.12,436,-1234,-1569,-54,-20,-25,306,86,220,-196
,524,2023-10-27 11:44:09.13,448,-1246,-1584,-72,-15,-27,171,-19,190,-76
,525,2023-10-27 11:44:09.14,450,-1254,-1593,-79,-18,-30,314,93,221,-203
,526,2023-10-27 11:44:09.15,430,-1263,-1590,-74,-10,-25,173,-21,194,-76
,527,2023-10-27 11:44:09.16,452,-1257,-1566,-61,-22,-24,327,90,237,-208
,528,2023-10-27 11:44:09.17,429,-1265,-1578,-57,-23,-24,198,-11,209,-93
,529,2023-10-27 11:44:09.18,415,-1257,-1586,-54,-24,-25,363,109,254,-236
,530,2023-10-27 11:44:09.19,412,-1240,-1595,-54,-37,-36,232,2,230,-117
,531,2023-10-27 11:44:09.20,406,-1225,-1599,-61,-38,-48,381,118,263,-249
,532,2023-10-27 11:44:09.21,397,-1202,-1601,-72,-39,-48,235,-6,241,-114
,533,2023-10-27 11:44:09.22,408,-1187,-1588,-79,-51,-57,383,114,269,-248
,534,2023-10-27 11:44:09.23,396,-1194,-1569,-82,-61,-64,222,-3,225,-109
,535,2023-10-27 11:44:09.24,405,-1197,-1559,-86,-52,-71,370,112,258,-241
,536,2023-10-27 11:44:09.25,392,-1205,-1561,-99,-35,-84,222,-4,226,-109
,537,2023-10-27 11:44:09.26,397,-1191,-1569,-120,-9,-102,365,120,245,-242
,538,2023-10-27 11:44:09.27,404,-1199,-1582,-136,9,-121,212,-2,214,-105
,539,2023-10-27 11:44:09.28,399,-1195,-1595,-140,21,-137,347,113,234,-230
,540,2023-10-27 11:44:09.29,408,-1212,-1586,-143,36,-152,199,-6,205,-96
,541,2023-10-27 11:44:09.30,414,-1214,-1583,-149,52,-170,346,113,233,-229
,542,2023-10-27 11:44:09.31,433,-1233,-1571,-166,65,-183,197,-8,205,-94
,543,2023-10-27 11:44:09.32,440,-1250,-1600,-188,79,-196,332,111,221,-221
,544,2023-10-27 11:44:09.33,453,-1260,-1620,-199,75,-210,197,2,195,-99
,545,2023-10-27 11:44:09.34,466,-1260,-1642,-196,60,-212,336,130,206,-233
,546,2023-10-27 11:44:09.35,472,-1231,-1655,-186,27,-215,179,5,174,-92
,547,2023-10-27 11:44:09.36,470,-1207,-1648,-182,-1,-213,306,122,184,-214
,548,2023-10-27 11:44:09.37,491,-1084,-1650,-191,-29,-210,142,-22,164,-60
,549,2023-10-27 11:44:09.38,497,-1242,-1656,-207,-28,-212,264,83,181,-173
,550,2023-10-27 11:44:09.39,464,-1194,-1712,-216,-24,-195,109,-56,165,-26
,551,2023-10-27 11:44:09.40,467,-1198,-1717,-213,-37,-173,212,42,170,-127
,552,2023-10-27 11:44:09.41,504,-1190,-1689,-171,-62,-161,51,-101,152,25
,553,2023-10-27 11:44:09.42,466,-1157,-1689,-152,-65,-134,149,-10,159,-69
,554,2023-10-27 11:44:09.43,483,-1197,-1694,-128,-77,-116,-2,-145,143,73
,555,2023-10-27 11:44:09.44,478,-1208,-1697,-103,-75,-95,116,-44,160,-36
,556,2023-10-27 11:44:09.45,485,-1209,-1688,-73,-69,-77,2,-148,150,73
,557,2023-10-27 11:44:09.46,496,-1208,-1687,-32,-79,-60,139,-20,159,-59
,558,2023-10-27 11:44:09.47,492,-1200,-1714,6,-97,-29,35,-121,156,43
,559,2023-10-27 11:44:09.48,477,-1176,-1725,42,-111,-1,153,-15,168,-69
,560,2023-10-27 11:44:09.49,492,-1164,-1733,70,-127,31,40,-136,176,48
,561,2023-10-27 11:44:09.50,505,-1178,-1751,97,-136,56,158,-28,186,-65
,562,2023-10-27 11:44:09.51,525,-1171,-1737,107,-133,85,43,-130,173,43
,563,2023-10-27 11:44:09.52,517,-1185,-1725,105,-114,105,176,-11,187,-82
,564,2023-10-27 11:44:09.53,521,-1176,-1721,103,-95,117,76,-99,175,11
,565,2023-10-27 11:44:09.54,511,-1162,-1689,108,-83,120,213,29,184,-121
,566,2023-10-27 11:44:09.55,522,-1146,-1673,113,-103,122,129,-51,180,-39
,567,2023-10-27 11:44:09.56,518,-1148,-1674,106,-84,125,272,88,184,-180
,568,2023-10-27 11:44:09.57,520,-1160,-1641,102,-70,120,183,7,176,-95
,569,2023-10-27 11:44:09.58,511,-1153,-1618,106,-66,113,320,144,176,-232
,570,2023-10-27 11:44:09.59,507,-1172,-1597,103,-51,106,226,52,174,-139
,571,2023-10-27 11:44:09.60,502,-1183,-1586,101,-37,92,354,168,186,-261
,572,2023-10-27 11:44:09.61,508,-1185,-1603,111,-47,86,256,78,178,-167
,573,2023-10-27 11:44:09.62,503,-1186,-1613,113,-33,76,368,195,173,-281
,574,2023-10-27 11:44:09.63,505,-1187,-1619,113,-38,72,278,105,173,-191
,575,2023-10-27 11:44:09.64,470,-1173,-1623,101,-37,66,377,215,162,-296
,576,2023-10-27 11:44:09.65,481,-1174,-1647,84,-48,62,281,117,164,-199
,577,2023-10-27 11:44:09.66,467,-1159,-1655,73,-37,61,375,219,156,-297
,578,2023-10-27 11:44:09.67,471,-1148,-1635,65,-41,61,284,126,158,-205
,579,2023-10-27 11:44:09.68,440,-1139,-1634,58,-42,60,373,218,155,-295
,580,2023-10-27 11:44:09.69,449,-1131,-1615,53,-31,53,278,125,153,-201
,581,2023-10-27 11:44:09.70,437,-1156,-1608,43,-13,51,356,212,144,-284
,582,2023-10-27 11:44:09.71,438,-1132,-1619,31,3,44,271,111,160,-191
,583,2023-10-27 11:44:09.72,438,-1130,-1602,27,13,37,347,197,150,-272
,584,2023-10-27 11:44:09.73,422,-1119,-1602,26,23,31,257,109,148,-183
,585,2023-10-27 11:44:09.74,419,-1138,-1622,13,30,20,335,194,141,-264
,586,2023-10-27 11:44:09.75,416,-1148,-1639,-7,44,19,257,98,159,-177
,587,2023-10-27 11:44:09.76,431,-1136,-1628,-17,36,10,326,169,157,-247
,588,2023-10-27 11:44:09.77,435,-1164,-1629,-25,18,6,256,82,174,-169
,589,2023-10-27 11:44:09.78,434,-1182,-1627,-31,15,1,319,156,163,-237
,590,2023-10-27 11:44:09.79,429,-1184,-1625,-32,5,-3,254,68,186,-161
,591,2023-10-27 11:44:09.80,446,-1192,-1614,-29,10,-6,305,139,166,-222
,592,2023-10-27 11:44:09.81,446,-1201,-1602,-32,10,-10,237,56,181,-146
,593,2023-10-27 11:44:09.82,445,-1206,-1596,-25,19,-15,296,123,173,-209
,594,2023-10-27 11:44:09.83,440,-1207,-1594,-17,10,-19,232,45,187,-138
,595,2023-10-27 11:44:09.84,434,-1211,-1630,-18,6,-19,288,109,179,-198
,596,2023-10-27 11:44:09.85,440,-1212,-1653,-19,4,-23,218,31,187,-124
,597,2023-10-27 11:44:09.86,430,-1217,-1641,-24,10,-24,259,86,173,-172
,598,2023-10-27 11:44:09.87,453,-1232,-1664,-29,18,-24,199,12,187,-105
,599,2023-10-27 11:44:09.88,437,-1220,-1670,-26,25,-28,252,81,171,-166
,600,2023-10-27 11:44:09.89,444,-1195,-1652,-23,12,-35,207,17,190,-112
,601,2023-10-27 11:44:09.90,448,-1174,-1658,-25,26,-30,254,84,170,-169
,602,2023-10-27 11:44:09.91,441,-1167,-1664,-30,30,-22,210,24,186,-117
,603,2023-10-27 11:44:09.92,427,-1176,-1672,-26,16,-17,244,76,168,-160
,604,2023-10-27 11:44:09.93,445,-1190,-1689,-17,0,-7,211,22,189,-116
,605,2023-10-27 11:44:09.94,436,-1199,-1671,0,-15,9,243,76,167,-159
,606,2023-10-27 11:44:09.95,424,-1207,-1665,15,-20,28,219,25,194,-122
,607,2023-10-27 11:44:09.96,446,-1217,-1651,16,-14,49,246,80,166,-163
,608,2023-10-27 11:44:09.97,442,-1230,-1663,25,1,73,223,36,187,-129
,609,2023-10-27 11:44:09.98,452,-1242,-1690,38,25,110,249,77,172,-163
,610,2023-10-27 11:44:09.99,445,-1224,-1688,49,37,142,229,39,190,-134
,611,2023-10-27 11:44:10.00,448,-1223,-1680,50,40,165,242,84,158,-163
,612,2023-10-27 11:44:10.01,460,-1222,-1672,54,58,183,242,76,166,-159
,613,2023-10-27 11:44:10.02,439,-1223,-1719,74,6,206,257,90,167,-173
,614,2023-10-27 11:44:10.03,474,-1229,-1720,113,-43,232,290,62,228,-176
,615,2023-10-27 11:44:10.04,479,-1226,-1706,142,-65,247,303,94,209,-198
,616,2023-10-27 11:44:10.05,481,-1201,-1665,164,-41,254,308,82,226,-195
,617,2023-10-27 11:44:10.06,487,-1194,-1666,183,-45,248,290,99,191,-194
,618,2023-10-27 11:44:10.07,485,-1209,-1670,221,-90,251,311,90,221,-200
,619,2023-10-27 11:44:10.08,486,-1203,-1648,273,-131,259,290,99,191,-194
,620,2023-10-27 11:44:10.09,471,-1200,-1614,315,-165,263,302,92,210,-197
,621,2023-10-27 11:44:10.10,468,-1202,-1578,339,-173,266,252,70,182,-161
,622,2023-10-27 11:44:10.11,440,-1208,-1550,357,-183,271,245,14,231,-129
,623,2023-10-27 11:44:10.12,421,-1228,-1556,354,-184,274,199,7,192,-103
,624,2023-10-27 11:44:10.13,409,-1267,-1552,329,-174,274,198,-6,204,-96
,625,2023-10-27 11:44:10.14,394,-1284,-1525,273,-143,296,163,-4,167,-79
,626,2023-10-27 11:44:10.15,389,-1261,-1553,223,-80,298,174,-17,191,-78
,627,2023-10-27 11:44:10.16,366,-1258,-1539,192,-54,310,147,-13,160,-67
,628,2023-10-27 11:44:10.17,367,-1271,-1566,155,-25,317,170,3,167,-86
,629,2023-10-27 11:44:10.18,347,-1286,-1596,128,-11,325,138,8,130,-73
,630,2023-10-27 11:44:10.19,326,-1303,-1605,98,7,335,166,20,146,-93
,631,2023-10-27 11:44:10.20,316,-1299,-1588,81,8,341,126,12,114,-69
,632,2023-10-27 11:44:10.21,315,-1283,-1577,48,14,339,159,15,144,-87
,633,2023-10-27 11:44:10.22,284,-1283,-1596,11,28,330,119,1,118,-60
,634,2023-10-27 11:44:10.23,283,-1285,-1589,-19,44,310,149,4,145,-76
,635,2023-10-27 11:44:10.24,272,-1272,-1567,-32,52,284,118,-10,128,-54
,636,2023-10-27 11:44:10.25,272,-1238,-1547,-43,60,250,169,10,159,-89
,637,2023-10-27 11:44:10.26,265,-1212,-1531,-66,89,213,128,-8,136,-60
,638,2023-10-27 11:44:10.27,270,-1200,-1513,-86,105,167,186,24,162,-105
,639,2023-10-27 11:44:10.28,269,-1199,-1553,-102,116,128,126,1,125,-63
,640,2023-10-27 11:44:10.29,281,-1209,-1577,-102,95,90,191,19,172,-105
,641,2023-10-27 11:44:10.30,295,-1216,-1577,-96,81,57,142,0,142,-71
,642,2023-10-27 11:44:10.31,297,-1222,-1571,-96,72,20,232,60,172,-146
,643,2023-10-27 11:44:10.32,285,-1222,-1568,-99,81,-18,178,49,129,-113
,644,2023-10-27 11:44:10.33,302,-1215,-1575,-100,92,-56,270,128,142,-199
,645,2023-10-27 11:44:10.34,310,-1221,-1582,-95,95,-90,195,81,114,-138
,646,2023-10-27 11:44:10.35,317,-1225,-1581,-75,91,-116,267,132,135,-199
,647,2023-10-27 11:44:10.36,318,-1239,-1576,-61,86,-138,184,68,116,-126
,648,2023-10-27 11:44:10.37,316,-1250,-1589,-56,100,-156,282,121,161,-201
,649,2023-10-27 11:44:10.38,320,-1269,-1599,-53,122,-165,204,66,138,-135
,650,2023-10-27 11:44:10.39,336,-1284,-1621,-49,133,-169,308,123,185,-215
,651,2023-10-27 11:44:10.40,340,-1294,-1632,-41,140,-167,216,74,142,-145
,652,2023-10-27 11:44:10.41,337,-1290,-1641,-35,145,-164,312,140,172,-226
,653,2023-10-27 11:44:10.42,358,-1291,-1646,-26,144,-162,227,55,172,-141
,654,2023-10-27 11:44:10.43,351,-1283,-1659,-14,148,-158,351,104,247,-227
,655,2023-10-27 11:44:10.44,352,-1279,-1669,-9,141,-153,241,34,207,-137
,656,2023-10-27 11:44:10.45,366,-1282,-1665,-4,134,-144,337,96,241,-216
,657,2023-10-27 11:44:10.46,384,-1273,-1651,8,115,-140,216,33,183,-124
,658,2023-10-27 11:44:10.47,372,-1284,-1654,17,101,-127,310,92,218,-201
,659,2023-10-27 11:44:10.48,369,-1287,-1649,24,91,-121,196,18,178,-107
,660,2023-10-27 11:44:10.49,380,-1271,-1625,31,72,-113,300,80,220,-190
,661,2023-10-27 11:44:10.50,392,-1273,-1603,41,64,-102,192,10,182,-101
,662,2023-10-27 11:44:10.51,388,-1277,-1598,53,62,-94,307,86,221,-196
,663,2023-10-27 11:44:10.52,382,-1283,-1603,67,42,-82,188,5,183,-96
,664,2023-10-27 11:44:10.53,384,-1281,-1617,78,6,-67,309,78,231,-193
,665,2023-10-27 11:44:10.54,404,-1284,-1620,97,-21,-39,188,2,186,-95
,666,2023-10-27 11:44:10.55,392,-1299,-1620,116,-44,-9,305,86,219,-195
,667,2023-10-27 11:44:10.56,390,-1311,-1613,122,-54,23,181,13,168,-97
,668,2023-10-27 11:44:10.57,390,-1306,-1583,115,-53,52,284,96,188,-190
,669,2023-10-27 11:44:10.58,383,-1283,-1599,112,-68,80,180,26,154,-103
,670,2023-10-27 11:44:10.59,407,-1281,-1617,102,-83,108,328,145,183,-236
,671,2023-10-27 11:44:10.60,376,-1263,-1613,86,-88,125,212,57,155,-134
,672,2023-10-27 11:44:10.61,389,-1244,-1600,77,-111,129,342,155,187,-248
,673,2023-10-27 11:44:10.62,387,-1223,-1594,70,-140,134,200,50,150,-125
,674,2023-10-27 11:44:10.63,387,-1200,-1577,46,-133,134,339,151,188,-245
,675,2023-10-27 11:44:10.64,381,-1201,-1569,29,-138,121,219,54,165,-136
,676,2023-10-27 11:44:10.65,385,-1193,-1575,18,-152,106,354,153,201,-253
,677,2023-10-27 11:44:10.66,373,-1219,-1570,10,-172,88,221,52,169,-136
,678,2023-10-27 11:44:10.67,369,-1246,-1581,0,-166,72,354,160,194,-257
,679,2023-10-27 11:44:10.68,354,-1252,-1593,-22,-160,62,217,53,164,-135
,680,2023-10-27 11:44:10.69,360,-1270,-1596,-44,-164,47,351,168,183,-259
,681,2023-10-27 11:44:10.70,358,-1297,-1609,-57,-158,35,217,54,163,-135
,682,2023-10-27 11:44:10.71,347,-1272,-1617,-73,-147,23,363,152,211,-257
,683,2023-10-27 11:44:10.72,346,-1269,-1619,-86,-140,4,220,50,170,-135
,684,2023-10-27 11:44:10.73,363,-1252,-1643,-106,-124,-13,348,157,191,-252
,685,2023-10-27 11:44:10.74,343,-1268,-1658,-120,-118,-27,207,56,151,-131
,686,2023-10-27 11:44:10.75,340,-1261,-1660,-130,-118,-37,344,165,179,-254
,687,2023-10-27 11:44:10.76,336,-1255,-1647,-140,-130,-59,206,51,155,-128
,688,2023-10-27 11:44:10.77,338,-1246,-1614,-153,-122,-78,352,160,192,-256
,689,2023-10-27 11:44:10.78,324,-1228,-1580,-183,-97,-101,219,40,179,-129
,690,2023-10-27 11:44:10.79,314,-1220,-1565,-188,-63,-134,373,159,214,-266
,691,2023-10-27 11:44:10.80,336,-1230,-1544,-219,-32,-151,225,46,179,-135
,692,2023-10-27 11:44:10.81,319,-1225,-1567,-237,-11,-175,369,165,204,-267
,693,2023-10-27 11:44:10.82,344,-1222,-1562,-245,-6,-191,225,44,181,-134
,694,2023-10-27 11:44:10.83,335,-1218,-1584,-255,-11,-213,360,153,207,-256
,695,2023-10-27 11:44:10.84,356,-1229,-1580,-261,1,-228,208,35,173,-121
,696,2023-10-27 11:44:10.85,339,-1194,-1597,-256,1,-249,343,149,194,-246
,697,2023-10-27 11:44:10.86,359,-1200,-1605,-255,-4,-280,190,12,178,-101
,698,2023-10-27 11:44:10.87,373,-1193,-1619,-259,-11,-305,319,112,207,-215
,699,2023-10-27 11:44:10.88,367,-1216,-1639,-260,-12,-325,176,5,171,-90
,700,2023-10-27 11:44:10.89,394,-1253,-1638,-264,-15,-325,322,129,193,-225
,701,2023-10-27 11:44:10.90,386,-1220,-1643,-256,-18,-332,171,16,155,-93
,702,2023-10-27 11:44:10.91,385,-1174,-1661,-230,-25,-344,304,155,149,-229
,703,2023-10-27 11:44:10.92,404,-1172,-1670,-216,-41,-360,173,134,39,-153
,704,2023-10-27 11:44:10.93,393,-770,-1820,-221,-68,-373,325,355,-30,-340
,705,2023-10-27 11:44:10.94,408,-1073,-1687,-259,-116,-392,201,286,-85,-243
,706,2023-10-27 11:44:10.95,420,-1351,-1677,-287,-108,-446,362,412,-50,-387
,707,2023-10-27 11:44:10.96,387,-1165,-1715,-326,-100,-460,265,282,-17,-273
,708,2023-10-27 11:44:10.97,408,-1059,-1778,-323,-157,-470,462,438,24,-450
,709,2023-10-27 11:44:10.98,400,-1088,-1751,-324,-184,-486,395,372,23,-383
,710,2023-10-27 11:44:10.99,394,-1114,-1733,-352,-208,-504,571,531,40,-551
,711,2023-10-27 11:44:11.00,405,-1104,-1734,-409,-202,-515,481,424,57,-452
,712,2023-10-27 11:44:11.01,439,-1102,-1760,-465,-190,-502,640,558,82,-599
,713,2023-10-27 11:44:11.02,413,-1118,-1747,-504,-211,-492,520,432,88,-476
,714,2023-10-27 11:44:11.03,444,-1195,-1679,-497,-219,-507,657,538,119,-597
,715,2023-10-27 11:44:11.04,431,-1083,-1733,-490,-238,-487,548,417,131,-482
,716,2023-10-27 11:44:11.05,432,-1100,-1745,-478,-278,-486,679,531,148,-605
,717,2023-10-27 11:44:11.06,417,-1082,-1752,-480,-300,-487,556,418,138,-487
,718,2023-10-27 11:44:11.07,421,-1057,-1777,-495,-306,-489,662,521,141,-591
,719,2023-10-27 11:44:11.08,412,-1023,-1780,-518,-296,-474,538,382,156,-460
,720,2023-10-27 11:44:11.09,413,-888,-1904,-548,-289,-453,641,458,183,-549
,721,2023-10-27 11:44:11.10,417,-1074,-1763,-592,-298,-435,488,294,194,-391
,722,2023-10-27 11:44:11.11,405,-1053,-1800,-587,-274,-416,582,364,218,-473
,723,2023-10-27 11:44:11.12,392,-1032,-1826,-595,-303,-389,432,193,239,-312
,724,2023-10-27 11:44:11.13,399,-1022,-1851,-579,-351,-391,516,253,263,-384
,725,2023-10-27 11:44:11.14,392,-1000,-1846,-590,-369,-385,341,96,245,-218
,726,2023-10-27 11:44:11.15,389,-954,-1887,-614,-405,-394,405,150,255,-277
,727,2023-10-27 11:44:11.16,403,-911,-1908,-647,-425,-404,251,4,247,-127
,728,2023-10-27 11:44:11.17,363,-901,-1908,-682,-437,-407,334,77,257,-205
,729,2023-10-27 11:44:11.18,357,-889,-1897,-715,-466,-429,184,-75,259,-54
,730,2023-10-27 11:44:11.19,363,-891,-1912,-726,-505,-434,270,-15,285,-127
,731,2023-10-27 11:44:11.20,371,-866,-1931,-754,-519,-445,146,-136,282,-5
,732,2023-10-27 11:44:11.21,363,-883,-1921,-793,-515,-459,234,-96,330,-69
,733,2023-10-27 11:44:11.22,346,-894,-1948,-827,-521,-475,116,-234,350,59
,734,2023-10-27 11:44:11.23,359,-860,-1954,-845,-539,-478,196,-163,359,-16
,735,2023-10-27 11:44:11.24,355,-827,-1955,-862,-570,-478,86,-288,374,101
,736,2023-10-27 11:44:11.25,346,-805,-1963,-872,-605,-481,173,-263,436,45
,737,2023-10-27 11:44:11.26,338,-758,-1972,-890,-636,-480,57,-390,447,166
,738,2023-10-27 11:44:11.27,316,-692,-1954,-930,-669,-490,146,-314,460,84
,739,2023-10-27 11:44:11.28,310,-644,-1989,-974,-714,-498,49,-364,413,157
,740,2023-10-27 11:44:11.29,299,-604,-2015,-1030,-730,-515,131,-260,391,64
,741,2023-10-27 11:44:11.30,296,-587,-1965,-1087,-758,-539,33,-369,402,168
,742,2023-10-27 11:44:11.31,286,-590,-1988,-1149,-760,-563,111,-347,458,118
,743,2023-10-27 11:44:11.32,282,-578,-1987,-1201,-768,-591,20,-462,482,221
,744,2023-10-27 11:44:11.33,250,-534,-2008,-1231,-815,-635,102,-382,484,140
,745,2023-10-27 11:44:11.34,256,-465,-1984,-1255,-875,-685,20,-444,464,212
,746,2023-10-27 11:44:11.35,248,-414,-2022,-1281,-917,-747,104,-350,454,123
,747,2023-10-27 11:44:11.36,255,-347,-1990,-1331,-939,-806,37,-402,439,182
,748,2023-10-27 11:44:11.37,246,-297,-1960,-1401,-925,-878,133,-313,446,90
,749,2023-10-27 11:44:11.38,224,-268,-1985,-1475,-894,-959,96,-363,459,133
,750,2023-10-27 11:44:11.39,222,-271,-2036,-1537,-879,-1036,176,-280,456,52
,751,2023-10-27 11:44:11.40,230,-268,-2058,-1574,-897,-1102,138,-338,476,100
,752,2023-10-27 11:44:11.41,216,-253,-2051,-1593,-909,-1150,211,-260,471,24
,753,2023-10-27 11:44:11.42,199,-189,-2049,-1612,-922,-1200,177,-361,538,92
,754,2023-10-27 11:44:11.43,211,-186,-2035,-1629,-921,-1250,242,-324,566,41
,755,2023-10-27 11:44:11.44,217,-226,-2054,-1606,-888,-1291,211,-401,612,95
,756,2023-10-27 11:44:11.45,192,-246,-2057,-1523,-862,-1325,259,-328,587,34
,757,2023-10-27 11:44:11.46,158,-220,-2015,-1425,-836,-1355,234,-383,617,74
,758,2023-10-27 11:44:11.47,166,-200,-1971,-1351,-810,-1356,275,-318,593,21
,759,2023-10-27 11:44:11.48,137,-203,-1973,-1288,-786,-1360,258,-384,642,63
,760,2023-10-27 11:44:11.49,119,-201,-2003,-1225,-745,-1346,280,-329,609,24
,761,2023-10-27 11:44:11.50,103,-210,-2007,-1147,-732,-1328,276,-485,761,104
,762,2023-10-27 11:44:11.51,81,-191,-2016,-1065,-700,-1305,293,-504,797,105
,763,2023-10-27 11:44:11.52,83,-154,-2016,-992,-677,-1266,289,-596,885,153
,764,2023-10-27 11:44:11.53,74,-126,-2007,-935,-635,-1227,303,-527,830,112
,765,2023-10-27 11:44:11.54,57,-68,-2030,-880,-619,-1187,300,-569,869,134
,766,2023-10-27 11:44:11.55,26,-44,-2059,-828,-581,-1153,294,-505,799,105
,767,2023-10-27 11:44:11.56,42,23,-1995,-769,-549,-1123,292,-576,868,142
,768,2023-10-27 11:44:11.57,14,49,-1999,-728,-510,-1100,285,-524,809,119
,769,2023-10-27 11:44:11.58,-1,33,-2020,-717,-466,-1072,304,-641,945,168
,770,2023-10-27 11:44:11.59,-41,41,-2059,-699,-430,-1041,288,-622,910,167
,771,2023-10-27 11:44:11.60,-35,44,-2036,-660,-449,-1007,298,-771,1069,236
,772,2023-10-27 11:44:11.61,-74,64,-2007,-627,-422,-957,286,-754,1040,234
,773,2023-10-27 11:44:11.62,-67,51,-2000,-606,-411,-916,296,-866,1162,285
,774,2023-10-27 11:44:11.63,-97,37,-2015,-595,-378,-872,269,-816,1085,273
,775,2023-10-27 11:44:11.64,-123,54,-2029,-576,-338,-820,292,-888,1180,298
,776,2023-10-27 11:44:11.65,-143,61,-2021,-545,-339,-771,266,-800,1066,267
,777,2023-10-27 11:44:11.66,-177,94,-2010,-508,-361,-724,293,-871,1164,289
,778,2023-10-27 11:44:11.67,-183,123,-2019,-480,-361,-680,251,-802,1053,275
,779,2023-10-27 11:44:11.68,-208,138,-2023,-463,-369,-636,282,-941,1223,329
,780,2023-10-27 11:44:11.69,-219,173,-2030,-458,-378,-596,244,-912,1156,334
,781,2023-10-27 11:44:11.70,-250,196,-2015,-452,-396,-555,275,-1039,1314,382
,782,2023-10-27 11:44:11.71,-266,210,-2018,-453,-380,-519,234,-967,1201,366
,783,2023-10-27 11:44:11.72,-263,224,-2006,-456,-372,-483,278,-1068,1346,395
,784,2023-10-27 11:44:11.73,-280,246,-1987,-459,-361,-449,228,-988,1216,380
,785,2023-10-27 11:44:11.74,-278,255,-1975,-452,-354,-418,282,-1120,1402,419
,786,2023-10-27 11:44:11.75,-286,235,-1972,-437,-329,-391,228,-1048,1276,410
,787,2023-10-27 11:44:11.76,-305,249,-1978,-412,-317,-352,289,-1145,1434,428
,788,2023-10-27 11:44:11.77,-303,258,-1951,-387,-325,-325,232,-1044,1276,406
,789,2023-10-27 11:44:11.78,-331,268,-1954,-358,-314,-295,286,-1137,1423,425
,790,2023-10-27 11:44:11.79,-315,263,-1957,-334,-313,-262,218,-1034,1252,408
,791,2023-10-27 11:44:11.80,-333,269,-1945,-320,-302,-232,294,-1122,1416,414
,792,2023-10-27 11:44:11.81,-333,270,-1935,-299,-286,-203,226,-1028,1254,401
,793,2023-10-27 11:44:11.82,-338,281,-1938,-276,-260,-171,295,-1136,1431,420
,794,2023-10-27 11:44:11.83,-359,275,-1963,-245,-247,-136,217,-1040,1257,411
,795,2023-10-27 11:44:11.84,-364,267,-1985,-214,-240,-106,298,-1136,1434,419
,796,2023-10-27 11:44:11.85,-388,260,-1977,-187,-243,-70,224,-1033,1257,404
,797,2023-10-27 11:44:11.86,-398,251,-2001,-167,-242,-20,324,-1118,1442,397
,798,2023-10-27 11:44:11.87,-410,265,-2014,-146,-244,26,229,-1022,1251,396
,799,2023-10-27 11:44:11.88,-409,268,-2009,-121,-255,70,313,-1126,1439,406
,800,2023-10-27 11:44:11.89,-405,272,-2002,-105,-251,119,230,-1025,1255,397
,801,2023-10-27 11:44:11.90,-410,298,-1972,-86,-247,164,320,-1122,1442,401
,802,2023-10-27 11:44:11.91,-404,308,-1955,-69,-245,197,226,-1025,1251,399
,803,2023-10-27 11:44:11.92,-399,249,-1920,-51,-244,222,306,-1119,1425,406
,804,2023-10-27 11:44:11.93,-442,397,-1960,-68,-200,270,214,-1013,1227,399
,805,2023-10-27 11:44:11.94,-401,323,-1947,-64,-192,303,308,-1097,1405,394
,806,2023-10-27 11:44:11.95,-420,336,-1957,-58,-172,331,204,-992,1196,394
,807,2023-10-27 11:44:11.96,-425,336,-1939,-57,-150,361,315,-1080,1395,382
,808,2023-10-27 11:44:11.97,-410,329,-1945,-50,-129,384,208,-980,1188,386
,809,2023-10-27 11:44:11.98,-417,330,-1956,-37,-101,415,315,-1062,1377,373
,810,2023-10-27 11:44:11.99,-422,332,-1957,-13,-106,446,216,-971,1187,377
,811,2023-10-27 11:44:12.00,-419,323,-1963,8,-88,484,330,-1067,1397,368
,812,2023-10-27 11:44:12.01,-431,339,-2000,21,-75,519,212,-981,1193,384
,813,2023-10-27 11:44:12.02,-424,331,-1982,25,-61,557,327,-1064,1391,368
,814,2023-10-27 11:44:12.03,-386,339,-1915,37,-37,591,210,-972,1182,381
,815,2023-10-27 11:44:12.04,-382,349,-1900,50,-35,621,324,-1055,1379,365
,816,2023-10-27 11:44:12.05,-377,346,-1929,53,2,658,206,-970,1176,382
,817,2023-10-27 11:44:12.06,-370,331,-1953,58,36,694,327,-1054,1381,363
,818,2023-10-27 11:44:12.07,-354,316,-1975,77,48,736,205,-974,1179,384
,819,2023-10-27 11:44:12.08,-353,305,-1959,102,60,779,321,-1054,1375,366
,820,2023-10-27 11:44:12.09,-342,298,-1966,123,86,829,194,-980,1174,393
,821,2023-10-27 11:44:12.10,-332,303,-1981,154,99,940,325,-1063,1388,369
,822,2023-10-27 11:44:12.11,-325,279,-1985,174,103,1012,200,-983,1183,391
,823,2023-10-27 11:44:12.12,-298,268,-1995,201,96,1088,326,-1061,1387,367
,824,2023-10-27 11:44:12.13,-300,247,-1983,234,104,1171,195,-985,1180,395
,825,2023-10-27 11:44:12.14,-292,239,-1986,268,125,1263,319,-1065,1384,373
,826,2023-10-27 11:44:12.15,-265,241,-1975,293,131,1347,198,-988,1186,395
,827,2023-10-27 11:44:12.16,-248,235,-1973,316,135,1434,342,-1054,1396,356
,828,2023-10-27 11:44:12.17,-248,220,-1983,341,134,1532,210,-987,1197,388
,829,2023-10-27 11:44:12.18,-226,224,-1988,379,125,1636,345,-1063,1408,359
,830,2023-10-27 11:44:12.19,-219,227,-1993,431,106,1740,207,-1005,1212,399
,831,2023-10-27 11:44:12.20,-182,230,-1992,471,92,1841,330,-1079,1409,374
,832,2023-10-27 11:44:12.21,-180,230,-1998,495,92,1946,178,-1013,1191,417
,833,2023-10-27 11:44:12.22,-160,263,-1984,519,104,2045,283,-1075,1358,396
,834,2023-10-27 11:44:12.23,-128,285,-1990,548,125,2134,133,-1004,1137,435
,835,2023-10-27 11:44:12.24,-124,308,-1989,577,136,2211,248,-1061,1309,406
,836,2023-10-27 11:44:12.25,-110,319,-2000,601,148,2275,116,-1012,1128,448
,837,2023-10-27 11:44:12.26,-80,350,-2009,624,150,2334,229,-1086,1315,428
,838,2023-10-27 11:44:12.27,-55,369,-2013,649,147,2383,91,-1028,1119,468
,839,2023-10-27 11:44:12.28,-56,381,-2017,681,137,2426,203,-1080,1283,438
,840,2023-10-27 11:44:12.29,-32,378,-2052,699,143,2471,85,-1018,1103,466
,841,2023-10-27 11:44:12.30,-24,375,-2085,723,134,2510,221,-1071,1292,425
,842,2023-10-27 11:44:12.31,-1,377,-2071,747,123,2534,94,-1032,1126,469
,843,2023-10-27 11:44:12.32,19,390,-2064,768,116,2546,225,-1094,1319,434
,844,2023-10-27 11:44:12.33,10,414,-2058,769,132,2544,85,-1050,1135,482
,845,2023-10-27 11:44:12.34,13,430,-2034,753,154,2526,236,-1083,1319,423
,846,2023-10-27 11:44:12.35,51,474,-2135,685,234,2509,118,-1038,1156,460
,847,2023-10-27 11:44:12.36,38,404,-1920,701,212,2453,269,-1079,1348,405
,848,2023-10-27 11:44:12.37,23,444,-2081,760,230,2403,144,-1043,1187,449
,849,2023-10-27 11:44:12.38,40,425,-2094,785,191,2352,278,-1087,1365,404
,850,2023-10-27 11:44:12.39,35,424,-2110,805,177,2296,148,-1049,1197,450
,851,2023-10-27 11:44:12.40,35,413,-2121,815,164,2233,298,-1083,1381,392
,852,2023-10-27 11:44:12.41,44,402,-2110,813,150,2159,170,-1051,1221,440
,853,2023-10-27 11:44:12.42,29,398,-2108,787,142,2082,305,-1080,1385,387
,854,2023-10-27 11:44:12.43,19,444,-2124,675,154,1999,184,-1050,1234,433
,855,2023-10-27 11:44:12.44,84,319,-1883,656,163,1883,336,-1075,1411,369
,856,2023-10-27 11:44:12.45,84,405,-2115,715,167,1782,213,-1044,1257,415
,857,2023-10-27 11:44:12.46,78,455,-2123,723,115,1668,347,-1066,1413,359
,858,2023-10-27 11:44:12.47,97,411,-2095,704,102,1541,202,-1045,1247,421
,859,2023-10-27 11:44:12.48,78,431,-2078,674,91,1421,313,-1068,1381,377
,860,2023-10-27 11:44:12.49,65,358,-2069,621,108,1291,169,-1039,1208,435
,861,2023-10-27 11:44:12.50,75,338,-2080,571,118,1165,282,-1050,1332,384
,862,2023-10-27 11:44:12.51,74,314,-2090,531,120,1039,163,-1039,1202,438
,863,2023-10-27 11:44:12.52,54,284,-2094,503,108,910,306,-1057,1363,375
,864,2023-10-27 11:44:12.53,47,253,-2117,469,85,782,205,-1059,1264,427
,865,2023-10-27 11:44:12.54,65,202,-2089,434,53,662,352,-1074,1426,361
,866,2023-10-27 11:44:12.55,50,170,-2085,422,46,545,251,-1060,1311,404
,867,2023-10-27 11:44:12.56,36,164,-2082,411,40,434,398,-1061,1459,331
,868,2023-10-27 11:44:12.57,33,126,-2076,380,26,321,283,-1060,1343,388
,869,2023-10-27 11:44:12.58,51,114,-2076,334,23,218,411,-1067,1478,328
,870,2023-10-27 11:44:12.59,41,114,-2069,303,13,127,300,-1065,1365,382
,871,2023-10-27 11:44:12.60,32,88,-2082,270,-9,46,414,-1063,1477,324
,872,2023-10-27 11:44:12.61,35,109,-2181,181,8,-2,265,-1065,1330,400
,873,2023-10-27 11:44:12.62,44,-85,-1971,168,-43,-81,346,-1060,1406,357
,874,2023-10-27 11:44:12.63,40,-6,-2096,199,-61,-130,215,-1065,1280,425
,875,2023-10-27 11:44:12.64,16,-36,-2089,191,-98,-161,321,-1060,1381,369
,876,2023-10-27 11:44:12.65,-2,-83,-2059,179,-129,-197,244,-1069,1313,412
,877,2023-10-27 11:44:12.66,-14,-82,-2058,168,-140,-221,368,-1066,1434,349
,878,2023-10-27 11:44:12.67,-7,-79,-2057,151,-156,-246,231,-1081,1312,425
,879,2023-10-27 11:44:12.68,-22,-92,-2050,134,-169,-266,309,-1073,1382,382
,880,2023-10-27 11:44:12.69,-18,-102,-2049,123,-179,-279,178,-1099,1277,460
,881,2023-10-27 11:44:12.70,-29,-111,-2056,118,-184,-287,276,-1088,1364,406
,882,2023-10-27 11:44:12.71,-55,-113,-2045,112,-187,-296,193,-1086,1279,446
,883,2023-10-27 11:44:12.72,-63,-145,-2046,103,-181,-302,282,-1051,1333,384
,884,2023-10-27 11:44:12.73,-71,-141,-2028,87,-172,-301,230,-1087,1317,428
,885,2023-10-27 11:44:12.74,-72,-123,-2012,64,-161,-305,363,-1079,1442,358
,886,2023-10-27 11:44:12.75,-76,-120,-2013,39,-145,-312,382,-1104,1486,361
,887,2023-10-27 11:44:12.76,-82,-98,-2023,13,-131,-318,498,-1067,1565,284
,888,2023-10-27 11:44:12.77,-80,-98,-2039,-12,-125,-317,490,-1092,1582,301
,889,2023-10-27 11:44:12.78,-75,-93,-2030,-24,-125,-314,574,-1056,1630,241
,890,2023-10-27 11:44:12.79,-75,-89,-2015,-34,-124,-307,560,-1088,1648,264
,891,2023-10-27 11:44:12.80,-77,-78,-2029,-47,-119,-307,630,-1045,1675,207
,892,2023-10-27 11:44:12.81,-87,-88,-2026,-68,-116,-304,630,-1089,1719,229
,893,2023-10-27 11:44:12.82,-95,-81,-2042,-83,-112,-295,695,-1064,1759,184
,894,2023-10-27 11:44:12.83,-82,-84,-2035,-101,-110,-286,619,-1124,1743,252
,895,2023-10-27 11:44:12.84,-92,-73,-2035,-114,-111,-275,619,-1083,1702,232
,896,2023-10-27 11:44:12.85,-97,-73,-2037,-129,-106,-265,522,-1124,1646,301
,897,2023-10-27 11:44:12.86,-89,-72,-2031,-150,-105,-257,539,-1073,1612,267
,898,2023-10-27 11:44:12.87,-89,-75,-2043,-169,-101,-248,458,-1124,1582,333
,899,2023-10-27 11:44:12.88,-98,-62,-2032,-176,-102,-243,470,-1075,1545,302
,900,2023-10-27 11:44:12.89,-97,-65,-2024,-188,-99,-234,404,-1133,1537,364
,901,2023-10-27 11:44:12.90,-103,-64,-2043,-202,-98,-227,443,-1073,1516,315
,902,2023-10-27 11:44:12.91,-94,-57,-2042,-206,-100,-227,385,-1112,1497,363
,903,2023-10-27 11:44:12.92,-97,-53,-2034,-217,-101,-219,406,-1049,1455,321
,904,2023-10-27 11:44:12.93,-97,-53,-2047,-222,-95,-221,352,-1109,1461,378
,905,2023-10-27 11:44:12.94,-112,-53,-2048,-226,-95,-219,384,-1059,1443,337
,906,2023-10-27 11:44:12.95,-105,-47,-2044,-223,-91,-214,324,-1136,1460,406
,907,2023-10-27 11:44:12.96,-110,-46,-2033,-216,-92,-212,344,-1075,1419,365
,908,2023-10-27 11:44:12.97,-95,-36,-2019,-211,-91,-215,290,-1130,1420,420
,909,2023-10-27 11:44:12.98,-99,-27,-2029,-209,-77,-219,317,-1060,1377,371
