// Data mode  : Full
// Data quality  : High
// Acceleration sensor's range  : 16g
// Gyroscope sensor's range  : 2000dps
//
//ARTIFACT,NUM,DATE,ACC_X,ACC_Y,ACC_Z,GYRO_X,GYRO_Y,GYRO_Z,EOG_L,EOG_R,EOG_H,EOG_V
,1,2023-10-27 11:37:59.67,211,177,-2221,-37,75,-146,-60,-692,632,376
,2,2023-10-27 11:37:59.68,244,194,-2154,-9,-22,-103,5,-624,629,309
,3,2023-10-27 11:37:59.69,283,242,-2070,25,-95,-70,-92,-698,606,395
,4,2023-10-27 11:37:59.70,351,277,-1893,67,-147,-74,-20,-632,612,326
,5,2023-10-27 11:37:59.71,323,315,-1959,89,-105,-92,-99,-714,615,406
,6,2023-10-27 11:37:59.72,290,308,-2063,70,-76,-107,-19,-650,631,334
,7,2023-10-27 11:37:59.73,298,266,-2073,26,-65,-117,-113,-735,622,424
,8,2023-10-27 11:37:59.74,306,265,-2043,4,-47,-114,-35,-663,628,349
,9,2023-10-27 11:37:59.75,305,272,-1978,-2,-25,-121,-130,-752,622,441
,10,2023-10-27 11:37:59.76,269,264,-1945,11,-28,-118,-53,-677,624,365
,11,2023-10-27 11:37:59.77,313,254,-1981,19,-22,-114,-124,-759,635,441
,12,2023-10-27 11:37:59.78,304,260,-1990,29,12,-117,-26,-670,644,348
,13,2023-10-27 11:37:59.79,278,252,-2022,34,46,-115,-104,-760,656,432
,14,2023-10-27 11:37:59.80,237,213,-2060,33,51,-106,-22,-676,654,349
,15,2023-10-27 11:37:59.81,238,202,-2082,32,35,-83,-143,-783,640,463
,16,2023-10-27 11:37:59.82,234,202,-2063,44,6,-46,-87,-718,631,402
,17,2023-10-27 11:37:59.83,241,221,-2053,54,-17,-15,-192,-825,633,508
,18,2023-10-27 11:37:59.84,235,205,-2042,49,-39,16,-117,-750,633,433
,19,2023-10-27 11:37:59.85,231,205,-2041,29,-51,51,-206,-846,640,526
,20,2023-10-27 11:37:59.86,230,211,-2050,12,-65,84,-110,-748,638,429
,21,2023-10-27 11:37:59.87,226,210,-2050,13,-93,121,-193,-831,638,512
,22,2023-10-27 11:37:59.88,260,227,-2023,17,-110,148,-107,-718,611,412
,23,2023-10-27 11:37:59.89,259,232,-2011,21,-107,164,-177,-817,640,497
,24,2023-10-27 11:37:59.90,272,217,-2018,13,-85,176,-77,-708,631,392
,25,2023-10-27 11:37:59.91,268,198,-2048,4,-68,188,-161,-806,645,483
,26,2023-10-27 11:37:59.92,308,169,-2020,11,-44,200,-70,-688,618,379
,27,2023-10-27 11:37:59.93,311,156,-1994,48,-9,196,-146,-810,664,478
,28,2023-10-27 11:37:59.94,321,164,-1985,82,37,189,-28,-702,674,365
,29,2023-10-27 11:37:59.95,346,172,-1937,112,72,181,-13,-745,732,379
,30,2023-10-27 11:37:59.96,375,169,-1946,144,127,162,56,-605,661,274
,31,2023-10-27 11:37:59.97,358,172,-1937,182,178,138,-218,-710,492,464
,32,2023-10-27 11:37:59.98,366,156,-1915,240,214,111,-402,-780,378,591
,33,2023-10-27 11:37:59.99,406,181,-1963,292,261,83,-714,-998,284,856
,34,2023-10-27 11:38:00.00,418,161,-1990,313,304,48,-744,-963,219,853
,35,2023-10-27 11:38:00.01,420,156,-1965,329,345,15,-874,-1019,145,946
,36,2023-10-27 11:38:00.02,421,166,-1949,349,381,-18,-778,-897,119,837
,37,2023-10-27 11:38:00.03,413,161,-1974,371,406,-52,-847,-975,128,911
,38,2023-10-27 11:38:00.04,402,161,-2009,381,415,-79,-776,-892,116,834
,39,2023-10-27 11:38:00.05,423,152,-2031,375,411,-101,-918,-985,67,951
,40,2023-10-27 11:38:00.06,426,139,-2033,372,404,-125,-856,-889,33,872
,41,2023-10-27 11:38:00.07,447,124,-2026,378,406,-146,-975,-976,1,975
,42,2023-10-27 11:38:00.08,444,111,-2026,392,394,-168,-884,-881,-3,882
,43,2023-10-27 11:38:00.09,448,116,-2022,414,371,-184,-994,-985,-9,989
,44,2023-10-27 11:38:00.10,444,123,-2037,431,349,-203,-894,-898,4,896
,45,2023-10-27 11:38:00.11,463,134,-2059,441,339,-217,-1030,-1032,2,1031
,46,2023-10-27 11:38:00.12,458,115,-2060,443,315,-230,-971,-976,5,973
,47,2023-10-27 11:38:00.13,468,91,-2056,444,297,-245,-1161,-1152,-9,1156
,48,2023-10-27 11:38:00.14,481,78,-2061,453,291,-256,-1096,-1097,1,1096
,49,2023-10-27 11:38:00.15,469,50,-2101,453,284,-260,-1220,-1215,-5,1217
,50,2023-10-27 11:38:00.16,497,35,-2070,454,263,-265,-1088,-1098,10,1093
,51,2023-10-27 11:38:00.17,494,51,-2009,479,238,-271,-1170,-1199,29,1184
,52,2023-10-27 11:38:00.18,492,55,-1991,524,228,-276,-1007,-1091,84,1049
,53,2023-10-27 11:38:00.19,500,30,-1989,578,217,-295,-1060,-1205,145,1132
,54,2023-10-27 11:38:00.20,547,-36,-1986,581,219,-309,-887,-1099,212,993
,55,2023-10-27 11:38:00.21,565,-45,-1913,566,216,-319,-940,-1213,273,1076
,56,2023-10-27 11:38:00.22,581,-15,-1861,564,253,-347,-749,-1097,348,923
,57,2023-10-27 11:38:00.23,575,-4,-1825,595,286,-374,-766,-1202,436,984
,58,2023-10-27 11:38:00.24,557,-50,-1864,645,312,-416,-606,-1078,472,842
,59,2023-10-27 11:38:00.25,572,-69,-1950,678,337,-445,-628,-1197,569,912
,60,2023-10-27 11:38:00.26,574,-128,-2024,707,356,-459,-464,-1095,631,779
,61,2023-10-27 11:38:00.27,631,-188,-2015,735,373,-486,-503,-1194,691,848
,62,2023-10-27 11:38:00.28,602,-175,-1977,773,372,-517,-377,-1052,675,714
,63,2023-10-27 11:38:00.29,608,-146,-1950,813,384,-531,-400,-1136,736,768
,64,2023-10-27 11:38:00.30,611,-162,-1934,859,386,-555,-282,-981,699,631
,65,2023-10-27 11:38:00.31,629,-204,-1940,899,383,-577,-389,-1115,726,752
,66,2023-10-27 11:38:00.32,641,-227,-2005,908,405,-599,-316,-1024,708,670
,67,2023-10-27 11:38:00.33,669,-242,-2068,894,422,-612,-384,-1150,766,767
,68,2023-10-27 11:38:00.34,671,-236,-2049,875,427,-616,-288,-1008,720,648
,69,2023-10-27 11:38:00.35,672,-215,-2025,868,418,-612,-279,-1085,806,682
,70,2023-10-27 11:38:00.36,688,-251,-2036,863,398,-601,-201,-920,719,560
,71,2023-10-27 11:38:00.37,672,-329,-2038,843,370,-583,-231,-1040,809,635
,72,2023-10-27 11:38:00.38,669,-340,-2041,807,346,-550,-153,-937,784,545
,73,2023-10-27 11:38:00.39,695,-335,-2035,779,323,-516,-170,-1069,899,619
,74,2023-10-27 11:38:00.40,680,-332,-1971,747,298,-476,-104,-932,828,518
,75,2023-10-27 11:38:00.41,683,-315,-1969,736,282,-435,58,-1001,1059,471
,76,2023-10-27 11:38:00.42,668,-349,-1986,694,271,-404,122,-830,952,354
,77,2023-10-27 11:38:00.43,658,-378,-1993,634,255,-356,215,-914,1129,349
,78,2023-10-27 11:38:00.44,659,-351,-1965,574,234,-305,210,-775,985,282
,79,2023-10-27 11:38:00.45,662,-334,-1947,542,202,-251,288,-876,1164,294
,80,2023-10-27 11:38:00.46,663,-371,-1974,511,171,-203,204,-743,947,269
,81,2023-10-27 11:38:00.47,658,-365,-1992,454,153,-151,250,-807,1057,278
,82,2023-10-27 11:38:00.48,634,-372,-1966,392,116,-92,239,-663,902,212
,83,2023-10-27 11:38:00.49,657,-377,-1991,345,110,-36,328,-711,1039,191
,84,2023-10-27 11:38:00.50,644,-405,-1999,309,61,22,285,-570,855,142
,85,2023-10-27 11:38:00.51,638,-429,-2009,252,43,80,412,-618,1030,103
,86,2023-10-27 11:38:00.52,620,-394,-1993,196,11,139,382,-482,864,50
,87,2023-10-27 11:38:00.53,622,-391,-1990,151,-16,188,549,-507,1056,-21
,88,2023-10-27 11:38:00.54,612,-416,-1991,115,-55,242,427,-371,798,-28
,89,2023-10-27 11:38:00.55,615,-404,-1996,75,-83,280,592,-365,957,-113
,90,2023-10-27 11:38:00.56,622,-380,-1976,38,-109,320,480,-284,764,-98
,91,2023-10-27 11:38:00.57,618,-341,-1968,-5,-125,341,602,-383,985,-109
,92,2023-10-27 11:38:00.58,638,-327,-1985,-52,-131,354,475,-376,851,-49
,93,2023-10-27 11:38:00.59,618,-337,-1982,-105,-125,363,694,-424,1118,-135
,94,2023-10-27 11:38:00.60,616,-335,-1991,-142,-140,377,542,-308,850,-117
,95,2023-10-27 11:38:00.61,617,-322,-1994,-175,-156,387,691,-310,1001,-190
,96,2023-10-27 11:38:00.62,595,-336,-1979,-205,-179,394,528,-248,776,-140
,97,2023-10-27 11:38:00.63,602,-317,-1966,-240,-187,405,732,-290,1022,-221
,98,2023-10-27 11:38:00.64,604,-311,-1969,-276,-192,404,518,-241,759,-138
,99,2023-10-27 11:38:00.65,593,-309,-1972,-292,-208,401,710,-283,993,-213
,100,2023-10-27 11:38:00.66,588,-283,-1965,-314,-207,395,569,-223,792,-173
,101,2023-10-27 11:38:00.67,594,-271,-1943,-334,-212,384,756,-281,1037,-237
,102,2023-10-27 11:38:00.68,600,-287,-1962,-340,-214,370,579,-247,826,-166
,103,2023-10-27 11:38:00.69,603,-284,-1952,-349,-208,357,799,-292,1091,-253
,104,2023-10-27 11:38:00.70,589,-273,-1977,-348,-202,345,578,-250,828,-164
,105,2023-10-27 11:38:00.71,569,-288,-1974,-341,-217,335,755,-247,1002,-254
,106,2023-10-27 11:38:00.72,595,-272,-2002,-336,-212,327,569,-182,751,-193
,107,2023-10-27 11:38:00.73,572,-266,-1991,-342,-215,319,726,-158,884,-284
,108,2023-10-27 11:38:00.74,568,-285,-1966,-347,-215,326,572,-147,719,-212
,109,2023-10-27 11:38:00.75,565,-263,-1956,-345,-228,321,840,-210,1050,-315
,110,2023-10-27 11:38:00.76,563,-245,-1948,-340,-230,309,648,-221,869,-213
,111,2023-10-27 11:38:00.77,563,-245,-1957,-326,-245,293,834,-230,1064,-302
,112,2023-10-27 11:38:00.78,571,-208,-1965,-309,-236,274,621,-204,825,-208
,113,2023-10-27 11:38:00.79,595,-167,-1955,-313,-197,243,784,-180,964,-302
,114,2023-10-27 11:38:00.80,569,-186,-1972,-325,-167,212,576,-147,723,-214
,115,2023-10-27 11:38:00.81,575,-196,-2017,-332,-137,189,782,-127,909,-327
,116,2023-10-27 11:38:00.82,530,-184,-2034,-317,-147,177,603,-151,754,-226
,117,2023-10-27 11:38:00.83,560,-210,-2033,-305,-176,171,815,-162,977,-326
,118,2023-10-27 11:38:00.84,545,-201,-2064,-314,-184,170,619,-143,762,-238
,119,2023-10-27 11:38:00.85,513,-193,-2066,-345,-186,172,836,-78,914,-379
,120,2023-10-27 11:38:00.86,512,-177,-2092,-376,-187,176,634,-84,718,-275
,121,2023-10-27 11:38:00.87,477,-254,-2113,-406,-220,191,809,-10,819,-399
,122,2023-10-27 11:38:00.88,459,-287,-2082,-409,-278,213,586,-6,592,-290
,123,2023-10-27 11:38:00.89,474,-200,-2063,-418,-337,254,764,4,760,-384
,124,2023-10-27 11:38:00.90,423,-256,-2039,-439,-385,281,541,-30,571,-255
,125,2023-10-27 11:38:00.91,444,-257,-2007,-461,-436,321,681,-3,684,-339
,126,2023-10-27 11:38:00.92,470,-226,-1979,-488,-454,355,428,-45,473,-191
,127,2023-10-27 11:38:00.93,448,-184,-1965,-485,-492,380,573,-10,583,-281
,128,2023-10-27 11:38:00.94,476,-139,-1977,-468,-497,405,407,-30,437,-188
,129,2023-10-27 11:38:00.95,471,-133,-1950,-451,-494,393,565,6,559,-285
,130,2023-10-27 11:38:00.96,458,-107,-1908,-452,-479,386,417,-56,473,-180
,131,2023-10-27 11:38:00.97,444,-71,-1908,-464,-456,382,567,-70,637,-248
,132,2023-10-27 11:38:00.98,424,-69,-1926,-465,-434,367,391,-138,529,-126
,133,2023-10-27 11:38:00.99,410,-66,-1963,-453,-413,361,516,-144,660,-186
,134,2023-10-27 11:38:01.00,412,-121,-1979,-436,-389,353,352,-193,545,-79
,135,2023-10-27 11:38:01.01,375,-124,-2020,-403,-383,354,496,-170,666,-163
,136,2023-10-27 11:38:01.02,390,-81,-2046,-388,-355,351,352,-204,556,-74
,137,2023-10-27 11:38:01.03,356,-70,-2049,-377,-346,346,486,-187,673,-149
,138,2023-10-27 11:38:01.04,347,-56,-2056,-369,-342,347,336,-250,586,-43
,139,2023-10-27 11:38:01.05,336,-48,-2076,-368,-333,348,458,-256,714,-101
,140,2023-10-27 11:38:01.06,327,-43,-2042,-365,-331,343,295,-312,607,8
,141,2023-10-27 11:38:01.07,343,-27,-2052,-360,-314,337,412,-294,706,-59
,142,2023-10-27 11:38:01.08,300,-25,-2056,-356,-300,323,279,-317,596,19
,143,2023-10-27 11:38:01.09,329,-5,-2068,-346,-271,307,416,-286,702,-65
,144,2023-10-27 11:38:01.10,345,26,-2042,-322,-238,283,250,-375,625,62
,145,2023-10-27 11:38:01.11,354,17,-2027,-304,-196,249,363,-383,746,10
,146,2023-10-27 11:38:01.12,344,21,-2033,-288,-142,209,219,-441,660,111
,147,2023-10-27 11:38:01.13,309,13,-2033,-248,-120,177,338,-406,744,34
,148,2023-10-27 11:38:01.14,320,7,-2045,-193,-105,157,189,-444,633,127
,149,2023-10-27 11:38:01.15,286,9,-2070,-139,-122,144,301,-417,718,58
,150,2023-10-27 11:38:01.16,301,3,-2027,-89,-159,137,155,-497,652,171
,151,2023-10-27 11:38:01.17,277,5,-2050,-45,-155,129,285,-455,740,85
,152,2023-10-27 11:38:01.18,283,26,-2051,-25,-135,116,150,-503,653,176
,153,2023-10-27 11:38:01.19,291,16,-2035,-13,-143,105,270,-464,734,97
,154,2023-10-27 11:38:01.20,288,18,-2041,-2,-148,96,137,-533,670,198
,155,2023-10-27 11:38:01.21,280,5,-2053,14,-138,83,244,-490,734,123
,156,2023-10-27 11:38:01.22,270,2,-2058,25,-119,73,101,-560,661,229
,157,2023-10-27 11:38:01.23,294,4,-2052,37,-123,63,211,-544,755,166
,158,2023-10-27 11:38:01.24,260,-28,-2047,51,-113,55,53,-608,661,277
,159,2023-10-27 11:38:01.25,296,-41,-2057,73,-123,52,156,-551,707,197
,160,2023-10-27 11:38:01.26,243,-65,-2048,91,-120,46,45,-598,643,276
,161,2023-10-27 11:38:01.27,278,-47,-2042,119,-139,49,175,-555,730,190
,162,2023-10-27 11:38:01.28,239,-67,-2026,140,-135,46,68,-629,697,280
,163,2023-10-27 11:38:01.29,243,-102,-2020,163,-141,52,192,-549,741,178
,164,2023-10-27 11:38:01.30,252,-128,-2006,200,-142,58,78,-588,666,255
,165,2023-10-27 11:38:01.31,250,-146,-1979,241,-140,64,204,-517,721,156
,166,2023-10-27 11:38:01.32,250,-102,-1971,273,-120,60,100,-595,695,247
,167,2023-10-27 11:38:01.33,245,-94,-2008,287,-96,57,213,-531,744,159
,168,2023-10-27 11:38:01.34,229,-119,-2019,283,-85,55,110,-619,729,254
,169,2023-10-27 11:38:01.35,246,-122,-2036,284,-71,58,215,-566,781,175
,170,2023-10-27 11:38:01.36,288,-118,-2079,270,-30,51,80,-642,722,281
,171,2023-10-27 11:38:01.37,257,-129,-2095,236,-5,35,196,-542,738,173
,172,2023-10-27 11:38:01.38,274,-118,-2023,200,20,30,110,-600,710,245
,173,2023-10-27 11:38:01.39,282,-135,-2020,191,53,22,239,-508,747,134
,174,2023-10-27 11:38:01.40,285,-156,-2012,192,66,17,134,-595,729,230
,175,2023-10-27 11:38:01.41,299,-188,-1979,196,75,19,243,-521,764,139
,176,2023-10-27 11:38:01.42,272,-186,-1974,223,107,21,135,-618,753,241
,177,2023-10-27 11:38:01.43,284,-225,-1991,251,119,29,260,-516,776,128
,178,2023-10-27 11:38:01.44,273,-261,-2014,273,126,45,157,-603,760,223
,179,2023-10-27 11:38:01.45,286,-286,-2023,295,144,62,279,-499,778,110
,180,2023-10-27 11:38:01.46,247,-286,-2009,313,147,79,189,-593,782,202
,181,2023-10-27 11:38:01.47,282,-290,-2024,334,151,109,282,-483,765,100
,182,2023-10-27 11:38:01.48,257,-310,-2021,350,136,124,187,-595,782,204
,183,2023-10-27 11:38:01.49,262,-297,-2024,359,122,146,275,-516,791,120
,184,2023-10-27 11:38:01.50,269,-282,-2046,354,122,159,156,-638,794,241
,185,2023-10-27 11:38:01.51,252,-278,-2047,341,91,168,242,-536,778,147
,186,2023-10-27 11:38:01.52,280,-237,-2081,313,74,177,118,-648,766,265
,187,2023-10-27 11:38:01.53,261,-224,-2076,269,54,179,204,-535,739,165
,188,2023-10-27 11:38:01.54,258,-208,-2111,206,48,178,126,-653,779,263
,189,2023-10-27 11:38:01.55,270,-184,-2089,136,11,177,224,-551,775,163
,190,2023-10-27 11:38:01.56,280,-191,-2102,55,5,166,144,-664,808,260
,191,2023-10-27 11:38:01.57,256,-161,-2091,-32,-11,156,242,-546,788,152
,192,2023-10-27 11:38:01.58,260,-157,-2064,-107,-26,143,179,-654,833,237
,193,2023-10-27 11:38:01.59,264,-158,-2064,-188,-33,134,268,-541,809,136
,194,2023-10-27 11:38:01.60,258,-169,-2035,-262,-43,122,182,-664,846,241
,195,2023-10-27 11:38:01.61,265,-165,-2041,-323,-54,110,253,-544,797,145
,196,2023-10-27 11:38:01.62,271,-174,-2025,-363,-67,105,189,-640,829,225
,197,2023-10-27 11:38:01.63,250,-174,-2018,-388,-82,96,283,-504,787,110
,198,2023-10-27 11:38:01.64,251,-180,-2030,-417,-101,91,235,-598,833,181
,199,2023-10-27 11:38:01.65,251,-165,-2036,-451,-107,91,307,-459,766,76
,200,2023-10-27 11:38:01.66,199,-161,-2002,-464,-150,93,281,-575,856,147
,201,2023-10-27 11:38:01.67,245,-132,-2015,-453,-153,100,335,-433,768,49
,202,2023-10-27 11:38:01.68,201,-98,-2052,-454,-192,98,268,-561,829,146
,203,2023-10-27 11:38:01.69,193,-68,-2094,-491,-200,101,308,-444,752,68
,204,2023-10-27 11:38:01.70,232,-67,-2071,-525,-204,103,259,-565,824,153
,205,2023-10-27 11:38:01.71,221,-92,-2039,-529,-205,93,305,-452,757,73
,206,2023-10-27 11:38:01.72,222,-80,-2039,-511,-204,91,242,-590,832,174
,207,2023-10-27 11:38:01.73,189,-55,-2042,-488,-210,88,292,-453,745,80
,208,2023-10-27 11:38:01.74,214,-31,-2031,-476,-192,84,260,-574,834,157
,209,2023-10-27 11:38:01.75,237,-35,-2028,-458,-159,74,312,-439,751,63
,210,2023-10-27 11:38:01.76,218,-19,-2029,-441,-120,59,278,-561,839,141
,211,2023-10-27 11:38:01.77,250,-2,-2023,-420,-99,49,314,-435,749,60
,212,2023-10-27 11:38:01.78,233,9,-2022,-404,-58,29,260,-558,818,149
,213,2023-10-27 11:38:01.79,235,8,-2003,-385,-26,19,291,-432,723,70
,214,2023-10-27 11:38:01.80,242,27,-2021,-361,8,5,248,-552,800,152
,215,2023-10-27 11:38:01.81,219,11,-2021,-323,21,-3,295,-409,704,57
,216,2023-10-27 11:38:01.82,219,18,-2034,-287,29,-8,320,-516,836,98
,217,2023-10-27 11:38:01.83,221,47,-2046,-254,31,-7,337,-386,723,24
,218,2023-10-27 11:38:01.84,219,54,-2037,-238,46,-10,297,-512,809,107
,219,2023-10-27 11:38:01.85,209,54,-2035,-221,59,-12,307,-382,689,37
,220,2023-10-27 11:38:01.86,210,57,-2057,-205,71,-12,293,-514,807,110
,221,2023-10-27 11:38:01.87,197,45,-2046,-192,68,-3,314,-397,711,41
,222,2023-10-27 11:38:01.88,201,58,-2049,-183,58,9,295,-511,806,108
,223,2023-10-27 11:38:01.89,226,62,-2043,-180,57,19,305,-390,695,42
,224,2023-10-27 11:38:01.90,235,86,-2028,-175,69,22,317,-516,833,99
,225,2023-10-27 11:38:01.91,232,100,-2011,-175,86,18,319,-401,720,41
,226,2023-10-27 11:38:01.92,246,97,-2037,-166,95,14,337,-502,839,82
,227,2023-10-27 11:38:01.93,224,104,-2046,-159,91,12,327,-369,696,21
,228,2023-10-27 11:38:01.94,230,85,-2047,-143,87,13,303,-503,806,100
,229,2023-10-27 11:38:01.95,220,70,-2061,-120,75,14,284,-384,668,50
,230,2023-10-27 11:38:01.96,222,87,-2086,-107,64,22,347,-492,839,72
,231,2023-10-27 11:38:01.97,206,98,-2078,-103,51,28,332,-373,705,20
,232,2023-10-27 11:38:01.98,217,110,-2084,-92,35,32,343,-477,820,67
,233,2023-10-27 11:38:01.99,227,120,-2086,-87,12,38,324,-354,678,15
,234,2023-10-27 11:38:02.00,219,114,-2080,-83,-15,44,360,-474,834,57
,235,2023-10-27 11:38:02.01,220,107,-2080,-78,-30,51,340,-373,713,16
,236,2023-10-27 11:38:02.02,219,103,-2061,-76,-42,57,344,-464,808,60
,237,2023-10-27 11:38:02.03,219,108,-2045,-65,-48,63,310,-358,668,24
,238,2023-10-27 11:38:02.04,216,107,-2037,-58,-47,66,378,-509,887,65
,239,2023-10-27 11:38:02.05,213,107,-2049,-53,-46,64,341,-407,748,33
,240,2023-10-27 11:38:02.06,228,92,-2038,-45,-45,65,394,-504,898,55
,241,2023-10-27 11:38:02.07,226,89,-2022,-39,-33,68,341,-398,739,28
,242,2023-10-27 11:38:02.08,231,102,-2007,-32,-15,64,379,-519,898,70
,243,2023-10-27 11:38:02.09,248,90,-1997,-32,7,61,324,-402,726,39
,244,2023-10-27 11:38:02.10,270,58,-1987,-26,35,56,383,-535,918,76
,245,2023-10-27 11:38:02.11,269,43,-2006,-2,65,40,328,-434,762,53
,246,2023-10-27 11:38:02.12,282,26,-2025,28,88,33,393,-514,907,60
,247,2023-10-27 11:38:02.13,293,52,-1994,50,120,17,324,-417,741,46
,248,2023-10-27 11:38:02.14,278,59,-1995,64,159,-1,429,-549,978,60
,249,2023-10-27 11:38:02.15,256,27,-1976,92,184,-18,331,-453,784,61
,250,2023-10-27 11:38:02.16,289,8,-1941,149,189,-31,401,-546,947,72
,251,2023-10-27 11:38:02.17,291,-6,-1999,219,210,-42,318,-419,737,50
,252,2023-10-27 11:38:02.18,289,-9,-2065,269,211,-59,387,-488,875,50
,253,2023-10-27 11:38:02.19,301,27,-2096,286,215,-65,312,-394,706,41
,254,2023-10-27 11:38:02.20,298,23,-2084,291,219,-76,380,-472,852,46
,255,2023-10-27 11:38:02.21,311,36,-2084,298,251,-84,292,-378,670,43
,256,2023-10-27 11:38:02.22,291,-3,-2066,309,246,-101,372,-450,822,39
,257,2023-10-27 11:38:02.23,270,21,-2055,344,220,-118,311,-347,658,18
,258,2023-10-27 11:38:02.24,289,49,-2067,352,213,-105,408,-430,838,11
,259,2023-10-27 11:38:02.25,289,40,-2086,318,212,-93,322,-343,665,10
,260,2023-10-27 11:38:02.26,257,45,-2092,256,165,-75,409,-393,802,-8
,261,2023-10-27 11:38:02.27,257,57,-2086,239,118,-50,318,-306,624,-6
,262,2023-10-27 11:38:02.28,240,62,-2087,223,76,-33,440,-361,801,-39
,263,2023-10-27 11:38:02.29,238,67,-2068,202,36,-18,347,-284,631,-31
,264,2023-10-27 11:38:02.30,243,64,-2062,168,10,5,440,-350,790,-45
,265,2023-10-27 11:38:02.31,232,68,-2047,142,-21,29,347,-284,631,-31
,266,2023-10-27 11:38:02.32,247,60,-2072,118,-31,43,440,-339,779,-50
,267,2023-10-27 11:38:02.33,240,83,-2064,95,-50,57,338,-274,612,-32
,268,2023-10-27 11:38:02.34,234,79,-2051,73,-68,69,424,-344,768,-40
,269,2023-10-27 11:38:02.35,224,88,-2043,52,-80,78,314,-295,609,-9
,270,2023-10-27 11:38:02.36,250,70,-2077,19,-66,72,420,-360,780,-30
,271,2023-10-27 11:38:02.37,227,101,-2063,-9,-99,83,298,-308,606,5
,272,2023-10-27 11:38:02.38,249,102,-2061,-35,-90,91,359,-400,759,20
,273,2023-10-27 11:38:02.39,216,84,-2080,-48,-95,97,246,-365,611,59
,274,2023-10-27 11:38:02.40,232,77,-2124,-78,-87,109,357,-417,774,30
,275,2023-10-27 11:38:02.41,209,91,-2089,-111,-113,123,270,-359,629,44
,276,2023-10-27 11:38:02.42,248,93,-2074,-153,-100,134,368,-410,778,21
,277,2023-10-27 11:38:02.43,263,105,-2061,-194,-91,143,275,-357,632,41
,278,2023-10-27 11:38:02.44,252,71,-2008,-216,-75,148,395,-390,785,-2
,279,2023-10-27 11:38:02.45,294,39,-2023,-217,-30,155,289,-340,629,25
,280,2023-10-27 11:38:02.46,311,35,-2027,-190,29,152,386,-377,763,-4
,281,2023-10-27 11:38:02.47,339,22,-2015,-159,84,141,275,-327,602,26
,282,2023-10-27 11:38:02.48,334,-3,-2027,-130,122,131,358,-366,724,4
,283,2023-10-27 11:38:02.49,328,-20,-2018,-86,144,123,243,-359,602,58
,284,2023-10-27 11:38:02.50,334,-23,-2000,-42,166,119,364,-386,750,11
,285,2023-10-27 11:38:02.51,327,-15,-1903,19,177,108,264,-339,603,37
,286,2023-10-27 11:38:02.52,342,0,-1882,86,182,105,385,-403,788,9
,287,2023-10-27 11:38:02.53,327,3,-1940,140,171,94,289,-380,669,45
,288,2023-10-27 11:38:02.54,366,4,-2035,151,181,86,357,-410,767,26
,289,2023-10-27 11:38:02.55,353,-20,-2070,145,175,82,218,-378,596,80
,290,2023-10-27 11:38:02.56,348,-18,-2102,138,180,77,300,-437,737,68
,291,2023-10-27 11:38:02.57,337,-37,-2101,125,160,77,186,-460,646,137
,292,2023-10-27 11:38:02.58,358,-42,-2100,104,150,74,307,-492,799,92
,293,2023-10-27 11:38:02.59,351,-26,-2084,86,126,65,168,-468,636,150
,294,2023-10-27 11:38:02.60,366,-42,-2057,66,103,67,264,-524,788,130
,295,2023-10-27 11:38:02.61,383,-51,-2042,54,85,64,129,-537,666,204
,296,2023-10-27 11:38:02.62,385,-51,-2037,32,70,52,232,-566,798,167
,297,2023-10-27 11:38:02.63,411,-66,-2051,2,68,48,108,-565,673,228
,298,2023-10-27 11:38:02.64,374,-71,-2066,-15,49,41,240,-576,816,168
,299,2023-10-27 11:38:02.65,405,-41,-2058,-19,31,37,104,-556,660,226
,300,2023-10-27 11:38:02.66,406,-57,-2055,-21,6,32,208,-561,769,176
,301,2023-10-27 11:38:02.67,419,-68,-2053,-44,-3,27,92,-576,668,242
,302,2023-10-27 11:38:02.68,388,-53,-2060,-90,-18,20,233,-578,811,172
,303,2023-10-27 11:38:02.69,375,-60,-2073,-125,-38,24,115,-571,686,228
,304,2023-10-27 11:38:02.70,356,-55,-2092,-155,-67,26,260,-534,794,137
,305,2023-10-27 11:38:02.71,360,-36,-2094,-192,-100,34,130,-538,668,204
,306,2023-10-27 11:38:02.72,348,-22,-2080,-237,-129,34,253,-515,768,131
,307,2023-10-27 11:38:02.73,378,-22,-2059,-280,-166,39,119,-549,668,215
,308,2023-10-27 11:38:02.74,331,-44,-2015,-321,-203,43,256,-561,817,152
,309,2023-10-27 11:38:02.75,334,-17,-2021,-335,-247,52,145,-562,707,208
,310,2023-10-27 11:38:02.76,333,-13,-1996,-351,-307,56,286,-517,803,115
,311,2023-10-27 11:38:02.77,319,-10,-2030,-382,-341,62,155,-533,688,189
,312,2023-10-27 11:38:02.78,321,13,-2040,-411,-373,70,324,-500,824,88
,313,2023-10-27 11:38:02.79,316,49,-2049,-420,-397,71,176,-506,682,165
,314,2023-10-27 11:38:02.80,337,41,-2033,-425,-414,62,318,-434,752,58
,315,2023-10-27 11:38:02.81,300,67,-2089,-466,-397,50,205,-473,678,134
,316,2023-10-27 11:38:02.82,290,92,-2114,-524,-396,49,350,-427,777,38
,317,2023-10-27 11:38:02.83,269,104,-2113,-599,-402,42,233,-483,716,125
,318,2023-10-27 11:38:02.84,244,123,-2102,-652,-415,47,404,-424,828,10
,319,2023-10-27 11:38:02.85,215,144,-2114,-685,-440,55,274,-455,729,90
,320,2023-10-27 11:38:02.86,214,154,-2117,-714,-479,68,407,-390,797,-8
,321,2023-10-27 11:38:02.87,212,179,-2151,-787,-487,78,301,-430,731,64
,322,2023-10-27 11:38:02.88,186,209,-2097,-882,-504,92,462,-384,846,-39
,323,2023-10-27 11:38:02.89,178,225,-2021,-929,-536,102,327,-413,740,43
,324,2023-10-27 11:38:02.90,154,219,-2001,-945,-563,113,427,-331,758,-48
,325,2023-10-27 11:38:02.91,131,246,-2035,-972,-574,131,296,-394,690,49
,326,2023-10-27 11:38:02.92,108,269,-2008,-997,-599,148,415,-326,741,-44
,327,2023-10-27 11:38:02.93,90,306,-1993,-997,-617,168,330,-397,727,33
,328,2023-10-27 11:38:02.94,72,337,-1975,-998,-629,187,489,-306,795,-91
,329,2023-10-27 11:38:02.95,59,395,-1976,-1018,-631,203,377,-399,776,11
,330,2023-10-27 11:38:02.96,54,427,-1890,-1035,-653,218,489,-331,820,-79
,331,2023-10-27 11:38:02.97,59,473,-1783,-1041,-652,227,347,-399,746,26
,332,2023-10-27 11:38:02.98,24,479,-1763,-1032,-648,220,460,-302,762,-79
,333,2023-10-27 11:38:02.99,4,494,-1846,-1025,-621,219,341,-389,730,24
,334,2023-10-27 11:38:03.00,-2,513,-1922,-1002,-617,215,472,-337,809,-67
,335,2023-10-27 11:38:03.01,-4,531,-1975,-948,-603,210,337,-441,778,52
,336,2023-10-27 11:38:03.02,1,550,-2039,-883,-560,205,433,-357,790,-38
,337,2023-10-27 11:38:03.03,-2,582,-2080,-833,-520,190,334,-442,776,54
,338,2023-10-27 11:38:03.04,-21,585,-2095,-805,-472,170,452,-357,809,-47
,339,2023-10-27 11:38:03.05,-37,623,-2067,-766,-435,151,319,-440,759,60
,340,2023-10-27 11:38:03.06,-53,641,-2036,-696,-409,139,411,-358,769,-26
,341,2023-10-27 11:38:03.07,-44,659,-2015,-611,-369,124,283,-442,725,79
,342,2023-10-27 11:38:03.08,-49,667,-1983,-528,-332,105,395,-340,735,-27
,343,2023-10-27 11:38:03.09,-51,671,-1980,-461,-282,93,303,-437,740,67
,344,2023-10-27 11:38:03.10,-65,663,-1927,-396,-244,80,413,-356,769,-28
,345,2023-10-27 11:38:03.11,-49,661,-1886,-319,-196,67,323,-442,765,59
,346,2023-10-27 11:38:03.12,-66,657,-1881,-241,-157,56,424,-355,779,-34
,347,2023-10-27 11:38:03.13,-77,660,-1878,-183,-118,46,301,-460,761,79
,348,2023-10-27 11:38:03.14,-73,688,-1892,-136,-94,40,366,-357,723,-4
,349,2023-10-27 11:38:03.15,-65,694,-1886,-98,-85,35,278,-458,736,90
,350,2023-10-27 11:38:03.16,-87,714,-1872,-73,-78,32,382,-356,738,-13
,351,2023-10-27 11:38:03.17,-93,715,-1863,-53,-81,25,316,-477,793,80
,352,2023-10-27 11:38:03.18,-115,701,-1886,-49,-73,17,415,-384,799,-15
,353,2023-10-27 11:38:03.19,-110,710,-1903,-48,-79,13,322,-476,798,77
,354,2023-10-27 11:38:03.20,-121,712,-1901,-46,-80,5,388,-373,761,-7
,355,2023-10-27 11:38:03.21,-104,712,-1896,-26,-85,0,303,-469,772,83
,356,2023-10-27 11:38:03.22,-116,713,-1942,-11,-71,-7,382,-368,750,-7
,357,2023-10-27 11:38:03.23,-124,700,-1976,-19,-71,-12,306,-495,801,94
,358,2023-10-27 11:38:03.24,-107,699,-1957,-25,-65,-11,368,-381,749,6
,359,2023-10-27 11:38:03.25,-100,704,-1957,-13,-48,-13,321,-462,783,70
,360,2023-10-27 11:38:03.26,-118,698,-1946,2,-43,-12,399,-337,736,-31
,361,2023-10-27 11:38:03.27,-117,701,-1961,16,-31,-9,332,-472,804,70
,362,2023-10-27 11:38:03.28,-121,695,-1970,25,-23,-5,388,-377,765,-5
,363,2023-10-27 11:38:03.29,-132,681,-1954,39,-17,2,311,-508,819,98
,364,2023-10-27 11:38:03.30,-122,671,-1970,67,-5,12,365,-375,740,5
,365,2023-10-27 11:38:03.31,-112,695,-1960,84,5,13,324,-507,831,91
,366,2023-10-27 11:38:03.32,-83,701,-1912,101,21,16,384,-381,765,-1
,367,2023-10-27 11:38:03.33,-117,715,-1880,129,39,7,271,-491,762,110
,368,2023-10-27 11:38:03.34,-88,719,-1916,158,65,0,303,-400,703,48
,369,2023-10-27 11:38:03.35,-103,687,-1929,178,94,-16,257,-480,737,111
,370,2023-10-27 11:38:03.36,-103,681,-1929,207,113,-24,342,-369,711,13
,371,2023-10-27 11:38:03.37,-65,676,-1933,235,142,-38,310,-481,791,85
,372,2023-10-27 11:38:03.38,-76,672,-1911,262,167,-50,342,-396,738,27
,373,2023-10-27 11:38:03.39,-96,674,-1948,283,199,-53,293,-484,777,95
,374,2023-10-27 11:38:03.40,-111,681,-1961,289,214,-52,340,-361,701,10
,375,2023-10-27 11:38:03.41,-96,666,-1978,293,219,-46,304,-487,791,91
,376,2023-10-27 11:38:03.42,-114,649,-1950,319,207,-44,353,-380,733,13
,377,2023-10-27 11:38:03.43,-118,660,-1966,364,200,-44,323,-467,790,72
,378,2023-10-27 11:38:03.44,-106,648,-1968,390,191,-40,363,-358,721,-2
,379,2023-10-27 11:38:03.45,-113,642,-1973,410,187,-36,346,-461,807,57
,380,2023-10-27 11:38:03.46,-100,642,-1974,440,173,-34,385,-337,722,-24
,381,2023-10-27 11:38:03.47,-72,630,-1951,466,180,-34,342,-434,776,46
,382,2023-10-27 11:38:03.48,-97,644,-1935,497,192,-38,368,-332,700,-18
,383,2023-10-27 11:38:03.49,-72,643,-1946,511,200,-38,351,-442,793,45
,384,2023-10-27 11:38:03.50,-72,617,-1948,527,194,-35,376,-325,701,-25
,385,2023-10-27 11:38:03.51,-57,609,-1959,544,213,-36,369,-448,817,39
,386,2023-10-27 11:38:03.52,-79,588,-1973,569,224,-30,392,-338,730,-27
,387,2023-10-27 11:38:03.53,-66,558,-1981,588,228,-30,379,-442,821,31
,388,2023-10-27 11:38:03.54,-48,530,-1947,612,233,-27,396,-311,707,-42
,389,2023-10-27 11:38:03.55,-42,505,-1928,638,241,-22,416,-417,833,0
,390,2023-10-27 11:38:03.56,-40,500,-1932,666,242,-17,424,-318,742,-53
,391,2023-10-27 11:38:03.57,-42,494,-1956,689,251,-13,409,-453,862,22
,392,2023-10-27 11:38:03.58,-37,486,-1959,705,254,-15,393,-344,737,-24
,393,2023-10-27 11:38:03.59,-11,482,-1962,716,261,-18,406,-433,839,13
,394,2023-10-27 11:38:03.60,10,462,-1948,740,263,-25,402,-310,712,-46
,395,2023-10-27 11:38:03.61,18,458,-1975,759,288,-36,391,-441,832,25
,396,2023-10-27 11:38:03.62,47,412,-1951,772,310,-53,364,-340,704,-12
,397,2023-10-27 11:38:03.63,45,372,-1958,797,336,-65,358,-453,811,47
,398,2023-10-27 11:38:03.64,33,352,-2011,818,361,-75,345,-339,684,-3
,399,2023-10-27 11:38:03.65,47,346,-2044,831,354,-78,313,-467,780,77
,400,2023-10-27 11:38:03.66,67,318,-2027,837,346,-83,277,-385,662,54
,401,2023-10-27 11:38:03.67,71,305,-2037,851,343,-97,188,-563,751,187
,402,2023-10-27 11:38:03.68,88,277,-2050,860,345,-106,135,-492,627,178
,403,2023-10-27 11:38:03.69,105,247,-2032,866,357,-122,67,-652,719,292
,404,2023-10-27 11:38:03.70,112,210,-2021,876,375,-132,79,-542,621,231
,405,2023-10-27 11:38:03.71,128,178,-2030,902,392,-143,60,-664,724,302
,406,2023-10-27 11:38:03.72,121,139,-2036,935,391,-159,90,-537,627,223
,407,2023-10-27 11:38:03.73,131,150,-2053,951,391,-164,86,-639,725,276
,408,2023-10-27 11:38:03.74,155,145,-2064,938,400,-169,130,-495,625,182
,409,2023-10-27 11:38:03.75,160,63,-2031,924,401,-178,148,-590,738,221
,410,2023-10-27 11:38:03.76,163,2,-2047,916,410,-182,187,-449,636,131
,411,2023-10-27 11:38:03.77,154,7,-2065,920,390,-179,210,-558,768,174
,412,2023-10-27 11:38:03.78,201,24,-2045,914,365,-178,231,-426,657,97
,413,2023-10-27 11:38:03.79,212,1,-2005,900,355,-172,241,-520,761,139
,414,2023-10-27 11:38:03.80,202,-33,-2004,871,362,-176,243,-388,631,72
,415,2023-10-27 11:38:03.81,220,-57,-2052,825,361,-173,265,-480,745,107
,416,2023-10-27 11:38:03.82,229,-91,-2053,785,335,-162,264,-367,631,51
,417,2023-10-27 11:38:03.83,267,-113,-2039,754,324,-149,311,-459,770,74
,418,2023-10-27 11:38:03.84,235,-150,-2023,749,300,-139,304,-340,644,18
,419,2023-10-27 11:38:03.85,248,-143,-2063,731,299,-138,328,-421,749,46
,420,2023-10-27 11:38:03.86,257,-170,-2049,703,269,-127,302,-318,620,8
,421,2023-10-27 11:38:03.87,280,-191,-2047,670,250,-113,337,-408,745,35
,422,2023-10-27 11:38:03.88,257,-196,-2031,652,243,-109,306,-308,614,1
,423,2023-10-27 11:38:03.89,279,-215,-2037,635,234,-102,346,-408,754,31
,424,2023-10-27 11:38:03.90,288,-216,-2051,603,226,-96,321,-315,636,-3
,425,2023-10-27 11:38:03.91,259,-218,-2034,567,219,-94,334,-405,739,35
,426,2023-10-27 11:38:03.92,289,-227,-2052,534,200,-87,266,-327,593,30
,427,2023-10-27 11:38:03.93,312,-251,-2047,503,191,-84,284,-431,715,73
,428,2023-10-27 11:38:03.94,295,-261,-2011,480,180,-80,266,-350,616,42
,429,2023-10-27 11:38:03.95,329,-277,-2020,469,176,-73,302,-456,758,77
,430,2023-10-27 11:38:03.96,312,-296,-2032,443,181,-66,257,-383,640,63
,431,2023-10-27 11:38:03.97,291,-306,-2037,419,168,-59,278,-472,750,97
,432,2023-10-27 11:38:03.98,322,-285,-2037,393,158,-50,228,-384,612,78
,433,2023-10-27 11:38:03.99,316,-313,-2025,373,139,-47,265,-481,746,108
,434,2023-10-27 11:38:04.00,327,-305,-2044,355,129,-40,222,-411,633,94
,435,2023-10-27 11:38:04.01,302,-301,-2049,322,124,-33,253,-507,760,127
,436,2023-10-27 11:38:04.02,293,-308,-2050,276,100,-22,219,-414,633,97
,437,2023-10-27 11:38:04.03,317,-319,-2050,237,72,-7,261,-474,735,106
,438,2023-10-27 11:38:04.04,311,-321,-2049,206,57,-2,223,-387,610,82
,439,2023-10-27 11:38:04.05,306,-312,-2054,178,45,7,260,-475,735,107
,440,2023-10-27 11:38:04.06,302,-337,-2038,157,24,18,214,-402,616,94
,441,2023-10-27 11:38:04.07,291,-341,-2040,147,15,21,266,-462,728,98
,442,2023-10-27 11:38:04.08,290,-311,-2051,139,-6,19,210,-381,591,85
,443,2023-10-27 11:38:04.09,303,-310,-2039,128,-21,13,234,-446,680,106
,444,2023-10-27 11:38:04.10,313,-340,-2014,131,-28,2,189,-385,574,98
,445,2023-10-27 11:38:04.11,305,-319,-1993,147,-18,-17,241,-457,698,108
,446,2023-10-27 11:38:04.12,311,-298,-1989,158,-3,-38,179,-401,580,111
,447,2023-10-27 11:38:04.13,314,-291,-1984,160,-1,-59,206,-470,676,132
,448,2023-10-27 11:38:04.14,307,-293,-1989,155,8,-76,156,-417,573,130
,449,2023-10-27 11:38:04.15,310,-296,-2000,151,9,-88,208,-482,690,137
,450,2023-10-27 11:38:04.16,317,-314,-2015,142,6,-101,154,-431,585,138
,451,2023-10-27 11:38:04.17,297,-307,-2031,130,15,-110,202,-482,684,140
,452,2023-10-27 11:38:04.18,290,-313,-2029,119,11,-113,142,-443,585,150
,453,2023-10-27 11:38:04.19,279,-326,-2030,108,5,-118,201,-504,705,151
,454,2023-10-27 11:38:04.20,298,-328,-2025,106,1,-119,127,-469,596,171
,455,2023-10-27 11:38:04.21,288,-346,-2024,102,5,-115,169,-498,667,164
,456,2023-10-27 11:38:04.22,299,-333,-2021,95,4,-111,102,-462,564,180
,457,2023-10-27 11:38:04.23,290,-334,-2028,87,6,-113,151,-514,665,181
,458,2023-10-27 11:38:04.24,287,-333,-2027,79,9,-110,106,-477,583,185
,459,2023-10-27 11:38:04.25,248,-336,-1977,81,-24,-106,147,-531,678,192
,460,2023-10-27 11:38:04.26,337,-322,-2036,91,-46,-98,87,-495,582,204
,461,2023-10-27 11:38:04.27,298,-320,-2012,73,-9,-109,125,-514,639,194
,462,2023-10-27 11:38:04.28,295,-323,-2004,56,0,-114,60,-475,535,207
,463,2023-10-27 11:38:04.29,315,-362,-2004,56,-2,-104,120,-496,616,188
,464,2023-10-27 11:38:04.30,284,-316,-2027,77,27,-120,64,-471,535,203
,465,2023-10-27 11:38:04.31,274,-338,-2028,91,4,-117,117,-496,613,189
,466,2023-10-27 11:38:04.32,301,-327,-2034,50,-6,-108,44,-478,522,217
,467,2023-10-27 11:38:04.33,291,-339,-2030,38,14,-107,107,-498,605,195
,468,2023-10-27 11:38:04.34,290,-337,-2016,45,10,-102,34,-478,512,222
,469,2023-10-27 11:38:04.35,298,-340,-1993,58,0,-93,83,-494,577,205
,470,2023-10-27 11:38:04.36,317,-339,-1996,60,2,-85,15,-497,512,241
,471,2023-10-27 11:38:04.37,300,-351,-1999,58,12,-77,72,-512,584,220
,472,2023-10-27 11:38:04.38,308,-350,-2001,69,18,-71,9,-510,519,250
,473,2023-10-27 11:38:04.39,316,-350,-2006,80,37,-60,60,-520,580,230
,474,2023-10-27 11:38:04.40,307,-359,-2006,94,43,-53,-34,-528,494,281
,475,2023-10-27 11:38:04.41,296,-359,-1995,106,54,-44,13,-541,554,264
,476,2023-10-27 11:38:04.42,290,-358,-1983,136,40,-31,-57,-546,489,301
,477,2023-10-27 11:38:04.43,329,-359,-2001,163,46,-18,2,-553,555,275
,478,2023-10-27 11:38:04.44,311,-352,-2001,182,58,-12,-50,-547,497,298
,479,2023-10-27 11:38:04.45,295,-337,-2008,189,77,-13,34,-529,563,247
,480,2023-10-27 11:38:04.46,303,-338,-2020,201,81,-13,-29,-539,510,284
,481,2023-10-27 11:38:04.47,298,-349,-2017,217,63,-9,39,-532,571,246
,482,2023-10-27 11:38:04.48,304,-349,-1993,229,65,-8,-30,-552,522,291
,483,2023-10-27 11:38:04.49,307,-344,-2013,247,59,-8,54,-519,573,232
,484,2023-10-27 11:38:04.50,315,-360,-2013,249,63,-10,-7,-528,521,267
,485,2023-10-27 11:38:04.51,309,-373,-2009,257,67,-12,62,-501,563,219
,486,2023-10-27 11:38:04.52,303,-381,-2007,275,76,-16,0,-513,513,256
,487,2023-10-27 11:38:04.53,307,-382,-2005,297,82,-19,86,-466,552,190
,488,2023-10-27 11:38:04.54,311,-371,-2001,306,82,-27,2,-499,501,248
,489,2023-10-27 11:38:04.55,311,-366,-1993,314,78,-32,73,-474,547,200
,490,2023-10-27 11:38:04.56,320,-371,-2008,314,85,-36,-16,-534,518,275
,491,2023-10-27 11:38:04.57,321,-377,-2004,309,94,-41,30,-526,556,248
,492,2023-10-27 11:38:04.58,312,-391,-1994,312,96,-45,-52,-576,524,314
,493,2023-10-27 11:38:04.59,310,-401,-2002,314,108,-51,-4,-564,560,284
,494,2023-10-27 11:38:04.60,297,-423,-1995,314,88,-55,-62,-606,544,334
,495,2023-10-27 11:38:04.61,328,-405,-2008,317,89,-45,45,-561,606,258
,496,2023-10-27 11:38:04.62,322,-397,-2011,316,93,-49,-21,-599,578,310
,497,2023-10-27 11:38:04.63,347,-403,-2018,304,95,-53,68,-548,616,240
,498,2023-10-27 11:38:04.64,314,-419,-2014,285,100,-56,25,-575,600,275
,499,2023-10-27 11:38:04.65,332,-432,-2019,272,91,-49,121,-508,629,193
,500,2023-10-27 11:38:04.66,325,-445,-2018,257,90,-40,65,-545,610,240
,501,2023-10-27 11:38:04.67,318,-456,-2001,247,75,-30,159,-474,633,157
,502,2023-10-27 11:38:04.68,340,-468,-1996,233,75,-16,97,-515,612,209
,503,2023-10-27 11:38:04.69,325,-483,-1996,222,62,-5,183,-438,621,127
,504,2023-10-27 11:38:04.70,343,-479,-2002,217,48,11,98,-491,589,196
,505,2023-10-27 11:38:04.71,353,-480,-1988,206,66,16,164,-420,584,128
,506,2023-10-27 11:38:04.72,341,-484,-1964,209,45,25,78,-485,563,203
,507,2023-10-27 11:38:04.73,349,-498,-1972,217,38,35,143,-411,554,134
,508,2023-10-27 11:38:04.74,351,-505,-1974,218,51,37,52,-476,528,212
,509,2023-10-27 11:38:04.75,346,-506,-1963,219,56,39,111,-400,511,144
,510,2023-10-27 11:38:04.76,363,-506,-1964,221,52,45,28,-474,502,223
,511,2023-10-27 11:38:04.77,355,-516,-1975,223,65,45,102,-392,494,145
,512,2023-10-27 11:38:04.78,353,-518,-1964,230,55,49,19,-473,492,227
,513,2023-10-27 11:38:04.79,379,-506,-1973,230,66,45,85,-394,479,154
,514,2023-10-27 11:38:04.80,368,-510,-1969,222,76,40,4,-483,487,239
,515,2023-10-27 11:38:04.81,353,-522,-1966,210,71,35,74,-404,478,165
,516,2023-10-27 11:38:04.82,361,-507,-1974,201,81,33,-4,-491,487,247
,517,2023-10-27 11:38:04.83,379,-560,-1976,195,68,40,64,-406,470,171
,518,2023-10-27 11:38:04.84,375,-538,-1964,195,78,32,-8,-499,491,253
,519,2023-10-27 11:38:04.85,368,-556,-1964,198,65,32,72,-409,481,168
,520,2023-10-27 11:38:04.86,376,-557,-1959,191,61,32,10,-503,513,246
,521,2023-10-27 11:38:04.87,376,-571,-1953,180,78,34,89,-410,499,160
,522,2023-10-27 11:38:04.88,371,-575,-1962,182,68,32,21,-507,528,243
,523,2023-10-27 11:38:04.89,377,-579,-1970,181,63,36,92,-411,503,159
,524,2023-10-27 11:38:04.90,380,-572,-1971,170,56,36,6,-522,528,258
,525,2023-10-27 11:38:04.91,369,-578,-1963,166,40,39,64,-432,496,184
,526,2023-10-27 11:38:04.92,405,-592,-1971,167,28,39,-14,-536,522,275
,527,2023-10-27 11:38:04.93,375,-584,-1949,167,56,35,58,-429,487,185
,528,2023-10-27 11:38:04.94,392,-590,-1932,166,46,33,-2,-527,525,264
,529,2023-10-27 11:38:04.95,372,-597,-1949,166,34,33,78,-417,495,169
,530,2023-10-27 11:38:04.96,370,-601,-1948,166,30,35,26,-520,546,247
,531,2023-10-27 11:38:04.97,387,-596,-1952,163,35,35,103,-413,516,155
,532,2023-10-27 11:38:04.98,372,-593,-1956,162,25,36,39,-522,561,241
,533,2023-10-27 11:38:04.99,377,-602,-1957,156,28,32,119,-409,528,145
,534,2023-10-27 11:38:05.00,388,-590,-1946,147,22,29,60,-523,583,231
,535,2023-10-27 11:38:05.01,380,-590,-1939,135,29,27,131,-410,541,139
,536,2023-10-27 11:38:05.02,381,-600,-1939,134,10,25,57,-533,590,238
,537,2023-10-27 11:38:05.03,394,-598,-1939,124,14,22,124,-416,540,146
,538,2023-10-27 11:38:05.04,395,-605,-1934,118,27,18,64,-531,595,233
,539,2023-10-27 11:38:05.05,373,-615,-1937,115,35,15,130,-411,541,140
,540,2023-10-27 11:38:05.06,379,-619,-1929,120,27,18,76,-524,600,224
,541,2023-10-27 11:38:05.07,397,-618,-1928,124,30,20,140,-403,543,131
,542,2023-10-27 11:38:05.08,375,-623,-1932,127,42,18,88,-523,611,217
,543,2023-10-27 11:38:05.09,394,-620,-1929,128,37,18,139,-410,549,135
,544,2023-10-27 11:38:05.10,381,-624,-1941,134,37,18,84,-530,614,223
,545,2023-10-27 11:38:05.11,404,-617,-1943,136,40,18,141,-410,551,134
,546,2023-10-27 11:38:05.12,401,-626,-1942,138,44,22,94,-521,615,213
,547,2023-10-27 11:38:05.13,382,-621,-1952,143,34,19,149,-399,548,125
,548,2023-10-27 11:38:05.14,364,-624,-1944,142,32,21,103,-521,624,209
,549,2023-10-27 11:38:05.15,395,-635,-1949,146,29,26,156,-398,554,121
,550,2023-10-27 11:38:05.16,384,-635,-1942,145,28,22,108,-519,627,205
,551,2023-10-27 11:38:05.17,387,-622,-1937,151,10,27,152,-402,554,125
,552,2023-10-27 11:38:05.18,389,-629,-1933,148,14,25,114,-525,639,205
,553,2023-10-27 11:38:05.19,373,-631,-1922,141,30,19,155,-403,558,124
,554,2023-10-27 11:38:05.20,364,-644,-1936,142,19,17,116,-523,639,203
,555,2023-10-27 11:38:05.21,372,-648,-1928,143,25,14,160,-400,560,120
,556,2023-10-27 11:38:05.22,392,-654,-1923,146,22,17,128,-523,651,197
,557,2023-10-27 11:38:05.23,389,-659,-1925,151,19,19,164,-405,569,120
,558,2023-10-27 11:38:05.24,394,-658,-1927,151,37,14,139,-524,663,192
,559,2023-10-27 11:38:05.25,362,-660,-1912,153,33,11,177,-400,577,111
,560,2023-10-27 11:38:05.26,416,-651,-1911,149,34,12,148,-517,665,184
,561,2023-10-27 11:38:05.27,390,-664,-1926,139,46,9,172,-398,570,113
,562,2023-10-27 11:38:05.28,396,-659,-1929,143,43,6,148,-518,666,185
,563,2023-10-27 11:38:05.29,375,-668,-1924,142,58,1,180,-398,578,109
,564,2023-10-27 11:38:05.30,376,-680,-1914,138,48,3,163,-515,678,176
,565,2023-10-27 11:38:05.31,383,-673,-1910,133,37,10,190,-394,584,102
,566,2023-10-27 11:38:05.32,383,-674,-1923,132,30,12,177,-510,687,166
,567,2023-10-27 11:38:05.33,389,-679,-1916,122,41,14,199,-394,593,97
,568,2023-10-27 11:38:05.34,377,-673,-1927,113,37,11,190,-507,697,158
,569,2023-10-27 11:38:05.35,385,-672,-1920,99,40,8,210,-384,594,87
,570,2023-10-27 11:38:05.36,381,-675,-1915,98,4,6,202,-499,701,148
,571,2023-10-27 11:38:05.37,411,-676,-1918,85,22,7,207,-389,596,91
,572,2023-10-27 11:38:05.38,397,-683,-1901,80,6,4,197,-507,704,155
,573,2023-10-27 11:38:05.39,409,-702,-1912,64,33,0,201,-393,594,96
,574,2023-10-27 11:38:05.40,379,-698,-1906,59,13,0,198,-502,700,152
,575,2023-10-27 11:38:05.41,412,-697,-1917,47,28,0,191,-397,588,103
,576,2023-10-27 11:38:05.42,383,-701,-1909,44,22,-3,185,-509,694,162
,577,2023-10-27 11:38:05.43,405,-713,-1922,55,-3,4,182,-402,584,110
,578,2023-10-27 11:38:05.44,418,-711,-1918,55,16,0,173,-510,683,168
,579,2023-10-27 11:38:05.45,396,-711,-1884,50,34,1,169,-403,572,117
,580,2023-10-27 11:38:05.46,399,-713,-1898,59,14,2,156,-524,680,184
,581,2023-10-27 11:38:05.47,419,-708,-1906,57,18,7,159,-414,573,127
,582,2023-10-27 11:38:05.48,390,-708,-1905,51,39,11,148,-526,674,189
,583,2023-10-27 11:38:05.49,403,-721,-1896,55,32,11,149,-420,569,135
,584,2023-10-27 11:38:05.50,431,-736,-1894,66,23,18,154,-528,682,187
,585,2023-10-27 11:38:05.51,391,-725,-1892,70,28,12,153,-423,576,135
,586,2023-10-27 11:38:05.52,420,-721,-1895,74,17,18,156,-527,683,185
,587,2023-10-27 11:38:05.53,400,-716,-1900,74,23,18,164,-420,584,128
,588,2023-10-27 11:38:05.54,442,-707,-1901,84,20,18,183,-522,705,169
,589,2023-10-27 11:38:05.55,405,-711,-1897,82,29,10,173,-425,598,126
,590,2023-10-27 11:38:05.56,418,-704,-1893,85,20,5,195,-527,722,166
,591,2023-10-27 11:38:05.57,406,-705,-1896,78,25,0,192,-432,624,120
,592,2023-10-27 11:38:05.58,423,-709,-1901,80,17,-1,201,-540,741,169
,593,2023-10-27 11:38:05.59,423,-724,-1915,70,33,-2,187,-451,638,132
,594,2023-10-27 11:38:05.60,388,-710,-1908,64,20,-9,222,-556,778,167
,595,2023-10-27 11:38:05.61,428,-722,-1909,67,1,-7,207,-470,677,131
,596,2023-10-27 11:38:05.62,418,-728,-1903,62,18,-9,241,-567,808,163
,597,2023-10-27 11:38:05.63,396,-725,-1895,59,22,-15,232,-460,692,114
,598,2023-10-27 11:38:05.64,408,-740,-1904,56,4,-7,272,-527,799,127
,599,2023-10-27 11:38:05.65,392,-735,-1902,56,-7,-6,259,-421,680,81
,600,2023-10-27 11:38:05.66,419,-730,-1901,54,25,-11,306,-474,780,84
,601,2023-10-27 11:38:05.67,392,-727,-1886,63,5,-11,281,-370,651,44
,602,2023-10-27 11:38:05.68,410,-730,-1892,67,10,-5,313,-424,737,55
,603,2023-10-27 11:38:05.69,423,-732,-1888,72,32,-9,267,-337,604,35
,604,2023-10-27 11:38:05.70,386,-735,-1880,86,13,-9,282,-391,673,54
,605,2023-10-27 11:38:05.71,441,-731,-1899,99,13,0,246,-314,560,34
,606,2023-10-27 11:38:05.72,413,-728,-1889,94,35,-7,275,-358,633,41
,607,2023-10-27 11:38:05.73,417,-718,-1891,101,28,-6,232,-290,522,29
,608,2023-10-27 11:38:05.74,414,-722,-1893,107,52,-10,236,-340,576,52
,609,2023-10-27 11:38:05.75,399,-728,-1905,110,38,-9,186,-279,465,46
,610,2023-10-27 11:38:05.76,425,-729,-1904,107,53,-8,201,-326,527,62
,611,2023-10-27 11:38:05.77,418,-732,-1901,109,34,-9,169,-277,446,54
,612,2023-10-27 11:38:05.78,424,-726,-1904,104,45,0,189,-318,507,64
,613,2023-10-27 11:38:05.79,405,-722,-1903,101,35,-3,154,-269,423,57
,614,2023-10-27 11:38:05.80,420,-735,-1913,98,32,0,173,-307,480,67
,615,2023-10-27 11:38:05.81,406,-740,-1903,94,46,0,138,-269,407,65
,616,2023-10-27 11:38:05.82,422,-742,-1890,97,24,3,113,-343,456,115
,617,2023-10-27 11:38:05.83,411,-743,-1883,85,26,9,73,-323,396,125
,618,2023-10-27 11:38:05.84,446,-746,-1871,79,20,13,99,-381,480,141
,619,2023-10-27 11:38:05.85,420,-729,-1888,78,21,17,86,-334,420,124
,620,2023-10-27 11:38:05.86,424,-745,-1884,68,48,13,108,-353,461,122
,621,2023-10-27 11:38:05.87,429,-753,-1886,64,28,19,55,-330,385,137
,622,2023-10-27 11:38:05.88,431,-755,-1891,61,31,22,79,-369,448,145
,623,2023-10-27 11:38:05.89,422,-748,-1894,53,34,21,54,-358,412,152
,624,2023-10-27 11:38:05.90,426,-764,-1886,54,15,27,81,-396,477,157
,625,2023-10-27 11:38:05.91,423,-779,-1892,48,21,27,40,-370,410,165
,626,2023-10-27 11:38:05.92,434,-773,-1893,46,32,27,51,-387,438,168
,627,2023-10-27 11:38:05.93,435,-760,-1870,48,35,24,24,-359,383,167
,628,2023-10-27 11:38:05.94,402,-759,-1872,55,5,24,60,-387,447,163
,629,2023-10-27 11:38:05.95,451,-772,-1886,53,19,26,35,-379,414,172
,630,2023-10-27 11:38:05.96,416,-773,-1875,45,39,24,66,-396,462,165
,631,2023-10-27 11:38:05.97,407,-776,-1871,38,35,23,26,-379,405,176
,632,2023-10-27 11:38:05.98,412,-771,-1873,36,26,23,67,-374,441,153
,633,2023-10-27 11:38:05.99,406,-766,-1869,35,19,26,27,-377,404,175
,634,2023-10-27 11:38:06.00,409,-772,-1871,31,11,26,64,-388,452,162
,635,2023-10-27 11:38:06.01,423,-765,-1872,26,1,27,14,-394,408,190
,636,2023-10-27 11:38:06.02,424,-765,-1875,13,12,27,70,-388,458,159
,637,2023-10-27 11:38:06.03,418,-780,-1871,3,18,26,20,-395,415,187
,638,2023-10-27 11:38:06.04,431,-785,-1868,-5,18,27,66,-386,452,160
,639,2023-10-27 11:38:06.05,424,-784,-1863,-5,17,25,24,-398,422,187
,640,2023-10-27 11:38:06.06,415,-793,-1875,-8,20,28,81,-391,472,155
,641,2023-10-27 11:38:06.07,420,-782,-1881,-14,14,28,36,-416,452,190
,642,2023-10-27 11:38:06.08,433,-790,-1885,-14,14,30,86,-415,501,164
,643,2023-10-27 11:38:06.09,435,-792,-1877,-12,17,30,41,-439,480,199
,644,2023-10-27 11:38:06.10,430,-789,-1875,-8,16,30,99,-430,529,165
,645,2023-10-27 11:38:06.11,433,-787,-1873,-7,11,30,24,-473,497,224
,646,2023-10-27 11:38:06.12,444,-775,-1874,-9,10,33,61,-466,527,202
,647,2023-10-27 11:38:06.13,433,-771,-1879,-9,5,34,-23,-510,487,266
,648,2023-10-27 11:38:06.14,442,-784,-1880,-10,-1,42,5,-505,510,250
,649,2023-10-27 11:38:06.15,440,-779,-1886,-12,-5,47,-64,-556,492,310
,650,2023-10-27 11:38:06.16,431,-768,-1880,-23,-7,53,-22,-554,532,288
,651,2023-10-27 11:38:06.17,433,-774,-1875,-41,-7,62,-121,-610,489,365
,652,2023-10-27 11:38:06.18,433,-780,-1870,-54,-9,68,-105,-602,497,353
,653,2023-10-27 11:38:06.19,448,-791,-1875,-58,-1,72,-191,-663,472,427
,654,2023-10-27 11:38:06.20,424,-782,-1858,-59,-10,77,-154,-652,498,403
,655,2023-10-27 11:38:06.21,443,-772,-1857,-65,-5,82,-222,-703,481,462
,656,2023-10-27 11:38:06.22,437,-777,-1864,-67,-3,82,-155,-664,509,409
,657,2023-10-27 11:38:06.23,439,-776,-1866,-68,1,79,-222,-714,492,468
,658,2023-10-27 11:38:06.24,427,-777,-1876,-69,3,84,-167,-677,510,422
,659,2023-10-27 11:38:06.25,436,-776,-1874,-64,1,81,-219,-726,507,472
,660,2023-10-27 11:38:06.26,430,-778,-1878,-58,-2,83,-148,-671,523,409
,661,2023-10-27 11:38:06.27,428,-773,-1879,-58,-3,84,-200,-716,516,458
,662,2023-10-27 11:38:06.28,424,-777,-1867,-50,-5,82,-130,-664,534,397
,663,2023-10-27 11:38:06.29,430,-772,-1875,-45,-5,79,-181,-704,523,442
,664,2023-10-27 11:38:06.30,419,-752,-1892,-46,-1,74,-101,-641,540,371
,665,2023-10-27 11:38:06.31,421,-744,-1863,-49,-5,70,-170,-697,527,433
,666,2023-10-27 11:38:06.32,420,-740,-1870,-51,6,58,-101,-630,529,365
,667,2023-10-27 11:38:06.33,403,-738,-1909,-56,4,53,-158,-688,530,423
,668,2023-10-27 11:38:06.34,424,-748,-1912,-78,1,46,-71,-617,546,344
,669,2023-10-27 11:38:06.35,435,-758,-1903,-97,-2,45,-131,-678,547,404
,670,2023-10-27 11:38:06.36,416,-754,-1889,-115,14,34,-58,-603,545,330
,671,2023-10-27 11:38:06.37,438,-746,-1866,-112,5,30,-135,-683,548,409
,672,2023-10-27 11:38:06.38,418,-734,-1895,-130,16,23,-61,-615,554,338
,673,2023-10-27 11:38:06.39,426,-734,-1908,-138,18,23,-142,-703,561,422
,674,2023-10-27 11:38:06.40,413,-737,-1894,-140,-6,29,-76,-630,554,353
,675,2023-10-27 11:38:06.41,443,-736,-1892,-149,17,35,-167,-718,551,442
,676,2023-10-27 11:38:06.42,385,-748,-1876,-152,11,37,-87,-636,549,361
,677,2023-10-27 11:38:06.43,449,-760,-1891,-151,-3,54,-169,-731,562,450
,678,2023-10-27 11:38:06.44,402,-747,-1899,-165,19,61,-104,-650,546,377
,679,2023-10-27 11:38:06.45,421,-733,-1899,-168,14,71,-172,-726,554,449
,680,2023-10-27 11:38:06.46,438,-737,-1905,-175,9,90,-72,-617,545,344
,681,2023-10-27 11:38:06.47,414,-717,-1888,-187,24,97,-132,-696,564,414
,682,2023-10-27 11:38:06.48,383,-722,-1901,-193,17,102,-52,-596,544,324
,683,2023-10-27 11:38:06.49,372,-699,-1937,-201,14,103,-127,-686,559,406
,684,2023-10-27 11:38:06.50,393,-671,-1957,-215,-1,109,-42,-585,543,313
,685,2023-10-27 11:38:06.51,384,-653,-1943,-233,-14,103,-99,-655,556,377
,686,2023-10-27 11:38:06.52,414,-631,-1932,-252,-26,101,0,-531,531,265
,687,2023-10-27 11:38:06.53,441,-649,-1904,-280,-16,101,-60,-626,566,343
,688,2023-10-27 11:38:06.54,417,-678,-1871,-289,-1,94,21,-514,535,246
,689,2023-10-27 11:38:06.55,403,-704,-1888,-286,20,92,-27,-606,579,316
,690,2023-10-27 11:38:06.56,431,-703,-1879,-280,16,99,59,-492,551,216
,691,2023-10-27 11:38:06.57,424,-676,-1893,-280,24,103,-7,-570,563,288
,692,2023-10-27 11:38:06.58,402,-685,-1927,-280,32,113,68,-436,504,184
,693,2023-10-27 11:38:06.59,396,-672,-1950,-272,23,125,28,-519,547,245
,694,2023-10-27 11:38:06.60,412,-659,-1961,-278,25,132,110,-403,513,146
,695,2023-10-27 11:38:06.61,414,-649,-1955,-280,16,139,64,-498,562,217
,696,2023-10-27 11:38:06.62,391,-644,-1944,-277,1,145,138,-376,514,119
,697,2023-10-27 11:38:06.63,417,-633,-1940,-279,4,148,86,-456,542,185
,698,2023-10-27 11:38:06.64,404,-638,-1946,-278,2,148,145,-347,492,101
,699,2023-10-27 11:38:06.65,396,-627,-1942,-277,-8,149,93,-459,552,183
,700,2023-10-27 11:38:06.66,389,-600,-1936,-276,-25,150,170,-344,514,87
,701,2023-10-27 11:38:06.67,434,-594,-1959,-277,-36,151,111,-448,559,168
,702,2023-10-27 11:38:06.68,381,-585,-1949,-284,-43,143,171,-332,503,80
,703,2023-10-27 11:38:06.69,402,-562,-1961,-292,-42,138,97,-452,549,177
,704,2023-10-27 11:38:06.70,389,-558,-1959,-299,-69,132,155,-343,498,94
,705,2023-10-27 11:38:06.71,401,-554,-1963,-307,-81,132,116,-450,566,167
,706,2023-10-27 11:38:06.72,407,-552,-1989,-320,-76,124,188,-333,521,72
,707,2023-10-27 11:38:06.73,388,-540,-1986,-346,-75,115,147,-445,592,149
,708,2023-10-27 11:38:06.74,382,-529,-1993,-362,-96,115,195,-332,527,68
,709,2023-10-27 11:38:06.75,397,-524,-2002,-386,-107,118,134,-455,589,160
,710,2023-10-27 11:38:06.76,368,-519,-2008,-412,-124,115,179,-344,523,82
,711,2023-10-27 11:38:06.77,378,-520,-2013,-433,-133,120,122,-460,582,169
,712,2023-10-27 11:38:06.78,367,-502,-2005,-456,-157,122,173,-347,520,87
,713,2023-10-27 11:38:06.79,374,-495,-2005,-478,-177,129,112,-472,584,180
,714,2023-10-27 11:38:06.80,363,-487,-2028,-511,-192,130,145,-367,512,111
,715,2023-10-27 11:38:06.81,360,-462,-2033,-548,-208,136,100,-501,601,200
,716,2023-10-27 11:38:06.82,347,-461,-2016,-577,-232,136,148,-393,541,122
,717,2023-10-27 11:38:06.83,359,-445,-2020,-601,-232,145,68,-533,601,232
,718,2023-10-27 11:38:06.84,327,-464,-2023,-624,-247,145,114,-423,537,154
,719,2023-10-27 11:38:06.85,344,-462,-2022,-651,-242,152,61,-560,621,249
,720,2023-10-27 11:38:06.86,311,-438,-1998,-663,-255,158,104,-445,549,170
,721,2023-10-27 11:38:06.87,327,-428,-2012,-664,-261,167,65,-573,638,254
,722,2023-10-27 11:38:06.88,317,-406,-1996,-659,-281,173,112,-454,566,171
,723,2023-10-27 11:38:06.89,327,-381,-1984,-656,-287,178,58,-579,637,260
,724,2023-10-27 11:38:06.90,329,-377,-2002,-655,-270,175,102,-456,558,177
,725,2023-10-27 11:38:06.91,311,-382,-1991,-650,-258,169,67,-578,645,255
,726,2023-10-27 11:38:06.92,309,-374,-1996,-641,-231,169,117,-458,575,170
,727,2023-10-27 11:38:06.93,283,-357,-1984,-618,-226,167,76,-595,671,259
,728,2023-10-27 11:38:06.94,284,-346,-1986,-582,-224,170,108,-471,579,181
,729,2023-10-27 11:38:06.95,281,-349,-1982,-539,-226,174,71,-586,657,257
,730,2023-10-27 11:38:06.96,302,-337,-2005,-499,-195,173,90,-465,555,187
,731,2023-10-27 11:38:06.97,269,-324,-1980,-453,-186,172,-11,-609,598,310
,732,2023-10-27 11:38:06.98,298,-309,-1961,-399,-160,175,-7,-506,499,256
,733,2023-10-27 11:38:06.99,264,-313,-1947,-346,-138,168,-96,-646,550,371
,734,2023-10-27 11:38:07.00,281,-302,-1956,-292,-122,169,-63,-533,470,298
,735,2023-10-27 11:38:07.01,271,-275,-1956,-244,-93,164,-134,-660,526,397
,736,2023-10-27 11:38:07.02,262,-279,-1978,-196,-66,161,-85,-540,455,312
,737,2023-10-27 11:38:07.03,253,-250,-2011,-159,-40,156,-114,-652,538,383
,738,2023-10-27 11:38:07.04,240,-246,-2019,-136,-28,149,-39,-516,477,277
,739,2023-10-27 11:38:07.05,233,-222,-2029,-121,-12,144,-74,-632,558,353
,740,2023-10-27 11:38:07.06,240,-205,-2026,-106,-10,141,-29,-517,488,273
,741,2023-10-27 11:38:07.07,233,-216,-2027,-95,-18,137,-65,-633,568,349
,742,2023-10-27 11:38:07.08,237,-209,-2046,-90,-11,135,-34,-518,484,276
,743,2023-10-27 11:38:07.09,245,-224,-2049,-84,-5,129,-72,-639,567,355
,744,2023-10-27 11:38:07.10,233,-215,-2059,-90,-6,128,-41,-529,488,285
,745,2023-10-27 11:38:07.11,241,-216,-2061,-105,3,124,-62,-632,570,347
,746,2023-10-27 11:38:07.12,212,-197,-2052,-112,-18,124,-13,-514,501,263
,747,2023-10-27 11:38:07.13,253,-176,-2062,-125,-25,126,-58,-628,570,343
,748,2023-10-27 11:38:07.14,235,-188,-2064,-145,-30,128,-31,-520,489,275
,749,2023-10-27 11:38:07.15,223,-198,-2064,-161,-39,132,-46,-616,570,331
,750,2023-10-27 11:38:07.16,230,-194,-2038,-173,-40,133,-7,-500,493,253
,751,2023-10-27 11:38:07.17,201,-212,-2032,-161,-54,136,-18,-602,584,310
,752,2023-10-27 11:38:07.18,228,-207,-2031,-159,-51,138,14,-498,512,242
,753,2023-10-27 11:38:07.19,220,-209,-2030,-158,-58,143,-3,-588,585,295
,754,2023-10-27 11:38:07.20,239,-198,-2053,-170,-36,144,16,-486,502,235
,755,2023-10-27 11:38:07.21,221,-193,-2032,-182,-39,143,5,-579,584,287
,756,2023-10-27 11:38:07.22,254,-183,-2045,-182,-24,144,12,-489,501,238
,757,2023-10-27 11:38:07.23,223,-183,-2029,-186,-22,142,-6,-587,581,296
,758,2023-10-27 11:38:07.24,224,-172,-2025,-183,-24,144,7,-496,503,244
,759,2023-10-27 11:38:07.25,226,-183,-2036,-179,-21,142,1,-585,586,292
,760,2023-10-27 11:38:07.26,225,-194,-2051,-168,-21,144,12,-500,512,244
,761,2023-10-27 11:38:07.27,222,-183,-2044,-156,-26,148,6,-581,587,287
,762,2023-10-27 11:38:07.28,225,-167,-2034,-139,-31,147,19,-489,508,235
,763,2023-10-27 11:38:07.29,228,-143,-2036,-120,-33,143,21,-565,586,272
,764,2023-10-27 11:38:07.30,219,-129,-2024,-110,-32,144,18,-487,505,234
,765,2023-10-27 11:38:07.31,216,-141,-2086,-106,-20,145,14,-577,591,281
,766,2023-10-27 11:38:07.32,216,-162,-2107,-121,-31,143,18,-508,526,245
,767,2023-10-27 11:38:07.33,197,-138,-2107,-146,-41,139,17,-586,603,284
,768,2023-10-27 11:38:07.34,216,-126,-2086,-160,-56,142,11,-510,521,249
,769,2023-10-27 11:38:07.35,193,-132,-2043,-171,-69,137,16,-581,597,282
,770,2023-10-27 11:38:07.36,208,-146,-2048,-176,-74,136,-8,-528,520,268
,771,2023-10-27 11:38:07.37,199,-142,-2040,-173,-70,131,-46,-631,585,338
,772,2023-10-27 11:38:07.38,197,-125,-2032,-179,-69,129,-74,-586,512,330
,773,2023-10-27 11:38:07.39,201,-110,-2049,-199,-85,128,-88,-670,582,379
,774,2023-10-27 11:38:07.40,170,-101,-2069,-235,-100,128,-99,-605,506,352
,775,2023-10-27 11:38:07.41,173,-78,-2077,-271,-121,141,-104,-668,564,386
,776,2023-10-27 11:38:07.42,174,-97,-2078,-311,-128,143,-101,-595,494,348
,777,2023-10-27 11:38:07.43,154,-98,-2107,-347,-145,145,-85,-640,555,362
,778,2023-10-27 11:38:07.44,197,-143,-2106,-382,-175,157,-83,-568,485,325
,779,2023-10-27 11:38:07.45,192,-150,-2083,-421,-177,157,-49,-596,547,322
,780,2023-10-27 11:38:07.46,184,-165,-2038,-424,-168,165,-58,-540,482,299
,781,2023-10-27 11:38:07.47,199,-169,-2004,-390,-164,175,-35,-567,532,301
,782,2023-10-27 11:38:07.48,205,-153,-1970,-329,-138,176,-32,-509,477,270
,783,2023-10-27 11:38:07.49,185,-156,-1965,-262,-111,177,10,-546,556,268
,784,2023-10-27 11:38:07.50,197,-130,-1969,-218,-84,176,-6,-496,490,251
,785,2023-10-27 11:38:07.51,199,-100,-1973,-175,-40,174,40,-501,541,230
,786,2023-10-27 11:38:07.52,206,-48,-2019,-131,-5,171,40,-447,487,203
,787,2023-10-27 11:38:07.53,179,-54,-2048,-100,10,162,97,-471,568,187
,788,2023-10-27 11:38:07.54,162,-31,-2072,-91,10,161,70,-436,506,183
,789,2023-10-27 11:38:07.55,176,-49,-2083,-89,1,160,118,-442,560,162
,790,2023-10-27 11:38:07.56,175,-45,-2074,-65,-14,156,84,-416,500,166
,791,2023-10-27 11:38:07.57,160,-27,-2053,-42,-20,150,138,-431,569,146
,792,2023-10-27 11:38:07.58,166,-35,-2050,-35,-30,141,78,-427,505,174
