// Data mode  : Full
// Data quality  : High
// Acceleration sensor's range  : 16g
// Gyroscope sensor's range  : 2000dps
//
//ARTIFACT,NUM,DATE,ACC_X,ACC_Y,ACC_Z,GYRO_X,GYRO_Y,GYRO_Z,EOG_L,EOG_R,EOG_H,EOG_V
,1,2023-10-27 12:03:04.87,-40,-241,-2042,9,1,28,-145,-307,162,226
,2,2023-10-27 12:03:04.88,-32,-242,-2042,8,2,25,-158,-323,165,240
,3,2023-10-27 12:03:04.89,-32,-237,-2040,7,5,24,-152,-316,164,234
,4,2023-10-27 12:03:04.90,-48,-242,-2040,6,4,20,-181,-345,164,263
,5,2023-10-27 12:03:04.91,-29,-242,-2039,6,6,21,-172,-343,171,257
,6,2023-10-27 12:03:04.92,-30,-234,-2042,7,5,20,-206,-374,168,290
,7,2023-10-27 12:03:04.93,-48,-243,-2045,4,2,20,-205,-371,166,288
,8,2023-10-27 12:03:04.94,-39,-240,-2045,6,1,20,-242,-407,165,324
,9,2023-10-27 12:03:04.95,-40,-237,-2046,5,0,18,-233,-390,157,311
,10,2023-10-27 12:03:04.96,-35,-246,-2045,6,-1,19,-255,-409,154,332
,11,2023-10-27 12:03:04.97,-32,-250,-2045,6,-9,19,-223,-376,153,299
,12,2023-10-27 12:03:04.98,-32,-243,-2047,8,-9,20,-236,-387,151,311
,13,2023-10-27 12:03:04.99,-35,-242,-2042,6,-14,23,-198,-343,145,270
,14,2023-10-27 12:03:05.00,-33,-242,-2046,7,-11,23,-216,-360,144,288
,15,2023-10-27 12:03:05.01,-38,-236,-2044,8,-14,22,-176,-318,142,247
,16,2023-10-27 12:03:05.02,-46,-242,-2040,7,-11,25,-198,-342,144,270
,17,2023-10-27 12:03:05.03,-45,-236,-2036,8,-12,24,-154,-297,143,225
,18,2023-10-27 12:03:05.04,-36,-241,-2041,6,-8,24,-180,-325,145,252
,19,2023-10-27 12:03:05.05,-47,-233,-2037,8,-12,21,-135,-280,145,207
,20,2023-10-27 12:03:05.06,-47,-238,-2043,10,-6,24,-172,-320,148,246
,21,2023-10-27 12:03:05.07,-41,-240,-2034,11,-4,21,-122,-274,152,198
,22,2023-10-27 12:03:05.08,-23,-238,-2033,13,-1,21,-163,-315,152,239
,23,2023-10-27 12:03:05.09,-46,-254,-2046,14,4,19,-116,-266,150,191
,24,2023-10-27 12:03:05.10,-48,-242,-2046,16,4,19,-160,-313,153,236
,25,2023-10-27 12:03:05.11,-29,-250,-2036,16,6,23,-110,-264,154,187
,26,2023-10-27 12:03:05.12,-44,-244,-2042,16,9,19,-155,-315,160,235
,27,2023-10-27 12:03:05.13,-44,-243,-2034,16,6,18,-104,-262,158,183
,28,2023-10-27 12:03:05.14,-39,-250,-2045,16,4,18,-154,-315,161,234
,29,2023-10-27 12:03:05.15,-38,-248,-2041,14,6,19,-106,-263,157,184
,30,2023-10-27 12:03:05.16,-42,-241,-2051,14,2,17,-158,-319,161,238
,31,2023-10-27 12:03:05.17,-35,-246,-2040,14,1,14,-106,-264,158,185
,32,2023-10-27 12:03:05.18,-42,-238,-2041,12,0,15,-160,-323,163,241
,33,2023-10-27 12:03:05.19,-40,-239,-2050,8,3,15,-107,-264,157,185
,34,2023-10-27 12:03:05.20,-32,-240,-2053,5,9,18,-164,-325,161,244
,35,2023-10-27 12:03:05.21,-30,-243,-2051,4,3,17,-113,-269,156,191
,36,2023-10-27 12:03:05.22,-29,-243,-2047,4,0,20,-169,-331,162,250
,37,2023-10-27 12:03:05.23,-32,-240,-2049,3,-7,19,-110,-268,158,189
,38,2023-10-27 12:03:05.24,-40,-236,-2045,1,-11,21,-169,-334,165,251
,39,2023-10-27 12:03:05.25,-34,-239,-2040,2,-6,22,-110,-268,158,189
,40,2023-10-27 12:03:05.26,-41,-238,-2031,3,-3,25,-176,-337,161,256
,41,2023-10-27 12:03:05.27,-36,-233,-2036,1,-4,21,-110,-267,157,188
,42,2023-10-27 12:03:05.28,-41,-238,-2040,2,-5,21,-171,-334,163,252
,43,2023-10-27 12:03:05.29,-32,-238,-2040,3,-6,20,-107,-264,157,185
,44,2023-10-27 12:03:05.30,-32,-235,-2038,6,2,24,-173,-336,163,254
,45,2023-10-27 12:03:05.31,-40,-234,-2041,8,2,19,-116,-269,153,192
,46,2023-10-27 12:03:05.32,-48,-242,-2044,10,3,20,-179,-343,164,261
,47,2023-10-27 12:03:05.33,-42,-235,-2046,13,2,17,-113,-269,156,191
,48,2023-10-27 12:03:05.34,-32,-243,-2037,15,0,18,-171,-341,170,256
,49,2023-10-27 12:03:05.35,-38,-244,-2040,17,4,21,-110,-268,158,189
,50,2023-10-27 12:03:05.36,-42,-235,-2042,16,8,20,-172,-341,169,256
,51,2023-10-27 12:03:05.37,-32,-240,-2044,15,10,20,-110,-270,160,190
,52,2023-10-27 12:03:05.38,-41,-238,-2040,15,14,15,-172,-344,172,258
,53,2023-10-27 12:03:05.39,-44,-238,-2045,15,9,14,-115,-273,158,194
,54,2023-10-27 12:03:05.40,-35,-246,-2042,17,3,16,-182,-347,165,264
,55,2023-10-27 12:03:05.41,-50,-246,-2039,18,3,19,-120,-276,156,198
,56,2023-10-27 12:03:05.42,-43,-249,-2038,18,2,18,-184,-351,167,267
,57,2023-10-27 12:03:05.43,-32,-239,-2035,16,9,19,-122,-280,158,201
,58,2023-10-27 12:03:05.44,-52,-239,-2036,15,9,17,-195,-362,167,278
,59,2023-10-27 12:03:05.45,-42,-240,-2037,12,5,12,-138,-291,153,214
,60,2023-10-27 12:03:05.46,-41,-247,-2044,12,6,14,-226,-377,151,301
,61,2023-10-27 12:03:05.47,-39,-243,-2042,10,5,14,-173,-311,138,242
,62,2023-10-27 12:03:05.48,-44,-247,-2046,11,2,13,-260,-403,143,331
,63,2023-10-27 12:03:05.49,-45,-256,-2043,14,-2,11,-196,-334,138,265
,64,2023-10-27 12:03:05.50,-38,-247,-2038,13,3,17,-278,-421,143,349
,65,2023-10-27 12:03:05.51,-36,-245,-2045,10,3,16,-214,-350,136,282
,66,2023-10-27 12:03:05.52,-49,-239,-2034,8,3,16,-284,-424,140,354
,67,2023-10-27 12:03:05.53,-49,-251,-2031,9,6,16,-208,-342,134,275
,68,2023-10-27 12:03:05.54,-46,-247,-2034,5,7,17,-270,-408,138,339
,69,2023-10-27 12:03:05.55,-42,-246,-2030,4,13,17,-181,-315,134,248
,70,2023-10-27 12:03:05.56,-42,-253,-2039,4,10,13,-244,-381,137,312
,71,2023-10-27 12:03:05.57,-44,-242,-2035,3,13,16,-156,-289,133,222
,72,2023-10-27 12:03:05.58,-39,-242,-2039,3,17,17,-218,-351,133,284
,73,2023-10-27 12:03:05.59,-47,-239,-2036,1,20,15,-133,-258,125,195
,74,2023-10-27 12:03:05.60,-32,-242,-2046,2,21,18,-193,-326,133,259
,75,2023-10-27 12:03:05.61,-43,-246,-2043,3,24,16,-113,-238,125,175
,76,2023-10-27 12:03:05.62,-40,-240,-2046,4,26,13,-172,-312,140,242
,77,2023-10-27 12:03:05.63,-46,-237,-2045,5,23,12,-93,-227,134,160
,78,2023-10-27 12:03:05.64,-35,-235,-2040,6,19,8,-156,-302,146,229
,79,2023-10-27 12:03:05.65,-37,-238,-2040,8,17,7,-89,-225,136,157
,80,2023-10-27 12:03:05.66,-36,-239,-2041,11,17,4,-154,-302,148,228
,81,2023-10-27 12:03:05.67,-34,-242,-2045,14,14,3,-94,-230,136,162
,82,2023-10-27 12:03:05.68,-38,-235,-2045,16,17,3,-150,-301,151,225
,83,2023-10-27 12:03:05.69,-34,-238,-2040,15,11,1,-85,-226,141,155
,84,2023-10-27 12:03:05.70,-19,-243,-2040,17,13,2,-146,-303,157,224
,85,2023-10-27 12:03:05.71,-30,-240,-2042,16,11,3,-88,-232,144,160
,86,2023-10-27 12:03:05.72,-35,-245,-2045,17,10,2,-148,-308,160,228
,87,2023-10-27 12:03:05.73,-39,-244,-2037,13,8,4,-87,-234,147,160
,88,2023-10-27 12:03:05.74,-26,-245,-2050,15,12,6,-151,-308,157,229
,89,2023-10-27 12:03:05.75,-38,-253,-2047,11,5,8,-88,-236,148,162
,90,2023-10-27 12:03:05.76,-36,-245,-2039,9,6,8,-159,-319,160,239
,91,2023-10-27 12:03:05.77,-33,-252,-2044,6,5,9,-95,-243,148,169
,92,2023-10-27 12:03:05.78,-30,-247,-2039,6,2,9,-159,-319,160,239
,93,2023-10-27 12:03:05.79,-24,-236,-2036,5,5,11,-96,-248,152,172
,94,2023-10-27 12:03:05.80,-20,-234,-2036,8,2,8,-164,-326,162,245
,95,2023-10-27 12:03:05.81,-28,-234,-2035,13,2,7,-97,-254,157,175
,96,2023-10-27 12:03:05.82,-28,-231,-2042,22,-2,2,-160,-337,177,248
,97,2023-10-27 12:03:05.83,-27,-228,-2042,32,-8,-7,-94,-272,178,183
,98,2023-10-27 12:03:05.84,-21,-222,-2047,44,-6,-12,-154,-356,202,255
,99,2023-10-27 12:03:05.85,-18,-221,-2055,42,5,-16,-91,-284,193,187
,100,2023-10-27 12:03:05.86,-30,-231,-2049,38,25,-21,-151,-355,204,253
,101,2023-10-27 12:03:05.87,-18,-249,-2053,45,20,-23,-88,-273,185,180
,102,2023-10-27 12:03:05.88,-26,-252,-2062,59,15,-20,-154,-348,194,251
,103,2023-10-27 12:03:05.89,-20,-247,-2063,78,-4,-16,-94,-272,178,183
,104,2023-10-27 12:03:05.90,-12,-234,-2070,80,9,-12,-161,-347,186,254
,105,2023-10-27 12:03:05.91,-19,-250,-2045,74,36,-15,-99,-272,173,185
,106,2023-10-27 12:03:05.92,-20,-258,-2052,81,44,-12,-164,-347,183,255
,107,2023-10-27 12:03:05.93,-22,-268,-2047,98,33,-3,-107,-275,168,191
,108,2023-10-27 12:03:05.94,-13,-253,-2049,118,28,1,-175,-351,176,263
,109,2023-10-27 12:03:05.95,-10,-229,-2033,121,29,-4,-119,-280,161,199
,110,2023-10-27 12:03:05.96,-14,-228,-2044,123,34,-13,-185,-358,173,271
,111,2023-10-27 12:03:05.97,-29,-246,-2049,123,25,-20,-126,-286,160,206
,112,2023-10-27 12:03:05.98,-35,-258,-2062,123,0,-23,-190,-362,172,276
,113,2023-10-27 12:03:05.99,-51,-268,-2073,115,-11,-22,-135,-294,159,214
,114,2023-10-27 12:03:06.00,-45,-272,-2051,100,-37,-23,-202,-369,167,285
,115,2023-10-27 12:03:06.01,-46,-265,-2031,78,-49,-18,-146,-304,158,225
,116,2023-10-27 12:03:06.02,-44,-281,-2020,61,-42,-18,-211,-380,169,295
,117,2023-10-27 12:03:06.03,-58,-275,-2022,52,-35,-14,-159,-314,155,236
,118,2023-10-27 12:03:06.04,-56,-269,-2000,51,-36,-9,-221,-388,167,304
,119,2023-10-27 12:03:06.05,-69,-262,-2004,55,-18,-9,-160,-318,158,239
,120,2023-10-27 12:03:06.06,-49,-246,-2010,58,-1,-8,-222,-385,163,303
,121,2023-10-27 12:03:06.07,-57,-247,-2021,64,-5,-7,-167,-319,152,243
,122,2023-10-27 12:03:06.08,-55,-254,-2029,72,21,-11,-227,-392,165,309
,123,2023-10-27 12:03:06.09,-67,-255,-2035,82,40,-7,-164,-322,158,243
,124,2023-10-27 12:03:06.10,-43,-262,-2045,98,44,-12,-209,-385,176,297
,125,2023-10-27 12:03:06.11,-41,-280,-2047,119,56,-12,-152,-320,168,236
,126,2023-10-27 12:03:06.12,-32,-271,-2047,149,61,-15,-201,-385,184,293
,127,2023-10-27 12:03:06.13,-37,-269,-2044,172,64,-19,-148,-325,177,236
,128,2023-10-27 12:03:06.14,-16,-268,-2050,195,64,-28,-190,-377,187,283
,129,2023-10-27 12:03:06.15,-29,-278,-2047,219,64,-39,-141,-313,172,227
,130,2023-10-27 12:03:06.16,-23,-290,-2036,240,50,-49,-182,-363,181,272
,131,2023-10-27 12:03:06.17,-25,-307,-2035,266,51,-57,-142,-314,172,228
,132,2023-10-27 12:03:06.18,-23,-322,-2028,288,64,-61,-174,-351,177,262
,133,2023-10-27 12:03:06.19,-36,-341,-2024,298,76,-66,-130,-296,166,213
,134,2023-10-27 12:03:06.20,-26,-354,-2010,312,70,-65,-160,-332,172,246
,135,2023-10-27 12:03:06.21,-39,-354,-2008,322,77,-61,-122,-286,164,204
,136,2023-10-27 12:03:06.22,-30,-365,-2011,326,82,-57,-151,-324,173,237
,137,2023-10-27 12:03:06.23,-34,-366,-2004,327,91,-53,-117,-280,163,198
,138,2023-10-27 12:03:06.24,-41,-366,-2002,322,94,-44,-150,-324,174,237
,139,2023-10-27 12:03:06.25,-22,-357,-2023,318,106,-43,-119,-283,164,201
,140,2023-10-27 12:03:06.26,-12,-357,-2006,298,107,-33,-155,-326,171,240
,141,2023-10-27 12:03:06.27,-23,-352,-2007,283,127,-35,-124,-287,163,205
,142,2023-10-27 12:03:06.28,0,-352,-1999,266,131,-33,-160,-332,172,246
,143,2023-10-27 12:03:06.29,7,-372,-1986,273,135,-32,-130,-296,166,213
,144,2023-10-27 12:03:06.30,5,-358,-2013,283,169,-29,-169,-337,168,253
,145,2023-10-27 12:03:06.31,-7,-391,-1992,285,192,-26,-143,-302,159,222
,146,2023-10-27 12:03:06.32,5,-422,-1974,308,208,-22,-178,-346,168,262
,147,2023-10-27 12:03:06.33,6,-396,-2011,339,236,-19,-148,-311,163,229
,148,2023-10-27 12:03:06.34,9,-391,-1997,345,230,-15,-185,-352,167,268
,149,2023-10-27 12:03:06.35,-2,-403,-2006,361,254,-16,-158,-319,161,238
,150,2023-10-27 12:03:06.36,31,-387,-1991,374,240,-15,-192,-360,168,276
,151,2023-10-27 12:03:06.37,2,-400,-1980,392,264,-26,-168,-326,158,247
,152,2023-10-27 12:03:06.38,24,-397,-1991,385,296,-38,-197,-359,162,278
,153,2023-10-27 12:03:06.39,33,-482,-1941,404,280,-48,-168,-324,156,246
,154,2023-10-27 12:03:06.40,42,-469,-1971,449,315,-55,-191,-355,164,273
,155,2023-10-27 12:03:06.41,55,-484,-1964,486,317,-64,-162,-321,159,241
,156,2023-10-27 12:03:06.42,55,-499,-1951,512,332,-75,-177,-347,170,262
,157,2023-10-27 12:03:06.43,54,-525,-1970,547,347,-79,-149,-314,165,231
,158,2023-10-27 12:03:06.44,66,-540,-1961,580,348,-85,-164,-336,172,250
,159,2023-10-27 12:03:06.45,86,-525,-1986,597,346,-88,-140,-305,165,222
,160,2023-10-27 12:03:06.46,120,-524,-1981,590,360,-96,-137,-317,180,227
,161,2023-10-27 12:03:06.47,101,-542,-1950,588,354,-98,-129,-297,168,213
,162,2023-10-27 12:03:06.48,127,-549,-1963,584,362,-112,-140,-321,181,230
,163,2023-10-27 12:03:06.49,127,-559,-1957,595,361,-118,-136,-308,172,222
,164,2023-10-27 12:03:06.50,138,-557,-1966,588,345,-126,-135,-317,182,226
,165,2023-10-27 12:03:06.51,149,-599,-1965,591,337,-135,-142,-318,176,230
,166,2023-10-27 12:03:06.52,144,-630,-1947,602,338,-138,-168,-349,181,258
,167,2023-10-27 12:03:06.53,154,-604,-1959,614,341,-137,-176,-354,178,265
,168,2023-10-27 12:03:06.54,185,-620,-1964,604,337,-140,-189,-370,181,279
,169,2023-10-27 12:03:06.55,179,-635,-1975,607,320,-136,-183,-359,176,271
,170,2023-10-27 12:03:06.56,193,-645,-1946,599,331,-133,-182,-358,176,270
,171,2023-10-27 12:03:06.57,198,-659,-1950,592,354,-135,-170,-343,173,256
,172,2023-10-27 12:03:06.58,210,-690,-1925,596,337,-134,-167,-340,173,253
,173,2023-10-27 12:03:06.59,225,-721,-1886,645,338,-130,-155,-329,174,242
,174,2023-10-27 12:03:06.60,221,-676,-1901,671,343,-130,-151,-320,169,235
,175,2023-10-27 12:03:06.61,236,-690,-1926,679,350,-122,-140,-310,170,225
,176,2023-10-27 12:03:06.62,239,-709,-1945,686,329,-119,-137,-301,164,219
,177,2023-10-27 12:03:06.63,258,-732,-1916,703,320,-113,-135,-300,165,217
,178,2023-10-27 12:03:06.64,272,-734,-1916,710,319,-105,-127,-291,164,209
,179,2023-10-27 12:03:06.65,300,-756,-1886,721,280,-102,-125,-289,164,207
,180,2023-10-27 12:03:06.66,277,-765,-1884,716,320,-102,-116,-278,162,197
,181,2023-10-27 12:03:06.67,307,-774,-1914,693,332,-99,-123,-283,160,203
,182,2023-10-27 12:03:06.68,304,-847,-1868,700,328,-94,-116,-275,159,195
,183,2023-10-27 12:03:06.69,322,-820,-1818,730,309,-97,-123,-283,160,203
,184,2023-10-27 12:03:06.70,318,-803,-1876,756,300,-96,-115,-275,160,195
,185,2023-10-27 12:03:06.71,315,-824,-1889,757,281,-90,-129,-287,158,208
,186,2023-10-27 12:03:06.72,301,-860,-1889,746,273,-90,-118,-272,154,195
,187,2023-10-27 12:03:06.73,344,-897,-1883,745,247,-88,-132,-287,155,209
,188,2023-10-27 12:03:06.74,322,-952,-1854,760,228,-72,-120,-276,156,198
,189,2023-10-27 12:03:06.75,323,-919,-1831,762,231,-65,-140,-291,151,215
,190,2023-10-27 12:03:06.76,335,-938,-1834,739,242,-58,-125,-273,148,199
,191,2023-10-27 12:03:06.77,339,-977,-1835,731,229,-48,-142,-291,149,216
,192,2023-10-27 12:03:06.78,345,-1002,-1781,740,218,-38,-123,-271,148,197
,193,2023-10-27 12:03:06.79,347,-990,-1757,758,202,-31,-144,-294,150,219
,194,2023-10-27 12:03:06.80,342,-993,-1785,753,237,-27,-124,-275,151,199
,195,2023-10-27 12:03:06.81,353,-1004,-1776,734,239,-25,-154,-302,148,228
,196,2023-10-27 12:03:06.82,351,-1047,-1745,734,228,-25,-126,-272,146,199
,197,2023-10-27 12:03:06.83,351,-1058,-1747,755,214,-22,-154,-299,145,226
,198,2023-10-27 12:03:06.84,364,-1048,-1735,759,225,-21,-125,-269,144,197
,199,2023-10-27 12:03:06.85,356,-1063,-1715,757,222,-24,-156,-302,146,229
,200,2023-10-27 12:03:06.86,346,-1073,-1714,754,236,-30,-127,-273,146,200
,201,2023-10-27 12:03:06.87,360,-1081,-1718,754,238,-35,-154,-302,148,228
,202,2023-10-27 12:03:06.88,382,-1096,-1733,757,220,-44,-128,-275,147,201
,203,2023-10-27 12:03:06.89,383,-1120,-1704,763,195,-46,-161,-309,148,235
,204,2023-10-27 12:03:06.90,368,-1122,-1717,764,191,-54,-139,-282,143,210
,205,2023-10-27 12:03:06.91,388,-1129,-1720,750,191,-58,-166,-315,149,240
,206,2023-10-27 12:03:06.92,387,-1172,-1718,720,201,-65,-131,-276,145,203
,207,2023-10-27 12:03:06.93,415,-1178,-1693,703,184,-72,-168,-314,146,241
,208,2023-10-27 12:03:06.94,408,-1177,-1660,690,175,-81,-115,-262,147,188
,209,2023-10-27 12:03:06.95,425,-1169,-1646,673,185,-95,-145,-297,152,221
,210,2023-10-27 12:03:06.96,435,-1191,-1628,652,158,-106,-100,-245,145,172
,211,2023-10-27 12:03:06.97,441,-1217,-1624,635,170,-112,-136,-284,148,210
,212,2023-10-27 12:03:06.98,437,-1225,-1592,602,197,-114,-91,-232,141,161
,213,2023-10-27 12:03:06.99,436,-1246,-1579,567,231,-117,-138,-285,147,211
,214,2023-10-27 12:03:07.00,458,-1252,-1581,541,221,-115,-97,-240,143,168
,215,2023-10-27 12:03:07.01,460,-1277,-1577,524,231,-105,-148,-297,149,222
,216,2023-10-27 12:03:07.02,469,-1296,-1574,511,222,-103,-107,-250,143,178
,217,2023-10-27 12:03:07.03,479,-1313,-1572,501,220,-93,-159,-309,150,234
,218,2023-10-27 12:03:07.04,473,-1323,-1573,491,234,-79,-113,-256,143,184
,219,2023-10-27 12:03:07.05,487,-1337,-1570,471,235,-62,-161,-318,157,239
,220,2023-10-27 12:03:07.06,482,-1357,-1543,470,245,-39,-118,-265,147,191
,221,2023-10-27 12:03:07.07,497,-1333,-1565,458,231,-24,-170,-327,157,248
,222,2023-10-27 12:03:07.08,504,-1332,-1575,444,210,-6,-125,-272,147,198
,223,2023-10-27 12:03:07.09,505,-1333,-1562,410,214,14,-172,-332,160,252
,224,2023-10-27 12:03:07.10,518,-1342,-1555,382,198,22,-122,-271,149,196
,225,2023-10-27 12:03:07.11,514,-1358,-1535,363,195,36,-171,-335,164,253
,226,2023-10-27 12:03:07.12,531,-1373,-1522,359,180,43,-122,-273,151,197
,227,2023-10-27 12:03:07.13,522,-1360,-1518,354,154,50,-171,-333,162,252
,228,2023-10-27 12:03:07.14,532,-1371,-1507,343,142,55,-124,-272,148,198
,229,2023-10-27 12:03:07.15,556,-1406,-1484,318,154,66,-178,-335,157,256
,230,2023-10-27 12:03:07.16,526,-1422,-1482,296,163,79,-125,-274,149,199
,231,2023-10-27 12:03:07.17,522,-1397,-1517,285,154,84,-180,-336,156,258
,232,2023-10-27 12:03:07.18,522,-1385,-1539,269,145,90,-127,-273,146,200
,233,2023-10-27 12:03:07.19,508,-1390,-1511,262,125,91,-182,-342,160,262
,234,2023-10-27 12:03:07.20,493,-1364,-1505,258,92,76,-128,-276,148,202
,235,2023-10-27 12:03:07.21,492,-1332,-1496,263,59,52,-188,-346,158,267
,236,2023-10-27 12:03:07.22,484,-1322,-1493,262,45,26,-138,-286,148,212
,237,2023-10-27 12:03:07.23,518,-1320,-1478,252,36,-6,-200,-354,154,277
,238,2023-10-27 12:03:07.24,523,-1348,-1438,231,51,-28,-141,-287,146,214
,239,2023-10-27 12:03:07.25,503,-1366,-1429,213,79,-46,-191,-348,157,269
,240,2023-10-27 12:03:07.26,523,-1360,-1433,203,87,-67,-138,-288,150,213
,241,2023-10-27 12:03:07.27,535,-1385,-1432,197,96,-66,-240,-395,155,317
,242,2023-10-27 12:03:07.28,534,-1411,-1432,195,93,-59,-202,-358,156,280
,243,2023-10-27 12:03:07.29,525,-1437,-1463,183,96,-39,-302,-469,167,385
,244,2023-10-27 12:03:07.30,541,-1428,-1480,159,86,-18,-248,-418,170,333
,245,2023-10-27 12:03:07.31,534,-1443,-1506,150,65,12,-333,-510,177,421
,246,2023-10-27 12:03:07.32,535,-1428,-1510,131,36,35,-255,-423,168,339
,247,2023-10-27 12:03:07.33,547,-1406,-1514,99,7,53,-315,-489,174,402
,248,2023-10-27 12:03:07.34,554,-1404,-1497,68,-14,63,-235,-403,168,319
,249,2023-10-27 12:03:07.35,544,-1403,-1497,30,-40,70,-292,-466,174,379
,250,2023-10-27 12:03:07.36,536,-1407,-1485,-1,-66,69,-209,-378,169,293
,251,2023-10-27 12:03:07.37,542,-1409,-1475,-25,-92,65,-261,-431,170,346
,252,2023-10-27 12:03:07.38,545,-1411,-1447,-39,-107,61,-175,-335,160,255
,253,2023-10-27 12:03:07.39,516,-1408,-1448,-55,-114,56,-234,-394,160,314
,254,2023-10-27 12:03:07.40,527,-1396,-1455,-62,-127,45,-156,-306,150,231
,255,2023-10-27 12:03:07.41,513,-1403,-1449,-73,-138,42,-214,-371,157,292
,256,2023-10-27 12:03:07.42,521,-1421,-1430,-80,-145,42,-135,-290,155,212
,257,2023-10-27 12:03:07.43,490,-1432,-1424,-73,-110,41,-197,-356,159,276
,258,2023-10-27 12:03:07.44,498,-1436,-1432,-58,-119,49,-121,-271,150,196
,259,2023-10-27 12:03:07.45,513,-1435,-1470,-28,-122,54,-184,-339,155,261
,260,2023-10-27 12:03:07.46,498,-1423,-1448,-22,-122,66,-112,-257,145,184
,261,2023-10-27 12:03:07.47,519,-1439,-1435,-6,-122,72,-179,-332,153,255
,262,2023-10-27 12:03:07.48,497,-1456,-1436,21,-88,79,-109,-254,145,181
,263,2023-10-27 12:03:07.49,479,-1441,-1415,43,-72,87,-174,-326,152,250
,264,2023-10-27 12:03:07.50,510,-1429,-1396,82,-70,92,-105,-246,141,175
,265,2023-10-27 12:03:07.51,489,-1399,-1392,113,-37,95,-174,-325,151,249
,266,2023-10-27 12:03:07.52,500,-1379,-1387,134,-16,88,-107,-251,144,179
,267,2023-10-27 12:03:07.53,482,-1365,-1413,135,61,64,-175,-328,153,251
,268,2023-10-27 12:03:07.54,484,-1387,-1436,132,80,53,-108,-250,142,179
,269,2023-10-27 12:03:07.55,474,-1405,-1449,127,93,46,-179,-332,153,255
,270,2023-10-27 12:03:07.56,463,-1402,-1454,124,103,43,-119,-258,139,188
,271,2023-10-27 12:03:07.57,471,-1404,-1453,114,97,40,-186,-338,152,262
,272,2023-10-27 12:03:07.58,471,-1413,-1452,110,91,42,-123,-263,140,193
,273,2023-10-27 12:03:07.59,466,-1407,-1463,104,93,42,-187,-337,150,262
,274,2023-10-27 12:03:07.60,489,-1407,-1457,94,93,44,-127,-268,141,197
,275,2023-10-27 12:03:07.61,486,-1414,-1447,92,87,45,-193,-346,153,269
,276,2023-10-27 12:03:07.62,489,-1406,-1442,95,78,36,-128,-270,142,199
,277,2023-10-27 12:03:07.63,499,-1399,-1439,89,84,32,-189,-339,150,264
,278,2023-10-27 12:03:07.64,493,-1415,-1427,86,89,28,-128,-268,140,198
,279,2023-10-27 12:03:07.65,500,-1425,-1421,97,87,19,-202,-349,147,275
,280,2023-10-27 12:03:07.66,507,-1429,-1415,106,90,11,-144,-284,140,214
,281,2023-10-27 12:03:07.67,502,-1429,-1422,122,88,6,-211,-357,146,284
,282,2023-10-27 12:03:07.68,495,-1422,-1436,135,85,-5,-143,-285,142,214
,283,2023-10-27 12:03:07.69,484,-1402,-1427,140,79,-14,-191,-347,156,269
,284,2023-10-27 12:03:07.70,495,-1345,-1452,137,69,-40,-132,-280,148,206
,285,2023-10-27 12:03:07.71,499,-1426,-1439,119,51,-41,-192,-346,154,269
,286,2023-10-27 12:03:07.72,499,-1454,-1407,106,53,-46,-140,-285,145,212
,287,2023-10-27 12:03:07.73,515,-1465,-1397,104,61,-43,-189,-342,153,265
,288,2023-10-27 12:03:07.74,516,-1480,-1388,107,65,-29,-124,-274,150,199
,289,2023-10-27 12:03:07.75,522,-1482,-1391,100,72,-11,-182,-336,154,259
,290,2023-10-27 12:03:07.76,520,-1500,-1410,104,70,6,-124,-273,149,198
,291,2023-10-27 12:03:07.77,516,-1488,-1411,106,68,31,-188,-342,154,265
,292,2023-10-27 12:03:07.78,514,-1474,-1416,106,59,51,-132,-281,149,206
,293,2023-10-27 12:03:07.79,524,-1485,-1413,97,38,67,-194,-350,156,272
,294,2023-10-27 12:03:07.80,515,-1514,-1394,97,36,88,-138,-293,155,215
,295,2023-10-27 12:03:07.81,517,-1487,-1387,99,42,95,-210,-374,164,292
,296,2023-10-27 12:03:07.82,491,-1441,-1414,100,32,96,-153,-314,161,233
,297,2023-10-27 12:03:07.83,487,-1428,-1417,102,12,83,-229,-396,167,312
,298,2023-10-27 12:03:07.84,502,-1418,-1395,92,-9,70,-178,-338,160,258
,299,2023-10-27 12:03:07.85,504,-1434,-1382,84,-6,47,-256,-421,165,338
,300,2023-10-27 12:03:07.86,516,-1445,-1371,70,-1,20,-196,-354,158,275
,301,2023-10-27 12:03:07.87,523,-1451,-1366,56,10,1,-263,-423,160,343
,302,2023-10-27 12:03:07.88,516,-1467,-1368,38,27,-16,-196,-351,155,273
,303,2023-10-27 12:03:07.89,518,-1476,-1379,20,41,-29,-257,-414,157,335
,304,2023-10-27 12:03:07.90,509,-1485,-1385,1,47,-37,-191,-342,151,266
,305,2023-10-27 12:03:07.91,516,-1502,-1388,-16,46,-35,-242,-398,156,320
,306,2023-10-27 12:03:07.92,521,-1493,-1389,-24,43,-30,-173,-323,150,248
,307,2023-10-27 12:03:07.93,518,-1487,-1393,-37,42,-28,-214,-372,158,293
,308,2023-10-27 12:03:07.94,526,-1482,-1388,-52,36,-30,-152,-300,148,226
,309,2023-10-27 12:03:07.95,531,-1475,-1379,-62,31,-28,-192,-348,156,270
,310,2023-10-27 12:03:07.96,528,-1466,-1382,-72,31,-28,-141,-284,143,212
,311,2023-10-27 12:03:07.97,510,-1467,-1383,-78,24,-30,-184,-331,147,257
,312,2023-10-27 12:03:07.98,527,-1469,-1407,-76,9,-29,-132,-267,135,199
,313,2023-10-27 12:03:07.99,528,-1467,-1410,-77,18,-26,-165,-305,140,235
,314,2023-10-27 12:03:08.00,527,-1474,-1399,-83,21,-26,-120,-253,133,186
,315,2023-10-27 12:03:08.01,522,-1470,-1385,-81,33,-18,-156,-295,139,225
,316,2023-10-27 12:03:08.02,531,-1465,-1373,-67,36,-9,-115,-252,137,183
,317,2023-10-27 12:03:08.03,519,-1458,-1370,-47,17,-4,-152,-295,143,223
,318,2023-10-27 12:03:08.04,527,-1455,-1386,-19,17,5,-117,-257,140,187
,319,2023-10-27 12:03:08.05,526,-1440,-1406,-5,21,8,-157,-301,144,229
,320,2023-10-27 12:03:08.06,537,-1430,-1410,0,21,8,-118,-262,144,190
,321,2023-10-27 12:03:08.07,527,-1422,-1406,6,22,5,-158,-303,145,230
,322,2023-10-27 12:03:08.08,524,-1400,-1409,8,22,1,-116,-266,150,191
,323,2023-10-27 12:03:08.09,518,-1412,-1433,6,5,-1,-156,-304,148,230
,324,2023-10-27 12:03:08.10,512,-1418,-1432,-6,3,-3,-112,-264,152,188
,325,2023-10-27 12:03:08.11,515,-1423,-1447,-15,4,-5,-158,-308,150,233
,326,2023-10-27 12:03:08.12,516,-1433,-1440,-26,-7,-1,-122,-273,151,197
,327,2023-10-27 12:03:08.13,520,-1430,-1443,-34,-16,-2,-168,-319,151,243
,328,2023-10-27 12:03:08.14,521,-1432,-1437,-41,-23,0,-127,-278,151,202
,329,2023-10-27 12:03:08.15,516,-1428,-1423,-43,-20,0,-163,-315,152,239
,330,2023-10-27 12:03:08.16,529,-1433,-1418,-45,-20,2,-124,-280,156,202
,331,2023-10-27 12:03:08.17,504,-1432,-1415,-41,-8,7,-158,-312,154,235
,332,2023-10-27 12:03:08.18,522,-1445,-1400,-36,-4,14,-128,-279,151,203
,333,2023-10-27 12:03:08.19,520,-1435,-1397,-25,17,16,-165,-314,149,239
,334,2023-10-27 12:03:08.20,530,-1406,-1408,-28,29,19,-133,-283,150,208
,335,2023-10-27 12:03:08.21,526,-1417,-1416,-26,32,21,-160,-313,153,236
,336,2023-10-27 12:03:08.22,530,-1418,-1423,-22,31,21,-135,-292,157,213
,337,2023-10-27 12:03:08.23,544,-1411,-1431,-13,25,12,-166,-320,154,243
,338,2023-10-27 12:03:08.24,554,-1394,-1416,-1,15,-1,-146,-296,150,221
,339,2023-10-27 12:03:08.25,545,-1425,-1398,26,9,-20,-172,-318,146,245
,340,2023-10-27 12:03:08.26,543,-1397,-1414,48,2,-35,-154,-296,142,225
,341,2023-10-27 12:03:08.27,554,-1398,-1423,62,-20,-41,-176,-316,140,246
,342,2023-10-27 12:03:08.28,554,-1450,-1416,64,-19,-37,-154,-293,139,223
,343,2023-10-27 12:03:08.29,507,-1462,-1439,55,1,-19,-167,-311,144,239
,344,2023-10-27 12:03:08.30,521,-1381,-1509,49,-41,-56,-152,-296,144,224
,345,2023-10-27 12:03:08.31,535,-1428,-1440,43,-84,-37,-166,-311,145,238
,346,2023-10-27 12:03:08.32,554,-1438,-1409,23,-93,-51,-156,-301,145,228
,347,2023-10-27 12:03:08.33,531,-1469,-1414,-1,-77,-34,-164,-313,149,238
,348,2023-10-27 12:03:08.34,551,-1450,-1400,-7,-80,-32,-154,-304,150,229
,349,2023-10-27 12:03:08.35,555,-1462,-1394,-19,-81,-11,-159,-312,153,235
,350,2023-10-27 12:03:08.36,537,-1490,-1399,-40,-71,13,-155,-304,149,229
,351,2023-10-27 12:03:08.37,533,-1502,-1415,-51,-45,45,-163,-309,146,236
,352,2023-10-27 12:03:08.38,515,-1464,-1425,-58,-32,67,-162,-313,151,237
,353,2023-10-27 12:03:08.39,528,-1448,-1406,-68,-36,72,-163,-313,150,238
,354,2023-10-27 12:03:08.40,529,-1445,-1386,-87,-30,79,-158,-313,155,235
,355,2023-10-27 12:03:08.41,535,-1442,-1398,-96,-13,83,-165,-313,148,239
,356,2023-10-27 12:03:08.42,520,-1440,-1399,-98,-9,80,-165,-320,155,242
,357,2023-10-27 12:03:08.43,529,-1451,-1414,-103,-12,89,-166,-315,149,240
,358,2023-10-27 12:03:08.44,518,-1469,-1396,-95,-8,93,-163,-319,156,241
,359,2023-10-27 12:03:08.45,505,-1440,-1401,-72,-19,93,-164,-313,149,238
,360,2023-10-27 12:03:08.46,517,-1417,-1400,-55,-20,92,-168,-321,153,244
,361,2023-10-27 12:03:08.47,516,-1423,-1395,-51,-15,88,-168,-319,151,243
,362,2023-10-27 12:03:08.48,517,-1425,-1397,-33,-16,77,-169,-323,154,246
,363,2023-10-27 12:03:08.49,507,-1406,-1391,-16,-10,74,-161,-314,153,237
,364,2023-10-27 12:03:08.50,496,-1417,-1406,-29,16,75,-170,-322,152,246
,365,2023-10-27 12:03:08.51,503,-1423,-1427,-29,15,74,-147,-303,156,225
,366,2023-10-27 12:03:08.52,501,-1441,-1440,-32,3,87,-170,-324,154,247
,367,2023-10-27 12:03:08.53,487,-1427,-1446,-28,1,94,-159,-312,153,235
,368,2023-10-27 12:03:08.54,511,-1412,-1457,-42,-15,90,-184,-339,155,261
,369,2023-10-27 12:03:08.55,493,-1405,-1416,-34,-16,81,-158,-308,150,233
,370,2023-10-27 12:03:08.56,511,-1378,-1418,-58,-13,62,-175,-329,154,252
,371,2023-10-27 12:03:08.57,495,-1403,-1426,-55,7,50,-157,-303,146,230
,372,2023-10-27 12:03:08.58,498,-1377,-1452,-67,4,37,-170,-324,154,247
,373,2023-10-27 12:03:08.59,506,-1394,-1472,-74,0,31,-151,-301,150,226
,374,2023-10-27 12:03:08.60,504,-1431,-1470,-85,-16,23,-179,-335,156,257
,375,2023-10-27 12:03:08.61,492,-1439,-1454,-86,-14,23,-159,-310,151,234
,376,2023-10-27 12:03:08.62,506,-1415,-1452,-82,-13,19,-176,-335,159,255
,377,2023-10-27 12:03:08.63,498,-1423,-1442,-58,-2,20,-151,-303,152,227
,378,2023-10-27 12:03:08.64,509,-1382,-1389,-39,0,21,-174,-330,156,252
,379,2023-10-27 12:03:08.65,511,-1414,-1371,-11,37,18,-149,-298,149,223
,380,2023-10-27 12:03:08.66,487,-1401,-1359,41,65,15,-171,-327,156,249
,381,2023-10-27 12:03:08.67,498,-1356,-1394,65,77,20,-142,-290,148,216
,382,2023-10-27 12:03:08.68,464,-1367,-1463,83,85,29,-168,-319,151,243
,383,2023-10-27 12:03:08.69,473,-1377,-1492,64,73,33,-134,-284,150,209
,384,2023-10-27 12:03:08.70,478,-1410,-1521,49,49,40,-164,-318,154,241
,385,2023-10-27 12:03:08.71,501,-1428,-1504,35,40,44,-134,-286,152,210
,386,2023-10-27 12:03:08.72,488,-1415,-1455,38,33,45,-171,-325,154,248
,387,2023-10-27 12:03:08.73,483,-1384,-1441,47,37,33,-137,-290,153,213
,388,2023-10-27 12:03:08.74,493,-1351,-1428,59,39,22,-172,-330,158,251
,389,2023-10-27 12:03:08.75,496,-1354,-1437,68,42,14,-136,-291,155,213
,390,2023-10-27 12:03:08.76,488,-1366,-1447,64,35,-1,-171,-329,158,250
,391,2023-10-27 12:03:08.77,482,-1397,-1471,65,34,-6,-130,-285,155,207
,392,2023-10-27 12:03:08.78,511,-1404,-1471,70,15,-8,-172,-329,157,250
,393,2023-10-27 12:03:08.79,514,-1427,-1456,60,8,-12,-130,-287,157,208
,394,2023-10-27 12:03:08.80,490,-1442,-1447,61,11,-16,-177,-337,160,257
,395,2023-10-27 12:03:08.81,496,-1419,-1441,79,8,-25,-133,-290,157,211
,396,2023-10-27 12:03:08.82,499,-1342,-1442,93,0,-43,-179,-343,164,261
,397,2023-10-27 12:03:08.83,508,-1383,-1430,88,-8,-45,-134,-293,159,213
,398,2023-10-27 12:03:08.84,501,-1434,-1384,93,11,-36,-179,-350,171,264
,399,2023-10-27 12:03:08.85,504,-1418,-1407,92,42,-29,-131,-294,163,212
,400,2023-10-27 12:03:08.86,497,-1408,-1444,98,57,-19,-178,-350,172,264
,401,2023-10-27 12:03:08.87,503,-1403,-1444,105,46,-10,-130,-294,164,212
,402,2023-10-27 12:03:08.88,531,-1433,-1409,112,52,4,-180,-354,174,267
,403,2023-10-27 12:03:08.89,513,-1467,-1353,119,79,29,-131,-297,166,214
,404,2023-10-27 12:03:08.90,509,-1404,-1449,134,107,29,-180,-354,174,267
,405,2023-10-27 12:03:08.91,513,-1424,-1458,147,82,40,-132,-297,165,214
,406,2023-10-27 12:03:08.92,511,-1434,-1407,172,76,39,-172,-344,172,258
,407,2023-10-27 12:03:08.93,532,-1425,-1396,170,84,35,-130,-288,158,209
,408,2023-10-27 12:03:08.94,538,-1445,-1395,184,88,27,-176,-344,168,260
,409,2023-10-27 12:03:08.95,521,-1444,-1391,201,87,24,-131,-291,160,211
,410,2023-10-27 12:03:08.96,512,-1435,-1380,220,90,18,-175,-338,163,256
,411,2023-10-27 12:03:08.97,519,-1423,-1388,221,99,16,-124,-277,153,200
,412,2023-10-27 12:03:08.98,518,-1420,-1390,216,95,10,-181,-341,160,261
,413,2023-10-27 12:03:08.99,510,-1436,-1404,199,82,5,-119,-275,156,197
,414,2023-10-27 12:03:09.00,517,-1454,-1407,181,67,6,-175,-337,162,256
,415,2023-10-27 12:03:09.01,532,-1467,-1399,166,46,0,-120,-274,154,197
,416,2023-10-27 12:03:09.02,542,-1479,-1405,144,32,0,-176,-336,160,256
,417,2023-10-27 12:03:09.03,533,-1504,-1377,133,26,-2,-121,-272,151,196
,418,2023-10-27 12:03:09.04,543,-1482,-1360,123,22,-5,-179,-338,159,258
,419,2023-10-27 12:03:09.05,543,-1483,-1357,121,32,-5,-116,-273,157,194
,420,2023-10-27 12:03:09.06,550,-1492,-1336,114,27,-11,-179,-342,163,260
,421,2023-10-27 12:03:09.07,552,-1505,-1343,107,47,-13,-116,-275,159,195
,422,2023-10-27 12:03:09.08,545,-1498,-1352,101,51,-14,-181,-345,164,263
,423,2023-10-27 12:03:09.09,556,-1489,-1369,86,55,-13,-116,-271,155,193
,424,2023-10-27 12:03:09.10,549,-1519,-1372,74,50,-8,-178,-342,164,260
,425,2023-10-27 12:03:09.11,541,-1510,-1364,65,36,-6,-112,-267,155,189
,426,2023-10-27 12:03:09.12,551,-1505,-1352,55,31,0,-179,-342,163,260
,427,2023-10-27 12:03:09.13,542,-1504,-1334,49,31,5,-113,-266,153,189
,428,2023-10-27 12:03:09.14,550,-1487,-1334,45,30,6,-180,-341,161,260
,429,2023-10-27 12:03:09.15,558,-1502,-1354,42,29,12,-113,-264,151,188
,430,2023-10-27 12:03:09.16,552,-1502,-1345,36,27,15,-178,-338,160,258
,431,2023-10-27 12:03:09.17,552,-1489,-1349,27,33,15,-112,-260,148,186
,432,2023-10-27 12:03:09.18,549,-1498,-1348,20,35,17,-178,-340,162,259
,433,2023-10-27 12:03:09.19,558,-1493,-1354,12,32,15,-114,-263,149,188
,434,2023-10-27 12:03:09.20,546,-1499,-1365,3,23,20,-176,-340,164,258
,435,2023-10-27 12:03:09.21,546,-1503,-1373,-2,21,19,-113,-262,149,187
,436,2023-10-27 12:03:09.22,547,-1483,-1353,-12,1,16,-174,-334,160,254
,437,2023-10-27 12:03:09.23,561,-1489,-1361,-20,-17,14,-110,-256,146,183
,438,2023-10-27 12:03:09.24,543,-1493,-1366,-31,-14,17,-174,-330,156,252
,439,2023-10-27 12:03:09.25,573,-1485,-1364,-48,-16,13,-109,-257,148,183
,440,2023-10-27 12:03:09.26,555,-1498,-1354,-55,-11,12,-179,-337,158,258
,441,2023-10-27 12:03:09.27,546,-1483,-1356,-55,-21,8,-120,-267,147,193
,442,2023-10-27 12:03:09.28,554,-1492,-1360,-47,-25,10,-187,-344,157,265
,443,2023-10-27 12:03:09.29,551,-1484,-1359,-36,-37,7,-122,-272,150,197
,444,2023-10-27 12:03:09.30,549,-1478,-1369,-43,-37,9,-186,-348,162,267
,445,2023-10-27 12:03:09.31,553,-1492,-1360,-52,-32,10,-117,-277,160,197
,446,2023-10-27 12:03:09.32,549,-1477,-1356,-59,-32,10,-188,-353,165,270
