// Data mode  : Full
// Data quality  : High
// Acceleration sensor's range  : 16g
// Gyroscope sensor's range  : 2000dps
//
//ARTIFACT,NUM,DATE,ACC_X,ACC_Y,ACC_Z,GYRO_X,GYRO_Y,GYRO_Z,EOG_L,EOG_R,EOG_H,EOG_V
,1,2023-10-27 12:20:08.12,132,-146,-2056,-63,-23,-4,-460,52,-512,204
,2,2023-10-27 12:20:08.13,123,-134,-2048,-67,0,0,-296,-6,-290,151
,3,2023-10-27 12:20:08.14,128,-132,-2033,-69,22,-14,-467,42,-509,212
,4,2023-10-27 12:20:08.15,142,-137,-2044,-66,24,-28,-298,-11,-287,154
,5,2023-10-27 12:20:08.16,126,-135,-2040,-61,33,-43,-464,39,-503,212
,6,2023-10-27 12:20:08.17,132,-134,-2040,-63,21,-57,-301,-18,-283,159
,7,2023-10-27 12:20:08.18,128,-132,-2032,-64,28,-61,-480,28,-508,226
,8,2023-10-27 12:20:08.19,119,-136,-2035,-57,30,-61,-310,-18,-292,164
,9,2023-10-27 12:20:08.20,128,-138,-2042,-55,52,-66,-479,30,-509,224
,10,2023-10-27 12:20:08.21,113,-134,-2033,-56,52,-72,-298,1,-299,148
,11,2023-10-27 12:20:08.22,126,-125,-2041,-52,40,-76,-475,27,-502,224
,12,2023-10-27 12:20:08.23,123,-131,-2053,-57,51,-87,-295,3,-298,146
,13,2023-10-27 12:20:08.24,122,-135,-2035,-63,73,-83,-478,27,-505,225
,14,2023-10-27 12:20:08.25,127,-124,-2050,-60,76,-91,-300,1,-301,149
,15,2023-10-27 12:20:08.26,126,-126,-2044,-59,76,-93,-481,21,-502,230
,16,2023-10-27 12:20:08.27,119,-122,-2047,-60,97,-89,-299,1,-300,149
,17,2023-10-27 12:20:08.28,117,-114,-2035,-68,98,-89,-484,32,-516,226
,18,2023-10-27 12:20:08.29,140,-103,-2037,-73,108,-95,-305,16,-321,144
,19,2023-10-27 12:20:08.30,136,-112,-2038,-76,131,-94,-491,25,-516,233
,20,2023-10-27 12:20:08.31,154,-112,-2047,-82,126,-105,-304,10,-314,147
,21,2023-10-27 12:20:08.32,169,-108,-2046,-81,120,-106,-491,22,-513,234
,22,2023-10-27 12:20:08.33,160,-111,-2043,-81,130,-102,-312,18,-330,147
,23,2023-10-27 12:20:08.34,155,-111,-2048,-78,135,-97,-503,25,-528,239
,24,2023-10-27 12:20:08.35,176,-109,-2053,-73,145,-95,-311,30,-341,140
,25,2023-10-27 12:20:08.36,182,-105,-2048,-65,143,-95,-492,39,-531,226
,26,2023-10-27 12:20:08.37,182,-101,-2031,-59,131,-104,-306,45,-351,130
,27,2023-10-27 12:20:08.38,183,-100,-2044,-50,138,-98,-492,28,-520,232
,28,2023-10-27 12:20:08.39,183,-101,-2066,-42,153,-93,-306,33,-339,136
,29,2023-10-27 12:20:08.40,178,-111,-2058,-38,128,-102,-493,31,-524,231
,30,2023-10-27 12:20:08.41,186,-108,-2059,-21,134,-102,-312,50,-362,131
,31,2023-10-27 12:20:08.42,190,-111,-2057,-9,114,-105,-500,36,-536,232
,32,2023-10-27 12:20:08.43,199,-105,-2068,-3,122,-100,-316,53,-369,131
,33,2023-10-27 12:20:08.44,219,-101,-2062,1,120,-113,-500,45,-545,227
,34,2023-10-27 12:20:08.45,209,-101,-2056,7,113,-118,-316,71,-387,122
,35,2023-10-27 12:20:08.46,213,-104,-2053,14,117,-115,-504,45,-549,229
,36,2023-10-27 12:20:08.47,201,-105,-2055,15,118,-122,-320,62,-382,129
,37,2023-10-27 12:20:08.48,212,-105,-2049,18,102,-121,-508,44,-552,232
,38,2023-10-27 12:20:08.49,215,-101,-2047,19,88,-126,-324,75,-399,124
,39,2023-10-27 12:20:08.50,208,-104,-2036,19,96,-119,-504,51,-555,226
,40,2023-10-27 12:20:08.51,209,-105,-2034,19,105,-117,-320,79,-399,120
,41,2023-10-27 12:20:08.52,221,-106,-2031,16,98,-128,-500,48,-548,226
,42,2023-10-27 12:20:08.53,223,-109,-2036,17,108,-122,-328,83,-411,122
,43,2023-10-27 12:20:08.54,220,-105,-2043,17,120,-125,-509,39,-548,235
,44,2023-10-27 12:20:08.55,212,-122,-2054,16,110,-131,-324,83,-407,120
,45,2023-10-27 12:20:08.56,230,-112,-2057,19,110,-127,-494,50,-544,222
,46,2023-10-27 12:20:08.57,233,-119,-2051,25,117,-116,-313,103,-416,105
,47,2023-10-27 12:20:08.58,234,-118,-2049,25,121,-117,-496,54,-550,221
,48,2023-10-27 12:20:08.59,244,-108,-2037,23,104,-120,-319,104,-423,107
,49,2023-10-27 12:20:08.60,240,-108,-2044,30,127,-111,-493,50,-543,221
,50,2023-10-27 12:20:08.61,246,-100,-2036,32,149,-112,-313,105,-418,104
,51,2023-10-27 12:20:08.62,252,-106,-2040,35,131,-117,-487,53,-540,217
,52,2023-10-27 12:20:08.63,251,-103,-2045,39,120,-111,-316,107,-423,104
,53,2023-10-27 12:20:08.64,242,-106,-2045,48,124,-112,-482,56,-538,213
,54,2023-10-27 12:20:08.65,252,-113,-2055,55,119,-98,-306,121,-427,92
,55,2023-10-27 12:20:08.66,243,-116,-2061,58,124,-92,-486,58,-544,214
,56,2023-10-27 12:20:08.67,242,-119,-2053,68,124,-85,-306,130,-436,88
,57,2023-10-27 12:20:08.68,271,-111,-2053,77,111,-78,-472,60,-532,206
,58,2023-10-27 12:20:08.69,258,-119,-2049,83,91,-80,-309,124,-433,92
,59,2023-10-27 12:20:08.70,264,-120,-2048,91,94,-65,-474,53,-527,210
,60,2023-10-27 12:20:08.71,259,-127,-2060,106,106,-52,-300,118,-418,91
,61,2023-10-27 12:20:08.72,283,-133,-2060,113,101,-54,-444,46,-490,199
,62,2023-10-27 12:20:08.73,281,-139,-2061,121,87,-51,-211,122,-333,44
,63,2023-10-27 12:20:08.74,271,-132,-2058,127,72,-55,-261,56,-317,102
,64,2023-10-27 12:20:08.75,283,-131,-2054,132,64,-47,7,146,-139,-76
,65,2023-10-27 12:20:08.76,274,-131,-2049,139,59,-37,-8,75,-83,-33
,66,2023-10-27 12:20:08.77,284,-137,-2042,147,78,-41,229,154,75,-191
,67,2023-10-27 12:20:08.78,283,-136,-2038,142,55,-53,226,67,159,-146
,68,2023-10-27 12:20:08.79,272,-150,-2037,143,47,-43,445,154,291,-299
,69,2023-10-27 12:20:08.80,275,-149,-2044,148,38,-38,453,78,375,-265
,70,2023-10-27 12:20:08.81,273,-155,-2044,154,57,-23,598,168,430,-383
,71,2023-10-27 12:20:08.82,281,-166,-2054,154,48,-14,547,87,460,-317
,72,2023-10-27 12:20:08.83,269,-157,-2051,153,44,-20,670,174,496,-422
,73,2023-10-27 12:20:08.84,272,-167,-2050,153,10,-19,629,85,544,-357
,74,2023-10-27 12:20:08.85,283,-173,-2045,153,4,-6,731,168,563,-449
,75,2023-10-27 12:20:08.86,278,-177,-2032,151,26,1,666,70,596,-368
,76,2023-10-27 12:20:08.87,285,-177,-2049,155,25,5,743,163,580,-453
,77,2023-10-27 12:20:08.88,268,-190,-2035,147,3,1,664,74,590,-369
,78,2023-10-27 12:20:08.89,282,-190,-2037,145,1,11,742,177,565,-459
,79,2023-10-27 12:20:08.90,283,-197,-2040,151,21,30,656,82,574,-369
,80,2023-10-27 12:20:08.91,289,-203,-2036,153,10,24,748,186,562,-467
,81,2023-10-27 12:20:08.92,288,-209,-2041,154,1,28,668,80,588,-374
,82,2023-10-27 12:20:08.93,296,-210,-2042,156,5,44,765,184,581,-474
,83,2023-10-27 12:20:08.94,293,-214,-2038,156,2,48,675,80,595,-377
,84,2023-10-27 12:20:08.95,281,-216,-2031,162,19,53,746,188,558,-467
,85,2023-10-27 12:20:08.96,293,-211,-2043,164,11,51,637,82,555,-359
,86,2023-10-27 12:20:08.97,286,-217,-2028,165,-10,57,682,189,493,-435
,87,2023-10-27 12:20:08.98,289,-218,-2020,172,10,68,566,80,486,-323
,88,2023-10-27 12:20:08.99,292,-223,-2032,171,15,77,581,179,402,-380
,89,2023-10-27 12:20:09.00,280,-233,-2032,168,7,76,442,61,381,-251
,90,2023-10-27 12:20:09.01,300,-224,-2025,169,-4,79,494,171,323,-332
,91,2023-10-27 12:20:09.02,302,-237,-2034,169,-7,92,382,63,319,-222
,92,2023-10-27 12:20:09.03,291,-237,-2039,169,16,102,531,183,348,-357
,93,2023-10-27 12:20:09.04,290,-234,-2051,165,12,94,488,65,423,-276
,94,2023-10-27 12:20:09.05,293,-241,-2047,164,-12,92,317,185,132,-251
,95,2023-10-27 12:20:09.06,298,-239,-2037,165,-18,102,42,65,-23,-53
,96,2023-10-27 12:20:09.07,280,-248,-2038,162,-7,108,-108,182,-290,-37
,97,2023-10-27 12:20:09.08,285,-248,-2033,161,0,113,-273,74,-347,99
,98,2023-10-27 12:20:09.09,285,-253,-2025,154,-20,105,-282,204,-486,39
,99,2023-10-27 12:20:09.10,294,-254,-2025,151,-37,102,-381,71,-452,155
,100,2023-10-27 12:20:09.11,291,-256,-2028,147,-10,113,-354,198,-552,78
,101,2023-10-27 12:20:09.12,279,-261,-2025,141,-13,106,-422,59,-481,181
,102,2023-10-27 12:20:09.13,283,-268,-2031,136,-28,100,-390,194,-584,98
,103,2023-10-27 12:20:09.14,277,-267,-2031,133,-30,101,-436,57,-493,189
,104,2023-10-27 12:20:09.15,274,-276,-2039,125,-29,101,-408,193,-601,107
,105,2023-10-27 12:20:09.16,281,-256,-2037,115,-27,89,-447,50,-497,198
,106,2023-10-27 12:20:09.17,280,-262,-2024,103,-43,77,-425,184,-609,120
,107,2023-10-27 12:20:09.18,276,-248,-2022,95,-45,76,-452,35,-487,208
,108,2023-10-27 12:20:09.19,265,-262,-2028,81,-20,71,-434,163,-597,135
,109,2023-10-27 12:20:09.20,266,-257,-2028,66,-33,54,-446,29,-475,208
,110,2023-10-27 12:20:09.21,273,-253,-2032,57,-30,51,-423,159,-582,132
,111,2023-10-27 12:20:09.22,265,-260,-2025,50,-8,52,-390,31,-421,179
,112,2023-10-27 12:20:09.23,273,-260,-2023,36,-28,33,-284,166,-450,59
,113,2023-10-27 12:20:09.24,270,-259,-2021,27,-28,29,-243,39,-282,102
,114,2023-10-27 12:20:09.25,266,-267,-2024,24,-3,31,-254,158,-412,48
,115,2023-10-27 12:20:09.26,268,-277,-2020,18,8,27,-289,21,-310,134
,116,2023-10-27 12:20:09.27,274,-274,-2018,8,-24,8,-320,137,-457,91
,117,2023-10-27 12:20:09.28,276,-270,-2025,8,-2,18,-337,6,-343,165
,118,2023-10-27 12:20:09.29,279,-264,-2020,8,-8,1,-352,130,-482,111
,119,2023-10-27 12:20:09.30,270,-270,-2026,5,-3,-1,-354,3,-357,175
,120,2023-10-27 12:20:09.31,267,-284,-2022,6,6,9,-390,134,-524,128
,121,2023-10-27 12:20:09.32,276,-283,-2031,9,4,14,-387,9,-396,189
,122,2023-10-27 12:20:09.33,262,-283,-2032,16,-6,8,-418,134,-552,142
,123,2023-10-27 12:20:09.34,273,-288,-2027,22,-23,13,-384,10,-394,187
,124,2023-10-27 12:20:09.35,268,-289,-2037,27,-28,19,-359,142,-501,108
,125,2023-10-27 12:20:09.36,271,-283,-2042,28,-24,20,-281,23,-304,129
,126,2023-10-27 12:20:09.37,273,-289,-2041,34,-17,20,-153,153,-306,0
,127,2023-10-27 12:20:09.38,269,-286,-2031,34,-34,16,-41,34,-75,3
,128,2023-10-27 12:20:09.39,273,-288,-2025,36,-16,25,-142,183,-325,-20
,129,2023-10-27 12:20:09.40,267,-288,-2021,35,-9,24,-206,50,-256,78
,130,2023-10-27 12:20:09.41,270,-289,-2014,37,-24,23,-334,179,-513,77
,131,2023-10-27 12:20:09.42,265,-291,-2020,32,-31,24,-333,47,-380,143
,132,2023-10-27 12:20:09.43,254,-291,-2030,33,-16,32,-404,179,-583,112
,133,2023-10-27 12:20:09.44,259,-288,-2028,27,-16,38,-359,45,-404,157
,134,2023-10-27 12:20:09.45,266,-298,-2023,20,-24,33,-426,175,-601,125
,135,2023-10-27 12:20:09.46,262,-287,-2029,14,-42,35,-373,43,-416,165
,136,2023-10-27 12:20:09.47,263,-288,-2036,15,-17,50,-444,179,-623,132
,137,2023-10-27 12:20:09.48,242,-298,-2034,9,-28,48,-383,45,-428,169
,138,2023-10-27 12:20:09.49,269,-292,-2032,6,-30,56,-424,169,-593,127
,139,2023-10-27 12:20:09.50,260,-292,-2035,2,-37,57,-303,42,-345,130
,140,2023-10-27 12:20:09.51,260,-285,-2024,1,-26,63,-325,149,-474,88
,141,2023-10-27 12:20:09.52,264,-291,-2022,-4,-28,56,-227,26,-253,100
,142,2023-10-27 12:20:09.53,247,-293,-2017,-5,-45,57,-322,134,-456,94
,143,2023-10-27 12:20:09.54,248,-295,-2026,-2,-17,68,-264,16,-280,124
,144,2023-10-27 12:20:09.55,257,-293,-2028,-8,-20,68,-391,123,-514,134
,145,2023-10-27 12:20:09.56,257,-284,-2024,-11,-36,65,-316,15,-331,150
,146,2023-10-27 12:20:09.57,253,-288,-2028,-13,-19,74,-416,129,-545,143
,147,2023-10-27 12:20:09.58,254,-275,-2034,-17,-3,74,-327,24,-351,151
,148,2023-10-27 12:20:09.59,251,-277,-2022,-24,-25,68,-453,125,-578,164
,149,2023-10-27 12:20:09.60,254,-270,-2017,-29,-17,73,-364,16,-380,174
,150,2023-10-27 12:20:09.61,252,-272,-2027,-30,1,67,-483,109,-592,187
,151,2023-10-27 12:20:09.62,258,-266,-2027,-31,5,68,-373,5,-378,184
,152,2023-10-27 12:20:09.63,259,-262,-2025,-30,-24,61,-498,110,-608,194
,153,2023-10-27 12:20:09.64,260,-270,-2025,-24,-8,64,-382,16,-398,183
,154,2023-10-27 12:20:09.65,260,-262,-2032,-26,-4,46,-511,109,-620,201
,155,2023-10-27 12:20:09.66,248,-265,-2034,-25,-16,46,-373,15,-388,179
,156,2023-10-27 12:20:09.67,257,-271,-2035,-18,-19,50,-494,113,-607,190
,157,2023-10-27 12:20:09.68,256,-274,-2041,-10,-15,49,-361,28,-389,166
,158,2023-10-27 12:20:09.69,261,-274,-2031,-8,-14,43,-489,121,-610,184
,159,2023-10-27 12:20:09.70,262,-273,-2037,-7,-40,42,-360,34,-394,163
,160,2023-10-27 12:20:09.71,244,-271,-2028,1,-8,54,-506,116,-622,195
,161,2023-10-27 12:20:09.72,252,-261,-2025,-2,-18,41,-368,34,-402,167
,162,2023-10-27 12:20:09.73,245,-266,-2023,-3,-38,36,-503,113,-616,195
,163,2023-10-27 12:20:09.74,250,-259,-2031,-3,-23,42,-358,36,-394,161
,164,2023-10-27 12:20:09.75,251,-266,-2031,-5,-23,32,-492,101,-593,195
,165,2023-10-27 12:20:09.76,256,-264,-2035,-6,-51,19,-341,27,-368,157
,166,2023-10-27 12:20:09.77,247,-268,-2043,-3,-30,34,-483,109,-592,187
,167,2023-10-27 12:20:09.78,241,-265,-2039,-4,-28,31,-342,45,-387,148
,168,2023-10-27 12:20:09.79,252,-271,-2043,-7,-55,22,-498,114,-612,192
,169,2023-10-27 12:20:09.80,240,-268,-2031,-6,-60,23,-349,44,-393,152
,170,2023-10-27 12:20:09.81,249,-260,-2037,-6,-42,35,-513,104,-617,204
,171,2023-10-27 12:20:09.82,226,-266,-2036,-8,-36,29,-357,43,-400,157
,172,2023-10-27 12:20:09.83,240,-263,-2030,-15,-62,12,-510,98,-608,206
,173,2023-10-27 12:20:09.84,233,-274,-2028,-12,-50,30,-352,33,-385,159
,174,2023-10-27 12:20:09.85,231,-270,-2036,-12,-35,29,-516,83,-599,216
,175,2023-10-27 12:20:09.86,233,-267,-2029,-11,-45,25,-367,23,-390,172
,176,2023-10-27 12:20:09.87,236,-265,-2031,-13,-58,21,-529,83,-612,223
,177,2023-10-27 12:20:09.88,230,-259,-2033,-10,-41,34,-366,33,-399,166
,178,2023-10-27 12:20:09.89,223,-266,-2043,-11,-38,28,-528,81,-609,223
,179,2023-10-27 12:20:09.90,217,-260,-2043,-14,-68,20,-358,30,-388,164
,180,2023-10-27 12:20:09.91,228,-268,-2040,-11,-54,32,-520,74,-594,223
,181,2023-10-27 12:20:09.92,217,-260,-2037,-9,-46,35,-353,29,-382,162
,182,2023-10-27 12:20:09.93,222,-260,-2039,-12,-58,30,-525,60,-585,232
,183,2023-10-27 12:20:09.94,227,-269,-2033,-15,-60,28,-358,25,-383,166
,184,2023-10-27 12:20:09.95,220,-262,-2018,-13,-45,41,-530,57,-587,236
,185,2023-10-27 12:20:09.96,220,-271,-2017,-10,-25,37,-358,29,-387,164
,186,2023-10-27 12:20:09.97,222,-274,-2028,-11,-49,28,-526,66,-592,230
,187,2023-10-27 12:20:09.98,208,-272,-2029,-10,-39,34,-355,41,-396,157
,188,2023-10-27 12:20:09.99,218,-271,-2035,-6,-30,44,-529,67,-596,231
,189,2023-10-27 12:20:10.00,214,-259,-2038,-6,-19,46,-356,39,-395,158
,190,2023-10-27 12:20:10.01,218,-265,-2042,-8,-12,37,-528,63,-591,232
,191,2023-10-27 12:20:10.02,221,-260,-2038,-10,-32,34,-352,47,-399,152
,192,2023-10-27 12:20:10.03,209,-253,-2030,-10,-5,46,-524,67,-591,228
,193,2023-10-27 12:20:10.04,212,-258,-2027,-11,-4,40,-345,55,-400,145
,194,2023-10-27 12:20:10.05,208,-260,-2032,-11,-13,40,-516,61,-577,227
,195,2023-10-27 12:20:10.06,214,-261,-2026,-12,-32,40,-335,56,-391,139
,196,2023-10-27 12:20:10.07,225,-264,-2030,-13,-13,53,-509,71,-580,219
,197,2023-10-27 12:20:10.08,206,-257,-2032,-13,-2,52,-328,68,-396,130
,198,2023-10-27 12:20:10.09,214,-254,-2032,-15,-37,45,-504,66,-570,219
,199,2023-10-27 12:20:10.10,218,-256,-2032,-16,-36,48,-332,63,-395,134
,200,2023-10-27 12:20:10.11,217,-257,-2040,-16,-17,54,-516,63,-579,226
,201,2023-10-27 12:20:10.12,209,-255,-2042,-15,-22,51,-337,64,-401,136
,202,2023-10-27 12:20:10.13,217,-250,-2043,-16,-36,44,-509,57,-566,226
,203,2023-10-27 12:20:10.14,206,-252,-2046,-16,-39,49,-330,64,-394,133
,204,2023-10-27 12:20:10.15,217,-246,-2035,-17,-12,54,-515,55,-570,230
,205,2023-10-27 12:20:10.16,216,-253,-2041,-18,-39,43,-334,63,-397,135
,206,2023-10-27 12:20:10.17,214,-255,-2037,-15,-40,52,-512,51,-563,230
,207,2023-10-27 12:20:10.18,208,-255,-2030,-13,-28,54,-337,69,-406,134
,208,2023-10-27 12:20:10.19,209,-249,-2038,-15,-24,51,-525,56,-581,234
,209,2023-10-27 12:20:10.20,211,-251,-2024,-19,-41,46,-347,75,-422,136
,210,2023-10-27 12:20:10.21,203,-247,-2032,-19,-27,52,-524,67,-591,228
,211,2023-10-27 12:20:10.22,203,-251,-2037,-17,-18,50,-345,86,-431,129
,212,2023-10-27 12:20:10.23,202,-247,-2029,-20,-38,48,-525,58,-583,233
,213,2023-10-27 12:20:10.24,204,-253,-2029,-23,-33,50,-347,80,-427,133
,214,2023-10-27 12:20:10.25,194,-255,-2035,-21,-27,49,-529,40,-569,244
,215,2023-10-27 12:20:10.26,198,-253,-2045,-22,-29,55,-353,67,-420,143
,216,2023-10-27 12:20:10.27,195,-249,-2034,-25,-44,51,-532,32,-564,250
,217,2023-10-27 12:20:10.28,198,-247,-2033,-24,-41,54,-350,75,-425,137
,218,2023-10-27 12:20:10.29,201,-244,-2044,-29,-31,49,-521,42,-563,239
,219,2023-10-27 12:20:10.30,193,-240,-2033,-34,-40,43,-357,76,-433,140
,220,2023-10-27 12:20:10.31,185,-244,-2037,-37,-36,42,-522,54,-576,234
,221,2023-10-27 12:20:10.32,185,-237,-2043,-39,-27,39,-346,98,-444,124
,222,2023-10-27 12:20:10.33,183,-247,-2031,-43,-19,40,-512,56,-568,228
,223,2023-10-27 12:20:10.34,196,-248,-2031,-45,-34,35,-342,99,-441,121
,224,2023-10-27 12:20:10.35,186,-247,-2044,-48,-35,38,-515,49,-564,233
,225,2023-10-27 12:20:10.36,179,-234,-2035,-50,-19,39,-354,91,-445,131
,226,2023-10-27 12:20:10.37,173,-242,-2030,-57,-26,34,-525,37,-562,244
,227,2023-10-27 12:20:10.38,192,-234,-2037,-58,-25,32,-362,92,-454,135
,228,2023-10-27 12:20:10.39,187,-234,-2028,-62,-12,31,-524,42,-566,241
,229,2023-10-27 12:20:10.40,188,-232,-2037,-66,-5,31,-370,102,-472,134
,230,2023-10-27 12:20:10.41,188,-226,-2032,-71,-12,19,-526,50,-576,238
,231,2023-10-27 12:20:10.42,184,-223,-2035,-75,-19,18,-363,107,-470,128
,232,2023-10-27 12:20:10.43,175,-224,-2027,-75,10,21,-513,45,-558,234
,233,2023-10-27 12:20:10.44,184,-225,-2041,-80,2,17,-360,108,-468,126
,234,2023-10-27 12:20:10.45,187,-221,-2040,-85,-4,12,-512,45,-557,233
,235,2023-10-27 12:20:10.46,193,-223,-2039,-86,-4,5,-352,110,-462,121
,236,2023-10-27 12:20:10.47,190,-217,-2042,-89,11,2,-498,53,-551,222
,237,2023-10-27 12:20:10.48,189,-211,-2046,-91,5,5,-338,128,-466,105
,238,2023-10-27 12:20:10.49,202,-203,-2046,-92,10,-4,-487,59,-546,214
,239,2023-10-27 12:20:10.50,193,-207,-2045,-92,5,-6,-332,131,-463,100
,240,2023-10-27 12:20:10.51,193,-203,-2042,-95,1,-18,-482,57,-539,212
,241,2023-10-27 12:20:10.52,191,-205,-2047,-94,-4,-17,-329,133,-462,98
,242,2023-10-27 12:20:10.53,186,-200,-2036,-94,8,-16,-477,58,-535,209
,243,2023-10-27 12:20:10.54,190,-204,-2041,-98,-1,-30,-336,139,-475,98
,244,2023-10-27 12:20:10.55,194,-205,-2046,-93,0,-27,-478,55,-533,211
,245,2023-10-27 12:20:10.56,195,-192,-2043,-93,-5,-25,-342,136,-478,103
,246,2023-10-27 12:20:10.57,191,-193,-2043,-90,-7,-33,-480,52,-532,214
,247,2023-10-27 12:20:10.58,180,-191,-2046,-89,-16,-40,-344,137,-481,103
,248,2023-10-27 12:20:10.59,191,-191,-2051,-84,-14,-37,-473,49,-522,212
,249,2023-10-27 12:20:10.60,189,-190,-2045,-78,-3,-40,-338,136,-474,101
,250,2023-10-27 12:20:10.61,180,-190,-2058,-76,-20,-49,-466,48,-514,209
,251,2023-10-27 12:20:10.62,179,-195,-2051,-74,-21,-43,-332,144,-476,94
,252,2023-10-27 12:20:10.63,174,-187,-2041,-67,-17,-39,-449,48,-497,200
,253,2023-10-27 12:20:10.64,183,-193,-2046,-62,-31,-39,-316,143,-459,86
,254,2023-10-27 12:20:10.65,176,-195,-2052,-57,-28,-29,-424,54,-478,185
,255,2023-10-27 12:20:10.66,178,-192,-2054,-55,-28,-31,-291,153,-444,69
,256,2023-10-27 12:20:10.67,169,-194,-2059,-48,-43,-29,-389,55,-444,167
,257,2023-10-27 12:20:10.68,187,-183,-2042,-35,-33,-15,-277,144,-421,66
,258,2023-10-27 12:20:10.69,178,-182,-2045,-32,-24,-22,-382,44,-426,169
,259,2023-10-27 12:20:10.70,173,-185,-2044,-29,-23,-13,-254,148,-402,53
,260,2023-10-27 12:20:10.71,181,-190,-2034,-24,-6,-3,-337,36,-373,150
,261,2023-10-27 12:20:10.72,182,-185,-2041,-22,-25,-4,-221,152,-373,34
,262,2023-10-27 12:20:10.73,172,-187,-2042,-19,-19,6,-321,44,-365,138
,263,2023-10-27 12:20:10.74,176,-180,-2048,-20,-11,9,-185,149,-334,18
,264,2023-10-27 12:20:10.75,178,-173,-2032,-22,-8,14,-225,45,-270,90
,265,2023-10-27 12:20:10.76,185,-166,-2041,-25,-26,15,80,164,-84,-122
,266,2023-10-27 12:20:10.77,161,-169,-2047,-26,-7,25,163,67,96,-115
,267,2023-10-27 12:20:10.78,179,-161,-2049,-31,-15,11,272,187,85,-229
,268,2023-10-27 12:20:10.79,176,-167,-2035,-32,-26,19,142,72,70,-107
,269,2023-10-27 12:20:10.80,172,-164,-2045,-31,-8,14,224,186,38,-205
,270,2023-10-27 12:20:10.81,179,-159,-2051,-29,-24,9,147,67,80,-107
,271,2023-10-27 12:20:10.82,170,-161,-2048,-25,-4,21,366,184,182,-275
,272,2023-10-27 12:20:10.83,172,-158,-2056,-24,-3,18,369,73,296,-221
,273,2023-10-27 12:20:10.84,162,-161,-2055,-23,-22,18,485,196,289,-340
,274,2023-10-27 12:20:10.85,167,-163,-2048,-16,-11,25,382,71,311,-226
,275,2023-10-27 12:20:10.86,168,-157,-2044,-14,-14,11,196,187,9,-191
,276,2023-10-27 12:20:10.87,171,-158,-2049,-9,-22,15,-62,66,-128,-2
,277,2023-10-27 12:20:10.88,157,-156,-2048,-2,-4,16,-168,208,-376,-20
,278,2023-10-27 12:20:10.89,169,-168,-2051,-3,-9,12,-305,82,-387,111
,279,2023-10-27 12:20:10.90,170,-157,-2045,2,-15,6,-298,213,-511,42
,280,2023-10-27 12:20:10.91,179,-161,-2044,5,-13,15,-374,73,-447,150
,281,2023-10-27 12:20:10.92,165,-167,-2050,3,-2,15,-349,200,-549,74
,282,2023-10-27 12:20:10.93,164,-151,-2054,3,-28,0,-400,59,-459,170
,283,2023-10-27 12:20:10.94,170,-144,-2057,9,-23,5,-373,185,-558,94
,284,2023-10-27 12:20:10.95,164,-157,-2051,11,-2,7,-408,46,-454,181
,285,2023-10-27 12:20:10.96,171,-148,-2053,8,-13,-4,-388,183,-571,102
,286,2023-10-27 12:20:10.97,167,-144,-2052,7,-37,-10,-412,48,-460,182
,287,2023-10-27 12:20:10.98,162,-151,-2043,7,-9,-4,-305,172,-477,66
,288,2023-10-27 12:20:10.99,157,-147,-2050,2,-15,-20,-251,40,-291,105
,289,2023-10-27 12:20:11.00,164,-150,-2048,0,-22,-17,-30,167,-197,-68
,290,2023-10-27 12:20:11.01,157,-149,-2049,2,-15,-19,45,38,7,-41
,291,2023-10-27 12:20:11.02,164,-149,-2043,0,-29,-33,-35,160,-195,-62
,292,2023-10-27 12:20:11.03,165,-152,-2045,-1,-26,-33,-156,32,-188,62
,293,2023-10-27 12:20:11.04,161,-156,-2041,2,10,-25,-242,150,-392,46
,294,2023-10-27 12:20:11.05,154,-156,-2040,4,-7,-33,-286,19,-305,133
,295,2023-10-27 12:20:11.06,172,-163,-2040,6,-7,-39,-324,146,-470,89
,296,2023-10-27 12:20:11.07,159,-165,-2046,10,2,-37,-342,13,-355,164
,297,2023-10-27 12:20:11.08,150,-173,-2049,18,14,-33,-368,141,-509,113
,298,2023-10-27 12:20:11.09,158,-176,-2054,26,-18,-39,-356,17,-373,169
,299,2023-10-27 12:20:11.10,143,-176,-2053,34,-8,-23,-263,154,-417,54
,300,2023-10-27 12:20:11.11,142,-183,-2053,37,1,-21,-171,36,-207,67
,301,2023-10-27 12:20:11.12,140,-178,-2043,44,-18,-20,-63,159,-222,-48
,302,2023-10-27 12:20:11.13,135,-187,-2039,48,-16,-8,4,48,-44,-26
,303,2023-10-27 12:20:11.14,147,-189,-2049,51,-8,-4,267,186,81,-226
,304,2023-10-27 12:20:11.15,141,-186,-2054,48,0,2,344,60,284,-202
,305,2023-10-27 12:20:11.16,150,-182,-2048,49,-22,2,91,201,-110,-146
,306,2023-10-27 12:20:11.17,152,-187,-2031,50,-18,19,-95,68,-163,13
,307,2023-10-27 12:20:11.18,137,-191,-2050,48,5,23,-272,201,-473,35
,308,2023-10-27 12:20:11.19,134,-198,-2046,45,-1,26,-289,70,-359,109
,309,2023-10-27 12:20:11.20,152,-196,-2047,45,-12,37,-354,202,-556,76
,310,2023-10-27 12:20:11.21,154,-201,-2046,43,-2,48,-319,64,-383,127
,311,2023-10-27 12:20:11.22,140,-199,-2046,37,20,61,-383,194,-577,94
,312,2023-10-27 12:20:11.23,147,-190,-2044,25,-5,56,-336,54,-390,141
,313,2023-10-27 12:20:11.24,156,-193,-2038,22,13,69,-404,177,-581,113
,314,2023-10-27 12:20:11.25,155,-183,-2032,15,25,67,-340,34,-374,153
,315,2023-10-27 12:20:11.26,160,-194,-2037,11,25,66,-330,139,-469,95
,316,2023-10-27 12:20:11.27,154,-186,-2037,2,24,70,-212,19,-231,96
,317,2023-10-27 12:20:11.28,163,-191,-2026,3,32,72,-193,136,-329,28
,318,2023-10-27 12:20:11.29,172,-202,-2051,10,39,67,-110,23,-133,43
,319,2023-10-27 12:20:11.30,162,-198,-2050,12,15,70,-238,138,-376,50
,320,2023-10-27 12:20:11.31,171,-199,-2048,16,26,77,-225,26,-251,99
,321,2023-10-27 12:20:11.32,177,-196,-2056,13,13,64,-359,137,-496,111
,322,2023-10-27 12:20:11.33,160,-193,-2059,12,15,60,-301,23,-324,139
,323,2023-10-27 12:20:11.34,169,-172,-2063,13,38,59,-403,132,-535,135
,324,2023-10-27 12:20:11.35,170,-173,-2055,5,34,47,-315,23,-338,146
,325,2023-10-27 12:20:11.36,169,-166,-2047,-1,14,49,-424,119,-543,152
,326,2023-10-27 12:20:11.37,164,-163,-2042,-7,18,39,-326,12,-338,157
,327,2023-10-27 12:20:11.38,157,-166,-2042,-15,7,29,-438,109,-547,164
,328,2023-10-27 12:20:11.39,157,-168,-2049,-30,2,29,-337,11,-348,163
,329,2023-10-27 12:20:11.40,170,-174,-2052,-33,-3,30,-458,109,-567,174
,330,2023-10-27 12:20:11.41,170,-169,-2053,-37,-3,24,-347,15,-362,166
,331,2023-10-27 12:20:11.42,157,-177,-2053,-40,-28,19,-470,113,-583,178
,332,2023-10-27 12:20:11.43,161,-174,-2042,-42,-15,29,-348,23,-371,162
,333,2023-10-27 12:20:11.44,170,-169,-2046,-47,-18,24,-469,123,-592,173
,334,2023-10-27 12:20:11.45,163,-160,-2055,-51,-16,23,-339,27,-366,156
,335,2023-10-27 12:20:11.46,163,-156,-2045,-62,-21,28,-460,108,-568,176
,336,2023-10-27 12:20:11.47,169,-157,-2050,-69,-38,27,-329,20,-349,154
,337,2023-10-27 12:20:11.48,159,-156,-2057,-76,-16,31,-468,101,-569,183
,338,2023-10-27 12:20:11.49,164,-159,-2059,-83,-8,32,-332,22,-354,155
,339,2023-10-27 12:20:11.50,163,-153,-2053,-82,-30,34,-458,104,-562,177
,340,2023-10-27 12:20:11.51,152,-161,-2047,-80,-25,34,-314,31,-345,141
,341,2023-10-27 12:20:11.52,149,-151,-2048,-78,-20,41,-448,102,-550,173
,342,2023-10-27 12:20:11.53,152,-163,-2048,-75,-23,42,-315,11,-326,152
,343,2023-10-27 12:20:11.54,146,-155,-2052,-73,-24,49,-457,96,-553,180
,344,2023-10-27 12:20:11.55,148,-146,-2038,-70,-23,51,-313,33,-346,140
,345,2023-10-27 12:20:11.56,149,-156,-2041,-63,-20,49,-459,93,-552,183
,346,2023-10-27 12:20:11.57,136,-155,-2054,-63,-12,55,-310,28,-338,141
,347,2023-10-27 12:20:11.58,153,-138,-2044,-61,-17,51,-462,91,-553,185
,348,2023-10-27 12:20:11.59,138,-141,-2033,-52,-27,48,-310,33,-343,138
,349,2023-10-27 12:20:11.60,156,-132,-2038,-49,-11,47,-464,88,-552,188
,350,2023-10-27 12:20:11.61,153,-130,-2044,-53,1,38,-313,33,-346,140
,351,2023-10-27 12:20:11.62,149,-136,-2049,-50,-4,37,-476,88,-564,194
,352,2023-10-27 12:20:11.63,139,-138,-2054,-40,11,41,-313,35,-348,139
,353,2023-10-27 12:20:11.64,156,-141,-2053,-32,2,35,-473,85,-558,194
,354,2023-10-27 12:20:11.65,141,-143,-2047,-26,2,34,-302,40,-342,131
,355,2023-10-27 12:20:11.66,154,-144,-2047,-18,-4,40,-462,90,-552,186
,356,2023-10-27 12:20:11.67,146,-149,-2044,-10,13,45,-294,51,-345,121
,357,2023-10-27 12:20:11.68,155,-143,-2041,-2,-10,37,-459,93,-552,183
,358,2023-10-27 12:20:11.69,153,-144,-2038,3,9,38,-294,55,-349,119
,359,2023-10-27 12:20:11.70,162,-142,-2036,6,4,34,-469,96,-565,186
,360,2023-10-27 12:20:11.71,150,-131,-2042,8,3,38,-307,64,-371,121
,361,2023-10-27 12:20:11.72,152,-137,-2043,15,32,49,-483,92,-575,195
,362,2023-10-27 12:20:11.73,158,-135,-2046,16,18,40,-312,60,-372,126
,363,2023-10-27 12:20:11.74,158,-139,-2040,19,14,43,-487,85,-572,201
,364,2023-10-27 12:20:11.75,162,-137,-2040,25,35,41,-308,58,-366,125
,365,2023-10-27 12:20:11.76,159,-153,-2040,28,38,39,-484,82,-566,201
,366,2023-10-27 12:20:11.77,162,-141,-2040,33,14,31,-309,60,-369,124
,367,2023-10-27 12:20:11.78,164,-145,-2046,37,34,42,-490,85,-575,202
,368,2023-10-27 12:20:11.79,161,-143,-2057,37,40,34,-310,69,-379,120
,369,2023-10-27 12:20:11.80,157,-138,-2069,37,18,38,-489,82,-571,203
,370,2023-10-27 12:20:11.81,156,-141,-2062,36,19,40,-305,64,-369,120
,371,2023-10-27 12:20:11.82,146,-136,-2065,35,16,39,-483,69,-552,207
,372,2023-10-27 12:20:11.83,154,-137,-2051,30,2,39,-303,63,-366,120
,373,2023-10-27 12:20:11.84,161,-135,-2053,30,16,51,-488,68,-556,210
,374,2023-10-27 12:20:11.85,162,-136,-2048,27,10,40,-326,61,-387,132
,375,2023-10-27 12:20:11.86,158,-144,-2044,26,-4,47,-510,57,-567,226
,376,2023-10-27 12:20:11.87,161,-146,-2049,24,11,47,-316,56,-372,130
,377,2023-10-27 12:20:11.88,173,-141,-2042,22,-2,46,-485,64,-549,210
,378,2023-10-27 12:20:11.89,162,-144,-2039,26,11,49,-305,71,-376,117
,379,2023-10-27 12:20:11.90,165,-150,-2043,24,8,44,-494,66,-560,214
,380,2023-10-27 12:20:11.91,161,-147,-2044,25,8,46,-312,69,-381,121
,381,2023-10-27 12:20:11.92,160,-143,-2050,30,12,46,-490,65,-555,212
,382,2023-10-27 12:20:11.93,165,-150,-2054,30,-1,47,-303,81,-384,111
,383,2023-10-27 12:20:11.94,173,-145,-2052,28,-4,52,-485,73,-558,206
,384,2023-10-27 12:20:11.95,174,-141,-2066,33,5,46,-306,87,-393,109
,385,2023-10-27 12:20:11.96,164,-138,-2047,33,-19,38,-492,67,-559,212
,386,2023-10-27 12:20:11.97,170,-140,-2052,33,4,49,-323,81,-404,121
,387,2023-10-27 12:20:11.98,155,-145,-2049,29,12,42,-510,59,-569,225
,388,2023-10-27 12:20:11.99,156,-147,-2042,27,2,34,-328,75,-403,126
,389,2023-10-27 12:20:12.00,177,-151,-2037,31,2,40,-504,45,-549,229
,390,2023-10-27 12:20:12.01,166,-153,-2040,28,10,39,-316,65,-381,125
,391,2023-10-27 12:20:12.02,167,-148,-2055,22,2,41,-493,29,-522,232
,392,2023-10-27 12:20:12.03,158,-142,-2053,20,12,42,-316,63,-379,126
,393,2023-10-27 12:20:12.04,160,-133,-2054,15,13,42,-499,35,-534,232
,394,2023-10-27 12:20:12.05,169,-139,-2047,8,13,33,-320,79,-399,120
,395,2023-10-27 12:20:12.06,164,-134,-2043,-1,7,35,-495,40,-535,227
,396,2023-10-27 12:20:12.07,165,-129,-2045,-6,20,36,-326,75,-401,125
,397,2023-10-27 12:20:12.08,168,-134,-2044,-13,14,22,-503,36,-539,233
,398,2023-10-27 12:20:12.09,157,-137,-2034,-14,23,27,-324,82,-406,121
,399,2023-10-27 12:20:12.10,159,-131,-2035,-12,28,29,-491,41,-532,225
,400,2023-10-27 12:20:12.11,163,-139,-2036,-12,26,20,-317,85,-402,116
,401,2023-10-27 12:20:12.12,157,-128,-2047,-13,8,8,-491,33,-524,229
,402,2023-10-27 12:20:12.13,174,-127,-2061,-11,28,15,-317,86,-403,115
,403,2023-10-27 12:20:12.14,166,-129,-2059,-10,11,8,-486,35,-521,225
,404,2023-10-27 12:20:12.15,151,-129,-2053,-5,12,10,-322,87,-409,117
,405,2023-10-27 12:20:12.16,159,-131,-2063,-4,16,20,-494,32,-526,231
,406,2023-10-27 12:20:12.17,151,-126,-2051,-7,24,8,-336,87,-423,124
,407,2023-10-27 12:20:12.18,153,-125,-2048,-6,0,-2,-500,28,-528,236
,408,2023-10-27 12:20:12.19,160,-116,-2048,-5,2,4,-337,90,-427,123
,409,2023-10-27 12:20:12.20,148,-133,-2046,-8,13,2,-494,28,-522,233
,410,2023-10-27 12:20:12.21,156,-130,-2064,-9,5,-4,-334,98,-432,118
,411,2023-10-27 12:20:12.22,153,-121,-2047,-5,-3,0,-487,31,-518,228
,412,2023-10-27 12:20:12.23,157,-124,-2036,0,3,-1,-329,102,-431,113
,413,2023-10-27 12:20:12.24,163,-118,-2051,-6,-3,-10,-482,32,-514,225
,414,2023-10-27 12:20:12.25,168,-118,-2054,-8,1,-14,-336,107,-443,114
,415,2023-10-27 12:20:12.26,165,-119,-2052,-2,19,-18,-495,39,-534,228
,416,2023-10-27 12:20:12.27,162,-126,-2055,0,3,-28,-349,122,-471,113
,417,2023-10-27 12:20:12.28,161,-128,-2056,0,14,-21,-497,46,-543,225
,418,2023-10-27 12:20:12.29,157,-126,-2055,3,8,-29,-348,126,-474,111
,419,2023-10-27 12:20:12.30,152,-127,-2058,8,0,-27,-490,40,-530,225
,420,2023-10-27 12:20:12.31,159,-120,-2049,12,4,-29,-346,124,-470,111
,421,2023-10-27 12:20:12.32,157,-127,-2043,13,-14,-35,-483,37,-520,223
,422,2023-10-27 12:20:12.33,157,-132,-2052,14,-8,-30,-355,127,-482,114
,423,2023-10-27 12:20:12.34,153,-136,-2058,15,-4,-34,-489,36,-525,226
,424,2023-10-27 12:20:12.35,148,-142,-2059,25,-16,-35,-360,120,-480,120
,425,2023-10-27 12:20:12.36,142,-142,-2061,33,-2,-24,-485,22,-507,231
,426,2023-10-27 12:20:12.37,136,-149,-2056,35,-14,-21,-359,116,-475,121
,427,2023-10-27 12:20:12.38,144,-153,-2054,36,-22,-17,-479,22,-501,228
,428,2023-10-27 12:20:12.39,146,-154,-2051,36,-19,-4,-364,119,-483,122
,429,2023-10-27 12:20:12.40,149,-149,-2052,33,-15,-4,-481,17,-498,232
,430,2023-10-27 12:20:12.41,142,-158,-2043,28,-20,-2,-360,117,-477,121
,431,2023-10-27 12:20:12.42,131,-148,-2045,25,-10,8,-468,16,-484,226
,432,2023-10-27 12:20:12.43,146,-150,-2044,21,-10,11,-364,121,-485,121
,433,2023-10-27 12:20:12.44,141,-154,-2040,22,4,17,-473,16,-489,228
,434,2023-10-27 12:20:12.45,141,-146,-2048,18,7,18,-370,120,-490,125
,435,2023-10-27 12:20:12.46,151,-149,-2042,17,-3,22,-466,15,-481,225
,436,2023-10-27 12:20:12.47,147,-148,-2046,18,7,20,-364,122,-486,121
,437,2023-10-27 12:20:12.48,141,-155,-2045,15,10,19,-457,12,-469,222
,438,2023-10-27 12:20:12.49,157,-149,-2046,21,14,19,-363,124,-487,119
,439,2023-10-27 12:20:12.50,151,-156,-2043,29,15,22,-452,13,-465,219
,440,2023-10-27 12:20:12.51,155,-163,-2040,36,20,19,-370,126,-496,122
,441,2023-10-27 12:20:12.52,161,-158,-2042,40,23,13,-452,9,-461,221
,442,2023-10-27 12:20:12.53,163,-169,-2037,45,32,18,-370,121,-491,124
,443,2023-10-27 12:20:12.54,170,-169,-2035,49,31,12,-444,0,-444,222
,444,2023-10-27 12:20:12.55,160,-165,-2047,53,34,14,-369,118,-487,125
,445,2023-10-27 12:20:12.56,163,-167,-2047,54,37,10,-442,-3,-439,222
,446,2023-10-27 12:20:12.57,154,-164,-2051,57,42,12,-383,117,-500,133
,447,2023-10-27 12:20:12.58,175,-167,-2055,59,31,10,-447,-7,-440,227
,448,2023-10-27 12:20:12.59,170,-166,-2053,60,51,14,-382,111,-493,135
,449,2023-10-27 12:20:12.60,168,-164,-2052,56,38,1,-436,-15,-421,225
,450,2023-10-27 12:20:12.61,176,-164,-2053,53,43,2,-377,102,-479,137
,451,2023-10-27 12:20:12.62,179,-162,-2038,55,40,2,-428,-25,-403,226
,452,2023-10-27 12:20:12.63,176,-167,-2043,53,36,0,-387,94,-481,146
,453,2023-10-27 12:20:12.64,161,-174,-2045,52,16,0,-431,-27,-404,229
,454,2023-10-27 12:20:12.65,166,-164,-2051,46,29,4,-391,97,-488,147
,455,2023-10-27 12:20:12.66,181,-171,-2043,38,21,1,-429,-26,-403,227
,456,2023-10-27 12:20:12.67,173,-164,-2051,32,15,2,-408,93,-501,157
,457,2023-10-27 12:20:12.68,182,-162,-2055,23,18,3,-427,-28,-399,227
,458,2023-10-27 12:20:12.69,180,-160,-2063,12,9,-1,-394,106,-500,144
,459,2023-10-27 12:20:12.70,181,-157,-2052,5,4,1,-412,-15,-397,213
,460,2023-10-27 12:20:12.71,175,-159,-2051,1,21,2,-406,110,-516,148
,461,2023-10-27 12:20:12.72,174,-159,-2065,-5,-3,4,-421,-20,-401,220
,462,2023-10-27 12:20:12.73,174,-158,-2053,-9,-15,4,-405,100,-505,152
,463,2023-10-27 12:20:12.74,174,-157,-2056,-11,-28,4,-408,-25,-383,216
,464,2023-10-27 12:20:12.75,180,-160,-2054,-10,-20,10,-409,104,-513,152
,465,2023-10-27 12:20:12.76,170,-166,-2049,-11,-32,8,-421,-32,-389,226
,466,2023-10-27 12:20:12.77,170,-155,-2049,-6,-39,22,-410,106,-516,152
,467,2023-10-27 12:20:12.78,176,-162,-2050,-8,-29,19,-401,-23,-378,212
,468,2023-10-27 12:20:12.79,173,-159,-2054,-7,-41,20,-412,105,-517,153
,469,2023-10-27 12:20:12.80,171,-155,-2048,-3,-32,26,-403,-22,-381,212
,470,2023-10-27 12:20:12.81,172,-159,-2042,-1,-27,28,-420,105,-525,157
,471,2023-10-27 12:20:12.82,163,-171,-2054,-2,-44,18,-398,-21,-377,209
,472,2023-10-27 12:20:12.83,169,-166,-2048,7,-37,33,-419,104,-523,157
,473,2023-10-27 12:20:12.84,168,-159,-2048,15,-31,30,-392,-26,-366,209
,474,2023-10-27 12:20:12.85,164,-156,-2037,18,-41,33,-416,101,-517,157
,475,2023-10-27 12:20:12.86,153,-154,-2039,20,-29,35,-386,-28,-358,207
,476,2023-10-27 12:20:12.87,168,-158,-2044,21,-41,23,-422,108,-530,157
,477,2023-10-27 12:20:12.88,154,-163,-2052,26,-49,22,-388,-13,-375,200
,478,2023-10-27 12:20:12.89,154,-170,-2054,31,-26,30,-430,117,-547,156
,479,2023-10-27 12:20:12.90,147,-171,-2049,33,-36,27,-386,-13,-373,199
,480,2023-10-27 12:20:12.91,156,-171,-2051,42,-53,39,-432,115,-547,158
,481,2023-10-27 12:20:12.92,149,-171,-2038,43,-31,36,-382,-13,-369,197
,482,2023-10-27 12:20:12.93,160,-174,-2050,40,-38,35,-432,109,-541,161
,483,2023-10-27 12:20:12.94,154,-161,-2038,40,-28,42,-372,-16,-356,194
,484,2023-10-27 12:20:12.95,152,-173,-2037,41,-2,44,-431,107,-538,162
,485,2023-10-27 12:20:12.96,145,-166,-2038,37,-31,33,-372,-14,-358,193
,486,2023-10-27 12:20:12.97,149,-170,-2032,38,-6,48,-440,96,-536,172
,487,2023-10-27 12:20:12.98,153,-171,-2041,36,-17,31,-370,-26,-344,198
,488,2023-10-27 12:20:12.99,152,-170,-2042,35,-17,35,-441,96,-537,172
,489,2023-10-27 12:20:13.00,145,-173,-2052,36,0,39,-368,-10,-358,189
,490,2023-10-27 12:20:13.01,149,-170,-2043,34,-13,35,-444,110,-554,167
,491,2023-10-27 12:20:13.02,150,-172,-2045,36,-12,41,-364,-8,-356,186
,492,2023-10-27 12:20:13.03,149,-172,-2046,33,-3,33,-448,102,-550,173
,493,2023-10-27 12:20:13.04,157,-166,-2043,32,-17,26,-363,-14,-349,188
,494,2023-10-27 12:20:13.05,142,-170,-2041,32,4,35,-446,100,-546,173
,495,2023-10-27 12:20:13.06,149,-176,-2048,31,9,34,-354,-11,-343,182
,496,2023-10-27 12:20:13.07,146,-173,-2055,29,-8,21,-443,96,-539,173
,497,2023-10-27 12:20:13.08,148,-171,-2053,31,-4,26,-356,-16,-340,186
,498,2023-10-27 12:20:13.09,137,-168,-2047,28,19,20,-457,94,-551,181
,499,2023-10-27 12:20:13.10,145,-174,-2051,22,-6,16,-352,-4,-348,178
,500,2023-10-27 12:20:13.11,140,-168,-2051,21,16,18,-445,103,-548,171
,501,2023-10-27 12:20:13.12,140,-167,-2043,16,11,5,-337,0,-337,168
,502,2023-10-27 12:20:13.13,150,-171,-2045,14,-3,0,-442,97,-539,172
,503,2023-10-27 12:20:13.14,136,-172,-2041,12,16,1,-333,-2,-331,167
,504,2023-10-27 12:20:13.15,133,-169,-2044,1,1,-12,-445,104,-549,170
,505,2023-10-27 12:20:13.16,141,-163,-2031,0,6,-7,-328,12,-340,158
,506,2023-10-27 12:20:13.17,140,-172,-2035,-1,22,-12,-449,105,-554,172
,507,2023-10-27 12:20:13.18,143,-168,-2049,-4,18,-18,-326,11,-337,157
,508,2023-10-27 12:20:13.19,141,-176,-2046,-4,16,-14,-451,92,-543,179
,509,2023-10-27 12:20:13.20,147,-173,-2052,-3,30,-11,-328,2,-330,163
,510,2023-10-27 12:20:13.21,152,-163,-2050,-7,9,-24,-459,87,-546,186
,511,2023-10-27 12:20:13.22,153,-164,-2053,-10,13,-16,-328,9,-337,159
,512,2023-10-27 12:20:13.23,152,-162,-2049,-12,45,-21,-460,88,-548,186
,513,2023-10-27 12:20:13.24,153,-167,-2054,-14,34,-25,-322,8,-330,157
,514,2023-10-27 12:20:13.25,143,-161,-2048,-11,39,-17,-456,86,-542,185
,515,2023-10-27 12:20:13.26,145,-171,-2053,-8,37,-18,-319,13,-332,153
,516,2023-10-27 12:20:13.27,132,-166,-2055,-8,31,-25,-464,83,-547,190
,517,2023-10-27 12:20:13.28,154,-164,-2052,-2,30,-13,-323,11,-334,156
,518,2023-10-27 12:20:13.29,141,-161,-2045,-3,16,-15,-473,77,-550,198
,519,2023-10-27 12:20:13.30,150,-160,-2054,-2,15,-8,-326,9,-335,158
,520,2023-10-27 12:20:13.31,162,-160,-2052,-2,21,-1,-475,69,-544,203
,521,2023-10-27 12:20:13.32,160,-159,-2045,-3,14,-9,-321,11,-332,155
,522,2023-10-27 12:20:13.33,160,-162,-2056,1,16,1,-469,70,-539,199
,523,2023-10-27 12:20:13.34,156,-158,-2058,5,27,3,-317,19,-336,149
,524,2023-10-27 12:20:13.35,162,-165,-2054,11,11,9,-480,78,-558,201
,525,2023-10-27 12:20:13.36,155,-171,-2062,18,9,11,-321,28,-349,146
,526,2023-10-27 12:20:13.37,149,-166,-2055,21,16,16,-476,85,-561,195
,527,2023-10-27 12:20:13.38,158,-167,-2051,29,17,16,-316,30,-346,143
,528,2023-10-27 12:20:13.39,158,-163,-2054,32,1,21,-483,72,-555,205
,529,2023-10-27 12:20:13.40,155,-167,-2042,34,21,29,-314,31,-345,141
,530,2023-10-27 12:20:13.41,163,-163,-2049,35,16,22,-475,84,-559,195
,531,2023-10-27 12:20:13.42,162,-163,-2048,36,16,27,-304,48,-352,128
,532,2023-10-27 12:20:13.43,152,-164,-2051,40,20,30,-468,86,-554,191
,533,2023-10-27 12:20:13.44,159,-153,-2045,37,17,26,-306,50,-356,128
,534,2023-10-27 12:20:13.45,160,-162,-2035,36,10,16,-484,86,-570,199
,535,2023-10-27 12:20:13.46,149,-167,-2045,43,25,19,-310,54,-364,128
,536,2023-10-27 12:20:13.47,159,-173,-2053,47,16,20,-483,77,-560,203
,537,2023-10-27 12:20:13.48,163,-165,-2036,50,23,17,-307,46,-353,130
,538,2023-10-27 12:20:13.49,172,-169,-2042,54,38,19,-489,61,-550,214
,539,2023-10-27 12:20:13.50,169,-171,-2052,57,24,6,-308,49,-357,129
,540,2023-10-27 12:20:13.51,163,-174,-2052,58,32,7,-484,75,-559,204
,541,2023-10-27 12:20:13.52,160,-174,-2044,64,37,-1,-306,61,-367,122
,542,2023-10-27 12:20:13.53,179,-176,-2048,69,28,-7,-490,81,-571,204
,543,2023-10-27 12:20:13.54,164,-176,-2045,67,35,-9,-320,64,-384,128
,544,2023-10-27 12:20:13.55,162,-178,-2044,67,31,-12,-504,74,-578,215
,545,2023-10-27 12:20:13.56,168,-183,-2041,68,28,-18,-318,65,-383,126
,546,2023-10-27 12:20:13.57,175,-187,-2039,71,40,-12,-484,80,-564,202
,547,2023-10-27 12:20:13.58,178,-193,-2043,64,34,-22,-310,71,-381,119
,548,2023-10-27 12:20:13.59,175,-195,-2041,59,30,-15,-488,84,-572,202
,549,2023-10-27 12:20:13.60,172,-187,-2046,59,37,-18,-305,80,-385,112
,550,2023-10-27 12:20:13.61,175,-187,-2038,55,36,-19,-489,86,-575,201
,551,2023-10-27 12:20:13.62,176,-191,-2037,51,37,-16,-306,94,-400,106
,552,2023-10-27 12:20:13.63,180,-183,-2031,54,46,-10,-487,97,-584,195
,553,2023-10-27 12:20:13.64,177,-191,-2054,48,51,-19,-306,101,-407,102
,554,2023-10-27 12:20:13.65,195,-189,-2048,42,34,-23,-491,92,-583,199
,555,2023-10-27 12:20:13.66,189,-188,-2040,43,58,-14,-303,100,-403,101
,556,2023-10-27 12:20:13.67,194,-191,-2046,44,57,-17,-483,90,-573,196
,557,2023-10-27 12:20:13.68,184,-190,-2045,43,44,-24,-297,104,-401,96
,558,2023-10-27 12:20:13.69,195,-193,-2046,41,54,-23,-477,88,-565,194
,559,2023-10-27 12:20:13.70,192,-192,-2048,40,39,-29,-299,103,-402,98
,560,2023-10-27 12:20:13.71,196,-190,-2031,42,48,-32,-485,80,-565,202
,561,2023-10-27 12:20:13.72,192,-194,-2043,45,45,-34,-307,93,-400,107
,562,2023-10-27 12:20:13.73,198,-198,-2043,47,53,-31,-481,68,-549,206
,563,2023-10-27 12:20:13.74,186,-194,-2040,49,37,-39,-278,96,-374,91
,564,2023-10-27 12:20:13.75,194,-198,-2045,52,55,-32,-448,76,-524,186
,565,2023-10-27 12:20:13.76,192,-200,-2039,49,32,-47,-247,108,-355,69
,566,2023-10-27 12:20:13.77,195,-200,-2041,51,38,-33,-408,84,-492,162
,567,2023-10-27 12:20:13.78,201,-209,-2040,53,40,-35,-180,121,-301,29
,568,2023-10-27 12:20:13.79,181,-211,-2020,55,47,-42,-248,100,-348,74
,569,2023-10-27 12:20:13.80,189,-216,-2025,58,45,-42,-31,142,-173,-55
,570,2023-10-27 12:20:13.81,185,-216,-2023,58,44,-37,-135,113,-248,11
,571,2023-10-27 12:20:13.82,183,-230,-2027,64,72,-32,30,151,-121,-90
,572,2023-10-27 12:20:13.83,183,-238,-2043,65,53,-42,-84,120,-204,-18
,573,2023-10-27 12:20:13.84,175,-244,-2059,70,52,-27,162,168,-6,-165
,574,2023-10-27 12:20:13.85,181,-235,-2054,80,61,-24,232,131,101,-181
,575,2023-10-27 12:20:13.86,194,-230,-2044,80,51,-32,431,177,254,-304
,576,2023-10-27 12:20:13.87,185,-220,-2051,78,71,-25,432,138,294,-285
,577,2023-10-27 12:20:13.88,200,-219,-2040,73,91,-35,478,186,292,-332
,578,2023-10-27 12:20:13.89,192,-223,-2028,70,68,-40,355,137,218,-246
,579,2023-10-27 12:20:13.90,203,-222,-2019,65,92,-38,279,168,111,-223
,580,2023-10-27 12:20:13.91,198,-226,-2025,62,75,-52,30,105,-75,-67
,581,2023-10-27 12:20:13.92,185,-232,-2038,56,72,-52,24,151,-127,-87
,582,2023-10-27 12:20:13.93,196,-229,-2045,56,78,-41,-205,82,-287,61
,583,2023-10-27 12:20:13.94,196,-233,-2048,54,69,-47,-124,141,-265,-8
,584,2023-10-27 12:20:13.95,204,-230,-2050,47,39,-47,-310,78,-388,116
,585,2023-10-27 12:20:13.96,194,-241,-2052,45,64,-37,-198,139,-337,29
,586,2023-10-27 12:20:13.97,216,-235,-2050,35,43,-47,-374,75,-449,149
,587,2023-10-27 12:20:13.98,219,-237,-2048,29,45,-35,-242,138,-380,52
,588,2023-10-27 12:20:13.99,209,-228,-2045,22,43,-27,-408,64,-472,172
,589,2023-10-27 12:20:14.00,222,-226,-2048,11,45,-28,-279,133,-412,73
,590,2023-10-27 12:20:14.01,216,-227,-2041,2,34,-22,-439,54,-493,192
,591,2023-10-27 12:20:14.02,217,-229,-2043,-5,48,-6,-312,129,-441,91
,592,2023-10-27 12:20:14.03,213,-224,-2039,-17,32,-12,-463,51,-514,206
,593,2023-10-27 12:20:14.04,213,-231,-2039,-21,28,1,-337,129,-466,104
,594,2023-10-27 12:20:14.05,218,-225,-2037,-28,45,-2,-475,48,-523,213
,595,2023-10-27 12:20:14.06,220,-226,-2040,-35,26,-7,-331,129,-460,101
,596,2023-10-27 12:20:14.07,210,-227,-2056,-34,43,11,-454,45,-499,204
,597,2023-10-27 12:20:14.08,208,-215,-2049,-40,31,3,-321,132,-453,94
,598,2023-10-27 12:20:14.09,222,-208,-2036,-47,15,3,-448,46,-494,201
,599,2023-10-27 12:20:14.10,221,-210,-2039,-53,33,4,-311,138,-449,86
,600,2023-10-27 12:20:14.11,217,-208,-2059,-54,40,-4,-432,45,-477,193
,601,2023-10-27 12:20:14.12,222,-197,-2053,-56,28,-6,-319,136,-455,91
,602,2023-10-27 12:20:14.13,229,-197,-2037,-52,6,-4,-446,45,-491,200
,603,2023-10-27 12:20:14.14,217,-196,-2045,-52,35,-2,-330,140,-470,95
,604,2023-10-27 12:20:14.15,224,-196,-2037,-59,16,-21,-443,41,-484,201
,605,2023-10-27 12:20:14.16,228,-209,-2028,-56,21,-10,-342,137,-479,102
,606,2023-10-27 12:20:14.17,229,-211,-2030,-54,31,-5,-451,31,-482,210
,607,2023-10-27 12:20:14.18,229,-201,-2036,-51,37,-7,-341,132,-473,104
,608,2023-10-27 12:20:14.19,215,-202,-2035,-52,24,-7,-436,36,-472,200
,609,2023-10-27 12:20:14.20,220,-200,-2034,-50,51,0,-329,142,-471,93
,610,2023-10-27 12:20:14.21,229,-186,-2042,-56,36,-11,-424,36,-460,194
,611,2023-10-27 12:20:14.22,230,-186,-2034,-55,33,-7,-328,133,-461,97
,612,2023-10-27 12:20:14.23,237,-182,-2042,-56,59,-7,-424,25,-449,199
,613,2023-10-27 12:20:14.24,235,-181,-2029,-58,61,-11,-347,132,-479,107
,614,2023-10-27 12:20:14.25,217,-184,-2031,-62,50,-15,-433,23,-456,205
,615,2023-10-27 12:20:14.26,222,-184,-2035,-57,60,-14,-348,134,-482,107
,616,2023-10-27 12:20:14.27,232,-190,-2047,-55,75,-21,-424,27,-451,198
,617,2023-10-27 12:20:14.28,239,-190,-2046,-51,59,-18,-349,147,-496,101
,618,2023-10-27 12:20:14.29,239,-193,-2034,-42,77,-13,-426,30,-456,198
,619,2023-10-27 12:20:14.30,243,-193,-2041,-35,73,-18,-360,142,-502,109
,620,2023-10-27 12:20:14.31,247,-191,-2048,-30,71,-15,-432,11,-443,210
,621,2023-10-27 12:20:14.32,249,-188,-2054,-25,51,-15,-365,137,-502,114
,622,2023-10-27 12:20:14.33,241,-183,-2043,-19,59,-5,-419,20,-439,199
,623,2023-10-27 12:20:14.34,247,-191,-2052,-11,65,-1,-368,134,-502,117
,624,2023-10-27 12:20:14.35,261,-186,-2049,-7,42,-4,-415,14,-429,200
,625,2023-10-27 12:20:14.36,253,-180,-2047,-2,40,5,-367,135,-502,116
,626,2023-10-27 12:20:14.37,250,-190,-2036,2,50,12,-414,13,-427,200
,627,2023-10-27 12:20:14.38,257,-194,-2041,7,43,18,-382,136,-518,123
,628,2023-10-27 12:20:14.39,264,-191,-2047,13,24,22,-418,10,-428,204
,629,2023-10-27 12:20:14.40,259,-198,-2046,22,30,33,-388,137,-525,125
,630,2023-10-27 12:20:14.41,257,-196,-2043,29,26,33,-419,17,-436,201
,631,2023-10-27 12:20:14.42,271,-194,-2035,35,17,41,-399,136,-535,131
,632,2023-10-27 12:20:14.43,262,-195,-2042,35,20,43,-419,2,-421,208
,633,2023-10-27 12:20:14.44,263,-196,-2035,37,13,45,-400,126,-526,137
,634,2023-10-27 12:20:14.45,253,-202,-2042,41,9,48,-413,4,-417,204
,635,2023-10-27 12:20:14.46,257,-199,-2054,43,9,52,-408,133,-541,137
,636,2023-10-27 12:20:14.47,263,-199,-2050,46,11,56,-409,6,-415,201
,637,2023-10-27 12:20:14.48,254,-192,-2053,45,-5,51,-398,127,-525,135
,638,2023-10-27 12:20:14.49,256,-195,-2046,40,4,56,-392,-1,-391,196
,639,2023-10-27 12:20:14.50,251,-187,-2044,31,4,48,-410,120,-530,145
,640,2023-10-27 12:20:14.51,257,-198,-2036,28,2,47,-400,-3,-397,201
,641,2023-10-27 12:20:14.52,243,-189,-2053,27,-15,47,-432,120,-552,156
,642,2023-10-27 12:20:14.53,253,-198,-2032,16,-8,48,-412,3,-415,204
,643,2023-10-27 12:20:14.54,239,-203,-2037,5,-9,44,-412,131,-543,140
,644,2023-10-27 12:20:14.55,242,-201,-2038,-1,-24,48,-384,5,-389,189
,645,2023-10-27 12:20:14.56,251,-200,-2040,-5,-16,48,-423,128,-551,147
,646,2023-10-27 12:20:14.57,243,-198,-2033,-12,-13,48,-395,3,-398,196
,647,2023-10-27 12:20:14.58,247,-176,-2056,-12,-20,50,-428,123,-551,152
,648,2023-10-27 12:20:14.59,243,-192,-2041,-19,-7,60,-388,1,-389,193
,649,2023-10-27 12:20:14.60,239,-186,-2050,-28,-21,54,-429,125,-554,152
,650,2023-10-27 12:20:14.61,238,-199,-2050,-34,-18,61,-383,0,-383,191
,651,2023-10-27 12:20:14.62,240,-188,-2047,-34,-20,63,-433,123,-556,155
,652,2023-10-27 12:20:14.63,251,-202,-2050,-34,-23,75,-384,0,-384,192
,653,2023-10-27 12:20:14.64,239,-212,-2036,-39,-36,83,-444,126,-570,159
,654,2023-10-27 12:20:14.65,240,-211,-2036,-43,-21,102,-388,0,-388,194
,655,2023-10-27 12:20:14.66,237,-227,-2034,-47,-13,117,-450,123,-573,163
,656,2023-10-27 12:20:14.67,234,-243,-2025,-48,-23,139,-385,-2,-383,193
,657,2023-10-27 12:20:14.68,230,-217,-2059,-42,-18,169,-456,117,-573,169
,658,2023-10-27 12:20:14.69,236,-209,-2047,-45,-18,189,-385,-6,-379,195
,659,2023-10-27 12:20:14.70,242,-195,-2031,-55,-32,205,-472,111,-583,180
,660,2023-10-27 12:20:14.71,240,-193,-2049,-60,-8,235,-393,-11,-382,202
,661,2023-10-27 12:20:14.72,237,-189,-2037,-64,3,248,-479,94,-573,192
,662,2023-10-27 12:20:14.73,238,-189,-2038,-67,-21,253,-383,-18,-365,200
,663,2023-10-27 12:20:14.74,231,-184,-2039,-68,-10,268,-471,101,-572,185
,664,2023-10-27 12:20:14.75,240,-180,-2029,-66,-9,280,-378,-7,-371,192
,665,2023-10-27 12:20:14.76,245,-172,-2051,-57,-13,285,-470,100,-570,185
,666,2023-10-27 12:20:14.77,250,-176,-2050,-60,-31,278,-370,-10,-360,190
,667,2023-10-27 12:20:14.78,238,-159,-2057,-61,-28,278,-468,97,-565,185
,668,2023-10-27 12:20:14.79,239,-172,-2046,-56,-39,277,-365,-10,-355,187
,669,2023-10-27 12:20:14.80,241,-169,-2040,-47,-31,288,-473,94,-567,189
,670,2023-10-27 12:20:14.81,233,-169,-2048,-44,-45,275,-369,-19,-350,194
,671,2023-10-27 12:20:14.82,227,-174,-2049,-38,-61,280,-482,90,-572,196
,672,2023-10-27 12:20:14.83,228,-175,-2041,-33,-45,282,-363,-7,-356,185
,673,2023-10-27 12:20:14.84,233,-165,-2044,-35,-40,278,-471,104,-575,183
,674,2023-10-27 12:20:14.85,229,-153,-2035,-34,-61,262,-351,5,-356,173
,675,2023-10-27 12:20:14.86,232,-154,-2041,-30,-55,261,-476,107,-583,184
,676,2023-10-27 12:20:14.87,226,-146,-2044,-32,-38,248,-358,4,-362,177
,677,2023-10-27 12:20:14.88,208,-159,-2036,-36,-54,238,-489,98,-587,195
,678,2023-10-27 12:20:14.89,209,-149,-2052,-34,-33,231,-358,-5,-353,181
,679,2023-10-27 12:20:14.90,208,-149,-2038,-41,-47,210,-481,94,-575,193
,680,2023-10-27 12:20:14.91,211,-141,-2031,-42,-51,195,-348,0,-348,174
,681,2023-10-27 12:20:14.92,224,-145,-2032,-39,-40,191,-485,94,-579,195
,682,2023-10-27 12:20:14.93,219,-145,-2039,-40,-50,169,-350,2,-352,174
,683,2023-10-27 12:20:14.94,209,-132,-2038,-36,-57,162,-486,95,-581,195
,684,2023-10-27 12:20:14.95,203,-133,-2040,-36,-31,147,-348,8,-356,170
,685,2023-10-27 12:20:14.96,209,-136,-2049,-35,-52,124,-496,95,-591,200
,686,2023-10-27 12:20:14.97,220,-129,-2052,-26,-45,117,-350,6,-356,172
,687,2023-10-27 12:20:14.98,200,-124,-2053,-17,-46,99,-493,88,-581,202
,688,2023-10-27 12:20:14.99,206,-116,-2047,-14,-57,65,-341,7,-348,167
,689,2023-10-27 12:20:15.00,215,-119,-2044,-11,-60,43,-491,86,-577,202
,690,2023-10-27 12:20:15.01,211,-120,-2038,-2,-42,37,-342,11,-353,165
,691,2023-10-27 12:20:15.02,202,-123,-2045,2,-50,-1,-500,77,-577,211
,692,2023-10-27 12:20:15.03,211,-124,-2028,13,-58,-16,-342,9,-351,166
,693,2023-10-27 12:20:15.04,195,-135,-2025,19,-28,-32,-495,80,-575,207
,694,2023-10-27 12:20:15.05,191,-135,-2019,19,-21,-55,-333,18,-351,157
,695,2023-10-27 12:20:15.06,189,-141,-2030,26,-15,-58,-497,79,-576,209
,696,2023-10-27 12:20:15.07,185,-154,-2040,30,-15,-79,-333,16,-349,158
,697,2023-10-27 12:20:15.08,188,-145,-2047,34,-34,-89,-494,78,-572,208
,698,2023-10-27 12:20:15.09,199,-149,-2045,37,-27,-91,-329,25,-354,152
,699,2023-10-27 12:20:15.10,204,-152,-2048,41,-19,-103,-494,90,-584,202
,700,2023-10-27 12:20:15.11,199,-147,-2045,42,-19,-102,-334,33,-367,150
,701,2023-10-27 12:20:15.12,203,-153,-2042,41,5,-108,-502,77,-579,212
,702,2023-10-27 12:20:15.13,198,-157,-2037,39,-2,-112,-342,16,-358,163
,703,2023-10-27 12:20:15.14,199,-154,-2032,36,19,-112,-505,71,-576,217
,704,2023-10-27 12:20:15.15,196,-163,-2034,31,9,-120,-332,33,-365,149
,705,2023-10-27 12:20:15.16,200,-163,-2038,28,-1,-119,-499,85,-584,207
,706,2023-10-27 12:20:15.17,211,-165,-2039,24,19,-111,-327,43,-370,142
,707,2023-10-27 12:20:15.18,202,-165,-2040,18,9,-115,-502,80,-582,211
,708,2023-10-27 12:20:15.19,206,-165,-2040,14,5,-103,-330,40,-370,145
,709,2023-10-27 12:20:15.20,198,-167,-2040,11,22,-100,-503,71,-574,216
,710,2023-10-27 12:20:15.21,211,-173,-2041,6,6,-96,-322,42,-364,140
,711,2023-10-27 12:20:15.22,209,-174,-2042,6,14,-80,-496,66,-562,215
,712,2023-10-27 12:20:15.23,214,-181,-2056,7,17,-71,-322,43,-365,139
,713,2023-10-27 12:20:15.24,199,-179,-2058,5,-9,-73,-504,64,-568,220
,714,2023-10-27 12:20:15.25,199,-168,-2060,2,-10,-61,-325,49,-374,138
,715,2023-10-27 12:20:15.26,211,-165,-2056,3,13,-47,-505,64,-569,220
,716,2023-10-27 12:20:15.27,203,-164,-2060,-3,-17,-42,-326,52,-378,137
,717,2023-10-27 12:20:15.28,211,-162,-2055,-7,-13,-29,-506,64,-570,221
,718,2023-10-27 12:20:15.29,197,-160,-2058,-11,-15,-32,-323,58,-381,132
,719,2023-10-27 12:20:15.30,194,-157,-2047,-17,-24,-30,-502,62,-564,220
,720,2023-10-27 12:20:15.31,205,-157,-2048,-17,-25,-16,-321,55,-376,133
,721,2023-10-27 12:20:15.32,201,-168,-2049,-22,-29,-12,-506,66,-572,220
,722,2023-10-27 12:20:15.33,194,-162,-2048,-22,-55,-13,-325,68,-393,128
,723,2023-10-27 12:20:15.34,197,-151,-2041,-21,-38,1,-508,65,-573,221
,724,2023-10-27 12:20:15.35,189,-157,-2061,-24,-49,1,-323,69,-392,127
,725,2023-10-27 12:20:15.36,180,-153,-2061,-28,-69,11,-505,60,-565,222
,726,2023-10-27 12:20:15.37,198,-149,-2052,-25,-65,17,-325,68,-393,128
,727,2023-10-27 12:20:15.38,190,-146,-2053,-28,-74,14,-508,63,-571,222
,728,2023-10-27 12:20:15.39,180,-141,-2051,-36,-69,15,-322,78,-400,122
,729,2023-10-27 12:20:15.40,174,-138,-2046,-39,-47,22,-502,60,-562,221
,730,2023-10-27 12:20:15.41,186,-150,-2055,-38,-66,16,-322,69,-391,126
,731,2023-10-27 12:20:15.42,185,-143,-2058,-34,-51,26,-505,49,-554,228
,732,2023-10-27 12:20:15.43,175,-152,-2045,-34,-59,18,-327,73,-400,127
,733,2023-10-27 12:20:15.44,169,-151,-2049,-32,-72,17,-512,61,-573,225
,734,2023-10-27 12:20:15.45,176,-149,-2044,-27,-54,26,-326,88,-414,119
,735,2023-10-27 12:20:15.46,167,-151,-2036,-26,-58,14,-502,57,-559,222
,736,2023-10-27 12:20:15.47,163,-146,-2050,-24,-43,24,-321,85,-406,118
,737,2023-10-27 12:20:15.48,174,-142,-2044,-22,-30,22,-504,56,-560,224
,738,2023-10-27 12:20:15.49,174,-134,-2042,-22,-34,17,-332,93,-425,119
,739,2023-10-27 12:20:15.50,169,-131,-2042,-22,-14,19,-507,63,-570,222
,740,2023-10-27 12:20:15.51,167,-133,-2049,-27,-28,8,-319,105,-424,107
,741,2023-10-27 12:20:15.52,165,-131,-2042,-25,-31,13,-501,65,-566,218
,742,2023-10-27 12:20:15.53,162,-134,-2044,-24,-31,6,-326,98,-424,114
,743,2023-10-27 12:20:15.54,173,-139,-2042,-19,-34,10,-508,40,-548,234
,744,2023-10-27 12:20:15.55,178,-140,-2044,-14,-31,1,-339,90,-429,124
,745,2023-10-27 12:20:15.56,169,-144,-2040,-10,-27,4,-512,43,-555,234
,746,2023-10-27 12:20:15.57,174,-136,-2046,-2,-31,-4,-336,96,-432,120
,747,2023-10-27 12:20:15.58,163,-144,-2042,1,-32,-2,-502,42,-544,230
,748,2023-10-27 12:20:15.59,173,-140,-2045,8,-35,-8,-337,100,-437,118
,749,2023-10-27 12:20:15.60,168,-140,-2057,14,-21,-9,-508,50,-558,229
,750,2023-10-27 12:20:15.61,172,-144,-2055,12,-42,-15,-341,108,-449,116
,751,2023-10-27 12:20:15.62,173,-134,-2046,18,-31,-9,-502,47,-549,227
,752,2023-10-27 12:20:15.63,178,-138,-2059,21,-30,-20,-331,108,-439,111
,753,2023-10-27 12:20:15.64,165,-140,-2044,19,-39,-19,-490,47,-537,221
,754,2023-10-27 12:20:15.65,161,-149,-2038,22,-23,-21,-335,114,-449,110
,755,2023-10-27 12:20:15.66,155,-154,-2052,24,-13,-21,-500,49,-549,225
,756,2023-10-27 12:20:15.67,161,-154,-2050,26,-31,-26,-346,116,-462,115
,757,2023-10-27 12:20:15.68,147,-145,-2048,31,-18,-21,-501,41,-542,230
,758,2023-10-27 12:20:15.69,162,-143,-2048,23,-32,-34,-347,110,-457,118
,759,2023-10-27 12:20:15.70,147,-145,-2041,21,-24,-29,-496,39,-535,228
,760,2023-10-27 12:20:15.71,148,-160,-2046,15,-27,-40,-341,117,-458,112
,761,2023-10-27 12:20:15.72,152,-160,-2050,11,-34,-35,-485,44,-529,220
,762,2023-10-27 12:20:15.73,144,-155,-2054,11,-33,-32,-344,121,-465,111
,763,2023-10-27 12:20:15.74,148,-156,-2049,5,-33,-36,-489,36,-525,226
,764,2023-10-27 12:20:15.75,160,-154,-2049,3,-32,-37,-348,109,-457,119
,765,2023-10-27 12:20:15.76,160,-144,-2043,-3,-6,-29,-485,23,-508,231
,766,2023-10-27 12:20:15.77,157,-138,-2039,-7,-16,-43,-352,115,-467,118
,767,2023-10-27 12:20:15.78,146,-148,-2030,-7,-5,-35,-482,35,-517,223
,768,2023-10-27 12:20:15.79,164,-151,-2037,-10,-4,-45,-326,127,-453,99
,769,2023-10-27 12:20:15.80,151,-148,-2053,-14,-16,-55,-443,36,-479,203
,770,2023-10-27 12:20:15.81,163,-144,-2045,-11,-5,-43,-318,136,-454,91
,771,2023-10-27 12:20:15.82,169,-142,-2051,-14,-2,-49,-452,56,-508,198
,772,2023-10-27 12:20:15.83,157,-144,-2052,-16,-5,-44,-317,159,-476,79
,773,2023-10-27 12:20:15.84,151,-150,-2058,-18,-6,-44,-439,58,-497,190
,774,2023-10-27 12:20:15.85,158,-140,-2059,-21,-16,-51,-319,159,-478,80
,775,2023-10-27 12:20:15.86,158,-145,-2055,-19,-7,-41,-445,54,-499,195
,776,2023-10-27 12:20:15.87,157,-146,-2057,-20,-16,-46,-338,155,-493,91
,777,2023-10-27 12:20:15.88,161,-145,-2061,-19,-9,-35,-452,44,-496,204
,778,2023-10-27 12:20:15.89,152,-143,-2054,-23,-40,-45,-346,145,-491,100
,779,2023-10-27 12:20:15.90,152,-140,-2061,-17,-31,-29,-452,33,-485,209
,780,2023-10-27 12:20:15.91,151,-132,-2065,-14,-31,-32,-353,136,-489,108
,781,2023-10-27 12:20:15.92,158,-139,-2052,-12,-38,-19,-446,28,-474,209
,782,2023-10-27 12:20:15.93,154,-144,-2059,-15,-21,-19,-359,136,-495,111
,783,2023-10-27 12:20:15.94,141,-144,-2057,-17,-54,-30,-455,28,-483,213
,784,2023-10-27 12:20:15.95,142,-133,-2048,-14,-38,-17,-373,129,-502,122
,785,2023-10-27 12:20:15.96,151,-141,-2057,-16,-34,-17,-450,13,-463,218
,786,2023-10-27 12:20:15.97,140,-140,-2053,-19,-37,-11,-365,131,-496,117
,787,2023-10-27 12:20:15.98,138,-128,-2043,-19,-32,2,-450,8,-458,221
,788,2023-10-27 12:20:15.99,134,-131,-2032,-22,-36,-5,-368,138,-506,115
,789,2023-10-27 12:20:16.00,147,-130,-2042,-24,-18,9,-440,19,-459,210
,790,2023-10-27 12:20:16.01,149,-138,-2041,-23,-11,7,-370,135,-505,117
,791,2023-10-27 12:20:16.02,155,-136,-2040,-19,-8,8,-435,1,-436,217
,792,2023-10-27 12:20:16.03,152,-140,-2036,-18,1,18,-373,121,-494,126
,793,2023-10-27 12:20:16.04,152,-136,-2047,-20,3,17,-434,-4,-430,219
,794,2023-10-27 12:20:16.05,159,-132,-2047,-15,-10,15,-377,123,-500,127
,795,2023-10-27 12:20:16.06,145,-136,-2056,-8,22,31,-431,-6,-425,218
,796,2023-10-27 12:20:16.07,142,-131,-2048,-14,13,22,-379,130,-509,124
,797,2023-10-27 12:20:16.08,138,-137,-2047,-7,-3,31,-425,2,-427,211
,798,2023-10-27 12:20:16.09,161,-130,-2046,2,13,37,-387,128,-515,129
,799,2023-10-27 12:20:16.10,150,-134,-2049,4,12,38,-425,-8,-417,216
,800,2023-10-27 12:20:16.11,139,-131,-2049,6,2,41,-387,105,-492,141
,801,2023-10-27 12:20:16.12,159,-121,-2047,13,10,52,-421,-32,-389,226
,802,2023-10-27 12:20:16.13,158,-126,-2045,12,1,40,-411,102,-513,154
,803,2023-10-27 12:20:16.14,149,-131,-2048,14,-11,45,-424,-15,-409,219
,804,2023-10-27 12:20:16.15,154,-123,-2053,13,0,39,-367,115,-482,126
,805,2023-10-27 12:20:16.16,162,-121,-2060,12,-13,33,-371,-9,-362,190
,806,2023-10-27 12:20:16.17,146,-122,-2064,8,-1,34,-328,121,-449,103
,807,2023-10-27 12:20:16.18,136,-119,-2066,4,-22,29,-341,-4,-337,172
,808,2023-10-27 12:20:16.19,145,-121,-2053,5,-4,38,-342,124,-466,109
,809,2023-10-27 12:20:16.20,139,-113,-2056,3,-8,33,-368,-1,-367,184
,810,2023-10-27 12:20:16.21,149,-122,-2062,-3,-22,25,-377,128,-505,124
,811,2023-10-27 12:20:16.22,140,-117,-2058,-5,-19,30,-381,0,-381,190
,812,2023-10-27 12:20:16.23,138,-127,-2052,-5,-16,27,-390,129,-519,130
,813,2023-10-27 12:20:16.24,136,-129,-2051,-5,-20,31,-384,0,-384,192
,814,2023-10-27 12:20:16.25,142,-126,-2049,-10,-27,19,-392,120,-512,136
,815,2023-10-27 12:20:16.26,144,-119,-2046,-13,-39,24,-377,-12,-365,194
,816,2023-10-27 12:20:16.27,134,-127,-2052,-17,-23,27,-406,116,-522,145
,817,2023-10-27 12:20:16.28,140,-114,-2061,-19,-32,23,-390,-8,-382,199
,818,2023-10-27 12:20:16.29,141,-114,-2061,-23,-21,32,-418,122,-540,148
,819,2023-10-27 12:20:16.30,138,-113,-2052,-22,-13,34,-387,-8,-379,197
,820,2023-10-27 12:20:16.31,126,-112,-2061,-26,-35,32,-426,123,-549,151
,821,2023-10-27 12:20:16.32,127,-114,-2060,-22,-14,45,-386,0,-386,193
,822,2023-10-27 12:20:16.33,136,-109,-2056,-22,-34,39,-412,138,-550,137
,823,2023-10-27 12:20:16.34,133,-111,-2057,-19,-34,43,-373,0,-373,186
,824,2023-10-27 12:20:16.35,130,-118,-2046,-19,-25,53,-426,122,-548,152
,825,2023-10-27 12:20:16.36,142,-126,-2044,-13,-36,49,-387,-19,-368,203
,826,2023-10-27 12:20:16.37,124,-120,-2055,-7,-37,52,-440,121,-561,159
,827,2023-10-27 12:20:16.38,124,-117,-2043,-4,-27,53,-377,-6,-371,191
,828,2023-10-27 12:20:16.39,131,-114,-2046,-2,-21,65,-436,114,-550,161
,829,2023-10-27 12:20:16.40,123,-111,-2037,1,-6,62,-367,-7,-360,187
,830,2023-10-27 12:20:16.41,130,-118,-2047,4,-15,63,-445,114,-559,165
,831,2023-10-27 12:20:16.42,112,-115,-2062,6,-8,65,-373,-7,-366,190
,832,2023-10-27 12:20:16.43,131,-120,-2058,9,-18,64,-443,112,-555,165
,833,2023-10-27 12:20:16.44,138,-122,-2062,14,-19,60,-365,-7,-358,186
,834,2023-10-27 12:20:16.45,120,-104,-2059,15,-15,64,-446,108,-554,169
,835,2023-10-27 12:20:16.46,134,-112,-2054,15,-18,50,-361,-5,-356,183
,836,2023-10-27 12:20:16.47,135,-118,-2047,21,2,57,-436,113,-549,161
,837,2023-10-27 12:20:16.48,124,-116,-2032,22,-2,50,-348,-1,-347,174
,838,2023-10-27 12:20:16.49,124,-110,-2034,20,10,50,-446,112,-558,167
,839,2023-10-27 12:20:16.50,120,-124,-2044,19,6,46,-352,-4,-348,178
,840,2023-10-27 12:20:16.51,130,-117,-2047,12,1,41,-442,111,-553,165
,841,2023-10-27 12:20:16.52,129,-114,-2059,8,15,39,-343,4,-347,169
,842,2023-10-27 12:20:16.53,139,-107,-2059,-2,-5,29,-454,111,-565,171
,843,2023-10-27 12:20:16.54,120,-107,-2061,-5,11,37,-348,5,-353,171
,844,2023-10-27 12:20:16.55,125,-107,-2055,-12,-3,34,-448,108,-556,170
,845,2023-10-27 12:20:16.56,118,-120,-2058,-12,-3,32,-338,6,-344,166
,846,2023-10-27 12:20:16.57,118,-122,-2058,-15,-9,32,-454,107,-561,173
,847,2023-10-27 12:20:16.58,116,-113,-2058,-12,-8,34,-341,5,-346,168
,848,2023-10-27 12:20:16.59,122,-117,-2059,-10,-17,37,-458,98,-556,180
,849,2023-10-27 12:20:16.60,115,-107,-2065,-14,-23,31,-334,6,-340,164
,850,2023-10-27 12:20:16.61,112,-104,-2062,-16,-29,36,-457,101,-558,178
,851,2023-10-27 12:20:16.62,105,-100,-2057,-18,-32,33,-333,11,-344,161
,852,2023-10-27 12:20:16.63,100,-102,-2049,-21,-27,39,-460,103,-563,178
,853,2023-10-27 12:20:16.64,105,-99,-2057,-27,-32,38,-332,14,-346,159
,854,2023-10-27 12:20:16.65,107,-101,-2052,-26,-27,38,-467,94,-561,186
,855,2023-10-27 12:20:16.66,104,-99,-2044,-27,-35,41,-335,8,-343,163
,856,2023-10-27 12:20:16.67,109,-108,-2057,-21,-19,47,-466,92,-558,187
,857,2023-10-27 12:20:16.68,104,-109,-2053,-21,-12,48,-329,16,-345,156
,858,2023-10-27 12:20:16.69,111,-107,-2047,-15,-24,50,-474,96,-570,189
,859,2023-10-27 12:20:16.70,95,-105,-2053,-12,-20,49,-333,19,-352,157
,860,2023-10-27 12:20:16.71,101,-103,-2055,-11,-21,53,-478,84,-562,197
,861,2023-10-27 12:20:16.72,110,-105,-2048,-8,-16,52,-332,11,-343,160
,862,2023-10-27 12:20:16.73,106,-95,-2053,-8,-10,50,-484,83,-567,200
,863,2023-10-27 12:20:16.74,112,-93,-2051,-11,-1,46,-326,31,-357,147
,864,2023-10-27 12:20:16.75,115,-91,-2063,-7,4,40,-488,86,-574,201
,865,2023-10-27 12:20:16.76,116,-90,-2054,-8,5,36,-330,22,-352,154
,866,2023-10-27 12:20:16.77,107,-84,-2040,-3,12,30,-486,78,-564,204
,867,2023-10-27 12:20:16.78,114,-100,-2043,-4,16,27,-322,31,-353,145
,868,2023-10-27 12:20:16.79,124,-90,-2041,0,17,23,-472,89,-561,191
,869,2023-10-27 12:20:16.80,123,-90,-2037,7,19,19,-317,34,-351,141
,870,2023-10-27 12:20:16.81,122,-101,-2039,10,24,15,-479,92,-571,193
,871,2023-10-27 12:20:16.82,128,-95,-2036,15,31,11,-317,46,-363,135
,872,2023-10-27 12:20:16.83,131,-107,-2051,24,38,3,-483,100,-583,191
,873,2023-10-27 12:20:16.84,125,-101,-2051,32,43,4,-312,56,-368,128
,874,2023-10-27 12:20:16.85,122,-110,-2058,35,47,1,-474,100,-574,187
,875,2023-10-27 12:20:16.86,134,-106,-2053,40,53,0,-307,60,-367,123
,876,2023-10-27 12:20:16.87,140,-113,-2055,42,55,0,-482,96,-578,193
,877,2023-10-27 12:20:16.88,138,-115,-2040,47,61,3,-309,58,-367,125
,878,2023-10-27 12:20:16.89,143,-113,-2043,48,66,-4,-479,89,-568,195
,879,2023-10-27 12:20:16.90,149,-115,-2042,47,69,-3,-298,62,-360,118
,880,2023-10-27 12:20:16.91,144,-112,-2048,44,69,-6,-470,88,-558,191
,881,2023-10-27 12:20:16.92,130,-108,-2050,44,68,-7,-298,56,-354,121
,882,2023-10-27 12:20:16.93,144,-110,-2052,46,64,-10,-478,79,-557,199
,883,2023-10-27 12:20:16.94,147,-111,-2057,42,58,-11,-307,55,-362,126
,884,2023-10-27 12:20:16.95,147,-112,-2055,43,50,-13,-487,85,-572,201
,885,2023-10-27 12:20:16.96,162,-119,-2060,43,46,-14,-311,65,-376,123
,886,2023-10-27 12:20:16.97,152,-117,-2051,42,39,-15,-488,84,-572,202
,887,2023-10-27 12:20:16.98,150,-120,-2052,43,36,-16,-303,68,-371,117
,888,2023-10-27 12:20:16.99,144,-120,-2058,37,37,-15,-483,80,-563,201
,889,2023-10-27 12:20:17.00,153,-117,-2049,39,34,-16,-304,64,-368,120
,890,2023-10-27 12:20:17.01,149,-131,-2051,36,36,-17,-486,68,-554,209
,891,2023-10-27 12:20:17.02,139,-125,-2045,36,36,-16,-302,72,-374,115
,892,2023-10-27 12:20:17.03,159,-129,-2038,33,40,-16,-484,82,-566,201
,893,2023-10-27 12:20:17.04,150,-130,-2053,29,43,-14,-308,77,-385,115
,894,2023-10-27 12:20:17.05,148,-122,-2049,27,37,-13,-490,81,-571,204
,895,2023-10-27 12:20:17.06,152,-131,-2061,29,31,-14,-305,79,-384,113
,896,2023-10-27 12:20:17.07,144,-129,-2064,27,27,-11,-484,75,-559,204
,897,2023-10-27 12:20:17.08,154,-124,-2060,25,22,-12,-300,79,-379,110
,898,2023-10-27 12:20:17.09,143,-123,-2067,23,18,-9,-486,78,-564,204
,899,2023-10-27 12:20:17.10,147,-115,-2057,22,17,-12,-306,86,-392,110
,900,2023-10-27 12:20:17.11,148,-114,-2052,15,21,-13,-490,68,-558,211
,901,2023-10-27 12:20:17.12,155,-119,-2049,9,23,-15,-307,89,-396,109
,902,2023-10-27 12:20:17.13,152,-125,-2042,11,19,-14,-492,76,-568,208
,903,2023-10-27 12:20:17.14,149,-130,-2043,12,17,-14,-309,91,-400,109
,904,2023-10-27 12:20:17.15,142,-131,-2046,11,14,-8,-475,79,-554,198
,905,2023-10-27 12:20:17.16,144,-132,-2047,14,13,-6,-304,96,-400,104
,906,2023-10-27 12:20:17.17,157,-131,-2048,13,8,-2,-491,76,-567,207
,907,2023-10-27 12:20:17.18,146,-131,-2051,14,4,-2,-317,92,-409,112
,908,2023-10-27 12:20:17.19,143,-125,-2059,11,8,1,-490,79,-569,205
,909,2023-10-27 12:20:17.20,150,-121,-2067,12,8,5,-313,103,-416,105
,910,2023-10-27 12:20:17.21,150,-126,-2057,10,6,9,-490,70,-560,210
,911,2023-10-27 12:20:17.22,147,-121,-2054,9,2,14,-312,105,-417,103
,912,2023-10-27 12:20:17.23,151,-122,-2057,8,-3,17,-492,68,-560,212
,913,2023-10-27 12:20:17.24,148,-120,-2048,7,-4,19,-321,95,-416,113
,914,2023-10-27 12:20:17.25,160,-122,-2051,4,-6,22,-482,69,-551,206
,915,2023-10-27 12:20:17.26,159,-115,-2056,6,-10,25,-312,114,-426,99
,916,2023-10-27 12:20:17.27,144,-123,-2056,7,-14,26,-489,63,-552,213
,917,2023-10-27 12:20:17.28,159,-122,-2050,8,-15,26,-319,100,-419,109
,918,2023-10-27 12:20:17.29,145,-117,-2053,9,-13,28,-493,48,-541,222
,919,2023-10-27 12:20:17.30,146,-114,-2047,10,-13,25,-327,93,-420,117
,920,2023-10-27 12:20:17.31,140,-121,-2046,13,-14,26,-491,52,-543,219
,921,2023-10-27 12:20:17.32,150,-118,-2051,9,-13,25,-324,109,-433,107
,922,2023-10-27 12:20:17.33,149,-114,-2032,12,-12,25,-491,52,-543,219
,923,2023-10-27 12:20:17.34,142,-126,-2045,11,-9,22,-325,115,-440,105
,924,2023-10-27 12:20:17.35,136,-119,-2055,11,-14,23,-487,57,-544,215
,925,2023-10-27 12:20:17.36,145,-110,-2046,16,-17,22,-324,113,-437,105
,926,2023-10-27 12:20:17.37,156,-114,-2044,18,-17,20,-478,50,-528,214
,927,2023-10-27 12:20:17.38,145,-115,-2053,14,-11,16,-326,115,-441,105
,928,2023-10-27 12:20:17.39,138,-117,-2058,12,-10,15,-487,45,-532,221
,929,2023-10-27 12:20:17.40,147,-119,-2056,20,-13,9,-324,113,-437,105
,930,2023-10-27 12:20:17.41,148,-118,-2052,25,-15,8,-473,40,-513,216
,931,2023-10-27 12:20:17.42,146,-128,-2053,25,-18,8,-326,105,-431,110
,932,2023-10-27 12:20:17.43,139,-128,-2053,28,-13,7,-473,30,-503,221
,933,2023-10-27 12:20:17.44,131,-125,-2044,34,-14,8,-329,114,-443,107
,934,2023-10-27 12:20:17.45,149,-135,-2044,35,-15,8,-475,37,-512,219
,935,2023-10-27 12:20:17.46,141,-128,-2048,32,-10,9,-334,117,-451,108
,936,2023-10-27 12:20:17.47,133,-132,-2046,31,-8,10,-476,39,-515,218
,937,2023-10-27 12:20:17.48,130,-140,-2049,32,-6,12,-332,116,-448,108
,938,2023-10-27 12:20:17.49,140,-139,-2049,32,-7,13,-461,28,-489,216
,939,2023-10-27 12:20:17.50,129,-141,-2051,29,-8,17,-336,117,-453,109
,940,2023-10-27 12:20:17.51,144,-143,-2045,26,-6,21,-474,26,-500,224
,941,2023-10-27 12:20:17.52,147,-135,-2059,25,-5,23,-346,113,-459,116
,942,2023-10-27 12:20:17.53,132,-137,-2049,25,-6,26,-469,25,-494,222
,943,2023-10-27 12:20:17.54,132,-138,-2043,23,-7,22,-348,117,-465,115
,944,2023-10-27 12:20:17.55,144,-128,-2045,17,-3,26,-463,29,-492,217
,945,2023-10-27 12:20:17.56,140,-132,-2045,15,-1,23,-339,136,-475,101
,946,2023-10-27 12:20:17.57,141,-130,-2049,15,-2,24,-462,19,-481,221
,947,2023-10-27 12:20:17.58,143,-130,-2049,9,-4,23,-345,115,-460,115
,948,2023-10-27 12:20:17.59,151,-131,-2054,6,-6,21,-458,5,-463,226
,949,2023-10-27 12:20:17.60,127,-130,-2052,5,-8,20,-345,113,-458,116
,950,2023-10-27 12:20:17.61,137,-125,-2050,1,-10,18,-448,14,-462,217
,951,2023-10-27 12:20:17.62,127,-125,-2057,-3,-10,17,-356,119,-475,118
,952,2023-10-27 12:20:17.63,141,-128,-2057,-6,-10,19,-456,10,-466,223
,953,2023-10-27 12:20:17.64,130,-124,-2054,-6,-14,16,-360,118,-478,121
,954,2023-10-27 12:20:17.65,137,-128,-2054,-9,-15,17,-460,2,-462,229
,955,2023-10-27 12:20:17.66,141,-129,-2045,-9,-14,14,-361,123,-484,119
,956,2023-10-27 12:20:17.67,139,-123,-2044,-11,-11,16,-440,14,-454,213
,957,2023-10-27 12:20:17.68,136,-125,-2036,-12,-11,12,-350,130,-480,110
,958,2023-10-27 12:20:17.69,134,-128,-2048,-6,-8,13,-428,16,-444,206
,959,2023-10-27 12:20:17.70,137,-130,-2050,-8,-9,13,-354,123,-477,115
,960,2023-10-27 12:20:17.71,128,-133,-2051,-4,-11,14,-431,10,-441,210
,961,2023-10-27 12:20:17.72,140,-128,-2057,1,-8,15,-368,122,-490,123
,962,2023-10-27 12:20:17.73,146,-121,-2055,2,-5,15,-435,3,-438,216
,963,2023-10-27 12:20:17.74,142,-125,-2052,2,-3,11,-367,120,-487,123
,964,2023-10-27 12:20:17.75,132,-119,-2055,3,0,7,-427,-5,-422,216
,965,2023-10-27 12:20:17.76,141,-125,-2046,4,-3,10,-375,113,-488,131
,966,2023-10-27 12:20:17.77,130,-124,-2043,5,-5,7,-432,1,-433,215
,967,2023-10-27 12:20:17.78,132,-128,-2044,6,-5,8,-384,119,-503,132
,968,2023-10-27 12:20:17.79,136,-121,-2039,5,-8,8,-425,-6,-419,215
,969,2023-10-27 12:20:17.80,124,-115,-2054,2,-11,9,-378,117,-495,130
,970,2023-10-27 12:20:17.81,121,-115,-2047,1,-14,8,-416,-8,-408,212
,971,2023-10-27 12:20:17.82,120,-121,-2050,-1,-12,8,-379,115,-494,132
,972,2023-10-27 12:20:17.83,121,-124,-2053,-3,-12,12,-414,0,-414,207
,973,2023-10-27 12:20:17.84,125,-121,-2057,-4,-17,11,-391,123,-514,134
,974,2023-10-27 12:20:17.85,131,-123,-2056,-3,-19,15,-414,-4,-410,209
,975,2023-10-27 12:20:17.86,117,-126,-2051,-3,-22,16,-390,122,-512,134
,976,2023-10-27 12:20:17.87,115,-121,-2062,-6,-20,19,-409,-5,-404,207
,977,2023-10-27 12:20:17.88,124,-126,-2050,-4,-21,18,-389,120,-509,134
,978,2023-10-27 12:20:17.89,121,-123,-2051,-3,-20,20,-394,1,-395,196
,979,2023-10-27 12:20:17.90,124,-117,-2053,-4,-18,21,-374,127,-501,123
,980,2023-10-27 12:20:17.91,112,-125,-2052,-3,-16,20,-379,4,-383,187
,981,2023-10-27 12:20:17.92,114,-124,-2051,-6,-13,20,-375,130,-505,122
,982,2023-10-27 12:20:17.93,131,-118,-2048,-3,-13,21,-380,-2,-378,191
,983,2023-10-27 12:20:17.94,124,-114,-2054,-2,-10,24,-383,125,-508,129
,984,2023-10-27 12:20:17.95,133,-111,-2055,-4,-11,20,-373,8,-381,182
,985,2023-10-27 12:20:17.96,122,-106,-2049,-5,-11,20,-381,132,-513,124
,986,2023-10-27 12:20:17.97,113,-118,-2050,-3,-11,17,-362,15,-377,173
,987,2023-10-27 12:20:17.98,117,-111,-2056,-4,-12,17,-381,131,-512,125
,988,2023-10-27 12:20:17.99,127,-115,-2041,1,-17,15,-359,2,-361,178
,989,2023-10-27 12:20:18.00,116,-120,-2036,8,-15,13,-361,120,-481,120
,990,2023-10-27 12:20:18.01,121,-117,-2049,7,-8,13,-322,16,-338,153
,991,2023-10-27 12:20:18.02,119,-121,-2051,9,-7,8,-348,140,-488,104
,992,2023-10-27 12:20:18.03,126,-123,-2058,14,-8,7,-324,12,-336,156
,993,2023-10-27 12:20:18.04,114,-122,-2059,21,-4,9,-324,140,-464,92
,994,2023-10-27 12:20:18.05,115,-129,-2056,21,-4,9,-285,16,-301,134
,995,2023-10-27 12:20:18.06,132,-123,-2055,25,-3,10,-335,144,-479,95
,996,2023-10-27 12:20:18.07,117,-129,-2047,31,-3,13,-307,31,-338,138
,997,2023-10-27 12:20:18.08,122,-120,-2037,32,-1,15,-341,149,-490,96
,998,2023-10-27 12:20:18.09,119,-125,-2046,29,1,14,-294,24,-318,135
,999,2023-10-27 12:20:18.10,126,-130,-2044,28,8,19,-350,143,-493,103
,1000,2023-10-27 12:20:18.11,120,-124,-2040,26,17,19,-306,24,-330,141
,1001,2023-10-27 12:20:18.12,116,-128,-2044,25,16,18,-360,141,-501,109
,1002,2023-10-27 12:20:18.13,129,-130,-2047,22,19,19,-301,27,-328,137
,1003,2023-10-27 12:20:18.14,133,-132,-2058,21,20,19,-366,138,-504,114
,1004,2023-10-27 12:20:18.15,124,-131,-2052,18,19,20,-294,19,-313,137
,1005,2023-10-27 12:20:18.16,122,-125,-2051,16,20,20,-347,135,-482,106
,1006,2023-10-27 12:20:18.17,135,-120,-2058,14,17,21,-271,28,-299,121
,1007,2023-10-27 12:20:18.18,128,-123,-2047,15,17,24,-316,142,-458,87
,1008,2023-10-27 12:20:18.19,117,-127,-2055,17,17,21,-233,31,-264,101
,1009,2023-10-27 12:20:18.20,129,-125,-2052,16,15,20,-341,141,-482,100
,1010,2023-10-27 12:20:18.21,129,-124,-2057,13,9,20,-283,28,-311,127
,1011,2023-10-27 12:20:18.22,129,-127,-2058,16,2,19,-372,138,-510,117
,1012,2023-10-27 12:20:18.23,137,-120,-2058,15,0,18,-284,39,-323,122
,1013,2023-10-27 12:20:18.24,122,-120,-2052,14,-6,18,-370,135,-505,117
,1014,2023-10-27 12:20:18.25,121,-124,-2050,14,-8,20,-276,27,-303,124
,1015,2023-10-27 12:20:18.26,128,-129,-2059,14,-11,20,-384,136,-520,124
,1016,2023-10-27 12:20:18.27,127,-134,-2056,15,-16,21,-295,38,-333,128
,1017,2023-10-27 12:20:18.28,126,-135,-2059,16,-17,24,-399,142,-541,128
,1018,2023-10-27 12:20:18.29,124,-138,-2049,17,-19,25,-288,50,-338,119
,1019,2023-10-27 12:20:18.30,124,-137,-2046,16,-15,28,-391,136,-527,127
,1020,2023-10-27 12:20:18.31,121,-133,-2041,14,-12,31,-279,41,-320,119
,1021,2023-10-27 12:20:18.32,111,-131,-2036,15,-11,30,-402,127,-529,137
,1022,2023-10-27 12:20:18.33,120,-138,-2049,15,-8,34,-291,33,-324,129
,1023,2023-10-27 12:20:18.34,113,-139,-2055,14,-7,34,-409,124,-533,142
,1024,2023-10-27 12:20:18.35,113,-130,-2053,13,-9,35,-287,47,-334,120
,1025,2023-10-27 12:20:18.36,123,-128,-2057,12,-5,34,-410,125,-535,142
,1026,2023-10-27 12:20:18.37,134,-126,-2055,10,-1,35,-281,40,-321,120
,1027,2023-10-27 12:20:18.38,120,-121,-2064,6,2,30,-392,137,-529,127
,1028,2023-10-27 12:20:18.39,124,-119,-2046,4,7,29,-269,51,-320,109
,1029,2023-10-27 12:20:18.40,120,-122,-2050,2,7,28,-404,129,-533,137
,1030,2023-10-27 12:20:18.41,110,-126,-2044,-1,4,26,-274,49,-323,112
,1031,2023-10-27 12:20:18.42,111,-125,-2054,-4,1,25,-404,128,-532,138
,1032,2023-10-27 12:20:18.43,118,-121,-2044,-3,-1,25,-265,53,-318,106
,1033,2023-10-27 12:20:18.44,122,-123,-2054,-5,-1,22,-403,110,-513,146
,1034,2023-10-27 12:20:18.45,121,-125,-2048,-7,-1,20,-259,53,-312,103
,1035,2023-10-27 12:20:18.46,127,-121,-2053,-6,-1,19,-405,120,-525,142
,1036,2023-10-27 12:20:18.47,119,-118,-2053,-8,-1,16,-259,60,-319,99
,1037,2023-10-27 12:20:18.48,124,-128,-2050,-7,0,18,-401,125,-526,138
,1038,2023-10-27 12:20:18.49,121,-124,-2054,-3,0,21,-262,64,-326,99
,1039,2023-10-27 12:20:18.50,121,-125,-2057,-5,-3,20,-421,113,-534,154
,1040,2023-10-27 12:20:18.51,114,-118,-2053,-1,1,23,-276,60,-336,108
,1041,2023-10-27 12:20:18.52,123,-119,-2047,-3,0,23,-439,104,-543,167
,1042,2023-10-27 12:20:18.53,120,-118,-2049,0,-1,24,-284,57,-341,113
,1043,2023-10-27 12:20:18.54,123,-118,-2041,0,0,26,-452,113,-565,169
,1044,2023-10-27 12:20:18.55,117,-126,-2041,3,4,24,-295,69,-364,113
,1045,2023-10-27 12:20:18.56,112,-122,-2052,2,7,25,-453,113,-566,170
,1046,2023-10-27 12:20:18.57,119,-116,-2057,3,5,22,-290,71,-361,109
,1047,2023-10-27 12:20:18.58,121,-116,-2053,6,9,21,-462,104,-566,179
,1048,2023-10-27 12:20:18.59,121,-113,-2051,7,3,20,-290,66,-356,112
,1049,2023-10-27 12:20:18.60,120,-109,-2042,9,3,20,-455,98,-553,178
,1050,2023-10-27 12:20:18.61,112,-125,-2050,7,6,19,-290,63,-353,113
,1051,2023-10-27 12:20:18.62,104,-118,-2052,10,2,16,-467,89,-556,189
,1052,2023-10-27 12:20:18.63,129,-121,-2042,15,-2,16,-290,67,-357,111
,1053,2023-10-27 12:20:18.64,122,-119,-2048,18,1,16,-459,90,-549,184
,1054,2023-10-27 12:20:18.65,115,-118,-2057,17,4,15,-285,66,-351,109
,1055,2023-10-27 12:20:18.66,122,-125,-2051,21,2,14,-454,84,-538,185
,1056,2023-10-27 12:20:18.67,138,-127,-2059,22,2,11,-280,70,-350,105
,1057,2023-10-27 12:20:18.68,122,-120,-2064,22,1,15,-454,82,-536,186
,1058,2023-10-27 12:20:18.69,114,-127,-2056,21,-3,16,-281,72,-353,104
,1059,2023-10-27 12:20:18.70,118,-127,-2057,22,-7,18,-463,88,-551,187
,1060,2023-10-27 12:20:18.71,122,-130,-2052,23,-5,20,-290,78,-368,106
,1061,2023-10-27 12:20:18.72,122,-129,-2041,24,-8,21,-470,86,-556,192
,1062,2023-10-27 12:20:18.73,124,-129,-2041,21,-6,21,-284,84,-368,100
,1063,2023-10-27 12:20:18.74,118,-123,-2043,16,-1,23,-463,86,-549,188
,1064,2023-10-27 12:20:18.75,122,-129,-2047,13,3,19,-286,84,-370,101
,1065,2023-10-27 12:20:18.76,110,-130,-2052,11,3,23,-467,82,-549,192
,1066,2023-10-27 12:20:18.77,116,-127,-2059,6,7,24,-295,80,-375,107
,1067,2023-10-27 12:20:18.78,121,-130,-2059,5,9,23,-478,71,-549,203
,1068,2023-10-27 12:20:18.79,107,-119,-2059,1,10,21,-286,90,-376,98
,1069,2023-10-27 12:20:18.80,121,-126,-2049,1,8,22,-478,71,-549,203
,1070,2023-10-27 12:20:18.81,113,-124,-2054,3,10,22,-297,85,-382,106
,1071,2023-10-27 12:20:18.82,128,-120,-2048,4,9,17,-481,69,-550,206
,1072,2023-10-27 12:20:18.83,131,-130,-2051,5,10,16,-300,90,-390,105
,1073,2023-10-27 12:20:18.84,119,-123,-2050,8,8,13,-483,67,-550,208
,1074,2023-10-27 12:20:18.85,115,-125,-2047,11,9,14,-305,76,-381,114
,1075,2023-10-27 12:20:18.86,130,-131,-2045,14,8,16,-482,66,-548,208
,1076,2023-10-27 12:20:18.87,122,-121,-2046,19,5,14,-302,85,-387,108
,1077,2023-10-27 12:20:18.88,120,-125,-2049,20,5,13,-476,58,-534,209
,1078,2023-10-27 12:20:18.89,115,-125,-2055,19,3,13,-303,88,-391,107
,1079,2023-10-27 12:20:18.90,124,-128,-2057,18,3,10,-486,59,-545,213
,1080,2023-10-27 12:20:18.91,124,-134,-2054,17,1,12,-310,88,-398,111
,1081,2023-10-27 12:20:18.92,127,-126,-2054,14,1,11,-487,55,-542,216
,1082,2023-10-27 12:20:18.93,130,-130,-2054,13,1,11,-311,86,-397,112
,1083,2023-10-27 12:20:18.94,113,-130,-2059,10,-2,10,-489,50,-539,219
,1084,2023-10-27 12:20:18.95,114,-123,-2050,8,-6,12,-310,96,-406,107
,1085,2023-10-27 12:20:18.96,121,-133,-2047,7,-5,9,-484,54,-538,215
,1086,2023-10-27 12:20:18.97,119,-120,-2042,7,-3,12,-308,98,-406,105
,1087,2023-10-27 12:20:18.98,119,-133,-2052,1,1,13,-477,59,-536,209
,1088,2023-10-27 12:20:18.99,114,-122,-2040,0,0,13,-312,100,-412,106
,1089,2023-10-27 12:20:19.00,129,-130,-2048,1,1,15,-486,50,-536,218
,1090,2023-10-27 12:20:19.01,114,-132,-2059,2,3,18,-303,105,-408,99
,1091,2023-10-27 12:20:19.02,125,-132,-2052,2,-2,16,-469,46,-515,211
,1092,2023-10-27 12:20:19.03,108,-121,-2061,1,-2,16,-308,97,-405,105
,1093,2023-10-27 12:20:19.04,124,-121,-2054,2,0,18,-481,38,-519,221
,1094,2023-10-27 12:20:19.05,123,-110,-2057,-6,4,16,-326,100,-426,113
,1095,2023-10-27 12:20:19.06,113,-119,-2059,-10,7,13,-489,37,-526,226
,1096,2023-10-27 12:20:19.07,114,-117,-2054,-9,7,14,-318,99,-417,109
,1097,2023-10-27 12:20:19.08,106,-115,-2046,-8,6,16,-479,36,-515,221
,1098,2023-10-27 12:20:19.09,113,-124,-2038,-7,-1,17,-317,101,-418,108
,1099,2023-10-27 12:20:19.10,112,-117,-2042,-5,-4,18,-473,31,-504,221
,1100,2023-10-27 12:20:19.11,114,-115,-2040,-2,-3,20,-321,99,-420,111
,1101,2023-10-27 12:20:19.12,113,-122,-2045,2,0,21,-476,20,-496,228
,1102,2023-10-27 12:20:19.13,120,-120,-2045,2,2,22,-323,98,-421,112
,1103,2023-10-27 12:20:19.14,119,-124,-2046,6,2,20,-476,28,-504,224
,1104,2023-10-27 12:20:19.15,115,-129,-2057,13,7,22,-327,106,-433,110
,1105,2023-10-27 12:20:19.16,119,-128,-2059,16,8,22,-468,30,-498,219
,1106,2023-10-27 12:20:19.17,133,-126,-2056,22,6,26,-325,117,-442,104
,1107,2023-10-27 12:20:19.18,124,-121,-2060,26,5,26,-472,29,-501,221
,1108,2023-10-27 12:20:19.19,120,-114,-2063,25,7,25,-335,108,-443,113
,1109,2023-10-27 12:20:19.20,127,-124,-2050,23,5,29,-464,29,-493,217
,1110,2023-10-27 12:20:19.21,123,-121,-2051,23,4,24,-333,103,-436,115
,1111,2023-10-27 12:20:19.22,119,-129,-2051,20,5,25,-465,1,-466,232
,1112,2023-10-27 12:20:19.23,118,-124,-2049,18,4,23,-332,93,-425,119
,1113,2023-10-27 12:20:19.24,111,-128,-2043,18,4,24,-462,3,-465,229
,1114,2023-10-27 12:20:19.25,116,-134,-2051,16,1,24,-340,105,-445,117
,1115,2023-10-27 12:20:19.26,120,-128,-2060,15,2,27,-461,15,-476,223
,1116,2023-10-27 12:20:19.27,123,-127,-2055,16,1,26,-343,113,-456,115
,1117,2023-10-27 12:20:19.28,118,-133,-2049,15,2,27,-460,11,-471,224
,1118,2023-10-27 12:20:19.29,116,-138,-2054,16,4,28,-343,120,-463,111
,1119,2023-10-27 12:20:19.30,130,-137,-2048,16,1,33,-454,-2,-452,228
,1120,2023-10-27 12:20:19.31,122,-138,-2040,21,1,31,-338,98,-436,120
,1121,2023-10-27 12:20:19.32,127,-135,-2046,21,4,31,-443,-20,-423,231
,1122,2023-10-27 12:20:19.33,110,-136,-2053,18,8,29,-345,90,-435,127
,1123,2023-10-27 12:20:19.34,115,-127,-2052,20,8,28,-442,-31,-411,236
,1124,2023-10-27 12:20:19.35,122,-133,-2057,20,6,30,-337,90,-427,123
,1125,2023-10-27 12:20:19.36,119,-129,-2050,18,4,28,-430,-46,-384,238
,1126,2023-10-27 12:20:19.37,124,-130,-2056,19,3,28,-335,68,-403,133
,1127,2023-10-27 12:20:19.38,116,-137,-2057,20,0,29,-420,-69,-351,244
,1128,2023-10-27 12:20:19.39,112,-135,-2056,17,-1,30,-335,54,-389,140
,1129,2023-10-27 12:20:19.40,112,-132,-2049,12,-5,29,-415,-95,-320,255
,1130,2023-10-27 12:20:19.41,119,-129,-2057,8,-2,30,-332,41,-373,145
,1131,2023-10-27 12:20:19.42,123,-132,-2040,6,2,26,-411,-97,-314,254
,1132,2023-10-27 12:20:19.43,109,-128,-2047,3,6,24,-339,52,-391,143
,1133,2023-10-27 12:20:19.44,123,-135,-2053,1,10,23,-410,-95,-315,252
,1134,2023-10-27 12:20:19.45,115,-130,-2044,0,13,22,-346,65,-411,140
,1135,2023-10-27 12:20:19.46,118,-131,-2048,-3,13,19,-415,-88,-327,251
,1136,2023-10-27 12:20:19.47,102,-130,-2058,-7,13,17,-347,69,-416,139
,1137,2023-10-27 12:20:19.48,122,-128,-2057,-7,12,16,-405,-88,-317,246
,1138,2023-10-27 12:20:19.49,111,-129,-2056,-7,9,16,-347,74,-421,136
,1139,2023-10-27 12:20:19.50,115,-123,-2053,-9,5,16,-398,-90,-308,244
,1140,2023-10-27 12:20:19.51,108,-126,-2047,-10,6,14,-354,87,-441,133
,1141,2023-10-27 12:20:19.52,115,-124,-2052,-10,5,11,-403,-80,-323,241
,1142,2023-10-27 12:20:19.53,121,-121,-2057,-11,5,12,-358,94,-452,132
,1143,2023-10-27 12:20:19.54,119,-123,-2051,-11,3,11,-394,-78,-316,236
,1144,2023-10-27 12:20:19.55,115,-124,-2053,-6,1,11,-361,94,-455,133
,1145,2023-10-27 12:20:19.56,120,-122,-2059,-6,3,14,-388,-77,-311,232
,1146,2023-10-27 12:20:19.57,119,-121,-2051,-3,3,13,-358,114,-472,122
,1147,2023-10-27 12:20:19.58,118,-122,-2043,0,5,15,-392,-57,-335,224
,1148,2023-10-27 12:20:19.59,106,-127,-2044,2,8,15,-370,135,-505,117
,1149,2023-10-27 12:20:19.60,115,-124,-2049,0,10,20,-387,-42,-345,214
,1150,2023-10-27 12:20:19.61,127,-126,-2053,1,9,18,-366,148,-514,109
,1151,2023-10-27 12:20:19.62,116,-118,-2052,3,11,20,-376,-39,-337,207
,1152,2023-10-27 12:20:19.63,107,-119,-2055,2,12,20,-374,153,-527,110
,1153,2023-10-27 12:20:19.64,135,-113,-2055,-3,10,19,-376,-34,-342,205
,1154,2023-10-27 12:20:19.65,123,-117,-2055,-5,10,17,-375,148,-523,113
,1155,2023-10-27 12:20:19.66,120,-116,-2056,-4,9,17,-367,-31,-336,199
,1156,2023-10-27 12:20:19.67,130,-112,-2056,-3,10,15,-378,142,-520,118
,1157,2023-10-27 12:20:19.68,114,-104,-2043,-3,13,12,-363,-45,-318,204
,1158,2023-10-27 12:20:19.69,123,-115,-2056,-8,15,10,-381,132,-513,124
,1159,2023-10-27 12:20:19.70,117,-115,-2042,-8,12,9,-366,-48,-318,207
,1160,2023-10-27 12:20:19.71,108,-125,-2046,-1,11,6,-394,129,-523,132
,1161,2023-10-27 12:20:19.72,119,-121,-2058,0,10,7,-364,-47,-317,205
,1162,2023-10-27 12:20:19.73,118,-118,-2057,0,6,5,-396,126,-522,135
,1163,2023-10-27 12:20:19.74,120,-117,-2054,5,8,7,-358,-56,-302,207
,1164,2023-10-27 12:20:19.75,122,-117,-2052,7,13,6,-399,113,-512,143
,1165,2023-10-27 12:20:19.76,117,-108,-2056,2,20,4,-355,-59,-296,207
,1166,2023-10-27 12:20:19.77,121,-114,-2059,2,26,3,-403,111,-514,146
,1167,2023-10-27 12:20:19.78,118,-114,-2052,3,29,5,-353,-62,-291,207
,1168,2023-10-27 12:20:19.79,135,-114,-2042,4,29,4,-403,105,-508,149
,1169,2023-10-27 12:20:19.80,115,-116,-2046,3,32,6,-349,-76,-273,212
,1170,2023-10-27 12:20:19.81,126,-119,-2045,5,29,4,-406,93,-499,156
,1171,2023-10-27 12:20:19.82,129,-121,-2049,6,27,7,-342,-67,-275,204
,1172,2023-10-27 12:20:19.83,129,-120,-2054,4,29,5,-411,99,-510,156
,1173,2023-10-27 12:20:19.84,132,-111,-2057,3,26,7,-335,-71,-264,203
,1174,2023-10-27 12:20:19.85,119,-111,-2063,6,24,9,-409,97,-506,156
,1175,2023-10-27 12:20:19.86,129,-119,-2055,8,19,11,-336,-69,-267,202
,1176,2023-10-27 12:20:19.87,136,-120,-2056,8,18,13,-416,97,-513,159
,1177,2023-10-27 12:20:19.88,125,-115,-2059,12,12,15,-329,-64,-265,196
,1178,2023-10-27 12:20:19.89,128,-121,-2056,13,9,15,-419,101,-520,159
,1179,2023-10-27 12:20:19.90,129,-120,-2056,16,8,18,-327,-64,-263,195
,1180,2023-10-27 12:20:19.91,128,-122,-2061,16,9,20,-420,94,-514,163
,1181,2023-10-27 12:20:19.92,136,-122,-2052,15,9,20,-328,-59,-269,193
,1182,2023-10-27 12:20:19.93,135,-123,-2057,14,9,23,-432,101,-533,165
,1183,2023-10-27 12:20:19.94,135,-120,-2054,16,9,25,-326,-49,-277,187
,1184,2023-10-27 12:20:19.95,133,-123,-2053,18,3,26,-431,108,-539,161
,1185,2023-10-27 12:20:19.96,133,-115,-2048,21,5,26,-323,-49,-274,186
,1186,2023-10-27 12:20:19.97,127,-118,-2056,19,5,28,-432,94,-526,169
,1187,2023-10-27 12:20:19.98,123,-119,-2051,19,4,27,-313,-48,-265,180
,1188,2023-10-27 12:20:19.99,131,-127,-2047,22,1,26,-436,88,-524,174
,1189,2023-10-27 12:20:20.00,130,-124,-2051,23,1,27,-315,-49,-266,182
,1190,2023-10-27 12:20:20.01,123,-123,-2047,24,-4,27,-438,84,-522,177
,1191,2023-10-27 12:20:20.02,143,-126,-2043,27,-3,25,-310,-38,-272,174
,1192,2023-10-27 12:20:20.03,146,-126,-2046,28,0,25,-446,70,-516,188
,1193,2023-10-27 12:20:20.04,135,-123,-2045,25,4,22,-310,-44,-266,177
,1194,2023-10-27 12:20:20.05,136,-127,-2059,24,4,22,-444,55,-499,194
,1195,2023-10-27 12:20:20.06,139,-122,-2056,25,3,19,-304,-50,-254,177
,1196,2023-10-27 12:20:20.07,125,-128,-2049,26,0,18,-449,64,-513,192
,1197,2023-10-27 12:20:20.08,124,-132,-2053,28,-2,22,-314,-39,-275,176
,1198,2023-10-27 12:20:20.09,128,-129,-2053,29,-4,22,-453,62,-515,195
,1199,2023-10-27 12:20:20.10,128,-134,-2057,25,-4,22,-301,-33,-268,167
,1200,2023-10-27 12:20:20.11,129,-129,-2056,22,-3,22,-453,57,-510,198
,1201,2023-10-27 12:20:20.12,123,-127,-2056,17,-3,22,-301,-35,-266,168
,1202,2023-10-27 12:20:20.13,126,-122,-2050,10,-2,21,-452,48,-500,202
,1203,2023-10-27 12:20:20.14,105,-120,-2042,4,-2,22,-300,-34,-266,167
,1204,2023-10-27 12:20:20.15,121,-124,-2045,-3,-2,20,-460,35,-495,212
,1205,2023-10-27 12:20:20.16,124,-126,-2048,-5,-2,21,-296,-42,-254,169
,1206,2023-10-27 12:20:20.17,127,-128,-2047,-5,1,21,-459,35,-494,212
,1207,2023-10-27 12:20:20.18,129,-125,-2045,-1,0,20,-294,-36,-258,165
,1208,2023-10-27 12:20:20.19,124,-131,-2048,1,3,21,-458,34,-492,212
,1209,2023-10-27 12:20:20.20,113,-127,-2049,8,3,21,-290,-26,-264,158
,1210,2023-10-27 12:20:20.21,120,-128,-2052,11,5,17,-463,34,-497,214
,1211,2023-10-27 12:20:20.22,122,-128,-2054,13,6,17,-292,-25,-267,158
,1212,2023-10-27 12:20:20.23,128,-126,-2050,15,9,16,-465,39,-504,213
,1213,2023-10-27 12:20:20.24,127,-132,-2049,14,7,14,-291,-16,-275,153
,1214,2023-10-27 12:20:20.25,117,-121,-2056,13,8,14,-462,39,-501,211
,1215,2023-10-27 12:20:20.26,122,-116,-2055,14,5,15,-286,-6,-280,146
,1216,2023-10-27 12:20:20.27,122,-123,-2050,10,3,13,-468,33,-501,217
,1217,2023-10-27 12:20:20.28,133,-125,-2056,9,5,11,-289,-12,-277,150
,1218,2023-10-27 12:20:20.29,132,-133,-2052,10,3,11,-468,32,-500,218
,1219,2023-10-27 12:20:20.30,114,-125,-2055,8,-3,12,-288,-11,-277,149
,1220,2023-10-27 12:20:20.31,128,-122,-2047,6,0,12,-469,26,-495,221
,1221,2023-10-27 12:20:20.32,121,-122,-2051,5,0,12,-286,0,-286,143
,1222,2023-10-27 12:20:20.33,129,-131,-2057,7,1,11,-472,30,-502,221
,1223,2023-10-27 12:20:20.34,118,-144,-2051,8,-1,14,-282,2,-284,140
,1224,2023-10-27 12:20:20.35,132,-120,-2044,10,-2,14,-473,33,-506,220
,1225,2023-10-27 12:20:20.36,124,-126,-2042,11,7,14,-288,8,-296,140
,1226,2023-10-27 12:20:20.37,116,-125,-2052,8,8,14,-475,21,-496,227
,1227,2023-10-27 12:20:20.38,123,-125,-2046,9,7,15,-284,3,-287,140
,1228,2023-10-27 12:20:20.39,121,-132,-2052,12,10,15,-477,16,-493,230
,1229,2023-10-27 12:20:20.40,119,-131,-2057,10,7,15,-282,5,-287,138
,1230,2023-10-27 12:20:20.41,117,-132,-2049,10,7,15,-478,29,-507,224
,1231,2023-10-27 12:20:20.42,133,-123,-2052,12,10,15,-287,20,-307,133
,1232,2023-10-27 12:20:20.43,124,-120,-2046,6,16,12,-473,37,-510,218
,1233,2023-10-27 12:20:20.44,127,-119,-2050,4,21,10,-284,24,-308,130
,1234,2023-10-27 12:20:20.45,120,-125,-2052,3,21,5,-483,21,-504,231
,1235,2023-10-27 12:20:20.46,105,-126,-2052,3,15,6,-284,25,-309,129
,1236,2023-10-27 12:20:20.47,127,-124,-2049,4,10,7,-482,21,-503,230
,1237,2023-10-27 12:20:20.48,135,-122,-2046,4,8,8,-290,26,-316,132
,1238,2023-10-27 12:20:20.49,115,-124,-2047,1,4,8,-486,16,-502,235
,1239,2023-10-27 12:20:20.50,123,-122,-2048,0,0,7,-288,32,-320,128
,1240,2023-10-27 12:20:20.51,125,-123,-2054,-1,1,9,-485,17,-502,234
,1241,2023-10-27 12:20:20.52,124,-126,-2059,-2,0,11,-286,44,-330,121
,1242,2023-10-27 12:20:20.53,134,-133,-2054,-3,3,14,-482,27,-509,227
,1243,2023-10-27 12:20:20.54,117,-125,-2059,-4,4,18,-292,43,-335,124
,1244,2023-10-27 12:20:20.55,119,-124,-2059,-7,1,20,-484,24,-508,230
,1245,2023-10-27 12:20:20.56,119,-127,-2058,-9,2,23,-292,46,-338,123
,1246,2023-10-27 12:20:20.57,119,-118,-2053,-10,4,23,-482,12,-494,235
,1247,2023-10-27 12:20:20.58,135,-112,-2048,-11,5,24,-286,41,-327,122
,1248,2023-10-27 12:20:20.59,116,-117,-2052,-8,5,22,-480,4,-484,238
,1249,2023-10-27 12:20:20.60,126,-115,-2056,-9,8,21,-292,40,-332,126
,1250,2023-10-27 12:20:20.61,129,-115,-2049,-8,5,19,-481,13,-494,234
,1251,2023-10-27 12:20:20.62,121,-117,-2051,-4,6,18,-294,51,-345,121
,1252,2023-10-27 12:20:20.63,118,-110,-2045,-3,4,16,-486,11,-497,237
,1253,2023-10-27 12:20:20.64,120,-110,-2052,-1,3,14,-294,58,-352,118
,1254,2023-10-27 12:20:20.65,131,-109,-2057,-1,2,13,-487,4,-491,241
,1255,2023-10-27 12:20:20.66,132,-113,-2039,4,2,13,-301,49,-350,126
,1256,2023-10-27 12:20:20.67,124,-125,-2050,5,7,12,-484,-1,-483,242
,1257,2023-10-27 12:20:20.68,119,-122,-2053,10,4,14,-301,50,-351,125
,1258,2023-10-27 12:20:20.69,137,-123,-2039,18,3,16,-483,2,-485,240
,1259,2023-10-27 12:20:20.70,127,-120,-2044,19,11,15,-298,70,-368,114
,1260,2023-10-27 12:20:20.71,131,-123,-2050,15,18,13,-484,13,-497,235
,1261,2023-10-27 12:20:20.72,128,-120,-2057,18,23,11,-307,74,-381,116
,1262,2023-10-27 12:20:20.73,119,-123,-2056,23,21,12,-482,12,-494,235
,1263,2023-10-27 12:20:20.74,129,-120,-2053,22,20,11,-306,66,-372,120
,1264,2023-10-27 12:20:20.75,133,-124,-2063,19,18,10,-480,-11,-469,245
,1265,2023-10-27 12:20:20.76,121,-115,-2055,24,17,10,-304,62,-366,121
,1266,2023-10-27 12:20:20.77,132,-127,-2053,23,13,10,-482,-5,-477,243
,1267,2023-10-27 12:20:20.78,142,-123,-2043,20,13,8,-313,71,-384,121
,1268,2023-10-27 12:20:20.79,132,-118,-2040,16,15,6,-478,-6,-472,242
,1269,2023-10-27 12:20:20.80,140,-126,-2045,13,18,6,-315,68,-383,123
,1270,2023-10-27 12:20:20.81,121,-125,-2044,9,19,5,-479,-19,-460,249
,1271,2023-10-27 12:20:20.82,132,-126,-2052,6,20,3,-313,60,-373,126
,1272,2023-10-27 12:20:20.83,136,-128,-2052,6,18,4,-475,-23,-452,249
,1273,2023-10-27 12:20:20.84,130,-126,-2060,6,19,3,-322,69,-391,126
,1274,2023-10-27 12:20:20.85,127,-126,-2056,5,19,6,-475,-19,-456,247
,1275,2023-10-27 12:20:20.86,121,-124,-2056,4,16,3,-319,73,-392,123
,1276,2023-10-27 12:20:20.87,129,-114,-2048,4,17,5,-468,-25,-443,246
,1277,2023-10-27 12:20:20.88,133,-120,-2049,5,16,5,-321,71,-392,125
,1278,2023-10-27 12:20:20.89,132,-127,-2045,1,17,3,-469,-24,-445,246
,1279,2023-10-27 12:20:20.90,142,-131,-2049,0,17,4,-327,68,-395,129
,1280,2023-10-27 12:20:20.91,138,-127,-2051,-1,15,2,-458,-41,-417,249
,1281,2023-10-27 12:20:20.92,135,-120,-2059,0,12,4,-311,53,-364,129
,1282,2023-10-27 12:20:20.93,143,-127,-2060,2,5,9,-451,-72,-379,261
,1283,2023-10-27 12:20:20.94,145,-118,-2058,1,3,14,-309,39,-348,135
,1284,2023-10-27 12:20:20.95,138,-119,-2052,2,-1,11,-447,-71,-376,259
,1285,2023-10-27 12:20:20.96,141,-120,-2054,2,-2,12,-314,52,-366,131
,1286,2023-10-27 12:20:20.97,141,-117,-2049,1,-5,16,-450,-63,-387,256
,1287,2023-10-27 12:20:20.98,135,-129,-2059,5,-5,17,-318,71,-389,123
,1288,2023-10-27 12:20:20.99,137,-123,-2054,7,-4,20,-450,-62,-388,256
,1289,2023-10-27 12:20:21.00,137,-119,-2036,9,-6,23,-321,76,-397,122
,1290,2023-10-27 12:20:21.01,136,-126,-2055,10,1,21,-437,-51,-386,244
,1291,2023-10-27 12:20:21.02,130,-118,-2050,8,-2,23,-317,89,-406,114
,1292,2023-10-27 12:20:21.03,130,-123,-2030,8,-2,21,-434,-47,-387,240
,1293,2023-10-27 12:20:21.04,123,-114,-2053,12,-3,19,-322,98,-420,112
,1294,2023-10-27 12:20:21.05,129,-111,-2056,8,-3,20,-439,-49,-390,244
,1295,2023-10-27 12:20:21.06,130,-125,-2055,7,1,20,-328,98,-426,115
,1296,2023-10-27 12:20:21.07,129,-127,-2061,9,0,16,-429,-38,-391,233
,1297,2023-10-27 12:20:21.08,136,-122,-2057,7,3,13,-329,108,-437,110
,1298,2023-10-27 12:20:21.09,122,-113,-2064,6,11,7,-422,-48,-374,235
,1299,2023-10-27 12:20:21.10,140,-117,-2053,3,15,5,-329,103,-432,113
,1300,2023-10-27 12:20:21.11,136,-120,-2044,7,13,3,-424,-52,-372,238
,1301,2023-10-27 12:20:21.12,143,-124,-2051,6,13,-1,-342,97,-439,122
,1302,2023-10-27 12:20:21.13,122,-116,-2050,2,10,-2,-420,-63,-357,241
,1303,2023-10-27 12:20:21.14,129,-110,-2053,-2,13,-4,-342,91,-433,125
,1304,2023-10-27 12:20:21.15,133,-108,-2055,-6,9,-3,-411,-72,-339,241
,1305,2023-10-27 12:20:21.16,133,-113,-2055,-8,5,-7,-338,91,-429,123
,1306,2023-10-27 12:20:21.17,132,-114,-2055,-8,4,-7,-408,-68,-340,238
,1307,2023-10-27 12:20:21.18,132,-114,-2054,-10,2,-2,-347,90,-437,128
,1308,2023-10-27 12:20:21.19,133,-122,-2054,-10,3,1,-405,-77,-328,241
,1309,2023-10-27 12:20:21.20,136,-112,-2050,-8,1,3,-351,94,-445,128
,1310,2023-10-27 12:20:21.21,124,-124,-2052,-7,2,5,-403,-75,-328,239
,1311,2023-10-27 12:20:21.22,126,-116,-2056,-7,2,9,-349,104,-453,122
,1312,2023-10-27 12:20:21.23,124,-116,-2053,-3,4,12,-394,-59,-335,226
,1313,2023-10-27 12:20:21.24,132,-110,-2051,-2,6,13,-355,113,-468,121
,1314,2023-10-27 12:20:21.25,124,-114,-2051,-2,9,16,-390,-55,-335,222
,1315,2023-10-27 12:20:21.26,129,-104,-2050,0,11,18,-359,115,-474,122
,1316,2023-10-27 12:20:21.27,125,-103,-2046,1,11,16,-388,-63,-325,225
,1317,2023-10-27 12:20:21.28,125,-101,-2050,4,11,18,-358,114,-472,122
,1318,2023-10-27 12:20:21.29,135,-107,-2049,6,15,16,-380,-55,-325,217
,1319,2023-10-27 12:20:21.30,132,-105,-2048,10,17,14,-364,120,-484,122
,1320,2023-10-27 12:20:21.31,139,-99,-2045,15,14,13,-375,-67,-308,221
,1321,2023-10-27 12:20:21.32,136,-112,-2046,19,19,8,-365,113,-478,126
,1322,2023-10-27 12:20:21.33,130,-113,-2057,23,18,10,-373,-74,-299,223
,1323,2023-10-27 12:20:21.34,135,-108,-2043,32,13,9,-366,112,-478,127
,1324,2023-10-27 12:20:21.35,141,-113,-2047,40,20,3,-364,-60,-304,212
,1325,2023-10-27 12:20:21.36,131,-115,-2052,38,24,1,-371,123,-494,124
,1326,2023-10-27 12:20:21.37,147,-108,-2053,40,26,-5,-362,-60,-302,211
,1327,2023-10-27 12:20:21.38,140,-118,-2048,41,26,-3,-377,126,-503,125
,1328,2023-10-27 12:20:21.39,148,-117,-2051,46,26,-4,-367,-59,-308,213
,1329,2023-10-27 12:20:21.40,137,-126,-2057,46,27,-5,-385,130,-515,127
,1330,2023-10-27 12:20:21.41,141,-124,-2056,49,26,-4,-359,-45,-314,202
,1331,2023-10-27 12:20:21.42,140,-125,-2051,50,22,-4,-390,134,-524,128
,1332,2023-10-27 12:20:21.43,139,-122,-2048,49,25,-2,-353,-54,-299,203
,1333,2023-10-27 12:20:21.44,141,-125,-2042,47,24,-3,-386,129,-515,128
,1334,2023-10-27 12:20:21.45,135,-124,-2045,45,30,-4,-349,-60,-289,204
,1335,2023-10-27 12:20:21.46,149,-117,-2050,45,31,-2,-390,128,-518,131
,1336,2023-10-27 12:20:21.47,157,-125,-2043,45,37,-6,-350,-44,-306,197
,1337,2023-10-27 12:20:21.48,151,-123,-2050,46,39,-6,-400,132,-532,134
,1338,2023-10-27 12:20:21.49,163,-127,-2053,45,42,-4,-341,-54,-287,197
,1339,2023-10-27 12:20:21.50,140,-123,-2053,47,40,-4,-399,116,-515,141
,1340,2023-10-27 12:20:21.51,149,-125,-2054,52,42,-2,-342,-69,-273,205
,1341,2023-10-27 12:20:21.52,155,-132,-2054,56,42,-6,-407,114,-521,146
,1342,2023-10-27 12:20:21.53,159,-128,-2054,60,41,-8,-339,-60,-279,199
,1343,2023-10-27 12:20:21.54,158,-133,-2059,66,37,-10,-412,121,-533,145
,1344,2023-10-27 12:20:21.55,154,-129,-2054,72,37,-8,-334,-45,-289,189
,1345,2023-10-27 12:20:21.56,152,-135,-2052,74,37,-11,-417,132,-549,142
,1346,2023-10-27 12:20:21.57,161,-128,-2052,80,36,-11,-332,-46,-286,189
,1347,2023-10-27 12:20:21.58,157,-141,-2048,87,32,-12,-416,134,-550,141
,1348,2023-10-27 12:20:21.59,154,-131,-2046,90,31,-11,-329,-43,-286,186
,1349,2023-10-27 12:20:21.60,142,-136,-2046,97,32,-12,-424,130,-554,147
,1350,2023-10-27 12:20:21.61,158,-144,-2041,99,33,-15,-325,-40,-285,182
,1351,2023-10-27 12:20:21.62,161,-142,-2045,101,34,-14,-426,130,-556,148
,1352,2023-10-27 12:20:21.63,154,-145,-2053,108,37,-15,-321,-40,-281,180
,1353,2023-10-27 12:20:21.64,145,-155,-2049,111,39,-18,-426,131,-557,147
,1354,2023-10-27 12:20:21.65,157,-147,-2050,116,38,-16,-319,-29,-290,174
,1355,2023-10-27 12:20:21.66,158,-154,-2043,120,37,-17,-432,136,-568,148
,1356,2023-10-27 12:20:21.67,159,-148,-2044,127,39,-18,-316,-36,-280,176
,1357,2023-10-27 12:20:21.68,151,-158,-2059,133,43,-24,-435,128,-563,153
,1358,2023-10-27 12:20:21.69,164,-151,-2059,145,40,-26,-311,-32,-279,171
,1359,2023-10-27 12:20:21.70,168,-139,-2061,159,34,-38,-439,135,-574,152
,1360,2023-10-27 12:20:21.71,160,-145,-2040,164,27,-48,-312,-14,-298,163
,1361,2023-10-27 12:20:21.72,162,-151,-2045,173,23,-56,-448,132,-580,158
,1362,2023-10-27 12:20:21.73,149,-162,-2053,179,20,-66,-313,-27,-286,170
,1363,2023-10-27 12:20:21.74,158,-164,-2053,181,15,-71,-455,117,-572,169
,1364,2023-10-27 12:20:21.75,162,-179,-2051,188,12,-79,-311,-30,-281,170
,1365,2023-10-27 12:20:21.76,170,-180,-2045,191,13,-81,-451,102,-553,174
,1366,2023-10-27 12:20:21.77,175,-186,-2053,187,18,-86,-305,-32,-273,168
,1367,2023-10-27 12:20:21.78,159,-186,-2048,182,27,-89,-455,96,-551,179
,1368,2023-10-27 12:20:21.79,164,-200,-2036,183,31,-90,-301,-35,-266,168
,1369,2023-10-27 12:20:21.80,161,-202,-2030,181,34,-89,-454,88,-542,183
,1370,2023-10-27 12:20:21.81,165,-215,-2030,178,41,-88,-301,-39,-262,170
,1371,2023-10-27 12:20:21.82,163,-215,-2032,177,49,-86,-457,74,-531,191
,1372,2023-10-27 12:20:21.83,172,-221,-2035,176,54,-84,-293,-35,-258,164
,1373,2023-10-27 12:20:21.84,170,-217,-2034,174,55,-80,-458,72,-530,193
,1374,2023-10-27 12:20:21.85,179,-222,-2036,167,59,-78,-297,-32,-265,164
,1375,2023-10-27 12:20:21.86,170,-227,-2040,162,64,-79,-465,75,-540,195
,1376,2023-10-27 12:20:21.87,181,-224,-2041,163,71,-75,-299,-27,-272,163
,1377,2023-10-27 12:20:21.88,181,-232,-2041,161,72,-69,-472,72,-544,200
,1378,2023-10-27 12:20:21.89,177,-228,-2043,160,70,-68,-296,-10,-286,153
,1379,2023-10-27 12:20:21.90,179,-231,-2042,159,69,-66,-476,85,-561,195
,1380,2023-10-27 12:20:21.91,173,-236,-2043,162,68,-62,-302,-4,-298,153
,1381,2023-10-27 12:20:21.92,185,-236,-2034,168,69,-64,-479,62,-541,208
,1382,2023-10-27 12:20:21.93,187,-245,-2029,168,76,-65,-306,-15,-291,160
,1383,2023-10-27 12:20:21.94,184,-255,-2041,166,76,-65,-485,54,-539,215
,1384,2023-10-27 12:20:21.95,183,-258,-2041,171,73,-62,-301,-8,-293,154
,1385,2023-10-27 12:20:21.96,184,-255,-2042,175,72,-59,-488,60,-548,214
,1386,2023-10-27 12:20:21.97,182,-258,-2046,176,69,-53,-306,0,-306,153
,1387,2023-10-27 12:20:21.98,189,-261,-2042,172,70,-51,-490,46,-536,222
,1388,2023-10-27 12:20:21.99,183,-271,-2033,166,69,-48,-307,0,-307,153
,1389,2023-10-27 12:20:22.00,192,-265,-2032,166,70,-43,-496,44,-540,226
,1390,2023-10-27 12:20:22.01,186,-284,-2022,163,70,-40,-309,0,-309,154
,1391,2023-10-27 12:20:22.02,195,-294,-2030,160,75,-33,-497,43,-540,227
,1392,2023-10-27 12:20:22.03,193,-296,-2022,156,73,-26,-310,5,-315,152
,1393,2023-10-27 12:20:22.04,192,-299,-2018,155,79,-25,-502,33,-535,234
,1394,2023-10-27 12:20:22.05,202,-296,-2027,154,78,-17,-309,10,-319,149
,1395,2023-10-27 12:20:22.06,201,-315,-2034,152,82,-14,-502,30,-532,236
,1396,2023-10-27 12:20:22.07,206,-299,-2026,148,80,-5,-315,14,-329,150
,1397,2023-10-27 12:20:22.08,204,-307,-2042,141,76,-1,-505,39,-544,233
,1398,2023-10-27 12:20:22.09,208,-310,-2033,134,76,9,-314,27,-341,143
,1399,2023-10-27 12:20:22.10,209,-314,-2029,123,80,14,-504,44,-548,230
,1400,2023-10-27 12:20:22.11,205,-308,-2028,121,75,22,-313,31,-344,141
,1401,2023-10-27 12:20:22.12,205,-316,-2034,115,73,25,-512,40,-552,236
,1402,2023-10-27 12:20:22.13,219,-320,-2027,105,72,30,-326,24,-350,151
,1403,2023-10-27 12:20:22.14,232,-308,-2030,92,73,34,-515,35,-550,240
,1404,2023-10-27 12:20:22.15,210,-322,-2029,83,74,35,-323,36,-359,143
,1405,2023-10-27 12:20:22.16,217,-311,-2021,76,74,37,-512,39,-551,236
,1406,2023-10-27 12:20:22.17,226,-329,-2027,72,70,37,-321,44,-365,138
,1407,2023-10-27 12:20:22.18,230,-313,-2030,71,65,40,-516,40,-556,238
,1408,2023-10-27 12:20:22.19,223,-321,-2024,65,67,41,-331,48,-379,141
,1409,2023-10-27 12:20:22.20,219,-321,-2028,60,65,39,-524,38,-562,243
,1410,2023-10-27 12:20:22.21,218,-332,-2027,57,64,39,-333,57,-390,138
,1411,2023-10-27 12:20:22.22,239,-317,-2045,55,59,40,-522,38,-560,242
,1412,2023-10-27 12:20:22.23,233,-314,-2032,54,55,37,-333,54,-387,139
,1413,2023-10-27 12:20:22.24,231,-321,-2021,45,61,36,-518,35,-553,241
,1414,2023-10-27 12:20:22.25,230,-321,-2027,43,56,34,-333,57,-390,138
,1415,2023-10-27 12:20:22.26,230,-325,-2030,44,55,32,-523,29,-552,247
,1416,2023-10-27 12:20:22.27,227,-322,-2011,46,49,29,-338,65,-403,136
,1417,2023-10-27 12:20:22.28,240,-316,-2018,45,49,27,-526,36,-562,245
,1418,2023-10-27 12:20:22.29,245,-323,-2020,47,46,25,-343,63,-406,140
,1419,2023-10-27 12:20:22.30,238,-319,-2017,44,46,22,-523,25,-548,249
,1420,2023-10-27 12:20:22.31,235,-334,-2024,42,45,19,-346,62,-408,142
,1421,2023-10-27 12:20:22.32,235,-327,-2031,41,37,21,-528,22,-550,253
,1422,2023-10-27 12:20:22.33,241,-327,-2025,40,35,23,-347,70,-417,138
,1423,2023-10-27 12:20:22.34,243,-327,-2024,37,38,22,-529,32,-561,248
,1424,2023-10-27 12:20:22.35,250,-328,-2012,36,39,23,-356,74,-430,141
,1425,2023-10-27 12:20:22.36,244,-324,-2031,33,35,24,-526,17,-543,254
,1426,2023-10-27 12:20:22.37,243,-333,-2025,28,37,24,-354,72,-426,141
,1427,2023-10-27 12:20:22.38,243,-328,-2024,26,36,24,-524,14,-538,255
,1428,2023-10-27 12:20:22.39,246,-319,-2015,22,36,25,-354,69,-423,142
,1429,2023-10-27 12:20:22.40,239,-330,-2017,19,37,25,-527,20,-547,253
,1430,2023-10-27 12:20:22.41,250,-335,-2017,19,36,23,-363,87,-450,138
,1431,2023-10-27 12:20:22.42,251,-338,-2030,16,34,28,-527,23,-550,252
,1432,2023-10-27 12:20:22.43,247,-345,-2030,16,28,28,-366,89,-455,138
,1433,2023-10-27 12:20:22.44,254,-342,-2023,17,25,32,-527,21,-548,253
,1434,2023-10-27 12:20:22.45,268,-328,-2024,16,25,34,-368,85,-453,141
,1435,2023-10-27 12:20:22.46,262,-332,-2035,13,32,31,-522,19,-541,251
,1436,2023-10-27 12:20:22.47,256,-327,-2029,10,35,31,-367,92,-459,137
,1437,2023-10-27 12:20:22.48,266,-328,-2022,12,34,33,-522,21,-543,250
,1438,2023-10-27 12:20:22.49,254,-330,-2024,14,35,32,-370,97,-467,136
,1439,2023-10-27 12:20:22.50,254,-333,-2005,8,36,36,-519,12,-531,253
,1440,2023-10-27 12:20:22.51,255,-339,-2015,10,36,35,-373,92,-465,140
,1441,2023-10-27 12:20:22.52,264,-331,-2028,13,32,35,-515,11,-526,252
,1442,2023-10-27 12:20:22.53,259,-329,-2023,11,32,37,-378,99,-477,139
,1443,2023-10-27 12:20:22.54,256,-328,-2020,8,30,36,-520,5,-525,257
,1444,2023-10-27 12:20:22.55,262,-323,-2031,3,25,30,-382,101,-483,140
,1445,2023-10-27 12:20:22.56,261,-325,-2020,2,25,27,-513,10,-523,251
,1446,2023-10-27 12:20:22.57,258,-321,-2036,4,23,27,-384,102,-486,141
,1447,2023-10-27 12:20:22.58,253,-324,-2026,-1,20,25,-509,6,-515,251
,1448,2023-10-27 12:20:22.59,253,-322,-2032,0,14,25,-388,109,-497,139
,1449,2023-10-27 12:20:22.60,274,-329,-2029,2,12,23,-510,11,-521,249
,1450,2023-10-27 12:20:22.61,269,-333,-2020,0,12,23,-389,109,-498,140
,1451,2023-10-27 12:20:22.62,251,-328,-2017,1,8,23,-505,8,-513,248
,1452,2023-10-27 12:20:22.63,258,-329,-2017,2,9,24,-392,107,-499,142
,1453,2023-10-27 12:20:22.64,269,-333,-2021,2,5,24,-496,-2,-494,249
,1454,2023-10-27 12:20:22.65,262,-326,-2021,-3,8,24,-396,108,-504,144
,1455,2023-10-27 12:20:22.66,268,-314,-2020,0,7,25,-501,2,-503,249
,1456,2023-10-27 12:20:22.67,258,-325,-2020,0,5,25,-408,111,-519,148
,1457,2023-10-27 12:20:22.68,252,-323,-2023,-1,6,25,-498,5,-503,246
,1458,2023-10-27 12:20:22.69,255,-334,-2019,0,3,25,-409,116,-525,146
,1459,2023-10-27 12:20:22.70,254,-339,-2023,2,4,27,-497,-5,-492,251
,1460,2023-10-27 12:20:22.71,250,-337,-2028,5,2,33,-414,115,-529,149
,1461,2023-10-27 12:20:22.72,263,-334,-2009,12,0,35,-494,-4,-490,249
,1462,2023-10-27 12:20:22.73,262,-334,-2016,13,3,34,-420,110,-530,155
,1463,2023-10-27 12:20:22.74,260,-331,-2021,13,5,34,-486,-8,-478,247
,1464,2023-10-27 12:20:22.75,262,-333,-2021,17,8,35,-420,109,-529,155
,1465,2023-10-27 12:20:22.76,267,-338,-2024,19,7,36,-486,-16,-470,251
,1466,2023-10-27 12:20:22.77,259,-342,-2025,19,9,36,-421,115,-536,153
,1467,2023-10-27 12:20:22.78,265,-346,-2027,22,9,40,-480,-11,-469,245
,1468,2023-10-27 12:20:22.79,255,-341,-2024,27,7,41,-425,112,-537,156
,1469,2023-10-27 12:20:22.80,250,-337,-2019,27,2,40,-473,-13,-460,243
,1470,2023-10-27 12:20:22.81,262,-333,-2012,27,5,41,-423,111,-534,156
,1471,2023-10-27 12:20:22.82,264,-335,-2016,26,7,42,-470,-18,-452,244
,1472,2023-10-27 12:20:22.83,249,-342,-2017,19,9,40,-432,115,-547,158
,1473,2023-10-27 12:20:22.84,264,-339,-2019,20,4,40,-473,-16,-457,244
,1474,2023-10-27 12:20:22.85,260,-336,-2027,16,7,38,-442,114,-556,164
,1475,2023-10-27 12:20:22.86,249,-334,-2019,13,5,40,-466,-12,-454,239
,1476,2023-10-27 12:20:22.87,250,-337,-2019,12,3,40,-444,113,-557,165
,1477,2023-10-27 12:20:22.88,256,-343,-2015,12,1,39,-468,-24,-444,246
,1478,2023-10-27 12:20:22.89,267,-341,-2024,11,-2,37,-453,108,-561,172
,1479,2023-10-27 12:20:22.90,265,-343,-2019,10,-2,36,-464,-26,-438,245
,1480,2023-10-27 12:20:22.91,249,-350,-2016,12,-4,35,-453,109,-562,172
,1481,2023-10-27 12:20:22.92,252,-345,-2012,12,-3,35,-454,-20,-434,237
,1482,2023-10-27 12:20:22.93,240,-343,-2022,12,-3,27,-459,116,-575,171
,1483,2023-10-27 12:20:22.94,257,-345,-2018,9,-6,32,-460,-21,-439,240
,1484,2023-10-27 12:20:22.95,244,-338,-2023,9,-10,28,-466,108,-574,179
,1485,2023-10-27 12:20:22.96,248,-331,-2026,9,-16,28,-454,-19,-435,236
,1486,2023-10-27 12:20:22.97,245,-335,-2031,6,-22,28,-463,115,-578,174
,1487,2023-10-27 12:20:22.98,243,-325,-2045,-13,-31,26,-445,-22,-423,233
,1488,2023-10-27 12:20:22.99,239,-328,-2039,-20,-33,25,-454,117,-571,168
,1489,2023-10-27 12:20:23.00,246,-325,-2034,-27,-38,27,-437,-20,-417,228
,1490,2023-10-27 12:20:23.01,225,-316,-2029,-35,-43,25,-463,116,-579,173
,1491,2023-10-27 12:20:23.02,237,-321,-2038,-45,-44,24,-439,-12,-427,225
,1492,2023-10-27 12:20:23.03,230,-315,-2026,-53,-45,26,-468,118,-586,175
,1493,2023-10-27 12:20:23.04,231,-310,-2014,-59,-45,26,-435,-20,-415,227
,1494,2023-10-27 12:20:23.05,233,-315,-2031,-67,-43,25,-465,125,-590,170
,1495,2023-10-27 12:20:23.06,212,-304,-2019,-73,-45,28,-428,-8,-420,218
,1496,2023-10-27 12:20:23.07,227,-313,-2026,-76,-47,24,-474,124,-598,175
,1497,2023-10-27 12:20:23.08,221,-304,-2028,-79,-49,29,-426,-8,-418,217
,1498,2023-10-27 12:20:23.09,222,-306,-2027,-83,-49,26,-474,122,-596,176
,1499,2023-10-27 12:20:23.10,238,-301,-2022,-83,-45,28,-422,-13,-409,217
,1500,2023-10-27 12:20:23.11,235,-299,-2013,-83,-35,29,-476,121,-597,177
,1501,2023-10-27 12:20:23.12,228,-296,-2013,-83,-26,25,-417,-16,-401,216
,1502,2023-10-27 12:20:23.13,222,-316,-2030,-79,-18,25,-482,112,-594,185
,1503,2023-10-27 12:20:23.14,239,-309,-2027,-71,-19,28,-413,-12,-401,212
,1504,2023-10-27 12:20:23.15,225,-309,-2025,-62,-20,36,-480,117,-597,181
,1505,2023-10-27 12:20:23.16,224,-312,-2022,-54,-19,39,-407,-14,-393,210
,1506,2023-10-27 12:20:23.17,215,-314,-2030,-52,-19,44,-475,110,-585,182
,1507,2023-10-27 12:20:23.18,235,-308,-2032,-45,-19,46,-400,-18,-382,209
,1508,2023-10-27 12:20:23.19,216,-310,-2038,-38,-18,49,-484,106,-590,189
,1509,2023-10-27 12:20:23.20,230,-304,-2027,-31,-18,49,-399,-18,-381,208
,1510,2023-10-27 12:20:23.21,224,-301,-2029,-29,-14,48,-480,111,-591,184
,1511,2023-10-27 12:20:23.22,235,-307,-2020,-28,-12,54,-392,-12,-380,202
,1512,2023-10-27 12:20:23.23,223,-300,-2023,-26,-7,50,-484,110,-594,187
,1513,2023-10-27 12:20:23.24,231,-302,-2008,-22,-3,50,-392,-6,-386,199
,1514,2023-10-27 12:20:23.25,224,-301,-2013,-19,1,50,-494,111,-605,191
,1515,2023-10-27 12:20:23.26,232,-307,-2023,-19,7,46,-393,-13,-380,203
,1516,2023-10-27 12:20:23.27,225,-297,-2016,-19,10,43,-487,113,-600,187
,1517,2023-10-27 12:20:23.28,230,-297,-2014,-17,15,39,-386,-5,-381,195
,1518,2023-10-27 12:20:23.29,226,-300,-2012,-17,24,34,-500,106,-606,197
,1519,2023-10-27 12:20:23.30,235,-294,-2012,-24,31,28,-392,-9,-383,200
,1520,2023-10-27 12:20:23.31,225,-296,-2022,-27,42,23,-501,105,-606,198
,1521,2023-10-27 12:20:23.32,247,-283,-2014,-33,51,17,-387,-7,-380,197
,1522,2023-10-27 12:20:23.33,225,-284,-2011,-40,61,10,-498,111,-609,193
,1523,2023-10-27 12:20:23.34,242,-284,-2008,-46,70,3,-382,-2,-380,192
,1524,2023-10-27 12:20:23.35,242,-278,-2006,-55,81,-7,-506,101,-607,202
,1525,2023-10-27 12:20:23.36,234,-282,-2029,-63,87,-14,-378,-4,-374,191
,1526,2023-10-27 12:20:23.37,251,-269,-2039,-66,83,-18,-506,102,-608,202
,1527,2023-10-27 12:20:23.38,248,-266,-2027,-68,80,-25,-373,0,-373,186
,1528,2023-10-27 12:20:23.39,263,-275,-2021,-66,80,-35,-502,101,-603,200
,1529,2023-10-27 12:20:23.40,268,-262,-2042,-67,83,-43,-370,4,-374,183
,1530,2023-10-27 12:20:23.41,260,-265,-2043,-66,83,-50,-508,97,-605,205
,1531,2023-10-27 12:20:23.42,253,-269,-2036,-59,75,-55,-363,0,-363,181
,1532,2023-10-27 12:20:23.43,254,-264,-2024,-53,72,-57,-508,96,-604,206
,1533,2023-10-27 12:20:23.44,262,-272,-2026,-51,76,-61,-364,4,-368,180
,1534,2023-10-27 12:20:23.45,261,-267,-2021,-44,77,-63,-512,89,-601,211
,1535,2023-10-27 12:20:23.46,263,-270,-2020,-41,78,-63,-363,8,-371,177
,1536,2023-10-27 12:20:23.47,271,-269,-2006,-38,84,-64,-516,85,-601,215
,1537,2023-10-27 12:20:23.48,263,-265,-2005,-38,91,-69,-364,1,-365,181
,1538,2023-10-27 12:20:23.49,268,-262,-2005,-39,105,-74,-517,79,-596,219
,1539,2023-10-27 12:20:23.50,279,-263,-2004,-37,117,-77,-359,2,-361,178
,1540,2023-10-27 12:20:23.51,286,-262,-2006,-39,128,-81,-518,82,-600,218
,1541,2023-10-27 12:20:23.52,271,-252,-2010,-40,136,-81,-354,18,-372,168
,1542,2023-10-27 12:20:23.53,284,-258,-2016,-41,147,-84,-519,84,-603,217
,1543,2023-10-27 12:20:23.54,288,-265,-2022,-44,147,-83,-355,9,-364,173
,1544,2023-10-27 12:20:23.55,294,-258,-2018,-42,150,-84,-522,73,-595,224
,1545,2023-10-27 12:20:23.56,287,-264,-2018,-38,153,-81,-352,3,-355,174
,1546,2023-10-27 12:20:23.57,307,-260,-2012,-40,160,-80,-522,60,-582,231
,1547,2023-10-27 12:20:23.58,296,-260,-2028,-39,166,-79,-348,4,-352,172
,1548,2023-10-27 12:20:23.59,315,-259,-2035,-36,162,-78,-526,57,-583,234
,1549,2023-10-27 12:20:23.60,308,-266,-2024,-33,161,-73,-350,1,-351,174
,1550,2023-10-27 12:20:23.61,305,-267,-2029,-28,157,-67,-525,54,-579,235
,1551,2023-10-27 12:20:23.62,314,-272,-2038,-21,154,-61,-348,0,-348,174
,1552,2023-10-27 12:20:23.63,324,-259,-2036,-11,147,-56,-530,45,-575,242
,1553,2023-10-27 12:20:23.64,328,-267,-2020,-3,142,-50,-349,6,-355,171
,1554,2023-10-27 12:20:23.65,340,-269,-2029,4,140,-46,-536,49,-585,243
,1555,2023-10-27 12:20:23.66,336,-283,-2042,14,137,-41,-355,10,-365,172
,1556,2023-10-27 12:20:23.67,352,-277,-2042,26,129,-34,-537,46,-583,245
,1557,2023-10-27 12:20:23.68,350,-270,-2027,38,121,-28,-350,6,-356,172
,1558,2023-10-27 12:20:23.69,358,-267,-2020,46,120,-25,-540,25,-565,257
,1559,2023-10-27 12:20:23.70,359,-277,-2026,49,121,-23,-344,-8,-336,176
,1560,2023-10-27 12:20:23.71,354,-290,-2035,60,112,-20,-543,13,-556,265
,1561,2023-10-27 12:20:23.72,356,-285,-2053,67,105,-16,-350,3,-353,173
,1562,2023-10-27 12:20:23.73,350,-275,-2049,71,94,-11,-540,34,-574,253
,1563,2023-10-27 12:20:23.74,361,-275,-2040,76,86,-9,-348,22,-370,163
,1564,2023-10-27 12:20:23.75,362,-268,-2044,77,77,-9,-540,38,-578,251
,1565,2023-10-27 12:20:23.76,368,-267,-2041,75,71,-7,-370,16,-386,177
,1566,2023-10-27 12:20:23.77,357,-269,-2047,73,66,-9,-577,40,-617,268
,1567,2023-10-27 12:20:23.78,370,-264,-2029,66,55,-7,-383,26,-409,178
,1568,2023-10-27 12:20:23.79,362,-266,-2012,63,43,-6,-561,53,-614,254
,1569,2023-10-27 12:20:23.80,357,-272,-2012,63,32,-5,-366,47,-413,159
,1570,2023-10-27 12:20:23.81,351,-274,-2039,60,19,-7,-558,55,-613,251
,1571,2023-10-27 12:20:23.82,365,-273,-2034,59,7,-6,-374,48,-422,163
,1572,2023-10-27 12:20:23.83,368,-265,-2037,58,-8,-6,-566,68,-634,249
,1573,2023-10-27 12:20:23.84,361,-267,-2034,52,-20,-7,-383,60,-443,161
,1574,2023-10-27 12:20:23.85,350,-273,-2027,50,-34,-6,-568,62,-630,253
,1575,2023-10-27 12:20:23.86,344,-279,-2017,47,-46,-2,-381,62,-443,159
,1576,2023-10-27 12:20:23.87,337,-285,-2013,46,-60,4,-566,57,-623,254
,1577,2023-10-27 12:20:23.88,332,-292,-2012,42,-68,11,-382,59,-441,161
,1578,2023-10-27 12:20:23.89,330,-287,-2013,35,-72,18,-560,48,-608,256
,1579,2023-10-27 12:20:23.90,331,-295,-2006,26,-77,27,-379,49,-428,165
,1580,2023-10-27 12:20:23.91,322,-292,-2014,18,-76,36,-562,32,-594,265
,1581,2023-10-27 12:20:23.92,322,-292,-2017,9,-76,46,-382,56,-438,163
,1582,2023-10-27 12:20:23.93,325,-294,-2017,-1,-74,57,-564,35,-599,264
,1583,2023-10-27 12:20:23.94,311,-289,-2020,-10,-71,65,-388,58,-446,165
,1584,2023-10-27 12:20:23.95,309,-281,-2024,-17,-71,74,-563,25,-588,269
,1585,2023-10-27 12:20:23.96,314,-277,-2027,-26,-66,84,-392,57,-449,167
,1586,2023-10-27 12:20:23.97,313,-279,-2033,-37,-59,89,-565,20,-585,272
,1587,2023-10-27 12:20:23.98,307,-268,-2026,-46,-52,92,-394,55,-449,169
,1588,2023-10-27 12:20:23.99,306,-262,-2026,-53,-46,93,-564,23,-587,270
,1589,2023-10-27 12:20:24.00,302,-261,-2028,-58,-37,92,-396,56,-452,170
,1590,2023-10-27 12:20:24.01,307,-255,-2016,-63,-38,91,-564,6,-570,279
,1591,2023-10-27 12:20:24.02,314,-253,-2012,-60,-30,87,-402,58,-460,172
,1592,2023-10-27 12:20:24.03,306,-251,-2008,-55,-23,79,-568,16,-584,276
,1593,2023-10-27 12:20:24.04,321,-245,-2005,-53,-10,73,-402,68,-470,167
,1594,2023-10-27 12:20:24.05,316,-254,-2009,-43,-6,66,-561,16,-577,272
,1595,2023-10-27 12:20:24.06,323,-255,-2013,-32,3,60,-403,70,-473,166
,1596,2023-10-27 12:20:24.07,311,-263,-2017,-23,4,56,-553,19,-572,267
,1597,2023-10-27 12:20:24.08,313,-257,-2021,-11,8,52,-401,90,-491,155
,1598,2023-10-27 12:20:24.09,324,-258,-2022,-1,9,50,-551,30,-581,260
,1599,2023-10-27 12:20:24.10,327,-257,-2018,8,11,45,-403,93,-496,155
,1600,2023-10-27 12:20:24.11,320,-252,-2013,13,16,39,-548,25,-573,261
,1601,2023-10-27 12:20:24.12,315,-249,-2018,14,20,34,-412,82,-494,165
,1602,2023-10-27 12:20:24.13,301,-253,-2012,14,24,29,-538,13,-551,262
,1603,2023-10-27 12:20:24.14,318,-253,-2018,14,30,27,-398,93,-491,152
,1604,2023-10-27 12:20:24.15,314,-257,-2016,15,31,22,-536,20,-556,258
,1605,2023-10-27 12:20:24.16,314,-254,-2021,12,28,23,-403,103,-506,150
,1606,2023-10-27 12:20:24.17,323,-259,-2025,15,25,20,-535,29,-564,253
,1607,2023-10-27 12:20:24.18,323,-260,-2021,17,22,21,-410,111,-521,149
,1608,2023-10-27 12:20:24.19,323,-264,-2017,26,19,22,-533,24,-557,254
,1609,2023-10-27 12:20:24.20,329,-273,-2016,30,16,23,-409,124,-533,142
,1610,2023-10-27 12:20:24.21,333,-270,-2022,37,16,25,-534,38,-572,248
,1611,2023-10-27 12:20:24.22,328,-276,-2023,42,15,22,-418,139,-557,139
,1612,2023-10-27 12:20:24.23,328,-270,-2025,49,15,23,-531,52,-583,239
,1613,2023-10-27 12:20:24.24,330,-279,-2021,53,13,24,-424,153,-577,135
,1614,2023-10-27 12:20:24.25,324,-278,-2023,54,12,25,-529,55,-584,237
,1615,2023-10-27 12:20:24.26,318,-271,-2027,54,10,28,-424,164,-588,130
,1616,2023-10-27 12:20:24.27,326,-270,-2016,50,12,25,-532,50,-582,241
,1617,2023-10-27 12:20:24.28,335,-272,-2020,46,13,26,-437,168,-605,134
,1618,2023-10-27 12:20:24.29,334,-270,-2022,41,15,25,-533,71,-604,231
,1619,2023-10-27 12:20:24.30,321,-271,-2016,38,16,28,-443,188,-631,127
,1620,2023-10-27 12:20:24.31,324,-279,-2018,38,13,29,-528,65,-593,231
,1621,2023-10-27 12:20:24.32,336,-274,-2006,37,14,31,-447,186,-633,130
,1622,2023-10-27 12:20:24.33,323,-284,-2006,37,16,32,-530,55,-585,237
,1623,2023-10-27 12:20:24.34,327,-276,-2000,34,16,36,-453,178,-631,137
,1624,2023-10-27 12:20:24.35,331,-285,-2009,36,18,39,-516,43,-559,236
,1625,2023-10-27 12:20:24.36,321,-292,-2022,37,17,42,-446,171,-617,137
,1626,2023-10-27 12:20:24.37,319,-284,-2026,35,16,48,-509,35,-544,237
,1627,2023-10-27 12:20:24.38,326,-295,-2023,36,18,52,-448,187,-635,130
,1628,2023-10-27 12:20:24.39,338,-281,-2028,34,17,52,-512,59,-571,226
,1629,2023-10-27 12:20:24.40,340,-275,-2033,29,22,55,-463,208,-671,127
,1630,2023-10-27 12:20:24.41,330,-280,-2032,23,25,52,-506,66,-572,220
,1631,2023-10-27 12:20:24.42,332,-277,-2024,18,27,53,-462,215,-677,123
,1632,2023-10-27 12:20:24.43,327,-285,-2024,14,23,58,-504,67,-571,218
,1633,2023-10-27 12:20:24.44,323,-297,-2030,15,18,65,-466,223,-689,121
,1634,2023-10-27 12:20:24.45,331,-304,-2015,6,16,81,-502,75,-577,213
,1635,2023-10-27 12:20:24.46,314,-315,-2022,-5,17,102,-477,230,-707,123
,1636,2023-10-27 12:20:24.47,326,-312,-2025,-20,15,120,-494,68,-562,213
,1637,2023-10-27 12:20:24.48,316,-316,-2019,-31,19,146,-473,224,-697,124
,1638,2023-10-27 12:20:24.49,316,-318,-2022,-42,20,171,-491,51,-542,220
,1639,2023-10-27 12:20:24.50,330,-311,-2024,-51,24,196,-474,213,-687,130
,1640,2023-10-27 12:20:24.51,312,-315,-2010,-58,29,220,-485,46,-531,219
,1641,2023-10-27 12:20:24.52,326,-303,-2031,-51,19,243,-482,209,-691,136
,1642,2023-10-27 12:20:24.53,328,-294,-2026,-48,17,261,-484,32,-516,226
,1643,2023-10-27 12:20:24.54,326,-293,-2027,-50,16,278,-482,210,-692,136
,1644,2023-10-27 12:20:24.55,320,-295,-2029,-56,23,292,-474,28,-502,223
,1645,2023-10-27 12:20:24.56,328,-289,-2024,-55,25,306,-484,204,-688,140
,1646,2023-10-27 12:20:24.57,328,-296,-2013,-56,29,316,-470,19,-489,225
,1647,2023-10-27 12:20:24.58,329,-287,-2027,-53,29,326,-495,192,-687,151
,1648,2023-10-27 12:20:24.59,342,-282,-2025,-49,26,334,-470,6,-476,232
,1649,2023-10-27 12:20:24.60,335,-275,-2031,-44,20,339,-495,191,-686,152
,1650,2023-10-27 12:20:24.61,337,-280,-2022,-41,22,344,-461,7,-468,227
,1651,2023-10-27 12:20:24.62,325,-269,-2033,-45,15,347,-494,190,-684,152
,1652,2023-10-27 12:20:24.63,324,-265,-2025,-48,13,349,-447,9,-456,219
,1653,2023-10-27 12:20:24.64,332,-277,-2027,-44,12,348,-491,196,-687,147
,1654,2023-10-27 12:20:24.65,326,-266,-2034,-42,6,347,-445,9,-454,218
,1655,2023-10-27 12:20:24.66,323,-260,-2034,-38,-1,344,-492,195,-687,148
,1656,2023-10-27 12:20:24.67,327,-276,-2013,-39,-2,340,-442,10,-452,216
,1657,2023-10-27 12:20:24.68,330,-260,-2038,-33,-12,335,-499,196,-695,151
,1658,2023-10-27 12:20:24.69,324,-261,-2029,-31,-16,329,-437,14,-451,211
,1659,2023-10-27 12:20:24.70,327,-258,-2026,-26,-18,322,-504,203,-707,150
,1660,2023-10-27 12:20:24.71,318,-262,-2037,-27,-23,314,-433,11,-444,211
,1661,2023-10-27 12:20:24.72,305,-262,-2036,-26,-24,305,-505,200,-705,152
,1662,2023-10-27 12:20:24.73,308,-264,-2031,-22,-31,297,-430,1,-431,214
,1663,2023-10-27 12:20:24.74,315,-259,-2024,-20,-39,289,-505,183,-688,161
,1664,2023-10-27 12:20:24.75,314,-266,-2020,-17,-41,284,-426,-5,-421,215
,1665,2023-10-27 12:20:24.76,312,-272,-2016,-17,-41,280,-513,181,-694,166
,1666,2023-10-27 12:20:24.77,305,-276,-2022,-17,-41,277,-427,-13,-414,220
,1667,2023-10-27 12:20:24.78,306,-273,-2014,-18,-39,277,-518,194,-712,162
,1668,2023-10-27 12:20:24.79,323,-272,-2007,-19,-35,276,-426,8,-434,209
,1669,2023-10-27 12:20:24.80,316,-269,-2010,-28,-25,274,-523,196,-719,163
,1670,2023-10-27 12:20:24.81,307,-255,-2022,-33,-19,266,-421,5,-426,208
,1671,2023-10-27 12:20:24.82,306,-252,-2037,-38,-19,257,-526,197,-723,164
,1672,2023-10-27 12:20:24.83,299,-259,-2017,-37,-17,247,-423,7,-430,208
,1673,2023-10-27 12:20:24.84,297,-247,-2028,-33,-22,238,-530,199,-729,165
,1674,2023-10-27 12:20:24.85,299,-250,-2036,-31,-25,228,-420,4,-424,208
,1675,2023-10-27 12:20:24.86,302,-250,-2030,-32,-26,215,-535,190,-725,172
