// Data mode  : Full
// Data quality  : High
// Acceleration sensor's range  : 16g
// Gyroscope sensor's range  : 2000dps
//
//ARTIFACT,NUM,DATE,ACC_X,ACC_Y,ACC_Z,GYRO_X,GYRO_Y,GYRO_Z,EOG_L,EOG_R,EOG_H,EOG_V
,1,2023-10-27 12:27:34.85,150,-113,-2055,-64,-71,50,516,645,-129,-580
,2,2023-10-27 12:27:34.86,131,-127,-2044,-52,-58,44,397,474,-77,-435
,3,2023-10-27 12:27:34.87,140,-118,-2057,-38,-59,35,507,642,-135,-574
,4,2023-10-27 12:27:34.88,133,-124,-2052,-35,-39,27,397,472,-75,-434
,5,2023-10-27 12:27:34.89,145,-117,-2032,-25,-37,9,515,647,-132,-581
,6,2023-10-27 12:27:34.90,123,-124,-2035,-8,-28,-2,397,478,-81,-437
,7,2023-10-27 12:27:34.91,128,-113,-2043,8,-17,-19,491,633,-142,-562
,8,2023-10-27 12:27:34.92,139,-125,-2024,16,-11,-34,398,475,-77,-436
,9,2023-10-27 12:27:34.93,137,-127,-2021,24,8,-50,489,632,-143,-560
,10,2023-10-27 12:27:34.94,149,-125,-1992,34,-5,-61,408,489,-81,-448
,11,2023-10-27 12:27:34.95,142,-130,-1989,46,3,-68,474,618,-144,-546
,12,2023-10-27 12:27:34.96,164,-129,-2002,51,17,-83,420,496,-76,-458
,13,2023-10-27 12:27:34.97,157,-138,-2000,50,29,-88,483,628,-145,-555
,14,2023-10-27 12:27:34.98,150,-123,-1988,49,44,-94,429,505,-76,-467
,15,2023-10-27 12:27:34.99,147,-131,-2012,51,45,-95,479,619,-140,-549
,16,2023-10-27 12:27:35.00,157,-138,-2030,46,32,-94,444,510,-66,-477
,17,2023-10-27 12:27:35.01,148,-131,-2047,43,20,-95,484,619,-135,-551
,18,2023-10-27 12:27:35.02,149,-127,-2056,36,27,-88,449,521,-72,-485
,19,2023-10-27 12:27:35.03,144,-101,-2081,19,5,-88,477,613,-136,-545
,20,2023-10-27 12:27:35.04,138,-108,-2103,-7,-1,-89,459,530,-71,-494
,21,2023-10-27 12:27:35.05,141,-100,-2114,-31,-15,-93,476,613,-137,-544
,22,2023-10-27 12:27:35.06,140,-106,-2104,-54,-18,-90,465,531,-66,-498
,23,2023-10-27 12:27:35.07,132,-127,-2096,-61,-11,-96,472,597,-125,-534
,24,2023-10-27 12:27:35.08,131,-133,-2110,-62,-14,-92,479,540,-61,-509
,25,2023-10-27 12:27:35.09,140,-152,-2096,-63,-1,-90,466,601,-135,-533
,26,2023-10-27 12:27:35.10,149,-168,-2100,-57,11,-88,481,548,-67,-514
,27,2023-10-27 12:27:35.11,148,-176,-2057,-42,35,-80,457,594,-137,-525
,28,2023-10-27 12:27:35.12,154,-176,-2002,-18,46,-77,488,553,-65,-520
,29,2023-10-27 12:27:35.13,149,-187,-2007,1,86,-79,445,590,-145,-517
,30,2023-10-27 12:27:35.14,138,-190,-2017,10,109,-75,479,552,-73,-515
,31,2023-10-27 12:27:35.15,140,-165,-2012,16,134,-74,433,577,-144,-505
,32,2023-10-27 12:27:35.16,143,-161,-1976,25,154,-73,480,559,-79,-519
,33,2023-10-27 12:27:35.17,146,-145,-1970,35,169,-68,427,573,-146,-500
,34,2023-10-27 12:27:35.18,132,-127,-1949,24,191,-69,481,552,-71,-516
,35,2023-10-27 12:27:35.19,140,-150,-1944,19,198,-69,422,566,-144,-494
,36,2023-10-27 12:27:35.20,136,-158,-1994,15,194,-68,493,565,-72,-529
,37,2023-10-27 12:27:35.21,144,-138,-2000,11,179,-57,413,567,-154,-490
,38,2023-10-27 12:27:35.22,154,-117,-2013,1,173,-56,487,567,-80,-527
,39,2023-10-27 12:27:35.23,151,-116,-2076,-26,169,-60,408,556,-148,-482
,40,2023-10-27 12:27:35.24,149,-116,-2132,-47,155,-61,496,573,-77,-534
,41,2023-10-27 12:27:35.25,141,-108,-2133,-54,119,-58,404,554,-150,-479
,42,2023-10-27 12:27:35.26,149,-122,-2091,-45,100,-52,488,567,-79,-527
,43,2023-10-27 12:27:35.27,153,-127,-2073,-34,91,-49,381,543,-162,-462
,44,2023-10-27 12:27:35.28,149,-156,-2071,-30,84,-43,470,561,-91,-515
,45,2023-10-27 12:27:35.29,150,-160,-2064,-13,57,-36,358,520,-162,-439
,46,2023-10-27 12:27:35.30,162,-172,-2086,11,48,-24,483,570,-87,-526
,47,2023-10-27 12:27:35.31,176,-165,-2100,19,33,-17,351,520,-169,-435
,48,2023-10-27 12:27:35.32,190,-149,-2068,33,41,-18,472,565,-93,-518
,49,2023-10-27 12:27:35.33,178,-145,-2044,44,60,-19,346,501,-155,-423
,50,2023-10-27 12:27:35.34,180,-161,-2046,57,77,-13,494,581,-87,-537
,51,2023-10-27 12:27:35.35,185,-146,-2037,46,97,-8,366,514,-148,-440
,52,2023-10-27 12:27:35.36,184,-152,-1988,38,119,0,514,586,-72,-550
,53,2023-10-27 12:27:35.37,190,-157,-2001,40,139,10,388,521,-133,-454
,54,2023-10-27 12:27:35.38,177,-145,-2023,29,151,20,545,610,-65,-577
,55,2023-10-27 12:27:35.39,196,-139,-2009,13,153,33,398,526,-128,-462
,56,2023-10-27 12:27:35.40,186,-132,-2036,2,158,42,561,621,-60,-591
,57,2023-10-27 12:27:35.41,187,-115,-2070,-11,142,47,406,527,-121,-466
,58,2023-10-27 12:27:35.42,204,-103,-2067,-21,135,58,577,633,-56,-605
,59,2023-10-27 12:27:35.43,220,-88,-2036,-35,135,60,411,528,-117,-469
,60,2023-10-27 12:27:35.44,229,-85,-2022,-46,128,56,593,645,-52,-619
,61,2023-10-27 12:27:35.45,226,-99,-2012,-66,142,56,401,522,-121,-461
,62,2023-10-27 12:27:35.46,221,-91,-2017,-91,154,55,569,640,-71,-604
,63,2023-10-27 12:27:35.47,231,-97,-2024,-107,164,59,371,508,-137,-439
,64,2023-10-27 12:27:35.48,238,-98,-2047,-118,157,56,555,634,-79,-594
,65,2023-10-27 12:27:35.49,243,-96,-2077,-126,155,62,340,493,-153,-416
,66,2023-10-27 12:27:35.50,246,-95,-2096,-138,132,61,533,624,-91,-578
,67,2023-10-27 12:27:35.51,247,-76,-2117,-141,115,67,326,480,-154,-403
,68,2023-10-27 12:27:35.52,248,-68,-2110,-140,95,71,546,626,-80,-586
,69,2023-10-27 12:27:35.53,254,-70,-2102,-136,75,79,339,485,-146,-412
,70,2023-10-27 12:27:35.54,263,-67,-2089,-133,55,81,555,640,-85,-597
,71,2023-10-27 12:27:35.55,255,-70,-2075,-131,33,87,320,467,-147,-393
,72,2023-10-27 12:27:35.56,244,-73,-2074,-120,31,89,538,631,-93,-584
,73,2023-10-27 12:27:35.57,253,-80,-2075,-108,12,98,310,462,-152,-386
,74,2023-10-27 12:27:35.58,253,-89,-2067,-96,11,105,542,638,-96,-590
,75,2023-10-27 12:27:35.59,244,-94,-2074,-80,-9,110,315,459,-144,-387
,76,2023-10-27 12:27:35.60,250,-88,-2072,-64,-18,112,548,644,-96,-596
,77,2023-10-27 12:27:35.61,251,-95,-2071,-47,-30,120,310,460,-150,-385
,78,2023-10-27 12:27:35.62,247,-87,-2069,-34,-45,121,554,647,-93,-600
,79,2023-10-27 12:27:35.63,245,-91,-2065,-16,-43,127,309,456,-147,-382
,80,2023-10-27 12:27:35.64,238,-89,-2055,-4,-49,128,554,650,-96,-602
,81,2023-10-27 12:27:35.65,238,-88,-2033,12,-57,132,310,452,-142,-381
,82,2023-10-27 12:27:35.66,230,-85,-2029,24,-50,138,556,657,-101,-606
,83,2023-10-27 12:27:35.67,239,-93,-2025,32,-51,134,304,452,-148,-378
,84,2023-10-27 12:27:35.68,245,-95,-2030,36,-36,136,555,654,-99,-604
,85,2023-10-27 12:27:35.69,246,-89,-2031,41,-44,128,299,446,-147,-372
,86,2023-10-27 12:27:35.70,245,-77,-2033,48,-33,125,554,659,-105,-606
,87,2023-10-27 12:27:35.71,227,-85,-2036,47,-33,120,302,453,-151,-377
,88,2023-10-27 12:27:35.72,242,-89,-2057,40,-18,117,567,665,-98,-616
,89,2023-10-27 12:27:35.73,230,-87,-2054,34,-28,106,300,445,-145,-372
,90,2023-10-27 12:27:35.74,231,-92,-2054,29,-20,104,564,660,-96,-612
,91,2023-10-27 12:27:35.75,234,-85,-2061,16,-20,101,300,435,-135,-367
,92,2023-10-27 12:27:35.76,226,-83,-2067,5,-20,97,567,667,-100,-617
,93,2023-10-27 12:27:35.77,236,-76,-2066,-5,-23,91,277,419,-142,-348
,94,2023-10-27 12:27:35.78,242,-71,-2067,-16,-16,83,558,661,-103,-609
,95,2023-10-27 12:27:35.79,235,-79,-2068,-34,-16,78,297,435,-138,-366
,96,2023-10-27 12:27:35.80,234,-74,-2080,-47,-7,68,568,676,-108,-622
,97,2023-10-27 12:27:35.81,227,-72,-2069,-57,-16,65,282,424,-142,-353
,98,2023-10-27 12:27:35.82,241,-62,-2048,-64,-11,59,556,661,-105,-608
,99,2023-10-27 12:27:35.83,242,-62,-2025,-69,-21,50,278,417,-139,-347
,100,2023-10-27 12:27:35.84,251,-75,-2022,-70,-7,43,554,668,-114,-611
,101,2023-10-27 12:27:35.85,263,-73,-2030,-69,-16,38,278,417,-139,-347
,102,2023-10-27 12:27:35.86,270,-69,-2018,-53,-15,38,556,667,-111,-611
,103,2023-10-27 12:27:35.87,264,-86,-2017,-36,-22,29,283,421,-138,-352
,104,2023-10-27 12:27:35.88,267,-85,-2009,-17,-28,28,560,674,-114,-617
,105,2023-10-27 12:27:35.89,270,-94,-2007,1,-22,25,280,418,-138,-349
,106,2023-10-27 12:27:35.90,259,-99,-2011,28,-24,28,560,673,-113,-616
,107,2023-10-27 12:27:35.91,269,-108,-2001,56,-37,28,275,416,-141,-345
,108,2023-10-27 12:27:35.92,253,-113,-2010,83,-54,37,557,678,-121,-617
,109,2023-10-27 12:27:35.93,251,-109,-2004,97,-47,38,279,417,-138,-348
,110,2023-10-27 12:27:35.94,261,-123,-2016,110,-54,40,562,685,-123,-623
,111,2023-10-27 12:27:35.95,235,-118,-2076,112,-51,44,282,423,-141,-352
,112,2023-10-27 12:27:35.96,224,-117,-2078,117,-56,54,563,683,-120,-623
,113,2023-10-27 12:27:35.97,222,-123,-2091,125,-68,62,286,414,-128,-350
,114,2023-10-27 12:27:35.98,218,-122,-2101,122,-83,72,569,680,-111,-624
,115,2023-10-27 12:27:35.99,181,-129,-2102,112,-95,76,288,416,-128,-352
,116,2023-10-27 12:27:36.00,184,-128,-2104,109,-114,83,566,681,-115,-623
,117,2023-10-27 12:27:36.01,186,-117,-2091,104,-120,87,295,414,-119,-354
,118,2023-10-27 12:27:36.02,182,-121,-2090,97,-130,96,580,685,-105,-632
,119,2023-10-27 12:27:36.03,181,-124,-2070,86,-132,93,304,415,-111,-359
,120,2023-10-27 12:27:36.04,177,-121,-2074,75,-136,93,585,681,-96,-633
,121,2023-10-27 12:27:36.05,163,-131,-2072,61,-133,89,308,418,-110,-363
,122,2023-10-27 12:27:36.06,159,-130,-2050,48,-125,92,587,683,-96,-635
,123,2023-10-27 12:27:36.07,169,-127,-2036,40,-121,89,314,412,-98,-363
,124,2023-10-27 12:27:36.08,171,-120,-2025,31,-115,89,592,678,-86,-635
,125,2023-10-27 12:27:36.09,167,-130,-2015,18,-95,87,316,412,-96,-364
,126,2023-10-27 12:27:36.10,158,-126,-2002,12,-75,84,586,677,-91,-631
,127,2023-10-27 12:27:36.11,163,-128,-2012,4,-73,78,317,410,-93,-363
,128,2023-10-27 12:27:36.12,170,-123,-2010,1,-66,82,596,690,-94,-643
,129,2023-10-27 12:27:36.13,162,-117,-1999,-5,-60,81,320,410,-90,-365
,130,2023-10-27 12:27:36.14,167,-125,-2028,-15,-40,80,588,677,-89,-632
,131,2023-10-27 12:27:36.15,172,-107,-2032,-28,-36,73,331,410,-79,-370
,132,2023-10-27 12:27:36.16,166,-100,-2023,-38,-23,70,590,677,-87,-633
,133,2023-10-27 12:27:36.17,177,-98,-2028,-50,-17,60,328,414,-86,-371
,134,2023-10-27 12:27:36.18,162,-93,-2043,-63,4,55,594,674,-80,-634
,135,2023-10-27 12:27:36.19,166,-95,-2039,-78,13,44,334,418,-84,-376
,136,2023-10-27 12:27:36.20,172,-80,-2044,-89,20,33,592,677,-85,-634
,137,2023-10-27 12:27:36.21,173,-69,-2047,-100,28,25,326,400,-74,-363
,138,2023-10-27 12:27:36.22,172,-76,-2059,-114,34,10,593,677,-84,-635
,139,2023-10-27 12:27:36.23,167,-69,-2066,-124,38,0,344,424,-80,-384
,140,2023-10-27 12:27:36.24,165,-59,-2065,-129,40,-15,596,679,-83,-637
,141,2023-10-27 12:27:36.25,172,-59,-2063,-129,40,-26,351,420,-69,-385
,142,2023-10-27 12:27:36.26,171,-49,-2060,-133,44,-35,593,673,-80,-633
,143,2023-10-27 12:27:36.27,178,-60,-2053,-138,44,-49,347,423,-76,-385
,144,2023-10-27 12:27:36.28,162,-50,-2056,-135,52,-58,582,670,-88,-626
,145,2023-10-27 12:27:36.29,183,-48,-2047,-131,55,-70,355,429,-74,-392
,146,2023-10-27 12:27:36.30,167,-48,-2041,-131,68,-78,586,676,-90,-631
,147,2023-10-27 12:27:36.31,169,-49,-2022,-129,82,-90,357,431,-74,-394
,148,2023-10-27 12:27:36.32,169,-43,-2025,-122,99,-97,584,664,-80,-624
,149,2023-10-27 12:27:36.33,167,-43,-2028,-117,113,-107,360,430,-70,-395
,150,2023-10-27 12:27:36.34,176,-42,-2030,-111,125,-115,571,662,-91,-616
,151,2023-10-27 12:27:36.35,182,-46,-2025,-107,126,-127,359,428,-69,-393
,152,2023-10-27 12:27:36.36,178,-46,-2029,-100,141,-134,567,655,-88,-611
,153,2023-10-27 12:27:36.37,172,-47,-2039,-88,153,-140,356,430,-74,-393
,154,2023-10-27 12:27:36.38,192,-43,-2048,-76,150,-147,553,647,-94,-600
,155,2023-10-27 12:27:36.39,183,-49,-2046,-71,152,-147,355,427,-72,-391
,156,2023-10-27 12:27:36.40,191,-42,-2055,-59,148,-152,557,651,-94,-604
,157,2023-10-27 12:27:36.41,198,-42,-2051,-48,149,-153,365,435,-70,-400
,158,2023-10-27 12:27:36.42,196,-45,-2053,-46,144,-155,552,650,-98,-601
,159,2023-10-27 12:27:36.43,203,-44,-2053,-38,141,-151,376,441,-65,-408
,160,2023-10-27 12:27:36.44,214,-54,-2049,-25,136,-149,551,649,-98,-600
,161,2023-10-27 12:27:36.45,208,-56,-2057,-12,134,-141,378,446,-68,-412
,162,2023-10-27 12:27:36.46,225,-60,-2053,-1,124,-130,548,642,-94,-595
,163,2023-10-27 12:27:36.47,227,-74,-2072,11,118,-122,389,451,-62,-420
,164,2023-10-27 12:27:36.48,236,-71,-2086,26,108,-111,550,646,-96,-598
,165,2023-10-27 12:27:36.49,233,-71,-2078,43,91,-99,390,455,-65,-422
,166,2023-10-27 12:27:36.50,234,-64,-2077,59,80,-90,545,640,-95,-592
,167,2023-10-27 12:27:36.51,248,-55,-2064,65,73,-83,397,459,-62,-428
,168,2023-10-27 12:27:36.52,248,-63,-2068,72,75,-78,536,636,-100,-586
,169,2023-10-27 12:27:36.53,239,-53,-2063,75,64,-68,400,465,-65,-432
,170,2023-10-27 12:27:36.54,243,-68,-2055,84,64,-61,534,637,-103,-585
,171,2023-10-27 12:27:36.55,231,-60,-2062,84,52,-57,412,478,-66,-445
,172,2023-10-27 12:27:36.56,238,-62,-2055,86,42,-45,537,636,-99,-586
,173,2023-10-27 12:27:36.57,238,-58,-2055,91,24,-41,421,477,-56,-449
,174,2023-10-27 12:27:36.58,247,-54,-2053,88,20,-34,533,633,-100,-583
,175,2023-10-27 12:27:36.59,231,-53,-2051,89,7,-31,422,482,-60,-452
,176,2023-10-27 12:27:36.60,241,-48,-2059,91,1,-29,527,625,-98,-576
,177,2023-10-27 12:27:36.61,233,-50,-2055,83,-12,-30,436,487,-51,-461
,178,2023-10-27 12:27:36.62,249,-57,-2064,77,-1,-28,517,617,-100,-567
,179,2023-10-27 12:27:36.63,248,-51,-2063,71,-16,-27,444,500,-56,-472
,180,2023-10-27 12:27:36.64,241,-53,-2067,69,-13,-21,514,618,-104,-566
,181,2023-10-27 12:27:36.65,241,-48,-2067,62,-20,-24,434,491,-57,-462
,182,2023-10-27 12:27:36.66,243,-48,-2058,53,-16,-22,505,605,-100,-555
,183,2023-10-27 12:27:36.67,240,-55,-2057,48,-23,-26,449,502,-53,-475
,184,2023-10-27 12:27:36.68,249,-49,-2043,46,-20,-23,514,615,-101,-564
,185,2023-10-27 12:27:36.69,246,-49,-2047,46,-16,-23,462,517,-55,-489
,186,2023-10-27 12:27:36.70,244,-54,-2035,45,-16,-25,523,623,-100,-573
,187,2023-10-27 12:27:36.71,248,-67,-2049,46,-17,-27,480,531,-51,-505
,188,2023-10-27 12:27:36.72,229,-66,-2049,49,-21,-21,502,606,-104,-554
,189,2023-10-27 12:27:36.73,240,-70,-2035,54,-23,-16,461,515,-54,-488
,190,2023-10-27 12:27:36.74,229,-75,-2043,54,-20,-9,490,592,-102,-541
,191,2023-10-27 12:27:36.75,238,-90,-2053,57,-24,-5,477,522,-45,-499
,192,2023-10-27 12:27:36.76,237,-83,-2044,64,-44,2,494,590,-96,-542
,193,2023-10-27 12:27:36.77,218,-82,-2045,77,-40,10,482,530,-48,-506
,194,2023-10-27 12:27:36.78,233,-87,-2041,83,-48,19,483,585,-102,-534
,195,2023-10-27 12:27:36.79,225,-84,-2043,86,-37,23,493,543,-50,-518
,196,2023-10-27 12:27:36.80,220,-86,-2046,88,-38,27,488,588,-100,-538
,197,2023-10-27 12:27:36.81,221,-93,-2059,92,-34,31,497,544,-47,-520
,198,2023-10-27 12:27:36.82,226,-93,-2051,94,-44,34,477,572,-95,-524
,199,2023-10-27 12:27:36.83,237,-108,-2057,96,-35,44,502,546,-44,-524
,200,2023-10-27 12:27:36.84,227,-96,-2060,95,-34,43,472,572,-100,-522
,201,2023-10-27 12:27:36.85,229,-99,-2059,91,-36,51,502,551,-49,-526
,202,2023-10-27 12:27:36.86,217,-99,-2044,83,-29,48,463,562,-99,-512
,203,2023-10-27 12:27:36.87,229,-83,-2041,80,-22,49,512,558,-46,-535
,204,2023-10-27 12:27:36.88,214,-86,-2045,65,-9,48,460,555,-95,-507
,205,2023-10-27 12:27:36.89,242,-88,-2023,54,-5,44,514,560,-46,-537
,206,2023-10-27 12:27:36.90,232,-91,-2029,42,13,40,460,549,-89,-504
,207,2023-10-27 12:27:36.91,230,-83,-2032,33,16,41,524,569,-45,-546
,208,2023-10-27 12:27:36.92,225,-83,-2028,20,36,33,454,548,-94,-501
,209,2023-10-27 12:27:36.93,244,-69,-2023,8,36,30,526,570,-44,-548
,210,2023-10-27 12:27:36.94,241,-68,-2029,-8,47,27,446,548,-102,-497
,211,2023-10-27 12:27:36.95,239,-63,-2020,-25,47,14,532,579,-47,-555
,212,2023-10-27 12:27:36.96,236,-60,-2025,-39,63,12,443,539,-96,-491
,213,2023-10-27 12:27:36.97,238,-54,-2027,-52,66,4,549,585,-36,-567
,214,2023-10-27 12:27:36.98,247,-43,-2049,-61,65,-1,442,529,-87,-485
,215,2023-10-27 12:27:36.99,249,-45,-2047,-74,65,-13,543,588,-45,-565
,216,2023-10-27 12:27:37.00,248,-55,-2057,-82,63,-19,422,515,-93,-468
,217,2023-10-27 12:27:37.01,257,-54,-2083,-83,58,-23,540,586,-46,-563
,218,2023-10-27 12:27:37.02,253,-66,-2107,-87,52,-25,415,515,-100,-465
,219,2023-10-27 12:27:37.03,255,-61,-2083,-88,58,-26,545,595,-50,-570
,220,2023-10-27 12:27:37.04,257,-74,-2060,-76,60,-37,411,506,-95,-458
,221,2023-10-27 12:27:37.05,259,-95,-2059,-55,72,-36,559,603,-44,-581
,222,2023-10-27 12:27:37.06,251,-113,-2047,-38,83,-36,412,512,-100,-462
,223,2023-10-27 12:27:37.07,248,-131,-2024,-12,100,-34,564,610,-46,-587
,224,2023-10-27 12:27:37.08,250,-146,-2036,23,104,-33,416,510,-94,-463
,225,2023-10-27 12:27:37.09,236,-160,-2046,51,97,-26,573,623,-50,-598
,226,2023-10-27 12:27:37.10,227,-155,-2038,81,92,-15,407,508,-101,-457
,227,2023-10-27 12:27:37.11,229,-166,-2037,114,71,-6,575,622,-47,-598
,228,2023-10-27 12:27:37.12,227,-185,-2060,143,43,10,408,508,-100,-458
,229,2023-10-27 12:27:37.13,228,-164,-2053,173,13,28,576,628,-52,-602
,230,2023-10-27 12:27:37.14,228,-156,-2029,199,-14,44,397,500,-103,-448
,231,2023-10-27 12:27:37.15,238,-149,-2031,215,-24,51,581,634,-53,-607
,232,2023-10-27 12:27:37.16,234,-164,-2048,221,-38,62,392,495,-103,-443
,233,2023-10-27 12:27:37.17,239,-168,-2072,235,-70,69,577,630,-53,-603
,234,2023-10-27 12:27:37.18,229,-166,-2064,259,-83,77,389,485,-96,-437
,235,2023-10-27 12:27:37.19,235,-164,-2044,290,-101,85,579,635,-56,-607
,236,2023-10-27 12:27:37.20,231,-173,-2062,313,-110,82,384,483,-99,-433
,237,2023-10-27 12:27:37.21,244,-169,-2037,333,-114,80,596,639,-43,-617
,238,2023-10-27 12:27:37.22,266,-164,-2042,354,-120,70,390,483,-93,-436
,239,2023-10-27 12:27:37.23,248,-184,-2072,365,-119,63,601,649,-48,-625
,240,2023-10-27 12:27:37.24,227,-173,-2100,361,-108,53,383,478,-95,-430
,241,2023-10-27 12:27:37.25,231,-178,-2073,363,-110,41,602,656,-54,-629
,242,2023-10-27 12:27:37.26,234,-191,-2072,369,-104,30,375,476,-101,-425
,243,2023-10-27 12:27:37.27,211,-197,-2072,374,-109,18,593,651,-58,-622
,244,2023-10-27 12:27:37.28,228,-194,-2048,374,-103,13,365,465,-100,-415
,245,2023-10-27 12:27:37.29,214,-215,-2032,380,-101,2,585,649,-64,-617
,246,2023-10-27 12:27:37.30,212,-215,-2027,380,-95,-7,348,455,-107,-401
,247,2023-10-27 12:27:37.31,191,-237,-2026,375,-87,-15,583,642,-59,-612
,248,2023-10-27 12:27:37.32,213,-250,-2002,371,-85,-13,353,454,-101,-403
,249,2023-10-27 12:27:37.33,233,-238,-1980,377,-76,-21,599,657,-58,-628
,250,2023-10-27 12:27:37.34,216,-251,-1971,379,-60,-28,362,456,-94,-409
,251,2023-10-27 12:27:37.35,207,-283,-1980,376,-50,-39,607,670,-63,-638
,252,2023-10-27 12:27:37.36,208,-310,-1977,378,-37,-42,368,460,-92,-414
,253,2023-10-27 12:27:37.37,225,-283,-1986,393,-41,-38,616,670,-54,-643
,254,2023-10-27 12:27:37.38,207,-301,-1997,394,-20,-43,382,469,-87,-425
,255,2023-10-27 12:27:37.39,210,-312,-2018,384,-16,-45,630,680,-50,-655
,256,2023-10-27 12:27:37.40,215,-303,-2029,376,-5,-46,377,461,-84,-419
,257,2023-10-27 12:27:37.41,214,-310,-2043,368,9,-46,639,683,-44,-661
,258,2023-10-27 12:27:37.42,208,-309,-2036,353,22,-55,376,459,-83,-417
,259,2023-10-27 12:27:37.43,223,-304,-2032,333,39,-56,634,685,-51,-659
,260,2023-10-27 12:27:37.44,225,-321,-2017,317,55,-60,374,456,-82,-415
,261,2023-10-27 12:27:37.45,224,-322,-2023,299,65,-66,634,692,-58,-663
,262,2023-10-27 12:27:37.46,221,-343,-2019,275,69,-63,359,452,-93,-405
,263,2023-10-27 12:27:37.47,218,-342,-2027,256,83,-64,627,684,-57,-655
,264,2023-10-27 12:27:37.48,206,-341,-2025,231,85,-62,352,444,-92,-398
,265,2023-10-27 12:27:37.49,215,-348,-2041,205,91,-58,619,685,-66,-652
,266,2023-10-27 12:27:37.50,205,-338,-2031,184,91,-57,342,438,-96,-390
,267,2023-10-27 12:27:37.51,219,-345,-2037,164,91,-54,617,684,-67,-650
,268,2023-10-27 12:27:37.52,209,-322,-2024,140,79,-55,332,436,-104,-384
,269,2023-10-27 12:27:37.53,225,-324,-2004,114,85,-56,606,682,-76,-644
,270,2023-10-27 12:27:37.54,245,-343,-2005,96,92,-60,327,432,-105,-379
,271,2023-10-27 12:27:37.55,246,-344,-2020,87,99,-65,596,687,-91,-641
,272,2023-10-27 12:27:37.56,255,-339,-2008,83,91,-63,309,428,-119,-368
,273,2023-10-27 12:27:37.57,247,-354,-2009,77,97,-66,586,682,-96,-634
,274,2023-10-27 12:27:37.58,257,-360,-2009,72,106,-64,304,429,-125,-366
,275,2023-10-27 12:27:37.59,266,-370,-2008,65,103,-64,576,685,-109,-630
,276,2023-10-27 12:27:37.60,285,-373,-2011,64,106,-62,300,427,-127,-363
,277,2023-10-27 12:27:37.61,281,-378,-2014,57,109,-52,574,691,-117,-632
,278,2023-10-27 12:27:37.62,279,-365,-2006,51,113,-51,293,430,-137,-361
,279,2023-10-27 12:27:37.63,287,-369,-2015,40,121,-43,567,690,-123,-628
,280,2023-10-27 12:27:37.64,282,-357,-2012,29,123,-42,288,423,-135,-355
,281,2023-10-27 12:27:37.65,293,-373,-2015,21,129,-30,552,689,-137,-620
,282,2023-10-27 12:27:37.66,285,-368,-2022,13,116,-25,276,425,-149,-350
,283,2023-10-27 12:27:37.67,304,-360,-2023,9,109,-17,551,692,-141,-621
,284,2023-10-27 12:27:37.68,295,-362,-1995,4,98,-6,285,433,-148,-359
,285,2023-10-27 12:27:37.69,293,-376,-2012,2,100,5,548,697,-149,-622
,286,2023-10-27 12:27:37.70,283,-367,-2024,-4,80,15,276,427,-151,-351
,287,2023-10-27 12:27:37.71,286,-372,-2006,-8,80,30,532,693,-161,-612
,288,2023-10-27 12:27:37.72,297,-377,-2002,-14,71,40,264,424,-160,-344
,289,2023-10-27 12:27:37.73,294,-369,-2009,-23,66,51,520,690,-170,-605
,290,2023-10-27 12:27:37.74,293,-372,-2020,-35,47,60,263,418,-155,-340
,291,2023-10-27 12:27:37.75,286,-360,-2023,-47,43,67,502,684,-182,-593
,292,2023-10-27 12:27:37.76,297,-357,-2016,-55,37,77,246,419,-173,-332
,293,2023-10-27 12:27:37.77,283,-358,-2027,-63,31,82,478,669,-191,-573
,294,2023-10-27 12:27:37.78,283,-352,-2033,-71,23,91,238,411,-173,-324
,295,2023-10-27 12:27:37.79,279,-342,-2038,-85,16,89,476,675,-199,-575
,296,2023-10-27 12:27:37.80,282,-335,-2040,-95,16,92,240,409,-169,-324
,297,2023-10-27 12:27:37.81,280,-331,-2036,-109,6,93,468,671,-203,-569
,298,2023-10-27 12:27:37.82,271,-327,-2035,-121,9,93,234,400,-166,-317
,299,2023-10-27 12:27:37.83,281,-318,-2030,-131,5,97,466,667,-201,-566
,300,2023-10-27 12:27:37.84,272,-321,-2039,-144,3,97,252,414,-162,-333
,301,2023-10-27 12:27:37.85,261,-321,-2035,-155,-8,96,473,673,-200,-573
,302,2023-10-27 12:27:37.86,289,-306,-2028,-162,-8,96,254,415,-161,-334
,303,2023-10-27 12:27:37.87,279,-305,-2034,-167,-2,97,471,670,-199,-570
,304,2023-10-27 12:27:37.88,287,-293,-2031,-181,-5,93,264,425,-161,-344
,305,2023-10-27 12:27:37.89,272,-285,-2029,-191,1,90,470,678,-208,-574
,306,2023-10-27 12:27:37.90,268,-282,-2031,-201,2,83,264,424,-160,-344
,307,2023-10-27 12:27:37.91,289,-286,-2007,-206,6,87,472,675,-203,-573
,308,2023-10-27 12:27:37.92,275,-275,-2018,-211,17,82,278,431,-153,-354
,309,2023-10-27 12:27:37.93,286,-272,-2019,-206,15,83,466,678,-212,-572
,310,2023-10-27 12:27:37.94,283,-276,-2031,-203,4,79,280,435,-155,-357
,311,2023-10-27 12:27:37.95,287,-281,-2023,-197,2,84,457,679,-222,-568
,312,2023-10-27 12:27:37.96,285,-272,-2037,-191,0,86,273,438,-165,-355
,313,2023-10-27 12:27:37.97,302,-280,-2036,-186,-1,91,428,669,-241,-548
,314,2023-10-27 12:27:37.98,280,-267,-2035,-172,-11,88,258,431,-173,-344
,315,2023-10-27 12:27:37.99,269,-260,-2037,-158,-15,96,409,669,-260,-539
,316,2023-10-27 12:27:38.00,272,-260,-2048,-149,-19,95,254,436,-182,-345
,317,2023-10-27 12:27:38.01,272,-240,-2044,-142,-18,102,405,667,-262,-536
,318,2023-10-27 12:27:38.02,268,-251,-2051,-118,-26,98,265,444,-179,-354
,319,2023-10-27 12:27:38.03,278,-247,-2050,-110,-30,97,410,670,-260,-540
,320,2023-10-27 12:27:38.04,275,-249,-2038,-91,-39,101,271,445,-174,-358
,321,2023-10-27 12:27:38.05,267,-247,-2047,-74,-37,99,411,669,-258,-540
,322,2023-10-27 12:27:38.06,244,-239,-2045,-58,-51,96,280,452,-172,-366
,323,2023-10-27 12:27:38.07,267,-240,-2049,-50,-52,91,408,662,-254,-535
,324,2023-10-27 12:27:38.08,264,-235,-2042,-44,-62,85,287,452,-165,-369
,325,2023-10-27 12:27:38.09,259,-231,-2039,-35,-48,88,417,668,-251,-542
,326,2023-10-27 12:27:38.10,246,-231,-2046,-27,-60,80,302,462,-160,-382
,327,2023-10-27 12:27:38.11,241,-233,-2033,-23,-61,75,414,664,-250,-539
,328,2023-10-27 12:27:38.12,232,-232,-2039,-20,-71,68,311,463,-152,-387
,329,2023-10-27 12:27:38.13,237,-236,-2038,-15,-65,67,411,661,-250,-536
,330,2023-10-27 12:27:38.14,228,-232,-2042,-12,-74,65,315,469,-154,-392
,331,2023-10-27 12:27:38.15,241,-225,-2020,-13,-74,59,407,658,-251,-532
,332,2023-10-27 12:27:38.16,237,-229,-2029,-14,-79,54,328,481,-153,-404
,333,2023-10-27 12:27:38.17,221,-232,-2039,-16,-70,56,404,667,-263,-535
,334,2023-10-27 12:27:38.18,244,-236,-2042,-18,-76,56,326,480,-154,-403
,335,2023-10-27 12:27:38.19,222,-238,-2045,-20,-70,57,405,653,-248,-529
,336,2023-10-27 12:27:38.20,221,-225,-2041,-24,-78,58,344,493,-149,-418
,337,2023-10-27 12:27:38.21,228,-229,-2046,-30,-73,59,401,653,-252,-527
,338,2023-10-27 12:27:38.22,222,-224,-2046,-37,-79,61,347,490,-143,-418
,339,2023-10-27 12:27:38.23,212,-233,-2042,-42,-80,61,395,643,-248,-519
,340,2023-10-27 12:27:38.24,215,-228,-2047,-44,-80,70,348,499,-151,-423
,341,2023-10-27 12:27:38.25,205,-233,-2048,-49,-79,70,383,640,-257,-511
,342,2023-10-27 12:27:38.26,216,-229,-2049,-55,-78,74,341,484,-143,-412
,343,2023-10-27 12:27:38.27,217,-229,-2053,-58,-76,76,384,641,-257,-512
,344,2023-10-27 12:27:38.28,204,-227,-2054,-63,-87,78,361,506,-145,-433
,345,2023-10-27 12:27:38.29,212,-221,-2054,-69,-95,77,385,632,-247,-508
,346,2023-10-27 12:27:38.30,203,-211,-2061,-73,-99,83,372,510,-138,-441
,347,2023-10-27 12:27:38.31,198,-221,-2070,-83,-109,85,380,633,-253,-506
,348,2023-10-27 12:27:38.32,194,-210,-2066,-90,-120,86,380,522,-142,-451
,349,2023-10-27 12:27:38.33,192,-205,-2066,-100,-137,92,372,624,-252,-498
,350,2023-10-27 12:27:38.34,181,-206,-2064,-112,-151,97,379,521,-142,-450
,351,2023-10-27 12:27:38.35,179,-210,-2061,-124,-157,101,344,598,-254,-471
,352,2023-10-27 12:27:38.36,176,-198,-2045,-136,-160,105,360,499,-139,-429
,353,2023-10-27 12:27:38.37,174,-213,-2052,-143,-154,109,361,596,-235,-478
,354,2023-10-27 12:27:38.38,161,-201,-2044,-151,-158,116,399,530,-131,-464
,355,2023-10-27 12:27:38.39,157,-201,-2052,-157,-151,122,371,610,-239,-490
,356,2023-10-27 12:27:38.40,153,-187,-2047,-169,-146,124,406,533,-127,-469
,357,2023-10-27 12:27:38.41,143,-186,-2066,-173,-147,128,365,602,-237,-483
,358,2023-10-27 12:27:38.42,139,-170,-2087,-178,-154,135,411,538,-127,-474
,359,2023-10-27 12:27:38.43,131,-169,-2082,-180,-164,137,364,594,-230,-479
,360,2023-10-27 12:27:38.44,124,-165,-2076,-180,-171,139,422,547,-125,-484
,361,2023-10-27 12:27:38.45,136,-160,-2081,-180,-184,142,362,595,-233,-478
,362,2023-10-27 12:27:38.46,128,-143,-2083,-180,-197,137,424,550,-126,-487
,363,2023-10-27 12:27:38.47,116,-131,-2069,-180,-200,134,362,584,-222,-473
,364,2023-10-27 12:27:38.48,121,-134,-2060,-180,-201,136,440,561,-121,-500
,365,2023-10-27 12:27:38.49,104,-133,-2052,-185,-201,137,365,587,-222,-476
,366,2023-10-27 12:27:38.50,109,-134,-2059,-187,-208,140,448,565,-117,-506
,367,2023-10-27 12:27:38.51,97,-134,-2075,-188,-218,140,366,577,-211,-471
,368,2023-10-27 12:27:38.52,106,-123,-2071,-185,-231,146,456,572,-116,-514
,369,2023-10-27 12:27:38.53,92,-119,-2060,-178,-241,153,360,574,-214,-467
,370,2023-10-27 12:27:38.54,86,-120,-2060,-174,-234,155,466,576,-110,-521
,371,2023-10-27 12:27:38.55,72,-111,-2048,-172,-232,157,369,572,-203,-470
,372,2023-10-27 12:27:38.56,81,-112,-2049,-163,-223,158,470,582,-112,-526
,373,2023-10-27 12:27:38.57,85,-106,-2037,-152,-218,161,363,561,-198,-462
,374,2023-10-27 12:27:38.58,77,-96,-2033,-143,-201,159,472,586,-114,-529
,375,2023-10-27 12:27:38.59,79,-103,-2026,-135,-193,152,356,557,-201,-456
,376,2023-10-27 12:27:38.60,87,-98,-2021,-124,-177,147,478,590,-112,-534
,377,2023-10-27 12:27:38.61,78,-100,-2029,-110,-164,144,354,551,-197,-452
,378,2023-10-27 12:27:38.62,82,-90,-2030,-101,-156,141,481,598,-117,-539
,379,2023-10-27 12:27:38.63,71,-96,-2028,-91,-139,137,350,554,-204,-452
,380,2023-10-27 12:27:38.64,78,-91,-2026,-80,-131,129,493,610,-117,-551
,381,2023-10-27 12:27:38.65,88,-99,-2027,-61,-125,128,329,539,-210,-434
,382,2023-10-27 12:27:38.66,86,-98,-2017,-49,-117,120,471,595,-124,-533
,383,2023-10-27 12:27:38.67,80,-99,-2033,-33,-104,114,300,510,-210,-405
,384,2023-10-27 12:27:38.68,83,-113,-2015,-18,-92,109,484,601,-117,-542
,385,2023-10-27 12:27:38.69,74,-122,-2031,2,-84,104,324,527,-203,-425
,386,2023-10-27 12:27:38.70,83,-130,-2029,19,-73,100,498,616,-118,-557
,387,2023-10-27 12:27:38.71,80,-141,-2023,38,-58,101,321,520,-199,-420
,388,2023-10-27 12:27:38.72,80,-144,-2031,58,-53,98,500,619,-119,-559
,389,2023-10-27 12:27:38.73,87,-148,-2037,74,-33,99,313,517,-204,-415
,390,2023-10-27 12:27:38.74,75,-143,-2033,93,-23,90,499,620,-121,-559
,391,2023-10-27 12:27:38.75,71,-149,-2030,106,-10,86,318,514,-196,-416
,392,2023-10-27 12:27:38.76,84,-157,-2031,117,5,80,518,633,-115,-575
,393,2023-10-27 12:27:38.77,82,-155,-2029,127,21,77,316,512,-196,-414
,394,2023-10-27 12:27:38.78,82,-158,-2030,138,27,69,518,634,-116,-576
,395,2023-10-27 12:27:38.79,82,-166,-2026,150,50,65,313,508,-195,-410
,396,2023-10-27 12:27:38.80,100,-172,-2037,155,64,57,525,644,-119,-584
,397,2023-10-27 12:27:38.81,101,-171,-2037,158,68,51,316,504,-188,-410
,398,2023-10-27 12:27:38.82,87,-170,-2029,161,78,39,537,653,-116,-595
,399,2023-10-27 12:27:38.83,98,-191,-2046,168,94,36,320,504,-184,-412
,400,2023-10-27 12:27:38.84,104,-183,-2049,165,95,22,534,650,-116,-592
,401,2023-10-27 12:27:38.85,106,-180,-2040,162,108,12,313,494,-181,-403
,402,2023-10-27 12:27:38.86,105,-180,-2035,163,107,1,540,658,-118,-599
,403,2023-10-27 12:27:38.87,112,-186,-2038,163,109,-7,309,493,-184,-401
,404,2023-10-27 12:27:38.88,111,-191,-2047,163,106,-20,540,660,-120,-600
,405,2023-10-27 12:27:38.89,119,-199,-2048,165,112,-23,310,493,-183,-401
,406,2023-10-27 12:27:38.90,122,-210,-2036,166,96,-35,541,669,-128,-605
,407,2023-10-27 12:27:38.91,120,-221,-2042,170,96,-36,292,478,-186,-385
,408,2023-10-27 12:27:38.92,110,-218,-2057,172,84,-38,528,656,-128,-592
,409,2023-10-27 12:27:38.93,108,-224,-2047,170,83,-40,291,479,-188,-385
,410,2023-10-27 12:27:38.94,115,-225,-2047,172,63,-44,539,665,-126,-602
,411,2023-10-27 12:27:38.95,113,-244,-2054,174,68,-44,289,473,-184,-381
,412,2023-10-27 12:27:38.96,133,-245,-2054,183,53,-40,546,671,-125,-608
,413,2023-10-27 12:27:38.97,111,-251,-2057,184,47,-42,288,471,-183,-379
,414,2023-10-27 12:27:38.98,127,-258,-2046,185,33,-37,542,673,-131,-607
,415,2023-10-27 12:27:38.99,123,-252,-2037,180,36,-40,281,462,-181,-371
,416,2023-10-27 12:27:39.00,121,-255,-2042,183,45,-30,546,677,-131,-611
,417,2023-10-27 12:27:39.01,110,-256,-2043,176,39,-38,288,466,-178,-377
,418,2023-10-27 12:27:39.02,101,-271,-2033,175,37,-32,557,681,-124,-619
,419,2023-10-27 12:27:39.03,129,-256,-2036,169,35,-31,285,463,-178,-374
,420,2023-10-27 12:27:39.04,116,-275,-2012,165,48,-30,548,680,-132,-614
,421,2023-10-27 12:27:39.05,127,-267,-2023,161,54,-27,282,457,-175,-369
,422,2023-10-27 12:27:39.06,132,-275,-2037,157,59,-25,554,688,-134,-621
,423,2023-10-27 12:27:39.07,120,-281,-2047,155,60,-21,282,456,-174,-369
,424,2023-10-27 12:27:39.08,134,-279,-2040,154,54,-20,549,685,-136,-617
,425,2023-10-27 12:27:39.09,128,-283,-2049,156,58,-17,282,457,-175,-369
,426,2023-10-27 12:27:39.10,126,-283,-2041,151,47,-17,551,688,-137,-619
,427,2023-10-27 12:27:39.11,132,-284,-2036,150,55,-16,280,452,-172,-366
,428,2023-10-27 12:27:39.12,143,-276,-2033,148,56,-17,556,691,-135,-623
,429,2023-10-27 12:27:39.13,117,-281,-2025,143,67,-20,280,451,-171,-365
,430,2023-10-27 12:27:39.14,129,-280,-2014,133,67,-17,553,692,-139,-622
,431,2023-10-27 12:27:39.15,134,-280,-2022,125,75,-19,282,446,-164,-364
,432,2023-10-27 12:27:39.16,131,-282,-2034,117,74,-16,553,695,-142,-624
,433,2023-10-27 12:27:39.17,125,-285,-2025,109,73,-16,276,447,-171,-361
,434,2023-10-27 12:27:39.18,125,-290,-2037,100,79,-10,546,692,-146,-619
,435,2023-10-27 12:27:39.19,135,-283,-2035,92,75,-11,276,445,-169,-360
,436,2023-10-27 12:27:39.20,143,-289,-2038,87,77,-11,555,697,-142,-626
,437,2023-10-27 12:27:39.21,142,-282,-2041,77,70,-14,279,440,-161,-359
,438,2023-10-27 12:27:39.22,140,-280,-2034,71,78,-11,554,695,-141,-624
,439,2023-10-27 12:27:39.23,138,-282,-2039,66,72,-13,277,444,-167,-360
,440,2023-10-27 12:27:39.24,129,-283,-2042,60,73,-13,553,699,-146,-626
,441,2023-10-27 12:27:39.25,147,-286,-2051,59,63,-16,287,440,-153,-363
,442,2023-10-27 12:27:39.26,136,-280,-2040,51,70,-15,560,703,-143,-631
,443,2023-10-27 12:27:39.27,150,-279,-2033,47,64,-14,283,440,-157,-361
,444,2023-10-27 12:27:39.28,145,-286,-2033,43,58,-23,549,696,-147,-622
,445,2023-10-27 12:27:39.29,149,-282,-2035,40,66,-19,275,438,-163,-356
,446,2023-10-27 12:27:39.30,147,-291,-2041,39,60,-21,542,696,-154,-619
,447,2023-10-27 12:27:39.31,156,-287,-2046,37,59,-24,276,432,-156,-354
,448,2023-10-27 12:27:39.32,151,-286,-2042,31,50,-24,544,696,-152,-620
,449,2023-10-27 12:27:39.33,157,-285,-2034,30,56,-24,275,432,-157,-353
,450,2023-10-27 12:27:39.34,149,-288,-2036,29,51,-23,536,691,-155,-613
,451,2023-10-27 12:27:39.35,141,-290,-2042,25,47,-21,278,433,-155,-355
,452,2023-10-27 12:27:39.36,156,-286,-2039,24,43,-18,543,698,-155,-620
,453,2023-10-27 12:27:39.37,139,-288,-2028,24,42,-18,285,435,-150,-360
,454,2023-10-27 12:27:39.38,162,-292,-2041,25,45,-17,544,692,-148,-618
,455,2023-10-27 12:27:39.39,153,-283,-2041,21,44,-21,285,433,-148,-359
,456,2023-10-27 12:27:39.40,162,-279,-2033,21,48,-20,522,685,-163,-603
,457,2023-10-27 12:27:39.41,166,-287,-2032,21,50,-24,286,432,-146,-359
,458,2023-10-27 12:27:39.42,148,-290,-2041,21,53,-26,540,696,-156,-618
,459,2023-10-27 12:27:39.43,159,-290,-2037,19,46,-28,292,440,-148,-366
,460,2023-10-27 12:27:39.44,163,-281,-2034,22,48,-31,537,692,-155,-614
,461,2023-10-27 12:27:39.45,158,-275,-2021,21,52,-32,293,437,-144,-365
,462,2023-10-27 12:27:39.46,165,-275,-2024,15,58,-37,529,690,-161,-609
,463,2023-10-27 12:27:39.47,166,-277,-2031,13,60,-41,292,433,-141,-362
,464,2023-10-27 12:27:39.48,161,-277,-2028,11,63,-46,532,691,-159,-611
,465,2023-10-27 12:27:39.49,175,-276,-2022,9,69,-47,299,440,-141,-369
,466,2023-10-27 12:27:39.50,167,-281,-2026,3,69,-54,528,692,-164,-610
,467,2023-10-27 12:27:39.51,175,-280,-2029,1,77,-51,298,438,-140,-368
,468,2023-10-27 12:27:39.52,164,-287,-2038,2,77,-51,528,694,-166,-611
,469,2023-10-27 12:27:39.53,159,-280,-2044,2,83,-52,304,442,-138,-373
,470,2023-10-27 12:27:39.54,167,-279,-2047,-2,74,-56,528,689,-161,-608
,471,2023-10-27 12:27:39.55,173,-275,-2033,-5,79,-51,309,442,-133,-375
,472,2023-10-27 12:27:39.56,164,-281,-2040,-8,76,-53,519,686,-167,-602
,473,2023-10-27 12:27:39.57,164,-287,-2047,-14,76,-53,310,437,-127,-373
,474,2023-10-27 12:27:39.58,173,-279,-2043,-12,69,-50,519,683,-164,-601
,475,2023-10-27 12:27:39.59,150,-285,-2046,-8,64,-45,312,446,-134,-379
,476,2023-10-27 12:27:39.60,163,-280,-2048,-9,55,-40,509,682,-173,-595
,477,2023-10-27 12:27:39.61,165,-278,-2045,-9,41,-39,314,444,-130,-379
,478,2023-10-27 12:27:39.62,152,-281,-2053,-5,31,-31,512,683,-171,-597
,479,2023-10-27 12:27:39.63,163,-282,-2048,-1,10,-26,323,447,-124,-385
,480,2023-10-27 12:27:39.64,163,-280,-2049,2,15,-15,505,679,-174,-592
,481,2023-10-27 12:27:39.65,163,-287,-2050,2,-3,-11,330,454,-124,-392
,482,2023-10-27 12:27:39.66,155,-294,-2044,2,-4,0,502,679,-177,-590
,483,2023-10-27 12:27:39.67,148,-281,-2043,8,-16,6,328,453,-125,-390
,484,2023-10-27 12:27:39.68,160,-294,-2032,9,-2,15,500,674,-174,-587
,485,2023-10-27 12:27:39.69,157,-286,-2028,4,-9,17,336,457,-121,-396
,486,2023-10-27 12:27:39.70,164,-290,-2029,3,1,28,497,673,-176,-585
,487,2023-10-27 12:27:39.71,167,-294,-2030,5,8,34,343,460,-117,-401
,488,2023-10-27 12:27:39.72,164,-288,-2021,3,17,32,492,675,-183,-583
,489,2023-10-27 12:27:39.73,172,-287,-2022,2,21,35,346,466,-120,-406
,490,2023-10-27 12:27:39.74,177,-284,-2035,6,31,31,486,667,-181,-576
,491,2023-10-27 12:27:39.75,185,-275,-2020,10,34,32,355,468,-113,-411
,492,2023-10-27 12:27:39.76,209,-271,-2032,14,42,20,482,670,-188,-576
,493,2023-10-27 12:27:39.77,205,-271,-2026,15,51,10,352,472,-120,-412
,494,2023-10-27 12:27:39.78,207,-272,-2026,15,56,-2,482,663,-181,-572
,495,2023-10-27 12:27:39.79,200,-282,-2008,20,69,-3,355,474,-119,-414
,496,2023-10-27 12:27:39.80,215,-280,-2021,17,70,-14,460,657,-197,-558
,497,2023-10-27 12:27:39.81,216,-280,-2036,13,85,-17,345,464,-119,-404
,498,2023-10-27 12:27:39.82,215,-272,-2028,10,82,-19,457,656,-199,-556
,499,2023-10-27 12:27:39.83,204,-264,-2021,7,85,-30,361,481,-120,-421
,500,2023-10-27 12:27:39.84,202,-266,-2039,3,77,-34,447,652,-205,-549
,501,2023-10-27 12:27:39.85,213,-263,-2035,-2,81,-37,366,486,-120,-426
,502,2023-10-27 12:27:39.86,205,-262,-2050,0,76,-38,446,650,-204,-548
,503,2023-10-27 12:27:39.87,208,-273,-2041,1,60,-42,370,483,-113,-426
,504,2023-10-27 12:27:39.88,207,-269,-2050,2,62,-40,442,646,-204,-544
,505,2023-10-27 12:27:39.89,213,-267,-2054,2,56,-38,377,496,-119,-436
,506,2023-10-27 12:27:39.90,212,-269,-2070,1,42,-42,429,637,-208,-533
,507,2023-10-27 12:27:39.91,203,-278,-2082,2,41,-31,388,506,-118,-447
,508,2023-10-27 12:27:39.92,210,-296,-2103,5,18,-31,430,638,-208,-534
,509,2023-10-27 12:27:39.93,195,-299,-2158,9,8,-22,397,512,-115,-454
,510,2023-10-27 12:27:39.94,206,-287,-2152,21,-15,-5,430,629,-199,-529
,511,2023-10-27 12:27:39.95,231,-238,-2053,34,-18,-1,419,528,-109,-473
,512,2023-10-27 12:27:39.96,253,-249,-1976,41,14,-5,437,630,-193,-533
,513,2023-10-27 12:27:39.97,265,-304,-1999,35,70,-18,433,532,-99,-482
,514,2023-10-27 12:27:39.98,256,-296,-1995,35,113,-17,437,627,-190,-532
,515,2023-10-27 12:27:39.99,276,-315,-1951,54,156,-23,442,546,-104,-494
,516,2023-10-27 12:27:40.00,265,-323,-1935,87,187,-25,420,627,-207,-523
,517,2023-10-27 12:27:40.01,275,-313,-1945,105,209,-30,428,538,-110,-483
,518,2023-10-27 12:27:40.02,252,-300,-1959,120,221,-30,396,620,-224,-508
,519,2023-10-27 12:27:40.03,264,-278,-1925,130,217,-28,412,537,-125,-474
,520,2023-10-27 12:27:40.04,265,-278,-1910,136,223,-28,377,606,-229,-491
,521,2023-10-27 12:27:40.05,277,-289,-1932,140,219,-33,407,541,-134,-474
,522,2023-10-27 12:27:40.06,273,-289,-1980,140,211,-30,355,599,-244,-477
,523,2023-10-27 12:27:40.07,258,-285,-2006,147,200,-28,404,538,-134,-471
,524,2023-10-27 12:27:40.08,279,-268,-1994,147,174,-30,345,594,-249,-469
,525,2023-10-27 12:27:40.09,280,-275,-2035,129,152,-42,397,542,-145,-469
,526,2023-10-27 12:27:40.10,293,-265,-2029,115,154,-44,325,579,-254,-452
,527,2023-10-27 12:27:40.11,294,-284,-2052,103,152,-50,392,543,-151,-467
,528,2023-10-27 12:27:40.12,291,-280,-2069,85,149,-54,298,572,-274,-435
,529,2023-10-27 12:27:40.13,298,-274,-2051,70,146,-59,382,540,-158,-461
,530,2023-10-27 12:27:40.14,306,-294,-2061,60,142,-66,281,562,-281,-421
,531,2023-10-27 12:27:40.15,298,-304,-2089,42,156,-70,375,549,-174,-462
,532,2023-10-27 12:27:40.16,302,-298,-2076,23,162,-72,267,558,-291,-412
,533,2023-10-27 12:27:40.17,303,-283,-2042,11,181,-77,383,547,-164,-465
,534,2023-10-27 12:27:40.18,302,-300,-2039,-5,204,-85,276,558,-282,-417
,535,2023-10-27 12:27:40.19,310,-297,-2010,-16,200,-89,392,555,-163,-473
,536,2023-10-27 12:27:40.20,312,-297,-2002,-28,227,-93,252,543,-291,-397
,537,2023-10-27 12:27:40.21,313,-310,-2008,-36,226,-97,372,551,-179,-461
,538,2023-10-27 12:27:40.22,306,-311,-2011,-39,226,-100,226,518,-292,-372
,539,2023-10-27 12:27:40.23,318,-295,-2006,-41,220,-100,370,549,-179,-459
,540,2023-10-27 12:27:40.24,305,-295,-1992,-37,218,-100,238,529,-291,-383
,541,2023-10-27 12:27:40.25,314,-292,-1984,-38,207,-103,381,561,-180,-471
,542,2023-10-27 12:27:40.26,305,-310,-1960,-42,195,-109,224,519,-295,-371
,543,2023-10-27 12:27:40.27,326,-321,-1964,-32,204,-111,372,553,-181,-462
,544,2023-10-27 12:27:40.28,318,-328,-1973,-18,200,-113,206,509,-303,-357
,545,2023-10-27 12:27:40.29,320,-351,-2004,-9,200,-115,369,560,-191,-464
,546,2023-10-27 12:27:40.30,330,-342,-2013,6,190,-114,210,510,-300,-360
,547,2023-10-27 12:27:40.31,352,-337,-2000,21,183,-118,384,573,-189,-478
,548,2023-10-27 12:27:40.32,356,-347,-2021,35,187,-121,222,517,-295,-369
,549,2023-10-27 12:27:40.33,362,-338,-2028,45,182,-120,425,599,-174,-512
,550,2023-10-27 12:27:40.34,361,-344,-2006,55,182,-126,253,530,-277,-391
,551,2023-10-27 12:27:40.35,378,-349,-2018,66,190,-125,446,618,-172,-532
,552,2023-10-27 12:27:40.36,381,-349,-2015,73,193,-124,255,529,-274,-392
,553,2023-10-27 12:27:40.37,374,-356,-2018,84,190,-127,365,632,-267,-498
,554,2023-10-27 12:27:40.38,382,-362,-2036,93,177,-126,47,530,-483,-288
,555,2023-10-27 12:27:40.39,369,-350,-2069,96,167,-124,280,635,-355,-457
,556,2023-10-27 12:27:40.40,378,-362,-2082,98,150,-116,73,530,-457,-301
,557,2023-10-27 12:27:40.41,379,-347,-2071,100,118,-112,319,641,-322,-480
,558,2023-10-27 12:27:40.42,375,-345,-2069,103,101,-103,64,521,-457,-292
,559,2023-10-27 12:27:40.43,390,-337,-2050,103,75,-99,294,645,-351,-469
,560,2023-10-27 12:27:40.44,382,-331,-2038,97,46,-97,32,514,-482,-273
,561,2023-10-27 12:27:40.45,369,-341,-2014,87,21,-93,270,641,-371,-455
,562,2023-10-27 12:27:40.46,384,-333,-2011,79,15,-90,18,506,-488,-262
,563,2023-10-27 12:27:40.47,366,-339,-2012,69,3,-80,262,642,-380,-452
,564,2023-10-27 12:27:40.48,374,-348,-2001,55,-17,-78,8,501,-493,-254
,565,2023-10-27 12:27:40.49,380,-348,-2000,44,-26,-67,263,643,-380,-453
,566,2023-10-27 12:27:40.50,378,-346,-2006,35,-36,-55,8,496,-488,-252
,567,2023-10-27 12:27:40.51,381,-350,-2001,26,-40,-41,263,650,-387,-456
,568,2023-10-27 12:27:40.52,383,-367,-2005,17,-41,-28,7,488,-481,-247
,569,2023-10-27 12:27:40.53,379,-357,-2010,7,-41,-13,266,657,-391,-461
,570,2023-10-27 12:27:40.54,376,-357,-2005,0,-34,4,7,485,-478,-246
,571,2023-10-27 12:27:40.55,386,-358,-2009,-5,-36,18,267,657,-390,-462
,572,2023-10-27 12:27:40.56,392,-357,-2009,-12,-36,31,13,485,-472,-249
,573,2023-10-27 12:27:40.57,389,-355,-2017,-17,-28,43,273,663,-390,-468
,574,2023-10-27 12:27:40.58,397,-354,-2028,-17,-33,55,12,479,-467,-245
,575,2023-10-27 12:27:40.59,393,-352,-2031,-15,-36,69,273,670,-397,-471
,576,2023-10-27 12:27:40.60,398,-338,-2020,-17,-37,81,16,484,-468,-250
,577,2023-10-27 12:27:40.61,397,-339,-2010,-19,-30,94,265,671,-406,-468
,578,2023-10-27 12:27:40.62,400,-334,-2017,-25,-39,100,4,471,-467,-237
,579,2023-10-27 12:27:40.63,401,-329,-2025,-31,-38,110,250,657,-407,-453
,580,2023-10-27 12:27:40.64,385,-320,-2017,-37,-39,116,0,469,-469,-234
,581,2023-10-27 12:27:40.65,379,-312,-2016,-41,-42,121,261,675,-414,-468
,582,2023-10-27 12:27:40.66,378,-322,-2018,-43,-42,128,2,475,-473,-238
,583,2023-10-27 12:27:40.67,383,-320,-2011,-50,-51,131,254,680,-426,-467
,584,2023-10-27 12:27:40.68,379,-305,-2017,-53,-57,138,-8,460,-468,-226
,585,2023-10-27 12:27:40.69,378,-299,-2014,-53,-67,145,248,680,-432,-464
,586,2023-10-27 12:27:40.70,369,-304,-2014,-56,-65,144,-6,464,-470,-229
,587,2023-10-27 12:27:40.71,363,-313,-2019,-58,-73,146,253,685,-432,-469
,588,2023-10-27 12:27:40.72,382,-310,-2022,-59,-84,145,3,457,-454,-230
,589,2023-10-27 12:27:40.73,365,-301,-2020,-57,-82,148,261,690,-429,-475
,590,2023-10-27 12:27:40.74,367,-303,-2015,-55,-83,145,4,456,-452,-230
,591,2023-10-27 12:27:40.75,368,-304,-2013,-59,-86,144,262,688,-426,-475
,592,2023-10-27 12:27:40.76,359,-294,-2019,-58,-85,140,16,459,-443,-237
,593,2023-10-27 12:27:40.77,355,-292,-2015,-57,-82,136,264,695,-431,-479
,594,2023-10-27 12:27:40.78,359,-292,-2026,-57,-80,138,24,455,-431,-239
,595,2023-10-27 12:27:40.79,352,-290,-2026,-58,-81,136,268,702,-434,-485
,596,2023-10-27 12:27:40.80,342,-286,-2034,-55,-82,136,26,458,-432,-242
,597,2023-10-27 12:27:40.81,345,-285,-2032,-54,-94,132,273,700,-427,-486
,598,2023-10-27 12:27:40.82,348,-283,-2032,-54,-96,133,35,456,-421,-245
,599,2023-10-27 12:27:40.83,337,-280,-2028,-53,-99,132,270,705,-435,-487
,600,2023-10-27 12:27:40.84,337,-283,-2029,-55,-100,130,31,453,-422,-242
,601,2023-10-27 12:27:40.85,341,-278,-2031,-53,-101,129,262,710,-448,-486
,602,2023-10-27 12:27:40.86,343,-282,-2037,-55,-98,129,27,452,-425,-239
,603,2023-10-27 12:27:40.87,329,-279,-2030,-55,-103,127,252,704,-452,-478
,604,2023-10-27 12:27:40.88,337,-269,-2017,-50,-99,129,26,449,-423,-237
,605,2023-10-27 12:27:40.89,330,-269,-2009,-51,-102,128,246,709,-463,-477
,606,2023-10-27 12:27:40.90,333,-260,-2012,-51,-93,124,22,447,-425,-234
,607,2023-10-27 12:27:40.91,334,-261,-2013,-54,-97,123,248,707,-459,-477
,608,2023-10-27 12:27:40.92,324,-263,-2014,-53,-87,124,34,448,-414,-241
,609,2023-10-27 12:27:40.93,332,-259,-2023,-50,-94,122,247,707,-460,-477
,610,2023-10-27 12:27:40.94,324,-268,-2016,-47,-93,121,43,442,-399,-242
,611,2023-10-27 12:27:40.95,329,-271,-2033,-44,-101,117,246,712,-466,-479
,612,2023-10-27 12:27:40.96,327,-266,-2034,-44,-100,112,38,446,-408,-242
,613,2023-10-27 12:27:40.97,315,-258,-2034,-40,-95,109,242,709,-467,-475
,614,2023-10-27 12:27:40.98,325,-266,-2024,-37,-99,106,47,440,-393,-243
,615,2023-10-27 12:27:40.99,317,-264,-2029,-34,-93,106,232,708,-476,-470
,616,2023-10-27 12:27:41.00,313,-265,-2017,-30,-97,105,38,435,-397,-236
,617,2023-10-27 12:27:41.01,309,-275,-2013,-26,-94,101,234,709,-475,-471
,618,2023-10-27 12:27:41.02,306,-265,-2013,-25,-80,106,46,444,-398,-245
,619,2023-10-27 12:27:41.03,295,-267,-2009,-21,-81,100,223,706,-483,-464
,620,2023-10-27 12:27:41.04,294,-273,-2020,-16,-76,96,40,426,-386,-233
,621,2023-10-27 12:27:41.05,295,-270,-2033,-15,-74,99,222,706,-484,-464
,622,2023-10-27 12:27:41.06,285,-274,-2044,-9,-73,96,53,437,-384,-245
,623,2023-10-27 12:27:41.07,293,-269,-2037,-2,-79,93,224,717,-493,-470
,624,2023-10-27 12:27:41.08,288,-267,-2039,0,-84,88,63,445,-382,-254
,625,2023-10-27 12:27:41.09,290,-269,-2024,2,-69,90,213,707,-494,-460
,626,2023-10-27 12:27:41.10,292,-264,-2022,2,-72,86,66,442,-376,-254
,627,2023-10-27 12:27:41.11,280,-268,-2013,4,-64,77,212,707,-495,-459
,628,2023-10-27 12:27:41.12,275,-270,-2005,5,-54,73,67,438,-371,-252
,629,2023-10-27 12:27:41.13,285,-271,-2008,8,-50,69,206,707,-501,-456
,630,2023-10-27 12:27:41.14,277,-273,-2010,7,-45,67,72,444,-372,-258
,631,2023-10-27 12:27:41.15,267,-276,-2021,8,-46,64,200,702,-502,-451
,632,2023-10-27 12:27:41.16,265,-269,-2012,11,-37,57,83,439,-356,-261
,633,2023-10-27 12:27:41.17,287,-276,-2016,11,-30,54,205,705,-500,-455
,634,2023-10-27 12:27:41.18,273,-269,-2016,8,-30,43,87,445,-358,-266
,635,2023-10-27 12:27:41.19,272,-267,-2019,4,-24,35,197,700,-503,-448
,636,2023-10-27 12:27:41.20,279,-267,-2018,3,-26,28,89,447,-358,-268
,637,2023-10-27 12:27:41.21,279,-268,-2017,3,-24,25,187,700,-513,-443
,638,2023-10-27 12:27:41.22,274,-272,-2022,0,-21,21,95,443,-348,-269
,639,2023-10-27 12:27:41.23,276,-269,-2021,-4,-24,11,191,694,-503,-442
,640,2023-10-27 12:27:41.24,282,-272,-2027,-6,-24,11,102,447,-345,-274
,641,2023-10-27 12:27:41.25,279,-278,-2032,-7,-27,6,179,691,-512,-435
,642,2023-10-27 12:27:41.26,291,-269,-2033,-9,-19,5,105,447,-342,-276
,643,2023-10-27 12:27:41.27,282,-268,-2032,-8,-27,2,179,694,-515,-436
,644,2023-10-27 12:27:41.28,277,-281,-2046,-11,-25,-1,111,451,-340,-281
,645,2023-10-27 12:27:41.29,273,-272,-2043,-12,-30,1,174,690,-516,-432
,646,2023-10-27 12:27:41.30,274,-269,-2035,-14,-36,-5,118,457,-339,-287
,647,2023-10-27 12:27:41.31,281,-277,-2029,-12,-34,-5,164,687,-523,-425
,648,2023-10-27 12:27:41.32,263,-274,-2030,-12,-43,-10,126,456,-330,-291
,649,2023-10-27 12:27:41.33,269,-273,-2037,-10,-46,-5,168,687,-519,-427
,650,2023-10-27 12:27:41.34,288,-277,-2026,-5,-52,-6,129,462,-333,-295
,651,2023-10-27 12:27:41.35,282,-281,-2040,0,-58,-8,155,678,-523,-416
,652,2023-10-27 12:27:41.36,271,-270,-2039,1,-63,-7,132,458,-326,-295
,653,2023-10-27 12:27:41.37,270,-271,-2040,4,-67,-11,147,678,-531,-412
,654,2023-10-27 12:27:41.38,275,-268,-2028,6,-68,-8,130,463,-333,-296
,655,2023-10-27 12:27:41.39,271,-283,-2037,9,-70,-11,136,670,-534,-403
,656,2023-10-27 12:27:41.40,264,-279,-2031,6,-74,-6,128,464,-336,-296
,657,2023-10-27 12:27:41.41,270,-283,-2033,12,-80,-5,120,665,-545,-392
,658,2023-10-27 12:27:41.42,272,-279,-2024,15,-76,-2,139,470,-331,-304
,659,2023-10-27 12:27:41.43,272,-278,-2009,9,-75,-1,126,668,-542,-397
,660,2023-10-27 12:27:41.44,258,-274,-2010,6,-70,-5,146,471,-325,-308
,661,2023-10-27 12:27:41.45,256,-275,-2015,3,-63,-3,109,640,-531,-374
,662,2023-10-27 12:27:41.46,255,-276,-2016,1,-62,1,152,474,-322,-313
,663,2023-10-27 12:27:41.47,259,-278,-2031,1,-60,4,114,652,-538,-383
,664,2023-10-27 12:27:41.48,240,-284,-2037,-1,-54,7,150,480,-330,-315
,665,2023-10-27 12:27:41.49,249,-281,-2046,-3,-56,5,114,654,-540,-384
,666,2023-10-27 12:27:41.50,243,-280,-2042,-10,-60,10,158,483,-325,-320
,667,2023-10-27 12:27:41.51,248,-278,-2040,-11,-60,14,109,642,-533,-375
,668,2023-10-27 12:27:41.52,227,-279,-2038,-11,-56,16,173,485,-312,-329
,669,2023-10-27 12:27:41.53,240,-274,-2030,-18,-51,15,111,645,-534,-378
,670,2023-10-27 12:27:41.54,238,-272,-2021,-22,-52,18,178,493,-315,-335
,671,2023-10-27 12:27:41.55,232,-273,-2016,-25,-42,14,107,636,-529,-371
,672,2023-10-27 12:27:41.56,241,-273,-2028,-28,-35,15,181,500,-319,-340
,673,2023-10-27 12:27:41.57,246,-276,-2028,-28,-30,14,101,632,-531,-366
,674,2023-10-27 12:27:41.58,245,-273,-2026,-23,-32,12,191,500,-309,-345
,675,2023-10-27 12:27:41.59,235,-271,-2026,-19,-35,15,101,633,-532,-367
,676,2023-10-27 12:27:41.60,226,-272,-2031,-16,-42,12,190,507,-317,-348
,677,2023-10-27 12:27:41.61,225,-271,-2030,-16,-40,13,94,627,-533,-360
,678,2023-10-27 12:27:41.62,234,-258,-2036,-14,-44,13,195,518,-323,-356
,679,2023-10-27 12:27:41.63,236,-271,-2031,-10,-40,15,86,623,-537,-354
,680,2023-10-27 12:27:41.64,241,-270,-2030,-7,-45,15,198,517,-319,-357
,681,2023-10-27 12:27:41.65,240,-265,-2030,-5,-50,12,82,617,-535,-349
,682,2023-10-27 12:27:41.66,233,-271,-2029,0,-43,17,198,520,-322,-359
,683,2023-10-27 12:27:41.67,235,-265,-2027,5,-46,18,74,611,-537,-342
,684,2023-10-27 12:27:41.68,232,-280,-2035,11,-49,17,208,533,-325,-370
,685,2023-10-27 12:27:41.69,222,-278,-2041,19,-56,20,76,610,-534,-343
,686,2023-10-27 12:27:41.70,216,-282,-2040,24,-56,21,211,534,-323,-372
,687,2023-10-27 12:27:41.71,222,-280,-2033,33,-62,25,73,602,-529,-337
,688,2023-10-27 12:27:41.72,242,-262,-2035,39,-62,21,216,541,-325,-378
,689,2023-10-27 12:27:41.73,224,-260,-2045,37,-56,21,68,600,-532,-334
,690,2023-10-27 12:27:41.74,219,-261,-2031,31,-50,14,226,544,-318,-385
,691,2023-10-27 12:27:41.75,209,-267,-2039,31,-44,16,68,596,-528,-332
,692,2023-10-27 12:27:41.76,203,-270,-2029,26,-54,20,227,554,-327,-390
,693,2023-10-27 12:27:41.77,214,-273,-2039,26,-51,22,64,588,-524,-326
,694,2023-10-27 12:27:41.78,202,-269,-2040,21,-60,20,233,562,-329,-397
,695,2023-10-27 12:27:41.79,204,-273,-2027,16,-50,22,62,581,-519,-321
,696,2023-10-27 12:27:41.80,206,-270,-2030,17,-54,21,239,561,-322,-400
,697,2023-10-27 12:27:41.81,189,-263,-2024,12,-50,20,62,580,-518,-321
,698,2023-10-27 12:27:41.82,209,-258,-2034,6,-40,22,240,571,-331,-405
,699,2023-10-27 12:27:41.83,198,-258,-2024,-5,-42,19,63,582,-519,-322
,700,2023-10-27 12:27:41.84,213,-257,-2031,-6,-37,18,249,575,-326,-412
,701,2023-10-27 12:27:41.85,205,-253,-2038,-11,-34,17,55,570,-515,-312
,702,2023-10-27 12:27:41.86,194,-255,-2039,-20,-28,25,236,566,-330,-401
,703,2023-10-27 12:27:41.87,214,-258,-2028,-28,-30,20,48,561,-513,-304
,704,2023-10-27 12:27:41.88,212,-255,-2041,-26,-32,27,251,589,-338,-420
,705,2023-10-27 12:27:41.89,211,-266,-2032,-33,-30,24,37,557,-520,-297
,706,2023-10-27 12:27:41.90,203,-263,-2030,-33,-22,34,241,587,-346,-414
,707,2023-10-27 12:27:41.91,210,-266,-2036,-28,-29,33,25,549,-524,-287
,708,2023-10-27 12:27:41.92,201,-263,-2033,-29,-21,41,234,591,-357,-412
,709,2023-10-27 12:27:41.93,216,-267,-2039,-25,-35,45,10,537,-527,-273
,710,2023-10-27 12:27:41.94,211,-266,-2032,-15,-29,50,238,593,-355,-415
,711,2023-10-27 12:27:41.95,208,-279,-2034,-11,-31,52,18,541,-523,-279
,712,2023-10-27 12:27:41.96,199,-271,-2052,-4,-34,58,248,605,-357,-426
,713,2023-10-27 12:27:41.97,194,-269,-2044,1,-42,65,24,536,-512,-280
,714,2023-10-27 12:27:41.98,203,-261,-2023,5,-40,67,263,612,-349,-437
,715,2023-10-27 12:27:41.99,193,-274,-2023,10,-42,71,30,536,-506,-283
,716,2023-10-27 12:27:42.00,201,-278,-2036,14,-38,73,262,616,-354,-439
,717,2023-10-27 12:27:42.01,197,-273,-2036,19,-38,77,32,523,-491,-277
,718,2023-10-27 12:27:42.02,185,-278,-2030,17,-42,75,270,622,-352,-446
,719,2023-10-27 12:27:42.03,181,-278,-2028,21,-36,82,29,521,-492,-275
,720,2023-10-27 12:27:42.04,189,-276,-2034,23,-45,84,276,629,-353,-452
,721,2023-10-27 12:27:42.05,178,-282,-2028,30,-38,87,32,522,-490,-277
,722,2023-10-27 12:27:42.06,189,-266,-2035,29,-37,89,275,632,-357,-453
,723,2023-10-27 12:27:42.07,181,-271,-2025,24,-30,88,32,511,-479,-271
,724,2023-10-27 12:27:42.08,188,-276,-2042,17,-26,92,279,640,-361,-459
,725,2023-10-27 12:27:42.09,172,-267,-2027,13,-32,84,29,510,-481,-269
,726,2023-10-27 12:27:42.10,186,-264,-2033,9,-18,85,284,640,-356,-462
,727,2023-10-27 12:27:42.11,172,-269,-2029,5,-18,85,32,505,-473,-268
,728,2023-10-27 12:27:42.12,172,-267,-2037,-5,-14,75,280,647,-367,-463
,729,2023-10-27 12:27:42.13,176,-261,-2031,-5,-7,75,27,498,-471,-262
,730,2023-10-27 12:27:42.14,197,-263,-2032,-1,-11,69,286,648,-362,-467
,731,2023-10-27 12:27:42.15,169,-264,-2029,-3,-12,64,27,500,-473,-263
,732,2023-10-27 12:27:42.16,190,-263,-2030,-5,-1,59,280,652,-372,-466
,733,2023-10-27 12:27:42.17,181,-268,-2031,-10,-5,59,24,491,-467,-257
,734,2023-10-27 12:27:42.18,166,-272,-2031,-9,1,59,286,660,-374,-473
,735,2023-10-27 12:27:42.19,182,-271,-2037,-10,-4,51,23,486,-463,-254
,736,2023-10-27 12:27:42.20,184,-272,-2031,-16,3,50,284,659,-375,-471
,737,2023-10-27 12:27:42.21,170,-261,-2031,-15,-5,48,25,486,-461,-255
,738,2023-10-27 12:27:42.22,172,-266,-2051,-15,2,46,285,668,-383,-476
,739,2023-10-27 12:27:42.23,174,-256,-2037,-23,5,46,22,481,-459,-251
,740,2023-10-27 12:27:42.24,185,-261,-2032,-33,2,36,300,678,-378,-489
,741,2023-10-27 12:27:42.25,178,-258,-2051,-38,2,33,27,481,-454,-254
,742,2023-10-27 12:27:42.26,171,-255,-2038,-38,-1,31,288,672,-384,-480
,743,2023-10-27 12:27:42.27,189,-255,-2044,-40,3,29,14,459,-445,-236
,744,2023-10-27 12:27:42.28,177,-255,-2037,-42,3,26,291,680,-389,-485
,745,2023-10-27 12:27:42.29,190,-250,-2044,-46,2,25,29,471,-442,-250
,746,2023-10-27 12:27:42.30,168,-250,-2052,-51,0,19,298,680,-382,-489
,747,2023-10-27 12:27:42.31,181,-251,-2047,-47,1,21,43,473,-430,-258
,748,2023-10-27 12:27:42.32,185,-253,-2053,-40,-7,19,305,688,-383,-496
,749,2023-10-27 12:27:42.33,184,-249,-2057,-38,-6,15,36,465,-429,-250
,750,2023-10-27 12:27:42.34,179,-236,-2047,-34,-13,13,303,689,-386,-496
,751,2023-10-27 12:27:42.35,198,-235,-2044,-33,-7,6,40,465,-425,-252
,752,2023-10-27 12:27:42.36,184,-228,-2028,-36,0,1,299,688,-389,-493
,753,2023-10-27 12:27:42.37,178,-236,-2029,-38,2,0,49,463,-414,-256
,754,2023-10-27 12:27:42.38,177,-235,-2034,-39,4,-2,306,699,-393,-502
,755,2023-10-27 12:27:42.39,173,-231,-2037,-39,-3,-2,49,466,-417,-257
,756,2023-10-27 12:27:42.40,177,-231,-2046,-40,-5,-3,303,695,-392,-499
,757,2023-10-27 12:27:42.41,179,-229,-2043,-44,-16,-6,51,460,-409,-255
,758,2023-10-27 12:27:42.42,176,-228,-2048,-42,-16,-2,308,697,-389,-502
,759,2023-10-27 12:27:42.43,180,-226,-2049,-44,-27,-2,62,459,-397,-260
,760,2023-10-27 12:27:42.44,181,-232,-2050,-45,-36,0,312,708,-396,-510
,761,2023-10-27 12:27:42.45,177,-225,-2046,-45,-39,2,53,455,-402,-254
,762,2023-10-27 12:27:42.46,174,-229,-2050,-42,-43,6,295,693,-398,-494
,763,2023-10-27 12:27:42.47,165,-229,-2043,-41,-41,10,54,444,-390,-249
,764,2023-10-27 12:27:42.48,171,-233,-2045,-39,-43,11,291,694,-403,-492
,765,2023-10-27 12:27:42.49,156,-227,-2043,-38,-46,13,44,436,-392,-240
,766,2023-10-27 12:27:42.50,174,-230,-2037,-32,-42,17,285,689,-404,-487
,767,2023-10-27 12:27:42.51,174,-230,-2043,-33,-37,19,50,438,-388,-244
,768,2023-10-27 12:27:42.52,159,-230,-2044,-35,-41,15,283,689,-406,-486
,769,2023-10-27 12:27:42.53,163,-225,-2047,-31,-34,20,55,428,-373,-241
,770,2023-10-27 12:27:42.54,169,-232,-2049,-27,-37,24,285,689,-404,-487
,771,2023-10-27 12:27:42.55,158,-233,-2049,-22,-38,28,57,429,-372,-243
,772,2023-10-27 12:27:42.56,158,-227,-2041,-18,-34,32,288,689,-401,-488
,773,2023-10-27 12:27:42.57,158,-231,-2031,-14,-32,32,62,430,-368,-246
,774,2023-10-27 12:27:42.58,157,-240,-2040,-12,-23,35,279,692,-413,-485
,775,2023-10-27 12:27:42.59,155,-237,-2022,-5,-24,42,61,423,-362,-242
,776,2023-10-27 12:27:42.60,156,-242,-2021,3,-16,41,270,690,-420,-480
,777,2023-10-27 12:27:42.61,161,-233,-2029,7,-9,43,57,422,-365,-239
,778,2023-10-27 12:27:42.62,155,-235,-2035,10,-3,45,266,686,-420,-476
,779,2023-10-27 12:27:42.63,164,-234,-2043,15,1,43,64,425,-361,-244
,780,2023-10-27 12:27:42.64,163,-233,-2044,18,2,44,272,690,-418,-481
,781,2023-10-27 12:27:42.65,153,-230,-2048,19,1,42,80,427,-347,-253
,782,2023-10-27 12:27:42.66,151,-231,-2052,22,3,40,274,688,-414,-481
,783,2023-10-27 12:27:42.67,157,-224,-2057,24,-3,38,81,424,-343,-252
,784,2023-10-27 12:27:42.68,141,-234,-2035,26,0,36,264,673,-409,-468
,785,2023-10-27 12:27:42.69,159,-239,-2034,28,-7,32,95,428,-333,-261
,786,2023-10-27 12:27:42.70,154,-233,-2036,34,10,32,285,691,-406,-488
,787,2023-10-27 12:27:42.71,153,-236,-2026,37,9,27,115,436,-321,-275
,788,2023-10-27 12:27:42.72,162,-250,-2026,40,10,24,301,695,-394,-498
,789,2023-10-27 12:27:42.73,149,-249,-2031,41,18,22,124,436,-312,-280
,790,2023-10-27 12:27:42.74,161,-257,-2041,43,19,19,278,688,-410,-483
,791,2023-10-27 12:27:42.75,146,-248,-2044,43,26,16,112,427,-315,-269
,792,2023-10-27 12:27:42.76,158,-246,-2042,42,11,10,270,688,-418,-479
,793,2023-10-27 12:27:42.77,157,-241,-2044,39,22,8,101,426,-325,-263
,794,2023-10-27 12:27:42.78,160,-242,-2048,37,30,5,248,681,-433,-464
,795,2023-10-27 12:27:42.79,167,-243,-2047,31,28,-2,97,423,-326,-260
,796,2023-10-27 12:27:42.80,158,-239,-2045,29,28,-7,237,682,-445,-459
,797,2023-10-27 12:27:42.81,153,-239,-2040,23,20,-15,86,414,-328,-250
,798,2023-10-27 12:27:42.82,170,-231,-2040,20,21,-18,230,672,-442,-451
,799,2023-10-27 12:27:42.83,164,-234,-2048,14,10,-26,96,421,-325,-258
,800,2023-10-27 12:27:42.84,156,-235,-2052,10,0,-27,228,677,-449,-452
,801,2023-10-27 12:27:42.85,164,-233,-2058,7,-20,-33,101,417,-316,-259
,802,2023-10-27 12:27:42.86,160,-238,-2046,8,-18,-34,229,678,-449,-453
,803,2023-10-27 12:27:42.87,158,-237,-2052,3,-33,-35,106,424,-318,-265
,804,2023-10-27 12:27:42.88,145,-234,-2049,-1,-44,-34,229,675,-446,-452
,805,2023-10-27 12:27:42.89,154,-243,-2045,-3,-43,-31,121,424,-303,-272
,806,2023-10-27 12:27:42.90,158,-248,-2050,-1,-56,-31,232,676,-444,-454
,807,2023-10-27 12:27:42.91,135,-250,-2051,-4,-49,-22,126,419,-293,-272
,808,2023-10-27 12:27:42.92,146,-243,-2035,-11,-51,-18,250,646,-396,-448
,809,2023-10-27 12:27:42.93,138,-247,-2035,-9,-45,-20,80,348,-268,-214
,810,2023-10-27 12:27:42.94,150,-241,-2049,-4,-49,-16,325,602,-277,-463
,811,2023-10-27 12:27:42.95,158,-249,-2057,-7,-52,-12,214,369,-155,-291
,812,2023-10-27 12:27:42.96,132,-241,-2046,-11,-43,-5,403,647,-244,-525
,813,2023-10-27 12:27:42.97,150,-234,-2045,-12,-43,-5,234,401,-167,-317
,814,2023-10-27 12:27:42.98,140,-240,-2047,-14,-34,-2,394,658,-264,-526
,815,2023-10-27 12:27:42.99,142,-226,-2048,-19,-38,-5,251,420,-169,-335
,816,2023-10-27 12:27:43.00,152,-217,-2045,-17,-23,-6,411,664,-253,-537
,817,2023-10-27 12:27:43.01,150,-215,-2031,-16,-24,-6,266,423,-157,-344
,818,2023-10-27 12:27:43.02,137,-224,-2033,-16,-30,-7,420,669,-249,-544
,819,2023-10-27 12:27:43.03,137,-231,-2032,-14,-23,-3,273,435,-162,-354
,820,2023-10-27 12:27:43.04,144,-231,-2036,-12,-32,-3,409,667,-258,-538
,821,2023-10-27 12:27:43.05,133,-235,-2039,-7,-26,3,273,432,-159,-352
,822,2023-10-27 12:27:43.06,133,-237,-2038,-5,-29,9,358,672,-314,-515
,823,2023-10-27 12:27:43.07,134,-230,-2032,-4,-16,8,300,487,-187,-393
,824,2023-10-27 12:27:43.08,145,-234,-2042,-3,-19,12,296,697,-401,-496
,825,2023-10-27 12:27:43.09,126,-238,-2037,0,-20,19,219,481,-262,-350
,826,2023-10-27 12:27:43.10,122,-239,-2038,4,-12,22,236,674,-438,-455
,827,2023-10-27 12:27:43.11,127,-248,-2031,5,-21,26,226,482,-256,-354
,828,2023-10-27 12:27:43.12,125,-245,-2043,6,-12,29,242,676,-434,-459
,829,2023-10-27 12:27:43.13,120,-249,-2040,8,-13,36,232,488,-256,-360
,830,2023-10-27 12:27:43.14,134,-242,-2044,3,-1,34,226,660,-434,-443
,831,2023-10-27 12:27:43.15,144,-243,-2036,-3,9,41,222,484,-262,-353
,832,2023-10-27 12:27:43.16,141,-229,-2022,-12,13,34,220,657,-437,-438
,833,2023-10-27 12:27:43.17,141,-231,-2029,-19,41,37,235,497,-262,-366
,834,2023-10-27 12:27:43.18,147,-222,-2030,-29,49,34,217,655,-438,-436
,835,2023-10-27 12:27:43.19,147,-220,-2032,-40,59,30,234,495,-261,-364
,836,2023-10-27 12:27:43.20,156,-211,-2037,-45,67,24,200,642,-442,-421
,837,2023-10-27 12:27:43.21,166,-208,-2024,-54,81,22,238,497,-259,-367
,838,2023-10-27 12:27:43.22,169,-210,-2035,-58,85,16,196,640,-444,-418
,839,2023-10-27 12:27:43.23,158,-211,-2043,-63,79,9,239,504,-265,-371
,840,2023-10-27 12:27:43.24,162,-209,-2038,-57,72,9,182,632,-450,-407
,841,2023-10-27 12:27:43.25,164,-214,-2038,-52,71,2,236,508,-272,-372
,842,2023-10-27 12:27:43.26,174,-209,-2039,-54,73,1,174,629,-455,-401
,843,2023-10-27 12:27:43.27,175,-209,-2046,-55,61,-4,235,508,-273,-371
,844,2023-10-27 12:27:43.28,174,-200,-2049,-53,67,-6,167,624,-457,-395
,845,2023-10-27 12:27:43.29,170,-199,-2049,-52,62,-11,239,516,-277,-377
,846,2023-10-27 12:27:43.30,173,-198,-2047,-54,57,-16,160,619,-459,-389
,847,2023-10-27 12:27:43.31,173,-202,-2053,-54,50,-20,249,526,-277,-387
,848,2023-10-27 12:27:43.32,174,-198,-2057,-52,49,-28,159,614,-455,-386
,849,2023-10-27 12:27:43.33,177,-196,-2056,-51,48,-28,257,531,-274,-394
,850,2023-10-27 12:27:43.34,188,-188,-2041,-49,43,-37,163,604,-441,-383
,851,2023-10-27 12:27:43.35,176,-188,-2042,-49,39,-42,278,538,-260,-408
,852,2023-10-27 12:27:43.36,171,-192,-2046,-52,40,-49,176,605,-429,-390
,853,2023-10-27 12:27:43.37,163,-197,-2047,-51,45,-53,290,544,-254,-417
,854,2023-10-27 12:27:43.38,162,-204,-2054,-47,37,-61,174,600,-426,-387
,855,2023-10-27 12:27:43.39,174,-199,-2066,-46,36,-60,292,551,-259,-421
,856,2023-10-27 12:27:43.40,180,-199,-2057,-43,29,-63,164,594,-430,-379
,857,2023-10-27 12:27:43.41,169,-196,-2059,-42,32,-64,297,560,-263,-428
,858,2023-10-27 12:27:43.42,170,-186,-2052,-43,27,-61,159,593,-434,-376
,859,2023-10-27 12:27:43.43,174,-188,-2043,-43,27,-62,294,561,-267,-427
,860,2023-10-27 12:27:43.44,180,-184,-2041,-46,34,-61,154,579,-425,-366
,861,2023-10-27 12:27:43.45,167,-184,-2047,-50,25,-58,302,570,-268,-436
,862,2023-10-27 12:27:43.46,186,-186,-2041,-48,26,-57,145,577,-432,-361
,863,2023-10-27 12:27:43.47,176,-185,-2047,-49,27,-51,315,581,-266,-448
,864,2023-10-27 12:27:43.48,166,-189,-2048,-50,27,-48,144,571,-427,-357
,865,2023-10-27 12:27:43.49,168,-192,-2048,-51,25,-43,306,578,-272,-442
,866,2023-10-27 12:27:43.50,177,-183,-2045,-47,24,-37,131,550,-419,-340
,867,2023-10-27 12:27:43.51,178,-181,-2040,-42,35,-32,310,579,-269,-444
,868,2023-10-27 12:27:43.52,184,-181,-2045,-43,29,-27,132,559,-427,-345
,869,2023-10-27 12:27:43.53,190,-183,-2040,-40,31,-25,307,577,-270,-442
,870,2023-10-27 12:27:43.54,167,-184,-2045,-39,32,-21,131,556,-425,-343
,871,2023-10-27 12:27:43.55,189,-181,-2053,-32,36,-15,317,592,-275,-454
,872,2023-10-27 12:27:43.56,182,-180,-2051,-29,35,-11,128,547,-419,-337
,873,2023-10-27 12:27:43.57,183,-187,-2048,-24,36,-8,322,599,-277,-460
,874,2023-10-27 12:27:43.58,179,-187,-2047,-16,40,-3,128,544,-416,-336
,875,2023-10-27 12:27:43.59,181,-197,-2054,-10,34,-2,328,599,-271,-463
,876,2023-10-27 12:27:43.60,182,-194,-2054,0,33,5,126,538,-412,-332
,877,2023-10-27 12:27:43.61,177,-189,-2046,11,36,11,330,608,-278,-469
,878,2023-10-27 12:27:43.62,168,-187,-2042,17,37,20,122,533,-411,-327
,879,2023-10-27 12:27:43.63,192,-187,-2039,23,34,22,333,613,-280,-473
,880,2023-10-27 12:27:43.64,193,-187,-2045,29,34,26,122,531,-409,-326
,881,2023-10-27 12:27:43.65,185,-183,-2048,37,29,29,342,620,-278,-481
,882,2023-10-27 12:27:43.66,188,-186,-2047,47,29,29,128,525,-397,-326
,883,2023-10-27 12:27:43.67,199,-186,-2054,51,25,33,410,622,-212,-516
,884,2023-10-27 12:27:43.68,202,-188,-2048,54,27,37,277,520,-243,-398
,885,2023-10-27 12:27:43.69,194,-179,-2038,57,29,35,483,631,-148,-557
,886,2023-10-27 12:27:43.70,201,-184,-2051,59,29,36,256,519,-263,-387
,887,2023-10-27 12:27:43.71,201,-190,-2044,58,25,36,454,634,-180,-544
,888,2023-10-27 12:27:43.72,192,-193,-2046,58,25,40,238,505,-267,-371
,889,2023-10-27 12:27:43.73,192,-193,-2051,56,24,44,466,632,-166,-549
,890,2023-10-27 12:27:43.74,180,-192,-2047,54,19,47,245,503,-258,-374
,891,2023-10-27 12:27:43.75,199,-186,-2044,49,17,51,526,637,-111,-581
,892,2023-10-27 12:27:43.76,197,-186,-2046,43,14,50,321,468,-147,-394
,893,2023-10-27 12:27:43.77,197,-189,-2048,40,14,53,528,584,-56,-556
,894,2023-10-27 12:27:43.78,196,-186,-2049,37,15,54,293,441,-148,-367
,895,2023-10-27 12:27:43.79,204,-186,-2044,31,15,57,530,606,-76,-568
,896,2023-10-27 12:27:43.80,190,-194,-2046,27,12,59,302,462,-160,-382
,897,2023-10-27 12:27:43.81,189,-198,-2045,28,8,64,552,627,-75,-589
,898,2023-10-27 12:27:43.82,204,-203,-2040,31,4,67,307,462,-155,-384
,899,2023-10-27 12:27:43.83,193,-207,-2046,31,1,72,558,633,-75,-595
,900,2023-10-27 12:27:43.84,202,-206,-2040,39,3,77,305,463,-158,-384
,901,2023-10-27 12:27:43.85,202,-209,-2037,39,2,81,564,643,-79,-603
,902,2023-10-27 12:27:43.86,203,-212,-2037,42,4,84,304,465,-161,-384
,903,2023-10-27 12:27:43.87,211,-210,-2043,44,5,86,568,650,-82,-609
,904,2023-10-27 12:27:43.88,210,-211,-2041,46,7,89,310,471,-161,-390
,905,2023-10-27 12:27:43.89,217,-216,-2043,43,10,91,572,652,-80,-612
,906,2023-10-27 12:27:43.90,213,-203,-2045,44,10,89,302,457,-155,-379
,907,2023-10-27 12:27:43.91,207,-205,-2036,46,12,90,438,609,-171,-523
,908,2023-10-27 12:27:43.92,197,-212,-2046,43,14,86,106,395,-289,-250
,909,2023-10-27 12:27:43.93,203,-208,-2049,41,10,86,384,625,-241,-504
,910,2023-10-27 12:27:43.94,210,-209,-2048,46,4,83,169,437,-268,-303
,911,2023-10-27 12:27:43.95,195,-206,-2043,47,1,84,455,664,-209,-559
,912,2023-10-27 12:27:43.96,198,-207,-2048,48,-3,82,188,443,-255,-315
,913,2023-10-27 12:27:43.97,199,-203,-2051,45,-6,77,440,649,-209,-544
,914,2023-10-27 12:27:43.98,202,-202,-2051,46,-7,72,183,440,-257,-311
,915,2023-10-27 12:27:43.99,192,-204,-2047,40,-8,67,459,670,-211,-564
,916,2023-10-27 12:27:44.00,189,-204,-2049,36,-12,62,194,440,-246,-317
,917,2023-10-27 12:27:44.01,194,-214,-2053,34,-16,59,461,673,-212,-567
,918,2023-10-27 12:27:44.02,193,-209,-2055,29,-19,57,194,438,-244,-316
,919,2023-10-27 12:27:44.03,189,-200,-2044,24,-23,52,464,676,-212,-570
,920,2023-10-27 12:27:44.04,185,-204,-2047,21,-23,47,199,445,-246,-322
,921,2023-10-27 12:27:44.05,192,-202,-2044,16,-23,42,465,680,-215,-572
,922,2023-10-27 12:27:44.06,178,-193,-2043,13,-26,36,195,440,-245,-317
,923,2023-10-27 12:27:44.07,199,-205,-2048,8,-27,34,462,680,-218,-571
,924,2023-10-27 12:27:44.08,187,-195,-2047,2,-29,29,198,440,-242,-319
,925,2023-10-27 12:27:44.09,187,-203,-2048,-3,-28,26,461,679,-218,-570
,926,2023-10-27 12:27:44.10,186,-196,-2040,-4,-30,22,192,433,-241,-312
,927,2023-10-27 12:27:44.11,185,-193,-2043,-10,-30,20,452,679,-227,-565
,928,2023-10-27 12:27:44.12,180,-192,-2038,-16,-27,20,181,427,-246,-304
,929,2023-10-27 12:27:44.13,175,-205,-2043,-18,-25,18,446,685,-239,-565
,930,2023-10-27 12:27:44.14,186,-193,-2047,-21,-26,21,176,426,-250,-301
,931,2023-10-27 12:27:44.15,191,-202,-2036,-24,-22,20,443,684,-241,-563
,932,2023-10-27 12:27:44.16,189,-189,-2043,-24,-19,18,176,418,-242,-297
,933,2023-10-27 12:27:44.17,178,-199,-2043,-24,-20,16,441,681,-240,-561
,934,2023-10-27 12:27:44.18,180,-203,-2036,-23,-20,15,174,414,-240,-294
,935,2023-10-27 12:27:44.19,179,-206,-2033,-17,-23,19,430,677,-247,-553
,936,2023-10-27 12:27:44.20,173,-196,-2038,-12,-23,20,176,414,-238,-295
,937,2023-10-27 12:27:44.21,178,-197,-2045,1,-28,26,429,679,-250,-554
,938,2023-10-27 12:27:44.22,177,-209,-2032,8,-23,27,177,418,-241,-297
,939,2023-10-27 12:27:44.23,161,-201,-2039,8,-21,30,427,678,-251,-552
,940,2023-10-27 12:27:44.24,176,-208,-2046,14,-22,30,180,417,-237,-298
,941,2023-10-27 12:27:44.25,166,-205,-2038,15,-16,32,429,675,-246,-552
,942,2023-10-27 12:27:44.26,167,-203,-2029,19,-16,34,174,411,-237,-292
,943,2023-10-27 12:27:44.27,169,-210,-2027,21,-8,29,430,679,-249,-554
,944,2023-10-27 12:27:44.28,168,-202,-2041,17,0,27,180,414,-234,-297
,945,2023-10-27 12:27:44.29,167,-196,-2035,19,-2,24,440,701,-261,-570
,946,2023-10-27 12:27:44.30,154,-199,-2034,20,3,20,187,417,-230,-302
,947,2023-10-27 12:27:44.31,156,-192,-2060,16,5,15,433,687,-254,-560
,948,2023-10-27 12:27:44.32,157,-195,-2050,14,8,4,197,407,-210,-302
,949,2023-10-27 12:27:44.33,175,-184,-2049,22,6,-3,437,686,-249,-561
,950,2023-10-27 12:27:44.34,165,-180,-2051,20,11,-17,207,424,-217,-315
,951,2023-10-27 12:27:44.35,175,-189,-2050,12,19,-32,440,690,-250,-565
,952,2023-10-27 12:27:44.36,179,-174,-2043,14,26,-48,214,427,-213,-320
,953,2023-10-27 12:27:44.37,166,-183,-2039,17,27,-60,440,690,-250,-565
,954,2023-10-27 12:27:44.38,160,-180,-2030,15,25,-70,204,414,-210,-309
,955,2023-10-27 12:27:44.39,163,-187,-2041,15,19,-80,441,691,-250,-566
,956,2023-10-27 12:27:44.40,177,-188,-2040,13,18,-85,221,427,-206,-324
,957,2023-10-27 12:27:44.41,172,-192,-2051,12,15,-94,441,695,-254,-568
,958,2023-10-27 12:27:44.42,167,-184,-2040,11,10,-95,224,429,-205,-326
,959,2023-10-27 12:27:44.43,179,-194,-2045,7,9,-101,438,696,-258,-567
,960,2023-10-27 12:27:44.44,179,-197,-2047,5,8,-100,232,428,-196,-330
,961,2023-10-27 12:27:44.45,170,-206,-2051,1,4,-104,437,693,-256,-565
,962,2023-10-27 12:27:44.46,165,-201,-2055,3,2,-102,238,434,-196,-336
,963,2023-10-27 12:27:44.47,167,-203,-2051,3,-3,-98,436,691,-255,-563
,964,2023-10-27 12:27:44.48,167,-211,-2058,9,-6,-98,245,439,-194,-342
,965,2023-10-27 12:27:44.49,165,-214,-2054,12,-11,-93,434,690,-256,-562
,966,2023-10-27 12:27:44.50,176,-210,-2045,16,-11,-89,248,441,-193,-344
,967,2023-10-27 12:27:44.51,166,-205,-2059,19,-14,-88,430,687,-257,-558
,968,2023-10-27 12:27:44.52,174,-208,-2053,26,-19,-87,250,441,-191,-345
,969,2023-10-27 12:27:44.53,158,-216,-2046,31,-21,-85,433,685,-252,-559
,970,2023-10-27 12:27:44.54,155,-214,-2045,31,-24,-80,259,445,-186,-352
,971,2023-10-27 12:27:44.55,167,-211,-2044,34,-23,-77,431,683,-252,-557
,972,2023-10-27 12:27:44.56,164,-205,-2037,34,-25,-76,262,444,-182,-353
,973,2023-10-27 12:27:44.57,168,-210,-2043,35,-24,-73,429,684,-255,-556
,974,2023-10-27 12:27:44.58,168,-218,-2040,36,-22,-70,267,443,-176,-355
,975,2023-10-27 12:27:44.59,155,-222,-2042,37,-24,-68,430,682,-252,-556
,976,2023-10-27 12:27:44.60,169,-224,-2032,40,-22,-62,282,448,-166,-365
,977,2023-10-27 12:27:44.61,164,-224,-2038,38,-18,-56,436,684,-248,-560
,978,2023-10-27 12:27:44.62,164,-225,-2038,35,-11,-52,293,450,-157,-371
,979,2023-10-27 12:27:44.63,173,-224,-2048,35,-6,-46,430,675,-245,-552
,980,2023-10-27 12:27:44.64,160,-221,-2043,31,-2,-41,296,454,-158,-375
,981,2023-10-27 12:27:44.65,163,-226,-2028,25,5,-33,422,675,-253,-548
,982,2023-10-27 12:27:44.66,161,-233,-2053,27,-4,-23,298,463,-165,-380
,983,2023-10-27 12:27:44.67,159,-233,-2047,24,2,-17,418,670,-252,-544
,984,2023-10-27 12:27:44.68,160,-229,-2039,24,7,-9,307,465,-158,-386
,985,2023-10-27 12:27:44.69,168,-222,-2039,18,9,-7,421,666,-245,-543
,986,2023-10-27 12:27:44.70,165,-219,-2052,14,12,-3,322,483,-161,-402
,987,2023-10-27 12:27:44.71,161,-212,-2039,10,13,-3,415,665,-250,-540
,988,2023-10-27 12:27:44.72,162,-202,-2038,8,18,-8,318,473,-155,-395
,989,2023-10-27 12:27:44.73,167,-199,-2033,7,20,-16,412,649,-237,-530
,990,2023-10-27 12:27:44.74,175,-186,-2044,6,19,-29,324,474,-150,-399
,991,2023-10-27 12:27:44.75,158,-185,-2030,4,28,-48,408,661,-253,-534
,992,2023-10-27 12:27:44.76,172,-190,-2049,5,22,-63,325,479,-154,-402
,993,2023-10-27 12:27:44.77,181,-190,-2048,5,22,-78,402,658,-256,-530
,994,2023-10-27 12:27:44.78,163,-193,-2043,0,22,-95,340,489,-149,-414
,995,2023-10-27 12:27:44.79,167,-191,-2049,2,19,-109,389,640,-251,-514
,996,2023-10-27 12:27:44.80,180,-193,-2040,3,15,-121,349,497,-148,-423
,997,2023-10-27 12:27:44.81,184,-198,-2045,2,15,-128,400,653,-253,-526
,998,2023-10-27 12:27:44.82,170,-201,-2049,3,12,-135,353,498,-145,-425
,999,2023-10-27 12:27:44.83,180,-203,-2055,-1,6,-137,393,647,-254,-520
,1000,2023-10-27 12:27:44.84,182,-213,-2050,-2,6,-136,358,504,-146,-431
,1001,2023-10-27 12:27:44.85,177,-217,-2047,1,-2,-129,393,647,-254,-520
,1002,2023-10-27 12:27:44.86,176,-223,-2049,5,-3,-124,360,505,-145,-432
,1003,2023-10-27 12:27:44.87,177,-222,-2049,8,-2,-118,384,640,-256,-512
,1004,2023-10-27 12:27:44.88,180,-225,-2040,9,0,-106,369,509,-140,-439
,1005,2023-10-27 12:27:44.89,187,-228,-2050,10,-1,-96,379,636,-257,-507
,1006,2023-10-27 12:27:44.90,175,-235,-2051,12,2,-86,377,513,-136,-445
,1007,2023-10-27 12:27:44.91,177,-228,-2046,17,5,-67,371,625,-254,-498
,1008,2023-10-27 12:27:44.92,185,-214,-2038,31,5,-60,378,523,-145,-450
,1009,2023-10-27 12:27:44.93,189,-219,-2036,35,16,-53,360,623,-263,-491
,1010,2023-10-27 12:27:44.94,178,-213,-2037,40,20,-44,384,532,-148,-458
,1011,2023-10-27 12:27:44.95,174,-214,-2040,45,15,-36,360,619,-259,-489
,1012,2023-10-27 12:27:44.96,178,-219,-2040,52,13,-26,388,533,-145,-460
,1013,2023-10-27 12:27:44.97,187,-218,-2046,58,12,-19,358,616,-258,-487
,1014,2023-10-27 12:27:44.98,181,-214,-2051,62,11,-15,394,537,-143,-465
,1015,2023-10-27 12:27:44.99,179,-213,-2047,66,9,-8,354,612,-258,-483
,1016,2023-10-27 12:27:45.00,184,-210,-2040,67,10,-3,406,543,-137,-474
,1017,2023-10-27 12:27:45.01,194,-210,-2044,64,21,0,352,609,-257,-480
,1018,2023-10-27 12:27:45.02,189,-216,-2032,55,26,5,415,551,-136,-483
,1019,2023-10-27 12:27:45.03,173,-210,-2037,51,27,11,342,600,-258,-471
,1020,2023-10-27 12:27:45.04,174,-214,-2032,44,26,21,417,561,-144,-489
,1021,2023-10-27 12:27:45.05,189,-224,-2041,40,25,27,338,594,-256,-466
,1022,2023-10-27 12:27:45.06,170,-226,-2048,31,26,34,425,566,-141,-495
,1023,2023-10-27 12:27:45.07,175,-216,-2047,23,25,43,342,591,-249,-466
,1024,2023-10-27 12:27:45.08,190,-214,-2048,21,23,52,432,574,-142,-503
,1025,2023-10-27 12:27:45.09,183,-214,-2044,16,21,56,338,586,-248,-462
,1026,2023-10-27 12:27:45.10,184,-215,-2050,10,22,61,434,575,-141,-504
,1027,2023-10-27 12:27:45.11,192,-209,-2046,6,21,65,339,587,-248,-463
,1028,2023-10-27 12:27:45.12,186,-214,-2052,8,21,69,435,577,-142,-506
,1029,2023-10-27 12:27:45.13,189,-208,-2057,5,17,72,318,576,-258,-447
,1030,2023-10-27 12:27:45.14,196,-208,-2049,7,14,75,435,575,-140,-505
,1031,2023-10-27 12:27:45.15,181,-217,-2050,6,11,77,310,571,-261,-440
,1032,2023-10-27 12:27:45.16,185,-212,-2049,7,8,80,442,589,-147,-515
,1033,2023-10-27 12:27:45.17,200,-214,-2047,8,8,83,302,567,-265,-434
,1034,2023-10-27 12:27:45.18,192,-222,-2050,11,6,85,443,594,-151,-518
,1035,2023-10-27 12:27:45.19,195,-225,-2045,9,5,89,287,556,-269,-421
,1036,2023-10-27 12:27:45.20,193,-220,-2046,14,3,92,442,604,-162,-523
,1037,2023-10-27 12:27:45.21,189,-218,-2048,15,5,99,274,551,-277,-412
,1038,2023-10-27 12:27:45.22,187,-222,-2040,17,2,105,437,608,-171,-522
,1039,2023-10-27 12:27:45.23,191,-222,-2032,17,1,110,263,544,-281,-403
,1040,2023-10-27 12:27:45.24,194,-227,-2036,19,3,115,436,611,-175,-523
,1041,2023-10-27 12:27:45.25,194,-223,-2033,22,4,118,258,536,-278,-397
,1042,2023-10-27 12:27:45.26,197,-218,-2025,26,5,122,436,611,-175,-523
,1043,2023-10-27 12:27:45.27,195,-229,-2033,29,9,122,256,534,-278,-395
,1044,2023-10-27 12:27:45.28,189,-225,-2043,29,9,121,442,618,-176,-530
,1045,2023-10-27 12:27:45.29,202,-223,-2042,34,9,121,253,535,-282,-394
,1046,2023-10-27 12:27:45.30,193,-225,-2044,37,8,120,444,625,-181,-534
,1047,2023-10-27 12:27:45.31,180,-228,-2045,41,4,120,247,528,-281,-387
,1048,2023-10-27 12:27:45.32,182,-235,-2047,45,1,117,450,634,-184,-542
,1049,2023-10-27 12:27:45.33,186,-228,-2045,47,-1,112,237,523,-286,-380
,1050,2023-10-27 12:27:45.34,180,-228,-2044,49,-2,108,448,637,-189,-542
,1051,2023-10-27 12:27:45.35,191,-229,-2044,47,-2,103,230,510,-280,-370
,1052,2023-10-27 12:27:45.36,186,-230,-2041,48,-3,96,453,640,-187,-546
,1053,2023-10-27 12:27:45.37,174,-225,-2035,45,-2,91,233,506,-273,-369
,1054,2023-10-27 12:27:45.38,175,-226,-2038,46,-1,87,452,641,-189,-546
,1055,2023-10-27 12:27:45.39,188,-224,-2036,42,0,80,228,501,-273,-364
,1056,2023-10-27 12:27:45.40,185,-238,-2036,38,-1,74,452,645,-193,-548
,1057,2023-10-27 12:27:45.41,183,-227,-2050,34,0,68,222,501,-279,-361
,1058,2023-10-27 12:27:45.42,182,-231,-2041,31,2,60,453,649,-196,-551
,1059,2023-10-27 12:27:45.43,192,-231,-2037,25,0,54,217,496,-279,-356
,1060,2023-10-27 12:27:45.44,178,-227,-2036,22,4,51,458,648,-190,-553
,1061,2023-10-27 12:27:45.45,183,-226,-2033,17,6,45,214,487,-273,-350
,1062,2023-10-27 12:27:45.46,176,-236,-2039,13,6,39,464,653,-189,-558
,1063,2023-10-27 12:27:45.47,180,-238,-2034,11,11,35,213,483,-270,-348
,1064,2023-10-27 12:27:45.48,180,-240,-2041,6,13,33,466,662,-196,-564
,1065,2023-10-27 12:27:45.49,187,-232,-2036,4,13,28,210,479,-269,-344
,1066,2023-10-27 12:27:45.50,189,-231,-2033,2,12,26,463,662,-199,-562
,1067,2023-10-27 12:27:45.51,186,-225,-2036,-1,15,23,208,473,-265,-340
,1068,2023-10-27 12:27:45.52,185,-242,-2041,2,14,19,469,675,-206,-572
,1069,2023-10-27 12:27:45.53,177,-236,-2040,3,13,19,201,475,-274,-338
,1070,2023-10-27 12:27:45.54,185,-234,-2040,6,8,18,456,665,-209,-560
,1071,2023-10-27 12:27:45.55,188,-234,-2046,4,6,18,201,463,-262,-332
,1072,2023-10-27 12:27:45.56,174,-240,-2045,3,9,17,462,667,-205,-564
,1073,2023-10-27 12:27:45.57,180,-234,-2044,3,8,20,198,465,-267,-331
,1074,2023-10-27 12:27:45.58,196,-243,-2045,7,8,19,456,663,-207,-559
,1075,2023-10-27 12:27:45.59,188,-239,-2044,5,8,24,198,463,-265,-330
,1076,2023-10-27 12:27:45.60,188,-232,-2037,11,6,24,467,682,-215,-574
,1077,2023-10-27 12:27:45.61,193,-234,-2041,10,12,26,195,462,-267,-328
,1078,2023-10-27 12:27:45.62,194,-235,-2024,12,12,28,466,684,-218,-575
,1079,2023-10-27 12:27:45.63,195,-243,-2036,13,10,28,192,452,-260,-322
,1080,2023-10-27 12:27:45.64,189,-253,-2048,17,8,33,465,684,-219,-574
,1081,2023-10-27 12:27:45.65,186,-249,-2045,20,4,35,188,449,-261,-318
,1082,2023-10-27 12:27:45.66,182,-243,-2042,24,3,41,460,686,-226,-573
,1083,2023-10-27 12:27:45.67,183,-242,-2041,27,-3,41,187,449,-262,-318
,1084,2023-10-27 12:27:45.68,196,-240,-2044,26,0,40,460,689,-229,-574
,1085,2023-10-27 12:27:45.69,188,-237,-2048,27,4,38,190,448,-258,-319
,1086,2023-10-27 12:27:45.70,184,-242,-2042,26,7,38,460,689,-229,-574
,1087,2023-10-27 12:27:45.71,196,-246,-2041,25,5,36,192,446,-254,-319
,1088,2023-10-27 12:27:45.72,190,-236,-2031,22,5,38,460,687,-227,-573
,1089,2023-10-27 12:27:45.73,193,-233,-2029,21,3,38,190,446,-256,-318
,1090,2023-10-27 12:27:45.74,174,-240,-2040,17,4,35,458,691,-233,-574
,1091,2023-10-27 12:27:45.75,179,-241,-2035,9,4,32,190,443,-253,-316
,1092,2023-10-27 12:27:45.76,182,-241,-2038,6,1,31,459,692,-233,-575
,1093,2023-10-27 12:27:45.77,181,-236,-2044,1,3,32,190,441,-251,-315
,1094,2023-10-27 12:27:45.78,174,-237,-2043,-1,2,30,466,693,-227,-579
,1095,2023-10-27 12:27:45.79,177,-243,-2046,-9,4,32,193,436,-243,-314
,1096,2023-10-27 12:27:45.80,181,-240,-2041,-9,0,31,462,699,-237,-580
,1097,2023-10-27 12:27:45.81,181,-237,-2040,-8,0,31,187,434,-247,-310
,1098,2023-10-27 12:27:45.82,176,-243,-2040,-13,1,31,456,698,-242,-577
,1099,2023-10-27 12:27:45.83,180,-243,-2042,-13,1,30,191,434,-243,-312
,1100,2023-10-27 12:27:45.84,178,-240,-2037,-14,1,31,459,702,-243,-580
,1101,2023-10-27 12:27:45.85,183,-234,-2045,-15,4,31,198,432,-234,-315
,1102,2023-10-27 12:27:45.86,178,-239,-2037,-15,1,29,455,702,-247,-578
,1103,2023-10-27 12:27:45.87,173,-232,-2046,-20,2,28,197,433,-236,-315
,1104,2023-10-27 12:27:45.88,180,-235,-2042,-22,5,30,449,698,-249,-573
,1105,2023-10-27 12:27:45.89,182,-229,-2047,-21,2,32,197,434,-237,-315
,1106,2023-10-27 12:27:45.90,176,-228,-2043,-24,1,32,448,698,-250,-573
,1107,2023-10-27 12:27:45.91,183,-231,-2041,-24,2,33,195,432,-237,-313
,1108,2023-10-27 12:27:45.92,172,-236,-2049,-26,3,35,447,696,-249,-571
,1109,2023-10-27 12:27:45.93,170,-234,-2041,-25,2,38,209,442,-233,-325
,1110,2023-10-27 12:27:45.94,183,-233,-2039,-21,5,39,448,696,-248,-572
,1111,2023-10-27 12:27:45.95,186,-225,-2031,-23,3,40,200,430,-230,-315
,1112,2023-10-27 12:27:45.96,173,-231,-2041,-20,2,43,435,690,-255,-562
,1113,2023-10-27 12:27:45.97,181,-230,-2049,-16,8,45,189,427,-238,-308
,1114,2023-10-27 12:27:45.98,176,-229,-2049,-19,14,46,414,691,-277,-552
,1115,2023-10-27 12:27:45.99,180,-229,-2046,-18,8,50,171,412,-241,-291
,1116,2023-10-27 12:27:46.00,180,-229,-2047,-13,8,52,401,693,-292,-547
,1117,2023-10-27 12:27:46.01,170,-222,-2048,-12,11,56,178,422,-244,-300
,1118,2023-10-27 12:27:46.02,162,-224,-2042,-12,10,60,414,698,-284,-556
,1119,2023-10-27 12:27:46.03,168,-227,-2044,-11,7,60,202,428,-226,-315
,1120,2023-10-27 12:27:46.04,170,-218,-2036,-13,8,65,416,698,-282,-557
,1121,2023-10-27 12:27:46.05,175,-223,-2038,-14,11,67,206,432,-226,-319
,1122,2023-10-27 12:27:46.06,173,-221,-2031,-19,13,64,418,697,-279,-557
,1123,2023-10-27 12:27:46.07,178,-218,-2037,-19,16,65,215,436,-221,-325
,1124,2023-10-27 12:27:46.08,184,-215,-2037,-19,22,65,420,695,-275,-557
,1125,2023-10-27 12:27:46.09,180,-221,-2039,-22,26,64,222,440,-218,-331
,1126,2023-10-27 12:27:46.10,181,-213,-2037,-21,30,64,424,696,-272,-560
,1127,2023-10-27 12:27:46.11,181,-209,-2046,-22,29,63,227,442,-215,-334
,1128,2023-10-27 12:27:46.12,187,-213,-2038,-23,34,58,423,695,-272,-559
,1129,2023-10-27 12:27:46.13,195,-210,-2037,-24,34,56,232,442,-210,-337
,1130,2023-10-27 12:27:46.14,184,-213,-2040,-28,36,55,418,694,-276,-556
,1131,2023-10-27 12:27:46.15,196,-210,-2043,-23,34,54,234,442,-208,-338
,1132,2023-10-27 12:27:46.16,186,-215,-2038,-18,36,53,412,695,-283,-553
,1133,2023-10-27 12:27:46.17,202,-200,-2048,-15,28,51,240,443,-203,-341
,1134,2023-10-27 12:27:46.18,194,-203,-2039,-19,32,48,411,693,-282,-552
,1135,2023-10-27 12:27:46.19,187,-213,-2052,-17,28,47,252,451,-199,-351
,1136,2023-10-27 12:27:46.20,192,-208,-2050,-16,22,45,402,689,-287,-545
,1137,2023-10-27 12:27:46.21,198,-210,-2053,-10,21,43,251,453,-202,-352
,1138,2023-10-27 12:27:46.22,200,-211,-2047,-9,17,42,395,684,-289,-539
,1139,2023-10-27 12:27:46.23,198,-213,-2056,-3,14,41,255,455,-200,-355
,1140,2023-10-27 12:27:46.24,200,-207,-2050,3,8,39,391,683,-292,-537
,1141,2023-10-27 12:27:46.25,207,-214,-2042,7,4,38,259,458,-199,-358
,1142,2023-10-27 12:27:46.26,193,-216,-2044,9,0,37,389,682,-293,-535
,1143,2023-10-27 12:27:46.27,201,-216,-2046,13,-6,36,261,457,-196,-359
,1144,2023-10-27 12:27:46.28,203,-217,-2046,18,-10,36,386,682,-296,-534
,1145,2023-10-27 12:27:46.29,195,-216,-2047,22,-15,35,272,457,-185,-364
,1146,2023-10-27 12:27:46.30,204,-214,-2047,23,-15,34,376,672,-296,-524
,1147,2023-10-27 12:27:46.31,195,-217,-2046,23,-15,34,272,463,-191,-367
,1148,2023-10-27 12:27:46.32,188,-224,-2039,22,-15,32,372,669,-297,-520
,1149,2023-10-27 12:27:46.33,188,-224,-2039,23,-12,31,282,467,-185,-374
,1150,2023-10-27 12:27:46.34,191,-224,-2035,23,-15,31,380,679,-299,-529
,1151,2023-10-27 12:27:46.35,200,-225,-2037,24,-14,28,288,474,-186,-381
,1152,2023-10-27 12:27:46.36,180,-222,-2036,23,-14,31,367,666,-299,-516
,1153,2023-10-27 12:27:46.37,187,-229,-2032,27,-15,33,295,473,-178,-384
,1154,2023-10-27 12:27:46.38,191,-234,-2038,29,-17,36,366,666,-300,-516
,1155,2023-10-27 12:27:46.39,180,-235,-2051,29,-16,38,297,478,-181,-387
,1156,2023-10-27 12:27:46.40,182,-236,-2039,29,-20,39,362,661,-299,-511
,1157,2023-10-27 12:27:46.41,184,-232,-2047,29,-17,40,301,482,-181,-391
,1158,2023-10-27 12:27:46.42,187,-226,-2050,27,-15,41,354,659,-305,-506
,1159,2023-10-27 12:27:46.43,182,-229,-2041,20,-8,37,292,472,-180,-382
,1160,2023-10-27 12:27:46.44,186,-220,-2047,17,-1,37,344,653,-309,-498
,1161,2023-10-27 12:27:46.45,192,-225,-2048,14,1,34,312,491,-179,-401
,1162,2023-10-27 12:27:46.46,178,-227,-2039,10,2,33,340,650,-310,-495
,1163,2023-10-27 12:27:46.47,174,-225,-2041,8,2,33,320,502,-182,-411
,1164,2023-10-27 12:27:46.48,184,-218,-2040,4,-1,32,334,647,-313,-490
,1165,2023-10-27 12:27:46.49,187,-220,-2037,3,0,30,326,508,-182,-417
,1166,2023-10-27 12:27:46.50,186,-217,-2032,-1,-2,28,330,639,-309,-484
,1167,2023-10-27 12:27:46.51,172,-214,-2034,-3,-2,25,330,509,-179,-419
,1168,2023-10-27 12:27:46.52,192,-213,-2042,-6,-6,24,330,636,-306,-483
,1169,2023-10-27 12:27:46.53,190,-216,-2041,-6,-6,23,334,514,-180,-424
,1170,2023-10-27 12:27:46.54,175,-221,-2051,-6,-8,20,322,635,-313,-478
,1171,2023-10-27 12:27:46.55,182,-215,-2054,-2,-13,19,337,520,-183,-428
,1172,2023-10-27 12:27:46.56,178,-215,-2049,-1,-19,21,314,631,-317,-472
,1173,2023-10-27 12:27:46.57,183,-213,-2052,1,-21,21,347,523,-176,-435
,1174,2023-10-27 12:27:46.58,168,-209,-2042,1,-20,20,313,625,-312,-469
,1175,2023-10-27 12:27:46.59,191,-216,-2041,2,-19,20,356,527,-171,-441
,1176,2023-10-27 12:27:46.60,179,-214,-2042,6,-16,20,304,617,-313,-460
,1177,2023-10-27 12:27:46.61,177,-219,-2040,6,-16,20,361,533,-172,-447
,1178,2023-10-27 12:27:46.62,176,-217,-2039,10,-14,20,303,612,-309,-457
,1179,2023-10-27 12:27:46.63,171,-218,-2042,12,-12,22,368,548,-180,-458
,1180,2023-10-27 12:27:46.64,182,-220,-2045,15,-14,24,297,612,-315,-454
,1181,2023-10-27 12:27:46.65,173,-215,-2039,18,-15,27,372,554,-182,-463
,1182,2023-10-27 12:27:46.66,173,-225,-2043,18,-12,27,296,601,-305,-448
,1183,2023-10-27 12:27:46.67,173,-222,-2053,18,-12,25,378,558,-180,-468
,1184,2023-10-27 12:27:46.68,182,-220,-2039,22,-15,27,286,596,-310,-441
,1185,2023-10-27 12:27:46.69,183,-224,-2042,27,-15,29,380,559,-179,-469
,1186,2023-10-27 12:27:46.70,182,-213,-2040,27,-12,27,284,590,-306,-437
,1187,2023-10-27 12:27:46.71,184,-222,-2046,29,-13,23,381,565,-184,-473
,1188,2023-10-27 12:27:46.72,165,-223,-2043,32,-14,22,274,590,-316,-432
,1189,2023-10-27 12:27:46.73,180,-224,-2040,33,-17,22,380,569,-189,-474
,1190,2023-10-27 12:27:46.74,171,-227,-2041,32,-15,24,260,583,-323,-421
,1191,2023-10-27 12:27:46.75,157,-228,-2041,30,-13,22,387,580,-193,-483
,1192,2023-10-27 12:27:46.76,168,-228,-2041,34,-14,25,260,578,-318,-419
,1193,2023-10-27 12:27:46.77,169,-232,-2039,33,-17,27,397,578,-181,-487
,1194,2023-10-27 12:27:46.78,163,-227,-2040,31,-13,28,260,573,-313,-416
,1195,2023-10-27 12:27:46.79,155,-228,-2042,28,-7,30,400,593,-193,-496
,1196,2023-10-27 12:27:46.80,167,-221,-2033,25,-6,29,252,568,-316,-410
,1197,2023-10-27 12:27:46.81,162,-223,-2043,21,-1,29,404,596,-192,-500
,1198,2023-10-27 12:27:46.82,160,-226,-2040,17,0,29,248,559,-311,-403
,1199,2023-10-27 12:27:46.83,171,-222,-2043,14,1,27,408,599,-191,-503
,1200,2023-10-27 12:27:46.84,170,-224,-2038,14,3,27,248,556,-308,-402
,1201,2023-10-27 12:27:46.85,162,-226,-2039,13,5,23,411,606,-195,-508
,1202,2023-10-27 12:27:46.86,167,-227,-2041,11,6,24,246,552,-306,-399
,1203,2023-10-27 12:27:46.87,168,-230,-2044,14,4,22,415,608,-193,-511
,1204,2023-10-27 12:27:46.88,172,-233,-2040,16,6,21,238,548,-310,-393
,1205,2023-10-27 12:27:46.89,185,-217,-2038,17,4,18,416,613,-197,-514
,1206,2023-10-27 12:27:46.90,187,-225,-2041,16,5,17,234,546,-312,-390
,1207,2023-10-27 12:27:46.91,169,-226,-2048,19,5,15,421,620,-199,-520
,1208,2023-10-27 12:27:46.92,174,-222,-2047,19,3,12,233,542,-309,-387
,1209,2023-10-27 12:27:46.93,179,-218,-2043,23,0,9,428,623,-195,-525
,1210,2023-10-27 12:27:46.94,176,-224,-2042,22,-1,7,221,531,-310,-376
,1211,2023-10-27 12:27:46.95,175,-230,-2047,23,-3,8,430,626,-196,-528
,1212,2023-10-27 12:27:46.96,162,-234,-2039,31,-6,6,222,527,-305,-374
,1213,2023-10-27 12:27:46.97,173,-239,-2032,35,-4,8,434,638,-204,-536
,1214,2023-10-27 12:27:46.98,172,-242,-2037,39,-4,10,218,525,-307,-371
,1215,2023-10-27 12:27:46.99,178,-249,-2043,43,-4,12,437,644,-207,-540
,1216,2023-10-27 12:27:47.00,174,-249,-2044,45,-5,17,214,517,-303,-365
,1217,2023-10-27 12:27:47.01,175,-244,-2039,49,-6,20,440,645,-205,-542
,1218,2023-10-27 12:27:47.02,179,-246,-2042,45,-3,23,217,510,-293,-363
,1219,2023-10-27 12:27:47.03,173,-244,-2038,43,-1,27,441,649,-208,-545
,1220,2023-10-27 12:27:47.04,180,-244,-2040,41,-2,26,209,510,-301,-359
,1221,2023-10-27 12:27:47.05,175,-241,-2042,37,-2,28,440,650,-210,-545
,1222,2023-10-27 12:27:47.06,172,-243,-2035,32,0,30,206,504,-298,-355
,1223,2023-10-27 12:27:47.07,171,-238,-2037,27,4,30,443,652,-209,-547
,1224,2023-10-27 12:27:47.08,156,-239,-2030,21,5,29,205,500,-295,-352
,1225,2023-10-27 12:27:47.09,168,-241,-2038,19,1,32,451,659,-208,-555
,1226,2023-10-27 12:27:47.10,169,-247,-2057,16,-2,31,200,494,-294,-347
,1227,2023-10-27 12:27:47.11,165,-242,-2059,16,-10,34,450,666,-216,-558
,1228,2023-10-27 12:27:47.12,162,-242,-2066,14,-13,35,193,489,-296,-341
,1229,2023-10-27 12:27:47.13,174,-234,-2056,14,-20,35,449,668,-219,-558
,1230,2023-10-27 12:27:47.14,164,-229,-2055,12,-26,31,192,484,-292,-338
,1231,2023-10-27 12:27:47.15,169,-227,-2049,8,-22,30,446,668,-222,-557
,1232,2023-10-27 12:27:47.16,162,-223,-2047,2,-19,26,191,489,-298,-340
,1233,2023-10-27 12:27:47.17,152,-225,-2032,-3,-12,25,451,670,-219,-560
,1234,2023-10-27 12:27:47.18,152,-232,-2037,-9,-17,26,194,476,-282,-335
,1235,2023-10-27 12:27:47.19,145,-229,-2037,-15,-17,25,453,669,-216,-561
,1236,2023-10-27 12:27:47.20,160,-226,-2048,-14,-17,31,186,470,-284,-328
,1237,2023-10-27 12:27:47.21,158,-224,-2043,-17,-18,32,445,671,-226,-558
,1238,2023-10-27 12:27:47.22,164,-220,-2039,-22,-16,33,180,464,-284,-322
,1239,2023-10-27 12:27:47.23,153,-218,-2045,-21,-19,33,451,674,-223,-562
,1240,2023-10-27 12:27:47.24,165,-215,-2040,-20,-16,33,183,461,-278,-322
,1241,2023-10-27 12:27:47.25,163,-229,-2044,-20,-10,38,451,684,-233,-567
,1242,2023-10-27 12:27:47.26,157,-221,-2048,-18,-9,41,178,458,-280,-318
,1243,2023-10-27 12:27:47.27,158,-231,-2045,-10,-10,44,450,683,-233,-566
,1244,2023-10-27 12:27:47.28,149,-229,-2035,-2,-9,49,187,452,-265,-319
,1245,2023-10-27 12:27:47.29,156,-225,-2031,-2,-1,53,452,682,-230,-567
,1246,2023-10-27 12:27:47.30,160,-224,-2033,2,4,54,184,450,-266,-317
,1247,2023-10-27 12:27:47.31,164,-223,-2020,9,11,53,510,684,-174,-597
,1248,2023-10-27 12:27:47.32,166,-228,-2031,12,19,52,197,393,-196,-295
,1249,2023-10-27 12:27:47.33,163,-221,-2045,18,24,49,505,612,-107,-558
,1250,2023-10-27 12:27:47.34,156,-223,-2045,19,30,48,235,383,-148,-309
,1251,2023-10-27 12:27:47.35,154,-225,-2043,22,30,45,554,646,-92,-600
,1252,2023-10-27 12:27:47.36,158,-218,-2031,22,28,41,256,410,-154,-333
,1253,2023-10-27 12:27:47.37,157,-222,-2034,23,31,35,563,661,-98,-612
,1254,2023-10-27 12:27:47.38,146,-224,-2039,22,31,30,256,409,-153,-332
,1255,2023-10-27 12:27:47.39,153,-224,-2042,23,27,24,570,670,-100,-620
,1256,2023-10-27 12:27:47.40,158,-212,-2033,27,24,17,264,413,-149,-338
,1257,2023-10-27 12:27:47.41,168,-227,-2039,25,25,11,570,678,-108,-624
,1258,2023-10-27 12:27:47.42,167,-222,-2052,24,24,4,260,417,-157,-338
,1259,2023-10-27 12:27:47.43,166,-231,-2049,25,26,-3,520,674,-154,-597
,1260,2023-10-27 12:27:47.44,171,-231,-2055,27,23,-8,268,457,-189,-362
,1261,2023-10-27 12:27:47.45,153,-234,-2049,28,20,-10,521,729,-208,-625
,1262,2023-10-27 12:27:47.46,163,-244,-2041,26,20,-12,228,468,-240,-348
,1263,2023-10-27 12:27:47.47,158,-238,-2045,25,20,-11,474,712,-238,-593
,1264,2023-10-27 12:27:47.48,162,-239,-2042,23,21,-9,208,450,-242,-329
,1265,2023-10-27 12:27:47.49,165,-243,-2036,22,22,-11,468,705,-237,-586
,1266,2023-10-27 12:27:47.50,167,-247,-2031,17,27,-8,196,438,-242,-317
,1267,2023-10-27 12:27:47.51,170,-245,-2038,14,33,-4,455,700,-245,-577
,1268,2023-10-27 12:27:47.52,177,-252,-2032,12,39,1,190,434,-244,-312
,1269,2023-10-27 12:27:47.53,177,-255,-2036,12,44,5,449,705,-256,-577
,1270,2023-10-27 12:27:47.54,171,-251,-2043,9,46,13,196,435,-239,-315
,1271,2023-10-27 12:27:47.55,183,-245,-2034,7,42,21,447,708,-261,-577
,1272,2023-10-27 12:27:47.56,169,-251,-2040,11,44,29,194,433,-239,-313
,1273,2023-10-27 12:27:47.57,178,-247,-2038,8,41,39,424,706,-282,-565
,1274,2023-10-27 12:27:47.58,182,-248,-2044,10,42,44,186,434,-248,-310
,1275,2023-10-27 12:27:47.59,180,-246,-2043,8,38,51,425,706,-281,-565
,1276,2023-10-27 12:27:47.60,182,-243,-2044,7,33,54,195,445,-250,-320
,1277,2023-10-27 12:27:47.61,186,-242,-2039,10,28,59,416,704,-288,-560
,1278,2023-10-27 12:27:47.62,189,-256,-2020,9,25,69,185,437,-252,-311
,1279,2023-10-27 12:27:47.63,186,-268,-2033,10,29,80,407,695,-288,-551
,1280,2023-10-27 12:27:47.64,187,-258,-2041,12,32,87,185,438,-253,-311
,1281,2023-10-27 12:27:47.65,182,-255,-2053,10,27,98,408,701,-293,-554
,1282,2023-10-27 12:27:47.66,177,-250,-2045,10,24,104,189,436,-247,-312
,1283,2023-10-27 12:27:47.67,189,-257,-2042,17,19,110,411,698,-287,-554
,1284,2023-10-27 12:27:47.68,177,-255,-2052,20,15,113,193,434,-241,-313
,1285,2023-10-27 12:27:47.69,178,-251,-2057,24,3,122,404,703,-299,-553
,1286,2023-10-27 12:27:47.70,177,-251,-2051,27,-3,125,194,434,-240,-314
,1287,2023-10-27 12:27:47.71,178,-241,-2045,31,-10,125,402,702,-300,-552
,1288,2023-10-27 12:27:47.72,177,-242,-2042,33,-15,123,200,434,-234,-317
,1289,2023-10-27 12:27:47.73,178,-246,-2044,36,-21,116,396,701,-305,-548
,1290,2023-10-27 12:27:47.74,179,-247,-2044,38,-25,110,204,436,-232,-320
,1291,2023-10-27 12:27:47.75,179,-229,-2031,40,-28,101,393,697,-304,-545
,1292,2023-10-27 12:27:47.76,172,-233,-2028,43,-27,89,216,439,-223,-327
,1293,2023-10-27 12:27:47.77,173,-232,-2030,40,-22,77,392,695,-303,-543
,1294,2023-10-27 12:27:47.78,173,-241,-2027,39,-27,67,216,444,-228,-330
,1295,2023-10-27 12:27:47.79,168,-248,-2044,38,-30,56,382,691,-309,-536
,1296,2023-10-27 12:27:47.80,169,-244,-2047,40,-34,49,217,445,-228,-331
,1297,2023-10-27 12:27:47.81,167,-244,-2041,40,-30,40,383,692,-309,-537
,1298,2023-10-27 12:27:47.82,172,-245,-2032,38,-27,30,223,446,-223,-334
,1299,2023-10-27 12:27:47.83,174,-245,-2036,35,-23,16,377,690,-313,-533
,1300,2023-10-27 12:27:47.84,171,-238,-2031,29,-15,5,227,449,-222,-338
,1301,2023-10-27 12:27:47.85,180,-242,-2027,25,-8,-7,380,694,-314,-537
,1302,2023-10-27 12:27:47.86,172,-248,-2025,21,4,-15,235,450,-215,-342
,1303,2023-10-27 12:27:47.87,176,-251,-2033,13,3,-21,374,689,-315,-531
,1304,2023-10-27 12:27:47.88,165,-245,-2034,11,0,-30,240,451,-211,-345
,1305,2023-10-27 12:27:47.89,161,-247,-2036,6,0,-36,370,689,-319,-529
,1306,2023-10-27 12:27:47.90,171,-242,-2042,-1,-2,-42,241,452,-211,-346
,1307,2023-10-27 12:27:47.91,169,-243,-2041,-7,-3,-50,364,681,-317,-522
,1308,2023-10-27 12:27:47.92,161,-242,-2036,-7,-4,-58,249,455,-206,-352
,1309,2023-10-27 12:27:47.93,165,-246,-2039,-9,-7,-63,362,679,-317,-520
,1310,2023-10-27 12:27:47.94,173,-250,-2044,-5,-10,-67,259,465,-206,-362
,1311,2023-10-27 12:27:47.95,159,-249,-2039,-4,-14,-69,367,677,-310,-522
,1312,2023-10-27 12:27:47.96,167,-253,-2040,-3,-16,-73,269,467,-198,-368
,1313,2023-10-27 12:27:47.97,162,-256,-2049,-4,-18,-73,365,674,-309,-519
,1314,2023-10-27 12:27:47.98,161,-251,-2042,-3,-17,-73,281,482,-201,-381
,1315,2023-10-27 12:27:47.99,171,-252,-2036,-2,-18,-73,366,674,-308,-520
,1316,2023-10-27 12:27:48.00,151,-256,-2044,-5,-19,-71,288,478,-190,-383
,1317,2023-10-27 12:27:48.01,166,-253,-2044,-8,-19,-66,366,671,-305,-518
,1318,2023-10-27 12:27:48.02,158,-253,-2046,-8,-17,-60,288,478,-190,-383
,1319,2023-10-27 12:27:48.03,149,-253,-2044,-9,-20,-55,358,671,-313,-514
,1320,2023-10-27 12:27:48.04,155,-258,-2045,-8,-19,-49,290,477,-187,-383
,1321,2023-10-27 12:27:48.05,164,-254,-2044,-11,-16,-45,357,666,-309,-511
,1322,2023-10-27 12:27:48.06,157,-256,-2037,-12,-17,-36,301,487,-186,-394
,1323,2023-10-27 12:27:48.07,145,-259,-2042,-10,-15,-26,350,664,-314,-507
,1324,2023-10-27 12:27:48.08,166,-265,-2038,-8,-19,-19,305,491,-186,-398
,1325,2023-10-27 12:27:48.09,156,-253,-2029,-2,-17,-11,345,658,-313,-501
,1326,2023-10-27 12:27:48.10,171,-255,-2035,-2,-14,-3,318,499,-181,-408
,1327,2023-10-27 12:27:48.11,167,-255,-2048,-4,-8,1,339,653,-314,-496
,1328,2023-10-27 12:27:48.12,158,-255,-2043,-6,-6,7,320,504,-184,-412
,1329,2023-10-27 12:27:48.13,168,-249,-2047,-3,-3,12,328,643,-315,-485
,1330,2023-10-27 12:27:48.14,154,-250,-2046,-5,-4,19,324,507,-183,-415
,1331,2023-10-27 12:27:48.15,163,-243,-2043,-5,-3,21,322,642,-320,-482
,1332,2023-10-27 12:27:48.16,147,-244,-2047,-5,-4,28,328,514,-186,-421
,1333,2023-10-27 12:27:48.17,154,-243,-2038,-5,-5,32,320,638,-318,-479
,1334,2023-10-27 12:27:48.18,158,-243,-2039,-8,-1,34,337,520,-183,-428
,1335,2023-10-27 12:27:48.19,151,-233,-2030,-11,0,32,322,635,-313,-478
,1336,2023-10-27 12:27:48.20,159,-237,-2033,-15,4,30,342,522,-180,-432
,1337,2023-10-27 12:27:48.21,164,-235,-2045,-15,3,29,316,628,-312,-472
,1338,2023-10-27 12:27:48.22,156,-233,-2040,-16,1,27,345,524,-179,-434
,1339,2023-10-27 12:27:48.23,165,-232,-2045,-16,3,25,308,624,-316,-466
,1340,2023-10-27 12:27:48.24,164,-230,-2041,-14,3,23,348,532,-184,-440
,1341,2023-10-27 12:27:48.25,154,-233,-2045,-13,-1,20,302,619,-317,-460
,1342,2023-10-27 12:27:48.26,166,-228,-2045,-13,1,17,354,534,-180,-444
,1343,2023-10-27 12:27:48.27,153,-227,-2037,-13,-2,16,294,613,-319,-453
,1344,2023-10-27 12:27:48.28,155,-227,-2045,-15,3,13,364,541,-177,-452
,1345,2023-10-27 12:27:48.29,162,-226,-2042,-14,2,9,286,606,-320,-446
,1346,2023-10-27 12:27:48.30,165,-234,-2040,-12,1,9,366,548,-182,-457
,1347,2023-10-27 12:27:48.31,147,-231,-2047,-9,0,6,278,598,-320,-438
,1348,2023-10-27 12:27:48.32,155,-233,-2045,-6,1,5,370,553,-183,-461
,1349,2023-10-27 12:27:48.33,158,-229,-2038,-8,1,6,276,595,-319,-435
,1350,2023-10-27 12:27:48.34,154,-215,-2045,-2,-3,0,376,559,-183,-467
,1351,2023-10-27 12:27:48.35,155,-230,-2042,-1,-1,-1,277,592,-315,-434
,1352,2023-10-27 12:27:48.36,152,-236,-2044,-1,-4,-1,383,563,-180,-473
,1353,2023-10-27 12:27:48.37,164,-226,-2039,1,-4,1,271,585,-314,-428
,1354,2023-10-27 12:27:48.38,159,-226,-2045,1,-2,0,383,564,-181,-473
,1355,2023-10-27 12:27:48.39,161,-230,-2040,-1,-3,3,262,584,-322,-423
,1356,2023-10-27 12:27:48.40,154,-237,-2051,1,-4,5,387,570,-183,-478
,1357,2023-10-27 12:27:48.41,159,-232,-2040,1,-2,5,264,576,-312,-420
,1358,2023-10-27 12:27:48.42,164,-233,-2041,3,-2,8,405,585,-180,-495
,1359,2023-10-27 12:27:48.43,156,-228,-2034,5,-1,8,258,570,-312,-414
,1360,2023-10-27 12:27:48.44,154,-232,-2035,2,10,11,402,592,-190,-497
,1361,2023-10-27 12:27:48.45,165,-228,-2034,1,11,13,249,560,-311,-404
,1362,2023-10-27 12:27:48.46,160,-231,-2037,2,10,13,406,596,-190,-501
,1363,2023-10-27 12:27:48.47,145,-234,-2045,3,10,12,247,556,-309,-401
,1364,2023-10-27 12:27:48.48,167,-238,-2046,5,8,14,416,605,-189,-510
,1365,2023-10-27 12:27:48.49,165,-233,-2047,5,6,16,249,554,-305,-401
,1366,2023-10-27 12:27:48.50,163,-232,-2047,8,7,14,415,604,-189,-509
,1367,2023-10-27 12:27:48.51,169,-222,-2048,4,4,12,240,544,-304,-392
,1368,2023-10-27 12:27:48.52,168,-219,-2042,1,14,9,410,604,-194,-507
,1369,2023-10-27 12:27:48.53,158,-224,-2042,0,14,5,230,544,-314,-387
,1370,2023-10-27 12:27:48.54,160,-217,-2045,-4,16,4,414,611,-197,-512
,1371,2023-10-27 12:27:48.55,163,-230,-2047,-5,12,7,226,539,-313,-382
,1372,2023-10-27 12:27:48.56,161,-230,-2043,-6,7,7,419,615,-196,-517
,1373,2023-10-27 12:27:48.57,160,-220,-2042,-5,9,7,218,529,-311,-373
,1374,2023-10-27 12:27:48.58,168,-220,-2044,-6,5,8,418,618,-200,-518
,1375,2023-10-27 12:27:48.59,156,-230,-2044,-5,3,10,209,526,-317,-367
,1376,2023-10-27 12:27:48.60,166,-228,-2042,-4,3,14,419,630,-211,-524
,1377,2023-10-27 12:27:48.61,169,-232,-2040,-1,4,19,206,518,-312,-362
,1378,2023-10-27 12:27:48.62,158,-233,-2047,1,6,25,419,632,-213,-525
,1379,2023-10-27 12:27:48.63,158,-235,-2049,5,3,29,201,513,-312,-357
,1380,2023-10-27 12:27:48.64,163,-236,-2050,7,1,35,418,637,-219,-527
,1381,2023-10-27 12:27:48.65,156,-236,-2049,8,-3,44,195,509,-314,-352
,1382,2023-10-27 12:27:48.66,165,-233,-2050,10,-5,50,418,638,-220,-528
,1383,2023-10-27 12:27:48.67,167,-226,-2047,8,-6,56,192,503,-311,-347
,1384,2023-10-27 12:27:48.68,157,-227,-2039,9,-6,60,422,642,-220,-532
,1385,2023-10-27 12:27:48.69,160,-228,-2039,9,-5,62,191,504,-313,-347
,1386,2023-10-27 12:27:48.70,159,-228,-2042,9,-6,64,426,645,-219,-535
,1387,2023-10-27 12:27:48.71,154,-230,-2043,10,-3,66,191,500,-309,-345
,1388,2023-10-27 12:27:48.72,150,-222,-2041,10,-4,66,430,649,-219,-539
,1389,2023-10-27 12:27:48.73,150,-221,-2049,12,-4,62,189,497,-308,-343
,1390,2023-10-27 12:27:48.74,154,-219,-2034,11,-4,61,436,654,-218,-545
,1391,2023-10-27 12:27:48.75,161,-219,-2041,7,-1,54,179,485,-306,-332
,1392,2023-10-27 12:27:48.76,136,-216,-2043,8,1,54,434,653,-219,-543
,1393,2023-10-27 12:27:48.77,156,-224,-2024,8,0,49,180,483,-303,-331
,1394,2023-10-27 12:27:48.78,156,-217,-2036,9,4,44,430,664,-234,-547
,1395,2023-10-27 12:27:48.79,163,-223,-2043,4,7,39,170,479,-309,-324
,1396,2023-10-27 12:27:48.80,153,-220,-2038,5,11,32,426,672,-246,-549
,1397,2023-10-27 12:27:48.81,159,-216,-2042,5,11,28,178,477,-299,-327
,1398,2023-10-27 12:27:48.82,157,-220,-2040,5,10,21,443,674,-231,-558
,1399,2023-10-27 12:27:48.83,164,-222,-2047,4,11,19,187,480,-293,-333
,1400,2023-10-27 12:27:48.84,152,-218,-2047,4,6,15,447,676,-229,-561
,1401,2023-10-27 12:27:48.85,164,-226,-2046,6,4,10,187,475,-288,-331
,1402,2023-10-27 12:27:48.86,166,-220,-2044,7,2,10,446,675,-229,-560
,1403,2023-10-27 12:27:48.87,163,-215,-2038,6,3,4,184,473,-289,-328
,1404,2023-10-27 12:27:48.88,177,-220,-2042,5,5,1,450,680,-230,-565
,1405,2023-10-27 12:27:48.89,165,-217,-2049,4,6,-1,178,470,-292,-324
,1406,2023-10-27 12:27:48.90,162,-220,-2041,3,5,-3,446,681,-235,-563
,1407,2023-10-27 12:27:48.91,166,-219,-2045,1,5,-5,173,460,-287,-316
,1408,2023-10-27 12:27:48.92,174,-222,-2045,1,5,-4,446,687,-241,-566
,1409,2023-10-27 12:27:48.93,172,-222,-2042,3,1,-5,171,458,-287,-314
,1410,2023-10-27 12:27:48.94,171,-225,-2044,6,-1,-4,444,691,-247,-567
,1411,2023-10-27 12:27:48.95,171,-221,-2048,6,-3,-4,172,456,-284,-314
,1412,2023-10-27 12:27:48.96,160,-229,-2041,10,-2,-2,446,694,-248,-570
,1413,2023-10-27 12:27:48.97,156,-228,-2043,16,-3,-1,176,453,-277,-314
,1414,2023-10-27 12:27:48.98,167,-233,-2043,19,-1,-2,442,694,-252,-568
,1415,2023-10-27 12:27:48.99,160,-235,-2046,25,1,0,171,447,-276,-309
,1416,2023-10-27 12:27:49.00,163,-227,-2049,30,0,2,438,691,-253,-564
,1417,2023-10-27 12:27:49.01,159,-225,-2043,29,0,2,174,444,-270,-309
,1418,2023-10-27 12:27:49.02,168,-227,-2036,28,0,1,440,693,-253,-566
,1419,2023-10-27 12:27:49.03,157,-233,-2043,27,-3,1,172,448,-276,-310
,1420,2023-10-27 12:27:49.04,165,-222,-2034,25,-2,-1,438,693,-255,-565
,1421,2023-10-27 12:27:49.05,164,-233,-2046,22,-4,-1,177,448,-271,-312
,1422,2023-10-27 12:27:49.06,161,-233,-2055,20,-8,-5,442,697,-255,-569
,1423,2023-10-27 12:27:49.07,163,-231,-2049,20,-10,-1,174,445,-271,-309
,1424,2023-10-27 12:27:49.08,167,-235,-2047,20,-10,-6,440,698,-258,-569
,1425,2023-10-27 12:27:49.09,167,-224,-2041,19,-12,-7,177,441,-264,-309
,1426,2023-10-27 12:27:49.10,165,-234,-2038,14,-9,-7,446,703,-257,-574
,1427,2023-10-27 12:27:49.11,148,-229,-2033,14,-8,-7,179,440,-261,-309
,1428,2023-10-27 12:27:49.12,160,-234,-2043,10,-8,-8,446,705,-259,-575
,1429,2023-10-27 12:27:49.13,156,-228,-2035,9,-8,-11,179,438,-259,-308
,1430,2023-10-27 12:27:49.14,160,-233,-2046,7,-3,-13,442,704,-262,-573
,1431,2023-10-27 12:27:49.15,154,-225,-2032,5,-2,-13,181,434,-253,-307
,1432,2023-10-27 12:27:49.16,154,-232,-2037,6,-3,-16,439,700,-261,-569
,1433,2023-10-27 12:27:49.17,158,-240,-2047,4,-4,-18,183,431,-248,-307
,1434,2023-10-27 12:27:49.18,158,-235,-2045,3,-7,-19,445,704,-259,-574
,1435,2023-10-27 12:27:49.19,152,-238,-2048,7,-8,-16,196,434,-238,-315
,1436,2023-10-27 12:27:49.20,158,-233,-2044,5,-11,-15,448,706,-258,-577
,1437,2023-10-27 12:27:49.21,158,-232,-2039,3,-12,-15,194,434,-240,-314
,1438,2023-10-27 12:27:49.22,150,-232,-2047,4,-3,-15,442,704,-262,-573
,1439,2023-10-27 12:27:49.23,160,-231,-2048,-1,1,-17,201,439,-238,-320
,1440,2023-10-27 12:27:49.24,152,-233,-2035,-1,5,-14,443,708,-265,-575
,1441,2023-10-27 12:27:49.25,145,-233,-2043,0,1,-13,200,434,-234,-317
,1442,2023-10-27 12:27:49.26,146,-232,-2036,-1,-2,-6,436,701,-265,-568
,1443,2023-10-27 12:27:49.27,149,-238,-2037,-1,0,-5,204,435,-231,-319
,1444,2023-10-27 12:27:49.28,155,-233,-2039,-3,2,-3,441,703,-262,-572
,1445,2023-10-27 12:27:49.29,163,-231,-2041,-3,4,0,207,436,-229,-321
,1446,2023-10-27 12:27:49.30,157,-228,-2041,-3,3,0,440,702,-262,-571
,1447,2023-10-27 12:27:49.31,160,-230,-2043,-3,2,3,211,435,-224,-323
,1448,2023-10-27 12:27:49.32,154,-229,-2044,-2,3,5,427,703,-276,-565
,1449,2023-10-27 12:27:49.33,153,-223,-2044,0,1,9,205,430,-225,-317
,1450,2023-10-27 12:27:49.34,163,-226,-2045,3,0,14,420,698,-278,-559
,1451,2023-10-27 12:27:49.35,158,-232,-2048,4,-4,15,215,435,-220,-325
,1452,2023-10-27 12:27:49.36,160,-228,-2047,6,-5,17,420,698,-278,-559
,1453,2023-10-27 12:27:49.37,142,-231,-2049,9,-5,19,220,434,-214,-327
,1454,2023-10-27 12:27:49.38,151,-225,-2047,10,-4,23,413,692,-279,-552
,1455,2023-10-27 12:27:49.39,145,-227,-2039,9,-7,23,221,439,-218,-330
,1456,2023-10-27 12:27:49.40,158,-235,-2045,10,-8,22,411,691,-280,-551
,1457,2023-10-27 12:27:49.41,147,-231,-2040,8,-6,27,228,441,-213,-334
,1458,2023-10-27 12:27:49.42,150,-234,-2044,8,-7,25,412,693,-281,-552
,1459,2023-10-27 12:27:49.43,151,-230,-2044,8,-6,23,235,444,-209,-339
,1460,2023-10-27 12:27:49.44,151,-227,-2031,6,-10,24,418,691,-273,-554
,1461,2023-10-27 12:27:49.45,156,-231,-2040,3,-4,24,240,445,-205,-342
,1462,2023-10-27 12:27:49.46,142,-230,-2043,2,-3,22,416,697,-281,-556
,1463,2023-10-27 12:27:49.47,157,-228,-2038,5,-5,19,244,446,-202,-345
,1464,2023-10-27 12:27:49.48,151,-227,-2039,7,-3,18,409,696,-287,-552
,1465,2023-10-27 12:27:49.49,148,-220,-2043,5,-5,16,248,448,-200,-348
,1466,2023-10-27 12:27:49.50,157,-223,-2041,5,-4,13,401,689,-288,-545
,1467,2023-10-27 12:27:49.51,149,-222,-2046,7,-5,13,258,448,-190,-353
,1468,2023-10-27 12:27:49.52,148,-229,-2047,4,-6,13,402,686,-284,-544
,1469,2023-10-27 12:27:49.53,138,-231,-2045,4,-7,13,263,457,-194,-360
,1470,2023-10-27 12:27:49.54,144,-231,-2054,5,-11,14,393,681,-288,-537
,1471,2023-10-27 12:27:49.55,149,-235,-2040,4,-12,18,265,459,-194,-362
,1472,2023-10-27 12:27:49.56,143,-225,-2043,5,-10,21,390,679,-289,-534
,1473,2023-10-27 12:27:49.57,138,-230,-2030,0,-8,20,273,461,-188,-367
,1474,2023-10-27 12:27:49.58,143,-226,-2038,-5,-4,21,387,677,-290,-532
,1475,2023-10-27 12:27:49.59,154,-226,-2041,-10,-1,22,279,468,-189,-373
,1476,2023-10-27 12:27:49.60,144,-227,-2041,-10,-1,23,382,678,-296,-530
,1477,2023-10-27 12:27:49.61,137,-222,-2042,-13,4,25,277,465,-188,-371
,1478,2023-10-27 12:27:49.62,141,-222,-2049,-18,5,24,364,665,-301,-514
,1479,2023-10-27 12:27:49.63,145,-215,-2045,-20,6,27,285,468,-183,-376
,1480,2023-10-27 12:27:49.64,149,-217,-2046,-19,6,27,370,670,-300,-520
,1481,2023-10-27 12:27:49.65,147,-219,-2048,-15,3,28,296,476,-180,-386
,1482,2023-10-27 12:27:49.66,135,-226,-2037,-12,2,26,362,662,-300,-512
,1483,2023-10-27 12:27:49.67,153,-216,-2048,-9,4,28,298,473,-175,-385
,1484,2023-10-27 12:27:49.68,144,-223,-2042,-7,2,27,356,654,-298,-505
,1485,2023-10-27 12:27:49.69,152,-222,-2041,-4,4,30,307,487,-180,-397
,1486,2023-10-27 12:27:49.70,146,-218,-2040,-2,2,31,357,660,-303,-508
,1487,2023-10-27 12:27:49.71,143,-213,-2046,2,0,31,313,494,-181,-403
,1488,2023-10-27 12:27:49.72,152,-223,-2045,2,-1,32,355,652,-297,-503
,1489,2023-10-27 12:27:49.73,150,-221,-2043,4,0,34,317,497,-180,-407
,1490,2023-10-27 12:27:49.74,155,-216,-2044,3,3,35,342,650,-308,-496
,1491,2023-10-27 12:27:49.75,160,-217,-2045,2,0,37,319,500,-181,-409
,1492,2023-10-27 12:27:49.76,148,-224,-2044,3,0,41,344,643,-299,-493
,1493,2023-10-27 12:27:49.77,145,-226,-2048,7,1,40,329,504,-175,-416
,1494,2023-10-27 12:27:49.78,142,-227,-2044,7,0,43,336,645,-309,-490
,1495,2023-10-27 12:27:49.79,146,-221,-2049,11,-3,47,330,510,-180,-420
,1496,2023-10-27 12:27:49.80,150,-219,-2044,8,-4,49,327,643,-316,-485
,1497,2023-10-27 12:27:49.81,157,-214,-2053,8,-5,52,333,514,-181,-423
,1498,2023-10-27 12:27:49.82,153,-218,-2052,10,-6,55,313,635,-322,-474
,1499,2023-10-27 12:27:49.83,149,-218,-2047,6,-7,55,336,517,-181,-426
,1500,2023-10-27 12:27:49.84,139,-219,-2045,9,-9,56,311,631,-320,-471
,1501,2023-10-27 12:27:49.85,153,-206,-2047,8,-13,57,350,533,-183,-441
,1502,2023-10-27 12:27:49.86,154,-207,-2042,5,-8,54,306,624,-318,-465
,1503,2023-10-27 12:27:49.87,144,-202,-2034,2,-10,50,353,535,-182,-444
,1504,2023-10-27 12:27:49.88,151,-217,-2033,5,-7,46,300,616,-316,-458
,1505,2023-10-27 12:27:49.89,142,-212,-2044,6,-10,45,357,541,-184,-449
,1506,2023-10-27 12:27:49.90,146,-215,-2047,6,-12,43,286,610,-324,-448
,1507,2023-10-27 12:27:49.91,146,-224,-2045,11,-13,40,352,542,-190,-447
,1508,2023-10-27 12:27:49.92,154,-217,-2052,14,-12,39,289,603,-314,-446
,1509,2023-10-27 12:27:49.93,144,-218,-2051,13,-12,39,364,546,-182,-455
,1510,2023-10-27 12:27:49.94,139,-214,-2058,8,-8,35,286,604,-318,-445
,1511,2023-10-27 12:27:49.95,142,-209,-2044,8,-5,34,370,554,-184,-462
,1512,2023-10-27 12:27:49.96,146,-208,-2035,5,-6,31,277,600,-323,-438
,1513,2023-10-27 12:27:49.97,141,-212,-2041,0,-7,30,377,560,-183,-468
,1514,2023-10-27 12:27:49.98,148,-211,-2041,-2,-8,31,261,587,-326,-424
,1515,2023-10-27 12:27:49.99,145,-216,-2047,-5,-8,29,368,553,-185,-460
,1516,2023-10-27 12:27:50.00,139,-206,-2043,-7,-8,27,251,575,-324,-413
,1517,2023-10-27 12:27:50.01,142,-213,-2047,-13,-5,25,369,559,-190,-464
,1518,2023-10-27 12:27:50.02,135,-208,-2042,-12,-10,26,238,562,-324,-400
,1519,2023-10-27 12:27:50.03,146,-213,-2051,-9,-11,24,357,556,-199,-456
,1520,2023-10-27 12:27:50.04,136,-213,-2049,-10,-13,26,229,551,-322,-390
,1521,2023-10-27 12:27:50.05,137,-213,-2050,-10,-19,27,360,557,-197,-458
,1522,2023-10-27 12:27:50.06,141,-208,-2051,-9,-18,27,230,554,-324,-392
,1523,2023-10-27 12:27:50.07,146,-208,-2050,-5,-24,29,384,576,-192,-480
,1524,2023-10-27 12:27:50.08,139,-211,-2048,-3,-27,30,244,559,-315,-401
,1525,2023-10-27 12:27:50.09,145,-206,-2047,-2,-25,30,388,580,-192,-484
,1526,2023-10-27 12:27:50.10,135,-210,-2045,1,-24,29,224,546,-322,-385
,1527,2023-10-27 12:27:50.11,119,-211,-2048,3,-26,32,387,586,-199,-486
,1528,2023-10-27 12:27:50.12,124,-205,-2043,7,-24,31,220,544,-324,-382
,1529,2023-10-27 12:27:50.13,134,-210,-2048,10,-23,34,397,600,-203,-498
,1530,2023-10-27 12:27:50.14,132,-208,-2050,12,-23,33,218,544,-326,-381
,1531,2023-10-27 12:27:50.15,142,-205,-2036,15,-24,35,402,609,-207,-505
,1532,2023-10-27 12:27:50.16,128,-207,-2031,20,-24,32,213,535,-322,-374
,1533,2023-10-27 12:27:50.17,130,-212,-2038,22,-18,28,404,612,-208,-508
,1534,2023-10-27 12:27:50.18,133,-212,-2035,25,-18,30,208,530,-322,-369
,1535,2023-10-27 12:27:50.19,131,-211,-2036,32,-16,25,404,613,-209,-508
,1536,2023-10-27 12:27:50.20,130,-211,-2037,34,-14,21,210,524,-314,-367
,1537,2023-10-27 12:27:50.21,126,-203,-2042,31,-6,17,408,617,-209,-512
,1538,2023-10-27 12:27:50.22,128,-206,-2044,30,-3,9,207,524,-317,-365
,1539,2023-10-27 12:27:50.23,134,-215,-2044,30,-1,5,414,622,-208,-518
,1540,2023-10-27 12:27:50.24,121,-212,-2040,31,-2,-2,206,520,-314,-363
,1541,2023-10-27 12:27:50.25,134,-215,-2042,31,-2,-5,417,630,-213,-523
,1542,2023-10-27 12:27:50.26,134,-216,-2040,30,-1,-10,200,517,-317,-358
,1543,2023-10-27 12:27:50.27,126,-217,-2037,29,0,-13,417,633,-216,-525
,1544,2023-10-27 12:27:50.28,134,-219,-2040,30,1,-17,194,508,-314,-351
,1545,2023-10-27 12:27:50.29,147,-217,-2045,30,3,-19,401,639,-238,-520
,1546,2023-10-27 12:27:50.30,135,-220,-2044,29,5,-22,142,501,-359,-321
,1547,2023-10-27 12:27:50.31,142,-221,-2043,26,2,-20,397,644,-247,-520
,1548,2023-10-27 12:27:50.32,131,-221,-2048,24,4,-26,178,488,-310,-333
,1549,2023-10-27 12:27:50.33,126,-221,-2049,24,5,-26,430,638,-208,-534
,1550,2023-10-27 12:27:50.34,137,-223,-2047,22,0,-27,188,478,-290,-333
,1551,2023-10-27 12:27:50.35,138,-225,-2042,20,-3,-31,427,640,-213,-533
,1552,2023-10-27 12:27:50.36,131,-218,-2049,19,-3,-34,180,478,-298,-329
,1553,2023-10-27 12:27:50.37,140,-228,-2044,19,-6,-36,432,648,-216,-540
,1554,2023-10-27 12:27:50.38,129,-220,-2043,19,-8,-38,192,482,-290,-337
,1555,2023-10-27 12:27:50.39,127,-240,-2041,15,-9,-36,444,652,-208,-548
,1556,2023-10-27 12:27:50.40,127,-234,-2046,15,-14,-31,194,478,-284,-336
,1557,2023-10-27 12:27:50.41,129,-231,-2049,12,-20,-27,461,663,-202,-562
,1558,2023-10-27 12:27:50.42,126,-231,-2046,13,-26,-23,193,480,-287,-336
,1559,2023-10-27 12:27:50.43,120,-231,-2058,13,-30,-17,455,665,-210,-560
,1560,2023-10-27 12:27:50.44,128,-230,-2057,13,-35,-11,178,460,-282,-319
,1561,2023-10-27 12:27:50.45,129,-226,-2048,14,-41,-8,458,667,-209,-562
,1562,2023-10-27 12:27:50.46,132,-232,-2043,13,-43,-3,194,471,-277,-332
,1563,2023-10-27 12:27:50.47,112,-237,-2051,11,-41,2,465,683,-218,-574
,1564,2023-10-27 12:27:50.48,117,-235,-2048,13,-44,9,192,468,-276,-330
,1565,2023-10-27 12:27:50.49,119,-228,-2055,17,-47,14,458,680,-222,-569
,1566,2023-10-27 12:27:50.50,115,-234,-2044,18,-46,17,192,463,-271,-327
,1567,2023-10-27 12:27:50.51,111,-234,-2044,19,-44,22,459,682,-223,-570
,1568,2023-10-27 12:27:50.52,118,-234,-2032,20,-40,25,194,469,-275,-331
,1569,2023-10-27 12:27:50.53,117,-236,-2031,20,-32,30,462,685,-223,-573
,1570,2023-10-27 12:27:50.54,120,-231,-2023,22,-30,32,193,463,-270,-328
,1571,2023-10-27 12:27:50.55,120,-227,-2013,23,-20,37,458,684,-226,-571
,1572,2023-10-27 12:27:50.56,116,-237,-2027,24,-10,37,186,456,-270,-321
,1573,2023-10-27 12:27:50.57,118,-236,-2017,23,-6,38,463,691,-228,-577
,1574,2023-10-27 12:27:50.58,122,-251,-2035,23,-2,40,189,456,-267,-322
,1575,2023-10-27 12:27:50.59,119,-242,-2038,23,-1,42,464,695,-231,-579
,1576,2023-10-27 12:27:50.60,121,-251,-2039,29,3,40,187,451,-264,-319
,1577,2023-10-27 12:27:50.61,120,-246,-2042,35,7,39,448,693,-245,-570
,1578,2023-10-27 12:27:50.62,115,-238,-2037,34,10,38,163,440,-277,-301
,1579,2023-10-27 12:27:50.63,126,-241,-2038,28,16,34,436,686,-250,-561
,1580,2023-10-27 12:27:50.64,116,-242,-2030,23,20,35,170,438,-268,-304
,1581,2023-10-27 12:27:50.65,125,-240,-2037,20,16,32,446,691,-245,-568
,1582,2023-10-27 12:27:50.66,116,-244,-2028,17,15,32,183,447,-264,-315
,1583,2023-10-27 12:27:50.67,114,-247,-2040,12,14,30,443,695,-252,-569
,1584,2023-10-27 12:27:50.68,119,-251,-2045,6,7,30,169,440,-271,-304
,1585,2023-10-27 12:27:50.69,121,-242,-2053,0,3,29,431,686,-255,-558
,1586,2023-10-27 12:27:50.70,121,-245,-2058,-5,-2,30,172,434,-262,-303
,1587,2023-10-27 12:27:50.71,123,-234,-2059,-14,-6,30,432,684,-252,-558
,1588,2023-10-27 12:27:50.72,112,-243,-2059,-23,-12,30,168,426,-258,-297
,1589,2023-10-27 12:27:50.73,104,-233,-2062,-30,-15,33,429,684,-255,-556
,1590,2023-10-27 12:27:50.74,104,-224,-2051,-42,-19,36,171,425,-254,-298
,1591,2023-10-27 12:27:50.75,104,-237,-2062,-49,-20,37,432,690,-258,-561
,1592,2023-10-27 12:27:50.76,103,-230,-2062,-53,-24,39,172,422,-250,-297
,1593,2023-10-27 12:27:50.77,107,-234,-2053,-56,-27,45,431,688,-257,-559
,1594,2023-10-27 12:27:50.78,107,-228,-2050,-60,-23,48,179,418,-239,-298
,1595,2023-10-27 12:27:50.79,97,-226,-2044,-60,-20,48,430,687,-257,-558
,1596,2023-10-27 12:27:50.80,103,-219,-2043,-62,-16,51,180,418,-238,-299
,1597,2023-10-27 12:27:50.81,111,-214,-2039,-58,-12,51,432,689,-257,-560
,1598,2023-10-27 12:27:50.82,107,-209,-2037,-59,-10,50,197,433,-236,-315
,1599,2023-10-27 12:27:50.83,111,-204,-2039,-59,-4,53,437,694,-257,-565
,1600,2023-10-27 12:27:50.84,102,-202,-2035,-60,2,50,198,433,-235,-315
,1601,2023-10-27 12:27:50.85,115,-196,-2028,-57,7,48,430,681,-251,-555
,1602,2023-10-27 12:27:50.86,99,-206,-2042,-53,11,49,203,432,-229,-317
,1603,2023-10-27 12:27:50.87,92,-206,-2036,-46,3,49,446,696,-250,-571
,1604,2023-10-27 12:27:50.88,92,-205,-2036,-36,2,50,210,436,-226,-323
,1605,2023-10-27 12:27:50.89,114,-199,-2042,-31,6,49,443,697,-254,-570
,1606,2023-10-27 12:27:50.90,108,-184,-2050,-36,11,43,205,428,-223,-316
,1607,2023-10-27 12:27:50.91,103,-187,-2051,-35,12,40,441,696,-255,-568
,1608,2023-10-27 12:27:50.92,100,-187,-2055,-27,8,35,213,430,-217,-321
,1609,2023-10-27 12:27:50.93,106,-182,-2059,-28,3,32,441,702,-261,-571
,1610,2023-10-27 12:27:50.94,112,-181,-2055,-26,4,27,220,435,-215,-327
,1611,2023-10-27 12:27:50.95,100,-184,-2056,-25,0,26,434,698,-264,-566
,1612,2023-10-27 12:27:50.96,97,-184,-2053,-23,-2,21,221,434,-213,-327
,1613,2023-10-27 12:27:50.97,108,-186,-2052,-25,-3,16,433,694,-261,-563
,1614,2023-10-27 12:27:50.98,117,-181,-2052,-26,0,13,231,440,-209,-335
,1615,2023-10-27 12:27:50.99,119,-178,-2048,-24,0,11,436,696,-260,-566
,1616,2023-10-27 12:27:51.00,108,-180,-2048,-24,0,7,235,438,-203,-336
,1617,2023-10-27 12:27:51.01,89,-181,-2043,-21,1,5,429,691,-262,-560
,1618,2023-10-27 12:27:51.02,96,-182,-2047,-23,2,4,231,436,-205,-333
,1619,2023-10-27 12:27:51.03,101,-178,-2052,-22,6,2,425,692,-267,-558
,1620,2023-10-27 12:27:51.04,96,-174,-2050,-22,8,-1,233,438,-205,-335
,1621,2023-10-27 12:27:51.05,92,-186,-2045,-22,10,-4,419,687,-268,-553
,1622,2023-10-27 12:27:51.06,95,-179,-2041,-18,13,-6,234,438,-204,-336
,1623,2023-10-27 12:27:51.07,100,-181,-2037,-17,15,-8,415,690,-275,-552
,1624,2023-10-27 12:27:51.08,106,-179,-2035,-14,21,-11,241,440,-199,-340
,1625,2023-10-27 12:27:51.09,105,-181,-2035,-17,24,-12,411,689,-278,-550
,1626,2023-10-27 12:27:51.10,96,-188,-2040,-14,27,-14,249,444,-195,-346
,1627,2023-10-27 12:27:51.11,105,-184,-2039,-13,32,-17,404,684,-280,-544
,1628,2023-10-27 12:27:51.12,103,-184,-2045,-11,34,-20,255,445,-190,-350
,1629,2023-10-27 12:27:51.13,102,-178,-2044,-11,37,-21,399,680,-281,-539
,1630,2023-10-27 12:27:51.14,97,-184,-2053,-12,38,-24,257,448,-191,-352
,1631,2023-10-27 12:27:51.15,117,-173,-2036,-11,40,-29,394,675,-281,-534
,1632,2023-10-27 12:27:51.16,123,-173,-2047,-9,42,-34,264,453,-189,-358
,1633,2023-10-27 12:27:51.17,112,-176,-2040,-9,47,-40,390,673,-283,-531
,1634,2023-10-27 12:27:51.18,114,-180,-2041,-4,53,-44,264,453,-189,-358
,1635,2023-10-27 12:27:51.19,122,-182,-2043,-3,57,-50,391,667,-276,-529
,1636,2023-10-27 12:27:51.20,123,-179,-2037,1,60,-51,273,456,-183,-364
,1637,2023-10-27 12:27:51.21,121,-187,-2043,4,61,-54,390,669,-279,-529
,1638,2023-10-27 12:27:51.22,129,-186,-2047,10,67,-53,279,462,-183,-370
,1639,2023-10-27 12:27:51.23,125,-190,-2038,15,66,-56,390,669,-279,-529
,1640,2023-10-27 12:27:51.24,121,-197,-2025,18,72,-55,279,460,-181,-369
,1641,2023-10-27 12:27:51.25,137,-200,-2031,20,77,-55,373,662,-289,-517
,1642,2023-10-27 12:27:51.26,130,-202,-2033,23,74,-53,275,454,-179,-364
,1643,2023-10-27 12:27:51.27,132,-206,-2042,24,78,-49,355,659,-304,-507
,1644,2023-10-27 12:27:51.28,132,-208,-2047,23,80,-45,281,466,-185,-373
,1645,2023-10-27 12:27:51.29,135,-203,-2057,28,82,-43,334,647,-313,-490
,1646,2023-10-27 12:27:51.30,139,-199,-2061,28,82,-41,276,461,-185,-368
,1647,2023-10-27 12:27:51.31,144,-190,-2054,23,84,-40,310,635,-325,-472
,1648,2023-10-27 12:27:51.32,141,-183,-2060,20,90,-42,269,467,-198,-368
,1649,2023-10-27 12:27:51.33,142,-188,-2050,14,95,-48,302,631,-329,-466
,1650,2023-10-27 12:27:51.34,156,-186,-2043,8,99,-52,278,477,-199,-377
,1651,2023-10-27 12:27:51.35,145,-188,-2044,4,98,-53,299,634,-335,-466
,1652,2023-10-27 12:27:51.36,140,-189,-2045,0,91,-55,290,489,-199,-389
,1653,2023-10-27 12:27:51.37,160,-187,-2043,1,87,-57,319,634,-315,-476
,1654,2023-10-27 12:27:51.38,157,-182,-2050,-2,81,-59,315,495,-180,-405
,1655,2023-10-27 12:27:51.39,153,-184,-2048,-4,80,-62,323,629,-306,-476
,1656,2023-10-27 12:27:51.40,160,-181,-2050,-5,79,-64,320,499,-179,-409
,1657,2023-10-27 12:27:51.41,166,-186,-2049,-13,76,-65,319,623,-304,-471
,1658,2023-10-27 12:27:51.42,168,-179,-2057,-17,78,-67,324,502,-178,-413
,1659,2023-10-27 12:27:51.43,166,-183,-2059,-21,78,-67,314,620,-306,-467
,1660,2023-10-27 12:27:51.44,172,-177,-2051,-22,74,-69,329,504,-175,-416
,1661,2023-10-27 12:27:51.45,169,-170,-2050,-22,72,-70,302,613,-311,-457
,1662,2023-10-27 12:27:51.46,174,-181,-2043,-23,69,-67,331,505,-174,-418
,1663,2023-10-27 12:27:51.47,171,-176,-2052,-23,63,-66,285,599,-314,-442
,1664,2023-10-27 12:27:51.48,177,-181,-2051,-21,60,-66,333,509,-176,-421
,1665,2023-10-27 12:27:51.49,170,-180,-2057,-22,55,-65,281,595,-314,-438
,1666,2023-10-27 12:27:51.50,176,-176,-2050,-21,51,-63,342,522,-180,-432
,1667,2023-10-27 12:27:51.51,176,-183,-2056,-16,46,-59,282,593,-311,-437
,1668,2023-10-27 12:27:51.52,179,-172,-2051,-10,42,-57,349,527,-178,-438
,1669,2023-10-27 12:27:51.53,174,-178,-2055,-11,39,-53,286,591,-305,-438
,1670,2023-10-27 12:27:51.54,190,-182,-2040,-4,38,-47,364,539,-175,-451
,1671,2023-10-27 12:27:51.55,176,-190,-2048,-1,39,-44,287,589,-302,-438
,1672,2023-10-27 12:27:51.56,181,-196,-2056,2,35,-36,371,545,-174,-458
,1673,2023-10-27 12:27:51.57,170,-188,-2046,9,30,-29,288,593,-305,-440
,1674,2023-10-27 12:27:51.58,183,-191,-2040,17,28,-21,375,553,-178,-464
,1675,2023-10-27 12:27:51.59,197,-191,-2049,20,28,-17,279,587,-308,-433
,1676,2023-10-27 12:27:51.60,190,-189,-2051,20,26,-11,377,556,-179,-466
,1677,2023-10-27 12:27:51.61,194,-189,-2052,24,23,-5,276,584,-308,-430
,1678,2023-10-27 12:27:51.62,179,-192,-2056,29,22,-1,385,565,-180,-475
,1679,2023-10-27 12:27:51.63,174,-192,-2050,31,19,5,273,581,-308,-427
,1680,2023-10-27 12:27:51.64,191,-193,-2045,31,19,10,400,576,-176,-488
,1681,2023-10-27 12:27:51.65,181,-192,-2046,36,19,17,268,574,-306,-421
,1682,2023-10-27 12:27:51.66,189,-189,-2039,34,16,21,400,581,-181,-490
,1683,2023-10-27 12:27:51.67,183,-195,-2035,33,20,25,252,553,-301,-402
,1684,2023-10-27 12:27:51.68,177,-191,-2041,30,25,26,408,587,-179,-497
,1685,2023-10-27 12:27:51.69,189,-186,-2044,27,29,29,259,558,-299,-408
,1686,2023-10-27 12:27:51.70,193,-186,-2041,24,32,30,408,596,-188,-502
,1687,2023-10-27 12:27:51.71,186,-187,-2037,20,34,30,252,558,-306,-405
