// Data mode  : Full
// Data quality  : High
// Acceleration sensor's range  : 16g
// Gyroscope sensor's range  : 2000dps
//
//ARTIFACT,NUM,DATE,ACC_X,ACC_Y,ACC_Z,GYRO_X,GYRO_Y,GYRO_Z,EOG_L,EOG_R,EOG_H,EOG_V
,1,2023-10-20 13:50:08.24,182,-165,-2020,11,78,12,-467,-789,322,628
,2,2023-10-20 13:50:08.25,194,-174,-2030,9,90,24,-244,-919,675,581
,3,2023-10-20 13:50:08.26,201,-172,-2053,2,96,38,-467,-789,322,628
,4,2023-10-20 13:50:08.27,197,-173,-2065,3,91,41,-255,-887,632,571
,5,2023-10-20 13:50:08.28,217,-166,-2079,8,84,42,-471,-760,289,615
,6,2023-10-20 13:50:08.29,222,-154,-2077,1,80,44,-251,-888,637,569
,7,2023-10-20 13:50:08.30,233,-146,-2071,-21,78,38,-458,-747,289,602
,8,2023-10-20 13:50:08.31,223,-145,-2069,-38,80,33,-258,-763,505,510
,9,2023-10-20 13:50:08.32,235,-146,-2067,-47,80,30,-468,-620,152,544
,10,2023-10-20 13:50:08.33,235,-145,-2058,-59,83,31,-261,-711,450,486
,11,2023-10-20 13:50:08.34,250,-165,-2048,-84,85,31,-466,-614,148,540
,12,2023-10-20 13:50:08.35,253,-161,-2041,-97,95,29,-264,-696,432,480
,13,2023-10-20 13:50:08.36,261,-152,-2054,-105,102,36,-458,-587,129,522
,14,2023-10-20 13:50:08.37,248,-153,-2032,-111,129,45,-262,-655,393,458
,15,2023-10-20 13:50:08.38,279,-152,-2045,-106,102,65,-453,-571,118,512
,16,2023-10-20 13:50:08.39,246,-188,-2041,-82,116,65,-257,-714,457,485
,17,2023-10-20 13:50:08.40,264,-146,-2075,-66,101,84,-442,-614,172,528
,18,2023-10-20 13:50:08.41,261,-124,-2057,-75,95,102,-252,-671,419,461
,19,2023-10-20 13:50:08.42,279,-121,-2033,-63,87,107,-437,-581,144,509
,20,2023-10-20 13:50:08.43,281,-96,-2032,-49,65,95,-268,-736,468,502
,21,2023-10-20 13:50:08.44,287,-90,-2012,-59,62,85,-441,-630,189,535
,22,2023-10-20 13:50:08.45,285,-87,-2015,-58,66,70,-255,-680,425,467
,23,2023-10-20 13:50:08.46,311,-78,-2021,-65,65,61,-414,-539,125,476
,24,2023-10-20 13:50:08.47,326,-69,-2043,-82,68,51,-248,-612,364,430
,25,2023-10-20 13:50:08.48,314,-54,-2057,-102,62,36,-417,-527,110,472
,26,2023-10-20 13:50:08.49,308,-42,-2050,-112,49,20,-278,-666,388,472
,27,2023-10-20 13:50:08.50,318,-73,-2050,-110,36,8,-426,-599,173,512
,28,2023-10-20 13:50:08.51,327,-99,-2032,-100,20,2,-272,-745,473,508
,29,2023-10-20 13:50:08.52,315,-99,-2067,-84,4,2,-416,-632,216,524
,30,2023-10-20 13:50:08.53,312,-88,-2072,-69,-9,-6,-258,-723,465,490
,31,2023-10-20 13:50:08.54,299,-92,-2079,-62,-28,-9,-398,-598,200,498
,32,2023-10-20 13:50:08.55,301,-111,-2070,-64,-40,-8,-272,-690,418,481
,33,2023-10-20 13:50:08.56,291,-116,-2072,-52,-51,-7,-409,-590,181,499
,34,2023-10-20 13:50:08.57,275,-121,-2061,-32,-63,-2,-280,-716,436,498
,35,2023-10-20 13:50:08.58,270,-126,-2044,-9,-69,8,-399,-617,218,508
,36,2023-10-20 13:50:08.59,262,-120,-2048,8,-68,19,-275,-724,449,499
,37,2023-10-20 13:50:08.60,240,-125,-2032,20,-71,31,-396,-626,230,511
,38,2023-10-20 13:50:08.61,229,-136,-2035,31,-67,44,-297,-755,458,526
,39,2023-10-20 13:50:08.62,212,-115,-2032,63,-63,38,-401,-634,233,517
,40,2023-10-20 13:50:08.63,212,-90,-2034,121,-65,14,-302,-703,401,502
,41,2023-10-20 13:50:08.64,238,-81,-1994,158,-68,-25,-395,-600,205,497
,42,2023-10-20 13:50:08.65,254,-111,-1977,143,-72,-53,-290,-717,427,503
,43,2023-10-20 13:50:08.66,242,-130,-2007,87,-69,-61,-374,-617,243,495
,44,2023-10-20 13:50:08.67,232,-159,-2051,32,-52,-48,-293,-712,419,502
,45,2023-10-20 13:50:08.68,231,-206,-2075,-12,-31,3,-376,-596,220,486
,46,2023-10-20 13:50:08.69,219,-206,-2103,-45,-19,62,-304,-682,378,493
,47,2023-10-20 13:50:08.70,211,-181,-2080,-69,-22,113,-370,-574,204,472
,48,2023-10-20 13:50:08.71,226,-140,-2070,-78,-24,143,-300,-657,357,478
,49,2023-10-20 13:50:08.72,220,-112,-2070,-91,-31,161,-361,-534,173,447
,50,2023-10-20 13:50:08.73,224,-81,-2053,-95,-41,162,-312,-599,287,455
,51,2023-10-20 13:50:08.74,220,-64,-2043,-115,-66,118,-364,-537,173,450
,52,2023-10-20 13:50:08.75,221,-62,-2060,-132,-72,96,-302,-664,362,483
,53,2023-10-20 13:50:08.76,229,-71,-2071,-148,-73,80,-343,-601,258,472
,54,2023-10-20 13:50:08.77,229,-70,-2063,-163,-62,69,-314,-713,399,513
,55,2023-10-20 13:50:08.78,223,-49,-2061,-157,-49,58,-347,-624,277,485
,56,2023-10-20 13:50:08.79,225,-38,-2050,-136,-37,43,-314,-706,392,510
,57,2023-10-20 13:50:08.80,226,-27,-2043,-113,-28,19,-340,-614,274,477
,58,2023-10-20 13:50:08.81,214,-25,-2032,-93,-29,-5,-321,-690,369,505
,59,2023-10-20 13:50:08.82,209,-25,-2038,-78,-23,-22,-335,-568,233,451
,60,2023-10-20 13:50:08.83,220,-32,-2031,-63,-27,-39,-322,-617,295,469
,61,2023-10-20 13:50:08.84,224,-48,-2027,-46,-28,-52,-326,-534,208,430
,62,2023-10-20 13:50:08.85,222,-64,-2025,-34,-19,-46,-320,-623,303,471
,63,2023-10-20 13:50:08.86,211,-73,-2053,-18,-11,-31,-322,-548,226,435
,64,2023-10-20 13:50:08.87,220,-58,-2047,-13,-8,-10,-325,-613,288,469
,65,2023-10-20 13:50:08.88,213,-60,-2035,-16,-3,14,-318,-573,255,445
,66,2023-10-20 13:50:08.89,232,-58,-2026,-8,6,24,-335,-684,349,509
,67,2023-10-20 13:50:08.90,223,-45,-2030,-3,13,30,-322,-613,291,467
,68,2023-10-20 13:50:08.91,226,-46,-2024,-6,26,32,-341,-653,312,497
,69,2023-10-20 13:50:08.92,233,-40,-2030,-2,41,36,-315,-548,233,431
,70,2023-10-20 13:50:08.93,234,-41,-2033,-1,52,35,-347,-603,256,475
,71,2023-10-20 13:50:08.94,235,-45,-2034,-3,55,36,-308,-539,231,423
,72,2023-10-20 13:50:08.95,246,-50,-2036,-5,62,34,-352,-604,252,478
,73,2023-10-20 13:50:08.96,251,-47,-2050,-6,67,41,-296,-578,282,437
,74,2023-10-20 13:50:08.97,259,-54,-2054,-6,67,45,-353,-660,307,506
,75,2023-10-20 13:50:08.98,255,-46,-2058,3,64,45,-294,-618,324,456
,76,2023-10-20 13:50:08.99,259,-47,-2058,7,61,39,-368,-676,308,522
,77,2023-10-20 13:50:09.00,256,-51,-2053,13,57,40,-296,-620,324,458
,78,2023-10-20 13:50:09.01,264,-41,-2053,19,54,38,-371,-671,300,521
,79,2023-10-20 13:50:09.02,262,-44,-2043,16,57,31,-287,-653,366,470
,80,2023-10-20 13:50:09.03,254,-66,-2044,11,59,33,-374,-711,337,542
,81,2023-10-20 13:50:09.04,256,-58,-2048,9,60,41,-280,-642,362,461
,82,2023-10-20 13:50:09.05,266,-70,-2046,11,58,54,-368,-663,295,515
,83,2023-10-20 13:50:09.06,242,-68,-2043,6,62,67,-274,-575,301,424
,84,2023-10-20 13:50:09.07,258,-71,-2043,5,57,78,-382,-601,219,491
,85,2023-10-20 13:50:09.08,235,-61,-2058,13,58,86,-274,-558,284,416
,86,2023-10-20 13:50:09.09,250,-58,-2048,32,55,88,-382,-607,225,494
,87,2023-10-20 13:50:09.10,252,-52,-2041,53,56,83,-268,-597,329,432
,88,2023-10-20 13:50:09.11,244,-66,-2043,73,55,71,-384,-644,260,514
,89,2023-10-20 13:50:09.12,265,-70,-2029,89,63,64,-256,-608,352,432
,90,2023-10-20 13:50:09.13,269,-83,-2034,107,74,59,-380,-641,261,510
,91,2023-10-20 13:50:09.14,270,-83,-2043,125,83,59,-253,-607,354,430
,92,2023-10-20 13:50:09.15,259,-78,-2052,130,89,63,-390,-639,249,514
,93,2023-10-20 13:50:09.16,251,-86,-2051,135,85,59,-256,-651,395,453
,94,2023-10-20 13:50:09.17,266,-84,-2045,135,79,57,-405,-692,287,548
,95,2023-10-20 13:50:09.18,266,-93,-2051,130,70,55,-252,-667,415,459
,96,2023-10-20 13:50:09.19,256,-96,-2066,126,64,51,-402,-670,268,536
,97,2023-10-20 13:50:09.20,256,-94,-2072,125,56,52,-252,-621,369,436
,98,2023-10-20 13:50:09.21,268,-97,-2063,125,52,48,-413,-622,209,517
,99,2023-10-20 13:50:09.22,269,-90,-2060,120,49,39,-252,-599,347,425
,100,2023-10-20 13:50:09.23,283,-86,-2060,111,49,38,-424,-614,190,519
,101,2023-10-20 13:50:09.24,284,-91,-2064,104,49,36,-251,-598,347,424
,102,2023-10-20 13:50:09.25,275,-86,-2049,100,46,32,-423,-610,187,516
,103,2023-10-20 13:50:09.26,267,-97,-2048,93,40,29,-246,-629,383,437
,104,2023-10-20 13:50:09.27,266,-107,-2050,86,32,27,-428,-652,224,540
,105,2023-10-20 13:50:09.28,283,-102,-2044,84,34,26,-241,-646,405,443
,106,2023-10-20 13:50:09.29,281,-100,-2041,80,31,27,-431,-647,216,539
,107,2023-10-20 13:50:09.30,287,-99,-2054,76,30,30,-243,-605,362,424
,108,2023-10-20 13:50:09.31,285,-97,-2045,64,29,30,-443,-598,155,520
,109,2023-10-20 13:50:09.32,283,-99,-2039,55,28,29,-244,-622,378,433
,110,2023-10-20 13:50:09.33,282,-97,-2037,49,26,32,-445,-644,199,544
,111,2023-10-20 13:50:09.34,272,-98,-2023,49,26,26,-259,-652,393,455
,112,2023-10-20 13:50:09.35,282,-110,-2018,48,23,23,-471,-630,159,550
,113,2023-10-20 13:50:09.36,287,-117,-2035,43,28,30,-252,-631,379,441
,114,2023-10-20 13:50:09.37,286,-108,-2026,38,30,34,-443,-612,169,527
,115,2023-10-20 13:50:09.38,276,-103,-2034,43,30,37,-227,-631,404,429
,116,2023-10-20 13:50:09.39,275,-116,-2034,59,30,40,-444,-623,179,533
,117,2023-10-20 13:50:09.40,292,-79,-2033,97,25,16,-238,-686,448,462
,118,2023-10-20 13:50:09.41,285,-67,-2009,131,22,-25,-454,-666,212,560
,119,2023-10-20 13:50:09.42,290,-88,-2027,130,27,-54,-234,-691,457,462
,120,2023-10-20 13:50:09.43,315,-87,-2041,103,32,-68,-454,-645,191,549
,121,2023-10-20 13:50:09.44,306,-149,-2032,94,41,-78,-237,-632,395,434
,122,2023-10-20 13:50:09.45,291,-160,-2073,90,46,-71,-456,-591,135,523
,123,2023-10-20 13:50:09.46,302,-165,-2084,67,58,-41,-230,-657,427,443
,124,2023-10-20 13:50:09.47,289,-154,-2103,60,62,-6,-452,-644,192,548
,125,2023-10-20 13:50:09.48,288,-131,-2102,61,53,17,-226,-675,449,450
,126,2023-10-20 13:50:09.49,293,-112,-2062,47,39,40,-454,-618,164,536
,127,2023-10-20 13:50:09.50,281,-127,-2044,48,29,44,-234,-662,428,448
,128,2023-10-20 13:50:09.51,289,-103,-2033,58,7,40,-468,-621,153,544
,129,2023-10-20 13:50:09.52,278,-98,-2015,54,-3,39,-239,-639,400,439
,130,2023-10-20 13:50:09.53,278,-96,-2021,61,-6,36,-467,-586,119,526
,131,2023-10-20 13:50:09.54,310,-97,-2000,57,-11,37,-248,-647,399,447
,132,2023-10-20 13:50:09.55,280,-124,-2010,66,-6,23,-479,-612,133,545
,133,2023-10-20 13:50:09.56,280,-117,-2026,77,-9,19,-244,-712,468,478
,134,2023-10-20 13:50:09.57,292,-113,-2039,75,1,20,-472,-658,186,565
,135,2023-10-20 13:50:09.58,283,-104,-2066,72,5,25,-234,-658,424,446
,136,2023-10-20 13:50:09.59,282,-100,-2080,62,0,20,-464,-569,105,516
,137,2023-10-20 13:50:09.60,291,-130,-2034,51,3,23,-236,-627,391,431
,138,2023-10-20 13:50:09.61,280,-133,-2044,61,2,13,-474,-585,111,529
,139,2023-10-20 13:50:09.62,281,-117,-2059,72,-6,8,-249,-660,411,454
,140,2023-10-20 13:50:09.63,292,-108,-2051,80,-12,-2,-477,-607,130,542
,141,2023-10-20 13:50:09.64,266,-109,-2055,76,-19,-10,-235,-714,479,474
,142,2023-10-20 13:50:09.65,281,-113,-2054,56,-19,-6,-460,-646,186,553
,143,2023-10-20 13:50:09.66,288,-163,-2000,55,-16,-12,-237,-698,461,467
,144,2023-10-20 13:50:09.67,283,-183,-2013,78,-19,-11,-474,-611,137,542
,145,2023-10-20 13:50:09.68,291,-173,-2048,82,-18,6,-242,-730,488,486
,146,2023-10-20 13:50:09.69,280,-151,-2071,73,-15,32,-458,-656,198,557
,147,2023-10-20 13:50:09.70,278,-150,-2058,73,-15,50,-242,-730,488,486
,148,2023-10-20 13:50:09.71,282,-166,-2033,90,-15,54,-471,-625,154,548
,149,2023-10-20 13:50:09.72,292,-160,-2019,109,-15,52,-254,-713,459,483
,150,2023-10-20 13:50:09.73,279,-145,-2031,116,-10,44,-465,-615,150,540
,151,2023-10-20 13:50:09.74,284,-138,-2028,108,1,44,-242,-666,424,454
,152,2023-10-20 13:50:09.75,289,-150,-2015,114,9,33,-456,-576,120,516
,153,2023-10-20 13:50:09.76,304,-163,-2000,115,18,22,-245,-700,455,472
,154,2023-10-20 13:50:09.77,287,-167,-2043,112,28,15,-464,-626,162,545
,155,2023-10-20 13:50:09.78,293,-177,-2038,118,39,18,-252,-732,480,492
,156,2023-10-20 13:50:09.79,303,-183,-2038,127,49,18,-462,-622,160,542
,157,2023-10-20 13:50:09.80,299,-181,-2052,136,52,19,-256,-670,414,463
,158,2023-10-20 13:50:09.81,301,-161,-2052,135,56,14,-457,-576,119,516
,159,2023-10-20 13:50:09.82,294,-131,-2077,122,52,6,-256,-712,456,484
,160,2023-10-20 13:50:09.83,306,-132,-2053,103,52,-3,-459,-638,179,548
,161,2023-10-20 13:50:09.84,291,-173,-2032,105,55,-21,-259,-747,488,503
,162,2023-10-20 13:50:09.85,277,-166,-2040,110,48,-31,-449,-627,178,538
,163,2023-10-20 13:50:09.86,297,-162,-2040,106,39,-33,-248,-685,437,466
,164,2023-10-20 13:50:09.87,282,-162,-2049,100,34,-35,-436,-568,132,502
,165,2023-10-20 13:50:09.88,269,-145,-2066,93,26,-38,-256,-661,405,458
,166,2023-10-20 13:50:09.89,292,-170,-2010,80,14,-36,-444,-581,137,512
,167,2023-10-20 13:50:09.90,293,-205,-2005,76,19,-34,-264,-687,423,475
,168,2023-10-20 13:50:09.91,283,-185,-2023,92,15,-35,-435,-590,155,512
,169,2023-10-20 13:50:09.92,282,-175,-2011,99,18,-34,-250,-685,435,467
,170,2023-10-20 13:50:09.93,286,-176,-2019,99,24,-28,-420,-589,169,504
,171,2023-10-20 13:50:09.94,301,-172,-2028,95,26,-21,-258,-713,455,485
,172,2023-10-20 13:50:09.95,304,-197,-2025,96,34,-21,-428,-614,186,521
,173,2023-10-20 13:50:09.96,295,-213,-2025,105,44,-20,-266,-700,434,483
,174,2023-10-20 13:50:09.97,304,-226,-2032,106,48,-16,-424,-582,158,503
,175,2023-10-20 13:50:09.98,308,-214,-2051,106,64,2,-262,-660,398,461
,176,2023-10-20 13:50:09.99,293,-220,-2058,116,71,18,-413,-577,164,495
,177,2023-10-20 13:50:10.00,297,-201,-2049,132,76,29,-271,-721,450,496
,178,2023-10-20 13:50:10.01,299,-190,-2037,146,69,24,-418,-615,197,516
,179,2023-10-20 13:50:10.02,304,-185,-2043,158,62,13,-272,-702,430,487
,180,2023-10-20 13:50:10.03,300,-198,-2028,166,54,-3,-405,-610,205,507
,181,2023-10-20 13:50:10.04,311,-226,-2023,170,61,-13,-272,-742,470,507
,182,2023-10-20 13:50:10.05,308,-215,-2050,171,63,-17,-395,-638,243,516
,183,2023-10-20 13:50:10.06,318,-235,-2039,169,72,-20,-272,-735,463,503
,184,2023-10-20 13:50:10.07,312,-229,-2052,172,69,-16,-400,-608,208,504
,185,2023-10-20 13:50:10.08,311,-233,-2044,169,60,-17,-287,-686,399,486
,186,2023-10-20 13:50:10.09,316,-233,-2033,163,55,-22,-397,-559,162,478
,187,2023-10-20 13:50:10.10,321,-244,-2023,163,42,-21,-278,-636,358,457
,188,2023-10-20 13:50:10.11,312,-258,-2023,158,36,-17,-383,-587,204,485
,189,2023-10-20 13:50:10.12,318,-269,-2019,153,38,-7,-288,-784,496,536
,190,2023-10-20 13:50:10.13,314,-269,-2021,152,47,-2,-397,-618,221,507
,191,2023-10-20 13:50:10.14,311,-278,-2033,150,40,10,-294,-541,247,417
,192,2023-10-20 13:50:10.15,316,-279,-2026,145,35,16,-373,-380,7,376
,193,2023-10-20 13:50:10.16,319,-287,-2026,137,32,26,-289,-463,174,376
,194,2023-10-20 13:50:10.17,321,-267,-2035,125,34,36,-362,-539,177,450
,195,2023-10-20 13:50:10.18,331,-272,-2028,111,29,43,-297,-838,541,567
,196,2023-10-20 13:50:10.19,319,-274,-2031,100,26,46,-375,-736,361,555
,197,2023-10-20 13:50:10.20,313,-269,-2040,89,17,50,-319,-720,401,519
,198,2023-10-20 13:50:10.21,307,-277,-2029,76,14,56,-371,-547,176,459
,199,2023-10-20 13:50:10.22,309,-287,-2037,67,10,61,-324,-632,308,478
,200,2023-10-20 13:50:10.23,326,-278,-2033,66,4,65,-373,-573,200,473
,201,2023-10-20 13:50:10.24,323,-276,-2023,56,3,67,-318,-708,390,513
,202,2023-10-20 13:50:10.25,319,-283,-2030,45,6,71,-354,-615,261,484
,203,2023-10-20 13:50:10.26,311,-280,-2031,37,3,58,-323,-682,359,502
,204,2023-10-20 13:50:10.27,309,-293,-2050,27,-3,60,-351,-577,226,464
,205,2023-10-20 13:50:10.28,303,-271,-2058,26,-9,62,-324,-656,332,490
,206,2023-10-20 13:50:10.29,302,-247,-2043,48,-20,45,-351,-579,228,465
,207,2023-10-20 13:50:10.30,315,-266,-2006,70,-28,19,-334,-674,340,504
,208,2023-10-20 13:50:10.31,298,-269,-1993,97,-26,-11,-343,-564,221,453
,209,2023-10-20 13:50:10.32,294,-256,-2006,93,-23,-21,-342,-613,271,477
,210,2023-10-20 13:50:10.33,319,-247,-2025,49,-33,-11,-338,-548,210,443
,211,2023-10-20 13:50:10.34,310,-268,-2030,-1,-40,-13,-331,-654,323,492
,212,2023-10-20 13:50:10.35,321,-294,-2004,-27,-34,-13,-322,-591,269,456
,213,2023-10-20 13:50:10.36,319,-338,-1999,-35,-28,0,-342,-666,324,504
,214,2023-10-20 13:50:10.37,314,-324,-2031,-41,-19,34,-324,-582,258,453
,215,2023-10-20 13:50:10.38,324,-304,-2036,-52,-12,66,-342,-654,312,498
,216,2023-10-20 13:50:10.39,320,-274,-2049,-59,-3,83,-314,-564,250,439
,217,2023-10-20 13:50:10.40,329,-252,-2044,-66,-3,82,-344,-627,283,485
,218,2023-10-20 13:50:10.41,326,-242,-2033,-75,1,67,-308,-548,240,428
,219,2023-10-20 13:50:10.42,344,-223,-2043,-91,1,54,-352,-614,262,483
,220,2023-10-20 13:50:10.43,334,-222,-2049,-102,0,43,-311,-570,259,440
,221,2023-10-20 13:50:10.44,340,-206,-2035,-107,-3,32,-364,-659,295,511
,222,2023-10-20 13:50:10.45,339,-204,-2015,-105,-9,20,-302,-597,295,449
,223,2023-10-20 13:50:10.46,335,-202,-2028,-102,-14,3,-362,-647,285,504
,224,2023-10-20 13:50:10.47,325,-220,-2022,-99,-20,-3,-295,-573,278,434
,225,2023-10-20 13:50:10.48,333,-213,-2022,-92,-23,-8,-368,-622,254,495
,226,2023-10-20 13:50:10.49,324,-224,-2019,-79,-29,-13,-300,-571,271,435
,227,2023-10-20 13:50:10.50,329,-238,-2025,-78,-32,-13,-386,-626,240,506
,228,2023-10-20 13:50:10.51,320,-235,-2036,-76,-40,-13,-293,-568,275,430
,229,2023-10-20 13:50:10.52,316,-227,-2031,-68,-45,-8,-383,-634,251,508
,230,2023-10-20 13:50:10.53,310,-229,-2030,-64,-54,-6,-288,-557,269,422
,231,2023-10-20 13:50:10.54,309,-223,-2036,-76,-58,1,-399,-589,190,494
,232,2023-10-20 13:50:10.55,311,-208,-2027,-85,-53,0,-281,-552,271,416
,233,2023-10-20 13:50:10.56,314,-214,-2015,-89,-53,4,-382,-616,234,499
,234,2023-10-20 13:50:10.57,308,-213,-2017,-87,-45,3,-282,-601,319,441
,235,2023-10-20 13:50:10.58,312,-219,-2015,-87,-41,-1,-402,-638,236,520
,236,2023-10-20 13:50:10.59,315,-214,-2004,-89,-32,-1,-281,-595,314,438
,237,2023-10-20 13:50:10.60,327,-212,-2003,-86,-20,1,-405,-627,222,516
,238,2023-10-20 13:50:10.61,322,-218,-2016,-81,-10,-1,-282,-629,347,455
,239,2023-10-20 13:50:10.62,303,-213,-2022,-80,-1,7,-412,-682,270,547
,240,2023-10-20 13:50:10.63,326,-226,-2030,-80,1,13,-268,-635,367,451
,241,2023-10-20 13:50:10.64,313,-235,-2040,-78,4,21,-413,-636,223,524
,242,2023-10-20 13:50:10.65,322,-228,-2031,-79,10,28,-271,-638,367,454
,243,2023-10-20 13:50:10.66,314,-211,-2033,-81,13,33,-418,-684,266,551
,244,2023-10-20 13:50:10.67,321,-201,-2039,-90,14,30,-264,-691,427,477
,245,2023-10-20 13:50:10.68,316,-191,-2036,-109,16,24,-417,-703,286,560
,246,2023-10-20 13:50:10.69,317,-186,-2042,-124,17,21,-264,-638,374,451
,247,2023-10-20 13:50:10.70,318,-195,-2033,-147,12,18,-437,-613,176,525
,248,2023-10-20 13:50:10.71,322,-193,-2026,-176,11,18,-268,-580,312,424
,249,2023-10-20 13:50:10.72,328,-197,-2016,-196,11,22,-430,-597,167,513
,250,2023-10-20 13:50:10.73,306,-230,-2017,-216,27,33,-250,-612,362,431
,251,2023-10-20 13:50:10.74,274,-217,-2079,-200,27,53,-430,-635,205,532
,252,2023-10-20 13:50:10.75,297,-120,-2052,-129,-4,38,-258,-653,395,455
,253,2023-10-20 13:50:10.76,296,-102,-2029,-81,-29,-6,-441,-662,221,551
,254,2023-10-20 13:50:10.77,308,-116,-1997,-77,-42,-46,-258,-731,473,494
,255,2023-10-20 13:50:10.78,311,-136,-2010,-91,-41,-78,-445,-729,284,587
,256,2023-10-20 13:50:10.79,307,-154,-2023,-88,-44,-98,-252,-672,420,462
,257,2023-10-20 13:50:10.80,311,-187,-2028,-82,-40,-101,-449,-622,173,535
,258,2023-10-20 13:50:10.81,319,-227,-2036,-57,-16,-54,-256,-649,393,452
,259,2023-10-20 13:50:10.82,314,-230,-2044,-47,-3,-17,-454,-658,204,556
,260,2023-10-20 13:50:10.83,312,-201,-2042,-37,4,14,-249,-631,382,440
,261,2023-10-20 13:50:10.84,313,-177,-2044,-25,4,38,-456,-598,142,527
,262,2023-10-20 13:50:10.85,307,-164,-2032,-22,-1,48,-255,-592,337,423
,263,2023-10-20 13:50:10.86,318,-164,-2040,-25,-3,52,-460,-589,129,524
,264,2023-10-20 13:50:10.87,329,-168,-2046,-37,-7,61,-248,-569,321,408
,265,2023-10-20 13:50:10.88,321,-148,-2053,-40,-12,72,-456,-552,96,504
,266,2023-10-20 13:50:10.89,330,-133,-2041,-34,-22,65,-238,-640,402,439
,267,2023-10-20 13:50:10.90,331,-135,-2049,-37,-28,57,-456,-656,200,556
,268,2023-10-20 13:50:10.91,321,-122,-2050,-38,-33,44,-238,-752,514,495
,269,2023-10-20 13:50:10.92,321,-113,-2044,-25,-37,27,-453,-715,262,584
,270,2023-10-20 13:50:10.93,302,-130,-2025,-16,-48,4,-246,-743,497,494
,271,2023-10-20 13:50:10.94,327,-136,-2040,-30,-50,-5,-471,-680,209,575
,272,2023-10-20 13:50:10.95,303,-160,-2059,-43,-50,-10,-245,-781,536,513
,273,2023-10-20 13:50:10.96,289,-156,-2067,-47,-53,-2,-465,-733,268,599
,274,2023-10-20 13:50:10.97,304,-142,-2053,-62,-61,9,-251,-815,564,533
,275,2023-10-20 13:50:10.98,306,-133,-2057,-82,-70,10,-484,-753,269,618
,276,2023-10-20 13:50:10.99,299,-121,-2060,-97,-65,6,-255,-898,643,576
,277,2023-10-20 13:50:11.00,303,-126,-2051,-98,-59,9,-477,-826,349,651
,278,2023-10-20 13:50:11.01,299,-107,-2044,-90,-63,14,-246,-881,635,563
,279,2023-10-20 13:50:11.02,294,-121,-2046,-93,-67,17,-479,-770,291,624
,280,2023-10-20 13:50:11.03,291,-100,-2013,-87,-69,8,-248,-846,598,547
,281,2023-10-20 13:50:11.04,278,-123,-2020,-71,-71,0,-478,-767,289,622
,282,2023-10-20 13:50:11.05,279,-110,-2023,-59,-71,-1,-242,-900,658,571
,283,2023-10-20 13:50:11.06,273,-114,-2029,-45,-71,-5,-472,-812,340,642
,284,2023-10-20 13:50:11.07,272,-107,-2028,-36,-75,-11,-246,-898,652,572
,285,2023-10-20 13:50:11.08,263,-120,-2027,-30,-74,-17,-485,-793,308,639
,286,2023-10-20 13:50:11.09,261,-131,-2028,-26,-66,-13,-248,-922,674,585
,287,2023-10-20 13:50:11.10,249,-133,-2041,-29,-58,-5,-478,-826,348,652
,288,2023-10-20 13:50:11.11,244,-129,-2056,-33,-55,9,-238,-932,694,585
,289,2023-10-20 13:50:11.12,259,-115,-2061,-41,-50,14,-471,-810,339,640
,290,2023-10-20 13:50:11.13,246,-111,-2061,-47,-49,14,-250,-908,658,579
,291,2023-10-20 13:50:11.14,238,-104,-2057,-55,-40,12,-488,-795,307,641
,292,2023-10-20 13:50:11.15,243,-111,-2054,-50,-41,9,-253,-918,665,585
,293,2023-10-20 13:50:11.16,244,-102,-2055,-43,-39,4,-479,-811,332,645
,294,2023-10-20 13:50:11.17,239,-95,-2052,-33,-30,-2,-252,-934,682,593
,295,2023-10-20 13:50:11.18,232,-107,-2055,-22,-22,-8,-479,-816,337,647
,296,2023-10-20 13:50:11.19,230,-94,-2048,-14,-17,-7,-248,-944,696,596
,297,2023-10-20 13:50:11.20,237,-117,-2031,-4,-7,-8,-478,-819,341,648
,298,2023-10-20 13:50:11.21,222,-108,-2047,9,-2,-4,-254,-928,674,591
,299,2023-10-20 13:50:11.22,232,-116,-2018,14,5,6,-474,-801,327,637
,300,2023-10-20 13:50:11.23,227,-120,-2025,17,16,16,-244,-925,681,584
,301,2023-10-20 13:50:11.24,242,-110,-2026,18,29,23,-466,-792,326,629
,302,2023-10-20 13:50:11.25,242,-108,-2033,20,39,28,-256,-893,637,574
,303,2023-10-20 13:50:11.26,248,-104,-2024,17,46,30,-478,-764,286,621
,304,2023-10-20 13:50:11.27,239,-97,-2029,19,48,28,-264,-880,616,572
,305,2023-10-20 13:50:11.28,249,-95,-2030,18,54,32,-477,-763,286,620
,306,2023-10-20 13:50:11.29,255,-97,-2031,13,55,31,-256,-873,617,564
,307,2023-10-20 13:50:11.30,257,-96,-2039,11,59,34,-460,-734,274,597
,308,2023-10-20 13:50:11.31,261,-101,-2039,11,56,32,-259,-802,543,530
,309,2023-10-20 13:50:11.32,257,-113,-2041,12,58,33,-468,-678,210,573
,310,2023-10-20 13:50:11.33,284,-102,-2034,8,55,43,-256,-776,520,516
,311,2023-10-20 13:50:11.34,260,-105,-2050,6,54,40,-461,-687,226,574
,312,2023-10-20 13:50:11.35,258,-125,-2070,-4,53,51,-258,-825,567,541
,313,2023-10-20 13:50:11.36,245,-81,-2079,-1,50,59,-455,-721,266,588
,314,2023-10-20 13:50:11.37,257,-52,-2070,18,39,37,-258,-818,560,538
,315,2023-10-20 13:50:11.38,263,-46,-2048,30,31,1,-453,-706,253,579
,316,2023-10-20 13:50:11.39,264,-53,-2034,43,28,-42,-267,-828,561,547
,317,2023-10-20 13:50:11.40,276,-87,-2032,53,29,-73,-442,-712,270,577
,318,2023-10-20 13:50:11.41,277,-114,-2045,51,35,-80,-265,-832,567,548
,319,2023-10-20 13:50:11.42,267,-120,-2036,51,36,-73,-442,-730,288,586
,320,2023-10-20 13:50:11.43,255,-135,-2049,52,36,-64,-267,-879,612,573
,321,2023-10-20 13:50:11.44,269,-133,-2061,49,36,-44,-438,-755,317,596
,322,2023-10-20 13:50:11.45,268,-116,-2040,58,32,-26,-279,-859,580,569
,323,2023-10-20 13:50:11.46,278,-89,-2023,63,26,-24,-435,-737,302,586
,324,2023-10-20 13:50:11.47,284,-115,-2032,48,31,-12,-280,-858,578,569
,325,2023-10-20 13:50:11.48,289,-129,-2037,36,43,9,-429,-731,302,580
,326,2023-10-20 13:50:11.49,288,-131,-2055,32,56,34,-265,-846,581,555
,327,2023-10-20 13:50:11.50,274,-116,-2039,33,59,55,-414,-729,315,571
,328,2023-10-20 13:50:11.51,286,-104,-2044,33,57,71,-273,-855,582,564
,329,2023-10-20 13:50:11.52,288,-112,-2043,32,49,80,-418,-743,325,580
,330,2023-10-20 13:50:11.53,289,-102,-2051,38,41,74,-290,-858,568,574
,331,2023-10-20 13:50:11.54,290,-106,-2051,50,36,71,-412,-760,348,586
,332,2023-10-20 13:50:11.55,292,-95,-2045,55,29,64,-275,-913,638,594
,333,2023-10-20 13:50:11.56,301,-85,-2048,59,32,48,-402,-790,388,596
,334,2023-10-20 13:50:11.57,294,-89,-2052,66,31,24,-283,-875,592,579
,335,2023-10-20 13:50:11.58,305,-98,-2030,67,25,0,-397,-732,335,564
,336,2023-10-20 13:50:11.59,304,-126,-2036,59,27,-11,-287,-828,541,557
,337,2023-10-20 13:50:11.60,314,-150,-2039,47,32,-2,-398,-712,314,555
,338,2023-10-20 13:50:11.61,312,-164,-2055,36,31,23,-305,-830,525,567
,339,2023-10-20 13:50:11.62,315,-147,-2057,38,22,45,-399,-745,346,572
,340,2023-10-20 13:50:11.63,313,-133,-2046,45,19,53,-294,-881,587,587
,341,2023-10-20 13:50:11.64,309,-119,-2042,48,16,58,-378,-766,388,572
,342,2023-10-20 13:50:11.65,300,-117,-2043,57,16,54,-289,-851,562,570
,343,2023-10-20 13:50:11.66,301,-115,-2041,69,10,47,-374,-752,378,563
,344,2023-10-20 13:50:11.67,296,-111,-2034,80,6,39,-303,-881,578,592
,345,2023-10-20 13:50:11.68,295,-121,-2040,80,8,30,-373,-763,390,568
,346,2023-10-20 13:50:11.69,301,-123,-2049,79,2,17,-300,-843,543,571
,347,2023-10-20 13:50:11.70,296,-125,-2040,77,-3,8,-359,-752,393,555
,348,2023-10-20 13:50:11.71,309,-135,-2059,65,-1,4,-299,-870,571,584
,349,2023-10-20 13:50:11.72,299,-154,-2041,60,2,5,-356,-756,400,556
,350,2023-10-20 13:50:11.73,313,-144,-2045,66,0,11,-313,-827,514,570
,351,2023-10-20 13:50:11.74,300,-156,-2040,62,3,18,-352,-752,400,552
,352,2023-10-20 13:50:11.75,282,-158,-2049,53,7,29,-315,-882,567,598
,353,2023-10-20 13:50:11.76,297,-143,-2036,49,4,33,-349,-787,438,568
,354,2023-10-20 13:50:11.77,293,-145,-2041,37,1,36,-327,-865,538,596
,355,2023-10-20 13:50:11.78,291,-151,-2051,27,5,39,-352,-744,392,548
,356,2023-10-20 13:50:11.79,296,-151,-2030,25,5,47,-328,-817,489,572
,357,2023-10-20 13:50:11.80,295,-145,-2029,19,4,50,-341,-764,423,552
,358,2023-10-20 13:50:11.81,297,-142,-2034,8,6,51,-337,-876,539,606
,359,2023-10-20 13:50:11.82,291,-132,-2036,1,7,50,-341,-817,476,579
,360,2023-10-20 13:50:11.83,299,-140,-2040,-5,10,49,-340,-899,559,619
,361,2023-10-20 13:50:11.84,299,-125,-2041,-4,9,50,-334,-813,479,573
,362,2023-10-20 13:50:11.85,294,-131,-2039,-6,6,44,-339,-876,537,607
,363,2023-10-20 13:50:11.86,292,-136,-2038,-4,6,37,-338,-799,461,568
,364,2023-10-20 13:50:11.87,293,-131,-2041,3,9,41,-359,-862,503,610
,365,2023-10-20 13:50:11.88,284,-129,-2046,10,11,41,-333,-823,490,578
,366,2023-10-20 13:50:11.89,288,-122,-2028,13,5,25,-359,-908,549,633
,367,2023-10-20 13:50:11.90,297,-123,-2026,15,-1,8,-332,-824,492,578
,368,2023-10-20 13:50:11.91,298,-136,-2034,11,4,-2,-374,-858,484,616
,369,2023-10-20 13:50:11.92,284,-143,-2043,14,12,-4,-325,-781,456,553
,370,2023-10-20 13:50:11.93,294,-150,-2044,13,16,-2,-368,-830,462,599
,371,2023-10-20 13:50:11.94,288,-146,-2044,13,19,1,-313,-778,465,545
,372,2023-10-20 13:50:11.95,289,-155,-2046,8,17,6,-372,-832,460,602
,373,2023-10-20 13:50:11.96,302,-152,-2039,1,17,17,-320,-797,477,558
,374,2023-10-20 13:50:11.97,291,-169,-2048,0,19,32,-388,-853,465,620
,375,2023-10-20 13:50:11.98,293,-154,-2040,0,21,46,-312,-844,532,578
,376,2023-10-20 13:50:11.99,305,-141,-2037,-4,20,60,-376,-895,519,635
,377,2023-10-20 13:50:12.00,300,-133,-2043,-10,20,64,-300,-837,537,568
,378,2023-10-20 13:50:12.01,296,-128,-2054,-14,14,66,-383,-844,461,613
,379,2023-10-20 13:50:12.02,294,-132,-2049,-16,7,62,-296,-802,506,549
,380,2023-10-20 13:50:12.03,307,-131,-2043,-16,0,56,-383,-833,450,608
,381,2023-10-20 13:50:12.04,301,-130,-2047,-12,-2,53,-283,-827,544,555
,382,2023-10-20 13:50:12.05,295,-127,-2042,-4,2,47,-384,-864,480,624
,383,2023-10-20 13:50:12.06,298,-121,-2048,-3,4,48,-285,-853,568,569
,384,2023-10-20 13:50:12.07,301,-127,-2044,-4,7,45,-395,-868,473,631
,385,2023-10-20 13:50:12.08,292,-122,-2037,6,4,35,-294,-823,529,558
,386,2023-10-20 13:50:12.09,306,-131,-2033,10,-4,29,-414,-822,408,618
,387,2023-10-20 13:50:12.10,302,-139,-2045,3,-11,25,-292,-811,519,551
,388,2023-10-20 13:50:12.11,305,-147,-2042,1,-6,31,-418,-827,409,622
,389,2023-10-20 13:50:12.12,315,-151,-2040,8,-4,35,-281,-818,537,549
,390,2023-10-20 13:50:12.13,300,-136,-2045,10,1,35,-411,-827,416,619
,391,2023-10-20 13:50:12.14,305,-119,-2045,5,3,31,-279,-828,549,553
,392,2023-10-20 13:50:12.15,307,-119,-2040,3,5,22,-412,-824,412,618
,393,2023-10-20 13:50:12.16,303,-122,-2048,5,6,15,-284,-861,577,572
,394,2023-10-20 13:50:12.17,307,-124,-2035,8,10,20,-433,-862,429,647
,395,2023-10-20 13:50:12.18,297,-122,-2030,10,13,23,-281,-887,606,584
,396,2023-10-20 13:50:12.19,288,-127,-2024,17,9,24,-433,-859,426,646
,397,2023-10-20 13:50:12.20,301,-120,-2038,21,3,24,-275,-880,605,577
,398,2023-10-20 13:50:12.21,290,-127,-2036,20,3,27,-447,-863,416,655
,399,2023-10-20 13:50:12.22,303,-130,-2038,21,2,31,-279,-886,607,582
,400,2023-10-20 13:50:12.23,296,-125,-2046,21,0,29,-444,-853,409,648
,401,2023-10-20 13:50:12.24,310,-129,-2041,21,-6,27,-261,-897,636,579
,402,2023-10-20 13:50:12.25,291,-127,-2038,19,-8,23,-434,-865,431,649
,403,2023-10-20 13:50:12.26,285,-127,-2047,21,-7,21,-262,-874,612,568
,404,2023-10-20 13:50:12.27,275,-130,-2043,20,-6,21,-452,-823,371,637
,405,2023-10-20 13:50:12.28,294,-134,-2041,20,-6,15,-269,-857,588,563
,406,2023-10-20 13:50:12.29,289,-135,-2042,18,-3,14,-457,-823,366,640
,407,2023-10-20 13:50:12.30,289,-128,-2034,18,2,13,-254,-886,632,570
,408,2023-10-20 13:50:12.31,285,-139,-2035,19,6,13,-445,-846,401,645
,409,2023-10-20 13:50:12.32,279,-137,-2044,22,10,14,-255,-882,627,568
,410,2023-10-20 13:50:12.33,280,-124,-2045,22,9,10,-455,-824,369,639
,411,2023-10-20 13:50:12.34,297,-136,-2050,13,8,12,-254,-897,643,575
,412,2023-10-20 13:50:12.35,286,-140,-2049,14,9,13,-456,-852,396,654
,413,2023-10-20 13:50:12.36,292,-148,-2036,11,8,11,-246,-928,682,587
,414,2023-10-20 13:50:12.37,295,-145,-2027,9,8,17,-462,-861,399,661
,415,2023-10-20 13:50:12.38,287,-147,-2035,3,11,21,-264,-923,659,593
,416,2023-10-20 13:50:12.39,285,-125,-2034,7,14,20,-476,-852,376,664
,417,2023-10-20 13:50:12.40,286,-131,-2038,8,20,15,-256,-936,680,596
,418,2023-10-20 13:50:12.41,298,-130,-2039,5,19,12,-465,-859,394,662
,419,2023-10-20 13:50:12.42,291,-122,-2032,7,22,6,-252,-897,645,574
,420,2023-10-20 13:50:12.43,291,-151,-2028,6,25,1,-476,-804,328,640
,421,2023-10-20 13:50:12.44,288,-134,-2040,5,27,4,-252,-844,592,548
,422,2023-10-20 13:50:12.45,302,-128,-2038,1,31,9,-468,-764,296,616
,423,2023-10-20 13:50:12.46,295,-134,-2034,-5,35,15,-242,-827,585,534
,424,2023-10-20 13:50:12.47,301,-135,-2036,-13,38,23,-470,-762,292,616
,425,2023-10-20 13:50:12.48,288,-122,-2041,-8,43,24,-246,-829,583,537
,426,2023-10-20 13:50:12.49,295,-137,-2022,-2,48,19,-474,-759,285,616
,427,2023-10-20 13:50:12.50,308,-112,-2045,0,47,16,-247,-845,598,546
,428,2023-10-20 13:50:12.51,305,-117,-2033,-1,49,18,-479,-770,291,624
,429,2023-10-20 13:50:12.52,319,-115,-2041,7,46,15,-255,-870,615,562
,430,2023-10-20 13:50:12.53,330,-129,-2024,11,49,14,-488,-790,302,639
,431,2023-10-20 13:50:12.54,324,-140,-2043,8,48,16,-258,-868,610,563
,432,2023-10-20 13:50:12.55,319,-131,-2049,8,48,25,-488,-770,282,629
,433,2023-10-20 13:50:12.56,307,-123,-2050,14,52,31,-246,-839,593,542
,434,2023-10-20 13:50:12.57,317,-126,-2046,22,52,35,-484,-754,270,619
,435,2023-10-20 13:50:12.58,309,-137,-2033,27,52,36,-250,-846,596,548
,436,2023-10-20 13:50:12.59,327,-122,-2040,41,48,34,-479,-762,283,620
,437,2023-10-20 13:50:12.60,305,-107,-2045,41,45,36,-243,-859,616,551
,438,2023-10-20 13:50:12.61,330,-116,-2041,43,45,36,-477,-757,280,617
,439,2023-10-20 13:50:12.62,321,-122,-2040,49,39,34,-245,-835,590,540
,440,2023-10-20 13:50:12.63,321,-123,-2044,52,31,32,-471,-739,268,605
,441,2023-10-20 13:50:12.64,324,-126,-2033,62,25,33,-240,-860,620,550
,442,2023-10-20 13:50:12.65,322,-131,-2026,72,28,30,-473,-769,296,621
,443,2023-10-20 13:50:12.66,325,-137,-2041,79,27,31,-246,-903,657,574
,444,2023-10-20 13:50:12.67,327,-144,-2052,81,28,44,-472,-803,331,637
,445,2023-10-20 13:50:12.68,322,-138,-2028,96,28,49,-232,-935,703,583
,446,2023-10-20 13:50:12.69,315,-146,-2047,106,27,52,-465,-823,358,644
,447,2023-10-20 13:50:12.70,316,-149,-2045,119,23,53,-249,-950,701,599
,448,2023-10-20 13:50:12.71,316,-131,-2030,139,18,47,-477,-820,343,648
,449,2023-10-20 13:50:12.72,323,-146,-2039,135,26,48,-255,-920,665,587
,450,2023-10-20 13:50:12.73,311,-151,-2029,139,32,50,-475,-777,302,626
,451,2023-10-20 13:50:12.74,325,-125,-2025,157,43,45,-251,-867,616,559
,452,2023-10-20 13:50:12.75,328,-142,-2031,156,52,46,-476,-760,284,618
,453,2023-10-20 13:50:12.76,324,-169,-2016,166,56,50,-258,-917,659,587
,454,2023-10-20 13:50:12.77,318,-168,-2021,193,60,48,-470,-811,341,640
,455,2023-10-20 13:50:12.78,332,-175,-2007,216,68,54,-255,-943,688,599
,456,2023-10-20 13:50:12.79,308,-157,-2033,234,66,63,-464,-817,353,640
,457,2023-10-20 13:50:12.80,334,-141,-2036,254,65,57,-244,-961,717,602
,458,2023-10-20 13:50:12.81,320,-138,-2044,276,55,39,-454,-827,373,640
,459,2023-10-20 13:50:12.82,318,-132,-2036,288,53,20,-250,-932,682,591
,460,2023-10-20 13:50:12.83,331,-142,-2025,303,50,4,-452,-773,321,612
,461,2023-10-20 13:50:12.84,343,-152,-2026,298,49,-5,-246,-844,598,545
,462,2023-10-20 13:50:12.85,342,-185,-2018,272,58,-5,-449,-699,250,574
,463,2023-10-20 13:50:12.86,354,-209,-2023,263,66,-5,-259,-795,536,527
,464,2023-10-20 13:50:12.87,350,-211,-2028,275,75,5,-452,-680,228,566
,465,2023-10-20 13:50:12.88,350,-240,-2049,261,72,44,-261,-804,543,532
,466,2023-10-20 13:50:12.89,360,-218,-2033,273,66,33,-448,-702,254,575
,467,2023-10-20 13:50:12.90,354,-241,-2015,287,73,36,-258,-836,578,547
,468,2023-10-20 13:50:12.91,356,-245,-2026,284,87,42,-441,-762,321,601
,469,2023-10-20 13:50:12.92,374,-239,-2028,268,86,48,-246,-977,731,611
,470,2023-10-20 13:50:12.93,365,-252,-2034,249,73,60,-423,-758,335,590
,471,2023-10-20 13:50:12.94,353,-257,-2044,233,67,68,-262,-591,329,426
,472,2023-10-20 13:50:12.95,363,-274,-2022,217,61,75,-435,-388,-47,411
,473,2023-10-20 13:50:12.96,363,-269,-2023,216,67,82,-258,-439,181,348
,474,2023-10-20 13:50:12.97,372,-273,-2016,218,59,83,-411,-390,-21,400
,475,2023-10-20 13:50:12.98,373,-239,-2027,216,41,70,-250,-485,235,367
,476,2023-10-20 13:50:12.99,369,-260,-2042,193,32,61,-406,-420,14,413
,477,2023-10-20 13:50:13.00,366,-273,-2051,171,23,59,-258,-488,230,373
,478,2023-10-20 13:50:13.01,363,-245,-2036,168,12,39,-407,-411,4,409
,479,2023-10-20 13:50:13.02,355,-262,-2010,180,-1,15,-260,-499,239,379
,480,2023-10-20 13:50:13.03,364,-288,-2006,188,-5,-4,-408,-463,55,435
,481,2023-10-20 13:50:13.04,352,-289,-2016,183,-8,-20,-291,-592,301,441
,482,2023-10-20 13:50:13.05,366,-306,-2007,182,-13,-32,-421,-645,224,533
,483,2023-10-20 13:50:13.06,365,-334,-2004,177,-8,-36,-277,-953,676,615
,484,2023-10-20 13:50:13.07,353,-368,-2020,167,-10,-24,-395,-905,510,650
,485,2023-10-20 13:50:13.08,360,-361,-2014,164,-12,-18,-279,-1017,738,648
,486,2023-10-20 13:50:13.09,352,-359,-2025,158,-10,-1,-391,-869,478,630
,487,2023-10-20 13:50:13.10,341,-366,-2025,158,-11,18,-256,-977,721,616
,488,2023-10-20 13:50:13.11,336,-352,-2028,163,-11,31,-364,-844,480,604
,489,2023-10-20 13:50:13.12,325,-343,-2016,174,-13,42,-276,-946,670,611
,490,2023-10-20 13:50:13.13,322,-338,-2001,195,-12,43,-384,-830,446,607
,491,2023-10-20 13:50:13.14,312,-334,-1999,211,-13,40,-290,-950,660,620
,492,2023-10-20 13:50:13.15,313,-354,-1996,211,-7,31,-381,-847,466,614
,493,2023-10-20 13:50:13.16,330,-381,-2001,195,8,29,-287,-968,681,627
,494,2023-10-20 13:50:13.17,320,-397,-1991,183,11,41,-368,-863,495,615
,495,2023-10-20 13:50:13.18,330,-408,-1994,177,11,54,-294,-973,679,633
,496,2023-10-20 13:50:13.19,342,-404,-2010,174,14,63,-370,-858,488,614
,497,2023-10-20 13:50:13.20,334,-404,-2010,166,23,78,-298,-955,657,626
,498,2023-10-20 13:50:13.21,335,-395,-2012,157,28,90,-364,-858,494,611
,499,2023-10-20 13:50:13.22,318,-379,-2011,149,27,97,-305,-966,661,635
,500,2023-10-20 13:50:13.23,331,-376,-2005,141,29,92,-363,-867,504,615
,501,2023-10-20 13:50:13.24,324,-377,-2009,128,30,84,-316,-965,649,640
,502,2023-10-20 13:50:13.25,325,-365,-2005,112,34,68,-361,-873,512,617
,503,2023-10-20 13:50:13.26,330,-367,-2005,89,35,59,-310,-973,663,641
,504,2023-10-20 13:50:13.27,328,-371,-1996,66,37,46,-346,-886,540,616
,505,2023-10-20 13:50:13.28,332,-377,-2004,50,35,33,-309,-972,663,640
,506,2023-10-20 13:50:13.29,330,-376,-2011,33,31,24,-339,-882,543,610
,507,2023-10-20 13:50:13.30,345,-389,-2007,22,31,15,-326,-965,639,645
,508,2023-10-20 13:50:13.31,347,-384,-2013,7,26,8,-343,-880,537,611
,509,2023-10-20 13:50:13.32,351,-389,-2014,-7,28,3,-321,-958,637,639
,510,2023-10-20 13:50:13.33,348,-388,-2012,-24,30,0,-332,-884,552,608
,511,2023-10-20 13:50:13.34,340,-374,-2017,-33,26,-3,-328,-960,632,644
,512,2023-10-20 13:50:13.35,335,-373,-2005,-44,16,-10,-328,-888,560,608
,513,2023-10-20 13:50:13.36,356,-369,-1992,-57,9,-10,-333,-958,625,645
,514,2023-10-20 13:50:13.37,347,-375,-1993,-78,7,-8,-322,-893,571,607
,515,2023-10-20 13:50:13.38,333,-372,-1987,-87,11,-10,-328,-955,627,641
,516,2023-10-20 13:50:13.39,360,-374,-1982,-88,16,-8,-313,-889,576,601
,517,2023-10-20 13:50:13.40,350,-387,-1986,-88,25,-3,-341,-940,599,640
,518,2023-10-20 13:50:13.41,354,-362,-1999,-84,32,3,-318,-890,572,604
,519,2023-10-20 13:50:13.42,332,-362,-1996,-74,36,4,-357,-951,594,654
,520,2023-10-20 13:50:13.43,337,-368,-2042,-63,42,20,-317,-901,584,609
,521,2023-10-20 13:50:13.44,341,-296,-2010,-1,44,-20,-365,-948,583,656
,522,2023-10-20 13:50:13.45,357,-292,-1989,42,32,-71,-308,-901,593,604
,523,2023-10-20 13:50:13.46,360,-324,-1985,57,38,-104,-356,-946,590,651
,524,2023-10-20 13:50:13.47,349,-334,-1996,61,39,-131,-296,-910,614,603
,525,2023-10-20 13:50:13.48,359,-357,-1990,47,33,-136,-362,-949,587,655
,526,2023-10-20 13:50:13.49,374,-378,-1995,25,35,-133,-297,-912,615,604
,527,2023-10-20 13:50:13.50,366,-425,-2000,9,49,-104,-367,-941,574,654
,528,2023-10-20 13:50:13.51,386,-424,-1995,3,62,-64,-298,-906,608,602
,529,2023-10-20 13:50:13.52,384,-405,-2008,2,70,-26,-384,-927,543,655
,530,2023-10-20 13:50:13.53,369,-370,-2023,-4,76,3,-296,-904,608,600
,531,2023-10-20 13:50:13.54,396,-351,-2033,-13,72,16,-377,-926,549,651
,532,2023-10-20 13:50:13.55,385,-356,-2004,-8,63,14,-282,-911,629,596
,533,2023-10-20 13:50:13.56,385,-339,-2001,-6,52,13,-379,-926,547,652
,534,2023-10-20 13:50:13.57,390,-339,-1995,-20,43,11,-279,-919,640,599
,535,2023-10-20 13:50:13.58,392,-343,-2021,-25,36,2,-389,-930,541,659
,536,2023-10-20 13:50:13.59,397,-336,-2009,-14,32,-11,-276,-925,649,600
,537,2023-10-20 13:50:13.60,382,-346,-2008,-8,31,-15,-387,-929,542,658
,538,2023-10-20 13:50:13.61,384,-346,-2015,-5,31,-19,-274,-931,657,602
,539,2023-10-20 13:50:13.62,383,-346,-2014,-2,30,-24,-397,-926,529,661
,540,2023-10-20 13:50:13.63,382,-350,-2007,-4,29,-23,-272,-935,663,603
,541,2023-10-20 13:50:13.64,387,-352,-2007,-10,28,-20,-405,-925,520,665
,542,2023-10-20 13:50:13.65,392,-352,-2001,-10,28,-23,-266,-937,671,601
,543,2023-10-20 13:50:13.66,390,-363,-2010,-16,30,-20,-404,-925,521,664
,544,2023-10-20 13:50:13.67,383,-334,-2007,-19,32,-12,-265,-943,678,604
,545,2023-10-20 13:50:13.68,397,-348,-2007,-26,30,-7,-412,-922,510,667
,546,2023-10-20 13:50:13.69,381,-347,-2010,-33,28,0,-259,-946,687,602
,547,2023-10-20 13:50:13.70,387,-340,-2009,-31,28,4,-417,-918,501,667
,548,2023-10-20 13:50:13.71,390,-342,-2011,-30,29,12,-257,-944,687,600
,549,2023-10-20 13:50:13.72,404,-342,-2002,-25,27,13,-428,-911,483,669
,550,2023-10-20 13:50:13.73,390,-332,-2005,-22,23,12,-271,-946,675,608
,551,2023-10-20 13:50:13.74,396,-329,-2003,-16,23,4,-438,-911,473,674
,552,2023-10-20 13:50:13.75,393,-330,-2006,-11,21,0,-260,-949,689,604
,553,2023-10-20 13:50:13.76,400,-334,-2000,-14,18,-4,-428,-905,477,666
,554,2023-10-20 13:50:13.77,395,-350,-2009,-12,19,-6,-246,-953,707,599
,555,2023-10-20 13:50:13.78,400,-337,-2011,-9,13,-5,-432,-905,473,668
,556,2023-10-20 13:50:13.79,389,-330,-2008,-8,15,-6,-256,-949,693,602
,557,2023-10-20 13:50:13.80,391,-330,-2014,-11,17,-7,-456,-902,446,679
,558,2023-10-20 13:50:13.81,380,-346,-2002,-9,17,-9,-267,-960,693,613
,559,2023-10-20 13:50:13.82,399,-341,-2007,-12,14,-7,-446,-903,457,674
,560,2023-10-20 13:50:13.83,388,-332,-1996,-8,17,-2,-246,-964,718,605
,561,2023-10-20 13:50:13.84,380,-346,-2005,-13,17,5,-452,-899,447,675
,562,2023-10-20 13:50:13.85,389,-338,-1999,-12,19,9,-263,-967,704,615
,563,2023-10-20 13:50:13.86,395,-340,-1986,-9,20,13,-460,-898,438,679
,564,2023-10-20 13:50:13.87,386,-337,-2001,-1,20,22,-253,-969,716,611
,565,2023-10-20 13:50:13.88,401,-336,-2002,0,20,23,-458,-896,438,677
,566,2023-10-20 13:50:13.89,402,-333,-2001,5,23,24,-254,-970,716,612
,567,2023-10-20 13:50:13.90,404,-329,-2006,5,26,19,-466,-892,426,679
,568,2023-10-20 13:50:13.91,406,-339,-2017,0,35,17,-241,-937,696,589
,569,2023-10-20 13:50:13.92,386,-341,-2019,-3,36,19,-451,-827,376,639
,570,2023-10-20 13:50:13.93,388,-335,-2015,-5,37,25,-247,-655,408,451
,571,2023-10-20 13:50:13.94,385,-325,-2006,-10,34,29,-480,-541,61,510
,572,2023-10-20 13:50:13.95,376,-317,-1995,-9,36,30,-260,-553,293,406
,573,2023-10-20 13:50:13.96,385,-319,-1997,-7,31,26,-477,-569,92,523
,574,2023-10-20 13:50:13.97,397,-324,-1996,-7,26,22,-244,-618,374,431
,575,2023-10-20 13:50:13.98,388,-320,-2003,-6,25,23,-465,-594,129,529
,576,2023-10-20 13:50:13.99,388,-318,-2004,0,28,18,-235,-490,255,362
,577,2023-10-20 13:50:14.00,394,-318,-2008,2,28,14,-462,-448,-14,455
,578,2023-10-20 13:50:14.01,376,-336,-2017,1,29,9,-236,-443,207,339
,579,2023-10-20 13:50:14.02,387,-324,-2018,3,29,10,-467,-460,-7,463
,580,2023-10-20 13:50:14.03,395,-333,-2013,4,27,15,-239,-481,242,360
,581,2023-10-20 13:50:14.04,397,-324,-2010,0,28,17,-467,-486,19,476
,582,2023-10-20 13:50:14.05,395,-328,-2012,-2,25,18,-232,-475,243,353
,583,2023-10-20 13:50:14.06,406,-325,-2002,-5,29,22,-459,-463,4,461
,584,2023-10-20 13:50:14.07,411,-328,-2002,-4,31,24,-222,-470,248,346
,585,2023-10-20 13:50:14.08,396,-330,-1998,-6,29,28,-459,-470,11,464
,586,2023-10-20 13:50:14.09,404,-319,-2003,-7,30,27,-229,-493,264,361
,587,2023-10-20 13:50:14.10,406,-328,-2001,-6,32,28,-461,-481,20,471
,588,2023-10-20 13:50:14.11,409,-319,-2006,-7,32,30,-226,-490,264,358
,589,2023-10-20 13:50:14.12,414,-312,-1999,-9,34,29,-456,-456,0,456
,590,2023-10-20 13:50:14.13,415,-329,-2001,-13,38,31,-221,-456,235,338
,591,2023-10-20 13:50:14.14,404,-333,-2003,-8,33,34,-458,-452,-6,455
,592,2023-10-20 13:50:14.15,409,-331,-1997,-4,35,39,-226,-488,262,357
,593,2023-10-20 13:50:14.16,421,-331,-2005,-7,38,41,-453,-473,20,463
,594,2023-10-20 13:50:14.17,417,-317,-2005,-11,39,39,-215,-500,285,357
,595,2023-10-20 13:50:14.18,414,-326,-2008,-15,39,40,-453,-467,14,460
,596,2023-10-20 13:50:14.19,414,-310,-2011,-20,38,40,-227,-485,258,356
,597,2023-10-20 13:50:14.20,415,-312,-2008,-21,30,32,-454,-451,-3,452
,598,2023-10-20 13:50:14.21,414,-320,-2005,-27,27,30,-228,-488,260,358
,599,2023-10-20 13:50:14.22,415,-318,-2008,-25,24,32,-452,-454,2,453
,600,2023-10-20 13:50:14.23,414,-320,-2007,-25,23,31,-218,-481,263,349
,601,2023-10-20 13:50:14.24,410,-317,-1999,-20,23,25,-450,-443,-7,446
,602,2023-10-20 13:50:14.25,412,-307,-1997,-16,25,16,-230,-454,224,342
,603,2023-10-20 13:50:14.26,420,-304,-1993,-12,28,6,-456,-426,-30,441
,604,2023-10-20 13:50:14.27,417,-312,-2003,-7,31,-2,-228,-473,245,350
,605,2023-10-20 13:50:14.28,416,-309,-2003,-2,32,-7,-442,-445,3,443
,606,2023-10-20 13:50:14.29,427,-306,-2003,0,31,-10,-230,-502,272,366
,607,2023-10-20 13:50:14.30,423,-323,-2017,-9,29,-10,-450,-455,5,452
,608,2023-10-20 13:50:14.31,420,-324,-2016,-14,30,-5,-227,-500,273,363
,609,2023-10-20 13:50:14.32,415,-312,-1998,-7,29,-7,-432,-449,17,440
,610,2023-10-20 13:50:14.33,435,-319,-1993,-8,30,-9,-224,-490,266,357
,611,2023-10-20 13:50:14.34,412,-319,-1989,-27,37,3,-433,-438,5,435
,612,2023-10-20 13:50:14.35,431,-324,-2015,-45,41,18,-229,-501,272,365
,613,2023-10-20 13:50:14.36,431,-320,-1995,-39,41,29,-435,-453,18,444
,614,2023-10-20 13:50:14.37,432,-314,-1989,-32,43,36,-235,-531,296,383
,615,2023-10-20 13:50:14.38,426,-309,-2003,-42,45,51,-429,-471,42,450
,616,2023-10-20 13:50:14.39,430,-290,-2010,-45,40,49,-235,-506,271,370
,617,2023-10-20 13:50:14.40,437,-286,-2006,-43,31,38,-425,-433,8,429
,618,2023-10-20 13:50:14.41,437,-313,-2007,-48,32,45,-238,-500,262,369
,619,2023-10-20 13:50:14.42,432,-316,-1993,-43,34,51,-428,-440,12,434
,620,2023-10-20 13:50:14.43,429,-288,-2022,-36,30,53,-239,-501,262,370
,621,2023-10-20 13:50:14.44,449,-292,-2019,-49,23,58,-416,-431,15,423
,622,2023-10-20 13:50:14.45,433,-293,-2018,-47,19,55,-238,-462,224,350
,623,2023-10-20 13:50:14.46,433,-294,-2002,-37,14,51,-416,-394,-22,405
,624,2023-10-20 13:50:14.47,428,-290,-1998,-31,14,51,-245,-487,242,366
,625,2023-10-20 13:50:14.48,431,-300,-1998,-29,8,51,-409,-436,27,422
,626,2023-10-20 13:50:14.49,414,-295,-2013,-24,4,51,-248,-504,256,376
,627,2023-10-20 13:50:14.50,430,-294,-2010,-17,3,46,-408,-428,20,418
,628,2023-10-20 13:50:14.51,436,-289,-2008,-8,6,42,-252,-500,248,376
,629,2023-10-20 13:50:14.52,420,-278,-2015,-10,8,39,-405,-423,18,414
,630,2023-10-20 13:50:14.53,432,-284,-2023,-12,6,30,-244,-492,248,368
,631,2023-10-20 13:50:14.54,434,-276,-2006,-11,4,19,-390,-418,28,404
,632,2023-10-20 13:50:14.55,417,-279,-2014,-10,2,12,-253,-480,227,366
,633,2023-10-20 13:50:14.56,417,-279,-2003,-4,2,12,-392,-404,12,398
,634,2023-10-20 13:50:14.57,415,-285,-2001,-9,-6,7,-252,-482,230,367
,635,2023-10-20 13:50:14.58,418,-296,-1996,-22,-2,13,-384,-416,32,400
,636,2023-10-20 13:50:14.59,416,-288,-2009,-25,-1,19,-260,-503,243,381
,637,2023-10-20 13:50:14.60,421,-281,-2001,-18,0,23,-384,-424,40,404
,638,2023-10-20 13:50:14.61,416,-276,-2008,-12,1,25,-262,-498,236,380
,639,2023-10-20 13:50:14.62,422,-274,-2009,-8,-3,24,-377,-418,41,397
,640,2023-10-20 13:50:14.63,422,-283,-2007,-3,-6,25,-266,-498,232,382
,641,2023-10-20 13:50:14.64,422,-278,-2011,2,-4,18,-376,-418,42,397
,642,2023-10-20 13:50:14.65,424,-290,-2023,7,-4,20,-274,-485,211,379
,643,2023-10-20 13:50:14.66,407,-282,-2028,12,0,23,-365,-404,39,384
,644,2023-10-20 13:50:14.67,408,-271,-2022,17,-3,21,-277,-495,218,386
,645,2023-10-20 13:50:14.68,415,-275,-2019,21,-7,18,-364,-425,61,394
,646,2023-10-20 13:50:14.69,411,-281,-2014,24,-8,17,-279,-531,252,405
,647,2023-10-20 13:50:14.70,412,-277,-2008,25,-12,17,-356,-438,82,397
,648,2023-10-20 13:50:14.71,416,-281,-1997,20,-10,17,-279,-497,218,388
,649,2023-10-20 13:50:14.72,402,-282,-2003,18,-9,18,-350,-404,54,377
,650,2023-10-20 13:50:14.73,404,-274,-1986,15,-3,20,-284,-487,203,385
,651,2023-10-20 13:50:14.74,402,-283,-1984,9,3,15,-346,-401,55,373
,652,2023-10-20 13:50:14.75,417,-274,-1978,10,5,7,-285,-488,203,386
,653,2023-10-20 13:50:14.76,416,-278,-1987,8,14,4,-337,-409,72,373
,654,2023-10-20 13:50:14.77,429,-283,-1992,12,22,-4,-291,-484,193,387
,655,2023-10-20 13:50:14.78,422,-291,-1996,24,35,-6,-337,-405,68,371
,656,2023-10-20 13:50:14.79,436,-295,-1996,35,42,-12,-294,-499,205,396
,657,2023-10-20 13:50:14.80,443,-302,-2006,48,42,-13,-331,-418,87,374
,658,2023-10-20 13:50:14.81,444,-297,-2008,57,44,-20,-296,-499,203,397
,659,2023-10-20 13:50:14.82,445,-305,-2024,63,38,-18,-323,-404,81,363
,660,2023-10-20 13:50:14.83,446,-310,-2022,61,33,-11,-306,-453,147,379
,661,2023-10-20 13:50:14.84,436,-318,-2033,56,29,-5,-323,-368,45,345
,662,2023-10-20 13:50:14.85,434,-316,-2029,44,23,1,-304,-447,143,375
,663,2023-10-20 13:50:14.86,426,-308,-2026,31,21,9,-318,-377,59,347
,664,2023-10-20 13:50:14.87,435,-300,-2018,16,18,13,-314,-459,145,386
,665,2023-10-20 13:50:14.88,420,-305,-2006,4,14,15,-310,-393,83,351
,666,2023-10-20 13:50:14.89,425,-298,-1996,-7,15,18,-317,-489,172,403
,667,2023-10-20 13:50:14.90,443,-284,-1984,-11,18,19,-310,-410,100,360
,668,2023-10-20 13:50:14.91,431,-272,-1981,-16,24,19,-324,-485,161,404
,669,2023-10-20 13:50:14.92,432,-279,-1976,-19,23,17,-304,-414,110,359
,670,2023-10-20 13:50:14.93,429,-283,-1977,-18,25,11,-330,-494,164,412
,671,2023-10-20 13:50:14.94,447,-280,-1985,-12,28,9,-295,-389,94,342
,672,2023-10-20 13:50:14.95,444,-275,-1995,-8,29,5,-330,-431,101,380
,673,2023-10-20 13:50:14.96,447,-276,-2019,4,20,-8,-293,-354,61,323
,674,2023-10-20 13:50:14.97,445,-278,-2022,4,20,-8,-336,-438,102,387
,675,2023-10-20 13:50:14.98,442,-278,-2027,-1,16,-6,-290,-386,96,338
,676,2023-10-20 13:50:14.99,443,-277,-2020,-5,14,-2,-338,-466,128,402
,677,2023-10-20 13:50:15.00,438,-277,-2017,-11,11,-2,-282,-385,103,333
,678,2023-10-20 13:50:15.01,446,-263,-2007,-9,10,0,-349,-440,91,394
,679,2023-10-20 13:50:15.02,433,-266,-2010,-16,12,1,-281,-360,79,320
,680,2023-10-20 13:50:15.03,437,-264,-2008,-17,13,0,-352,-438,86,395
,681,2023-10-20 13:50:15.04,437,-260,-2006,-9,9,-1,-279,-350,71,314
,682,2023-10-20 13:50:15.05,444,-258,-2002,-5,5,-6,-357,-392,35,374
,683,2023-10-20 13:50:15.06,458,-272,-1997,-4,9,-8,-273,-347,74,310
,684,2023-10-20 13:50:15.07,442,-276,-2004,1,10,-4,-360,-441,81,400
,685,2023-10-20 13:50:15.08,439,-281,-2010,11,6,1,-268,-381,113,324
,686,2023-10-20 13:50:15.09,445,-276,-2004,18,5,8,-362,-437,75,399
,687,2023-10-20 13:50:15.10,438,-282,-2007,23,-2,12,-272,-378,106,325
,688,2023-10-20 13:50:15.11,430,-279,-2015,22,-8,14,-383,-452,69,417
,689,2023-10-20 13:50:15.12,438,-275,-2010,20,-14,17,-264,-377,113,320
,690,2023-10-20 13:50:15.13,433,-280,-2016,13,-18,21,-380,-436,56,408
,691,2023-10-20 13:50:15.14,419,-270,-2019,6,-19,18,-256,-370,114,313
,692,2023-10-20 13:50:15.15,417,-261,-2020,-1,-21,17,-376,-431,55,403
,693,2023-10-20 13:50:15.16,409,-273,-2013,-10,-26,17,-248,-400,152,324
,694,2023-10-20 13:50:15.17,424,-266,-1990,-11,-24,18,-381,-474,93,427
,695,2023-10-20 13:50:15.18,419,-267,-1985,-10,-26,16,-253,-395,142,324
,696,2023-10-20 13:50:15.19,406,-263,-1990,2,-23,16,-396,-435,39,415
,697,2023-10-20 13:50:15.20,425,-275,-1977,19,-14,16,-252,-361,109,306
,698,2023-10-20 13:50:15.21,410,-288,-1986,31,-2,19,-390,-408,18,399
,699,2023-10-20 13:50:15.22,417,-283,-1989,37,9,21,-243,-346,103,294
,700,2023-10-20 13:50:15.23,420,-281,-1997,44,15,20,-398,-396,-2,397
,701,2023-10-20 13:50:15.24,420,-297,-2014,50,17,15,-241,-353,112,297
,702,2023-10-20 13:50:15.25,421,-286,-2024,50,21,12,-402,-417,15,409
,703,2023-10-20 13:50:15.26,435,-295,-2023,49,23,10,-245,-387,142,316
,704,2023-10-20 13:50:15.27,426,-289,-2031,44,22,7,-408,-447,39,427
,705,2023-10-20 13:50:15.28,430,-296,-2025,42,22,4,-240,-379,139,309
,706,2023-10-20 13:50:15.29,438,-289,-2015,33,22,4,-411,-418,7,414
,707,2023-10-20 13:50:15.30,430,-290,-2015,25,18,7,-238,-345,107,291
,708,2023-10-20 13:50:15.31,435,-285,-2013,23,15,6,-413,-389,-24,401
,709,2023-10-20 13:50:15.32,426,-283,-2002,20,17,3,-233,-367,134,300
,710,2023-10-20 13:50:15.33,449,-277,-1991,19,13,2,-416,-438,22,427
,711,2023-10-20 13:50:15.34,441,-273,-1985,14,15,-3,-234,-395,161,314
,712,2023-10-20 13:50:15.35,442,-282,-1990,9,23,-11,-420,-432,12,426
,713,2023-10-20 13:50:15.36,444,-281,-1991,9,21,-11,-226,-370,144,298
,714,2023-10-20 13:50:15.37,428,-293,-1987,17,20,-14,-423,-412,-11,417
,715,2023-10-20 13:50:15.38,441,-288,-1982,20,19,-17,-225,-364,139,294
,716,2023-10-20 13:50:15.39,448,-283,-1985,19,23,-18,-424,-407,-17,415
,717,2023-10-20 13:50:15.40,454,-285,-1986,21,30,-18,-228,-348,120,288
,718,2023-10-20 13:50:15.41,449,-291,-1999,20,31,-17,-438,-383,-55,410
,719,2023-10-20 13:50:15.42,450,-290,-2011,15,34,-14,-241,-336,95,288
,720,2023-10-20 13:50:15.43,440,-287,-2023,11,31,-12,-452,-383,-69,417
,721,2023-10-20 13:50:15.44,442,-282,-2012,8,26,-11,-228,-339,111,283
,722,2023-10-20 13:50:15.45,461,-284,-2009,7,18,-8,-430,-377,-53,403
,723,2023-10-20 13:50:15.46,459,-287,-2003,4,16,-7,-212,-366,154,289
,724,2023-10-20 13:50:15.47,465,-293,-2006,0,17,-2,-432,-417,-15,424
,725,2023-10-20 13:50:15.48,461,-289,-2013,4,15,2,-219,-347,128,283
,726,2023-10-20 13:50:15.49,466,-286,-2008,13,14,4,-448,-369,-79,408
,727,2023-10-20 13:50:15.50,452,-286,-2006,9,12,7,-228,-328,100,278
,728,2023-10-20 13:50:15.51,462,-281,-2008,7,8,10,-448,-373,-75,410
,729,2023-10-20 13:50:15.52,461,-280,-2013,7,3,8,-228,-326,98,277
,730,2023-10-20 13:50:15.53,452,-265,-2003,3,1,8,-440,-347,-93,393
,731,2023-10-20 13:50:15.54,445,-279,-2006,-4,-4,9,-223,-323,100,273
,732,2023-10-20 13:50:15.55,444,-270,-2007,-10,-8,7,-455,-358,-97,406
,733,2023-10-20 13:50:15.56,440,-272,-1999,-16,-14,3,-220,-308,88,264
,734,2023-10-20 13:50:15.57,437,-273,-1990,-22,-14,4,-445,-334,-111,389
,735,2023-10-20 13:50:15.58,443,-276,-2007,-25,-13,10,-210,-336,126,273
,736,2023-10-20 13:50:15.59,442,-276,-2008,-21,-14,14,-442,-384,-58,413
,737,2023-10-20 13:50:15.60,445,-264,-1994,-15,-15,17,-218,-378,160,298
,738,2023-10-20 13:50:15.61,461,-277,-1997,-12,-13,25,-448,-395,-53,421
,739,2023-10-20 13:50:15.62,449,-261,-2007,-2,-13,24,-214,-329,115,271
,740,2023-10-20 13:50:15.63,442,-261,-2000,6,-13,25,-447,-331,-116,389
,741,2023-10-20 13:50:15.64,445,-267,-1999,14,-11,25,-210,-319,109,264
,742,2023-10-20 13:50:15.65,432,-271,-2004,18,-9,25,-445,-361,-84,403
,743,2023-10-20 13:50:15.66,443,-273,-2002,19,-8,26,-212,-467,255,339
,744,2023-10-20 13:50:15.67,412,-275,-2013,21,-6,30,-444,-494,50,469
,745,2023-10-20 13:50:15.68,436,-281,-2014,24,-7,33,-216,-507,291,361
,746,2023-10-20 13:50:15.69,439,-275,-2009,22,-7,34,-450,-464,14,457
,747,2023-10-20 13:50:15.70,446,-278,-2010,16,-6,36,-218,-483,265,350
,748,2023-10-20 13:50:15.71,443,-275,-2014,15,-3,35,-449,-463,14,456
,749,2023-10-20 13:50:15.72,440,-277,-2004,17,-7,35,-211,-520,309,365
,750,2023-10-20 13:50:15.73,437,-273,-2008,18,-7,34,-441,-499,58,470
,751,2023-10-20 13:50:15.74,437,-282,-2000,20,-9,30,-214,-506,292,360
,752,2023-10-20 13:50:15.75,442,-281,-1990,24,-9,29,-446,-453,7,449
,753,2023-10-20 13:50:15.76,421,-285,-1993,29,-2,29,-322,-439,117,380
,754,2023-10-20 13:50:15.77,443,-286,-2005,27,1,28,-562,-470,-92,516
,755,2023-10-20 13:50:15.78,430,-278,-2013,18,4,28,-269,-889,620,579
,756,2023-10-20 13:50:15.79,429,-277,-2011,10,2,34,-434,-916,482,675
,757,2023-10-20 13:50:15.80,432,-278,-2009,5,-3,35,-195,-1054,859,624
,758,2023-10-20 13:50:15.81,436,-279,-2006,3,-4,39,-436,-883,447,659
,759,2023-10-20 13:50:15.82,444,-262,-1999,1,-7,35,-228,-978,750,603
,760,2023-10-20 13:50:15.83,435,-265,-2000,1,-7,31,-448,-841,393,644
,761,2023-10-20 13:50:15.84,437,-261,-2004,2,-8,24,-236,-982,746,609
,762,2023-10-20 13:50:15.85,435,-256,-2010,5,-9,18,-447,-859,412,653
,763,2023-10-20 13:50:15.86,435,-258,-2013,9,-16,10,-225,-995,770,610
,764,2023-10-20 13:50:15.87,428,-274,-2018,7,-19,6,-436,-857,421,646
,765,2023-10-20 13:50:15.88,440,-268,-2017,8,-17,9,-232,-988,756,610
,766,2023-10-20 13:50:15.89,431,-265,-2014,15,-19,16,-447,-850,403,648
,767,2023-10-20 13:50:15.90,423,-271,-2006,18,-23,18,-241,-985,744,613
,768,2023-10-20 13:50:15.91,430,-268,-2009,20,-20,17,-444,-853,409,648
,769,2023-10-20 13:50:15.92,428,-273,-2003,25,-18,24,-247,-994,747,620
,770,2023-10-20 13:50:15.93,430,-268,-2006,26,-19,24,-447,-863,416,655
,771,2023-10-20 13:50:15.94,424,-268,-2005,28,-20,27,-243,-993,750,618
,772,2023-10-20 13:50:15.95,426,-277,-2002,27,-21,27,-438,-856,418,647
,773,2023-10-20 13:50:15.96,437,-273,-2016,28,-20,30,-238,-990,752,614
,774,2023-10-20 13:50:15.97,422,-282,-2005,26,-22,38,-433,-859,426,646
,775,2023-10-20 13:50:15.98,429,-279,-2006,24,-24,43,-248,-994,746,621
,776,2023-10-20 13:50:15.99,442,-281,-2021,23,-29,46,-430,-860,430,645
,777,2023-10-20 13:50:16.00,443,-279,-2009,27,-33,47,-254,-993,739,623
,778,2023-10-20 13:50:16.01,435,-279,-2003,25,-35,48,-428,-856,428,642
,779,2023-10-20 13:50:16.02,433,-282,-2016,13,-36,53,-257,-986,729,621
,780,2023-10-20 13:50:16.03,422,-279,-2019,13,-35,51,-424,-852,428,638
,781,2023-10-20 13:50:16.04,429,-270,-2019,11,-38,47,-260,-988,728,624
,782,2023-10-20 13:50:16.05,423,-272,-2019,8,-42,43,-422,-858,436,640
,783,2023-10-20 13:50:16.06,432,-271,-2017,1,-44,37,-257,-988,731,622
,784,2023-10-20 13:50:16.07,427,-271,-2015,-5,-50,33,-409,-857,448,633
,785,2023-10-20 13:50:16.08,414,-277,-2002,-10,-53,37,-262,-986,724,624
,786,2023-10-20 13:50:16.09,409,-272,-1998,-14,-52,38,-410,-861,451,635
,787,2023-10-20 13:50:16.10,422,-266,-1995,-13,-57,35,-268,-992,724,630
,788,2023-10-20 13:50:16.11,411,-273,-1995,-7,-58,33,-405,-861,456,633
,789,2023-10-20 13:50:16.12,419,-270,-2006,-3,-63,33,-271,-988,717,629
,790,2023-10-20 13:50:16.13,404,-274,-2005,7,-68,31,-404,-859,455,631
,791,2023-10-20 13:50:16.14,412,-287,-2002,11,-68,33,-282,-984,702,633
,792,2023-10-20 13:50:16.15,418,-286,-2012,15,-74,36,-407,-863,456,635
,793,2023-10-20 13:50:16.16,412,-284,-2016,20,-77,36,-280,-986,706,633
,794,2023-10-20 13:50:16.17,410,-291,-2027,21,-77,42,-387,-868,481,627
,795,2023-10-20 13:50:16.18,410,-284,-2023,22,-75,43,-274,-986,712,630
,796,2023-10-20 13:50:16.19,413,-284,-2017,17,-77,47,-382,-868,486,625
,797,2023-10-20 13:50:16.20,410,-288,-2014,7,-76,47,-284,-982,698,633
,798,2023-10-20 13:50:16.21,410,-286,-2012,2,-71,44,-379,-865,486,622
,799,2023-10-20 13:50:16.22,401,-281,-1999,3,-65,43,-286,-979,693,632
,800,2023-10-20 13:50:16.23,396,-293,-2002,0,-53,47,-381,-858,477,619
,801,2023-10-20 13:50:16.24,383,-272,-2019,-7,-47,54,-303,-961,658,632
,802,2023-10-20 13:50:16.25,396,-279,-2001,-18,-38,55,-384,-854,470,619
,803,2023-10-20 13:50:16.26,384,-287,-1998,-12,-34,52,-292,-965,673,628
,804,2023-10-20 13:50:16.27,391,-262,-1996,-7,-39,42,-368,-861,493,614
,805,2023-10-20 13:50:16.28,384,-268,-2008,-9,-40,33,-298,-958,660,628
,806,2023-10-20 13:50:16.29,374,-265,-2006,-14,-37,31,-361,-859,498,610
,807,2023-10-20 13:50:16.30,390,-264,-2014,-9,-37,23,-300,-960,660,630
,808,2023-10-20 13:50:16.31,387,-268,-2015,-6,-42,13,-354,-875,521,614
,809,2023-10-20 13:50:16.32,389,-283,-2004,-12,-36,5,-306,-975,669,640
,810,2023-10-20 13:50:16.33,376,-279,-2019,-21,-31,7,-345,-881,536,613
,811,2023-10-20 13:50:16.34,379,-292,-2014,-23,-27,11,-305,-974,669,639
,812,2023-10-20 13:50:16.35,382,-269,-2010,-27,-27,13,-343,-881,538,612
,813,2023-10-20 13:50:16.36,376,-267,-2024,-32,-26,10,-318,-968,650,643
,814,2023-10-20 13:50:16.37,377,-265,-2026,-33,-24,4,-351,-875,524,613
,815,2023-10-20 13:50:16.38,373,-263,-2023,-35,-19,4,-332,-952,620,642
,816,2023-10-20 13:50:16.39,375,-267,-2022,-36,-12,1,-343,-880,537,611
,817,2023-10-20 13:50:16.40,378,-248,-2026,-37,-5,0,-331,-964,633,647
,818,2023-10-20 13:50:16.41,374,-246,-2017,-38,0,-2,-334,-887,553,610
,819,2023-10-20 13:50:16.42,370,-250,-2015,-38,1,-3,-333,-955,622,644
,820,2023-10-20 13:50:16.43,382,-248,-2007,-36,0,-5,-329,-880,551,604
,821,2023-10-20 13:50:16.44,383,-248,-2003,-33,3,-7,-341,-947,606,644
,822,2023-10-20 13:50:16.45,384,-246,-1997,-28,6,-7,-331,-887,556,609
,823,2023-10-20 13:50:16.46,388,-240,-1999,-22,15,-9,-346,-956,610,651
,824,2023-10-20 13:50:16.47,388,-243,-1997,-20,19,-11,-320,-899,579,609
,825,2023-10-20 13:50:16.48,384,-243,-2004,-15,24,-14,-337,-953,616,645
,826,2023-10-20 13:50:16.49,380,-246,-2009,-12,28,-13,-304,-896,592,600
,827,2023-10-20 13:50:16.50,388,-254,-2012,-12,25,-11,-344,-949,605,646
,828,2023-10-20 13:50:16.51,388,-256,-2022,-8,25,-9,-310,-896,586,603
,829,2023-10-20 13:50:16.52,383,-261,-2016,-4,25,-7,-360,-940,580,650
,830,2023-10-20 13:50:16.53,398,-256,-2015,-1,20,-2,-305,-898,593,601
,831,2023-10-20 13:50:16.54,401,-249,-2022,1,16,0,-357,-943,586,650
,832,2023-10-20 13:50:16.55,391,-238,-2011,-6,14,6,-296,-903,607,599
,833,2023-10-20 13:50:16.56,378,-247,-2012,-8,9,8,-359,-940,581,649
,834,2023-10-20 13:50:16.57,391,-246,-2027,-5,3,7,-293,-904,611,598
,835,2023-10-20 13:50:16.58,353,-217,-2099,-7,-2,11,-371,-931,560,651
,836,2023-10-20 13:50:16.59,392,-259,-2000,-18,0,31,-292,-908,616,600
,837,2023-10-20 13:50:16.60,396,-272,-2012,-9,-1,36,-371,-940,569,655
,838,2023-10-20 13:50:16.61,351,-251,-2035,-17,10,46,-287,-919,632,603
,839,2023-10-20 13:50:16.62,370,-227,-2039,4,2,51,-382,-937,555,659
,840,2023-10-20 13:50:16.63,362,-178,-2037,63,-11,11,-287,-638,351,462
,841,2023-10-20 13:50:16.64,356,-176,-2001,89,-32,-29,-393,-469,76,431
,842,2023-10-20 13:50:16.65,359,-188,-2009,62,-49,-60,-282,-365,83,323
,843,2023-10-20 13:50:16.66,365,-199,-2053,26,-62,-83,-397,-456,59,426
,844,2023-10-20 13:50:16.67,380,-248,-2017,5,-70,-101,-277,-394,117,335
,845,2023-10-20 13:50:16.68,375,-321,-2009,5,-62,-91,-405,-436,31,420
,846,2023-10-20 13:50:16.69,371,-345,-2019,-2,-38,-54,-286,-359,73,322
,847,2023-10-20 13:50:16.70,371,-337,-2011,-3,-24,-4,-419,-409,-10,414
,848,2023-10-20 13:50:16.71,374,-286,-2059,3,-12,32,-274,-388,114,331
,849,2023-10-20 13:50:16.72,357,-258,-2046,-1,-14,61,-394,-470,76,432
,850,2023-10-20 13:50:16.73,362,-256,-2045,-11,-29,66,-251,-422,171,336
,851,2023-10-20 13:50:16.74,365,-248,-2054,-28,-48,64,-402,-469,67,435
,852,2023-10-20 13:50:16.75,362,-243,-2065,-50,-66,68,-256,-400,144,328
,853,2023-10-20 13:50:16.76,365,-249,-2018,-61,-71,71,-407,-452,45,429
,854,2023-10-20 13:50:16.77,364,-244,-2029,-60,-69,73,-254,-366,112,310
,855,2023-10-20 13:50:16.78,366,-252,-2016,-64,-67,73,-409,-388,-21,398
,856,2023-10-20 13:50:16.79,347,-257,-2025,-57,-68,70,-242,-381,139,311
,857,2023-10-20 13:50:16.80,343,-256,-2015,-55,-67,69,-406,-461,55,433
,858,2023-10-20 13:50:16.81,347,-267,-2010,-59,-64,74,-243,-428,185,335
,859,2023-10-20 13:50:16.82,347,-298,-2032,-76,-56,105,-414,-472,58,443
,860,2023-10-20 13:50:16.83,335,-289,-2037,-85,-49,138,-239,-425,186,332
,861,2023-10-20 13:50:16.84,348,-288,-2020,-92,-45,169,-412,-459,47,435
,862,2023-10-20 13:50:16.85,354,-267,-2028,-101,-47,198,-235,-402,167,318
,863,2023-10-20 13:50:16.86,355,-263,-2039,-115,-50,237,-421,-443,22,432
,864,2023-10-20 13:50:16.87,348,-249,-2045,-122,-51,264,-229,-394,165,311
,865,2023-10-20 13:50:16.88,359,-242,-2045,-131,-59,289,-410,-432,22,421
,866,2023-10-20 13:50:16.89,371,-244,-2049,-141,-65,315,-215,-393,178,304
,867,2023-10-20 13:50:16.90,369,-249,-2050,-138,-74,348,-419,-429,10,424
,868,2023-10-20 13:50:16.91,358,-228,-2054,-127,-79,377,-230,-440,210,335
,869,2023-10-20 13:50:16.92,364,-233,-2067,-119,-91,411,-435,-487,52,461
,870,2023-10-20 13:50:16.93,364,-225,-2065,-110,-107,435,-239,-494,255,366
,871,2023-10-20 13:50:16.94,340,-225,-2061,-106,-124,458,-448,-518,70,483
,872,2023-10-20 13:50:16.95,313,-210,-2083,-105,-136,483,-229,-481,252,355
,873,2023-10-20 13:50:16.96,314,-200,-2084,-108,-145,511,-430,-490,60,460
,874,2023-10-20 13:50:16.97,305,-176,-2047,-108,-149,535,-217,-465,248,341
,875,2023-10-20 13:50:16.98,293,-195,-2023,-101,-154,540,-434,-476,42,455
,876,2023-10-20 13:50:16.99,305,-176,-2020,-89,-153,544,-219,-482,263,350
,877,2023-10-20 13:50:17.00,300,-160,-2013,-78,-143,544,-434,-503,69,468
,878,2023-10-20 13:50:17.01,300,-170,-1997,-66,-134,540,-215,-475,260,345
,879,2023-10-20 13:50:17.02,285,-154,-2011,-53,-121,531,-435,-473,38,454
,880,2023-10-20 13:50:17.03,285,-135,-2026,-49,-102,524,-212,-493,281,352
,881,2023-10-20 13:50:17.04,282,-123,-1978,-44,-94,513,-439,-512,73,475
,882,2023-10-20 13:50:17.05,274,-136,-1957,-27,-89,500,-220,-448,228,334
,883,2023-10-20 13:50:17.06,279,-160,-1953,-8,-91,497,-445,-425,-20,435
,884,2023-10-20 13:50:17.07,284,-158,-2004,2,-81,497,-228,-412,184,320
,885,2023-10-20 13:50:17.08,277,-135,-2006,14,-81,482,-448,-427,-21,437
,886,2023-10-20 13:50:17.09,264,-138,-2029,31,-93,468,-211,-407,196,309
,887,2023-10-20 13:50:17.10,284,-117,-2024,36,-108,451,-437,-405,-32,421
,888,2023-10-20 13:50:17.11,266,-114,-2047,38,-117,427,-208,-336,128,272
,889,2023-10-20 13:50:17.12,261,-97,-2097,29,-130,409,-440,-338,-102,389
,890,2023-10-20 13:50:17.13,247,-112,-2130,10,-141,403,-203,-323,120,263
,891,2023-10-20 13:50:17.14,219,-125,-2119,6,-180,402,-429,-348,-81,388
,892,2023-10-20 13:50:17.15,234,-128,-2089,1,-194,386,-197,-315,118,256
,893,2023-10-20 13:50:17.16,224,-126,-2086,-5,-187,359,-436,-334,-102,385
,894,2023-10-20 13:50:17.17,231,-132,-2053,12,-190,324,-197,-281,84,239
,895,2023-10-20 13:50:17.18,227,-119,-2051,62,-195,275,-425,-302,-123,363
,896,2023-10-20 13:50:17.19,263,-95,-2036,81,-167,214,-194,-293,99,243
,897,2023-10-20 13:50:17.20,234,-98,-2034,85,-115,146,-432,-323,-109,377
,898,2023-10-20 13:50:17.21,251,-105,-1986,113,-92,81,-196,-309,113,252
,899,2023-10-20 13:50:17.22,276,-105,-1966,146,-73,8,-428,-317,-111,372
,900,2023-10-20 13:50:17.23,276,-71,-1955,168,-39,-71,-187,-269,82,228
,901,2023-10-20 13:50:17.24,273,-63,-1972,193,-19,-163,-422,-282,-140,352
,902,2023-10-20 13:50:17.25,270,-87,-1995,212,10,-251,-192,-275,83,233
,903,2023-10-20 13:50:17.26,274,-120,-1995,247,28,-334,-428,-302,-126,365
,904,2023-10-20 13:50:17.27,243,-96,-2023,320,57,-430,-197,-293,96,245
,905,2023-10-20 13:50:17.28,272,-145,-2048,362,59,-493,-424,-304,-120,364
,906,2023-10-20 13:50:17.29,266,-162,-2017,363,55,-554,-184,-296,112,240
,907,2023-10-20 13:50:17.30,267,-195,-2039,325,37,-590,-410,-302,-108,356
,908,2023-10-20 13:50:17.31,257,-260,-2040,281,24,-602,-195,-305,110,250
,909,2023-10-20 13:50:17.32,245,-288,-2020,270,20,-602,-430,-306,-124,368
