// Data mode  : Full
// Data quality  : High
// Acceleration sensor's range  : 16g
// Gyroscope sensor's range  : 2000dps
//
//ARTIFACT,NUM,DATE,ACC_X,ACC_Y,ACC_Z,GYRO_X,GYRO_Y,GYRO_Z,EOG_L,EOG_R,EOG_H,EOG_V
,1,2023-10-27 11:08:10.72,177,-74,-2094,-3,-4,-8,-365,-136,-229,250
,2,2023-10-27 11:08:10.73,176,-80,-2086,11,-19,1,-485,-134,-351,309
,3,2023-10-27 11:08:10.74,183,-73,-2062,18,-27,6,-374,-136,-238,255
,4,2023-10-27 11:08:10.75,189,-66,-2042,19,-23,10,-484,-135,-349,309
,5,2023-10-27 11:08:10.76,189,-62,-2045,14,-8,13,-380,-147,-233,263
,6,2023-10-27 11:08:10.77,192,-66,-2046,8,-2,11,-486,-136,-350,311
,7,2023-10-27 11:08:10.78,185,-67,-2055,9,-1,14,-384,-147,-237,265
,8,2023-10-27 11:08:10.79,183,-73,-2056,13,-5,21,-483,-133,-350,308
,9,2023-10-27 11:08:10.80,179,-74,-2050,15,-9,25,-387,-151,-236,269
,10,2023-10-27 11:08:10.81,189,-66,-2047,13,-8,30,-479,-129,-350,304
,11,2023-10-27 11:08:10.82,171,-60,-2051,12,-6,31,-389,-150,-239,269
,12,2023-10-27 11:08:10.83,194,-48,-2052,10,-5,33,-474,-122,-352,298
,13,2023-10-27 11:08:10.84,198,-53,-2055,8,-3,31,-386,-153,-233,269
,14,2023-10-27 11:08:10.85,185,-54,-2054,4,-1,29,-473,-120,-353,296
,15,2023-10-27 11:08:10.86,175,-60,-2057,6,-7,27,-393,-151,-242,272
,16,2023-10-27 11:08:10.87,173,-65,-2059,10,-13,24,-471,-112,-359,291
,17,2023-10-27 11:08:10.88,191,-66,-2071,13,-17,24,-393,-154,-239,273
,18,2023-10-27 11:08:10.89,185,-64,-2061,13,-18,26,-463,-110,-353,286
,19,2023-10-27 11:08:10.90,173,-62,-2062,11,-18,25,-393,-156,-237,274
,20,2023-10-27 11:08:10.91,181,-62,-2052,10,-18,22,-459,-105,-354,282
,21,2023-10-27 11:08:10.92,196,-51,-2052,7,-13,22,-396,-155,-241,275
,22,2023-10-27 11:08:10.93,183,-56,-2056,4,-11,18,-459,-100,-359,279
,23,2023-10-27 11:08:10.94,181,-62,-2055,0,-10,17,-398,-159,-239,278
,24,2023-10-27 11:08:10.95,163,-67,-2051,-3,-7,14,-451,-103,-348,277
,25,2023-10-27 11:08:10.96,176,-62,-2063,-3,-6,14,-399,-165,-234,282
,26,2023-10-27 11:08:10.97,188,-61,-2065,-7,1,14,-448,-100,-348,274
,27,2023-10-27 11:08:10.98,156,-66,-2042,-12,12,9,-400,-167,-233,283
,28,2023-10-27 11:08:10.99,191,-57,-2045,-10,5,12,-439,-91,-348,265
,29,2023-10-27 11:08:11.00,181,-52,-2048,-7,-4,13,-398,-165,-233,281
,30,2023-10-27 11:08:11.01,182,-54,-2051,-8,-1,10,-435,-87,-348,261
,31,2023-10-27 11:08:11.02,183,-50,-2054,-3,-1,9,-404,-173,-231,288
,32,2023-10-27 11:08:11.03,174,-60,-2053,-1,-5,8,-434,-92,-342,263
,33,2023-10-27 11:08:11.04,177,-65,-2064,1,-4,9,-406,-174,-232,290
,34,2023-10-27 11:08:11.05,172,-87,-2067,5,-6,18,-436,-83,-353,259
,35,2023-10-27 11:08:11.06,175,-77,-2074,6,0,19,-415,-173,-242,294
,36,2023-10-27 11:08:11.07,168,-65,-2066,9,-14,31,-435,-70,-365,252
,37,2023-10-27 11:08:11.08,181,-67,-2070,6,-11,36,-418,-157,-261,287
,38,2023-10-27 11:08:11.09,160,-56,-2055,5,-18,43,-431,-44,-387,237
,39,2023-10-27 11:08:11.10,176,-55,-2046,-2,-14,47,-425,-139,-286,282
,40,2023-10-27 11:08:11.11,182,-48,-2049,-7,-12,48,-439,-35,-404,237
,41,2023-10-27 11:08:11.12,176,-51,-2046,-13,-9,49,-437,-143,-294,290
,42,2023-10-27 11:08:11.13,180,-47,-2047,-14,-7,52,-434,-28,-406,231
,43,2023-10-27 11:08:11.14,170,-61,-2044,-11,-9,56,-438,-138,-300,288
,44,2023-10-27 11:08:11.15,184,-54,-2043,-7,-6,56,-436,-33,-403,234
,45,2023-10-27 11:08:11.16,191,-48,-2039,-7,-1,55,-443,-157,-286,300
,46,2023-10-27 11:08:11.17,204,-37,-2044,-9,13,51,-417,-35,-382,226
,47,2023-10-27 11:08:11.18,176,-51,-2051,-12,13,49,-421,-158,-263,289
,48,2023-10-27 11:08:11.19,178,-59,-2077,-7,9,49,-405,-42,-363,223
,49,2023-10-27 11:08:11.20,171,-58,-2079,-2,-2,54,-427,-167,-260,297
,50,2023-10-27 11:08:11.21,176,-63,-2069,9,-14,55,-406,-41,-365,223
,51,2023-10-27 11:08:11.22,180,-57,-2065,17,-25,61,-430,-172,-258,301
,52,2023-10-27 11:08:11.23,162,-48,-2056,20,-24,57,-397,-45,-352,221
,53,2023-10-27 11:08:11.24,165,-47,-2048,10,-15,56,-428,-173,-255,300
,54,2023-10-27 11:08:11.25,181,-46,-2053,11,-6,53,-394,-42,-352,218
,55,2023-10-27 11:08:11.26,174,-47,-2063,11,-5,49,-433,-185,-248,309
,56,2023-10-27 11:08:11.27,177,-55,-2065,18,-5,47,-395,-54,-341,224
,57,2023-10-27 11:08:11.28,167,-47,-2058,21,-9,47,-443,-187,-256,315
,58,2023-10-27 11:08:11.29,174,-44,-2044,22,-9,43,-398,-48,-350,223
,59,2023-10-27 11:08:11.30,170,-51,-2044,17,-1,40,-447,-190,-257,318
,60,2023-10-27 11:08:11.31,163,-49,-2055,13,2,40,-393,-50,-343,221
,61,2023-10-27 11:08:11.32,165,-50,-2051,14,0,40,-444,-194,-250,319
,62,2023-10-27 11:08:11.33,159,-43,-2054,16,-7,41,-384,-50,-334,217
,63,2023-10-27 11:08:11.34,163,-45,-2054,18,-14,39,-446,-195,-251,320
,64,2023-10-27 11:08:11.35,164,-55,-2051,18,-15,39,-381,-47,-334,214
,65,2023-10-27 11:08:11.36,175,-59,-2061,14,-11,41,-454,-196,-258,325
,66,2023-10-27 11:08:11.37,172,-52,-2072,9,-4,40,-387,-48,-339,217
,67,2023-10-27 11:08:11.38,163,-54,-2061,10,-6,39,-458,-205,-253,331
,68,2023-10-27 11:08:11.39,162,-61,-2051,13,-10,40,-381,-51,-330,216
,69,2023-10-27 11:08:11.40,166,-48,-2049,13,-12,44,-455,-203,-252,329
,70,2023-10-27 11:08:11.41,174,-56,-2049,10,-5,42,-378,-50,-328,214
,71,2023-10-27 11:08:11.42,174,-54,-2052,11,1,39,-465,-210,-255,337
,72,2023-10-27 11:08:11.43,161,-61,-2052,11,7,41,-389,-62,-327,225
,73,2023-10-27 11:08:11.44,158,-63,-2054,12,14,38,-469,-212,-257,340
,74,2023-10-27 11:08:11.45,167,-59,-2053,10,27,37,-378,-50,-328,214
,75,2023-10-27 11:08:11.46,165,-56,-2050,10,32,38,-470,-207,-263,338
,76,2023-10-27 11:08:11.47,166,-54,-2048,7,36,35,-379,-53,-326,216
,77,2023-10-27 11:08:11.48,171,-47,-2050,3,40,33,-480,-210,-270,345
,78,2023-10-27 11:08:11.49,173,-36,-2053,1,40,28,-380,-53,-327,216
,79,2023-10-27 11:08:11.50,176,-28,-2046,-3,39,23,-482,-213,-269,347
,80,2023-10-27 11:08:11.51,175,-51,-2059,-5,38,23,-374,-50,-324,212
,81,2023-10-27 11:08:11.52,160,-51,-2073,-4,26,20,-482,-209,-273,345
,82,2023-10-27 11:08:11.53,176,-51,-2063,12,7,24,-368,-42,-326,205
,83,2023-10-27 11:08:11.54,173,-51,-2056,20,2,20,-482,-210,-272,346
,84,2023-10-27 11:08:11.55,172,-53,-2054,24,0,16,-363,-45,-318,204
,85,2023-10-27 11:08:11.56,177,-52,-2056,28,0,13,-482,-213,-269,347
,86,2023-10-27 11:08:11.57,193,-60,-2061,35,-3,12,-360,-48,-312,204
,87,2023-10-27 11:08:11.58,180,-68,-2065,41,-7,16,-481,-218,-263,349
,88,2023-10-27 11:08:11.59,164,-78,-2063,48,-10,17,-354,-46,-308,200
,89,2023-10-27 11:08:11.60,170,-74,-2066,50,-12,20,-483,-210,-273,346
,90,2023-10-27 11:08:11.61,176,-70,-2055,50,0,23,-355,-42,-313,198
,91,2023-10-27 11:08:11.62,170,-67,-2051,50,-4,25,-490,-212,-278,351
,92,2023-10-27 11:08:11.63,171,-67,-2047,52,-5,28,-352,-40,-312,196
,93,2023-10-27 11:08:11.64,175,-68,-2048,52,-7,29,-490,-213,-277,351
,94,2023-10-27 11:08:11.65,171,-76,-2054,51,-4,31,-352,-44,-308,198
,95,2023-10-27 11:08:11.66,176,-64,-2052,53,-1,30,-493,-216,-277,354
,96,2023-10-27 11:08:11.67,166,-75,-2054,48,4,32,-349,-47,-302,198
,97,2023-10-27 11:08:11.68,167,-72,-2056,45,4,32,-492,-219,-273,355
,98,2023-10-27 11:08:11.69,154,-73,-2058,45,1,30,-348,-49,-299,198
,99,2023-10-27 11:08:11.70,160,-74,-2065,48,-4,32,-499,-219,-280,359
,100,2023-10-27 11:08:11.71,163,-78,-2054,45,-9,31,-349,-49,-300,199
,101,2023-10-27 11:08:11.72,169,-75,-2069,41,-11,34,-499,-218,-281,358
,102,2023-10-27 11:08:11.73,175,-72,-2057,39,-10,33,-348,-50,-298,199
,103,2023-10-27 11:08:11.74,161,-82,-2057,34,-6,30,-500,-216,-284,358
,104,2023-10-27 11:08:11.75,169,-80,-2052,31,-1,29,-344,-47,-297,195
,105,2023-10-27 11:08:11.76,169,-82,-2052,30,2,28,-504,-216,-288,360
,106,2023-10-27 11:08:11.77,170,-86,-2046,28,4,28,-340,-50,-290,195
,107,2023-10-27 11:08:11.78,161,-85,-2052,28,9,27,-499,-218,-281,358
,108,2023-10-27 11:08:11.79,172,-80,-2053,27,16,25,-338,-48,-290,193
,109,2023-10-27 11:08:11.80,175,-76,-2052,24,20,22,-505,-212,-293,358
,110,2023-10-27 11:08:11.81,165,-92,-2053,23,27,23,-336,-46,-290,191
,111,2023-10-27 11:08:11.82,165,-74,-2051,23,27,21,-504,-218,-286,361
,112,2023-10-27 11:08:11.83,168,-82,-2057,24,28,20,-336,-57,-279,196
,113,2023-10-27 11:08:11.84,172,-79,-2062,27,25,19,-513,-231,-282,372
,114,2023-10-27 11:08:11.85,161,-81,-2058,27,21,21,-334,-54,-280,194
,115,2023-10-27 11:08:11.86,178,-78,-2058,28,15,18,-507,-210,-297,358
,116,2023-10-27 11:08:11.87,183,-74,-2061,24,12,14,-332,-47,-285,189
,117,2023-10-27 11:08:11.88,168,-73,-2054,23,10,13,-509,-219,-290,364
,118,2023-10-27 11:08:11.89,177,-79,-2057,19,7,14,-336,-64,-272,200
,119,2023-10-27 11:08:11.90,173,-87,-2059,20,5,13,-514,-220,-294,367
,120,2023-10-27 11:08:11.91,172,-93,-2054,18,-2,12,-333,-59,-274,196
,121,2023-10-27 11:08:11.92,166,-90,-2051,17,-5,11,-510,-215,-295,362
,122,2023-10-27 11:08:11.93,164,-94,-2052,18,-4,10,-337,-70,-267,203
,123,2023-10-27 11:08:11.94,178,-91,-2052,18,-1,11,-512,-218,-294,365
,124,2023-10-27 11:08:11.95,174,-88,-2047,15,5,14,-332,-65,-267,198
,125,2023-10-27 11:08:11.96,168,-87,-2045,13,13,12,-512,-218,-294,365
,126,2023-10-27 11:08:11.97,171,-91,-2052,7,18,15,-337,-72,-265,204
,127,2023-10-27 11:08:11.98,177,-84,-2047,5,19,18,-516,-216,-300,366
,128,2023-10-27 11:08:11.99,168,-93,-2051,5,24,19,-333,-65,-268,199
,129,2023-10-27 11:08:12.00,177,-97,-2053,4,25,21,-513,-206,-307,359
,130,2023-10-27 11:08:12.01,182,-95,-2058,4,23,20,-329,-64,-265,196
,131,2023-10-27 11:08:12.02,181,-94,-2064,4,22,20,-511,-206,-305,358
,132,2023-10-27 11:08:12.03,173,-82,-2053,6,21,22,-331,-64,-267,197
,133,2023-10-27 11:08:12.04,185,-75,-2062,7,23,20,-511,-202,-309,356
,134,2023-10-27 11:08:12.05,190,-78,-2061,10,22,16,-327,-63,-264,195
,135,2023-10-27 11:08:12.06,186,-74,-2061,8,19,12,-510,-199,-311,354
,136,2023-10-27 11:08:12.07,182,-74,-2059,7,17,11,-329,-68,-261,198
,137,2023-10-27 11:08:12.08,181,-77,-2055,9,6,8,-510,-203,-307,356
,138,2023-10-27 11:08:12.09,178,-65,-2056,10,2,7,-327,-72,-255,199
,139,2023-10-27 11:08:12.10,178,-79,-2053,8,2,7,-510,-198,-312,354
,140,2023-10-27 11:08:12.11,170,-79,-2052,6,1,6,-329,-70,-259,199
,141,2023-10-27 11:08:12.12,176,-74,-2049,2,-1,9,-512,-195,-317,353
,142,2023-10-27 11:08:12.13,176,-74,-2041,3,1,7,-327,-70,-257,198
,143,2023-10-27 11:08:12.14,170,-75,-2045,-1,2,8,-509,-192,-317,350
,144,2023-10-27 11:08:12.15,172,-87,-2055,-6,6,10,-327,-72,-255,199
,145,2023-10-27 11:08:12.16,181,-83,-2055,-6,10,11,-506,-186,-320,346
,146,2023-10-27 11:08:12.17,173,-82,-2060,-9,10,15,-324,-76,-248,200
,147,2023-10-27 11:08:12.18,181,-86,-2052,-9,15,16,-507,-192,-315,349
,148,2023-10-27 11:08:12.19,163,-78,-2057,-7,17,17,-329,-83,-246,206
,149,2023-10-27 11:08:12.20,181,-84,-2052,-6,15,19,-509,-193,-316,351
,150,2023-10-27 11:08:12.21,181,-73,-2057,-4,18,17,-330,-84,-246,207
,151,2023-10-27 11:08:12.22,182,-76,-2059,0,19,17,-501,-183,-318,342
,152,2023-10-27 11:08:12.23,172,-72,-2061,5,21,13,-330,-89,-241,209
,153,2023-10-27 11:08:12.24,179,-71,-2052,10,22,10,-505,-190,-315,347
,154,2023-10-27 11:08:12.25,191,-76,-2064,13,21,6,-343,-102,-241,222
,155,2023-10-27 11:08:12.26,188,-67,-2057,18,18,4,-514,-183,-331,348
,156,2023-10-27 11:08:12.27,171,-71,-2049,19,17,0,-344,-98,-246,221
,157,2023-10-27 11:08:12.28,182,-74,-2052,24,18,-1,-520,-216,-304,368
,158,2023-10-27 11:08:12.29,188,-66,-2045,28,16,-5,-356,-141,-215,248
,159,2023-10-27 11:08:12.30,181,-86,-2049,31,19,-8,-534,-242,-292,388
,160,2023-10-27 11:08:12.31,181,-91,-2059,32,18,-7,-372,-165,-207,268
,161,2023-10-27 11:08:12.32,180,-75,-2043,32,18,-6,-535,-251,-284,393
,162,2023-10-27 11:08:12.33,170,-81,-2034,37,15,-5,-364,-163,-201,263
,163,2023-10-27 11:08:12.34,186,-83,-2052,43,8,2,-525,-237,-288,381
,164,2023-10-27 11:08:12.35,179,-83,-2064,38,23,4,-352,-150,-202,251
,165,2023-10-27 11:08:12.36,184,-86,-2067,33,35,0,-508,-213,-295,360
,166,2023-10-27 11:08:12.37,184,-88,-2060,35,31,5,-342,-132,-210,237
,167,2023-10-27 11:08:12.38,185,-79,-2054,42,9,6,-506,-192,-314,349
,168,2023-10-27 11:08:12.39,203,-91,-2063,37,23,9,-343,-124,-219,233
,169,2023-10-27 11:08:12.40,190,-81,-2059,33,31,5,-498,-185,-313,341
,170,2023-10-27 11:08:12.41,171,-76,-2052,35,19,7,-343,-126,-217,234
,171,2023-10-27 11:08:12.42,195,-81,-2059,38,12,7,-500,-180,-320,340
,172,2023-10-27 11:08:12.43,184,-78,-2053,36,15,7,-345,-128,-217,236
,173,2023-10-27 11:08:12.44,182,-78,-2047,35,15,7,-499,-179,-320,339
,174,2023-10-27 11:08:12.45,181,-81,-2051,35,14,6,-348,-125,-223,236
,175,2023-10-27 11:08:12.46,189,-81,-2057,37,9,5,-498,-169,-329,333
,176,2023-10-27 11:08:12.47,190,-94,-2053,33,17,4,-352,-126,-226,239
,177,2023-10-27 11:08:12.48,187,-84,-2049,38,13,5,-496,-164,-332,330
,178,2023-10-27 11:08:12.49,200,-96,-2054,41,8,7,-352,-127,-225,239
,179,2023-10-27 11:08:12.50,175,-92,-2048,39,17,7,-495,-165,-330,330
,180,2023-10-27 11:08:12.51,191,-89,-2054,38,16,5,-358,-129,-229,243
,181,2023-10-27 11:08:12.52,188,-92,-2053,37,14,6,-498,-159,-339,328
,182,2023-10-27 11:08:12.53,180,-93,-2049,44,7,8,-360,-127,-233,243
,183,2023-10-27 11:08:12.54,184,-93,-2060,41,16,7,-495,-155,-340,325
,184,2023-10-27 11:08:12.55,198,-96,-2055,46,12,7,-363,-137,-226,250
,185,2023-10-27 11:08:12.56,204,-107,-2051,47,19,9,-497,-160,-337,328
,186,2023-10-27 11:08:12.57,177,-90,-2048,50,20,6,-372,-142,-230,257
,187,2023-10-27 11:08:12.58,198,-94,-2053,52,15,9,-500,-153,-347,326
,188,2023-10-27 11:08:12.59,178,-100,-2051,52,12,6,-375,-144,-231,259
,189,2023-10-27 11:08:12.60,203,-102,-2065,49,18,5,-497,-154,-343,325
,190,2023-10-27 11:08:12.61,186,-106,-2056,49,19,3,-376,-148,-228,262
,191,2023-10-27 11:08:12.62,183,-105,-2053,54,12,5,-494,-149,-345,321
,192,2023-10-27 11:08:12.63,199,-104,-2059,59,7,6,-375,-142,-233,258
,193,2023-10-27 11:08:12.64,184,-109,-2054,58,12,6,-494,-143,-351,318
,194,2023-10-27 11:08:12.65,203,-105,-2063,55,15,9,-380,-151,-229,265
,195,2023-10-27 11:08:12.66,202,-107,-2052,52,23,8,-495,-154,-341,324
,196,2023-10-27 11:08:12.67,180,-107,-2055,50,19,9,-376,-151,-225,263
,197,2023-10-27 11:08:12.68,188,-111,-2057,49,14,9,-483,-141,-342,312
,198,2023-10-27 11:08:12.69,195,-112,-2055,46,13,13,-383,-157,-226,270
,199,2023-10-27 11:08:12.70,168,-94,-2088,35,14,18,-476,-137,-339,306
,200,2023-10-27 11:08:12.71,208,-130,-2031,27,2,19,-381,-155,-226,268
,201,2023-10-27 11:08:12.72,202,-113,-2032,34,16,22,-483,-137,-346,310
,202,2023-10-27 11:08:12.73,185,-108,-2066,35,18,22,-389,-164,-225,276
,203,2023-10-27 11:08:12.74,192,-114,-2052,29,15,25,-477,-135,-342,306
,204,2023-10-27 11:08:12.75,186,-113,-2056,26,16,29,-387,-163,-224,275
,205,2023-10-27 11:08:12.76,199,-113,-2048,28,9,28,-471,-131,-340,301
,206,2023-10-27 11:08:12.77,194,-107,-2048,26,10,31,-390,-162,-228,276
,207,2023-10-27 11:08:12.78,186,-108,-2040,24,12,30,-471,-121,-350,296
,208,2023-10-27 11:08:12.79,191,-103,-2060,17,16,27,-394,-166,-228,280
,209,2023-10-27 11:08:12.80,192,-126,-2040,20,7,24,-467,-125,-342,296
,210,2023-10-27 11:08:12.81,188,-125,-2048,29,12,23,-399,-171,-228,285
,211,2023-10-27 11:08:12.82,180,-126,-2062,37,6,22,-468,-118,-350,293
,212,2023-10-27 11:08:12.83,198,-126,-2050,44,-1,21,-402,-167,-235,284
,213,2023-10-27 11:08:12.84,188,-122,-2052,50,0,18,-464,-114,-350,289
,214,2023-10-27 11:08:12.85,189,-129,-2063,54,-6,17,-402,-176,-226,289
,215,2023-10-27 11:08:12.86,192,-120,-2055,56,-4,16,-461,-120,-341,290
,216,2023-10-27 11:08:12.87,200,-104,-2047,54,0,11,-408,-184,-224,296
,217,2023-10-27 11:08:12.88,198,-109,-2050,53,1,6,-459,-114,-345,286
,218,2023-10-27 11:08:12.89,197,-111,-2050,47,2,2,-410,-176,-234,293
,219,2023-10-27 11:08:12.90,183,-119,-2064,40,-1,-1,-457,-105,-352,281
,220,2023-10-27 11:08:12.91,189,-124,-2052,36,-5,1,-413,-184,-229,298
,221,2023-10-27 11:08:12.92,184,-132,-2049,36,-7,2,-450,-109,-341,279
,222,2023-10-27 11:08:12.93,189,-131,-2051,29,-7,2,-415,-184,-231,299
,223,2023-10-27 11:08:12.94,171,-123,-2047,22,-8,6,-448,-101,-347,274
,224,2023-10-27 11:08:12.95,181,-121,-2049,12,-5,9,-418,-186,-232,302
,225,2023-10-27 11:08:12.96,194,-119,-2047,8,-2,10,-443,-102,-341,272
,226,2023-10-27 11:08:12.97,199,-117,-2043,0,3,9,-418,-191,-227,304
,227,2023-10-27 11:08:12.98,191,-114,-2046,-9,13,11,-445,-104,-341,274
,228,2023-10-27 11:08:12.99,187,-110,-2046,-20,17,12,-425,-198,-227,311
,229,2023-10-27 11:08:13.00,201,-114,-2055,-23,21,14,-441,-101,-340,271
,230,2023-10-27 11:08:13.01,195,-113,-2051,-24,21,14,-428,-193,-235,310
,231,2023-10-27 11:08:13.02,206,-114,-2055,-30,20,16,-436,-93,-343,264
,232,2023-10-27 11:08:13.03,196,-108,-2056,-32,20,14,-430,-200,-230,315
,233,2023-10-27 11:08:13.04,185,-111,-2060,-31,17,15,-428,-93,-335,260
,234,2023-10-27 11:08:13.05,187,-111,-2057,-29,14,13,-434,-205,-229,319
,235,2023-10-27 11:08:13.06,188,-110,-2062,-26,8,9,-430,-96,-334,263
,236,2023-10-27 11:08:13.07,194,-114,-2060,-18,5,6,-444,-214,-230,329
,237,2023-10-27 11:08:13.08,194,-109,-2060,-12,-1,6,-429,-95,-334,262
,238,2023-10-27 11:08:13.09,201,-104,-2052,-5,-2,2,-442,-212,-230,327
,239,2023-10-27 11:08:13.10,190,-107,-2056,-1,-3,-2,-429,-97,-332,263
,240,2023-10-27 11:08:13.11,199,-107,-2051,2,-3,-4,-450,-222,-228,336
,241,2023-10-27 11:08:13.12,199,-106,-2046,5,-5,-7,-432,-106,-326,269
,242,2023-10-27 11:08:13.13,193,-113,-2031,8,1,-12,-467,-234,-233,350
,243,2023-10-27 11:08:13.14,203,-118,-2050,9,3,-12,-458,-128,-330,293
,244,2023-10-27 11:08:13.15,197,-113,-2047,10,3,-14,-497,-270,-227,383
,245,2023-10-27 11:08:13.16,199,-120,-2053,13,6,-12,-485,-172,-313,328
,246,2023-10-27 11:08:13.17,198,-125,-2051,19,3,-10,-517,-297,-220,407
,247,2023-10-27 11:08:13.18,200,-125,-2051,23,3,-10,-490,-179,-311,334
,248,2023-10-27 11:08:13.19,203,-124,-2054,24,2,-7,-526,-298,-228,412
,249,2023-10-27 11:08:13.20,191,-128,-2054,27,4,-4,-485,-170,-315,327
,250,2023-10-27 11:08:13.21,190,-133,-2054,26,3,1,-518,-286,-232,402
,251,2023-10-27 11:08:13.22,204,-124,-2054,26,8,6,-454,-137,-317,295
,252,2023-10-27 11:08:13.23,195,-121,-2046,22,13,11,-484,-251,-233,367
,253,2023-10-27 11:08:13.24,192,-120,-2038,14,14,13,-407,-85,-322,246
,254,2023-10-27 11:08:13.25,210,-106,-2044,12,9,17,-458,-209,-249,333
,255,2023-10-27 11:08:13.26,206,-116,-2045,2,24,17,-378,-48,-330,213
,256,2023-10-27 11:08:13.27,203,-110,-2046,2,17,19,-439,-191,-248,315
,257,2023-10-27 11:08:13.28,197,-117,-2060,1,22,16,-357,-27,-330,192
,258,2023-10-27 11:08:13.29,198,-111,-2067,2,14,18,-435,-177,-258,306
,259,2023-10-27 11:08:13.30,210,-108,-2055,-1,14,15,-352,-19,-333,185
,260,2023-10-27 11:08:13.31,195,-101,-2053,0,7,14,-432,-178,-254,305
,261,2023-10-27 11:08:13.32,204,-104,-2051,-5,12,9,-348,-25,-323,186
,262,2023-10-27 11:08:13.33,193,-103,-2052,-6,6,8,-439,-181,-258,310
,263,2023-10-27 11:08:13.34,207,-106,-2055,-6,3,5,-350,-20,-330,185
,264,2023-10-27 11:08:13.35,195,-110,-2059,-5,-2,3,-444,-181,-263,312
,265,2023-10-27 11:08:13.36,208,-108,-2055,-2,-3,1,-347,-22,-325,184
,266,2023-10-27 11:08:13.37,190,-109,-2060,1,-3,-2,-447,-188,-259,317
,267,2023-10-27 11:08:13.38,198,-108,-2052,5,-6,-3,-346,-25,-321,185
,268,2023-10-27 11:08:13.39,204,-110,-2054,6,-6,-3,-454,-193,-261,323
,269,2023-10-27 11:08:13.40,209,-116,-2057,10,-9,-4,-354,-34,-320,194
,270,2023-10-27 11:08:13.41,200,-116,-2049,12,-10,-2,-462,-202,-260,332
,271,2023-10-27 11:08:13.42,193,-119,-2052,16,-10,-3,-348,-33,-315,190
,272,2023-10-27 11:08:13.43,198,-126,-2054,18,-12,0,-463,-199,-264,331
,273,2023-10-27 11:08:13.44,197,-124,-2058,20,-14,5,-349,-34,-315,191
,274,2023-10-27 11:08:13.45,200,-125,-2055,22,-16,6,-461,-201,-260,331
,275,2023-10-27 11:08:13.46,197,-121,-2045,23,-18,14,-347,-36,-311,191
,276,2023-10-27 11:08:13.47,187,-127,-2050,24,-19,19,-469,-207,-262,338
,277,2023-10-27 11:08:13.48,204,-132,-2049,23,-16,23,-358,-55,-303,206
,278,2023-10-27 11:08:13.49,184,-122,-2048,20,-15,27,-476,-214,-262,345
,279,2023-10-27 11:08:13.50,188,-116,-2060,18,-12,27,-351,-48,-303,199
,280,2023-10-27 11:08:13.51,181,-118,-2054,17,-13,28,-485,-214,-271,349
,281,2023-10-27 11:08:13.52,184,-119,-2051,16,-13,32,-350,-45,-305,197
,282,2023-10-27 11:08:13.53,185,-118,-2052,16,-11,31,-482,-216,-266,349
,283,2023-10-27 11:08:13.54,184,-118,-2054,16,-11,29,-348,-50,-298,199
,284,2023-10-27 11:08:13.55,189,-114,-2044,13,-8,28,-489,-217,-272,353
,285,2023-10-27 11:08:13.56,194,-120,-2039,17,-3,27,-348,-48,-300,198
,286,2023-10-27 11:08:13.57,202,-121,-2046,16,4,23,-488,-215,-273,351
,287,2023-10-27 11:08:13.58,195,-116,-2048,18,1,18,-343,-47,-296,195
,288,2023-10-27 11:08:13.59,194,-120,-2054,19,5,18,-486,-217,-269,351
,289,2023-10-27 11:08:13.60,191,-128,-2050,22,4,16,-337,-45,-292,191
,290,2023-10-27 11:08:13.61,194,-117,-2068,25,-5,19,-490,-215,-275,352
,291,2023-10-27 11:08:13.62,187,-112,-2058,27,-17,19,-342,-47,-295,194
,292,2023-10-27 11:08:13.63,185,-114,-2052,34,-16,18,-494,-222,-272,358
,293,2023-10-27 11:08:13.64,191,-126,-2051,34,-14,15,-336,-52,-284,194
,294,2023-10-27 11:08:13.65,196,-126,-2052,34,-11,13,-492,-220,-272,356
,295,2023-10-27 11:08:13.66,171,-134,-2056,30,-13,14,-336,-55,-281,195
,296,2023-10-27 11:08:13.67,174,-132,-2059,33,-16,19,-495,-226,-269,360
,297,2023-10-27 11:08:13.68,179,-133,-2043,33,-17,21,-334,-57,-277,195
,298,2023-10-27 11:08:13.69,191,-137,-2044,32,-14,24,-497,-220,-277,358
,299,2023-10-27 11:08:13.70,171,-135,-2045,26,-11,27,-336,-53,-283,194
,300,2023-10-27 11:08:13.71,177,-120,-2056,15,-5,31,-502,-219,-283,360
,301,2023-10-27 11:08:13.72,187,-111,-2060,11,-6,33,-333,-55,-278,194
,302,2023-10-27 11:08:13.73,190,-111,-2050,6,-4,38,-500,-217,-283,358
,303,2023-10-27 11:08:13.74,185,-119,-2049,0,-1,37,-332,-58,-274,195
,304,2023-10-27 11:08:13.75,192,-123,-2052,-6,2,38,-501,-223,-278,362
,305,2023-10-27 11:08:13.76,187,-120,-2058,-7,7,41,-330,-56,-274,193
,306,2023-10-27 11:08:13.77,194,-114,-2047,-6,10,37,-503,-211,-292,357
,307,2023-10-27 11:08:13.78,196,-121,-2050,2,14,35,-326,-52,-274,189
,308,2023-10-27 11:08:13.79,189,-129,-2053,14,13,36,-499,-213,-286,356
,309,2023-10-27 11:08:13.80,197,-130,-2046,22,13,31,-324,-56,-268,190
,310,2023-10-27 11:08:13.81,191,-129,-2061,30,12,27,-501,-216,-285,358
,311,2023-10-27 11:08:13.82,179,-128,-2064,36,7,26,-321,-55,-266,188
,312,2023-10-27 11:08:13.83,187,-127,-2059,45,-1,28,-498,-207,-291,352
,313,2023-10-27 11:08:13.84,191,-123,-2055,49,-7,26,-324,-56,-268,190
,314,2023-10-27 11:08:13.85,183,-128,-2050,50,-8,27,-505,-212,-293,358
,315,2023-10-27 11:08:13.86,193,-129,-2047,47,-4,28,-318,-56,-262,187
,316,2023-10-27 11:08:13.87,184,-125,-2034,43,0,23,-504,-212,-292,358
,317,2023-10-27 11:08:13.88,179,-132,-2062,35,3,23,-323,-66,-257,194
,318,2023-10-27 11:08:13.89,175,-122,-2062,28,-4,26,-511,-224,-287,367
,319,2023-10-27 11:08:13.90,194,-111,-2055,18,-6,26,-321,-68,-253,194
,320,2023-10-27 11:08:13.91,187,-104,-2050,10,-8,24,-504,-211,-293,357
,321,2023-10-27 11:08:13.92,194,-99,-2045,-2,-8,24,-318,-64,-254,191
,322,2023-10-27 11:08:13.93,194,-109,-2063,-12,-4,19,-504,-210,-294,357
,323,2023-10-27 11:08:13.94,198,-117,-2070,-13,-12,19,-320,-70,-250,195
,324,2023-10-27 11:08:13.95,194,-122,-2057,-13,-17,16,-507,-210,-297,358
,325,2023-10-27 11:08:13.96,182,-127,-2057,-7,-22,18,-319,-70,-249,194
,326,2023-10-27 11:08:13.97,192,-134,-2058,-6,-27,19,-504,-207,-297,355
,327,2023-10-27 11:08:13.98,180,-134,-2054,-3,-31,20,-320,-79,-241,199
,328,2023-10-27 11:08:13.99,193,-127,-2045,0,-32,24,-502,-208,-294,355
,329,2023-10-27 11:08:14.00,202,-132,-1991,16,-30,21,-316,-77,-239,196
,330,2023-10-27 11:08:14.01,168,-105,-2060,24,-18,23,-499,-199,-300,349
,331,2023-10-27 11:08:14.02,179,-132,-2071,15,-29,29,-315,-71,-244,193
,332,2023-10-27 11:08:14.03,191,-141,-2029,15,-27,37,-500,-196,-304,348
,333,2023-10-27 11:08:14.04,188,-131,-2026,32,-20,35,-318,-75,-243,196
,334,2023-10-27 11:08:14.05,180,-138,-2064,41,-13,38,-499,-193,-306,346
,335,2023-10-27 11:08:14.06,179,-140,-2074,34,-20,43,-314,-73,-241,193
,336,2023-10-27 11:08:14.07,181,-139,-2073,29,-15,44,-496,-194,-302,345
,337,2023-10-27 11:08:14.08,185,-145,-2086,26,-8,46,-316,-82,-234,199
,338,2023-10-27 11:08:14.09,170,-139,-2048,32,-14,46,-498,-190,-308,344
,339,2023-10-27 11:08:14.10,157,-136,-2040,36,-19,46,-318,-78,-240,198
,340,2023-10-27 11:08:14.11,180,-141,-2044,39,-25,48,-496,-186,-310,341
,341,2023-10-27 11:08:14.12,185,-141,-2055,41,-21,48,-315,-84,-231,199
,342,2023-10-27 11:08:14.13,161,-157,-2046,42,-10,43,-496,-188,-308,342
,343,2023-10-27 11:08:14.14,168,-149,-2053,49,-15,44,-317,-90,-227,203
,344,2023-10-27 11:08:14.15,170,-161,-2049,49,-10,43,-494,-189,-305,341
,345,2023-10-27 11:08:14.16,157,-148,-2057,51,-14,44,-317,-90,-227,203
,346,2023-10-27 11:08:14.17,173,-154,-2051,46,-9,45,-497,-179,-318,338
,347,2023-10-27 11:08:14.18,157,-146,-2054,45,-8,44,-325,-89,-236,207
,348,2023-10-27 11:08:14.19,157,-157,-2054,45,-8,46,-501,-180,-321,340
,349,2023-10-27 11:08:14.20,159,-159,-2057,39,-13,43,-329,-94,-235,211
,350,2023-10-27 11:08:14.21,155,-156,-2057,34,-16,50,-499,-179,-320,339
,351,2023-10-27 11:08:14.22,160,-159,-2054,28,-8,49,-330,-97,-233,213
,352,2023-10-27 11:08:14.23,156,-155,-2057,27,-13,49,-500,-176,-324,338
,353,2023-10-27 11:08:14.24,161,-158,-2046,25,-21,48,-331,-99,-232,215
,354,2023-10-27 11:08:14.25,169,-151,-2050,19,-17,48,-496,-176,-320,336
,355,2023-10-27 11:08:14.26,177,-146,-2045,12,-9,48,-329,-102,-227,215
,356,2023-10-27 11:08:14.27,160,-150,-2043,9,-3,43,-486,-164,-322,325
,357,2023-10-27 11:08:14.28,165,-151,-2051,6,-9,43,-330,-108,-222,219
,358,2023-10-27 11:08:14.29,159,-145,-2051,3,-7,41,-490,-174,-316,332
,359,2023-10-27 11:08:14.30,160,-148,-2052,-1,-1,41,-339,-120,-219,229
,360,2023-10-27 11:08:14.31,163,-151,-2051,-4,-1,37,-490,-166,-324,328
,361,2023-10-27 11:08:14.32,166,-146,-2059,-9,-2,41,-330,-115,-215,222
,362,2023-10-27 11:08:14.33,144,-137,-2057,-15,0,38,-481,-168,-313,324
,363,2023-10-27 11:08:14.34,175,-128,-2056,-18,5,32,-329,-119,-210,224
,364,2023-10-27 11:08:14.35,167,-129,-2058,-20,8,28,-483,-165,-318,324
,365,2023-10-27 11:08:14.36,174,-132,-2059,-22,8,25,-336,-121,-215,228
,366,2023-10-27 11:08:14.37,168,-133,-2065,-24,11,21,-482,-162,-320,322
,367,2023-10-27 11:08:14.38,154,-132,-2064,-27,12,16,-343,-119,-224,231
,368,2023-10-27 11:08:14.39,156,-128,-2047,-23,11,12,-491,-160,-331,325
,369,2023-10-27 11:08:14.40,172,-127,-2047,-19,3,12,-344,-121,-223,232
,370,2023-10-27 11:08:14.41,161,-127,-2044,-24,7,10,-485,-158,-327,321
,371,2023-10-27 11:08:14.42,168,-121,-2038,-26,11,8,-348,-128,-220,238
,372,2023-10-27 11:08:14.43,167,-122,-2043,-26,14,5,-490,-157,-333,323
,373,2023-10-27 11:08:14.44,175,-129,-2037,-23,19,5,-351,-131,-220,241
,374,2023-10-27 11:08:14.45,173,-126,-2049,-24,21,2,-478,-152,-326,315
,375,2023-10-27 11:08:14.46,161,-127,-2043,-26,19,2,-345,-131,-214,238
,376,2023-10-27 11:08:14.47,160,-137,-2056,-23,20,5,-478,-150,-328,314
,377,2023-10-27 11:08:14.48,167,-135,-2056,-19,19,7,-352,-131,-221,241
,378,2023-10-27 11:08:14.49,176,-126,-2053,-15,21,9,-478,-144,-334,311
,379,2023-10-27 11:08:14.50,174,-133,-2057,-14,20,11,-357,-138,-219,247
,380,2023-10-27 11:08:14.51,175,-134,-2051,-12,19,14,-475,-148,-327,311
,381,2023-10-27 11:08:14.52,178,-129,-2057,-7,21,16,-356,-142,-214,249
,382,2023-10-27 11:08:14.53,171,-132,-2059,-3,21,15,-474,-143,-331,308
,383,2023-10-27 11:08:14.54,165,-135,-2055,6,21,17,-357,-148,-209,252
,384,2023-10-27 11:08:14.55,175,-135,-2051,11,22,19,-467,-143,-324,305
,385,2023-10-27 11:08:14.56,181,-132,-2059,13,22,19,-360,-150,-210,255
,386,2023-10-27 11:08:14.57,168,-136,-2055,19,23,19,-470,-140,-330,305
,387,2023-10-27 11:08:14.58,173,-138,-2058,24,22,21,-364,-154,-210,259
,388,2023-10-27 11:08:14.59,175,-122,-2051,24,17,23,-464,-139,-325,301
,389,2023-10-27 11:08:14.60,176,-126,-2052,26,19,21,-370,-154,-216,262
,390,2023-10-27 11:08:14.61,173,-133,-2077,26,10,21,-467,-134,-333,300
,391,2023-10-27 11:08:14.62,169,-120,-2062,27,0,24,-376,-154,-222,265
,392,2023-10-27 11:08:14.63,178,-129,-2045,31,2,25,-468,-127,-341,297
,393,2023-10-27 11:08:14.64,178,-141,-2044,30,3,26,-378,-160,-218,269
,394,2023-10-27 11:08:14.65,177,-139,-2047,26,8,24,-464,-130,-334,297
,395,2023-10-27 11:08:14.66,179,-138,-2052,25,13,21,-383,-164,-219,273
,396,2023-10-27 11:08:14.67,180,-139,-2059,24,13,22,-464,-123,-341,293
,397,2023-10-27 11:08:14.68,173,-137,-2063,27,10,24,-376,-156,-220,266
,398,2023-10-27 11:08:14.69,160,-135,-2066,29,6,27,-458,-122,-336,290
,399,2023-10-27 11:08:14.70,152,-141,-2069,24,3,28,-380,-167,-213,273
,400,2023-10-27 11:08:14.71,177,-136,-2060,21,-1,32,-456,-128,-328,292
,401,2023-10-27 11:08:14.72,197,-128,-2077,15,7,33,-384,-163,-221,273
,402,2023-10-27 11:08:14.73,147,-143,-2048,11,8,29,-451,-109,-342,280
,403,2023-10-27 11:08:14.74,185,-128,-2035,17,-2,33,-394,-173,-221,283
,404,2023-10-27 11:08:14.75,171,-138,-2038,15,8,31,-449,-115,-334,282
,405,2023-10-27 11:08:14.76,179,-128,-2031,7,13,27,-391,-176,-215,283
,406,2023-10-27 11:08:14.77,174,-129,-2038,9,19,26,-444,-113,-331,278
,407,2023-10-27 11:08:14.78,177,-126,-2037,13,20,20,-396,-177,-219,286
,408,2023-10-27 11:08:14.79,174,-127,-2042,13,21,16,-448,-111,-337,279
,409,2023-10-27 11:08:14.80,176,-114,-2041,9,23,11,-400,-184,-216,292
,410,2023-10-27 11:08:14.81,191,-125,-2041,10,23,8,-440,-110,-330,275
,411,2023-10-27 11:08:14.82,174,-129,-2046,8,25,5,-400,-185,-215,292
,412,2023-10-27 11:08:14.83,171,-126,-2049,5,22,3,-436,-105,-331,270
,413,2023-10-27 11:08:14.84,181,-139,-2053,6,23,2,-405,-181,-224,293
,414,2023-10-27 11:08:14.85,187,-134,-2045,4,25,1,-434,-96,-338,265
,415,2023-10-27 11:08:14.86,181,-142,-2050,5,27,2,-406,-185,-221,295
,416,2023-10-27 11:08:14.87,179,-135,-2051,4,29,5,-428,-95,-333,261
,417,2023-10-27 11:08:14.88,190,-136,-2055,5,32,4,-405,-184,-221,294
,418,2023-10-27 11:08:14.89,200,-139,-2058,6,35,5,-424,-89,-335,256
,419,2023-10-27 11:08:14.90,181,-132,-2060,9,35,7,-411,-183,-228,297
,420,2023-10-27 11:08:14.91,193,-132,-2056,10,31,7,-422,-84,-338,253
,421,2023-10-27 11:08:14.92,183,-126,-2049,9,31,11,-414,-185,-229,299
,422,2023-10-27 11:08:14.93,180,-129,-2058,7,30,8,-418,-84,-334,251
,423,2023-10-27 11:08:14.94,192,-130,-2065,5,31,8,-416,-191,-225,303
,424,2023-10-27 11:08:14.95,187,-136,-2072,9,23,10,-413,-87,-326,250
,425,2023-10-27 11:08:14.96,178,-140,-2072,17,16,11,-416,-196,-220,306
,426,2023-10-27 11:08:14.97,188,-144,-2065,27,3,11,-406,-76,-330,241
,427,2023-10-27 11:08:14.98,203,-141,-2058,36,-4,10,-420,-191,-229,305
,428,2023-10-27 11:08:14.99,192,-142,-2051,41,-6,9,-409,-78,-331,243
,429,2023-10-27 11:08:15.00,191,-141,-2038,47,-8,10,-427,-198,-229,312
,430,2023-10-27 11:08:15.01,180,-147,-2052,51,-6,5,-403,-75,-328,239
,431,2023-10-27 11:08:15.02,186,-148,-2051,55,-12,6,-427,-196,-231,311
,432,2023-10-27 11:08:15.03,191,-141,-2043,59,-11,5,-402,-72,-330,237
,433,2023-10-27 11:08:15.04,195,-140,-2043,63,-17,4,-437,-195,-242,316
,434,2023-10-27 11:08:15.05,191,-150,-2043,64,-19,2,-406,-68,-338,237
,435,2023-10-27 11:08:15.06,182,-158,-2054,62,-23,6,-446,-194,-252,320
,436,2023-10-27 11:08:15.07,174,-151,-2057,62,-22,8,-405,-61,-344,233
,437,2023-10-27 11:08:15.08,189,-145,-2049,57,-25,10,-444,-198,-246,321
,438,2023-10-27 11:08:15.09,173,-162,-2062,52,-21,12,-389,-54,-335,221
,439,2023-10-27 11:08:15.10,166,-172,-2074,45,-19,17,-449,-196,-253,322
,440,2023-10-27 11:08:15.11,158,-173,-2065,40,-18,24,-399,-59,-340,229
,441,2023-10-27 11:08:15.12,161,-175,-2061,34,-18,32,-461,-207,-254,334
,442,2023-10-27 11:08:15.13,167,-169,-2055,26,-18,42,-394,-59,-335,226
,443,2023-10-27 11:08:15.14,166,-164,-2045,19,-14,47,-455,-201,-254,328
,444,2023-10-27 11:08:15.15,168,-161,-2041,9,-10,52,-394,-59,-335,226
,445,2023-10-27 11:08:15.16,170,-153,-2038,5,-8,55,-455,-202,-253,328
,446,2023-10-27 11:08:15.17,180,-151,-2032,-2,-4,53,-387,-54,-333,220
,447,2023-10-27 11:08:15.18,180,-145,-2038,-7,-2,53,-460,-205,-255,332
,448,2023-10-27 11:08:15.19,178,-133,-2051,-14,3,49,-386,-54,-332,220
,449,2023-10-27 11:08:15.20,181,-126,-2045,-22,7,45,-467,-204,-263,335
,450,2023-10-27 11:08:15.21,180,-128,-2045,-28,6,39,-385,-51,-334,218
,451,2023-10-27 11:08:15.22,187,-132,-2048,-31,7,31,-465,-209,-256,337
,452,2023-10-27 11:08:15.23,182,-143,-2049,-28,7,25,-378,-54,-324,216
,453,2023-10-27 11:08:15.24,169,-147,-2048,-25,9,20,-470,-208,-262,339
,454,2023-10-27 11:08:15.25,186,-160,-2046,-19,10,17,-381,-51,-330,216
,455,2023-10-27 11:08:15.26,173,-187,-2037,-4,16,15,-477,-207,-270,342
,456,2023-10-27 11:08:15.27,161,-207,-2064,12,15,13,-382,-50,-332,216
,457,2023-10-27 11:08:15.28,162,-200,-2080,32,9,17,-484,-212,-272,348
,458,2023-10-27 11:08:15.29,156,-180,-2091,43,13,22,-384,-53,-331,218
,459,2023-10-27 11:08:15.30,152,-172,-2089,48,12,27,-491,-213,-278,352
,460,2023-10-27 11:08:15.31,150,-155,-2078,48,4,31,-385,-53,-332,219
,461,2023-10-27 11:08:15.32,124,-162,-2038,56,-21,42,-488,-222,-266,355
,462,2023-10-27 11:08:15.33,129,-160,-2051,65,-41,53,-374,-62,-312,218
,463,2023-10-27 11:08:15.34,171,-145,-2048,54,-38,57,-490,-218,-272,354
,464,2023-10-27 11:08:15.35,161,-145,-2044,30,-3,52,-374,-51,-323,212
,465,2023-10-27 11:08:15.36,150,-142,-2035,3,15,49,-487,-210,-277,348
,466,2023-10-27 11:08:15.37,189,-128,-2039,-14,22,48,-362,-41,-321,201
,467,2023-10-27 11:08:15.38,158,-128,-2048,-27,36,40,-483,-206,-277,344
,468,2023-10-27 11:08:15.39,155,-117,-2044,-39,43,33,-357,-34,-323,195
,469,2023-10-27 11:08:15.40,182,-101,-2040,-44,34,25,-488,-199,-289,343
,470,2023-10-27 11:08:15.41,186,-102,-2037,-54,44,18,-362,-37,-325,199
,471,2023-10-27 11:08:15.42,190,-93,-2027,-71,66,7,-496,-204,-292,350
,472,2023-10-27 11:08:15.43,205,-88,-2028,-83,72,0,-354,-38,-316,196
,473,2023-10-27 11:08:15.44,189,-89,-2040,-84,69,-12,-489,-205,-284,347
,474,2023-10-27 11:08:15.45,209,-91,-2051,-85,76,-21,-341,-36,-305,188
,475,2023-10-27 11:08:15.46,202,-98,-2057,-83,64,-27,-477,-211,-266,344
,476,2023-10-27 11:08:15.47,208,-106,-2039,-74,54,-30,-332,-43,-289,187
,477,2023-10-27 11:08:15.48,218,-107,-2052,-61,44,-29,-480,-214,-266,347
,478,2023-10-27 11:08:15.49,228,-111,-2046,-46,41,-31,-340,-49,-291,194
,479,2023-10-27 11:08:15.50,212,-106,-2047,-38,46,-34,-494,-216,-278,355
,480,2023-10-27 11:08:15.51,227,-128,-2055,-25,44,-33,-361,-68,-293,214
,481,2023-10-27 11:08:15.52,211,-142,-2061,-9,39,-33,-513,-230,-283,371
,482,2023-10-27 11:08:15.53,206,-154,-2053,16,29,-27,-357,-62,-295,209
,483,2023-10-27 11:08:15.54,198,-159,-2056,40,25,-21,-499,-210,-289,354
,484,2023-10-27 11:08:15.55,203,-154,-2052,53,33,-15,-336,-38,-298,187
,485,2023-10-27 11:08:15.56,173,-147,-2050,63,23,-10,-490,-208,-282,349
,486,2023-10-27 11:08:15.57,188,-159,-2051,69,18,0,-316,-31,-285,173
,487,2023-10-27 11:08:15.58,169,-156,-2038,83,-8,10,-478,-190,-288,334
,488,2023-10-27 11:08:15.59,170,-156,-2031,96,-27,27,-309,-20,-289,164
,489,2023-10-27 11:08:15.60,164,-150,-2034,100,-34,34,-477,-187,-290,332
,490,2023-10-27 11:08:15.61,175,-159,-2048,98,-30,40,-311,-18,-293,164
,491,2023-10-27 11:08:15.62,167,-156,-2052,89,-17,41,-486,-183,-303,334
,492,2023-10-27 11:08:15.63,182,-153,-2067,88,-14,39,-327,-27,-300,177
,493,2023-10-27 11:08:15.64,216,-158,-2095,69,15,26,-502,-191,-311,346
,494,2023-10-27 11:08:15.65,148,-160,-2041,56,26,10,-329,-32,-297,180
,495,2023-10-27 11:08:15.66,146,-163,-2044,56,17,10,-496,-189,-307,342
,496,2023-10-27 11:08:15.67,177,-158,-2041,55,11,9,-318,-28,-290,173
,497,2023-10-27 11:08:15.68,174,-154,-2063,55,0,-1,-491,-182,-309,336
,498,2023-10-27 11:08:15.69,175,-153,-2074,44,6,-5,-307,-21,-286,164
,499,2023-10-27 11:08:15.70,144,-164,-2075,27,12,-10,-480,-183,-297,331
,500,2023-10-27 11:08:15.71,149,-167,-2067,13,11,-9,-295,-28,-267,161
,501,2023-10-27 11:08:15.72,172,-162,-2073,3,9,-5,-475,-191,-284,333
,502,2023-10-27 11:08:15.73,158,-168,-2046,-4,3,-3,-297,-32,-265,164
,503,2023-10-27 11:08:15.74,178,-166,-2052,-5,2,0,-483,-188,-295,335
,504,2023-10-27 11:08:15.75,171,-178,-2040,-14,15,1,-309,-40,-269,174
,505,2023-10-27 11:08:15.76,178,-190,-2053,-24,29,4,-490,-195,-295,342
,506,2023-10-27 11:08:15.77,175,-184,-2039,-19,22,12,-305,-41,-264,173
,507,2023-10-27 11:08:15.78,199,-178,-2022,-7,17,23,-488,-185,-303,336
,508,2023-10-27 11:08:15.79,213,-176,-2014,-2,44,23,-302,-42,-260,172
,509,2023-10-27 11:08:15.80,197,-173,-2028,-10,72,16,-484,-194,-290,339
,510,2023-10-27 11:08:15.81,208,-153,-2029,-24,95,9,-302,-53,-249,177
,511,2023-10-27 11:08:15.82,225,-150,-2043,-28,116,2,-490,-192,-298,341
,512,2023-10-27 11:08:15.83,235,-136,-2039,-22,125,-8,-304,-49,-255,176
,513,2023-10-27 11:08:15.84,230,-133,-2022,-16,126,-18,-489,-187,-302,338
,514,2023-10-27 11:08:15.85,220,-131,-2015,-12,129,-28,-302,-49,-253,175
,515,2023-10-27 11:08:15.86,177,-123,-2055,-23,98,-25,-486,-186,-300,336
,516,2023-10-27 11:08:15.87,281,-144,-2018,-25,94,-28,-302,-55,-247,178
,517,2023-10-27 11:08:15.88,209,-139,-1997,-7,111,-43,-486,-187,-299,336
,518,2023-10-27 11:08:15.89,228,-130,-2059,10,91,-43,-303,-55,-248,179
,519,2023-10-27 11:08:15.90,233,-139,-2054,10,63,-43,-491,-184,-307,337
,520,2023-10-27 11:08:15.91,245,-128,-2039,4,83,-51,-300,-51,-249,175
,521,2023-10-27 11:08:15.92,236,-140,-2042,10,70,-54,-486,-181,-305,333
,522,2023-10-27 11:08:15.93,259,-138,-2037,12,66,-58,-298,-60,-238,179
,523,2023-10-27 11:08:15.94,242,-133,-2054,9,73,-58,-485,-188,-297,336
,524,2023-10-27 11:08:15.95,248,-149,-2065,-1,89,-62,-300,-65,-235,182
,525,2023-10-27 11:08:15.96,234,-145,-2066,1,78,-58,-489,-181,-308,335
,526,2023-10-27 11:08:15.97,264,-148,-2072,10,65,-51,-308,-71,-237,189
,527,2023-10-27 11:08:15.98,259,-147,-2056,10,77,-55,-490,-185,-305,337
,528,2023-10-27 11:08:15.99,243,-140,-2055,16,64,-51,-306,-72,-234,189
,529,2023-10-27 11:08:16.00,265,-151,-2051,15,72,-53,-492,-189,-303,340
,530,2023-10-27 11:08:16.01,243,-157,-2055,16,66,-47,-307,-69,-238,188
,531,2023-10-27 11:08:16.02,258,-146,-2050,22,56,-46,-489,-173,-316,331
,532,2023-10-27 11:08:16.03,248,-149,-2065,25,56,-44,-309,-74,-235,191
,533,2023-10-27 11:08:16.04,243,-146,-2060,23,45,-40,-486,-174,-312,330
,534,2023-10-27 11:08:16.05,251,-141,-2055,18,50,-36,-312,-78,-234,195
,535,2023-10-27 11:08:16.06,259,-144,-2066,17,38,-30,-489,-171,-318,330
,536,2023-10-27 11:08:16.07,250,-148,-2058,12,38,-30,-312,-73,-239,192
,537,2023-10-27 11:08:16.08,249,-139,-2052,12,28,-25,-489,-162,-327,325
,538,2023-10-27 11:08:16.09,256,-140,-2034,13,16,-22,-312,-72,-240,192
,539,2023-10-27 11:08:16.10,259,-151,-2056,13,15,-18,-484,-158,-326,321
,540,2023-10-27 11:08:16.11,266,-148,-2042,13,10,-13,-314,-80,-234,197
,541,2023-10-27 11:08:16.12,249,-149,-2044,13,11,-12,-487,-164,-323,325
,542,2023-10-27 11:08:16.13,249,-155,-2068,15,11,-12,-315,-87,-228,201
,543,2023-10-27 11:08:16.14,247,-147,-2073,15,6,-5,-486,-167,-319,326
,544,2023-10-27 11:08:16.15,246,-138,-2068,12,5,-5,-322,-96,-226,209
,545,2023-10-27 11:08:16.16,248,-122,-2056,13,-6,-4,-485,-162,-323,323
,546,2023-10-27 11:08:16.17,244,-131,-2046,13,-14,-1,-316,-89,-227,202
,547,2023-10-27 11:08:16.18,242,-137,-2040,10,-23,1,-480,-152,-328,316
,548,2023-10-27 11:08:16.19,235,-146,-2047,8,-29,2,-319,-91,-228,205
,549,2023-10-27 11:08:16.20,236,-145,-2049,11,-37,5,-479,-154,-325,316
,550,2023-10-27 11:08:16.21,240,-138,-2038,17,-43,9,-323,-89,-234,206
,551,2023-10-27 11:08:16.22,251,-134,-2034,25,-44,10,-488,-146,-342,317
,552,2023-10-27 11:08:16.23,244,-144,-2032,30,-38,7,-343,-102,-241,222
,553,2023-10-27 11:08:16.24,232,-150,-2030,33,-35,5,-494,-155,-339,324
,554,2023-10-27 11:08:16.25,232,-149,-2034,35,-34,5,-345,-107,-238,226
,555,2023-10-27 11:08:16.26,230,-155,-2049,43,-32,3,-491,-147,-344,319
,556,2023-10-27 11:08:16.27,218,-146,-2042,48,-32,2,-341,-104,-237,222
,557,2023-10-27 11:08:16.28,238,-138,-2043,48,-28,-1,-478,-136,-342,307
,558,2023-10-27 11:08:16.29,222,-151,-2046,45,-19,-5,-323,-101,-222,212
,559,2023-10-27 11:08:16.30,222,-154,-2046,42,-13,-9,-465,-141,-324,303
,560,2023-10-27 11:08:16.31,219,-155,-2052,39,-11,-16,-330,-108,-222,219
,561,2023-10-27 11:08:16.32,222,-146,-2054,25,11,-24,-465,-122,-343,293
,562,2023-10-27 11:08:16.33,204,-172,-2053,20,11,-26,-334,-104,-230,219
,563,2023-10-27 11:08:16.34,216,-163,-2056,18,9,-28,-474,-135,-339,304
,564,2023-10-27 11:08:16.35,238,-158,-2057,31,0,-28,-355,-132,-223,243
,565,2023-10-27 11:08:16.36,203,-167,-2039,37,-2,-30,-482,-136,-346,309
,566,2023-10-27 11:08:16.37,220,-162,-2040,45,-7,-27,-345,-124,-221,234
,567,2023-10-27 11:08:16.38,233,-168,-2051,33,14,-38,-462,-133,-329,297
,568,2023-10-27 11:08:16.39,220,-172,-2052,25,23,-38,-332,-122,-210,227
,569,2023-10-27 11:08:16.40,201,-173,-2042,31,9,-35,-461,-133,-328,297
,570,2023-10-27 11:08:16.41,236,-173,-2057,39,1,-31,-359,-141,-218,250
,571,2023-10-27 11:08:16.42,209,-177,-2046,42,-1,-29,-479,-138,-341,308
,572,2023-10-27 11:08:16.43,201,-176,-2042,38,1,-29,-372,-142,-230,257
,573,2023-10-27 11:08:16.44,212,-174,-2041,26,13,-27,-475,-129,-346,302
,574,2023-10-27 11:08:16.45,217,-183,-2034,19,21,-24,-354,-128,-226,241
,575,2023-10-27 11:08:16.46,199,-177,-2029,24,6,-21,-455,-117,-338,286
,576,2023-10-27 11:08:16.47,229,-179,-2046,22,8,-22,-348,-131,-217,239
,577,2023-10-27 11:08:16.48,201,-168,-2040,11,18,-22,-459,-124,-335,291
,578,2023-10-27 11:08:16.49,236,-156,-2034,9,12,-20,-372,-148,-224,260
,579,2023-10-27 11:08:16.50,236,-162,-2040,1,29,-24,-473,-130,-343,301
,580,2023-10-27 11:08:16.51,221,-165,-2032,-4,27,-29,-376,-149,-227,262
,581,2023-10-27 11:08:16.52,247,-164,-2040,-6,33,-31,-460,-120,-340,290
,582,2023-10-27 11:08:16.53,222,-159,-2046,-11,40,-34,-365,-146,-219,255
,583,2023-10-27 11:08:16.54,239,-168,-2043,-17,48,-34,-454,-121,-333,287
,584,2023-10-27 11:08:16.55,236,-181,-2047,-18,45,-33,-378,-155,-223,266
,585,2023-10-27 11:08:16.56,253,-159,-2043,-20,49,-31,-461,-118,-343,289
,586,2023-10-27 11:08:16.57,271,-146,-2037,-23,55,-33,-370,-157,-213,263
,587,2023-10-27 11:08:16.58,265,-137,-2037,-30,72,-40,-439,-109,-330,274
,588,2023-10-27 11:08:16.59,262,-141,-2039,-43,84,-44,-363,-154,-209,258
,589,2023-10-27 11:08:16.60,263,-144,-2047,-55,96,-50,-434,-110,-324,272
,590,2023-10-27 11:08:16.61,274,-136,-2044,-62,99,-49,-369,-158,-211,263
,591,2023-10-27 11:08:16.62,279,-140,-2027,-65,93,-51,-435,-101,-334,268
,592,2023-10-27 11:08:16.63,272,-120,-2027,-62,94,-56,-373,-159,-214,266
,593,2023-10-27 11:08:16.64,260,-121,-2042,-63,88,-59,-433,-102,-331,267
,594,2023-10-27 11:08:16.65,278,-127,-2035,-65,82,-60,-371,-165,-206,268
,595,2023-10-27 11:08:16.66,268,-116,-2046,-54,62,-60,-428,-102,-326,265
,596,2023-10-27 11:08:16.67,304,-122,-2036,-47,54,-68,-389,-168,-221,278
,597,2023-10-27 11:08:16.68,297,-103,-2060,-41,50,-73,-444,-103,-341,273
,598,2023-10-27 11:08:16.69,305,-119,-2067,-37,43,-85,-404,-169,-235,286
,599,2023-10-27 11:08:16.70,281,-129,-2081,-41,55,-98,-436,-87,-349,261
,600,2023-10-27 11:08:16.71,268,-121,-2087,-37,35,-98,-386,-160,-226,273
,601,2023-10-27 11:08:16.72,279,-130,-2086,-25,6,-98,-407,-72,-335,239
,602,2023-10-27 11:08:16.73,302,-119,-2068,-15,-12,-98,-362,-149,-213,255
,603,2023-10-27 11:08:16.74,281,-124,-2059,-3,-35,-97,-402,-78,-324,240
,604,2023-10-27 11:08:16.75,276,-127,-2059,1,-51,-102,-387,-159,-228,273
,605,2023-10-27 11:08:16.76,264,-140,-2074,10,-57,-100,-423,-81,-342,252
,606,2023-10-27 11:08:16.77,249,-157,-2083,23,-68,-92,-404,-172,-232,288
,607,2023-10-27 11:08:16.78,263,-161,-2080,37,-79,-86,-415,-77,-338,246
,608,2023-10-27 11:08:16.79,264,-153,-2071,50,-85,-80,-393,-183,-210,288
,609,2023-10-27 11:08:16.80,266,-139,-2046,54,-89,-79,-399,-72,-327,235
,610,2023-10-27 11:08:16.81,284,-163,-1971,54,-80,-83,-390,-170,-220,280
,611,2023-10-27 11:08:16.82,231,-114,-2033,53,-48,-86,-398,-70,-328,234
,612,2023-10-27 11:08:16.83,242,-124,-2078,34,-44,-86,-398,-181,-217,289
,613,2023-10-27 11:08:16.84,253,-159,-2061,12,-50,-79,-401,-77,-324,239
,614,2023-10-27 11:08:16.85,246,-144,-2028,19,-52,-73,-410,-184,-226,297
,615,2023-10-27 11:08:16.86,252,-144,-2039,36,-76,-65,-393,-61,-332,227
,616,2023-10-27 11:08:16.87,254,-132,-2011,35,-71,-63,-386,-177,-209,281
,617,2023-10-27 11:08:16.88,254,-124,-2020,22,-44,-65,-373,-62,-311,217
,618,2023-10-27 11:08:16.89,220,-167,-2050,7,-42,-65,-387,-186,-201,286
,619,2023-10-27 11:08:16.90,253,-140,-2070,2,-38,-57,-381,-67,-314,224
,620,2023-10-27 11:08:16.91,227,-151,-2055,14,-56,-50,-404,-187,-217,295
,621,2023-10-27 11:08:16.92,249,-141,-2038,16,-59,-48,-369,-51,-318,210
,622,2023-10-27 11:08:16.93,220,-135,-2019,10,-55,-48,-383,-180,-203,281
,623,2023-10-27 11:08:16.94,253,-140,-2030,-2,-44,-49,-347,-47,-300,197
,624,2023-10-27 11:08:16.95,239,-135,-2046,-3,-40,-51,-379,-186,-193,282
,625,2023-10-27 11:08:16.96,232,-145,-2050,8,-37,-55,-345,-57,-288,201
,626,2023-10-27 11:08:16.97,223,-154,-2068,17,-40,-55,-388,-194,-194,291
,627,2023-10-27 11:08:16.98,225,-151,-2055,21,-47,-52,-340,-53,-287,196
,628,2023-10-27 11:08:16.99,228,-148,-2058,22,-40,-49,-366,-177,-189,271
,629,2023-10-27 11:08:17.00,228,-143,-2054,25,-41,-51,-286,-3,-283,144
,630,2023-10-27 11:08:17.01,228,-138,-2049,25,-41,-47,-342,-156,-186,249
,631,2023-10-27 11:08:17.02,222,-144,-2060,20,-39,-48,-298,-17,-281,157
,632,2023-10-27 11:08:17.03,221,-143,-2038,16,-26,-48,-372,-179,-193,275
,633,2023-10-27 11:08:17.04,255,-127,-2032,9,-8,-48,-315,-37,-278,176
,634,2023-10-27 11:08:17.05,252,-132,-2023,9,-2,-51,-381,-189,-192,285
,635,2023-10-27 11:08:17.06,257,-135,-2024,0,30,-58,-315,-31,-284,173
,636,2023-10-27 11:08:17.07,253,-125,-2025,-12,47,-61,-388,-188,-200,288
,637,2023-10-27 11:08:17.08,237,-121,-2027,-17,58,-65,-313,-32,-281,172
,638,2023-10-27 11:08:17.09,249,-128,-2047,-18,61,-61,-397,-192,-205,294
,639,2023-10-27 11:08:17.10,243,-141,-2050,-26,62,-57,-316,-31,-285,173
,640,2023-10-27 11:08:17.11,231,-129,-2050,-32,52,-52,-388,-179,-209,283
,641,2023-10-27 11:08:17.12,242,-133,-2074,-32,38,-41,-281,-6,-275,143
,642,2023-10-27 11:08:17.13,227,-130,-2063,-39,28,-33,-373,-169,-204,271
,643,2023-10-27 11:08:17.14,222,-141,-2073,-40,3,-21,-278,1,-279,138
,644,2023-10-27 11:08:17.15,232,-137,-2072,-34,-19,-9,-387,-179,-208,283
,645,2023-10-27 11:08:17.16,223,-132,-2064,-29,-39,-2,-300,-21,-279,160
,646,2023-10-27 11:08:17.17,242,-130,-2054,-24,-55,4,-410,-195,-215,302
,647,2023-10-27 11:08:17.18,234,-132,-2041,-17,-63,4,-312,-24,-288,168
,648,2023-10-27 11:08:17.19,236,-132,-2052,-15,-61,4,-420,-189,-231,304
,649,2023-10-27 11:08:17.20,219,-130,-2056,-14,-63,5,-315,-20,-295,167
,650,2023-10-27 11:08:17.21,219,-124,-2066,-3,-67,5,-419,-182,-237,300
,651,2023-10-27 11:08:17.22,223,-134,-2062,6,-66,5,-307,-18,-289,162
,652,2023-10-27 11:08:17.23,219,-127,-2048,9,-65,4,-423,-191,-232,307
,653,2023-10-27 11:08:17.24,220,-117,-2043,11,-64,0,-309,-23,-286,166
,654,2023-10-27 11:08:17.25,239,-105,-2046,15,-59,-4,-434,-197,-237,315
,655,2023-10-27 11:08:17.26,226,-103,-2041,14,-44,-18,-313,-24,-289,168
,656,2023-10-27 11:08:17.27,237,-103,-2042,15,-39,-27,-444,-196,-248,320
,657,2023-10-27 11:08:17.28,207,-134,-2055,15,-34,-35,-328,-35,-293,181
,658,2023-10-27 11:08:17.29,224,-120,-2060,14,-30,-40,-460,-212,-248,336
,659,2023-10-27 11:08:17.30,222,-130,-2050,21,-32,-42,-329,-38,-291,183
,660,2023-10-27 11:08:17.31,219,-128,-2040,21,-28,-45,-463,-202,-261,332
,661,2023-10-27 11:08:17.32,219,-125,-2040,15,-18,-50,-323,-31,-292,177
,662,2023-10-27 11:08:17.33,218,-123,-2043,7,-13,-56,-453,-203,-250,328
,663,2023-10-27 11:08:17.34,216,-123,-2043,3,-14,-58,-312,-33,-279,172
,664,2023-10-27 11:08:17.35,213,-119,-2054,3,-16,-59,-460,-205,-255,332
,665,2023-10-27 11:08:17.36,216,-112,-2057,3,-16,-62,-325,-40,-285,182
,666,2023-10-27 11:08:17.37,193,-123,-2078,-9,-39,-58,-473,-208,-265,340
,667,2023-10-27 11:08:17.38,238,-148,-2005,-13,-44,-60,-322,-30,-292,176
,668,2023-10-27 11:08:17.39,202,-112,-2020,7,-24,-68,-464,-198,-266,331
,669,2023-10-27 11:08:17.40,210,-121,-2058,9,-35,-73,-312,-34,-278,173
,670,2023-10-27 11:08:17.41,215,-128,-2050,-1,-38,-74,-465,-211,-254,338
,671,2023-10-27 11:08:17.42,207,-121,-2061,5,-38,-77,-307,-33,-274,170
,672,2023-10-27 11:08:17.43,205,-132,-2059,12,-52,-78,-466,-198,-268,332
,673,2023-10-27 11:08:17.44,204,-130,-2048,19,-59,-77,-310,-31,-279,170
,674,2023-10-27 11:08:17.45,202,-143,-2037,22,-62,-75,-469,-204,-265,336
,675,2023-10-27 11:08:17.46,218,-148,-2041,22,-54,-75,-309,-38,-271,173
,676,2023-10-27 11:08:17.47,215,-148,-2030,24,-42,-71,-478,-212,-266,345
,677,2023-10-27 11:08:17.48,216,-139,-2048,22,-30,-67,-323,-47,-276,185
,678,2023-10-27 11:08:17.49,202,-142,-2051,23,-28,-61,-493,-210,-283,351
,679,2023-10-27 11:08:17.50,186,-142,-2049,24,-25,-57,-333,-49,-284,191
,680,2023-10-27 11:08:17.51,198,-142,-2037,23,-30,-47,-503,-217,-286,360
,681,2023-10-27 11:08:17.52,190,-152,-2048,24,-29,-37,-346,-65,-281,205
,682,2023-10-27 11:08:17.53,201,-148,-2049,21,-26,-27,-527,-245,-282,386
,683,2023-10-27 11:08:17.54,203,-136,-2029,17,-21,-21,-381,-105,-276,243
,684,2023-10-27 11:08:17.55,208,-131,-2030,15,-4,-16,-550,-264,-286,407
,685,2023-10-27 11:08:17.56,212,-131,-2034,6,16,-14,-383,-113,-270,248
,686,2023-10-27 11:08:17.57,202,-126,-2048,-9,37,-10,-538,-258,-280,398
,687,2023-10-27 11:08:17.58,200,-127,-2053,-18,43,-3,-353,-91,-262,222
,688,2023-10-27 11:08:17.59,224,-122,-2045,-19,49,0,-507,-214,-293,360
,689,2023-10-27 11:08:17.60,234,-125,-2043,-19,55,1,-314,-42,-272,178
,690,2023-10-27 11:08:17.61,219,-107,-2034,-24,60,4,-481,-183,-298,332
,691,2023-10-27 11:08:17.62,229,-106,-2039,-31,64,1,-286,-13,-273,149
,692,2023-10-27 11:08:17.63,187,-101,-1985,-34,63,1,-462,-159,-303,310
,693,2023-10-27 11:08:17.64,216,-92,-2080,0,-22,19,-269,2,-271,133
,694,2023-10-27 11:08:17.65,289,-95,-2072,3,-1,20,-450,-144,-306,297
,695,2023-10-27 11:08:17.66,235,-70,-2051,-18,49,5,-265,2,-267,131
,696,2023-10-27 11:08:17.67,236,-81,-2041,-48,74,-4,-454,-146,-308,300
,697,2023-10-27 11:08:17.68,239,-84,-2069,-64,63,-8,-262,7,-269,127
,698,2023-10-27 11:08:17.69,230,-93,-2082,-60,48,-9,-442,-132,-310,287
,699,2023-10-27 11:08:17.70,222,-95,-2091,-34,5,-6,-258,7,-265,125
,700,2023-10-27 11:08:17.71,229,-103,-2074,-16,-19,-9,-446,-139,-307,292
,701,2023-10-27 11:08:17.72,222,-91,-2057,-24,-3,-10,-252,5,-257,123
,702,2023-10-27 11:08:17.73,239,-101,-2063,-27,-7,-13,-440,-140,-300,290
,703,2023-10-27 11:08:17.74,226,-113,-2064,-23,-23,-14,-261,-9,-252,135
,704,2023-10-27 11:08:17.75,220,-120,-2072,4,-51,-11,-458,-152,-306,305
,705,2023-10-27 11:08:17.76,210,-123,-2051,38,-78,1,-275,-19,-256,147
,706,2023-10-27 11:08:17.77,204,-127,-2060,40,-76,6,-466,-154,-312,310
,707,2023-10-27 11:08:17.78,200,-125,-2052,41,-74,13,-281,-26,-255,153
,708,2023-10-27 11:08:17.79,192,-128,-2052,47,-71,19,-474,-158,-316,316
,709,2023-10-27 11:08:17.80,203,-134,-2041,53,-70,25,-294,-34,-260,164
,710,2023-10-27 11:08:17.81,210,-129,-2040,53,-60,27,-480,-161,-319,320
,711,2023-10-27 11:08:17.82,190,-129,-2038,49,-52,29,-299,-40,-259,169
,712,2023-10-27 11:08:17.83,196,-124,-2029,46,-39,30,-485,-159,-326,322
,713,2023-10-27 11:08:17.84,215,-123,-2034,45,-24,29,-300,-42,-258,171
,714,2023-10-27 11:08:17.85,216,-122,-2035,42,-11,26,-478,-157,-321,317
,715,2023-10-27 11:08:17.86,204,-129,-2035,45,-2,19,-292,-40,-252,166
,716,2023-10-27 11:08:17.87,205,-121,-2050,44,5,16,-475,-152,-323,313
,717,2023-10-27 11:08:17.88,203,-126,-2051,42,10,14,-293,-42,-251,167
,718,2023-10-27 11:08:17.89,199,-130,-2058,50,11,12,-477,-151,-326,314
,719,2023-10-27 11:08:17.90,203,-130,-2050,53,7,11,-294,-48,-246,171
,720,2023-10-27 11:08:17.91,201,-142,-2058,54,9,9,-475,-151,-324,313
,721,2023-10-27 11:08:17.92,204,-145,-2059,51,12,9,-295,-50,-245,172
,722,2023-10-27 11:08:17.93,203,-130,-2061,49,19,9,-476,-150,-326,313
,723,2023-10-27 11:08:17.94,219,-123,-2053,49,21,10,-300,-54,-246,177
,724,2023-10-27 11:08:17.95,208,-128,-2049,46,20,6,-476,-153,-323,314
,725,2023-10-27 11:08:17.96,211,-128,-2064,39,22,6,-294,-50,-244,172
,726,2023-10-27 11:08:17.97,198,-128,-2056,34,18,8,-477,-146,-331,311
,727,2023-10-27 11:08:17.98,190,-128,-2053,34,13,10,-307,-63,-244,185
,728,2023-10-27 11:08:17.99,200,-124,-2059,26,-1,15,-477,-153,-324,315
,729,2023-10-27 11:08:18.00,200,-126,-2048,23,-7,17,-307,-69,-238,188
,730,2023-10-27 11:08:18.01,195,-126,-2046,17,-8,19,-482,-151,-331,316
,731,2023-10-27 11:08:18.02,196,-120,-2043,10,-9,19,-316,-78,-238,197
,732,2023-10-27 11:08:18.03,209,-113,-2037,4,-14,18,-479,-152,-327,315
,733,2023-10-27 11:08:18.04,204,-121,-2052,0,-14,13,-306,-72,-234,189
,734,2023-10-27 11:08:18.05,200,-121,-2055,-7,-20,13,-480,-154,-326,317
,735,2023-10-27 11:08:18.06,202,-123,-2057,-11,-21,15,-311,-78,-233,194
,736,2023-10-27 11:08:18.07,201,-120,-2066,-12,-28,16,-474,-145,-329,309
,737,2023-10-27 11:08:18.08,195,-130,-2069,-13,-36,20,-308,-80,-228,194
,738,2023-10-27 11:08:18.09,199,-136,-2068,-8,-46,25,-466,-140,-326,303
,739,2023-10-27 11:08:18.10,183,-136,-2065,-5,-52,28,-301,-78,-223,189
,740,2023-10-27 11:08:18.11,206,-133,-2060,-2,-53,36,-463,-141,-322,302
,741,2023-10-27 11:08:18.12,198,-137,-2058,4,-52,37,-304,-87,-217,195
,742,2023-10-27 11:08:18.13,196,-135,-2060,6,-47,39,-461,-146,-315,303
,743,2023-10-27 11:08:18.14,196,-123,-2059,12,-48,37,-304,-96,-208,200
,744,2023-10-27 11:08:18.15,193,-126,-2058,20,-45,39,-458,-146,-312,302
,745,2023-10-27 11:08:18.16,185,-125,-2055,25,-48,38,-308,-99,-209,203
,746,2023-10-27 11:08:18.17,196,-128,-2048,33,-48,36,-461,-145,-316,303
,747,2023-10-27 11:08:18.18,184,-125,-2054,38,-48,37,-314,-103,-211,208
,748,2023-10-27 11:08:18.19,192,-134,-2043,42,-48,36,-463,-141,-322,302
,749,2023-10-27 11:08:18.20,185,-134,-2031,48,-40,32,-318,-108,-210,213
,750,2023-10-27 11:08:18.21,180,-142,-2046,48,-29,29,-457,-140,-317,298
,751,2023-10-27 11:08:18.22,183,-135,-2046,44,-19,31,-317,-109,-208,213
,752,2023-10-27 11:08:18.23,189,-138,-2044,42,-6,30,-460,-136,-324,298
,753,2023-10-27 11:08:18.24,198,-135,-2033,41,8,29,-326,-111,-215,218
,754,2023-10-27 11:08:18.25,197,-144,-2030,37,28,30,-462,-135,-327,298
,755,2023-10-27 11:08:18.26,196,-140,-2030,27,43,32,-328,-118,-210,223
,756,2023-10-27 11:08:18.27,195,-141,-2048,16,54,36,-457,-130,-327,293
,757,2023-10-27 11:08:18.28,189,-134,-2056,13,54,38,-325,-116,-209,220
,758,2023-10-27 11:08:18.29,189,-127,-2056,11,49,40,-447,-124,-323,285
,759,2023-10-27 11:08:18.30,186,-119,-2060,9,37,44,-325,-117,-208,221
,760,2023-10-27 11:08:18.31,173,-116,-2064,4,21,45,-454,-128,-326,291
,761,2023-10-27 11:08:18.32,189,-119,-2066,4,6,45,-342,-126,-216,234
,762,2023-10-27 11:08:18.33,195,-120,-2074,4,-15,47,-459,-124,-335,291
,763,2023-10-27 11:08:18.34,185,-132,-2069,9,-36,50,-348,-123,-225,235
,764,2023-10-27 11:08:18.35,192,-129,-2064,15,-53,53,-456,-114,-342,285
,765,2023-10-27 11:08:18.36,184,-130,-2055,18,-61,53,-350,-122,-228,236
,766,2023-10-27 11:08:18.37,181,-133,-2059,17,-62,55,-453,-103,-350,278
,767,2023-10-27 11:08:18.38,179,-132,-2061,13,-57,60,-349,-126,-223,237
,768,2023-10-27 11:08:18.39,170,-141,-2056,12,-58,62,-449,-108,-341,278
,769,2023-10-27 11:08:18.40,179,-137,-2045,9,-55,64,-351,-124,-227,237
,770,2023-10-27 11:08:18.41,175,-142,-2047,8,-50,68,-450,-103,-347,276
,771,2023-10-27 11:08:18.42,180,-143,-2042,3,-40,71,-357,-132,-225,244
,772,2023-10-27 11:08:18.43,190,-136,-2032,-5,-25,70,-447,-106,-341,276
,773,2023-10-27 11:08:18.44,181,-131,-2043,-9,-15,71,-362,-132,-230,247
,774,2023-10-27 11:08:18.45,175,-137,-2046,-5,-12,71,-447,-95,-352,271
,775,2023-10-27 11:08:18.46,175,-141,-2060,1,-15,72,-367,-143,-224,255
,776,2023-10-27 11:08:18.47,175,-140,-2050,11,-22,70,-440,-98,-342,269
,777,2023-10-27 11:08:18.48,178,-132,-2050,21,-20,66,-368,-138,-230,253
,778,2023-10-27 11:08:18.49,170,-133,-2056,27,-27,60,-445,-95,-350,270
,779,2023-10-27 11:08:18.50,166,-126,-2054,29,-27,60,-372,-142,-230,257
,780,2023-10-27 11:08:18.51,169,-129,-2063,32,-29,58,-438,-90,-348,264
,781,2023-10-27 11:08:18.52,176,-135,-2063,39,-35,56,-374,-144,-230,259
,782,2023-10-27 11:08:18.53,168,-139,-2061,42,-40,53,-437,-87,-350,262
,783,2023-10-27 11:08:18.54,159,-145,-2060,43,-39,53,-375,-141,-234,258
,784,2023-10-27 11:08:18.55,159,-145,-2053,40,-35,54,-433,-83,-350,258
,785,2023-10-27 11:08:18.56,161,-144,-2059,38,-34,53,-380,-149,-231,264
,786,2023-10-27 11:08:18.57,164,-154,-2046,37,-31,52,-430,-85,-345,257
,787,2023-10-27 11:08:18.58,162,-155,-2047,37,-24,50,-381,-152,-229,266
,788,2023-10-27 11:08:18.59,168,-158,-2047,35,-13,55,-430,-84,-346,257
,789,2023-10-27 11:08:18.60,169,-160,-2039,31,-2,54,-388,-156,-232,272
,790,2023-10-27 11:08:18.61,157,-160,-2041,30,11,58,-425,-75,-350,250
,791,2023-10-27 11:08:18.62,158,-154,-2031,24,19,55,-383,-152,-231,267
,792,2023-10-27 11:08:18.63,162,-158,-2049,19,30,58,-410,-68,-342,239
,793,2023-10-27 11:08:18.64,161,-163,-2058,14,34,62,-374,-145,-229,259
,794,2023-10-27 11:08:18.65,150,-150,-2034,15,29,65,-404,-61,-343,232
,795,2023-10-27 11:08:18.66,168,-158,-2032,17,30,66,-379,-157,-222,268
,796,2023-10-27 11:08:18.67,156,-165,-2049,17,23,68,-408,-73,-335,240
,797,2023-10-27 11:08:18.68,150,-158,-2057,12,21,67,-388,-168,-220,278
,798,2023-10-27 11:08:18.69,146,-161,-2065,13,15,71,-406,-73,-333,239
,799,2023-10-27 11:08:18.70,152,-155,-2070,18,6,73,-394,-168,-226,281
,800,2023-10-27 11:08:18.71,151,-153,-2056,23,-3,71,-406,-67,-339,236
,801,2023-10-27 11:08:18.72,158,-154,-2051,16,-5,69,-396,-167,-229,281
,802,2023-10-27 11:08:18.73,150,-147,-2057,9,-3,66,-401,-66,-335,233
,803,2023-10-27 11:08:18.74,157,-151,-2058,3,-3,64,-403,-178,-225,290
,804,2023-10-27 11:08:18.75,156,-149,-2053,3,-6,64,-403,-72,-331,237
,805,2023-10-27 11:08:18.76,170,-154,-2045,0,-7,64,-408,-178,-230,293
,806,2023-10-27 11:08:18.77,164,-148,-2039,-5,-2,61,-400,-64,-336,232
,807,2023-10-27 11:08:18.78,167,-139,-2036,-10,3,54,-410,-175,-235,292
,808,2023-10-27 11:08:18.79,177,-138,-2031,-14,9,46,-395,-65,-330,230
,809,2023-10-27 11:08:18.80,178,-132,-2032,-15,20,39,-409,-185,-224,297
,810,2023-10-27 11:08:18.81,177,-135,-2052,-16,22,30,-389,-66,-323,227
,811,2023-10-27 11:08:18.82,168,-131,-2062,-21,21,22,-417,-195,-222,306
,812,2023-10-27 11:08:18.83,158,-135,-2079,-19,13,21,-392,-71,-321,231
,813,2023-10-27 11:08:18.84,158,-143,-2078,-14,-2,18,-425,-197,-228,311
,814,2023-10-27 11:08:18.85,171,-142,-2063,-12,-18,18,-396,-66,-330,231
,815,2023-10-27 11:08:18.86,168,-145,-2062,-11,-22,19,-425,-197,-228,311
,816,2023-10-27 11:08:18.87,173,-141,-2055,-14,-21,19,-385,-64,-321,224
,817,2023-10-27 11:08:18.88,170,-157,-2057,-16,-15,21,-432,-195,-237,313
,818,2023-10-27 11:08:18.89,170,-157,-2057,-15,-10,27,-391,-63,-328,227
,819,2023-10-27 11:08:18.90,167,-160,-2050,-9,-6,33,-438,-202,-236,320
,820,2023-10-27 11:08:18.91,170,-167,-2055,-5,-5,41,-384,-64,-320,224
,821,2023-10-27 11:08:18.92,165,-168,-2048,-4,-6,49,-434,-200,-234,317
,822,2023-10-27 11:08:18.93,168,-146,-2043,0,-8,52,-376,-56,-320,216
,823,2023-10-27 11:08:18.94,171,-148,-2048,0,-3,58,-432,-199,-233,315
,824,2023-10-27 11:08:18.95,166,-145,-2049,-2,-6,65,-369,-55,-314,212
,825,2023-10-27 11:08:18.96,159,-145,-2046,-3,-5,66,-435,-202,-233,318
,826,2023-10-27 11:08:18.97,154,-159,-2058,-4,-8,70,-367,-55,-312,211
,827,2023-10-27 11:08:18.98,167,-149,-2057,-2,-17,76,-437,-207,-230,322
,828,2023-10-27 11:08:18.99,170,-135,-2039,1,-18,77,-362,-56,-306,209
,829,2023-10-27 11:08:19.00,181,-128,-2043,2,-16,74,-440,-208,-232,324
,830,2023-10-27 11:08:19.01,175,-126,-2046,-5,-16,69,-362,-53,-309,207
,831,2023-10-27 11:08:19.02,161,-129,-2062,-9,-12,63,-442,-206,-236,324
,832,2023-10-27 11:08:19.03,161,-135,-2061,-9,-17,63,-357,-51,-306,204
,833,2023-10-27 11:08:19.04,161,-139,-2060,-6,-24,63,-447,-207,-240,327
,834,2023-10-27 11:08:19.05,155,-136,-2054,-3,-30,61,-359,-50,-309,204
,835,2023-10-27 11:08:19.06,156,-132,-2049,-6,-28,62,-454,-206,-248,330
,836,2023-10-27 11:08:19.07,166,-129,-2048,-11,-21,60,-357,-46,-311,201
,837,2023-10-27 11:08:19.08,158,-128,-2064,-16,-19,57,-450,-208,-242,329
,838,2023-10-27 11:08:19.09,158,-136,-2067,-17,-20,62,-350,-46,-304,198
,839,2023-10-27 11:08:19.10,155,-139,-2060,-16,-25,66,-451,-209,-242,330
,840,2023-10-27 11:08:19.11,165,-153,-2052,-11,-28,71,-345,-47,-298,196
,841,2023-10-27 11:08:19.12,159,-140,-2055,-13,-27,73,-457,-210,-247,333
,842,2023-10-27 11:08:19.13,150,-129,-2048,-14,-28,73,-349,-44,-305,196
,843,2023-10-27 11:08:19.14,169,-141,-2004,-10,-25,71,-464,-210,-254,337
,844,2023-10-27 11:08:19.15,157,-119,-2042,0,-9,69,-344,-44,-300,194
,845,2023-10-27 11:08:19.16,136,-116,-2075,-3,-16,67,-458,-213,-245,335
,846,2023-10-27 11:08:19.17,151,-138,-2065,-14,-29,67,-338,-45,-293,191
,847,2023-10-27 11:08:19.18,157,-129,-2065,-6,-30,66,-465,-208,-257,336
,848,2023-10-27 11:08:19.19,146,-132,-2049,2,-39,64,-348,-42,-306,195
,849,2023-10-27 11:08:19.20,153,-125,-2042,12,-38,64,-471,-210,-261,340
,850,2023-10-27 11:08:19.21,137,-123,-2058,13,-43,60,-342,-42,-300,192
,851,2023-10-27 11:08:19.22,150,-129,-2048,18,-44,57,-469,-207,-262,338
,852,2023-10-27 11:08:19.23,144,-130,-2068,19,-40,54,-338,-37,-301,187
,853,2023-10-27 11:08:19.24,140,-142,-2063,17,-44,54,-476,-208,-268,342
,854,2023-10-27 11:08:19.25,143,-135,-2057,18,-44,53,-341,-48,-293,194
,855,2023-10-27 11:08:19.26,139,-135,-2043,25,-45,53,-479,-220,-259,349
,856,2023-10-27 11:08:19.27,140,-139,-2038,30,-36,51,-336,-48,-288,192
,857,2023-10-27 11:08:19.28,137,-148,-2050,33,-27,48,-479,-215,-264,347
,858,2023-10-27 11:08:19.29,135,-144,-2075,30,-23,47,-338,-46,-292,192
,859,2023-10-27 11:08:19.30,140,-149,-2070,26,-19,50,-483,-219,-264,351
,860,2023-10-27 11:08:19.31,136,-147,-2062,32,-18,53,-339,-48,-291,193
,861,2023-10-27 11:08:19.32,123,-139,-2081,32,-13,54,-489,-215,-274,352
,862,2023-10-27 11:08:19.33,128,-149,-2070,27,-17,54,-339,-48,-291,193
,863,2023-10-27 11:08:19.34,144,-144,-2052,19,-12,55,-488,-216,-272,352
,864,2023-10-27 11:08:19.35,137,-138,-2070,15,0,54,-328,-41,-287,184
,865,2023-10-27 11:08:19.36,111,-148,-2073,6,-3,55,-484,-214,-270,349
,866,2023-10-27 11:08:19.37,133,-145,-2056,3,-10,59,-333,-53,-280,193
,867,2023-10-27 11:08:19.38,151,-146,-2077,-1,7,59,-495,-227,-268,361
,868,2023-10-27 11:08:19.39,87,-147,-2059,4,-11,56,-334,-60,-274,197
,869,2023-10-27 11:08:19.40,144,-142,-2047,7,-31,65,-493,-227,-266,360
,870,2023-10-27 11:08:19.41,146,-140,-2051,11,-18,66,-329,-62,-267,195
,871,2023-10-27 11:08:19.42,123,-152,-2053,7,-1,62,-495,-232,-263,363
,872,2023-10-27 11:08:19.43,130,-143,-2034,1,7,61,-333,-66,-267,199
,873,2023-10-27 11:08:19.44,121,-150,-2038,-2,24,58,-506,-229,-277,367
,874,2023-10-27 11:08:19.45,106,-155,-2051,12,-9,63,-345,-67,-278,206
,875,2023-10-27 11:08:19.46,128,-149,-2049,26,-38,72,-511,-231,-280,371
,876,2023-10-27 11:08:19.47,131,-141,-2051,31,-36,72,-341,-68,-273,204
,877,2023-10-27 11:08:19.48,144,-120,-2044,27,-22,65,-509,-225,-284,367
,878,2023-10-27 11:08:19.49,112,-116,-2020,18,-1,57,-337,-59,-278,198
,879,2023-10-27 11:08:19.50,114,-133,-2030,13,-3,47,-507,-216,-291,361
,880,2023-10-27 11:08:19.51,125,-139,-2047,18,-26,44,-333,-54,-279,193
,881,2023-10-27 11:08:19.52,116,-132,-2036,25,-33,40,-508,-215,-293,361
,882,2023-10-27 11:08:19.53,132,-131,-2035,21,-21,35,-336,-62,-274,199
,883,2023-10-27 11:08:19.54,128,-135,-2025,9,3,25,-510,-218,-292,364
,884,2023-10-27 11:08:19.55,105,-136,-2010,-4,9,18,-336,-64,-272,200
,885,2023-10-27 11:08:19.56,134,-131,-2035,-5,6,15,-516,-222,-294,369
,886,2023-10-27 11:08:19.57,129,-135,-2040,-2,6,14,-342,-74,-268,208
,887,2023-10-27 11:08:19.58,125,-131,-2043,-5,12,8,-522,-231,-291,376
,888,2023-10-27 11:08:19.59,129,-139,-2048,-12,21,4,-348,-83,-265,215
,889,2023-10-27 11:08:19.60,136,-139,-2051,-25,29,4,-525,-223,-302,374
,890,2023-10-27 11:08:19.61,133,-143,-2067,-27,36,3,-343,-77,-266,210
,891,2023-10-27 11:08:19.62,136,-140,-2071,-24,33,4,-523,-223,-300,373
,892,2023-10-27 11:08:19.63,134,-141,-2065,-21,27,5,-341,-82,-259,211
,893,2023-10-27 11:08:19.64,134,-140,-2058,-18,29,5,-525,-228,-297,376
,894,2023-10-27 11:08:19.65,141,-143,-2067,-16,35,6,-346,-89,-257,217
,895,2023-10-27 11:08:19.66,131,-151,-2061,-14,37,5,-529,-237,-292,383
,896,2023-10-27 11:08:19.67,148,-157,-2065,-5,36,8,-346,-99,-247,222
,897,2023-10-27 11:08:19.68,140,-146,-2061,5,37,10,-527,-234,-293,380
,898,2023-10-27 11:08:19.69,138,-153,-2052,13,31,11,-344,-92,-252,218
,899,2023-10-27 11:08:19.70,136,-153,-2053,18,35,13,-527,-228,-299,377
,900,2023-10-27 11:08:19.71,140,-149,-2064,18,37,16,-347,-96,-251,221
,901,2023-10-27 11:08:19.72,139,-145,-2053,19,33,18,-529,-224,-305,376
,902,2023-10-27 11:08:19.73,142,-137,-2053,21,28,20,-348,-90,-258,219
,903,2023-10-27 11:08:19.74,135,-140,-2037,19,21,22,-531,-215,-316,373
,904,2023-10-27 11:08:19.75,129,-153,-2054,16,21,24,-349,-90,-259,219
,905,2023-10-27 11:08:19.76,126,-153,-2060,13,14,31,-528,-210,-318,369
,906,2023-10-27 11:08:19.77,150,-140,-2043,11,7,31,-345,-87,-258,216
,907,2023-10-27 11:08:19.78,146,-137,-2048,15,8,34,-522,-207,-315,364
,908,2023-10-27 11:08:19.79,141,-140,-2048,14,4,31,-338,-89,-249,213
,909,2023-10-27 11:08:19.80,150,-137,-2042,10,2,32,-518,-206,-312,362
,910,2023-10-27 11:08:19.81,139,-144,-2057,10,0,31,-340,-95,-245,217
,911,2023-10-27 11:08:19.82,134,-142,-2055,11,-4,31,-521,-208,-313,364
,912,2023-10-27 11:08:19.83,148,-144,-2064,13,-8,31,-342,-99,-243,220
,913,2023-10-27 11:08:19.84,145,-135,-2059,8,-14,33,-518,-208,-310,363
,914,2023-10-27 11:08:19.85,134,-140,-2053,10,-16,33,-338,-97,-241,217
,915,2023-10-27 11:08:19.86,141,-138,-2045,9,-16,30,-519,-202,-317,360
,916,2023-10-27 11:08:19.87,147,-139,-2040,4,-9,30,-340,-99,-241,219
,917,2023-10-27 11:08:19.88,141,-142,-2057,3,3,28,-517,-202,-315,359
,918,2023-10-27 11:08:19.89,151,-138,-2053,0,7,25,-344,-106,-238,225
,919,2023-10-27 11:08:19.90,144,-141,-2054,-1,10,24,-517,-198,-319,357
,920,2023-10-27 11:08:19.91,142,-136,-2057,0,13,24,-345,-104,-241,224
,921,2023-10-27 11:08:19.92,139,-132,-2058,-3,11,24,-520,-192,-328,356
,922,2023-10-27 11:08:19.93,139,-131,-2048,-6,5,22,-349,-106,-243,227
,923,2023-10-27 11:08:19.94,128,-132,-2063,-7,2,25,-520,-195,-325,357
,924,2023-10-27 11:08:19.95,131,-133,-2056,-9,-4,24,-346,-108,-238,227
,925,2023-10-27 11:08:19.96,134,-134,-2056,-11,-9,23,-517,-190,-327,353
,926,2023-10-27 11:08:19.97,149,-129,-2053,-8,-11,21,-348,-112,-236,230
,927,2023-10-27 11:08:19.98,141,-132,-2052,-10,-13,20,-512,-187,-325,349
,928,2023-10-27 11:08:19.99,145,-135,-2056,-4,-13,21,-350,-114,-236,232
,929,2023-10-27 11:08:20.00,139,-135,-2052,-4,-16,20,-515,-187,-328,351
,930,2023-10-27 11:08:20.01,130,-135,-2064,2,-21,21,-354,-112,-242,233
,931,2023-10-27 11:08:20.02,138,-138,-2062,7,-29,24,-514,-185,-329,349
,932,2023-10-27 11:08:20.03,127,-127,-2066,12,-37,28,-354,-120,-234,237
,933,2023-10-27 11:08:20.04,123,-146,-2056,17,-43,31,-509,-178,-331,343
,934,2023-10-27 11:08:20.05,132,-137,-2053,17,-43,36,-352,-124,-228,238
,935,2023-10-27 11:08:20.06,118,-142,-2052,17,-39,38,-510,-183,-327,346
,936,2023-10-27 11:08:20.07,131,-146,-2058,19,-38,42,-358,-131,-227,244
,937,2023-10-27 11:08:20.08,130,-143,-2057,18,-38,44,-512,-178,-334,345
,938,2023-10-27 11:08:20.09,148,-148,-2070,16,-28,44,-359,-125,-234,242
,939,2023-10-27 11:08:20.10,84,-141,-2034,17,-32,43,-507,-176,-331,341
,940,2023-10-27 11:08:20.11,123,-139,-2035,27,-41,49,-358,-133,-225,245
,941,2023-10-27 11:08:20.12,137,-139,-2043,21,-19,46,-508,-177,-331,342
,942,2023-10-27 11:08:20.13,105,-137,-2036,17,-15,37,-368,-144,-224,256
,943,2023-10-27 11:08:20.14,123,-128,-2047,22,-13,36,-509,-179,-330,344
,944,2023-10-27 11:08:20.15,136,-136,-2058,22,-2,33,-366,-141,-225,253
,945,2023-10-27 11:08:20.16,102,-145,-2044,23,-2,28,-507,-173,-334,340
,946,2023-10-27 11:08:20.17,131,-144,-2057,24,-7,28,-373,-149,-224,261
,947,2023-10-27 11:08:20.18,124,-142,-2061,25,-5,21,-511,-185,-326,348
,948,2023-10-27 11:08:20.19,117,-135,-2048,28,-12,17,-376,-162,-214,269
,949,2023-10-27 11:08:20.20,129,-123,-2047,29,-8,15,-511,-183,-328,347
,950,2023-10-27 11:08:20.21,130,-126,-2057,23,-2,10,-379,-163,-216,271
,951,2023-10-27 11:08:20.22,127,-142,-2069,11,4,5,-503,-178,-325,340
,952,2023-10-27 11:08:20.23,133,-143,-2070,2,12,1,-379,-159,-220,269
,953,2023-10-27 11:08:20.24,110,-151,-2035,9,3,5,-505,-171,-334,338
,954,2023-10-27 11:08:20.25,113,-147,-2054,19,-8,9,-380,-161,-219,270
,955,2023-10-27 11:08:20.26,110,-154,-2066,14,-13,16,-504,-166,-338,335
,956,2023-10-27 11:08:20.27,115,-150,-2051,0,-16,23,-384,-163,-221,273
,957,2023-10-27 11:08:20.28,123,-144,-2046,-6,-7,25,-500,-164,-336,332
,958,2023-10-27 11:08:20.29,117,-142,-2053,-8,-5,28,-386,-165,-221,275
,959,2023-10-27 11:08:20.30,110,-149,-2035,-12,1,33,-502,-161,-341,331
,960,2023-10-27 11:08:20.31,126,-149,-2049,-17,2,37,-391,-168,-223,279
,961,2023-10-27 11:08:20.32,108,-152,-2054,-19,4,40,-498,-158,-340,328
,962,2023-10-27 11:08:20.33,111,-151,-2055,-17,1,47,-394,-170,-224,282
,963,2023-10-27 11:08:20.34,115,-149,-2060,-13,3,49,-499,-157,-342,328
,964,2023-10-27 11:08:20.35,112,-144,-2046,-11,2,53,-396,-176,-220,286
,965,2023-10-27 11:08:20.36,118,-136,-2050,-13,5,56,-495,-157,-338,326
,966,2023-10-27 11:08:20.37,122,-129,-2057,-11,8,51,-399,-179,-220,289
,967,2023-10-27 11:08:20.38,118,-137,-2056,-7,9,49,-491,-146,-345,318
,968,2023-10-27 11:08:20.39,114,-120,-2057,-5,7,45,-396,-174,-222,285
,969,2023-10-27 11:08:20.40,130,-128,-2053,-1,3,40,-485,-145,-340,315
,970,2023-10-27 11:08:20.41,122,-131,-2064,1,3,34,-404,-179,-225,291
,971,2023-10-27 11:08:20.42,123,-127,-2050,1,5,27,-494,-143,-351,318
,972,2023-10-27 11:08:20.43,131,-119,-2061,3,-1,22,-412,-184,-228,298
,973,2023-10-27 11:08:20.44,133,-116,-2063,3,4,13,-488,-146,-342,317
,974,2023-10-27 11:08:20.45,120,-122,-2050,-1,11,7,-405,-184,-221,294
,975,2023-10-27 11:08:20.46,126,-135,-2070,-1,9,0,-478,-136,-342,307
,976,2023-10-27 11:08:20.47,108,-142,-2080,-1,-3,1,-407,-188,-219,297
,977,2023-10-27 11:08:20.48,137,-125,-2066,8,-17,4,-472,-132,-340,302
,978,2023-10-27 11:08:20.49,111,-142,-2045,11,-10,2,-409,-185,-224,297
,979,2023-10-27 11:08:20.50,127,-130,-2050,12,-17,3,-471,-125,-346,298
,980,2023-10-27 11:08:20.51,124,-139,-2045,6,-7,4,-409,-186,-223,297
,981,2023-10-27 11:08:20.52,113,-142,-2061,5,-10,6,-466,-126,-340,296
,982,2023-10-27 11:08:20.53,135,-146,-2070,10,-14,13,-412,-194,-218,303
,983,2023-10-27 11:08:20.54,112,-138,-2055,19,-10,9,-463,-129,-334,296
,984,2023-10-27 11:08:20.55,102,-121,-2054,25,-13,6,-414,-196,-218,305
,985,2023-10-27 11:08:20.56,122,-132,-2047,22,-14,7,-458,-119,-339,288
,986,2023-10-27 11:08:20.57,122,-141,-2054,20,-20,7,-421,-196,-225,308
,987,2023-10-27 11:08:20.58,131,-137,-2057,21,-23,9,-458,-117,-341,287
,988,2023-10-27 11:08:20.59,122,-120,-2048,23,-16,8,-422,-196,-226,309
,989,2023-10-27 11:08:20.60,111,-135,-2038,15,-8,9,-459,-111,-348,285
,990,2023-10-27 11:08:20.61,130,-130,-2050,8,-15,14,-430,-197,-233,313
,991,2023-10-27 11:08:20.62,114,-138,-2054,2,-2,16,-454,-109,-345,281
,992,2023-10-27 11:08:20.63,121,-136,-2059,0,3,20,-429,-197,-232,313
,993,2023-10-27 11:08:20.64,94,-156,-2052,4,-9,25,-450,-105,-345,277
,994,2023-10-27 11:08:20.65,110,-144,-2055,8,-18,29,-433,-198,-235,315
,995,2023-10-27 11:08:20.66,108,-143,-2056,11,-15,37,-448,-101,-347,274
,996,2023-10-27 11:08:20.67,119,-133,-2053,11,-11,37,-437,-201,-236,319
,997,2023-10-27 11:08:20.68,111,-134,-2050,9,-6,38,-446,-98,-348,272
,998,2023-10-27 11:08:20.69,115,-135,-2057,8,-4,38,-441,-202,-239,321
,999,2023-10-27 11:08:20.70,121,-139,-2062,8,-2,36,-441,-93,-348,267
,1000,2023-10-27 11:08:20.71,118,-135,-2058,5,7,36,-440,-202,-238,321
,1001,2023-10-27 11:08:20.72,97,-135,-2048,7,-1,35,-437,-95,-342,266
,1002,2023-10-27 11:08:20.73,108,-149,-2045,12,-9,36,-445,-208,-237,326
,1003,2023-10-27 11:08:20.74,110,-139,-2050,14,-6,36,-435,-92,-343,263
,1004,2023-10-27 11:08:20.75,109,-137,-2049,15,1,35,-451,-206,-245,328
,1005,2023-10-27 11:08:20.76,118,-146,-2050,11,7,35,-433,-86,-347,259
,1006,2023-10-27 11:08:20.77,105,-148,-2061,7,17,36,-452,-210,-242,331
,1007,2023-10-27 11:08:20.78,117,-147,-2064,5,17,39,-430,-87,-343,258
,1008,2023-10-27 11:08:20.79,117,-147,-2067,5,13,42,-457,-210,-247,333
,1009,2023-10-27 11:08:20.80,104,-132,-2056,7,7,44,-425,-81,-344,253
,1010,2023-10-27 11:08:20.81,115,-138,-2048,6,3,45,-457,-213,-244,335
,1011,2023-10-27 11:08:20.82,110,-129,-2056,3,2,44,-421,-87,-334,254
,1012,2023-10-27 11:08:20.83,103,-134,-2065,2,-5,42,-468,-217,-251,342
,1013,2023-10-27 11:08:20.84,109,-125,-2068,9,-15,42,-424,-81,-343,252
,1014,2023-10-27 11:08:20.85,133,-132,-2070,16,-9,38,-467,-225,-242,346
,1015,2023-10-27 11:08:20.86,108,-132,-2057,18,-3,31,-417,-87,-330,252
,1016,2023-10-27 11:08:20.87,124,-137,-2046,15,7,27,-473,-233,-240,353
,1017,2023-10-27 11:08:20.88,93,-133,-2043,24,-12,25,-434,-101,-333,267
,1018,2023-10-27 11:08:20.89,130,-138,-2063,27,-20,28,-495,-252,-243,373
,1019,2023-10-27 11:08:20.90,117,-141,-2066,35,-10,23,-457,-132,-325,294
,1020,2023-10-27 11:08:20.91,117,-145,-2052,44,5,19,-521,-288,-233,404
,1021,2023-10-27 11:08:20.92,103,-135,-2042,53,12,7,-484,-170,-314,327
,1022,2023-10-27 11:08:20.93,101,-125,-2048,66,-9,5,-546,-311,-235,428
,1023,2023-10-27 11:08:20.94,117,-126,-2058,77,-35,3,-488,-175,-313,331
,1024,2023-10-27 11:08:20.95,109,-125,-2064,84,-34,0,-547,-305,-242,426
,1025,2023-10-27 11:08:20.96,142,-108,-2055,80,-10,-13,-465,-152,-313,308
,1026,2023-10-27 11:08:20.97,104,-118,-2049,67,12,-23,-522,-279,-243,400
,1027,2023-10-27 11:08:20.98,106,-131,-2054,52,11,-32,-433,-108,-325,270
,1028,2023-10-27 11:08:20.99,90,-147,-2057,49,-9,-28,-500,-236,-264,368
,1029,2023-10-27 11:08:21.00,123,-143,-2072,61,-24,-21,-397,-64,-333,230
,1030,2023-10-27 11:08:21.01,110,-164,-2054,62,-10,-20,-478,-211,-267,344
,1031,2023-10-27 11:08:21.02,113,-170,-2037,62,5,-14,-376,-45,-331,210
,1032,2023-10-27 11:08:21.03,88,-173,-2035,68,3,-7,-467,-198,-269,332
,1033,2023-10-27 11:08:21.04,105,-183,-2043,77,-6,5,-365,-33,-332,199
,1034,2023-10-27 11:08:21.05,109,-178,-2047,94,-12,17,-461,-194,-267,327
,1035,2023-10-27 11:08:21.06,122,-156,-2030,107,1,20,-358,-29,-329,193
,1036,2023-10-27 11:08:21.07,98,-161,-2038,114,12,27,-465,-189,-276,327
,1037,2023-10-27 11:08:21.08,111,-148,-2037,100,19,34,-356,-19,-337,187
,1038,2023-10-27 11:08:21.09,98,-149,-2051,85,23,45,-468,-188,-280,328
,1039,2023-10-27 11:08:21.10,110,-164,-2067,75,23,51,-357,-23,-334,190
,1040,2023-10-27 11:08:21.11,101,-160,-2065,69,16,61,-476,-193,-283,334
,1041,2023-10-27 11:08:21.12,107,-163,-2058,62,13,66,-362,-30,-332,196
,1042,2023-10-27 11:08:21.13,113,-172,-2058,54,11,71,-481,-199,-282,340
,1043,2023-10-27 11:08:21.14,117,-176,-2055,47,15,70,-362,-37,-325,199
,1044,2023-10-27 11:08:21.15,104,-172,-2054,47,19,71,-486,-205,-281,345
,1045,2023-10-27 11:08:21.16,107,-177,-2054,49,20,71,-359,-38,-321,198
,1046,2023-10-27 11:08:21.17,106,-171,-2056,49,19,69,-488,-206,-282,347
,1047,2023-10-27 11:08:21.18,110,-170,-2055,45,21,67,-366,-46,-320,206
,1048,2023-10-27 11:08:21.19,109,-168,-2053,44,19,63,-499,-219,-280,359
,1049,2023-10-27 11:08:21.20,109,-164,-2048,43,19,55,-360,-48,-312,204
,1050,2023-10-27 11:08:21.21,120,-166,-2045,42,15,51,-487,-212,-275,349
,1051,2023-10-27 11:08:21.22,112,-170,-2043,41,14,41,-351,-44,-307,197
,1052,2023-10-27 11:08:21.23,114,-179,-2056,41,14,35,-491,-212,-279,351
,1053,2023-10-27 11:08:21.24,102,-170,-2050,42,4,26,-364,-53,-311,208
,1054,2023-10-27 11:08:21.25,112,-169,-2054,41,-2,18,-497,-219,-278,358
,1055,2023-10-27 11:08:21.26,105,-186,-2056,39,-7,15,-350,-50,-300,200
,1056,2023-10-27 11:08:21.27,102,-179,-2047,49,-8,6,-496,-212,-284,354
,1057,2023-10-27 11:08:21.28,111,-191,-2041,55,-1,0,-343,-44,-299,193
,1058,2023-10-27 11:08:21.29,104,-206,-2047,57,1,-5,-493,-216,-277,354
,1059,2023-10-27 11:08:21.30,121,-193,-2047,63,-1,-8,-348,-61,-287,204
,1060,2023-10-27 11:08:21.31,116,-200,-2037,78,6,-10,-499,-223,-276,361
,1061,2023-10-27 11:08:21.32,113,-201,-2033,85,14,-14,-342,-60,-282,201
,1062,2023-10-27 11:08:21.33,113,-193,-2036,88,25,-19,-501,-223,-278,362
,1063,2023-10-27 11:08:21.34,102,-193,-2034,86,38,-25,-344,-60,-284,202
,1064,2023-10-27 11:08:21.35,110,-190,-2044,83,51,-31,-505,-228,-277,366
,1065,2023-10-27 11:08:21.36,103,-194,-2057,82,54,-36,-344,-65,-279,204
,1066,2023-10-27 11:08:21.37,97,-186,-2051,82,52,-40,-504,-228,-276,366
,1067,2023-10-27 11:08:21.38,115,-191,-2048,82,48,-43,-343,-69,-274,206
,1068,2023-10-27 11:08:21.39,116,-194,-2046,80,45,-47,-506,-232,-274,369
,1069,2023-10-27 11:08:21.40,99,-194,-2046,77,45,-52,-338,-70,-268,204
,1070,2023-10-27 11:08:21.41,112,-191,-2048,75,45,-58,-502,-229,-273,365
,1071,2023-10-27 11:08:21.42,107,-198,-2052,69,46,-62,-338,-69,-269,203
,1072,2023-10-27 11:08:21.43,122,-202,-2048,64,47,-63,-512,-227,-285,369
,1073,2023-10-27 11:08:21.44,111,-206,-2050,63,48,-67,-342,-67,-275,204
,1074,2023-10-27 11:08:21.45,124,-205,-2052,61,51,-68,-511,-224,-287,367
,1075,2023-10-27 11:08:21.46,104,-189,-2079,53,50,-67,-339,-70,-269,204
,1076,2023-10-27 11:08:21.47,97,-196,-2077,33,30,-61,-515,-228,-287,371
,1077,2023-10-27 11:08:21.48,126,-228,-2025,30,23,-57,-341,-73,-268,207
,1078,2023-10-27 11:08:21.49,122,-211,-2039,39,36,-52,-511,-228,-283,369
,1079,2023-10-27 11:08:21.50,106,-206,-2049,33,31,-46,-334,-78,-256,206
,1080,2023-10-27 11:08:21.51,116,-224,-2039,19,27,-43,-514,-227,-287,370
,1081,2023-10-27 11:08:21.52,131,-234,-2034,15,39,-35,-342,-80,-262,211
,1082,2023-10-27 11:08:21.53,125,-235,-2043,16,47,-28,-512,-232,-280,372
,1083,2023-10-27 11:08:21.54,126,-234,-2050,15,50,-20,-328,-85,-243,206
,1084,2023-10-27 11:08:21.55,136,-225,-2065,3,54,-7,-509,-231,-278,370
,1085,2023-10-27 11:08:21.56,107,-235,-2093,-16,49,5,-331,-89,-242,210
,1086,2023-10-27 11:08:21.57,149,-237,-2036,-22,44,13,-510,-226,-284,368
,1087,2023-10-27 11:08:21.58,157,-237,-2013,-11,59,18,-330,-89,-241,209
,1088,2023-10-27 11:08:21.59,124,-227,-2054,-8,74,21,-514,-226,-288,370
,1089,2023-10-27 11:08:21.60,138,-230,-2077,-29,67,31,-336,-87,-249,211
,1090,2023-10-27 11:08:21.61,151,-221,-2046,-52,61,44,-514,-221,-293,367
,1091,2023-10-27 11:08:21.62,154,-213,-2008,-53,69,49,-322,-86,-236,204
,1092,2023-10-27 11:08:21.63,148,-207,-2015,-40,77,45,-505,-213,-292,359
,1093,2023-10-27 11:08:21.64,146,-223,-2062,-48,77,45,-324,-81,-243,202
,1094,2023-10-27 11:08:21.65,144,-226,-2072,-57,65,48,-513,-216,-297,364
,1095,2023-10-27 11:08:21.66,153,-192,-2073,-53,59,45,-323,-82,-241,202
,1096,2023-10-27 11:08:21.67,177,-216,-2015,-45,47,44,-502,-200,-302,351
,1097,2023-10-27 11:08:21.68,157,-208,-2027,-32,53,40,-320,-77,-243,198
,1098,2023-10-27 11:08:21.69,164,-193,-2035,-26,63,36,-506,-204,-302,355
,1099,2023-10-27 11:08:21.70,172,-179,-2065,-41,73,27,-330,-88,-242,209
,1100,2023-10-27 11:08:21.71,172,-183,-2038,-54,72,19,-515,-200,-315,357
,1101,2023-10-27 11:08:21.72,173,-190,-2039,-47,77,14,-342,-82,-260,212
,1102,2023-10-27 11:08:21.73,163,-184,-2045,-22,79,9,-519,-189,-330,354
,1103,2023-10-27 11:08:21.74,150,-178,-2064,-17,70,5,-337,-76,-261,206
,1104,2023-10-27 11:08:21.75,155,-199,-2053,-23,63,6,-517,-182,-335,349
,1105,2023-10-27 11:08:21.76,170,-204,-2062,-25,64,11,-346,-83,-263,214
,1106,2023-10-27 11:08:21.77,162,-188,-2076,-7,62,7,-533,-190,-343,361
,1107,2023-10-27 11:08:21.78,182,-174,-2043,13,59,-3,-359,-97,-262,228
,1108,2023-10-27 11:08:21.79,197,-162,-2047,33,73,-16,-567,-259,-308,413
,1109,2023-10-27 11:08:21.80,181,-157,-2073,31,77,-30,-428,-198,-230,313
,1110,2023-10-27 11:08:21.81,197,-157,-2044,25,68,-46,-656,-381,-275,518
,1111,2023-10-27 11:08:21.82,202,-156,-2011,51,60,-61,-534,-320,-214,427
,1112,2023-10-27 11:08:21.83,181,-161,-2053,83,59,-74,-729,-475,-254,602
,1113,2023-10-27 11:08:21.84,168,-159,-2060,99,44,-87,-579,-387,-192,483
,1114,2023-10-27 11:08:21.85,182,-168,-2051,108,28,-92,-760,-539,-221,649
,1115,2023-10-27 11:08:21.86,177,-181,-2044,115,17,-98,-602,-441,-161,521
,1116,2023-10-27 11:08:21.87,166,-183,-2040,123,4,-104,-763,-572,-191,667
,1117,2023-10-27 11:08:21.88,169,-184,-2046,129,-15,-105,-577,-447,-130,512
,1118,2023-10-27 11:08:21.89,166,-180,-2044,139,-27,-110,-718,-527,-191,622
,1119,2023-10-27 11:08:21.90,173,-193,-2042,142,-40,-108,-528,-374,-154,451
,1120,2023-10-27 11:08:21.91,160,-205,-2047,142,-44,-106,-657,-438,-219,547
,1121,2023-10-27 11:08:21.92,165,-222,-2046,141,-48,-103,-449,-288,-161,368
,1122,2023-10-27 11:08:21.93,171,-223,-2055,134,-42,-99,-584,-345,-239,464
,1123,2023-10-27 11:08:21.94,167,-234,-2048,127,-30,-103,-386,-208,-178,297
,1124,2023-10-27 11:08:21.95,141,-222,-2059,113,-23,-95,-527,-269,-258,398
,1125,2023-10-27 11:08:21.96,181,-209,-2076,94,-24,-81,-341,-146,-195,243
,1126,2023-10-27 11:08:21.97,181,-232,-2061,81,-27,-75,-486,-198,-288,342
,1127,2023-10-27 11:08:21.98,152,-231,-2060,63,-20,-69,-301,-90,-211,195
,1128,2023-10-27 11:08:21.99,161,-225,-2053,39,-13,-61,-444,-138,-306,291
,1129,2023-10-27 11:08:22.00,155,-223,-2043,16,1,-53,-269,-45,-224,157
,1130,2023-10-27 11:08:22.01,154,-232,-2043,1,-3,-40,-420,-90,-330,255
,1131,2023-10-27 11:08:22.02,170,-250,-2053,-9,-12,-30,-258,-20,-238,139
,1132,2023-10-27 11:08:22.03,146,-249,-2040,-7,-22,-17,-406,-74,-332,240
,1133,2023-10-27 11:08:22.04,173,-256,-2041,-9,-18,-5,-256,-26,-230,141
,1134,2023-10-27 11:08:22.05,169,-258,-2042,-17,-12,5,-431,-86,-345,258
,1135,2023-10-27 11:08:22.06,168,-239,-2026,-24,-3,13,-306,-64,-242,185
,1136,2023-10-27 11:08:22.07,181,-240,-2032,-26,5,19,-440,-115,-325,277
,1137,2023-10-27 11:08:22.08,178,-229,-2046,-33,10,25,-284,-74,-210,179
,1138,2023-10-27 11:08:22.09,159,-227,-2053,-45,11,27,-420,-107,-313,263
,1139,2023-10-27 11:08:22.10,156,-239,-2068,-57,3,32,-287,-85,-202,186
,1140,2023-10-27 11:08:22.11,164,-227,-2060,-64,-13,39,-442,-142,-300,292
,1141,2023-10-27 11:08:22.12,167,-224,-2051,-64,-22,42,-314,-117,-197,215
,1142,2023-10-27 11:08:22.13,167,-240,-2042,-53,-23,41,-430,-137,-293,283
,1143,2023-10-27 11:08:22.14,187,-253,-2043,-42,-22,43,-285,-110,-175,197
,1144,2023-10-27 11:08:22.15,165,-261,-2035,-27,-21,42,-403,-145,-258,274
,1145,2023-10-27 11:08:22.16,162,-244,-2031,-8,-12,40,-273,-120,-153,196
,1146,2023-10-27 11:08:22.17,160,-233,-2051,0,-8,37,-391,-126,-265,258
,1147,2023-10-27 11:08:22.18,153,-234,-2059,-1,-20,41,-268,-109,-159,188
,1148,2023-10-27 11:08:22.19,164,-236,-2055,0,-27,46,-377,-129,-248,253
,1149,2023-10-27 11:08:22.20,161,-227,-2049,15,-28,41,-252,-115,-137,183
,1150,2023-10-27 11:08:22.21,169,-238,-2040,30,-28,37,-367,-115,-252,241
,1151,2023-10-27 11:08:22.22,163,-233,-2035,37,-22,31,-261,-109,-152,185
,1152,2023-10-27 11:08:22.23,164,-226,-2039,40,-17,25,-375,-117,-258,246
,1153,2023-10-27 11:08:22.24,165,-230,-2044,46,-16,20,-270,-127,-143,198
,1154,2023-10-27 11:08:22.25,166,-229,-2040,64,-17,16,-385,-128,-257,256
,1155,2023-10-27 11:08:22.26,154,-227,-2021,86,-12,10,-293,-138,-155,215
,1156,2023-10-27 11:08:22.27,157,-224,-2026,97,-7,3,-402,-131,-271,266
,1157,2023-10-27 11:08:22.28,130,-185,-2033,86,6,-3,-302,-149,-153,225
,1158,2023-10-27 11:08:22.29,144,-224,-2068,44,2,-2,-407,-164,-243,285
,1159,2023-10-27 11:08:22.30,163,-245,-2054,28,-8,0,-322,-189,-133,255
,1160,2023-10-27 11:08:22.31,163,-227,-2054,59,5,-5,-427,-179,-248,303
,1161,2023-10-27 11:08:22.32,151,-248,-2031,83,13,-11,-343,-190,-153,266
,1162,2023-10-27 11:08:22.33,161,-237,-2025,70,17,-10,-433,-173,-260,303
,1163,2023-10-27 11:08:22.34,161,-219,-2052,45,29,-12,-349,-203,-146,276
,1164,2023-10-27 11:08:22.35,150,-217,-2066,35,33,-13,-436,-185,-251,310
,1165,2023-10-27 11:08:22.36,158,-208,-2063,38,28,-12,-359,-211,-148,285
,1166,2023-10-27 11:08:22.37,163,-215,-2057,44,19,-11,-449,-185,-264,317
,1167,2023-10-27 11:08:22.38,153,-210,-2036,37,13,-14,-373,-223,-150,298
,1168,2023-10-27 11:08:22.39,156,-223,-2036,22,13,-17,-464,-207,-257,335
,1169,2023-10-27 11:08:22.40,144,-229,-2043,14,15,-18,-400,-249,-151,324
,1170,2023-10-27 11:08:22.41,148,-233,-2054,19,8,-17,-490,-215,-275,352
,1171,2023-10-27 11:08:22.42,161,-243,-2040,31,1,-17,-428,-250,-178,339
,1172,2023-10-27 11:08:22.43,158,-251,-2034,38,0,-15,-507,-211,-296,359
,1173,2023-10-27 11:08:22.44,158,-259,-2022,41,1,-12,-440,-254,-186,347
,1174,2023-10-27 11:08:22.45,170,-256,-2011,49,15,-12,-525,-223,-302,374
,1175,2023-10-27 11:08:22.46,160,-271,-2015,60,33,-12,-472,-274,-198,373
,1176,2023-10-27 11:08:22.47,156,-263,-2014,68,53,-12,-547,-234,-313,390
,1177,2023-10-27 11:08:22.48,161,-256,-2030,68,75,-13,-482,-273,-209,377
,1178,2023-10-27 11:08:22.49,163,-248,-2047,62,89,-11,-550,-224,-326,387
,1179,2023-10-27 11:08:22.50,162,-252,-2062,47,93,-6,-505,-279,-226,392
,1180,2023-10-27 11:08:22.51,158,-237,-2056,40,88,-2,-580,-224,-356,402
,1181,2023-10-27 11:08:22.52,174,-241,-2058,32,79,3,-537,-289,-248,413
,1182,2023-10-27 11:08:22.53,152,-213,-2110,25,79,6,-595,-240,-355,417
,1183,2023-10-27 11:08:22.54,143,-248,-2095,-1,51,10,-547,-304,-243,425
,1184,2023-10-27 11:08:22.55,203,-287,-2005,4,39,14,-597,-237,-360,417
,1185,2023-10-27 11:08:22.56,197,-246,-1994,33,51,8,-554,-307,-247,430
,1186,2023-10-27 11:08:22.57,162,-236,-2059,43,54,-1,-579,-239,-340,409
,1187,2023-10-27 11:08:22.58,164,-246,-2068,28,42,-1,-536,-315,-221,425
,1188,2023-10-27 11:08:22.59,184,-247,-2065,18,21,1,-562,-247,-315,404
,1189,2023-10-27 11:08:22.60,187,-240,-2049,25,8,1,-528,-328,-200,428
,1190,2023-10-27 11:08:22.61,183,-239,-2035,43,13,-7,-547,-249,-298,398
,1191,2023-10-27 11:08:22.62,180,-234,-2050,37,17,-14,-520,-328,-192,424
,1192,2023-10-27 11:08:22.63,174,-219,-2050,17,12,-21,-523,-246,-277,384
,1193,2023-10-27 11:08:22.64,177,-234,-2043,3,6,-22,-508,-327,-181,417
,1194,2023-10-27 11:08:22.65,168,-247,-2056,9,-4,-24,-510,-238,-272,374
,1195,2023-10-27 11:08:22.66,182,-254,-2043,14,-17,-22,-501,-329,-172,415
,1196,2023-10-27 11:08:22.67,179,-253,-2026,11,-21,-18,-501,-233,-268,367
,1197,2023-10-27 11:08:22.68,196,-291,-2011,6,-13,-11,-505,-327,-178,416
,1198,2023-10-27 11:08:22.69,159,-229,-2012,16,10,-17,-495,-232,-263,363
,1199,2023-10-27 11:08:22.70,187,-242,-2027,3,27,-15,-506,-334,-172,420
,1200,2023-10-27 11:08:22.71,189,-245,-2050,-24,24,-13,-490,-231,-259,360
,1201,2023-10-27 11:08:22.72,177,-240,-2053,-39,16,-3,-507,-336,-171,421
,1202,2023-10-27 11:08:22.73,181,-264,-2055,-25,11,-1,-488,-219,-269,353
,1203,2023-10-27 11:08:22.74,187,-245,-2032,-15,12,3,-506,-323,-183,414
,1204,2023-10-27 11:08:22.75,187,-250,-2044,-21,16,3,-471,-202,-269,336
,1205,2023-10-27 11:08:22.76,185,-239,-2048,-37,11,8,-503,-313,-190,408
,1206,2023-10-27 11:08:22.77,178,-248,-2064,-39,6,13,-465,-189,-276,327
,1207,2023-10-27 11:08:22.78,171,-255,-2065,-27,1,18,-501,-307,-194,404
,1208,2023-10-27 11:08:22.79,178,-255,-2041,-11,-6,24,-455,-178,-277,316
,1209,2023-10-27 11:08:22.80,174,-260,-2031,-4,-10,28,-502,-300,-202,401
,1210,2023-10-27 11:08:22.81,187,-242,-2021,2,-6,27,-452,-170,-282,311
,1211,2023-10-27 11:08:22.82,185,-243,-2025,8,1,25,-499,-297,-202,398
,1212,2023-10-27 11:08:22.83,184,-237,-2033,18,4,22,-434,-163,-271,298
,1213,2023-10-27 11:08:22.84,199,-247,-2037,28,9,18,-496,-296,-200,396
,1214,2023-10-27 11:08:22.85,188,-239,-2035,42,13,13,-427,-152,-275,289
,1215,2023-10-27 11:08:22.86,184,-237,-2035,49,16,9,-496,-286,-210,391
,1216,2023-10-27 11:08:22.87,195,-246,-2026,53,22,2,-425,-141,-284,283
,1217,2023-10-27 11:08:22.88,178,-250,-2046,60,24,-3,-504,-292,-212,398
,1218,2023-10-27 11:08:22.89,183,-249,-2052,64,22,-4,-420,-136,-284,278
,1219,2023-10-27 11:08:22.90,176,-245,-2046,65,16,0,-496,-283,-213,389
,1220,2023-10-27 11:08:22.91,180,-250,-2050,65,11,0,-408,-127,-281,267
,1221,2023-10-27 11:08:22.92,178,-244,-2047,62,8,2,-493,-277,-216,385
,1222,2023-10-27 11:08:22.93,182,-254,-2043,60,10,1,-400,-126,-274,263
,1223,2023-10-27 11:08:22.94,190,-244,-2040,62,11,-2,-492,-276,-216,384
,1224,2023-10-27 11:08:22.95,195,-251,-2043,71,10,-6,-395,-115,-280,255
,1225,2023-10-27 11:08:22.96,187,-262,-2029,78,13,-10,-491,-258,-233,374
,1226,2023-10-27 11:08:22.97,195,-268,-2024,88,18,-11,-389,-92,-297,240
,1227,2023-10-27 11:08:22.98,198,-273,-2026,95,26,-15,-489,-249,-240,369
,1228,2023-10-27 11:08:22.99,194,-267,-2034,103,33,-21,-372,-88,-284,230
,1229,2023-10-27 11:08:23.00,201,-272,-2043,113,30,-23,-477,-249,-228,363
,1230,2023-10-27 11:08:23.01,190,-274,-2040,119,29,-22,-367,-92,-275,229
,1231,2023-10-27 11:08:23.02,183,-271,-2037,123,28,-24,-474,-251,-223,362
,1232,2023-10-27 11:08:23.03,192,-267,-2036,125,26,-26,-348,-84,-264,216
,1233,2023-10-27 11:08:23.04,209,-260,-2033,122,36,-32,-472,-238,-234,355
,1234,2023-10-27 11:08:23.05,187,-262,-2044,122,30,-35,-359,-76,-283,217
,1235,2023-10-27 11:08:23.06,180,-275,-2034,115,23,-32,-482,-244,-238,363
,1236,2023-10-27 11:08:23.07,213,-272,-2036,111,20,-27,-358,-84,-274,221
,1237,2023-10-27 11:08:23.08,201,-282,-2045,103,25,-28,-488,-246,-242,367
,1238,2023-10-27 11:08:23.09,189,-286,-2047,94,23,-26,-356,-77,-279,216
,1239,2023-10-27 11:08:23.10,207,-285,-2044,88,22,-24,-491,-229,-262,360
,1240,2023-10-27 11:08:23.11,197,-282,-2054,81,21,-17,-358,-61,-297,209
,1241,2023-10-27 11:08:23.12,231,-273,-2058,61,31,-15,-490,-230,-260,360
,1242,2023-10-27 11:08:23.13,205,-262,-2032,47,33,-15,-348,-61,-287,204
,1243,2023-10-27 11:08:23.14,183,-271,-2039,34,21,-12,-484,-236,-248,360
,1244,2023-10-27 11:08:23.15,219,-281,-2079,22,13,-3,-343,-71,-272,207
,1245,2023-10-27 11:08:23.16,184,-297,-2075,9,10,2,-492,-231,-261,361
,1246,2023-10-27 11:08:23.17,191,-286,-2084,7,10,6,-347,-59,-288,203
,1247,2023-10-27 11:08:23.18,199,-286,-2062,6,14,10,-495,-230,-265,362
,1248,2023-10-27 11:08:23.19,192,-283,-2037,9,8,17,-360,-69,-291,214
,1249,2023-10-27 11:08:23.20,197,-284,-2021,10,-3,19,-518,-257,-261,387
,1250,2023-10-27 11:08:23.21,203,-284,-2039,12,-3,17,-389,-114,-275,251
,1251,2023-10-27 11:08:23.22,198,-285,-2023,16,-1,15,-549,-289,-260,419
,1252,2023-10-27 11:08:23.23,203,-289,-2059,21,1,17,-412,-139,-273,275
,1253,2023-10-27 11:08:23.24,194,-292,-2046,23,-2,15,-575,-316,-259,445
,1254,2023-10-27 11:08:23.25,194,-286,-2058,28,-12,18,-439,-174,-265,306
,1255,2023-10-27 11:08:23.26,197,-291,-2082,27,-22,21,-578,-335,-243,456
,1256,2023-10-27 11:08:23.27,192,-291,-2074,24,-26,28,-428,-178,-250,303
,1257,2023-10-27 11:08:23.28,192,-289,-2051,23,-24,29,-571,-331,-240,451
,1258,2023-10-27 11:08:23.29,197,-285,-2048,22,-24,29,-417,-171,-246,294
,1259,2023-10-27 11:08:23.30,189,-288,-2031,19,-37,31,-559,-314,-245,436
,1260,2023-10-27 11:08:23.31,209,-282,-2039,21,-39,35,-404,-158,-246,281
,1261,2023-10-27 11:08:23.32,191,-279,-2034,22,-39,29,-549,-311,-238,430
,1262,2023-10-27 11:08:23.33,198,-274,-2026,17,-34,26,-361,-131,-230,246
,1263,2023-10-27 11:08:23.34,199,-281,-2020,8,-34,25,-512,-277,-235,394
,1264,2023-10-27 11:08:23.35,203,-280,-2014,5,-28,22,-340,-116,-224,228
,1265,2023-10-27 11:08:23.36,192,-279,-2023,4,-30,17,-499,-252,-247,375
,1266,2023-10-27 11:08:23.37,202,-291,-2032,3,-30,14,-314,-71,-243,192
,1267,2023-10-27 11:08:23.38,201,-289,-2053,-6,-26,13,-476,-228,-248,352
,1268,2023-10-27 11:08:23.39,186,-289,-2055,-12,-33,9,-289,-68,-221,178
,1269,2023-10-27 11:08:23.40,181,-297,-2091,-19,-36,11,-462,-220,-242,341
,1270,2023-10-27 11:08:23.41,196,-283,-2097,-26,-45,16,-270,-55,-215,162
,1271,2023-10-27 11:08:23.42,195,-282,-2080,-32,-48,14,-440,-206,-234,323
,1272,2023-10-27 11:08:23.43,190,-291,-2078,-39,-49,16,-255,-48,-207,151
,1273,2023-10-27 11:08:23.44,206,-282,-2047,-50,-56,16,-440,-205,-235,322
,1274,2023-10-27 11:08:23.45,204,-268,-2035,-59,-51,14,-273,-62,-211,167
,1275,2023-10-27 11:08:23.46,227,-268,-2040,-60,-48,14,-463,-218,-245,340
,1276,2023-10-27 11:08:23.47,217,-278,-2052,-59,-38,8,-264,-69,-195,166
,1277,2023-10-27 11:08:23.48,211,-290,-2050,-56,-27,2,-426,-222,-204,324
,1278,2023-10-27 11:08:23.49,205,-285,-2065,-59,-10,-3,-230,-85,-145,157
,1279,2023-10-27 11:08:23.50,187,-267,-2096,-76,-9,0,-408,-259,-149,333
,1280,2023-10-27 11:08:23.51,199,-316,-2062,-91,-2,1,-250,-164,-86,207
,1281,2023-10-27 11:08:23.52,142,-309,-2041,-82,-14,11,-505,-371,-134,438
,1282,2023-10-27 11:08:23.53,194,-283,-2054,-64,-27,22,-374,-277,-97,325
,1283,2023-10-27 11:08:23.54,169,-281,-2042,-54,-36,25,-571,-419,-152,495
,1284,2023-10-27 11:08:23.55,179,-263,-2028,-58,-32,27,-398,-288,-110,343
,1285,2023-10-27 11:08:23.56,187,-246,-2015,-59,-27,20,-578,-429,-149,503
,1286,2023-10-27 11:08:23.57,175,-257,-2007,-62,-14,18,-412,-312,-100,362
,1287,2023-10-27 11:08:23.58,184,-273,-2009,-52,-14,17,-624,-458,-166,541
,1288,2023-10-27 11:08:23.59,182,-268,-2011,-51,0,14,-487,-348,-139,417
,1289,2023-10-27 11:08:23.60,180,-234,-2001,-57,14,10,-680,-482,-198,581
,1290,2023-10-27 11:08:23.61,188,-227,-2006,-68,31,6,-519,-376,-143,447
,1291,2023-10-27 11:08:23.62,192,-246,-2019,-84,39,0,-692,-500,-192,596
,1292,2023-10-27 11:08:23.63,173,-241,-2087,-92,53,-8,-529,-384,-145,456
,1293,2023-10-27 11:08:23.64,198,-260,-2052,-109,40,-4,-700,-487,-213,593
,1294,2023-10-27 11:08:23.65,211,-225,-1976,-111,42,-8,-514,-348,-166,431
,1295,2023-10-27 11:08:23.66,213,-232,-1983,-88,52,-17,-654,-414,-240,534
,1296,2023-10-27 11:08:23.67,171,-222,-2025,-65,61,-30,-437,-259,-178,348
,1297,2023-10-27 11:08:23.68,203,-228,-2044,-63,55,-25,-593,-325,-268,459
,1298,2023-10-27 11:08:23.69,195,-222,-2038,-56,42,-28,-378,-169,-209,273
,1299,2023-10-27 11:08:23.70,206,-230,-2030,-35,19,-30,-536,-251,-285,393
,1300,2023-10-27 11:08:23.71,186,-252,-2005,12,-9,-38,-314,-90,-224,202
,1301,2023-10-27 11:08:23.72,185,-247,-2025,68,-25,-37,-475,-150,-325,312
,1302,2023-10-27 11:08:23.73,191,-239,-2044,97,-36,-41,-256,-3,-253,129
,1303,2023-10-27 11:08:23.74,170,-261,-2025,115,-57,-43,-426,-82,-344,254
,1304,2023-10-27 11:08:23.75,153,-258,-2040,142,-93,-36,-227,39,-266,94
,1305,2023-10-27 11:08:23.76,123,-242,-2038,169,-124,-30,-400,-28,-372,214
,1306,2023-10-27 11:08:23.77,126,-248,-2030,183,-151,-18,-190,99,-289,45
,1307,2023-10-27 11:08:23.78,169,-338,-1945,196,-172,-19,-364,36,-400,164
,1308,2023-10-27 11:08:23.79,159,-316,-1949,231,-149,-20,-160,149,-309,5
,1309,2023-10-27 11:08:23.80,125,-269,-2022,259,-130,-21,-323,100,-423,111
,1310,2023-10-27 11:08:23.81,179,-257,-2115,238,-96,-20,-124,196,-320,-36
,1311,2023-10-27 11:08:23.82,144,-312,-2113,184,-72,-33,-298,98,-396,100
,1312,2023-10-27 11:08:23.83,165,-352,-1992,157,-42,-41,-136,126,-262,5
,1313,2023-10-27 11:08:23.84,125,-316,-2020,176,-23,-43,-352,-29,-323,190
,1314,2023-10-27 11:08:23.85,97,-334,-2007,205,-54,-40,-209,-1,-208,105
,1315,2023-10-27 11:08:23.86,144,-350,-2006,227,-71,-34,-414,-126,-288,270
,1316,2023-10-27 11:08:23.87,127,-350,-2035,234,-71,-37,-261,-72,-189,166
,1317,2023-10-27 11:08:23.88,143,-333,-2022,222,-56,-42,-454,-181,-273,317
,1318,2023-10-27 11:08:23.89,104,-332,-2033,211,-42,-51,-293,-114,-179,203
,1319,2023-10-27 11:08:23.90,99,-321,-2049,193,-32,-56,-467,-186,-281,326
,1320,2023-10-27 11:08:23.91,107,-329,-2047,165,-35,-60,-286,-94,-192,190
,1321,2023-10-27 11:08:23.92,83,-338,-2067,149,-44,-59,-436,-139,-297,287
,1322,2023-10-27 11:08:23.93,90,-350,-2061,141,-51,-54,-249,-48,-201,148
,1323,2023-10-27 11:08:23.94,138,-352,-2063,122,-33,-59,-396,-83,-313,239
,1324,2023-10-27 11:08:23.95,105,-347,-2045,96,-10,-71,-222,-9,-213,115
,1325,2023-10-27 11:08:23.96,67,-328,-2002,75,-17,-73,-379,-39,-340,209
,1326,2023-10-27 11:08:23.97,87,-328,-2012,62,-45,-66,-215,27,-242,94
,1327,2023-10-27 11:08:23.98,137,-347,-2038,36,-29,-65,-359,-5,-354,182
,1328,2023-10-27 11:08:23.99,136,-350,-2060,2,3,-70,-193,47,-240,73
,1329,2023-10-27 11:08:24.00,117,-338,-2106,-71,62,-75,-338,24,-362,157
,1330,2023-10-27 11:08:24.01,124,-358,-2075,-109,59,-78,-183,52,-235,65
,1331,2023-10-27 11:08:24.02,157,-296,-2011,-124,71,-82,-332,16,-348,158
,1332,2023-10-27 11:08:24.03,148,-282,-1977,-115,62,-99,-190,34,-224,78
,1333,2023-10-27 11:08:24.04,131,-301,-1947,-98,32,-99,-342,-15,-327,178
,1334,2023-10-27 11:08:24.05,156,-327,-1988,-79,32,-97,-197,-5,-192,101
,1335,2023-10-27 11:08:24.06,160,-321,-2038,-69,54,-105,-330,-32,-298,181
,1336,2023-10-27 11:08:24.07,141,-319,-2064,-64,44,-104,-196,-23,-173,109
,1337,2023-10-27 11:08:24.08,161,-338,-2030,-57,13,-98,-330,-45,-285,187
,1338,2023-10-27 11:08:24.09,186,-337,-2018,-43,8,-96,-229,-61,-168,145
,1339,2023-10-27 11:08:24.10,165,-332,-2044,-33,23,-99,-374,-85,-289,229
,1340,2023-10-27 11:08:24.11,158,-336,-2070,-42,23,-92,-262,-99,-163,180
,1341,2023-10-27 11:08:24.12,148,-348,-2075,-53,6,-87,-380,-102,-278,241
,1342,2023-10-27 11:08:24.13,165,-306,-2067,-45,5,-80,-266,-94,-172,180
,1343,2023-10-27 11:08:24.14,140,-315,-2059,-31,1,-81,-384,-98,-286,241
,1344,2023-10-27 11:08:24.15,124,-340,-2024,-42,-14,-79,-274,-116,-158,195
,1345,2023-10-27 11:08:24.16,143,-325,-2039,-37,-33,-75,-388,-127,-261,257
,1346,2023-10-27 11:08:24.17,128,-323,-2053,-22,-45,-76,-281,-146,-135,213
,1347,2023-10-27 11:08:24.18,149,-304,-2054,-5,-53,-77,-409,-140,-269,274
,1348,2023-10-27 11:08:24.19,159,-283,-2052,-7,-48,-85,-318,-146,-172,232
,1349,2023-10-27 11:08:24.20,136,-270,-2059,-26,-43,-90,-432,-135,-297,283
,1350,2023-10-27 11:08:24.21,140,-243,-2065,-71,-22,-97,-338,-160,-178,249
,1351,2023-10-27 11:08:24.22,148,-251,-2032,-122,-11,-107,-450,-172,-278,311
,1352,2023-10-27 11:08:24.23,185,-259,-1985,-146,9,-120,-366,-198,-168,282
,1353,2023-10-27 11:08:24.24,141,-271,-1942,-136,8,-130,-474,-185,-289,329
,1354,2023-10-27 11:08:24.25,181,-283,-1964,-115,3,-133,-383,-213,-170,298
,1355,2023-10-27 11:08:24.26,144,-272,-2003,-94,3,-139,-472,-159,-313,315
,1356,2023-10-27 11:08:24.27,167,-274,-2010,-88,10,-143,-359,-153,-206,256
,1357,2023-10-27 11:08:24.28,171,-263,-2015,-91,21,-140,-426,-87,-339,256
,1358,2023-10-27 11:08:24.29,194,-230,-2023,-116,43,-144,-350,-133,-217,241
,1359,2023-10-27 11:08:24.30,160,-252,-2074,-144,51,-144,-455,-112,-343,283
,1360,2023-10-27 11:08:24.31,159,-229,-2066,-156,54,-146,-402,-170,-232,286
,1361,2023-10-27 11:08:24.32,172,-250,-2090,-161,63,-138,-499,-148,-351,323
,1362,2023-10-27 11:08:24.33,146,-299,-2064,-175,61,-134,-426,-188,-238,307
,1363,2023-10-27 11:08:24.34,164,-283,-2060,-175,53,-116,-502,-123,-379,312
,1364,2023-10-27 11:08:24.35,147,-298,-2034,-157,37,-98,-429,-176,-253,302
,1365,2023-10-27 11:08:24.36,160,-296,-2066,-124,27,-85,-493,-115,-378,304
,1366,2023-10-27 11:08:24.37,139,-299,-2048,-101,23,-69,-425,-169,-256,297
,1367,2023-10-27 11:08:24.38,173,-266,-2035,-91,28,-52,-489,-71,-418,280
,1368,2023-10-27 11:08:24.39,162,-251,-2026,-89,29,-43,-410,-111,-299,260
,1369,2023-10-27 11:08:24.40,175,-246,-2050,-94,35,-35,-463,-25,-438,244
,1370,2023-10-27 11:08:24.41,169,-229,-2045,-109,45,-31,-412,-102,-310,257
,1371,2023-10-27 11:08:24.42,171,-239,-1986,-113,47,-29,-451,-8,-443,229
,1372,2023-10-27 11:08:24.43,182,-220,-1980,-108,73,-27,-407,-74,-333,240
,1373,2023-10-27 11:08:24.44,164,-219,-1950,-102,70,-24,-442,27,-469,207
,1374,2023-10-27 11:08:24.45,172,-229,-1981,-94,86,-25,-394,-59,-335,226
,1375,2023-10-27 11:08:24.46,182,-237,-2029,-90,79,-15,-399,47,-446,176
,1376,2023-10-27 11:08:24.47,162,-233,-2051,-94,82,-9,-357,-64,-293,210
,1377,2023-10-27 11:08:24.48,188,-224,-2050,-97,94,1,-380,29,-409,175
,1378,2023-10-27 11:08:24.49,201,-235,-2045,-90,113,6,-348,-63,-285,205
,1379,2023-10-27 11:08:24.50,177,-266,-2005,-73,131,11,-384,33,-417,175
,1380,2023-10-27 11:08:24.51,190,-272,-2035,-47,137,18,-372,-71,-301,221
,1381,2023-10-27 11:08:24.52,192,-268,-2044,-26,131,30,-381,25,-406,178
,1382,2023-10-27 11:08:24.53,192,-255,-2073,-1,119,42,-354,-66,-288,210
,1383,2023-10-27 11:08:24.54,186,-279,-2087,17,117,54,-346,49,-395,148
,1384,2023-10-27 11:08:24.55,192,-268,-2072,41,114,63,-337,-72,-265,204
,1385,2023-10-27 11:08:24.56,194,-247,-2095,56,126,69,-331,42,-373,144
,1386,2023-10-27 11:08:24.57,199,-248,-2081,76,111,77,-336,-84,-252,210
,1387,2023-10-27 11:08:24.58,202,-258,-2100,79,133,82,-326,26,-352,150
,1388,2023-10-27 11:08:24.59,191,-285,-2022,103,128,78,-347,-95,-252,221
,1389,2023-10-27 11:08:24.60,213,-291,-2012,153,126,84,-351,29,-380,161
,1390,2023-10-27 11:08:24.61,187,-290,-2050,200,121,89,-371,-96,-275,233
,1391,2023-10-27 11:08:24.62,188,-275,-2049,222,110,99,-366,13,-379,176
,1392,2023-10-27 11:08:24.63,212,-295,-2025,230,106,114,-411,-129,-282,270
,1393,2023-10-27 11:08:24.64,222,-297,-1973,251,117,119,-412,-18,-394,215
,1394,2023-10-27 11:08:24.65,221,-280,-1954,277,149,121,-439,-154,-285,296
,1395,2023-10-27 11:08:24.66,218,-270,-1960,273,171,120,-414,-30,-384,222
,1396,2023-10-27 11:08:24.67,239,-241,-1975,239,186,121,-450,-177,-273,313
,1397,2023-10-27 11:08:24.68,219,-229,-2017,203,189,124,-454,-86,-368,270
,1398,2023-10-27 11:08:24.69,216,-247,-2036,177,188,126,-513,-235,-278,374
,1399,2023-10-27 11:08:24.70,222,-250,-2032,155,189,124,-488,-102,-386,295
,1400,2023-10-27 11:08:24.71,246,-246,-2013,121,197,124,-527,-225,-302,376
,1401,2023-10-27 11:08:24.72,254,-237,-2008,67,215,125,-480,-95,-385,287
,1402,2023-10-27 11:08:24.73,239,-199,-2085,3,235,121,-517,-237,-280,377
,1403,2023-10-27 11:08:24.74,255,-221,-2048,-79,213,121,-481,-122,-359,301
,1404,2023-10-27 11:08:24.75,241,-249,-1958,-90,139,124,-531,-254,-277,392
,1405,2023-10-27 11:08:24.76,318,-224,-2054,-68,122,126,-475,-106,-369,290
,1406,2023-10-27 11:08:24.77,280,-210,-2093,-98,121,113,-507,-225,-282,366
,1407,2023-10-27 11:08:24.78,275,-195,-2068,-143,125,102,-412,-33,-379,222
,1408,2023-10-27 11:08:24.79,290,-178,-2084,-191,128,93,-434,-148,-286,291
,1409,2023-10-27 11:08:24.80,268,-191,-2072,-223,103,85,-352,8,-360,172
,1410,2023-10-27 11:08:24.81,319,-203,-2068,-246,85,83,-433,-162,-271,297
,1411,2023-10-27 11:08:24.82,300,-211,-2059,-253,81,74,-364,-32,-332,198
,1412,2023-10-27 11:08:24.83,333,-216,-2040,-252,80,67,-439,-200,-239,319
,1413,2023-10-27 11:08:24.84,325,-213,-2043,-257,95,57,-351,-59,-292,205
,1414,2023-10-27 11:08:24.85,308,-196,-2061,-255,72,55,-434,-215,-219,324
,1415,2023-10-27 11:08:24.86,345,-209,-2059,-247,67,52,-348,-67,-281,207
,1416,2023-10-27 11:08:24.87,318,-232,-2045,-228,68,50,-441,-222,-219,331
,1417,2023-10-27 11:08:24.88,340,-290,-2028,-192,55,57,-340,-83,-257,211
,1418,2023-10-27 11:08:24.89,302,-251,-2020,-138,61,57,-438,-238,-200,338
,1419,2023-10-27 11:08:24.90,294,-240,-2043,-93,35,66,-334,-77,-257,205
,1420,2023-10-27 11:08:24.91,293,-230,-2036,-70,-8,87,-443,-240,-203,341
,1421,2023-10-27 11:08:24.92,309,-228,-2040,-36,-40,107,-326,-89,-237,207
,1422,2023-10-27 11:08:24.93,306,-224,-2034,14,-48,116,-433,-251,-182,342
,1423,2023-10-27 11:08:24.94,296,-239,-1998,61,-51,121,-325,-80,-245,202
,1424,2023-10-27 11:08:24.95,354,-262,-1955,101,-31,119,-446,-238,-208,342
,1425,2023-10-27 11:08:24.96,260,-250,-2018,147,-38,119,-340,-100,-240,220
,1426,2023-10-27 11:08:24.97,338,-225,-2152,143,8,127,-448,-254,-194,351
,1427,2023-10-27 11:08:24.98,294,-249,-2156,100,10,123,-313,-81,-232,197
,1428,2023-10-27 11:08:24.99,313,-242,-1984,80,15,125,-431,-221,-210,326
,1429,2023-10-27 11:08:25.00,302,-228,-2002,101,30,133,-306,-57,-249,181
,1430,2023-10-27 11:08:25.01,278,-259,-2008,102,14,137,-444,-218,-226,331
,1431,2023-10-27 11:08:25.02,293,-248,-2032,98,1,149,-310,-57,-253,183
,1432,2023-10-27 11:08:25.03,296,-243,-2044,112,-10,162,-437,-214,-223,325
,1433,2023-10-27 11:08:25.04,287,-259,-2043,132,-17,175,-306,-44,-262,175
,1434,2023-10-27 11:08:25.05,303,-271,-2048,125,-9,184,-436,-199,-237,317
,1435,2023-10-27 11:08:25.06,291,-271,-2023,100,8,187,-295,-25,-270,160
,1436,2023-10-27 11:08:25.07,283,-268,-2054,87,20,194,-427,-178,-249,302
,1437,2023-10-27 11:08:25.08,295,-256,-2048,84,28,199,-270,-5,-265,137
,1438,2023-10-27 11:08:25.09,311,-249,-2026,80,47,199,-408,-164,-244,286
,1439,2023-10-27 11:08:25.10,307,-236,-2040,68,56,191,-253,8,-261,122
,1440,2023-10-27 11:08:25.11,305,-230,-2050,47,63,187,-398,-144,-254,271
,1441,2023-10-27 11:08:25.12,299,-217,-2074,27,62,182,-236,33,-269,101
,1442,2023-10-27 11:08:25.13,304,-258,-2043,26,48,170,-384,-116,-268,250
,1443,2023-10-27 11:08:25.14,304,-253,-2038,33,47,159,-227,61,-288,83
,1444,2023-10-27 11:08:25.15,291,-217,-2048,34,40,142,-385,-90,-295,237
,1445,2023-10-27 11:08:25.16,293,-221,-2067,25,30,131,-212,72,-284,70
,1446,2023-10-27 11:08:25.17,288,-248,-2028,20,1,116,-366,-93,-273,229
,1447,2023-10-27 11:08:25.18,289,-247,-2035,35,-15,105,-196,73,-269,61
,1448,2023-10-27 11:08:25.19,280,-240,-2051,51,-42,97,-363,-82,-281,222
,1449,2023-10-27 11:08:25.20,287,-241,-2030,57,-63,82,-188,77,-265,55
,1450,2023-10-27 11:08:25.21,276,-247,-2030,61,-81,71,-357,-76,-281,216
,1451,2023-10-27 11:08:25.22,271,-240,-2045,65,-102,64,-195,87,-282,54
,1452,2023-10-27 11:08:25.23,266,-250,-2047,67,-113,54,-364,-73,-291,218
,1453,2023-10-27 11:08:25.24,266,-250,-2064,66,-115,43,-194,82,-276,56
,1454,2023-10-27 11:08:25.25,288,-257,-2066,44,-94,20,-367,-72,-295,219
,1455,2023-10-27 11:08:25.26,251,-243,-2059,22,-95,10,-200,81,-281,59
,1456,2023-10-27 11:08:25.27,261,-252,-2063,-5,-77,0,-381,-78,-303,229
,1457,2023-10-27 11:08:25.28,223,-271,-2042,-23,-88,-3,-218,58,-276,80
,1458,2023-10-27 11:08:25.29,246,-267,-2054,-19,-114,0,-400,-93,-307,246
,1459,2023-10-27 11:08:25.30,252,-289,-2054,-20,-120,3,-237,60,-297,88
,1460,2023-10-27 11:08:25.31,231,-274,-2037,-23,-114,1,-409,-76,-333,242
,1461,2023-10-27 11:08:25.32,253,-268,-2028,-37,-101,3,-238,52,-290,93
,1462,2023-10-27 11:08:25.33,230,-274,-2017,-47,-97,1,-401,-94,-307,247
,1463,2023-10-27 11:08:25.34,249,-266,-2020,-47,-90,1,-233,35,-268,99
,1464,2023-10-27 11:08:25.35,244,-278,-2030,-41,-97,4,-410,-98,-312,254
,1465,2023-10-27 11:08:25.36,233,-286,-2014,-40,-85,4,-240,40,-280,100
,1466,2023-10-27 11:08:25.37,234,-272,-2016,-34,-70,6,-421,-103,-318,262
,1467,2023-10-27 11:08:25.38,233,-276,-2019,-36,-70,8,-247,35,-282,106
,1468,2023-10-27 11:08:25.39,229,-275,-2033,-41,-65,12,-420,-106,-314,263
,1469,2023-10-27 11:08:25.40,237,-269,-2030,-41,-59,17,-238,26,-264,106
,1470,2023-10-27 11:08:25.41,223,-275,-2035,-40,-56,21,-407,-107,-300,257
,1471,2023-10-27 11:08:25.42,218,-274,-2024,-45,-50,21,-237,24,-261,106
,1472,2023-10-27 11:08:25.43,224,-266,-2028,-41,-58,27,-424,-107,-317,265
,1473,2023-10-27 11:08:25.44,238,-276,-2031,-32,-64,34,-255,11,-266,122
,1474,2023-10-27 11:08:25.45,219,-278,-2024,-25,-54,35,-432,-113,-319,272
,1475,2023-10-27 11:08:25.46,218,-279,-2026,-22,-55,43,-256,7,-263,124
,1476,2023-10-27 11:08:25.47,221,-262,-2044,-28,-42,43,-420,-107,-313,263
,1477,2023-10-27 11:08:25.48,219,-262,-2030,-21,-42,44,-240,21,-261,109
,1478,2023-10-27 11:08:25.49,219,-259,-2031,-14,-41,45,-422,-94,-328,258
,1479,2023-10-27 11:08:25.50,214,-256,-2020,-3,-47,42,-249,15,-264,117
,1480,2023-10-27 11:08:25.51,210,-243,-2032,1,-36,41,-434,-105,-329,269
,1481,2023-10-27 11:08:25.52,216,-237,-2059,-7,-27,38,-268,1,-269,133
,1482,2023-10-27 11:08:25.53,223,-242,-2052,-22,-15,28,-450,-120,-330,285
,1483,2023-10-27 11:08:25.54,213,-239,-2026,-26,-1,23,-292,-19,-273,155
,1484,2023-10-27 11:08:25.55,209,-241,-2031,-20,-15,19,-479,-133,-346,306
,1485,2023-10-27 11:08:25.56,219,-242,-2026,-21,-13,13,-313,-36,-277,174
,1486,2023-10-27 11:08:25.57,223,-236,-2019,-18,-5,9,-484,-142,-342,313
,1487,2023-10-27 11:08:25.58,224,-249,-2027,-13,4,3,-308,-46,-262,177
,1488,2023-10-27 11:08:25.59,219,-245,-2018,-13,13,-1,-478,-135,-343,306
,1489,2023-10-27 11:08:25.60,239,-245,-2014,-14,27,-4,-299,-21,-278,160
,1490,2023-10-27 11:08:25.61,232,-254,-2012,-9,44,-7,-449,-97,-352,273
,1491,2023-10-27 11:08:25.62,231,-259,-2027,-7,59,-11,-270,-1,-269,135
,1492,2023-10-27 11:08:25.63,230,-255,-2041,-5,63,-12,-430,-74,-356,252
,1493,2023-10-27 11:08:25.64,221,-251,-2049,-3,63,-8,-256,15,-271,120
,1494,2023-10-27 11:08:25.65,226,-241,-2053,5,61,-7,-420,-60,-360,240
,1495,2023-10-27 11:08:25.66,224,-239,-2052,5,54,-4,-258,21,-279,118
,1496,2023-10-27 11:08:25.67,227,-235,-2059,-1,53,-2,-427,-49,-378,238
,1497,2023-10-27 11:08:25.68,224,-241,-2072,-12,50,2,-263,24,-287,119
,1498,2023-10-27 11:08:25.69,240,-235,-2030,-23,46,0,-413,-42,-371,227
,1499,2023-10-27 11:08:25.70,231,-220,-2014,-21,56,-2,-247,23,-270,112
,1500,2023-10-27 11:08:25.71,233,-207,-2034,-27,59,-8,-404,-38,-366,221
,1501,2023-10-27 11:08:25.72,236,-217,-2059,-43,55,-8,-238,34,-272,102
,1502,2023-10-27 11:08:25.73,247,-224,-2036,-48,48,-9,-405,-37,-368,221
,1503,2023-10-27 11:08:25.74,254,-225,-2017,-38,44,-10,-258,16,-274,121
,1504,2023-10-27 11:08:25.75,229,-207,-2034,-26,43,-17,-429,-55,-374,242
,1505,2023-10-27 11:08:25.76,209,-220,-2042,-29,27,-16,-285,1,-286,142
,1506,2023-10-27 11:08:25.77,211,-230,-2054,-20,3,-12,-433,-51,-382,242
,1507,2023-10-27 11:08:25.78,247,-236,-2074,-8,-3,-9,-274,-2,-272,138
,1508,2023-10-27 11:08:25.79,212,-240,-2058,2,-22,-10,-424,-41,-383,232
,1509,2023-10-27 11:08:25.80,220,-235,-2051,10,-38,-8,-281,-2,-279,141
,1510,2023-10-27 11:08:25.81,230,-241,-2031,14,-47,-4,-435,-55,-380,245
,1511,2023-10-27 11:08:25.82,228,-244,-2039,23,-50,0,-286,-13,-273,149
,1512,2023-10-27 11:08:25.83,219,-248,-2036,29,-47,3,-433,-56,-377,244
,1513,2023-10-27 11:08:25.84,228,-257,-2033,34,-43,9,-292,-21,-271,156
,1514,2023-10-27 11:08:25.85,246,-262,-2028,35,-36,15,-441,-59,-382,250
,1515,2023-10-27 11:08:25.86,242,-258,-2027,34,-21,22,-300,-25,-275,162
,1516,2023-10-27 11:08:25.87,231,-256,-2023,34,-4,25,-444,-61,-383,252
,1517,2023-10-27 11:08:25.88,240,-253,-2020,25,18,28,-306,-32,-274,169
,1518,2023-10-27 11:08:25.89,234,-244,-2021,17,34,31,-445,-59,-386,252
,1519,2023-10-27 11:08:25.90,252,-238,-2012,7,63,33,-309,-31,-278,170
,1520,2023-10-27 11:08:25.91,238,-240,-2038,1,86,30,-440,-49,-391,244
,1521,2023-10-27 11:08:25.92,241,-234,-2048,-5,93,32,-301,-28,-273,164
,1522,2023-10-27 11:08:25.93,245,-235,-2043,-8,96,33,-429,-45,-384,237
,1523,2023-10-27 11:08:25.94,255,-232,-2030,-6,97,31,-300,-35,-265,167
,1524,2023-10-27 11:08:25.95,256,-231,-2035,-2,99,28,-429,-46,-383,237
,1525,2023-10-27 11:08:25.96,245,-202,-2084,-1,99,26,-308,-36,-272,172
,1526,2023-10-27 11:08:25.97,264,-230,-2059,-4,79,27,-426,-39,-387,232
,1527,2023-10-27 11:08:25.98,252,-253,-1995,18,72,25,-300,-36,-264,168
,1528,2023-10-27 11:08:25.99,245,-225,-2041,59,55,29,-417,-34,-383,225
,1529,2023-10-27 11:08:26.00,262,-239,-2070,62,52,26,-295,-37,-258,166
,1530,2023-10-27 11:08:26.01,244,-231,-2058,51,55,21,-424,-30,-394,227
,1531,2023-10-27 11:08:26.02,233,-249,-2054,59,37,27,-315,-35,-280,175
,1532,2023-10-27 11:08:26.03,255,-242,-2056,75,19,30,-423,-28,-395,225
,1533,2023-10-27 11:08:26.04,254,-236,-2043,75,23,29,-310,-42,-268,176
,1534,2023-10-27 11:08:26.05,240,-235,-2028,64,26,27,-423,-26,-397,224
,1535,2023-10-27 11:08:26.06,258,-231,-2032,56,30,27,-322,-40,-282,181
,1536,2023-10-27 11:08:26.07,254,-230,-2035,53,26,27,-426,-20,-406,223
,1537,2023-10-27 11:08:26.08,256,-226,-2028,39,30,26,-320,-49,-271,184
,1538,2023-10-27 11:08:26.09,262,-236,-2030,25,37,25,-414,-28,-386,221
,1539,2023-10-27 11:08:26.10,248,-246,-2039,19,35,27,-315,-52,-263,183
,1540,2023-10-27 11:08:26.11,259,-242,-2040,17,30,31,-421,-16,-405,218
,1541,2023-10-27 11:08:26.12,250,-240,-2043,13,24,30,-330,-50,-280,190
,1542,2023-10-27 11:08:26.13,250,-235,-2069,6,18,35,-407,-6,-401,206
,1543,2023-10-27 11:08:26.14,264,-252,-2043,1,7,36,-330,-57,-273,193
,1544,2023-10-27 11:08:26.15,255,-241,-2036,9,6,37,-411,-8,-403,209
,1545,2023-10-27 11:08:26.16,250,-244,-2042,19,-3,39,-326,-57,-269,191
,1546,2023-10-27 11:08:26.17,266,-246,-2044,16,0,39,-408,-9,-399,208
,1547,2023-10-27 11:08:26.18,260,-241,-2037,12,6,34,-333,-61,-272,197
,1548,2023-10-27 11:08:26.19,260,-239,-2043,12,10,32,-414,-4,-410,209
,1549,2023-10-27 11:08:26.20,248,-249,-2036,13,13,30,-340,-58,-282,199
,1550,2023-10-27 11:08:26.21,256,-252,-2042,13,13,27,-412,1,-413,205
,1551,2023-10-27 11:08:26.22,258,-253,-2038,18,10,25,-343,-59,-284,201
,1552,2023-10-27 11:08:26.23,224,-255,-2021,24,-6,24,-406,5,-411,200
,1553,2023-10-27 11:08:26.24,282,-252,-2037,34,-11,23,-340,-62,-278,201
,1554,2023-10-27 11:08:26.25,268,-249,-2031,26,10,14,-394,0,-394,197
,1555,2023-10-27 11:08:26.26,246,-248,-2028,24,12,12,-336,-68,-268,202
,1556,2023-10-27 11:08:26.27,262,-255,-2050,27,10,7,-393,14,-407,189
,1557,2023-10-27 11:08:26.28,256,-261,-2047,29,16,6,-346,-61,-285,203
,1558,2023-10-27 11:08:26.29,251,-264,-2040,35,14,3,-395,18,-413,188
,1559,2023-10-27 11:08:26.30,246,-262,-2040,36,11,1,-346,-63,-283,204
,1560,2023-10-27 11:08:26.31,253,-268,-2024,34,10,-2,-391,21,-412,185
,1561,2023-10-27 11:08:26.32,268,-266,-2037,34,12,-1,-350,-72,-278,211
,1562,2023-10-27 11:08:26.33,251,-268,-2028,31,7,-2,-387,17,-404,185
,1563,2023-10-27 11:08:26.34,259,-269,-2016,31,11,0,-354,-71,-283,212
,1564,2023-10-27 11:08:26.35,265,-273,-2030,29,19,-3,-389,22,-411,183
,1565,2023-10-27 11:08:26.36,269,-269,-2010,28,26,-2,-354,-69,-285,211
,1566,2023-10-27 11:08:26.37,259,-264,-2001,22,40,-3,-381,29,-410,176
,1567,2023-10-27 11:08:26.38,267,-281,-2026,18,44,-4,-363,-71,-292,217
,1568,2023-10-27 11:08:26.39,261,-268,-2025,17,37,1,-378,34,-412,172
,1569,2023-10-27 11:08:26.40,271,-275,-2038,21,31,3,-357,-75,-282,216
,1570,2023-10-27 11:08:26.41,245,-259,-2033,35,-4,9,-372,20,-392,176
,1571,2023-10-27 11:08:26.42,320,-256,-2041,31,9,9,-370,-91,-279,230
,1572,2023-10-27 11:08:26.43,243,-263,-2046,11,37,2,-368,25,-393,171
,1573,2023-10-27 11:08:26.44,263,-254,-2048,4,28,2,-353,-83,-270,218
,1574,2023-10-27 11:08:26.45,263,-269,-2054,3,15,0,-354,38,-392,158
,1575,2023-10-27 11:08:26.46,268,-257,-2053,4,-2,2,-359,-76,-283,217
,1576,2023-10-27 11:08:26.47,263,-266,-2037,2,-16,5,-356,42,-398,157
,1577,2023-10-27 11:08:26.48,260,-263,-2023,-6,-16,4,-362,-73,-289,217
,1578,2023-10-27 11:08:26.49,269,-244,-2028,-16,-11,3,-352,54,-406,149
,1579,2023-10-27 11:08:26.50,271,-252,-2027,-24,-11,-3,-364,-77,-287,220
,1580,2023-10-27 11:08:26.51,282,-246,-2027,-33,-10,-5,-348,49,-397,149
,1581,2023-10-27 11:08:26.52,263,-246,-2036,-39,-11,-7,-370,-83,-287,226
,1582,2023-10-27 11:08:26.53,267,-247,-2043,-42,-17,-10,-344,53,-397,145
,1583,2023-10-27 11:08:26.54,266,-240,-2035,-47,-20,-11,-363,-65,-298,214
,1584,2023-10-27 11:08:26.55,271,-246,-2041,-52,-24,-12,-345,64,-409,140
,1585,2023-10-27 11:08:26.56,280,-238,-2037,-63,-26,-12,-373,-72,-301,222
,1586,2023-10-27 11:08:26.57,266,-238,-2040,-70,-26,-11,-340,58,-398,141
,1587,2023-10-27 11:08:26.58,264,-247,-2047,-78,-28,-7,-375,-79,-296,227
,1588,2023-10-27 11:08:26.59,264,-247,-2053,-86,-35,-2,-333,64,-397,134
,1589,2023-10-27 11:08:26.60,264,-250,-2050,-89,-42,7,-372,-77,-295,224
,1590,2023-10-27 11:08:26.61,268,-261,-2044,-90,-49,11,-331,75,-406,128
,1591,2023-10-27 11:08:26.62,286,-248,-2007,-82,-47,16,-378,-72,-306,225
,1592,2023-10-27 11:08:26.63,277,-230,-2045,-80,-37,20,-325,66,-391,129
,1593,2023-10-27 11:08:26.64,277,-239,-2040,-94,-37,24,-375,-82,-293,228
,1594,2023-10-27 11:08:26.65,277,-237,-2036,-109,-26,32,-325,75,-400,125
,1595,2023-10-27 11:08:26.66,313,-219,-2057,-123,0,37,-386,-70,-316,228
,1596,2023-10-27 11:08:26.67,265,-249,-2020,-153,35,28,-325,82,-407,121
,1597,2023-10-27 11:08:26.68,235,-238,-2037,-146,14,41,-384,-75,-309,229
,1598,2023-10-27 11:08:26.69,280,-218,-2062,-139,-4,53,-328,70,-398,129
,1599,2023-10-27 11:08:26.70,269,-221,-2050,-130,-11,60,-404,-85,-319,244
,1600,2023-10-27 11:08:26.71,283,-204,-2033,-133,-7,62,-333,74,-407,129
,1601,2023-10-27 11:08:26.72,284,-194,-2026,-142,4,60,-402,-80,-322,241
,1602,2023-10-27 11:08:26.73,288,-183,-2034,-151,18,58,-315,82,-397,116
,1603,2023-10-27 11:08:26.74,283,-191,-2041,-151,23,53,-383,-76,-307,229
,1604,2023-10-27 11:08:26.75,292,-182,-2031,-147,21,50,-295,85,-380,105
,1605,2023-10-27 11:08:26.76,286,-178,-2040,-145,23,47,-385,-77,-308,231
,1606,2023-10-27 11:08:26.77,296,-174,-2037,-143,23,42,-313,84,-397,114
,1607,2023-10-27 11:08:26.78,285,-174,-2040,-138,26,36,-403,-82,-321,242
,1608,2023-10-27 11:08:26.79,288,-174,-2041,-132,24,33,-312,86,-398,113
,1609,2023-10-27 11:08:26.80,272,-165,-2049,-123,18,28,-401,-79,-322,240
,1610,2023-10-27 11:08:26.81,277,-161,-2051,-112,8,28,-305,87,-392,109
,1611,2023-10-27 11:08:26.82,254,-165,-2065,-98,-5,27,-400,-76,-324,238
,1612,2023-10-27 11:08:26.83,257,-167,-2063,-89,-25,28,-297,92,-389,102
,1613,2023-10-27 11:08:26.84,267,-169,-2064,-77,-47,30,-400,-76,-324,238
,1614,2023-10-27 11:08:26.85,252,-171,-2056,-61,-64,36,-292,83,-375,104
,1615,2023-10-27 11:08:26.86,234,-173,-2051,-48,-76,42,-403,-88,-315,245
,1616,2023-10-27 11:08:26.87,234,-177,-2061,-40,-85,48,-300,80,-380,110
,1617,2023-10-27 11:08:26.88,295,-172,-2099,-40,-73,57,-404,-91,-313,247
,1618,2023-10-27 11:08:26.89,214,-186,-2046,-56,-52,47,-288,79,-367,104
,1619,2023-10-27 11:08:26.90,214,-177,-2019,-37,-97,64,-411,-83,-328,247
,1620,2023-10-27 11:08:26.91,297,-169,-2016,-19,-62,67,-295,89,-384,103
,1621,2023-10-27 11:08:26.92,210,-161,-2090,-32,-42,66,-411,-76,-335,243
,1622,2023-10-27 11:08:26.93,244,-174,-2008,-54,-55,69,-295,91,-386,102
,1623,2023-10-27 11:08:26.94,226,-156,-2046,-48,-43,75,-429,-75,-354,252
,1624,2023-10-27 11:08:26.95,216,-163,-2050,-41,-54,78,-295,98,-393,98
,1625,2023-10-27 11:08:26.96,221,-160,-2062,-36,-61,84,-422,-74,-348,248
,1626,2023-10-27 11:08:26.97,218,-152,-2040,-35,-63,85,-299,95,-394,102
,1627,2023-10-27 11:08:26.98,231,-154,-2036,-36,-55,84,-424,-76,-348,250
,1628,2023-10-27 11:08:26.99,222,-161,-2036,-35,-44,79,-286,88,-374,99
,1629,2023-10-27 11:08:27.00,232,-155,-2040,-28,-45,76,-421,-68,-353,244
,1630,2023-10-27 11:08:27.01,231,-157,-2035,-21,-43,74,-289,102,-391,93
,1631,2023-10-27 11:08:27.02,222,-152,-2053,-11,-45,71,-425,-68,-357,246
,1632,2023-10-27 11:08:27.03,223,-159,-2052,-2,-47,70,-277,88,-365,94
,1633,2023-10-27 11:08:27.04,223,-161,-2060,7,-50,72,-415,-69,-346,242
,1634,2023-10-27 11:08:27.05,240,-152,-2050,9,-38,70,-276,98,-374,89
,1635,2023-10-27 11:08:27.06,219,-147,-2027,9,-22,62,-411,-62,-349,236
,1636,2023-10-27 11:08:27.07,217,-153,-2029,15,-26,58,-259,98,-357,80
,1637,2023-10-27 11:08:27.08,228,-161,-2037,20,-22,52,-397,-66,-331,231
,1638,2023-10-27 11:08:27.09,225,-151,-2027,26,-10,49,-245,95,-340,75
,1639,2023-10-27 11:08:27.10,219,-168,-2042,31,1,42,-403,-68,-335,235
,1640,2023-10-27 11:08:27.11,224,-167,-2050,34,6,35,-255,87,-342,84
,1641,2023-10-27 11:08:27.12,218,-163,-2053,40,6,32,-407,-66,-341,236
,1642,2023-10-27 11:08:27.13,219,-156,-2045,50,6,27,-254,94,-348,80
,1643,2023-10-27 11:08:27.14,224,-155,-2039,61,8,19,-402,-69,-333,235
,1644,2023-10-27 11:08:27.15,207,-155,-2044,61,16,13,-251,86,-337,82
,1645,2023-10-27 11:08:27.16,209,-164,-2059,56,20,6,-407,-67,-340,237
,1646,2023-10-27 11:08:27.17,200,-169,-2072,54,16,4,-247,82,-329,82
,1647,2023-10-27 11:08:27.18,202,-180,-2068,59,0,6,-406,-68,-338,237
,1648,2023-10-27 11:08:27.19,207,-165,-2064,59,-13,9,-248,81,-329,83
,1649,2023-10-27 11:08:27.20,213,-172,-2043,54,-7,7,-412,-67,-345,239
,1650,2023-10-27 11:08:27.21,206,-161,-2041,49,-17,13,-256,76,-332,90
,1651,2023-10-27 11:08:27.22,230,-169,-2026,41,-12,9,-422,-78,-344,250
,1652,2023-10-27 11:08:27.23,207,-161,-2023,28,0,7,-263,67,-330,98
,1653,2023-10-27 11:08:27.24,220,-171,-2032,24,1,7,-424,-72,-352,248
,1654,2023-10-27 11:08:27.25,200,-184,-2046,21,8,4,-255,70,-325,92
,1655,2023-10-27 11:08:27.26,207,-169,-2035,19,5,9,-422,-73,-349,247
,1656,2023-10-27 11:08:27.27,211,-172,-2058,18,3,12,-260,60,-320,100
,1657,2023-10-27 11:08:27.28,213,-167,-2043,18,-2,16,-425,-76,-349,250
,1658,2023-10-27 11:08:27.29,222,-168,-2040,15,-2,17,-266,58,-324,104
,1659,2023-10-27 11:08:27.30,228,-163,-2051,11,-4,18,-435,-69,-366,252
,1660,2023-10-27 11:08:27.31,236,-162,-2044,-4,21,15,-260,65,-325,97
,1661,2023-10-27 11:08:27.32,205,-166,-2050,-4,14,16,-428,-64,-364,246
,1662,2023-10-27 11:08:27.33,227,-178,-2052,-4,12,19,-267,57,-324,105
,1663,2023-10-27 11:08:27.34,206,-172,-2047,-2,12,26,-432,-71,-361,251
,1664,2023-10-27 11:08:27.35,236,-176,-2054,2,-1,26,-260,57,-317,101
,1665,2023-10-27 11:08:27.36,234,-167,-2053,6,-3,31,-420,-55,-365,237
,1666,2023-10-27 11:08:27.37,228,-167,-2042,10,7,29,-255,57,-312,99
,1667,2023-10-27 11:08:27.38,215,-176,-2050,9,3,30,-432,-59,-373,245
,1668,2023-10-27 11:08:27.39,241,-174,-2053,13,-4,30,-266,55,-321,105
,1669,2023-10-27 11:08:27.40,226,-163,-2048,15,4,30,-432,-54,-378,243
,1670,2023-10-27 11:08:27.41,220,-168,-2043,23,-5,28,-268,57,-325,105
,1671,2023-10-27 11:08:27.42,236,-168,-2027,28,3,29,-439,-55,-384,247
,1672,2023-10-27 11:08:27.43,236,-166,-2039,32,9,23,-265,59,-324,103
,1673,2023-10-27 11:08:27.44,224,-174,-2045,36,6,21,-430,-52,-378,241
,1674,2023-10-27 11:08:27.45,235,-173,-2053,41,-4,21,-257,55,-312,101
,1675,2023-10-27 11:08:27.46,246,-180,-2059,40,13,24,-418,-44,-374,231
,1676,2023-10-27 11:08:27.47,208,-172,-2046,42,8,23,-254,55,-309,99
,1677,2023-10-27 11:08:27.48,252,-177,-2044,41,2,23,-420,-43,-377,231
,1678,2023-10-27 11:08:27.49,227,-169,-2059,35,21,21,-256,50,-306,103
,1679,2023-10-27 11:08:27.50,223,-174,-2056,38,4,24,-422,-38,-384,230
,1680,2023-10-27 11:08:27.51,225,-171,-2055,35,10,27,-254,55,-309,99
,1681,2023-10-27 11:08:27.52,230,-179,-2056,35,-9,30,-420,-34,-386,227
,1682,2023-10-27 11:08:27.53,243,-184,-2047,38,-9,29,-260,49,-309,105
,1683,2023-10-27 11:08:27.54,197,-185,-2049,35,-12,29,-426,-45,-381,235
