// Data mode  : Full
// Data quality  : High
// Acceleration sensor's range  : 16g
// Gyroscope sensor's range  : 2000dps
//
//ARTIFACT,NUM,DATE,ACC_X,ACC_Y,ACC_Z,GYRO_X,GYRO_Y,GYRO_Z,EOG_L,EOG_R,EOG_H,EOG_V
,1,2023-10-27 11:19:51.02,163,-91,-2055,34,-1,9,-329,-219,-110,274
,2,2023-10-27 11:19:51.03,179,-95,-2055,40,-8,9,-482,-374,-108,428
,3,2023-10-27 11:19:51.04,166,-89,-2050,40,-12,8,-328,-210,-118,269
,4,2023-10-27 11:19:51.05,167,-100,-2058,38,-7,10,-485,-376,-109,430
,5,2023-10-27 11:19:51.06,178,-96,-2044,32,5,7,-328,-217,-111,272
,6,2023-10-27 11:19:51.07,171,-93,-2053,32,0,7,-486,-380,-106,433
,7,2023-10-27 11:19:51.08,175,-97,-2054,31,-2,7,-331,-222,-109,276
,8,2023-10-27 11:19:51.09,162,-96,-2051,30,-5,8,-494,-383,-111,438
,9,2023-10-27 11:19:51.10,173,-101,-2063,27,-6,10,-331,-226,-105,278
,10,2023-10-27 11:19:51.11,163,-103,-2062,25,-7,12,-494,-380,-114,437
,11,2023-10-27 11:19:51.12,163,-96,-2060,21,-6,15,-324,-218,-106,271
,12,2023-10-27 11:19:51.13,163,-103,-2049,14,-5,17,-490,-379,-111,434
,13,2023-10-27 11:19:51.14,164,-105,-2051,10,0,22,-320,-219,-101,269
,14,2023-10-27 11:19:51.15,158,-100,-2052,6,-1,22,-493,-379,-114,436
,15,2023-10-27 11:19:51.16,167,-97,-2054,8,-7,27,-322,-221,-101,271
,16,2023-10-27 11:19:51.17,172,-99,-2052,7,-8,28,-492,-379,-113,435
,17,2023-10-27 11:19:51.18,173,-97,-2044,7,-3,27,-315,-220,-95,267
,18,2023-10-27 11:19:51.19,176,-98,-2041,4,6,28,-490,-375,-115,432
,19,2023-10-27 11:19:51.20,157,-101,-2053,4,5,27,-315,-218,-97,266
,20,2023-10-27 11:19:51.21,164,-102,-2062,6,7,27,-496,-377,-119,436
,21,2023-10-27 11:19:51.22,170,-106,-2056,8,0,28,-318,-224,-94,271
,22,2023-10-27 11:19:51.23,161,-102,-2063,9,-6,31,-494,-384,-110,439
,23,2023-10-27 11:19:51.24,165,-97,-2066,10,-9,35,-313,-224,-89,268
,24,2023-10-27 11:19:51.25,163,-89,-2053,8,-4,36,-496,-377,-119,436
,25,2023-10-27 11:19:51.26,168,-83,-2052,8,-4,34,-312,-216,-96,264
,26,2023-10-27 11:19:51.27,169,-89,-2064,3,-6,34,-492,-372,-120,432
,27,2023-10-27 11:19:51.28,166,-94,-2063,-1,-5,31,-309,-224,-85,266
,28,2023-10-27 11:19:51.29,158,-93,-2058,-3,-11,32,-496,-375,-121,435
,29,2023-10-27 11:19:51.30,160,-91,-2059,-2,-12,33,-311,-225,-86,268
,30,2023-10-27 11:19:51.31,152,-92,-2049,-3,-17,33,-495,-373,-122,434
,31,2023-10-27 11:19:51.32,149,-90,-2047,-11,-14,34,-310,-229,-81,269
,32,2023-10-27 11:19:51.33,144,-87,-2045,-9,-24,33,-500,-376,-124,438
,33,2023-10-27 11:19:51.34,155,-89,-2045,-12,-23,35,-321,-233,-88,277
,34,2023-10-27 11:19:51.35,154,-77,-2047,-10,-23,38,-506,-380,-126,443
,35,2023-10-27 11:19:51.36,163,-83,-2048,-15,-13,34,-309,-225,-84,267
,36,2023-10-27 11:19:51.37,142,-83,-2051,-18,-12,33,-501,-367,-134,434
,37,2023-10-27 11:19:51.38,149,-87,-2062,-20,-15,34,-320,-227,-93,273
,38,2023-10-27 11:19:51.39,152,-99,-2072,-16,-15,36,-511,-376,-135,443
,39,2023-10-27 11:19:51.40,139,-94,-2050,-11,-12,42,-322,-234,-88,278
,40,2023-10-27 11:19:51.41,165,-96,-2049,-5,-11,49,-504,-371,-133,437
,41,2023-10-27 11:19:51.42,159,-96,-2049,-6,2,49,-326,-243,-83,284
,42,2023-10-27 11:19:51.43,153,-93,-2042,-5,18,47,-504,-369,-135,436
,43,2023-10-27 11:19:51.44,160,-85,-2044,-2,25,42,-319,-240,-79,279
,44,2023-10-27 11:19:51.45,155,-87,-2051,2,33,44,-500,-364,-136,432
,45,2023-10-27 11:19:51.46,167,-78,-2057,8,35,35,-322,-240,-82,281
,46,2023-10-27 11:19:51.47,157,-77,-2060,14,36,28,-504,-367,-137,435
,47,2023-10-27 11:19:51.48,164,-78,-2060,20,33,21,-328,-248,-80,288
,48,2023-10-27 11:19:51.49,157,-74,-2064,22,33,11,-501,-366,-135,433
,49,2023-10-27 11:19:51.50,174,-69,-2056,23,27,3,-325,-246,-79,285
,50,2023-10-27 11:19:51.51,150,-74,-2046,23,23,-4,-503,-360,-143,431
,51,2023-10-27 11:19:51.52,159,-76,-2051,23,18,-13,-330,-248,-82,289
,52,2023-10-27 11:19:51.53,158,-90,-2051,24,14,-21,-503,-362,-141,432
,53,2023-10-27 11:19:51.54,155,-89,-2049,26,10,-22,-331,-256,-75,293
,54,2023-10-27 11:19:51.55,163,-95,-2047,24,10,-25,-499,-367,-132,433
,55,2023-10-27 11:19:51.56,173,-95,-2049,25,14,-28,-331,-265,-66,298
,56,2023-10-27 11:19:51.57,171,-99,-2047,20,19,-28,-500,-363,-137,431
,57,2023-10-27 11:19:51.58,164,-100,-2050,15,23,-25,-340,-262,-78,301
,58,2023-10-27 11:19:51.59,160,-102,-2044,9,28,-22,-508,-360,-148,434
,59,2023-10-27 11:19:51.60,162,-109,-2052,2,30,-19,-346,-268,-78,307
,60,2023-10-27 11:19:51.61,166,-107,-2046,-6,34,-12,-505,-360,-145,432
,61,2023-10-27 11:19:51.62,158,-96,-2060,-14,36,-6,-343,-270,-73,306
,62,2023-10-27 11:19:51.63,161,-95,-2067,-21,37,2,-496,-355,-141,425
,63,2023-10-27 11:19:51.64,162,-95,-2058,-26,40,7,-342,-268,-74,305
,64,2023-10-27 11:19:51.65,171,-86,-2048,-26,37,9,-502,-352,-150,427
,65,2023-10-27 11:19:51.66,176,-87,-2045,-30,35,8,-354,-274,-80,314
,66,2023-10-27 11:19:51.67,162,-69,-2029,-28,30,6,-507,-356,-151,431
,67,2023-10-27 11:19:51.68,173,-69,-2050,-22,17,7,-362,-288,-74,325
,68,2023-10-27 11:19:51.69,194,-72,-2054,-31,41,-5,-504,-360,-144,432
,69,2023-10-27 11:19:51.70,174,-64,-2059,-28,44,-12,-354,-284,-70,319
,70,2023-10-27 11:19:51.71,160,-74,-2050,-17,29,-18,-500,-347,-153,423
,71,2023-10-27 11:19:51.72,174,-70,-2055,-8,16,-22,-366,-288,-78,327
,72,2023-10-27 11:19:51.73,189,-75,-2057,0,16,-31,-505,-351,-154,428
,73,2023-10-27 11:19:51.74,183,-66,-2056,2,29,-43,-371,-297,-74,334
,74,2023-10-27 11:19:51.75,178,-66,-2045,5,33,-53,-496,-349,-147,422
,75,2023-10-27 11:19:51.76,163,-73,-2048,15,18,-59,-359,-292,-67,325
,76,2023-10-27 11:19:51.77,196,-76,-2051,24,9,-62,-476,-327,-149,401
,77,2023-10-27 11:19:51.78,192,-92,-2065,24,24,-67,-352,-286,-66,319
,78,2023-10-27 11:19:51.79,178,-95,-2054,26,32,-66,-477,-333,-144,405
,79,2023-10-27 11:19:51.80,167,-103,-2036,26,29,-63,-362,-301,-61,331
,80,2023-10-27 11:19:51.81,195,-103,-2050,34,7,-52,-475,-331,-144,403
,81,2023-10-27 11:19:51.82,176,-110,-2056,25,27,-49,-356,-294,-62,325
,82,2023-10-27 11:19:51.83,169,-85,-2060,20,37,-45,-474,-327,-147,400
,83,2023-10-27 11:19:51.84,188,-83,-2051,17,21,-40,-365,-290,-75,327
,84,2023-10-27 11:19:51.85,190,-81,-2059,12,18,-37,-502,-313,-189,407
,85,2023-10-27 11:19:51.86,205,-79,-2049,7,23,-34,-412,-298,-114,355
,86,2023-10-27 11:19:51.87,205,-68,-2061,-1,33,-39,-511,-320,-191,415
,87,2023-10-27 11:19:51.88,194,-67,-2059,-8,39,-45,-398,-301,-97,349
,88,2023-10-27 11:19:51.89,192,-69,-2057,-13,24,-42,-507,-313,-194,410
,89,2023-10-27 11:19:51.90,190,-67,-2073,-12,18,-37,-418,-304,-114,361
,90,2023-10-27 11:19:51.91,204,-62,-2075,-16,20,-38,-503,-313,-190,408
,91,2023-10-27 11:19:51.92,199,-35,-2057,-20,11,-34,-406,-313,-93,359
,92,2023-10-27 11:19:51.93,209,-31,-2044,-24,13,-36,-489,-316,-173,402
,93,2023-10-27 11:19:51.94,209,-39,-2043,-24,16,-40,-408,-317,-91,362
,94,2023-10-27 11:19:51.95,212,-52,-2052,-16,21,-41,-481,-312,-169,396
,95,2023-10-27 11:19:51.96,194,-62,-2059,-4,29,-39,-408,-321,-87,364
,96,2023-10-27 11:19:51.97,207,-73,-2038,11,38,-34,-478,-313,-165,395
,97,2023-10-27 11:19:51.98,202,-79,-2042,29,45,-27,-415,-334,-81,374
,98,2023-10-27 11:19:51.99,213,-76,-2044,50,49,-20,-476,-316,-160,396
,99,2023-10-27 11:19:52.00,203,-62,-2024,69,51,-17,-416,-340,-76,378
,100,2023-10-27 11:19:52.01,212,-49,-2032,83,61,-13,-481,-320,-161,400
,101,2023-10-27 11:19:52.02,200,-49,-2030,88,70,-14,-436,-348,-88,392
,102,2023-10-27 11:19:52.03,209,-47,-2048,93,71,-10,-486,-318,-168,402
,103,2023-10-27 11:19:52.04,234,-61,-2053,97,77,-10,-432,-346,-86,389
,104,2023-10-27 11:19:52.05,203,-58,-2057,104,71,-12,-463,-307,-156,385
,105,2023-10-27 11:19:52.06,213,-70,-2074,107,61,-7,-423,-347,-76,385
,106,2023-10-27 11:19:52.07,206,-86,-2070,110,65,-4,-456,-303,-153,379
,107,2023-10-27 11:19:52.08,203,-100,-2077,115,67,1,-423,-346,-77,384
,108,2023-10-27 11:19:52.09,202,-119,-2060,126,48,10,-453,-292,-161,372
,109,2023-10-27 11:19:52.10,185,-128,-2060,137,26,24,-421,-338,-83,379
,110,2023-10-27 11:19:52.11,206,-118,-2074,150,8,34,-438,-267,-171,352
,111,2023-10-27 11:19:52.12,189,-115,-2057,155,6,40,-412,-315,-97,363
,112,2023-10-27 11:19:52.13,213,-103,-2067,162,-10,47,-414,-239,-175,326
,113,2023-10-27 11:19:52.14,193,-110,-2057,163,-19,50,-399,-303,-96,351
,114,2023-10-27 11:19:52.15,214,-106,-2057,162,-26,54,-400,-230,-170,315
,115,2023-10-27 11:19:52.16,194,-118,-2050,162,-32,55,-402,-304,-98,353
,116,2023-10-27 11:19:52.17,211,-122,-2061,161,-24,58,-398,-227,-171,312
,117,2023-10-27 11:19:52.18,197,-138,-2056,155,-13,57,-400,-306,-94,353
,118,2023-10-27 11:19:52.19,191,-135,-2064,154,-8,58,-400,-242,-158,321
,119,2023-10-27 11:19:52.20,203,-130,-2067,161,-5,58,-419,-331,-88,375
,120,2023-10-27 11:19:52.21,205,-143,-2057,170,-17,59,-400,-247,-153,323
,121,2023-10-27 11:19:52.22,195,-150,-2054,176,-22,58,-428,-329,-99,378
,122,2023-10-27 11:19:52.23,191,-154,-2049,180,-27,56,-423,-232,-191,327
,123,2023-10-27 11:19:52.24,178,-154,-2041,186,-25,50,-462,-335,-127,398
,124,2023-10-27 11:19:52.25,197,-146,-2039,186,-26,47,-427,-238,-189,332
,125,2023-10-27 11:19:52.26,196,-150,-2041,183,-26,43,-459,-343,-116,401
,126,2023-10-27 11:19:52.27,199,-153,-2054,179,-24,37,-412,-242,-170,327
,127,2023-10-27 11:19:52.28,187,-169,-2048,173,-17,31,-453,-345,-108,399
,128,2023-10-27 11:19:52.29,173,-170,-2046,167,-17,21,-408,-240,-168,324
,129,2023-10-27 11:19:52.30,188,-185,-2050,164,-17,16,-466,-352,-114,409
,130,2023-10-27 11:19:52.31,176,-190,-2048,166,-26,10,-412,-242,-170,327
,131,2023-10-27 11:19:52.32,179,-183,-2039,171,-38,4,-468,-358,-110,413
,132,2023-10-27 11:19:52.33,206,-178,-2036,175,-38,-2,-406,-246,-160,326
,133,2023-10-27 11:19:52.34,194,-172,-2035,173,-28,-17,-467,-364,-103,415
,134,2023-10-27 11:19:52.35,197,-198,-2033,169,-26,-30,-397,-246,-151,321
,135,2023-10-27 11:19:52.36,195,-196,-2050,162,-14,-41,-469,-361,-108,415
,136,2023-10-27 11:19:52.37,183,-200,-2048,155,-9,-52,-414,-236,-178,325
,137,2023-10-27 11:19:52.38,199,-205,-2053,156,-10,-63,-497,-365,-132,431
,138,2023-10-27 11:19:52.39,197,-198,-2061,155,-13,-66,-419,-247,-172,333
,139,2023-10-27 11:19:52.40,212,-197,-2040,148,-5,-76,-501,-382,-119,441
,140,2023-10-27 11:19:52.41,191,-195,-2027,141,0,-85,-418,-257,-161,337
,141,2023-10-27 11:19:52.42,202,-219,-2036,137,0,-89,-509,-386,-123,447
,142,2023-10-27 11:19:52.43,211,-213,-2041,126,13,-96,-416,-246,-170,331
,143,2023-10-27 11:19:52.44,208,-215,-2026,128,-5,-98,-504,-379,-125,441
,144,2023-10-27 11:19:52.45,228,-216,-2024,121,30,-104,-411,-252,-159,331
,145,2023-10-27 11:19:52.46,214,-212,-2029,111,39,-107,-513,-397,-116,455
,146,2023-10-27 11:19:52.47,213,-232,-2012,100,43,-109,-411,-266,-145,338
,147,2023-10-27 11:19:52.48,222,-233,-2018,93,56,-108,-513,-400,-113,456
,148,2023-10-27 11:19:52.49,194,-244,-2021,96,58,-108,-395,-255,-140,325
,149,2023-10-27 11:19:52.50,223,-253,-2018,92,74,-105,-500,-394,-106,447
,150,2023-10-27 11:19:52.51,213,-257,-2032,98,73,-100,-385,-248,-137,316
,151,2023-10-27 11:19:52.52,217,-265,-2043,99,76,-90,-506,-397,-109,451
,152,2023-10-27 11:19:52.53,205,-252,-2035,104,60,-84,-391,-257,-134,324
,153,2023-10-27 11:19:52.54,187,-276,-2027,109,49,-75,-516,-408,-108,462
,154,2023-10-27 11:19:52.55,157,-298,-2061,123,7,-53,-396,-260,-136,328
,155,2023-10-27 11:19:52.56,167,-295,-2062,141,-34,-29,-528,-407,-121,467
,156,2023-10-27 11:19:52.57,191,-291,-2081,154,-55,-9,-414,-261,-153,337
,157,2023-10-27 11:19:52.58,155,-294,-2067,153,-72,5,-544,-418,-126,481
,158,2023-10-27 11:19:52.59,159,-286,-2050,146,-88,26,-399,-261,-138,330
,159,2023-10-27 11:19:52.60,181,-288,-2072,130,-88,34,-530,-420,-110,475
,160,2023-10-27 11:19:52.61,196,-320,-1982,119,-101,38,-386,-264,-122,325
,161,2023-10-27 11:19:52.62,174,-266,-2036,123,-70,41,-531,-426,-105,478
,162,2023-10-27 11:19:52.63,153,-246,-2127,92,-66,42,-387,-266,-121,326
,163,2023-10-27 11:19:52.64,162,-288,-2126,42,-76,54,-530,-420,-110,475
,164,2023-10-27 11:19:52.65,155,-291,-2066,23,-83,56,-380,-265,-115,322
,165,2023-10-27 11:19:52.66,151,-279,-2072,24,-92,65,-523,-418,-105,470
,166,2023-10-27 11:19:52.67,144,-284,-2070,11,-102,72,-384,-271,-113,327
,167,2023-10-27 11:19:52.68,146,-275,-2048,-5,-98,75,-540,-427,-113,483
,168,2023-10-27 11:19:52.69,151,-273,-2038,-16,-92,76,-381,-268,-113,324
,169,2023-10-27 11:19:52.70,174,-264,-2037,-26,-78,75,-532,-420,-112,476
,170,2023-10-27 11:19:52.71,160,-259,-2021,-34,-74,75,-362,-260,-102,311
,171,2023-10-27 11:19:52.72,168,-267,-2008,-43,-56,68,-516,-409,-107,462
,172,2023-10-27 11:19:52.73,172,-262,-2002,-43,-43,63,-342,-246,-96,294
,173,2023-10-27 11:19:52.74,180,-262,-1987,-36,-31,54,-510,-403,-107,456
,174,2023-10-27 11:19:52.75,185,-257,-1991,-22,-13,45,-341,-242,-99,291
,175,2023-10-27 11:19:52.76,190,-253,-2000,-14,8,29,-515,-404,-111,459
,176,2023-10-27 11:19:52.77,182,-252,-1998,-3,17,17,-351,-253,-98,302
,177,2023-10-27 11:19:52.78,178,-263,-2013,15,26,4,-519,-409,-110,464
,178,2023-10-27 11:19:52.79,176,-260,-2015,32,30,-7,-331,-242,-89,286
,179,2023-10-27 11:19:52.80,182,-243,-2000,41,34,-20,-506,-387,-119,446
,180,2023-10-27 11:19:52.81,181,-246,-2024,44,35,-39,-342,-233,-109,287
,181,2023-10-27 11:19:52.82,184,-228,-2033,48,36,-55,-526,-397,-129,461
,182,2023-10-27 11:19:52.83,186,-230,-2023,56,45,-78,-336,-235,-101,285
,183,2023-10-27 11:19:52.84,181,-243,-2043,54,57,-100,-518,-386,-132,452
,184,2023-10-27 11:19:52.85,171,-263,-2052,47,60,-115,-368,-243,-125,305
,185,2023-10-27 11:19:52.86,189,-266,-2050,46,58,-126,-556,-398,-158,477
,186,2023-10-27 11:19:52.87,183,-256,-2055,53,50,-139,-365,-241,-124,303
,187,2023-10-27 11:19:52.88,175,-255,-2055,57,45,-151,-536,-399,-137,467
,188,2023-10-27 11:19:52.89,180,-256,-2055,50,51,-157,-359,-261,-98,310
,189,2023-10-27 11:19:52.90,175,-269,-2039,38,54,-165,-544,-413,-131,478
,190,2023-10-27 11:19:52.91,166,-281,-2049,29,50,-168,-368,-266,-102,317
,191,2023-10-27 11:19:52.92,173,-286,-2052,28,43,-164,-552,-415,-137,483
,192,2023-10-27 11:19:52.93,167,-292,-2041,30,28,-158,-371,-272,-99,321
,193,2023-10-27 11:19:52.94,176,-292,-2042,29,25,-147,-558,-415,-143,486
,194,2023-10-27 11:19:52.95,172,-309,-2051,27,21,-136,-396,-274,-122,335
,195,2023-10-27 11:19:52.96,181,-317,-2048,19,26,-125,-574,-421,-153,497
,196,2023-10-27 11:19:52.97,174,-322,-2054,14,33,-111,-391,-285,-106,338
,197,2023-10-27 11:19:52.98,166,-326,-2046,14,28,-96,-554,-421,-133,487
,198,2023-10-27 11:19:52.99,165,-322,-2048,21,27,-80,-360,-274,-86,317
,199,2023-10-27 11:19:53.00,164,-334,-2049,28,23,-61,-531,-398,-133,464
,200,2023-10-27 11:19:53.01,169,-329,-2041,33,16,-46,-364,-273,-91,318
,201,2023-10-27 11:19:53.02,188,-310,-2030,38,22,-31,-547,-412,-135,479
,202,2023-10-27 11:19:53.03,180,-302,-2017,36,31,-20,-370,-290,-80,330
,203,2023-10-27 11:19:53.04,208,-284,-1999,33,42,-16,-539,-401,-138,470
,204,2023-10-27 11:19:53.05,214,-291,-1986,21,69,-9,-344,-260,-84,302
,205,2023-10-27 11:19:53.06,198,-282,-1988,12,83,-5,-525,-378,-147,451
,206,2023-10-27 11:19:53.07,218,-281,-2005,4,93,0,-348,-243,-105,295
,207,2023-10-27 11:19:53.08,215,-274,-1997,-14,125,1,-528,-370,-158,449
,208,2023-10-27 11:19:53.09,210,-263,-2010,-36,143,-1,-356,-261,-95,308
,209,2023-10-27 11:19:53.10,223,-269,-2020,-57,157,-1,-529,-380,-149,454
,210,2023-10-27 11:19:53.11,227,-249,-2026,-74,167,-3,-353,-267,-86,310
,211,2023-10-27 11:19:53.12,232,-236,-2001,-85,161,-10,-514,-372,-142,443
,212,2023-10-27 11:19:53.13,213,-226,-2004,-76,144,-17,-330,-254,-76,292
,213,2023-10-27 11:19:53.14,250,-227,-2053,-72,127,-25,-497,-364,-133,430
,214,2023-10-27 11:19:53.15,253,-233,-2056,-77,132,-41,-330,-257,-73,293
,215,2023-10-27 11:19:53.16,242,-228,-2059,-63,113,-50,-509,-358,-151,433
,216,2023-10-27 11:19:53.17,259,-239,-2079,-56,98,-60,-351,-257,-94,304
,217,2023-10-27 11:19:53.18,237,-238,-2076,-58,98,-74,-527,-368,-159,447
,218,2023-10-27 11:19:53.19,245,-239,-2074,-52,68,-78,-371,-286,-85,328
,219,2023-10-27 11:19:53.20,241,-245,-2074,-44,47,-85,-526,-385,-141,455
,220,2023-10-27 11:19:53.21,246,-236,-2064,-32,27,-90,-356,-288,-68,322
,221,2023-10-27 11:19:53.22,247,-236,-2056,-23,7,-93,-522,-370,-152,446
,222,2023-10-27 11:19:53.23,241,-245,-2048,-16,-8,-96,-372,-274,-98,323
,223,2023-10-27 11:19:53.24,240,-250,-2050,-10,-15,-95,-536,-363,-173,449
,224,2023-10-27 11:19:53.25,239,-248,-2049,-3,-24,-94,-381,-285,-96,333
,225,2023-10-27 11:19:53.26,289,-245,-2064,-9,-7,-93,-534,-374,-160,454
,226,2023-10-27 11:19:53.27,229,-267,-2032,-26,17,-105,-386,-298,-88,342
,227,2023-10-27 11:19:53.28,236,-248,-2040,-32,16,-98,-528,-373,-155,450
,228,2023-10-27 11:19:53.29,234,-259,-2045,-28,9,-94,-376,-298,-78,337
,229,2023-10-27 11:19:53.30,224,-266,-2053,-20,3,-79,-518,-369,-149,443
,230,2023-10-27 11:19:53.31,231,-263,-2018,-17,-4,-67,-376,-303,-73,339
,231,2023-10-27 11:19:53.32,237,-250,-2001,-27,5,-58,-517,-370,-147,443
,232,2023-10-27 11:19:53.33,255,-247,-2022,-33,10,-46,-379,-305,-74,342
,233,2023-10-27 11:19:53.34,258,-238,-2017,-47,30,-39,-517,-366,-151,441
,234,2023-10-27 11:19:53.35,248,-225,-2016,-62,51,-37,-388,-313,-75,350
,235,2023-10-27 11:19:53.36,252,-230,-2020,-80,64,-33,-518,-370,-148,444
,236,2023-10-27 11:19:53.37,244,-219,-2022,-95,73,-29,-389,-318,-71,353
,237,2023-10-27 11:19:53.38,221,-220,-2012,-98,63,-23,-503,-356,-147,429
,238,2023-10-27 11:19:53.39,257,-204,-2075,-86,24,-11,-370,-308,-62,339
,239,2023-10-27 11:19:53.40,264,-222,-2065,-93,46,-14,-485,-345,-140,415
,240,2023-10-27 11:19:53.41,221,-210,-2068,-90,30,-9,-363,-302,-61,332
,241,2023-10-27 11:19:53.42,250,-216,-2056,-87,3,-5,-487,-348,-139,417
,242,2023-10-27 11:19:53.43,259,-208,-2057,-78,-11,-3,-376,-314,-62,345
,243,2023-10-27 11:19:53.44,264,-207,-2041,-68,-24,-4,-487,-350,-137,418
,244,2023-10-27 11:19:53.45,249,-203,-2047,-63,-29,-5,-379,-318,-61,348
,245,2023-10-27 11:19:53.46,252,-205,-2047,-54,-37,-5,-481,-342,-139,411
,246,2023-10-27 11:19:53.47,252,-213,-2045,-45,-39,-3,-384,-327,-57,355
,247,2023-10-27 11:19:53.48,250,-208,-2046,-31,-45,-6,-478,-339,-139,408
,248,2023-10-27 11:19:53.49,246,-212,-2043,-20,-45,-6,-384,-326,-58,355
,249,2023-10-27 11:19:53.50,260,-212,-2036,-11,-41,-5,-478,-338,-140,408
,250,2023-10-27 11:19:53.51,267,-220,-2022,-2,-32,-9,-391,-330,-61,360
,251,2023-10-27 11:19:53.52,252,-213,-2017,4,-25,-10,-478,-337,-141,407
,252,2023-10-27 11:19:53.53,249,-204,-2027,12,-11,-15,-397,-335,-62,366
,253,2023-10-27 11:19:53.54,244,-217,-2027,16,-5,-15,-472,-335,-137,403
,254,2023-10-27 11:19:53.55,241,-222,-2036,23,0,-13,-392,-336,-56,364
,255,2023-10-27 11:19:53.56,239,-228,-2025,36,1,-8,-467,-330,-137,398
,256,2023-10-27 11:19:53.57,235,-237,-2046,40,2,-1,-403,-343,-60,373
,257,2023-10-27 11:19:53.58,239,-234,-2052,38,3,6,-472,-333,-139,402
,258,2023-10-27 11:19:53.59,257,-223,-2060,39,6,10,-407,-348,-59,377
,259,2023-10-27 11:19:53.60,272,-197,-2055,31,28,9,-464,-327,-137,395
,260,2023-10-27 11:19:53.61,222,-212,-2036,25,25,9,-408,-344,-64,376
,261,2023-10-27 11:19:53.62,251,-226,-2039,26,11,17,-461,-320,-141,390
,262,2023-10-27 11:19:53.63,268,-237,-2050,30,13,25,-415,-352,-63,383
,263,2023-10-27 11:19:53.64,245,-241,-2022,37,13,29,-460,-322,-138,391
,264,2023-10-27 11:19:53.65,277,-223,-2016,39,15,36,-419,-354,-65,386
,265,2023-10-27 11:19:53.66,262,-210,-2011,34,35,35,-458,-318,-140,388
,266,2023-10-27 11:19:53.67,265,-217,-2017,28,48,31,-424,-355,-69,389
,267,2023-10-27 11:19:53.68,263,-226,-2028,30,54,29,-456,-316,-140,386
,268,2023-10-27 11:19:53.69,256,-221,-2038,35,54,27,-427,-362,-65,394
,269,2023-10-27 11:19:53.70,247,-236,-2036,41,50,27,-452,-319,-133,385
,270,2023-10-27 11:19:53.71,235,-235,-2054,46,50,28,-428,-373,-55,400
,271,2023-10-27 11:19:53.72,245,-227,-2051,46,44,28,-446,-318,-128,382
,272,2023-10-27 11:19:53.73,245,-226,-2055,42,46,28,-438,-375,-63,406
,273,2023-10-27 11:19:53.74,245,-227,-2063,34,50,30,-451,-320,-131,385
,274,2023-10-27 11:19:53.75,229,-233,-2043,20,40,33,-443,-386,-57,414
,275,2023-10-27 11:19:53.76,214,-216,-2059,38,-21,51,-447,-324,-123,385
,276,2023-10-27 11:19:53.77,248,-213,-2055,44,-43,56,-447,-389,-58,418
,277,2023-10-27 11:19:53.78,251,-193,-2051,33,-39,53,-444,-317,-127,380
,278,2023-10-27 11:19:53.79,237,-183,-2043,7,-37,49,-454,-389,-65,421
,279,2023-10-27 11:19:53.80,270,-177,-2059,-27,-13,43,-453,-328,-125,390
,280,2023-10-27 11:19:53.81,270,-179,-2053,-58,8,33,-476,-414,-62,445
,281,2023-10-27 11:19:53.82,247,-181,-2053,-72,6,28,-471,-344,-127,407
,282,2023-10-27 11:19:53.83,268,-176,-2053,-76,-16,30,-493,-432,-61,462
,283,2023-10-27 11:19:53.84,262,-190,-2034,-83,-15,29,-465,-349,-116,407
,284,2023-10-27 11:19:53.85,264,-183,-2034,-81,-18,23,-486,-431,-55,458
,285,2023-10-27 11:19:53.86,285,-192,-2043,-84,-15,16,-457,-336,-121,396
,286,2023-10-27 11:19:53.87,270,-177,-2037,-82,-12,11,-483,-412,-71,447
,287,2023-10-27 11:19:53.88,279,-182,-2041,-73,-15,4,-439,-300,-139,369
,288,2023-10-27 11:19:53.89,289,-158,-2029,-63,-15,0,-466,-373,-93,419
,289,2023-10-27 11:19:53.90,287,-167,-2036,-58,-14,-8,-405,-255,-150,330
,290,2023-10-27 11:19:53.91,263,-180,-2066,-56,-14,-12,-447,-357,-90,402
,291,2023-10-27 11:19:53.92,276,-192,-2054,-54,-14,-12,-380,-237,-143,308
,292,2023-10-27 11:19:53.93,270,-187,-2041,-39,-25,-9,-433,-341,-92,387
,293,2023-10-27 11:19:53.94,273,-192,-2027,-30,-30,-8,-366,-220,-146,293
,294,2023-10-27 11:19:53.95,261,-201,-2024,-24,-34,-6,-437,-338,-99,387
,295,2023-10-27 11:19:53.96,267,-208,-2025,-21,-28,-6,-364,-214,-150,289
,296,2023-10-27 11:19:53.97,254,-204,-2025,-7,-32,-1,-435,-327,-108,381
,297,2023-10-27 11:19:53.98,268,-214,-2023,6,-34,3,-364,-190,-174,277
,298,2023-10-27 11:19:53.99,216,-231,-1997,38,-62,12,-448,-322,-126,385
,299,2023-10-27 11:19:54.00,245,-233,-2006,69,-83,29,-373,-205,-168,289
,300,2023-10-27 11:19:54.01,232,-249,-2020,96,-96,41,-462,-342,-120,402
,301,2023-10-27 11:19:54.02,294,-274,-1963,98,-61,27,-373,-205,-168,289
,302,2023-10-27 11:19:54.03,166,-247,-2085,82,-2,21,-464,-341,-123,402
,303,2023-10-27 11:19:54.04,202,-259,-2093,53,-19,33,-375,-211,-164,293
,304,2023-10-27 11:19:54.05,202,-278,-2056,62,-26,39,-475,-359,-116,417
,305,2023-10-27 11:19:54.06,177,-247,-2079,84,-40,47,-389,-238,-151,313
,306,2023-10-27 11:19:54.07,182,-262,-2071,82,-53,50,-494,-382,-112,438
,307,2023-10-27 11:19:54.08,189,-249,-2075,64,-52,52,-379,-237,-142,308
,308,2023-10-27 11:19:54.09,168,-248,-2069,47,-52,49,-478,-381,-97,429
,309,2023-10-27 11:19:54.10,162,-258,-2074,45,-67,51,-370,-249,-121,309
,310,2023-10-27 11:19:54.11,174,-240,-2067,51,-99,57,-477,-400,-77,438
,311,2023-10-27 11:19:54.12,189,-232,-2046,45,-111,54,-362,-261,-101,311
,312,2023-10-27 11:19:54.13,207,-229,-2031,30,-104,50,-483,-412,-71,447
,313,2023-10-27 11:19:54.14,199,-230,-2008,10,-79,39,-360,-269,-91,314
,314,2023-10-27 11:19:54.15,195,-237,-2004,-10,-57,29,-498,-437,-61,467
,315,2023-10-27 11:19:54.16,202,-248,-2019,-11,-45,21,-422,-341,-81,381
,316,2023-10-27 11:19:54.17,185,-253,-2010,-8,-38,16,-569,-513,-56,541
,317,2023-10-27 11:19:54.18,187,-248,-2025,4,-36,8,-471,-410,-61,440
,318,2023-10-27 11:19:54.19,199,-244,-2020,11,-31,4,-618,-571,-47,594
,319,2023-10-27 11:19:54.20,185,-238,-2012,8,-14,-5,-523,-474,-49,498
,320,2023-10-27 11:19:54.21,187,-240,-2021,7,-7,-12,-656,-619,-37,637
,321,2023-10-27 11:19:54.22,201,-237,-2037,9,-10,-14,-538,-483,-55,510
,322,2023-10-27 11:19:54.23,208,-222,-2017,6,-5,-18,-640,-588,-52,614
,323,2023-10-27 11:19:54.24,191,-223,-2018,-1,5,-28,-475,-415,-60,445
,324,2023-10-27 11:19:54.25,200,-229,-2042,-4,-19,-28,-580,-525,-55,552
,325,2023-10-27 11:19:54.26,217,-227,-2044,-12,-11,-31,-410,-345,-65,377
,326,2023-10-27 11:19:54.27,202,-215,-2053,-22,1,-36,-538,-465,-73,501
,327,2023-10-27 11:19:54.28,205,-208,-2053,-40,4,-39,-360,-274,-86,317
,328,2023-10-27 11:19:54.29,214,-194,-2058,-62,27,-47,-491,-398,-93,444
,329,2023-10-27 11:19:54.30,210,-181,-2082,-89,45,-58,-298,-204,-94,251
,330,2023-10-27 11:19:54.31,228,-167,-2064,-128,49,-76,-449,-348,-101,398
,331,2023-10-27 11:19:54.32,232,-161,-2050,-132,49,-86,-279,-183,-96,231
,332,2023-10-27 11:19:54.33,194,-184,-2009,-123,24,-92,-441,-326,-115,383
,333,2023-10-27 11:19:54.34,242,-180,-2085,-100,-15,-85,-269,-152,-117,210
,334,2023-10-27 11:19:54.35,259,-196,-2057,-103,11,-94,-433,-296,-137,364
,335,2023-10-27 11:19:54.36,217,-180,-2039,-99,26,-96,-252,-126,-126,189
,336,2023-10-27 11:19:54.37,222,-202,-2029,-86,4,-93,-421,-283,-138,352
,337,2023-10-27 11:19:54.38,253,-196,-2017,-80,18,-85,-240,-118,-122,179
,338,2023-10-27 11:19:54.39,216,-198,-2029,-66,23,-82,-421,-286,-135,353
,339,2023-10-27 11:19:54.40,236,-202,-2023,-49,-2,-68,-244,-129,-115,186
,340,2023-10-27 11:19:54.41,215,-196,-2027,-36,-12,-55,-429,-292,-137,360
,341,2023-10-27 11:19:54.42,228,-185,-2030,-22,-28,-38,-251,-135,-116,193
,342,2023-10-27 11:19:54.43,206,-198,-2048,-19,-36,-22,-436,-295,-141,365
,343,2023-10-27 11:19:54.44,204,-204,-2058,-14,-47,-4,-257,-136,-121,196
,344,2023-10-27 11:19:54.45,212,-196,-2064,-9,-60,14,-447,-296,-151,371
,345,2023-10-27 11:19:54.46,210,-192,-2075,-8,-67,30,-276,-145,-131,210
,346,2023-10-27 11:19:54.47,248,-174,-2052,-27,-41,34,-464,-311,-153,387
,347,2023-10-27 11:19:54.48,191,-175,-2027,-47,-8,30,-280,-159,-121,219
,348,2023-10-27 11:19:54.49,225,-174,-2052,-50,-20,40,-469,-322,-147,395
,349,2023-10-27 11:19:54.50,211,-185,-2035,-48,-10,43,-290,-172,-118,231
,350,2023-10-27 11:19:54.51,220,-175,-2050,-35,-18,49,-477,-327,-150,402
,351,2023-10-27 11:19:54.52,234,-180,-2043,-31,-7,51,-295,-180,-115,237
,352,2023-10-27 11:19:54.53,219,-170,-2052,-38,16,47,-483,-333,-150,408
,353,2023-10-27 11:19:54.54,223,-168,-2049,-41,23,42,-301,-191,-110,246
,354,2023-10-27 11:19:54.55,226,-157,-2061,-35,22,39,-484,-343,-141,413
,355,2023-10-27 11:19:54.56,223,-152,-2064,-24,16,32,-300,-202,-98,251
,356,2023-10-27 11:19:54.57,230,-144,-2045,-18,13,25,-491,-349,-142,420
,357,2023-10-27 11:19:54.58,217,-151,-2042,-11,11,15,-311,-216,-95,263
,358,2023-10-27 11:19:54.59,209,-171,-2060,-7,8,8,-496,-361,-135,428
,359,2023-10-27 11:19:54.60,223,-167,-2056,4,-10,6,-314,-225,-89,269
,360,2023-10-27 11:19:54.61,215,-167,-2042,18,-20,2,-499,-366,-133,432
,361,2023-10-27 11:19:54.62,209,-173,-2050,29,-23,-2,-323,-237,-86,280
,362,2023-10-27 11:19:54.63,220,-159,-2029,34,-26,-7,-508,-374,-134,441
,363,2023-10-27 11:19:54.64,222,-159,-2046,35,-23,-13,-326,-244,-82,285
,364,2023-10-27 11:19:54.65,205,-165,-2056,36,-38,-14,-505,-379,-126,442
,365,2023-10-27 11:19:54.66,214,-167,-2046,41,-44,-16,-324,-250,-74,287
,366,2023-10-27 11:19:54.67,205,-172,-2046,43,-49,-15,-506,-373,-133,439
,367,2023-10-27 11:19:54.68,189,-181,-2055,41,-58,-15,-336,-251,-85,293
,368,2023-10-27 11:19:54.69,197,-176,-2044,38,-65,-13,-518,-374,-144,446
,369,2023-10-27 11:19:54.70,192,-178,-2053,40,-72,-11,-343,-259,-84,301
,370,2023-10-27 11:19:54.71,192,-177,-2048,40,-79,-7,-518,-382,-136,450
,371,2023-10-27 11:19:54.72,187,-182,-2048,37,-83,-2,-347,-264,-83,305
,372,2023-10-27 11:19:54.73,190,-188,-2040,33,-81,0,-524,-386,-138,455
,373,2023-10-27 11:19:54.74,200,-180,-2038,27,-74,1,-338,-259,-79,298
,374,2023-10-27 11:19:54.75,236,-226,-1960,24,-71,2,-505,-367,-138,436
,375,2023-10-27 11:19:54.76,211,-169,-2070,26,-11,-8,-331,-256,-75,293
,376,2023-10-27 11:19:54.77,165,-170,-2133,-12,-7,-7,-507,-371,-136,439
,377,2023-10-27 11:19:54.78,207,-221,-2013,-32,-26,1,-335,-269,-66,302
,378,2023-10-27 11:19:54.79,196,-183,-2055,-12,-15,8,-502,-373,-129,437
,379,2023-10-27 11:19:54.80,178,-204,-2030,2,-43,13,-337,-273,-64,305
,380,2023-10-27 11:19:54.81,196,-183,-2043,0,-41,23,-504,-375,-129,439
,381,2023-10-27 11:19:54.82,192,-183,-2047,-6,-27,24,-342,-280,-62,311
,382,2023-10-27 11:19:54.83,186,-184,-2052,-12,-19,27,-500,-371,-129,435
,383,2023-10-27 11:19:54.84,192,-186,-2050,-12,-16,30,-334,-273,-61,303
,384,2023-10-27 11:19:54.85,193,-192,-2042,-10,-14,31,-495,-361,-134,428
,385,2023-10-27 11:19:54.86,184,-183,-2039,-11,-14,32,-339,-277,-62,308
,386,2023-10-27 11:19:54.87,191,-179,-2042,-9,-13,32,-500,-364,-136,432
,387,2023-10-27 11:19:54.88,179,-176,-2057,-8,-9,30,-344,-283,-61,313
,388,2023-10-27 11:19:54.89,175,-183,-2053,-4,-10,29,-495,-366,-129,430
,389,2023-10-27 11:19:54.90,173,-171,-2054,-1,-12,28,-344,-289,-55,316
,390,2023-10-27 11:19:54.91,181,-167,-2054,-1,-11,24,-496,-364,-132,430
,391,2023-10-27 11:19:54.92,182,-161,-2050,-5,-3,20,-354,-292,-62,323
,392,2023-10-27 11:19:54.93,173,-158,-2051,-6,0,12,-500,-363,-137,431
,393,2023-10-27 11:19:54.94,180,-158,-2049,-9,-4,5,-356,-296,-60,326
,394,2023-10-27 11:19:54.95,181,-158,-2053,-10,-1,-1,-494,-365,-129,429
,395,2023-10-27 11:19:54.96,193,-156,-2051,-8,-6,-4,-358,-302,-56,330
,396,2023-10-27 11:19:54.97,174,-139,-2042,-8,-9,-13,-496,-362,-134,429
,397,2023-10-27 11:19:54.98,189,-146,-2043,-7,-13,-18,-365,-308,-57,336
,398,2023-10-27 11:19:54.99,183,-154,-2049,-7,-16,-24,-501,-360,-141,430
,399,2023-10-27 11:19:55.00,180,-157,-2044,-3,-21,-28,-375,-308,-67,341
,400,2023-10-27 11:19:55.01,174,-161,-2059,0,-24,-29,-502,-360,-142,431
,401,2023-10-27 11:19:55.02,182,-162,-2042,-2,-22,-32,-382,-319,-63,350
,402,2023-10-27 11:19:55.03,170,-164,-2054,-3,-24,-31,-503,-361,-142,432
,403,2023-10-27 11:19:55.04,189,-157,-2046,-2,-30,-31,-389,-328,-61,358
,404,2023-10-27 11:19:55.05,178,-158,-2040,-2,-30,-34,-504,-360,-144,432
,405,2023-10-27 11:19:55.06,202,-154,-2037,-3,-29,-34,-386,-327,-59,356
,406,2023-10-27 11:19:55.07,187,-163,-2039,-7,-14,-36,-484,-352,-132,418
,407,2023-10-27 11:19:55.08,186,-170,-2040,-10,-1,-39,-367,-317,-50,342
,408,2023-10-27 11:19:55.09,181,-179,-2047,-7,1,-35,-476,-341,-135,408
,409,2023-10-27 11:19:55.10,179,-191,-2061,7,-1,-28,-380,-321,-59,350
,410,2023-10-27 11:19:55.11,179,-181,-2056,21,-13,-20,-494,-341,-153,417
,411,2023-10-27 11:19:55.12,199,-171,-2044,34,-18,-13,-402,-329,-73,365
,412,2023-10-27 11:19:55.13,196,-160,-2043,38,-12,-13,-490,-341,-149,415
,413,2023-10-27 11:19:55.14,181,-166,-2047,34,-5,-14,-400,-334,-66,367
,414,2023-10-27 11:19:55.15,189,-157,-2057,31,-6,-12,-485,-336,-149,410
,415,2023-10-27 11:19:55.16,176,-171,-2067,34,-6,-11,-410,-342,-68,376
,416,2023-10-27 11:19:55.17,168,-171,-2062,39,-17,-6,-493,-345,-148,419
,417,2023-10-27 11:19:55.18,166,-178,-2055,41,-29,0,-420,-348,-72,384
,418,2023-10-27 11:19:55.19,176,-171,-2059,38,-34,2,-491,-342,-149,416
,419,2023-10-27 11:19:55.20,170,-170,-2057,38,-43,5,-419,-349,-70,384
,420,2023-10-27 11:19:55.21,171,-178,-2049,43,-50,11,-482,-333,-149,407
,421,2023-10-27 11:19:55.22,170,-176,-2042,47,-53,11,-411,-349,-62,380
,422,2023-10-27 11:19:55.23,182,-181,-2036,46,-53,15,-471,-333,-138,402
,423,2023-10-27 11:19:55.24,172,-191,-2050,48,-46,18,-412,-354,-58,383
,424,2023-10-27 11:19:55.25,175,-192,-2042,51,-47,20,-462,-324,-138,393
,425,2023-10-27 11:19:55.26,163,-195,-2040,55,-40,22,-408,-346,-62,377
,426,2023-10-27 11:19:55.27,164,-193,-2046,54,-31,24,-454,-314,-140,384
,427,2023-10-27 11:19:55.28,159,-185,-2047,53,-25,26,-409,-347,-62,378
,428,2023-10-27 11:19:55.29,169,-181,-2048,51,-19,27,-448,-310,-138,379
,429,2023-10-27 11:19:55.30,166,-178,-2048,50,-15,28,-409,-350,-59,379
,430,2023-10-27 11:19:55.31,169,-184,-2049,50,-12,27,-445,-311,-134,378
,431,2023-10-27 11:19:55.32,157,-192,-2048,44,-9,28,-418,-355,-63,386
,432,2023-10-27 11:19:55.33,171,-198,-2056,42,-7,29,-453,-305,-148,379
,433,2023-10-27 11:19:55.34,170,-186,-2046,46,-7,27,-434,-355,-79,394
,434,2023-10-27 11:19:55.35,172,-188,-2045,46,-6,27,-464,-305,-159,384
,435,2023-10-27 11:19:55.36,164,-186,-2033,43,-2,25,-449,-368,-81,408
,436,2023-10-27 11:19:55.37,166,-181,-2040,37,6,26,-461,-309,-152,385
,437,2023-10-27 11:19:55.38,168,-189,-2026,32,8,22,-456,-372,-84,414
,438,2023-10-27 11:19:55.39,151,-202,-2045,31,8,20,-469,-313,-156,391
,439,2023-10-27 11:19:55.40,150,-196,-2053,32,-4,24,-470,-385,-85,427
,440,2023-10-27 11:19:55.41,154,-201,-2052,32,-16,28,-461,-310,-151,385
,441,2023-10-27 11:19:55.42,153,-202,-2047,33,-24,30,-461,-380,-81,420
,442,2023-10-27 11:19:55.43,161,-199,-2043,31,-32,35,-444,-299,-145,371
,443,2023-10-27 11:19:55.44,150,-195,-2039,26,-31,38,-455,-378,-77,416
,444,2023-10-27 11:19:55.45,147,-205,-2046,24,-32,38,-442,-298,-144,370
,445,2023-10-27 11:19:55.46,159,-212,-2047,20,-28,43,-474,-388,-86,431
,446,2023-10-27 11:19:55.47,156,-212,-2047,21,-22,44,-443,-298,-145,370
,447,2023-10-27 11:19:55.48,168,-210,-2039,14,-13,46,-472,-391,-81,431
,448,2023-10-27 11:19:55.49,154,-198,-2042,10,0,46,-430,-291,-139,360
,449,2023-10-27 11:19:55.50,148,-200,-2047,5,10,47,-471,-386,-85,428
,450,2023-10-27 11:19:55.51,172,-194,-2046,3,14,45,-435,-291,-144,363
,451,2023-10-27 11:19:55.52,160,-188,-2039,-1,11,43,-480,-394,-86,437
,452,2023-10-27 11:19:55.53,152,-185,-2046,-3,14,40,-430,-290,-140,360
,453,2023-10-27 11:19:55.54,162,-192,-2058,-7,11,37,-479,-395,-84,437
,454,2023-10-27 11:19:55.55,156,-195,-2065,-8,9,35,-419,-287,-132,353
,455,2023-10-27 11:19:55.56,159,-191,-2059,-9,1,36,-480,-397,-83,438
,456,2023-10-27 11:19:55.57,160,-178,-2045,-9,3,28,-418,-283,-135,350
,457,2023-10-27 11:19:55.58,154,-185,-2043,-13,11,23,-480,-392,-88,436
,458,2023-10-27 11:19:55.59,157,-187,-2055,-21,12,19,-414,-277,-137,345
,459,2023-10-27 11:19:55.60,151,-191,-2053,-20,5,17,-485,-399,-86,442
,460,2023-10-27 11:19:55.61,156,-197,-2050,-13,-4,16,-408,-284,-124,346
,461,2023-10-27 11:19:55.62,153,-198,-2046,-9,-8,18,-484,-405,-79,444
,462,2023-10-27 11:19:55.63,170,-188,-2045,-11,-5,15,-401,-275,-126,338
,463,2023-10-27 11:19:55.64,158,-195,-2044,-12,1,15,-488,-402,-86,445
,464,2023-10-27 11:19:55.65,158,-194,-2052,-12,-1,16,-399,-272,-127,335
,465,2023-10-27 11:19:55.66,167,-204,-2042,-8,2,16,-490,-403,-87,446
,466,2023-10-27 11:19:55.67,164,-192,-2047,-7,6,16,-395,-273,-122,334
,467,2023-10-27 11:19:55.68,161,-195,-2050,-9,13,17,-491,-406,-85,448
,468,2023-10-27 11:19:55.69,166,-194,-2049,-9,15,19,-393,-269,-124,331
,469,2023-10-27 11:19:55.70,154,-193,-2050,-10,14,20,-496,-406,-90,451
,470,2023-10-27 11:19:55.71,162,-200,-2046,-7,12,25,-390,-269,-121,329
,471,2023-10-27 11:19:55.72,162,-186,-2052,-9,10,27,-499,-408,-91,453
,472,2023-10-27 11:19:55.73,168,-189,-2055,-15,14,29,-379,-265,-114,322
,473,2023-10-27 11:19:55.74,161,-181,-2044,-17,12,31,-493,-401,-92,447
,474,2023-10-27 11:19:55.75,171,-182,-2051,-20,13,33,-368,-251,-117,309
,475,2023-10-27 11:19:55.76,163,-173,-2045,-21,12,31,-489,-399,-90,444
,476,2023-10-27 11:19:55.77,154,-175,-2040,-25,9,29,-366,-255,-111,310
,477,2023-10-27 11:19:55.78,153,-166,-2049,-28,8,30,-494,-405,-89,449
,478,2023-10-27 11:19:55.79,158,-175,-2056,-26,-1,28,-359,-255,-104,307
,479,2023-10-27 11:19:55.80,158,-179,-2053,-23,-13,29,-491,-405,-86,448
,480,2023-10-27 11:19:55.81,160,-174,-2048,-18,-19,30,-355,-254,-101,304
,481,2023-10-27 11:19:55.82,153,-172,-2055,-18,-24,28,-494,-407,-87,450
,482,2023-10-27 11:19:55.83,153,-184,-2057,-16,-32,34,-362,-257,-105,309
,483,2023-10-27 11:19:55.84,156,-180,-2055,-13,-29,36,-503,-412,-91,457
,484,2023-10-27 11:19:55.85,140,-187,-2048,-4,-28,37,-358,-257,-101,307
,485,2023-10-27 11:19:55.86,163,-179,-2036,-2,-22,37,-506,-406,-100,456
,486,2023-10-27 11:19:55.87,164,-178,-2036,-3,-12,36,-359,-245,-114,302
,487,2023-10-27 11:19:55.88,158,-187,-2045,-4,-3,36,-510,-408,-102,459
,488,2023-10-27 11:19:55.89,155,-179,-2047,-2,0,36,-358,-254,-104,306
,489,2023-10-27 11:19:55.90,151,-176,-2051,5,2,34,-507,-411,-96,459
,490,2023-10-27 11:19:55.91,148,-187,-2060,10,1,35,-350,-252,-98,301
,491,2023-10-27 11:19:55.92,153,-188,-2057,10,-6,41,-508,-410,-98,459
,492,2023-10-27 11:19:55.93,149,-182,-2056,15,-12,42,-356,-259,-97,307
,493,2023-10-27 11:19:55.94,155,-177,-2059,24,-18,43,-515,-418,-97,466
,494,2023-10-27 11:19:55.95,157,-172,-2049,31,-18,42,-349,-259,-90,304
,495,2023-10-27 11:19:55.96,147,-171,-2055,33,-17,37,-510,-417,-93,463
,496,2023-10-27 11:19:55.97,145,-181,-2054,30,-25,36,-343,-258,-85,300
,497,2023-10-27 11:19:55.98,139,-185,-2066,35,-29,35,-511,-419,-92,465
,498,2023-10-27 11:19:55.99,153,-177,-2065,37,-37,37,-344,-259,-85,301
,499,2023-10-27 11:19:56.00,137,-185,-2053,38,-45,38,-514,-417,-97,465
,500,2023-10-27 11:19:56.01,148,-185,-2042,34,-43,39,-342,-257,-85,299
,501,2023-10-27 11:19:56.02,156,-190,-2035,28,-34,40,-521,-415,-106,468
,502,2023-10-27 11:19:56.03,141,-187,-2032,21,-27,41,-354,-256,-98,305
,503,2023-10-27 11:19:56.04,145,-174,-2035,16,-22,42,-529,-416,-113,472
,504,2023-10-27 11:19:56.05,145,-182,-2045,14,-18,42,-350,-257,-93,303
,505,2023-10-27 11:19:56.06,135,-185,-2041,8,-19,44,-526,-416,-110,471
,506,2023-10-27 11:19:56.07,150,-202,-2036,4,-18,48,-344,-257,-87,300
,507,2023-10-27 11:19:56.08,153,-192,-2033,14,1,45,-521,-414,-107,467
,508,2023-10-27 11:19:56.09,128,-163,-2081,12,-1,45,-342,-258,-84,300
,509,2023-10-27 11:19:56.10,139,-181,-2060,-3,-17,48,-521,-416,-105,468
,510,2023-10-27 11:19:56.11,152,-185,-2040,2,-11,47,-339,-258,-81,298
,511,2023-10-27 11:19:56.12,150,-181,-2036,10,-2,42,-520,-411,-109,465
,512,2023-10-27 11:19:56.13,134,-176,-2048,9,7,38,-339,-260,-79,299
,513,2023-10-27 11:19:56.14,146,-174,-2052,1,5,36,-522,-412,-110,467
,514,2023-10-27 11:19:56.15,153,-188,-2050,5,9,35,-340,-261,-79,300
,515,2023-10-27 11:19:56.16,153,-184,-2057,16,13,31,-521,-410,-111,465
,516,2023-10-27 11:19:56.17,148,-187,-2046,14,15,27,-333,-259,-74,296
,517,2023-10-27 11:19:56.18,150,-179,-2050,13,20,24,-518,-406,-112,462
,518,2023-10-27 11:19:56.19,145,-190,-2050,12,25,20,-336,-262,-74,299
,519,2023-10-27 11:19:56.20,149,-187,-2052,16,22,21,-520,-408,-112,464
,520,2023-10-27 11:19:56.21,149,-187,-2033,19,24,17,-336,-267,-69,301
,521,2023-10-27 11:19:56.22,142,-205,-2046,15,31,19,-522,-409,-113,465
,522,2023-10-27 11:19:56.23,143,-199,-2060,14,32,17,-342,-270,-72,306
,523,2023-10-27 11:19:56.24,153,-189,-2043,13,34,21,-527,-408,-119,467
,524,2023-10-27 11:19:56.25,158,-179,-2050,13,36,21,-344,-272,-72,308
,525,2023-10-27 11:19:56.26,141,-181,-2046,10,34,20,-528,-407,-121,467
,526,2023-10-27 11:19:56.27,151,-186,-2057,7,28,18,-346,-278,-68,312
,527,2023-10-27 11:19:56.28,146,-192,-2065,7,23,19,-532,-408,-124,470
,528,2023-10-27 11:19:56.29,143,-188,-2051,10,13,21,-350,-277,-73,313
,529,2023-10-27 11:19:56.30,147,-183,-2043,9,2,20,-530,-402,-128,466
,530,2023-10-27 11:19:56.31,136,-189,-2048,7,0,20,-342,-275,-67,308
,531,2023-10-27 11:19:56.32,141,-192,-2056,7,-2,19,-522,-400,-122,461
,532,2023-10-27 11:19:56.33,143,-193,-2048,11,-7,19,-343,-278,-65,310
,533,2023-10-27 11:19:56.34,148,-189,-2043,12,-6,17,-524,-402,-122,463
,534,2023-10-27 11:19:56.35,147,-181,-2045,12,-5,13,-346,-279,-67,312
,535,2023-10-27 11:19:56.36,151,-180,-2038,10,1,12,-522,-393,-129,457
,536,2023-10-27 11:19:56.37,141,-188,-2055,8,3,13,-349,-280,-69,314
,537,2023-10-27 11:19:56.38,138,-192,-2053,8,2,14,-528,-396,-132,462
,538,2023-10-27 11:19:56.39,145,-191,-2042,7,0,18,-359,-291,-68,325
,539,2023-10-27 11:19:56.40,163,-185,-2042,3,3,20,-530,-406,-124,468
,540,2023-10-27 11:19:56.41,157,-192,-2048,0,7,21,-355,-296,-59,325
,541,2023-10-27 11:19:56.42,145,-199,-2053,-1,13,23,-523,-401,-122,462
,542,2023-10-27 11:19:56.43,162,-189,-2052,1,7,24,-360,-302,-58,331
,543,2023-10-27 11:19:56.44,157,-190,-2047,1,8,27,-528,-401,-127,464
,544,2023-10-27 11:19:56.45,159,-188,-2039,3,11,27,-365,-304,-61,334
,545,2023-10-27 11:19:56.46,149,-185,-2050,2,10,26,-521,-395,-126,458
,546,2023-10-27 11:19:56.47,154,-183,-2053,4,6,29,-359,-301,-58,330
,547,2023-10-27 11:19:56.48,146,-188,-2055,8,-3,26,-517,-385,-132,451
,548,2023-10-27 11:19:56.49,153,-190,-2051,16,-9,29,-364,-300,-64,332
,549,2023-10-27 11:19:56.50,148,-186,-2042,19,-13,25,-516,-382,-134,449
,550,2023-10-27 11:19:56.51,159,-187,-2048,19,-9,27,-367,-305,-62,336
,551,2023-10-27 11:19:56.52,161,-186,-2053,18,-13,27,-515,-382,-133,448
,552,2023-10-27 11:19:56.53,143,-187,-2049,23,-17,27,-368,-309,-59,338
,553,2023-10-27 11:19:56.54,141,-189,-2057,25,-21,28,-515,-379,-136,447
,554,2023-10-27 11:19:56.55,152,-192,-2051,25,-25,29,-374,-311,-63,342
,555,2023-10-27 11:19:56.56,176,-201,-1977,38,-24,23,-511,-373,-138,442
,556,2023-10-27 11:19:56.57,130,-175,-2076,43,-1,23,-369,-310,-59,339
,557,2023-10-27 11:19:56.58,138,-191,-2091,24,-25,27,-503,-369,-134,436
,558,2023-10-27 11:19:56.59,156,-203,-2045,14,-33,33,-367,-312,-55,339
,559,2023-10-27 11:19:56.60,157,-195,-2016,32,-27,33,-499,-366,-133,432
,560,2023-10-27 11:19:56.61,174,-174,-2105,20,-1,32,-374,-316,-58,345
,561,2023-10-27 11:19:56.62,127,-207,-2036,-10,-4,26,-504,-367,-137,435
,562,2023-10-27 11:19:56.63,145,-187,-2032,-3,-17,33,-382,-323,-59,352
,563,2023-10-27 11:19:56.64,181,-186,-2067,5,-11,34,-499,-365,-134,432
,564,2023-10-27 11:19:56.65,153,-198,-2036,-4,23,25,-381,-321,-60,351
,565,2023-10-27 11:19:56.66,117,-192,-2034,-4,1,26,-493,-356,-137,424
,566,2023-10-27 11:19:56.67,162,-203,-2058,4,-14,32,-383,-327,-56,355
,567,2023-10-27 11:19:56.68,149,-183,-2057,14,-13,30,-498,-366,-132,432
,568,2023-10-27 11:19:56.69,137,-201,-2042,21,-15,31,-398,-341,-57,369
,569,2023-10-27 11:19:56.70,141,-198,-2057,20,-21,35,-495,-364,-131,429
,570,2023-10-27 11:19:56.71,161,-191,-2060,8,-7,32,-393,-336,-57,364
,571,2023-10-27 11:19:56.72,166,-182,-2056,5,13,26,-487,-350,-137,418
,572,2023-10-27 11:19:56.73,153,-189,-2053,10,0,26,-393,-336,-57,364
,573,2023-10-27 11:19:56.74,145,-199,-2058,11,-7,23,-485,-353,-132,419
,574,2023-10-27 11:19:56.75,135,-201,-2072,9,-11,24,-396,-344,-52,370
,575,2023-10-27 11:19:56.76,140,-201,-2051,7,-8,23,-477,-350,-127,413
,576,2023-10-27 11:19:56.77,137,-190,-2048,10,-6,25,-397,-341,-56,369
,577,2023-10-27 11:19:56.78,137,-199,-2043,8,-13,28,-490,-352,-138,421
,578,2023-10-27 11:19:56.79,130,-196,-2055,8,-25,30,-409,-351,-58,380
,579,2023-10-27 11:19:56.80,149,-188,-2041,9,-36,31,-480,-349,-131,414
,580,2023-10-27 11:19:56.81,143,-184,-2041,11,-28,32,-405,-352,-53,378
,581,2023-10-27 11:19:56.82,137,-177,-2042,2,-14,28,-473,-345,-128,409
,582,2023-10-27 11:19:56.83,125,-189,-2031,-16,10,24,-413,-356,-57,384
,583,2023-10-27 11:19:56.84,121,-182,-2051,-19,-10,29,-477,-340,-137,408
,584,2023-10-27 11:19:56.85,128,-190,-2058,-12,-17,32,-418,-361,-57,389
,585,2023-10-27 11:19:56.86,134,-185,-2056,-9,-19,31,-474,-341,-133,407
,586,2023-10-27 11:19:56.87,124,-184,-2044,-5,-26,32,-421,-367,-54,394
,587,2023-10-27 11:19:56.88,157,-188,-2042,-14,-13,31,-464,-339,-125,401
,588,2023-10-27 11:19:56.89,125,-191,-2051,-23,7,28,-422,-367,-55,394
,589,2023-10-27 11:19:56.90,127,-199,-2050,-14,-12,27,-462,-328,-134,395
,590,2023-10-27 11:19:56.91,144,-189,-2056,-2,-22,30,-427,-365,-62,396
,591,2023-10-27 11:19:56.92,141,-186,-2052,4,-18,31,-458,-327,-131,392
,592,2023-10-27 11:19:56.93,137,-183,-2042,5,-14,29,-430,-369,-61,399
,593,2023-10-27 11:19:56.94,149,-202,-2041,2,-4,33,-451,-321,-130,386
,594,2023-10-27 11:19:56.95,137,-196,-2048,3,9,32,-431,-371,-60,401
,595,2023-10-27 11:19:56.96,135,-188,-2040,4,9,35,-448,-320,-128,384
,596,2023-10-27 11:19:56.97,132,-181,-2047,6,14,35,-434,-376,-58,405
,597,2023-10-27 11:19:56.98,130,-196,-2054,7,12,36,-446,-318,-128,382
,598,2023-10-27 11:19:56.99,118,-181,-2059,10,7,40,-438,-378,-60,408
,599,2023-10-27 11:19:57.00,128,-183,-2054,13,2,38,-441,-313,-128,377
,600,2023-10-27 11:19:57.01,138,-179,-2046,15,2,37,-442,-382,-60,412
,601,2023-10-27 11:19:57.02,139,-171,-2044,15,2,34,-437,-312,-125,374
,602,2023-10-27 11:19:57.03,134,-182,-2048,12,8,30,-447,-383,-64,415
,603,2023-10-27 11:19:57.04,133,-179,-2055,11,6,23,-438,-310,-128,374
,604,2023-10-27 11:19:57.05,128,-185,-2054,12,3,19,-454,-386,-68,420
,605,2023-10-27 11:19:57.06,123,-183,-2055,16,-3,18,-436,-304,-132,370
,606,2023-10-27 11:19:57.07,125,-180,-2050,18,-8,18,-455,-388,-67,421
,607,2023-10-27 11:19:57.08,120,-189,-2047,17,-10,16,-435,-304,-131,369
,608,2023-10-27 11:19:57.09,121,-180,-2052,14,-11,15,-464,-392,-72,428
,609,2023-10-27 11:19:57.10,129,-187,-2048,13,-11,13,-438,-303,-135,370
,610,2023-10-27 11:19:57.11,126,-182,-2049,12,-12,13,-469,-392,-77,430
,611,2023-10-27 11:19:57.12,128,-187,-2045,5,-5,12,-428,-297,-131,362
,612,2023-10-27 11:19:57.13,126,-184,-2047,2,1,8,-466,-395,-71,430
,613,2023-10-27 11:19:57.14,113,-185,-2050,2,3,7,-423,-298,-125,360
,614,2023-10-27 11:19:57.15,129,-192,-2050,0,4,6,-473,-401,-72,437
,615,2023-10-27 11:19:57.16,116,-185,-2048,2,7,5,-421,-291,-130,356
,616,2023-10-27 11:19:57.17,119,-194,-2044,1,10,9,-476,-398,-78,437
,617,2023-10-27 11:19:57.18,134,-191,-2043,2,12,9,-413,-287,-126,350
,618,2023-10-27 11:19:57.19,130,-183,-2051,1,13,8,-481,-410,-71,445
,619,2023-10-27 11:19:57.20,120,-185,-2048,-1,17,8,-410,-287,-123,348
,620,2023-10-27 11:19:57.21,136,-184,-2056,2,17,5,-483,-406,-77,444
,621,2023-10-27 11:19:57.22,128,-183,-2053,4,17,6,-407,-282,-125,344
,622,2023-10-27 11:19:57.23,133,-184,-2050,6,16,3,-486,-406,-80,446
,623,2023-10-27 11:19:57.24,136,-185,-2045,8,20,5,-399,-280,-119,339
,624,2023-10-27 11:19:57.25,134,-186,-2047,12,22,6,-486,-407,-79,446
,625,2023-10-27 11:19:57.26,127,-187,-2044,11,27,7,-392,-275,-117,333
,626,2023-10-27 11:19:57.27,119,-188,-2047,12,28,7,-486,-407,-79,446
,627,2023-10-27 11:19:57.28,125,-185,-2051,16,29,6,-392,-277,-115,334
,628,2023-10-27 11:19:57.29,132,-187,-2047,22,34,6,-494,-414,-80,454
,629,2023-10-27 11:19:57.30,133,-187,-2041,26,32,5,-393,-287,-106,340
,630,2023-10-27 11:19:57.31,135,-181,-2049,24,36,5,-502,-425,-77,463
,631,2023-10-27 11:19:57.32,135,-181,-2051,22,33,7,-394,-288,-106,341
,632,2023-10-27 11:19:57.33,134,-174,-2059,26,26,7,-503,-426,-77,464
,633,2023-10-27 11:19:57.34,114,-189,-2070,28,13,11,-392,-286,-106,339
,634,2023-10-27 11:19:57.35,140,-182,-2064,33,3,11,-504,-426,-78,465
,635,2023-10-27 11:19:57.36,146,-184,-2057,37,-2,14,-384,-284,-100,334
,636,2023-10-27 11:19:57.37,177,-197,-2059,18,43,9,-503,-428,-75,465
,637,2023-10-27 11:19:57.38,82,-186,-2031,15,28,11,-377,-279,-98,328
,638,2023-10-27 11:19:57.39,167,-199,-2032,29,8,20,-506,-421,-85,463
,639,2023-10-27 11:19:57.40,157,-207,-2046,32,28,19,-378,-273,-105,325
,640,2023-10-27 11:19:57.41,146,-198,-2032,29,36,21,-509,-427,-82,468
,641,2023-10-27 11:19:57.42,155,-197,-2039,24,43,27,-375,-280,-95,327
,642,2023-10-27 11:19:57.43,149,-198,-2039,17,46,27,-510,-430,-80,470
,643,2023-10-27 11:19:57.44,153,-185,-2043,11,53,33,-369,-278,-91,323
,644,2023-10-27 11:19:57.45,128,-200,-2049,5,49,42,-508,-424,-84,466
,645,2023-10-27 11:19:57.46,152,-198,-2045,7,52,50,-356,-261,-95,308
,646,2023-10-27 11:19:57.47,141,-205,-2046,15,53,58,-498,-412,-86,455
,647,2023-10-27 11:19:57.48,142,-205,-2050,26,51,62,-339,-252,-87,295
,648,2023-10-27 11:19:57.49,151,-205,-2056,35,43,72,-493,-412,-81,452
,649,2023-10-27 11:19:57.50,155,-195,-2052,45,34,83,-345,-261,-84,303
,650,2023-10-27 11:19:57.51,168,-176,-2048,52,35,87,-514,-427,-87,470
,651,2023-10-27 11:19:57.52,178,-174,-2042,34,82,78,-353,-268,-85,310
,652,2023-10-27 11:19:57.53,142,-182,-2057,22,84,77,-513,-425,-88,469
,653,2023-10-27 11:19:57.54,157,-180,-2050,16,75,82,-355,-270,-85,312
,654,2023-10-27 11:19:57.55,139,-186,-2074,18,66,86,-516,-433,-83,474
,655,2023-10-27 11:19:57.56,136,-191,-2062,21,38,95,-346,-270,-76,308
,656,2023-10-27 11:19:57.57,150,-197,-2051,19,20,103,-515,-430,-85,472
,657,2023-10-27 11:19:57.58,165,-203,-2050,12,18,109,-351,-265,-86,308
,658,2023-10-27 11:19:57.59,155,-202,-2031,7,22,110,-524,-429,-95,476
,659,2023-10-27 11:19:57.60,168,-205,-2028,18,27,110,-353,-274,-79,313
,660,2023-10-27 11:19:57.61,179,-198,-2031,26,34,107,-522,-438,-84,480
,661,2023-10-27 11:19:57.62,148,-193,-2038,25,40,106,-354,-282,-72,318
,662,2023-10-27 11:19:57.63,165,-195,-2060,24,28,105,-529,-440,-89,484
,663,2023-10-27 11:19:57.64,169,-196,-2058,16,34,101,-363,-286,-77,324
,664,2023-10-27 11:19:57.65,150,-194,-2057,17,40,101,-537,-447,-90,492
,665,2023-10-27 11:19:57.66,131,-188,-2070,16,20,101,-362,-290,-72,326
,666,2023-10-27 11:19:57.67,130,-191,-2073,6,10,99,-536,-438,-98,487
,667,2023-10-27 11:19:57.68,125,-182,-2089,4,-23,104,-354,-277,-77,315
,668,2023-10-27 11:19:57.69,154,-188,-2076,1,-41,107,-533,-433,-100,483
,669,2023-10-27 11:19:57.70,162,-193,-2053,0,-38,100,-356,-282,-74,319
,670,2023-10-27 11:19:57.71,188,-185,-2029,-4,-16,88,-533,-438,-95,485
,671,2023-10-27 11:19:57.72,140,-195,-2032,-1,-8,73,-350,-283,-67,316
,672,2023-10-27 11:19:57.73,148,-213,-2042,11,-16,69,-532,-431,-101,481
,673,2023-10-27 11:19:57.74,164,-234,-2061,25,-15,64,-355,-283,-72,319
,674,2023-10-27 11:19:57.75,136,-196,-2050,41,-10,53,-534,-432,-102,483
,675,2023-10-27 11:19:57.76,168,-190,-2043,41,2,44,-351,-285,-66,318
,676,2023-10-27 11:19:57.77,145,-191,-2031,31,19,31,-522,-432,-90,477
,677,2023-10-27 11:19:57.78,139,-193,-2046,36,1,22,-333,-284,-49,308
,678,2023-10-27 11:19:57.79,140,-194,-2046,42,-6,12,-514,-419,-95,466
,679,2023-10-27 11:19:57.80,139,-183,-2053,48,-15,1,-327,-271,-56,299
,680,2023-10-27 11:19:57.81,139,-188,-2057,41,-21,-8,-504,-414,-90,459
,681,2023-10-27 11:19:57.82,136,-179,-2069,31,-24,-19,-312,-274,-38,293
,682,2023-10-27 11:19:57.83,150,-160,-2058,24,-26,-35,-488,-410,-78,449
,683,2023-10-27 11:19:57.84,140,-150,-2047,27,-26,-55,-297,-257,-40,277
,684,2023-10-27 11:19:57.85,170,-144,-2029,27,-26,-76,-471,-376,-95,423
,685,2023-10-27 11:19:57.86,151,-135,-2038,19,-14,-102,-280,-229,-51,254
,686,2023-10-27 11:19:57.87,165,-138,-2026,1,8,-129,-462,-359,-103,410
,687,2023-10-27 11:19:57.88,134,-165,-2052,-1,21,-145,-274,-218,-56,246
,688,2023-10-27 11:19:57.89,156,-177,-2030,1,19,-159,-450,-349,-101,399
,689,2023-10-27 11:19:57.90,128,-188,-2010,20,8,-163,-274,-225,-49,249
,690,2023-10-27 11:19:57.91,170,-200,-2015,40,-7,-165,-474,-363,-111,418
,691,2023-10-27 11:19:57.92,174,-196,-2014,50,16,-172,-318,-254,-64,286
,692,2023-10-27 11:19:57.93,171,-203,-2021,49,44,-178,-505,-388,-117,446
,693,2023-10-27 11:19:57.94,159,-219,-2034,48,60,-177,-340,-276,-64,308
,694,2023-10-27 11:19:57.95,163,-231,-2048,54,59,-168,-526,-411,-115,468
,695,2023-10-27 11:19:57.96,157,-246,-2056,67,58,-157,-356,-296,-60,326
,696,2023-10-27 11:19:57.97,158,-250,-2054,78,60,-143,-535,-419,-116,477
,697,2023-10-27 11:19:57.98,163,-257,-2059,76,66,-124,-368,-310,-58,339
,698,2023-10-27 11:19:57.99,155,-259,-2064,69,67,-106,-542,-427,-115,484
,699,2023-10-27 11:19:58.00,157,-257,-2067,68,57,-85,-361,-310,-51,335
,700,2023-10-27 11:19:58.01,144,-236,-2134,64,54,-57,-526,-419,-107,472
,701,2023-10-27 11:19:58.02,147,-269,-2064,52,21,-35,-361,-312,-49,336
,702,2023-10-27 11:19:58.03,167,-270,-2003,55,23,-15,-532,-423,-109,477
,703,2023-10-27 11:19:58.04,161,-256,-2023,62,43,3,-363,-320,-43,341
,704,2023-10-27 11:19:58.05,148,-261,-2060,59,43,17,-526,-422,-104,474
,705,2023-10-27 11:19:58.06,161,-254,-2050,54,36,35,-362,-320,-42,341
,706,2023-10-27 11:19:58.07,179,-253,-2037,57,34,51,-526,-417,-109,471
,707,2023-10-27 11:19:58.08,184,-300,-2024,66,36,73,-366,-322,-44,344
,708,2023-10-27 11:19:58.09,175,-259,-2006,80,60,75,-522,-414,-108,468
,709,2023-10-27 11:19:58.10,160,-248,-2042,71,75,82,-365,-326,-39,345
,710,2023-10-27 11:19:58.11,164,-244,-2033,53,72,94,-516,-410,-106,463
,711,2023-10-27 11:19:58.12,162,-235,-2048,48,66,102,-361,-324,-37,342
,712,2023-10-27 11:19:58.13,177,-235,-2057,49,54,105,-515,-412,-103,463
,713,2023-10-27 11:19:58.14,177,-229,-2040,48,48,109,-368,-336,-32,352
,714,2023-10-27 11:19:58.15,188,-224,-2022,39,49,108,-517,-412,-105,464
,715,2023-10-27 11:19:58.16,196,-226,-2025,27,61,105,-370,-335,-35,352
,716,2023-10-27 11:19:58.17,182,-201,-2060,15,64,97,-511,-402,-109,456
,717,2023-10-27 11:19:58.18,182,-211,-2081,-3,51,94,-371,-336,-35,353
,718,2023-10-27 11:19:58.19,194,-230,-2055,-5,37,92,-508,-402,-106,455
,719,2023-10-27 11:19:58.20,198,-223,-2040,8,41,84,-370,-338,-32,354
,720,2023-10-27 11:19:58.21,195,-220,-2044,21,46,71,-502,-394,-108,448
,721,2023-10-27 11:19:58.22,202,-213,-2079,5,49,66,-371,-336,-35,353
,722,2023-10-27 11:19:58.23,204,-225,-2047,-9,41,58,-503,-388,-115,445
,723,2023-10-27 11:19:58.24,215,-226,-2016,-4,47,44,-379,-338,-41,358
,724,2023-10-27 11:19:58.25,218,-219,-2010,23,65,30,-498,-382,-116,440
,725,2023-10-27 11:19:58.26,208,-218,-2034,36,69,16,-375,-338,-37,356
,726,2023-10-27 11:19:58.27,192,-220,-2044,31,68,9,-495,-379,-116,437
,727,2023-10-27 11:19:58.28,199,-235,-2026,34,59,3,-381,-341,-40,361
,728,2023-10-27 11:19:58.29,200,-225,-2009,50,51,-1,-491,-376,-115,433
,729,2023-10-27 11:19:58.30,192,-234,-2031,66,46,-3,-376,-340,-36,358
,730,2023-10-27 11:19:58.31,208,-247,-2044,69,45,-4,-492,-373,-119,432
,731,2023-10-27 11:19:58.32,207,-258,-2034,66,44,-1,-389,-347,-42,368
,732,2023-10-27 11:19:58.33,223,-269,-2030,70,46,0,-497,-382,-115,439
,733,2023-10-27 11:19:58.34,209,-275,-2055,70,46,5,-393,-350,-43,371
,734,2023-10-27 11:19:58.35,194,-262,-2051,68,43,10,-488,-374,-114,431
,735,2023-10-27 11:19:58.36,204,-258,-2070,55,40,21,-400,-364,-36,382
,736,2023-10-27 11:19:58.37,179,-261,-2063,41,23,33,-489,-383,-106,436
,737,2023-10-27 11:19:58.38,209,-260,-2043,39,14,40,-407,-375,-32,391
,738,2023-10-27 11:19:58.39,201,-263,-2056,40,6,47,-481,-376,-105,428
,739,2023-10-27 11:19:58.40,183,-266,-2051,30,-10,56,-399,-369,-30,384
,740,2023-10-27 11:19:58.41,191,-256,-2048,23,-24,63,-472,-361,-111,416
,741,2023-10-27 11:19:58.42,200,-255,-2042,22,-36,67,-402,-362,-40,382
,742,2023-10-27 11:19:58.43,196,-258,-2043,27,-46,68,-464,-353,-111,408
,743,2023-10-27 11:19:58.44,187,-265,-2041,31,-47,68,-398,-366,-32,382
,744,2023-10-27 11:19:58.45,188,-264,-2037,34,-44,69,-464,-355,-109,409
,745,2023-10-27 11:19:58.46,186,-257,-2077,16,-55,69,-408,-374,-34,391
,746,2023-10-27 11:19:58.47,188,-256,-2067,6,-68,71,-462,-355,-107,408
,747,2023-10-27 11:19:58.48,193,-251,-2031,19,-65,65,-416,-379,-37,397
,748,2023-10-27 11:19:58.49,196,-258,-2029,30,-61,63,-458,-344,-114,401
,749,2023-10-27 11:19:58.50,192,-252,-2029,21,-61,58,-417,-374,-43,395
,750,2023-10-27 11:19:58.51,191,-250,-2025,10,-48,55,-453,-337,-116,395
,751,2023-10-27 11:19:58.52,213,-260,-2055,8,-25,48,-416,-373,-43,394
,752,2023-10-27 11:19:58.53,176,-271,-2025,3,1,38,-446,-335,-111,390
,753,2023-10-27 11:19:58.54,169,-261,-2024,5,-10,43,-416,-377,-39,396
,754,2023-10-27 11:19:58.55,191,-278,-2023,-3,-9,47,-446,-333,-113,389
,755,2023-10-27 11:19:58.56,158,-264,-2029,-2,-8,49,-432,-384,-48,408
,756,2023-10-27 11:19:58.57,187,-271,-2041,7,-26,56,-460,-340,-120,400
,757,2023-10-27 11:19:58.58,179,-267,-2050,5,-11,62,-453,-396,-57,424
,758,2023-10-27 11:19:58.59,162,-269,-2040,-8,13,61,-463,-339,-124,401
,759,2023-10-27 11:19:58.60,147,-264,-2035,-14,7,63,-455,-399,-56,427
,760,2023-10-27 11:19:58.61,187,-264,-2049,-13,-4,68,-458,-335,-123,396
,761,2023-10-27 11:19:58.62,171,-258,-2053,-14,1,69,-453,-397,-56,425
,762,2023-10-27 11:19:58.63,178,-243,-2049,-18,0,68,-447,-324,-123,385
,763,2023-10-27 11:19:58.64,184,-245,-2045,-26,5,65,-449,-396,-53,422
,764,2023-10-27 11:19:58.65,193,-244,-2042,-30,13,60,-432,-321,-111,376
,765,2023-10-27 11:19:58.66,194,-242,-2039,-32,18,51,-444,-397,-47,420
,766,2023-10-27 11:19:58.67,184,-237,-2044,-30,20,44,-431,-315,-116,373
,767,2023-10-27 11:19:58.68,186,-243,-2047,-36,20,36,-460,-399,-61,429
,768,2023-10-27 11:19:58.69,190,-236,-2037,-40,26,31,-437,-316,-121,376
,769,2023-10-27 11:19:58.70,192,-237,-2038,-42,29,27,-463,-406,-57,434
,770,2023-10-27 11:19:58.71,194,-234,-2036,-46,29,21,-417,-303,-114,360
,771,2023-10-27 11:19:58.72,181,-242,-2045,-44,28,20,-459,-402,-57,430
,772,2023-10-27 11:19:58.73,188,-243,-2043,-42,25,17,-421,-309,-112,365
,773,2023-10-27 11:19:58.74,194,-247,-2030,-37,29,16,-477,-420,-57,448
,774,2023-10-27 11:19:58.75,188,-241,-2035,-37,33,14,-418,-306,-112,362
,775,2023-10-27 11:19:58.76,168,-230,-2039,-39,28,14,-471,-406,-65,438
,776,2023-10-27 11:19:58.77,188,-224,-2051,-42,19,14,-413,-299,-114,356
,777,2023-10-27 11:19:58.78,178,-215,-2049,-47,2,18,-478,-414,-64,446
,778,2023-10-27 11:19:58.79,178,-219,-2046,-47,-15,21,-416,-304,-112,360
,779,2023-10-27 11:19:58.80,174,-227,-2043,-51,-29,23,-485,-421,-64,453
,780,2023-10-27 11:19:58.81,188,-230,-2042,-52,-39,30,-414,-308,-106,361
,781,2023-10-27 11:19:58.82,176,-233,-2049,-54,-45,35,-489,-424,-65,456
,782,2023-10-27 11:19:58.83,181,-228,-2057,-53,-43,41,-415,-308,-107,361
,783,2023-10-27 11:19:58.84,228,-238,-2054,-80,6,36,-491,-425,-66,458
,784,2023-10-27 11:19:58.85,136,-224,-2042,-84,0,40,-409,-305,-104,357
,785,2023-10-27 11:19:58.86,199,-244,-2050,-76,-31,54,-493,-430,-63,461
,786,2023-10-27 11:19:58.87,177,-224,-2056,-76,-11,59,-403,-302,-101,352
,787,2023-10-27 11:19:58.88,180,-216,-2037,-69,-19,63,-492,-427,-65,459
,788,2023-10-27 11:19:58.89,181,-223,-2036,-66,-29,70,-390,-286,-104,338
,789,2023-10-27 11:19:58.90,190,-218,-2041,-67,-11,69,-485,-414,-71,449
,790,2023-10-27 11:19:58.91,174,-218,-2042,-60,-6,70,-386,-280,-106,333
,791,2023-10-27 11:19:58.92,177,-216,-2044,-54,-7,70,-497,-422,-75,459
,792,2023-10-27 11:19:58.93,182,-211,-2047,-48,-8,71,-390,-286,-104,338
,793,2023-10-27 11:19:58.94,185,-202,-2047,-33,-12,68,-497,-422,-75,459
,794,2023-10-27 11:19:58.95,185,-205,-2040,-22,-16,65,-382,-274,-108,328
,795,2023-10-27 11:19:58.96,173,-204,-2043,-16,-12,63,-499,-420,-79,459
,796,2023-10-27 11:19:58.97,180,-214,-2033,-7,-8,59,-372,-272,-100,322
,797,2023-10-27 11:19:58.98,170,-217,-2038,-2,-5,62,-497,-420,-77,458
,798,2023-10-27 11:19:58.99,165,-213,-2048,0,0,60,-376,-271,-105,323
,799,2023-10-27 11:19:59.00,151,-210,-2045,0,-3,65,-504,-421,-83,462
,800,2023-10-27 11:19:59.01,159,-203,-2049,-4,-10,70,-370,-270,-100,320
,801,2023-10-27 11:19:59.02,166,-198,-2047,-5,-8,74,-501,-421,-80,461
,802,2023-10-27 11:19:59.03,156,-200,-2052,-11,-11,77,-366,-270,-96,318
,803,2023-10-27 11:19:59.04,164,-213,-2043,-18,-22,81,-502,-426,-76,464
,804,2023-10-27 11:19:59.05,167,-224,-2052,-20,-20,86,-360,-267,-93,313
,805,2023-10-27 11:19:59.06,162,-217,-2034,-6,-28,85,-504,-421,-83,462
,806,2023-10-27 11:19:59.07,179,-213,-2024,4,-26,87,-365,-266,-99,315
,807,2023-10-27 11:19:59.08,181,-212,-2030,-1,-8,83,-515,-425,-90,470
,808,2023-10-27 11:19:59.09,186,-217,-2044,-7,10,80,-369,-272,-97,320
,809,2023-10-27 11:19:59.10,169,-198,-2051,-9,21,75,-515,-434,-81,474
,810,2023-10-27 11:19:59.11,175,-202,-2058,-9,23,71,-362,-274,-88,318
,811,2023-10-27 11:19:59.12,174,-201,-2054,-13,21,69,-508,-427,-81,467
,812,2023-10-27 11:19:59.13,170,-202,-2042,-20,23,62,-351,-268,-83,309
,813,2023-10-27 11:19:59.14,173,-204,-2052,-19,26,55,-507,-425,-82,466
,814,2023-10-27 11:19:59.15,175,-210,-2043,-16,22,54,-351,-273,-78,312
,815,2023-10-27 11:19:59.16,187,-216,-2041,-12,16,52,-499,-426,-73,462
,816,2023-10-27 11:19:59.17,170,-214,-2037,-7,10,52,-330,-259,-71,294
,817,2023-10-27 11:19:59.18,170,-189,-2033,-4,6,48,-491,-414,-77,452
,818,2023-10-27 11:19:59.19,166,-203,-2067,-15,-1,51,-328,-261,-67,294
,819,2023-10-27 11:19:59.20,164,-188,-2062,-22,-28,57,-492,-425,-67,458
,820,2023-10-27 11:19:59.21,167,-196,-2055,-19,-46,58,-312,-262,-50,287
,821,2023-10-27 11:19:59.22,161,-208,-2064,-12,-61,63,-481,-419,-62,450
,822,2023-10-27 11:19:59.23,157,-208,-2049,-13,-74,66,-305,-254,-51,279
,823,2023-10-27 11:19:59.24,175,-202,-2054,-15,-71,66,-485,-418,-67,451
,824,2023-10-27 11:19:59.25,154,-201,-2055,-17,-52,64,-305,-255,-50,280
,825,2023-10-27 11:19:59.26,137,-199,-2059,-25,-60,66,-486,-417,-69,451
,826,2023-10-27 11:19:59.27,155,-194,-2070,-32,-66,73,-310,-257,-53,283
,827,2023-10-27 11:19:59.28,147,-210,-2056,-36,-60,70,-490,-415,-75,452
,828,2023-10-27 11:19:59.29,160,-196,-2040,-31,-56,74,-308,-257,-51,282
,829,2023-10-27 11:19:59.30,152,-206,-2025,-21,-59,74,-492,-418,-74,455
,830,2023-10-27 11:19:59.31,152,-192,-2025,-23,-45,71,-311,-261,-50,286
,831,2023-10-27 11:19:59.32,152,-193,-2036,-27,-27,65,-494,-419,-75,456
,832,2023-10-27 11:19:59.33,150,-202,-2043,-21,-21,64,-315,-263,-52,289
,833,2023-10-27 11:19:59.34,146,-196,-2054,-16,-14,63,-500,-419,-81,459
,834,2023-10-27 11:19:59.35,141,-187,-2048,-9,-14,64,-315,-268,-47,291
,835,2023-10-27 11:19:59.36,139,-180,-2050,-15,-13,59,-502,-422,-80,462
,836,2023-10-27 11:19:59.37,152,-179,-2037,-23,-9,59,-319,-268,-51,293
,837,2023-10-27 11:19:59.38,149,-188,-2032,-25,0,52,-504,-422,-82,463
,838,2023-10-27 11:19:59.39,148,-192,-2039,-20,6,49,-323,-272,-51,297
,839,2023-10-27 11:19:59.40,151,-188,-2037,-18,9,43,-509,-425,-84,467
,840,2023-10-27 11:19:59.41,153,-192,-2031,-19,11,39,-326,-279,-47,302
,841,2023-10-27 11:19:59.42,152,-190,-2044,-13,15,36,-517,-431,-86,474
,842,2023-10-27 11:19:59.43,147,-187,-2052,-8,18,29,-337,-289,-48,313
,843,2023-10-27 11:19:59.44,146,-181,-2050,-8,23,26,-524,-435,-89,479
,844,2023-10-27 11:19:59.45,157,-178,-2055,-5,25,19,-343,-290,-53,316
,845,2023-10-27 11:19:59.46,137,-176,-2056,-6,23,12,-521,-427,-94,474
,846,2023-10-27 11:19:59.47,143,-177,-2052,-4,19,8,-325,-279,-46,302
,847,2023-10-27 11:19:59.48,154,-178,-2055,-5,14,3,-512,-418,-94,465
,848,2023-10-27 11:19:59.49,145,-180,-2056,-6,7,-3,-336,-288,-48,312
,849,2023-10-27 11:19:59.50,150,-192,-2044,0,0,-7,-526,-432,-94,479
,850,2023-10-27 11:19:59.51,148,-195,-2039,11,-5,-7,-345,-301,-44,323
,851,2023-10-27 11:19:59.52,155,-207,-2037,20,-5,-8,-528,-434,-94,481
,852,2023-10-27 11:19:59.53,146,-201,-2031,22,-1,-6,-340,-296,-44,318
,853,2023-10-27 11:19:59.54,148,-197,-2043,24,5,-3,-533,-427,-106,480
,854,2023-10-27 11:19:59.55,151,-201,-2034,22,9,1,-357,-299,-58,328
,855,2023-10-27 11:19:59.56,188,-196,-2072,13,27,5,-551,-438,-113,494
,856,2023-10-27 11:19:59.57,124,-204,-2013,-11,80,-9,-374,-308,-66,341
,857,2023-10-27 11:19:59.58,122,-183,-2035,-9,47,8,-551,-430,-121,490
,858,2023-10-27 11:19:59.59,169,-205,-2043,-5,30,20,-376,-308,-68,342
,859,2023-10-27 11:19:59.60,146,-189,-2061,-4,26,28,-548,-424,-124,486
,860,2023-10-27 11:19:59.61,158,-192,-2046,-2,23,34,-376,-310,-66,343
,861,2023-10-27 11:19:59.62,157,-189,-2046,-10,32,39,-548,-426,-122,487
,862,2023-10-27 11:19:59.63,146,-195,-2051,-16,37,39,-375,-315,-60,345
,863,2023-10-27 11:19:59.64,149,-187,-2054,-11,36,41,-541,-424,-117,482
,864,2023-10-27 11:19:59.65,161,-188,-2054,6,28,44,-378,-319,-59,348
,865,2023-10-27 11:19:59.66,163,-184,-2040,18,22,44,-539,-419,-120,479
,866,2023-10-27 11:19:59.67,160,-185,-2046,24,22,43,-371,-313,-58,342
,867,2023-10-27 11:19:59.68,167,-184,-2044,10,60,36,-534,-415,-119,474
,868,2023-10-27 11:19:59.69,145,-179,-2053,13,52,36,-376,-325,-51,350
,869,2023-10-27 11:19:59.70,168,-184,-2048,33,28,33,-531,-419,-112,475
,870,2023-10-27 11:19:59.71,149,-177,-2035,45,26,28,-370,-331,-39,350
,871,2023-10-27 11:19:59.72,154,-176,-2045,59,6,29,-528,-421,-107,474
,872,2023-10-27 11:19:59.73,167,-182,-2051,64,8,21,-377,-334,-43,355
,873,2023-10-27 11:19:59.74,144,-184,-2052,50,40,12,-527,-416,-111,471
,874,2023-10-27 11:19:59.75,138,-177,-2055,46,29,11,-378,-335,-43,356
,875,2023-10-27 11:19:59.76,157,-191,-2066,49,10,12,-526,-419,-107,472
,876,2023-10-27 11:19:59.77,145,-201,-2061,49,22,8,-380,-347,-33,363
,877,2023-10-27 11:19:59.78,130,-187,-2050,50,10,7,-524,-419,-105,471
,878,2023-10-27 11:19:59.79,164,-190,-2060,44,12,8,-384,-349,-35,366
,879,2023-10-27 11:19:59.80,144,-194,-2060,39,14,4,-523,-414,-109,468
,880,2023-10-27 11:19:59.81,140,-191,-2049,43,-11,8,-388,-348,-40,368
,881,2023-10-27 11:19:59.82,159,-203,-2046,48,-21,13,-521,-409,-112,465
,882,2023-10-27 11:19:59.83,154,-209,-2049,42,-6,11,-395,-350,-45,372
,883,2023-10-27 11:19:59.84,148,-209,-2033,30,7,15,-523,-402,-121,462
,884,2023-10-27 11:19:59.85,149,-210,-2036,25,13,15,-393,-347,-46,370
,885,2023-10-27 11:19:59.86,146,-227,-2048,26,15,17,-511,-395,-116,453
,886,2023-10-27 11:19:59.87,165,-204,-2032,33,8,22,-390,-351,-39,370
,887,2023-10-27 11:19:59.88,154,-206,-2026,34,5,25,-508,-390,-118,449
,888,2023-10-27 11:19:59.89,161,-221,-2036,30,16,27,-394,-352,-42,373
,889,2023-10-27 11:19:59.90,132,-215,-2047,30,13,28,-504,-388,-116,446
,890,2023-10-27 11:19:59.91,163,-213,-2044,29,10,30,-388,-353,-35,370
,891,2023-10-27 11:19:59.92,151,-207,-2049,34,10,32,-486,-372,-114,429
,892,2023-10-27 11:19:59.93,174,-198,-2047,31,13,31,-377,-338,-39,357
,893,2023-10-27 11:19:59.94,162,-199,-2051,20,24,21,-478,-360,-118,419
,894,2023-10-27 11:19:59.95,170,-202,-2057,13,36,16,-388,-344,-44,366
,895,2023-10-27 11:19:59.96,166,-203,-2055,9,36,13,-488,-360,-128,424
,896,2023-10-27 11:19:59.97,172,-208,-2041,15,35,11,-407,-360,-47,383
,897,2023-10-27 11:19:59.98,184,-198,-2041,16,36,5,-489,-367,-122,428
,898,2023-10-27 11:19:59.99,185,-194,-2034,11,41,1,-404,-360,-44,382
,899,2023-10-27 11:20:00.00,178,-192,-2035,6,47,-5,-491,-366,-125,428
,900,2023-10-27 11:20:00.01,180,-195,-2038,2,57,-11,-407,-354,-53,380
,901,2023-10-27 11:20:00.02,180,-198,-2043,2,56,-12,-489,-356,-133,422
,902,2023-10-27 11:20:00.03,175,-197,-2047,0,53,-10,-417,-363,-54,390
,903,2023-10-27 11:20:00.04,197,-210,-2047,3,55,-12,-477,-354,-123,415
,904,2023-10-27 11:20:00.05,198,-209,-2038,9,60,-13,-407,-359,-48,383
,905,2023-10-27 11:20:00.06,181,-207,-2020,13,59,-13,-467,-343,-124,405
,906,2023-10-27 11:20:00.07,192,-213,-2038,27,27,-1,-406,-360,-46,383
,907,2023-10-27 11:20:00.08,219,-212,-2031,34,30,0,-457,-337,-120,397
,908,2023-10-27 11:20:00.09,207,-191,-2045,28,63,-7,-402,-357,-45,379
,909,2023-10-27 11:20:00.10,182,-191,-2038,28,47,-7,-455,-328,-127,391
,910,2023-10-27 11:20:00.11,233,-188,-2053,19,50,-8,-412,-358,-54,385
,911,2023-10-27 11:20:00.12,196,-195,-2066,5,68,-13,-458,-329,-129,393
,912,2023-10-27 11:20:00.13,186,-203,-2062,1,44,-12,-415,-361,-54,388
,913,2023-10-27 11:20:00.14,197,-204,-2063,2,19,-8,-458,-327,-131,392
,914,2023-10-27 11:20:00.15,189,-199,-2058,3,2,-3,-427,-368,-59,397
,915,2023-10-27 11:20:00.16,178,-210,-2059,4,-16,2,-455,-331,-124,393
,916,2023-10-27 11:20:00.17,183,-211,-2060,6,-31,6,-426,-373,-53,399
,917,2023-10-27 11:20:00.18,180,-208,-2050,6,-44,15,-454,-328,-126,391
,918,2023-10-27 11:20:00.19,175,-228,-2064,8,-54,23,-438,-381,-57,409
,919,2023-10-27 11:20:00.20,178,-220,-2059,11,-67,33,-452,-328,-124,390
,920,2023-10-27 11:20:00.21,193,-216,-2037,12,-67,37,-440,-385,-55,412
,921,2023-10-27 11:20:00.22,194,-218,-2063,9,-50,42,-452,-328,-124,390
,922,2023-10-27 11:20:00.23,172,-235,-2031,-8,-22,33,-450,-392,-58,421
,923,2023-10-27 11:20:00.24,168,-214,-2042,-4,-40,43,-441,-316,-125,378
,924,2023-10-27 11:20:00.25,186,-224,-2040,11,-43,52,-439,-381,-58,410
,925,2023-10-27 11:20:00.26,187,-218,-2055,9,-25,51,-439,-312,-127,375
,926,2023-10-27 11:20:00.27,158,-212,-2037,13,-37,55,-452,-388,-64,420
,927,2023-10-27 11:20:00.28,178,-216,-2035,15,-28,58,-435,-310,-125,372
,928,2023-10-27 11:20:00.29,169,-209,-2042,11,-14,54,-451,-386,-65,418
,929,2023-10-27 11:20:00.30,178,-202,-2037,16,-17,52,-434,-309,-125,371
,930,2023-10-27 11:20:00.31,188,-197,-2030,15,-13,49,-457,-396,-61,426
,931,2023-10-27 11:20:00.32,189,-194,-2032,12,0,42,-426,-306,-120,366
,932,2023-10-27 11:20:00.33,177,-194,-2035,11,9,33,-460,-396,-64,428
,933,2023-10-27 11:20:00.34,176,-188,-2048,8,13,26,-430,-304,-126,367
,934,2023-10-27 11:20:00.35,181,-196,-2043,9,15,20,-463,-396,-67,429
,935,2023-10-27 11:20:00.36,178,-199,-2037,9,18,13,-430,-306,-124,368
,936,2023-10-27 11:20:00.37,186,-203,-2041,10,22,8,-478,-407,-71,442
,937,2023-10-27 11:20:00.38,179,-200,-2040,7,22,0,-435,-314,-121,374
,938,2023-10-27 11:20:00.39,173,-201,-2049,7,22,-6,-475,-407,-68,441
,939,2023-10-27 11:20:00.40,180,-201,-2051,8,18,-7,-416,-296,-120,356
,940,2023-10-27 11:20:00.41,181,-197,-2046,10,15,-11,-474,-403,-71,438
,941,2023-10-27 11:20:00.42,180,-205,-2040,8,10,-16,-400,-283,-117,341
,942,2023-10-27 11:20:00.43,177,-211,-2044,9,11,-15,-461,-395,-66,428
,943,2023-10-27 11:20:00.44,187,-211,-2044,9,9,-18,-393,-278,-115,335
,944,2023-10-27 11:20:00.45,191,-211,-2030,10,12,-21,-470,-400,-70,435
,945,2023-10-27 11:20:00.46,191,-211,-2031,13,14,-23,-393,-281,-112,337
,946,2023-10-27 11:20:00.47,183,-215,-2039,14,17,-23,-473,-403,-70,438
,947,2023-10-27 11:20:00.48,182,-216,-2048,10,18,-23,-387,-278,-109,332
,948,2023-10-27 11:20:00.49,175,-223,-2054,12,13,-23,-475,-404,-71,439
,949,2023-10-27 11:20:00.50,184,-218,-2057,14,6,-17,-389,-275,-114,332
,950,2023-10-27 11:20:00.51,169,-223,-2054,13,0,-11,-480,-404,-76,442
,951,2023-10-27 11:20:00.52,174,-225,-2053,9,-4,-4,-384,-272,-112,328
,952,2023-10-27 11:20:00.53,171,-226,-2057,4,-9,2,-484,-410,-74,447
,953,2023-10-27 11:20:00.54,176,-229,-2051,-3,-15,17,-379,-272,-107,325
,954,2023-10-27 11:20:00.55,172,-230,-2056,-5,-20,24,-489,-406,-83,447
,955,2023-10-27 11:20:00.56,176,-221,-2051,-5,-21,33,-384,-267,-117,325
,956,2023-10-27 11:20:00.57,181,-229,-2057,-6,-22,36,-494,-411,-83,452
,957,2023-10-27 11:20:00.58,179,-220,-2053,-5,-23,40,-376,-265,-111,320
,958,2023-10-27 11:20:00.59,177,-214,-2045,-5,-17,41,-492,-412,-80,452
,959,2023-10-27 11:20:00.60,183,-211,-2038,-4,-15,40,-378,-269,-109,323
,960,2023-10-27 11:20:00.61,181,-211,-2046,-5,-10,38,-495,-413,-82,454
,961,2023-10-27 11:20:00.62,176,-212,-2038,-4,-3,34,-370,-264,-106,317
,962,2023-10-27 11:20:00.63,167,-207,-2029,-3,-2,31,-495,-410,-85,452
,963,2023-10-27 11:20:00.64,169,-201,-2043,-3,-4,28,-365,-260,-105,312
,964,2023-10-27 11:20:00.65,160,-204,-2042,-2,-10,24,-493,-412,-81,452
,965,2023-10-27 11:20:00.66,182,-198,-2048,-1,-11,21,-361,-256,-105,308
,966,2023-10-27 11:20:00.67,168,-191,-2030,3,-10,14,-500,-414,-86,457
,967,2023-10-27 11:20:00.68,173,-195,-2046,-1,-8,6,-361,-260,-101,310
,968,2023-10-27 11:20:00.69,166,-220,-2045,-15,16,0,-498,-416,-82,457
,969,2023-10-27 11:20:00.70,153,-202,-2052,-12,-3,4,-357,-256,-101,306
,970,2023-10-27 11:20:00.71,182,-219,-2043,-9,-13,7,-503,-415,-88,459
,971,2023-10-27 11:20:00.72,185,-201,-2032,-19,9,5,-352,-256,-96,304
,972,2023-10-27 11:20:00.73,151,-201,-2030,-27,10,6,-496,-413,-83,454
,973,2023-10-27 11:20:00.74,176,-201,-2029,-35,13,6,-347,-256,-91,301
,974,2023-10-27 11:20:00.75,174,-191,-2045,-41,22,5,-504,-419,-85,461
,975,2023-10-27 11:20:00.76,164,-192,-2044,-45,19,5,-341,-254,-87,297
,976,2023-10-27 11:20:00.77,162,-191,-2050,-51,23,6,-509,-424,-85,466
,977,2023-10-27 11:20:00.78,167,-196,-2052,-58,26,7,-351,-267,-84,309
,978,2023-10-27 11:20:00.79,173,-189,-2054,-60,21,6,-519,-438,-81,478
,979,2023-10-27 11:20:00.80,168,-188,-2057,-57,16,8,-345,-262,-83,303
,980,2023-10-27 11:20:00.81,165,-197,-2052,-56,13,9,-510,-423,-87,466
,981,2023-10-27 11:20:00.82,162,-189,-2058,-55,9,9,-346,-261,-85,303
,982,2023-10-27 11:20:00.83,171,-180,-2049,-55,4,9,-515,-427,-88,471
,983,2023-10-27 11:20:00.84,162,-186,-2042,-50,4,9,-342,-263,-79,302
,984,2023-10-27 11:20:00.85,174,-190,-2052,-46,6,8,-523,-429,-94,476
,985,2023-10-27 11:20:00.86,173,-183,-2042,-45,5,6,-343,-263,-80,303
,986,2023-10-27 11:20:00.87,174,-184,-2046,-43,3,4,-515,-425,-90,470
,987,2023-10-27 11:20:00.88,178,-186,-2048,-40,4,5,-339,-261,-78,300
,988,2023-10-27 11:20:00.89,176,-186,-2048,-37,1,5,-517,-422,-95,469
,989,2023-10-27 11:20:00.90,181,-180,-2047,-35,2,4,-338,-259,-79,298
,990,2023-10-27 11:20:00.91,166,-185,-2045,-34,5,2,-511,-418,-93,464
,991,2023-10-27 11:20:00.92,172,-187,-2056,-35,6,8,-330,-250,-80,290
,992,2023-10-27 11:20:00.93,169,-192,-2050,-30,1,10,-512,-412,-100,462
,993,2023-10-27 11:20:00.94,174,-188,-2048,-29,5,10,-334,-258,-76,296
,994,2023-10-27 11:20:00.95,178,-182,-2042,-28,8,13,-515,-415,-100,465
,995,2023-10-27 11:20:00.96,174,-180,-2044,-31,12,16,-333,-256,-77,294
,996,2023-10-27 11:20:00.97,182,-179,-2051,-33,16,14,-516,-413,-103,464
,997,2023-10-27 11:20:00.98,167,-177,-2046,-33,19,14,-335,-261,-74,298
,998,2023-10-27 11:20:00.99,173,-183,-2054,-32,22,14,-517,-413,-104,465
,999,2023-10-27 11:20:01.00,168,-179,-2054,-33,22,14,-333,-260,-73,296
,1000,2023-10-27 11:20:01.01,168,-175,-2054,-33,22,17,-519,-416,-103,467
,1001,2023-10-27 11:20:01.02,170,-167,-2048,-36,22,16,-330,-266,-64,298
,1002,2023-10-27 11:20:01.03,175,-160,-2047,-39,23,14,-517,-418,-99,467
,1003,2023-10-27 11:20:01.04,177,-162,-2043,-39,25,10,-334,-265,-69,299
,1004,2023-10-27 11:20:01.05,177,-160,-2047,-43,24,7,-520,-418,-102,469
,1005,2023-10-27 11:20:01.06,180,-157,-2046,-43,19,4,-333,-269,-64,301
,1006,2023-10-27 11:20:01.07,185,-158,-2039,-44,17,2,-514,-411,-103,462
,1007,2023-10-27 11:20:01.08,176,-158,-2052,-44,16,-2,-333,-268,-65,300
,1008,2023-10-27 11:20:01.09,174,-158,-2047,-44,19,-4,-520,-411,-109,465
,1009,2023-10-27 11:20:01.10,177,-154,-2045,-45,16,-5,-331,-269,-62,300
,1010,2023-10-27 11:20:01.11,174,-157,-2052,-46,16,-7,-517,-406,-111,461
,1011,2023-10-27 11:20:01.12,179,-155,-2054,-46,14,-10,-332,-266,-66,299
,1012,2023-10-27 11:20:01.13,182,-164,-2052,-44,12,-8,-516,-408,-108,462
,1013,2023-10-27 11:20:01.14,180,-162,-2062,-40,9,-7,-329,-271,-58,300
,1014,2023-10-27 11:20:01.15,171,-155,-2051,-40,8,-5,-514,-405,-109,459
,1015,2023-10-27 11:20:01.16,186,-161,-2054,-40,7,-3,-333,-274,-59,303
,1016,2023-10-27 11:20:01.17,178,-156,-2048,-40,6,-3,-507,-399,-108,453
,1017,2023-10-27 11:20:01.18,187,-162,-2051,-37,8,-2,-333,-280,-53,306
,1018,2023-10-27 11:20:01.19,178,-154,-2054,-38,10,-2,-516,-404,-112,460
,1019,2023-10-27 11:20:01.20,176,-156,-2052,-34,10,2,-341,-289,-52,315
,1020,2023-10-27 11:20:01.21,175,-142,-2063,-31,7,1,-511,-405,-106,458
,1021,2023-10-27 11:20:01.22,185,-144,-2058,-29,0,5,-333,-284,-49,308
,1022,2023-10-27 11:20:01.23,171,-140,-2051,-29,-4,5,-511,-400,-111,455
,1023,2023-10-27 11:20:01.24,185,-143,-2053,-28,-9,6,-338,-285,-53,311
,1024,2023-10-27 11:20:01.25,178,-148,-2053,-27,-12,6,-512,-400,-112,456
,1025,2023-10-27 11:20:01.26,167,-149,-2047,-27,-10,7,-347,-293,-54,320
,1026,2023-10-27 11:20:01.27,179,-152,-2056,-27,-8,9,-512,-399,-113,455
,1027,2023-10-27 11:20:01.28,171,-153,-2054,-24,-11,10,-339,-292,-47,315
,1028,2023-10-27 11:20:01.29,182,-143,-2055,-21,-14,15,-503,-394,-109,448
,1029,2023-10-27 11:20:01.30,182,-148,-2044,-18,-8,15,-338,-288,-50,313
,1030,2023-10-27 11:20:01.31,186,-145,-2038,-17,-1,14,-506,-392,-114,449
,1031,2023-10-27 11:20:01.32,179,-144,-2042,-20,7,11,-341,-294,-47,317
,1032,2023-10-27 11:20:01.33,189,-141,-2041,-20,8,12,-506,-385,-121,445
,1033,2023-10-27 11:20:01.34,182,-140,-2049,-17,13,12,-343,-291,-52,317
,1034,2023-10-27 11:20:01.35,185,-144,-2046,-13,11,12,-504,-389,-115,446
,1035,2023-10-27 11:20:01.36,174,-142,-2057,-13,16,13,-342,-296,-46,319
,1036,2023-10-27 11:20:01.37,178,-146,-2060,-11,13,15,-503,-385,-118,444
,1037,2023-10-27 11:20:01.38,185,-143,-2049,-7,15,13,-352,-303,-49,327
,1038,2023-10-27 11:20:01.39,180,-133,-2048,-6,18,13,-504,-384,-120,444
,1039,2023-10-27 11:20:01.40,181,-131,-2055,-8,20,11,-352,-306,-46,329
,1040,2023-10-27 11:20:01.41,169,-140,-2063,-9,21,6,-504,-385,-119,444
,1041,2023-10-27 11:20:01.42,171,-135,-2066,-7,15,5,-358,-316,-42,337
,1042,2023-10-27 11:20:01.43,183,-136,-2059,-1,5,6,-504,-391,-113,447
,1043,2023-10-27 11:20:01.44,180,-137,-2056,5,0,8,-358,-315,-43,336
,1044,2023-10-27 11:20:01.45,177,-142,-2052,2,-9,11,-501,-382,-119,441
,1045,2023-10-27 11:20:01.46,167,-139,-2052,0,-8,14,-363,-320,-43,341
,1046,2023-10-27 11:20:01.47,174,-136,-2053,0,-10,18,-497,-381,-116,439
,1047,2023-10-27 11:20:01.48,184,-140,-2048,1,-11,22,-361,-321,-40,341
,1048,2023-10-27 11:20:01.49,182,-129,-2038,0,-12,22,-494,-380,-114,437
,1049,2023-10-27 11:20:01.50,183,-139,-2046,-2,-9,25,-369,-330,-39,349
,1050,2023-10-27 11:20:01.51,179,-140,-2047,-7,-6,25,-493,-375,-118,434
,1051,2023-10-27 11:20:01.52,181,-142,-2052,-3,-5,28,-372,-329,-43,350
,1052,2023-10-27 11:20:01.53,168,-141,-2055,-3,-2,31,-492,-373,-119,432
,1053,2023-10-27 11:20:01.54,182,-139,-2047,-3,3,34,-374,-330,-44,352
,1054,2023-10-27 11:20:01.55,173,-134,-2053,3,3,35,-489,-364,-125,426
,1055,2023-10-27 11:20:01.56,181,-132,-2059,5,5,33,-379,-330,-49,354
,1056,2023-10-27 11:20:01.57,187,-132,-2054,10,9,34,-489,-362,-127,425
,1057,2023-10-27 11:20:01.58,184,-128,-2052,13,15,32,-368,-320,-48,344
,1058,2023-10-27 11:20:01.59,187,-132,-2051,14,18,27,-480,-354,-126,417
,1059,2023-10-27 11:20:01.60,187,-132,-2054,16,21,24,-384,-334,-50,359
,1060,2023-10-27 11:20:01.61,178,-137,-2055,21,22,22,-487,-361,-126,424
,1061,2023-10-27 11:20:01.62,176,-127,-2051,23,20,20,-384,-337,-47,360
,1062,2023-10-27 11:20:01.63,177,-125,-2049,24,17,17,-477,-349,-128,413
,1063,2023-10-27 11:20:01.64,183,-116,-2048,23,18,15,-394,-346,-48,370
,1064,2023-10-27 11:20:01.65,187,-126,-2046,20,18,12,-477,-349,-128,413
,1065,2023-10-27 11:20:01.66,170,-132,-2064,17,19,12,-391,-341,-50,366
,1066,2023-10-27 11:20:01.67,183,-125,-2058,17,13,13,-480,-348,-132,414
,1067,2023-10-27 11:20:01.68,187,-135,-2044,20,14,13,-405,-352,-53,378
,1068,2023-10-27 11:20:01.69,184,-137,-2047,20,16,11,-472,-347,-125,409
,1069,2023-10-27 11:20:01.70,185,-140,-2039,18,20,16,-400,-347,-53,373
,1070,2023-10-27 11:20:01.71,188,-132,-2047,19,24,16,-466,-336,-130,401
,1071,2023-10-27 11:20:01.72,183,-138,-2053,20,21,17,-400,-352,-48,376
,1072,2023-10-27 11:20:01.73,181,-142,-2057,27,19,19,-464,-336,-128,400
,1073,2023-10-27 11:20:01.74,192,-144,-2053,30,15,22,-413,-357,-56,385
,1074,2023-10-27 11:20:01.75,186,-146,-2043,32,11,26,-464,-333,-131,398
,1075,2023-10-27 11:20:01.76,190,-138,-2052,36,5,29,-415,-360,-55,387
,1076,2023-10-27 11:20:01.77,197,-134,-2051,32,13,26,-457,-328,-129,392
,1077,2023-10-27 11:20:01.78,182,-134,-2051,31,14,24,-415,-361,-54,388
,1078,2023-10-27 11:20:01.79,190,-133,-2054,31,7,23,-452,-328,-124,390
,1079,2023-10-27 11:20:01.80,193,-142,-2052,30,5,19,-413,-368,-45,390
,1080,2023-10-27 11:20:01.81,202,-143,-2052,33,0,18,-441,-327,-114,384
,1081,2023-10-27 11:20:01.82,183,-143,-2048,35,-2,17,-417,-368,-49,392
,1082,2023-10-27 11:20:01.83,184,-145,-2052,34,10,16,-446,-323,-123,384
,1083,2023-10-27 11:20:01.84,187,-148,-2043,35,11,14,-427,-375,-52,401
,1084,2023-10-27 11:20:01.85,188,-149,-2045,39,1,14,-437,-320,-117,378
,1085,2023-10-27 11:20:01.86,179,-157,-2053,42,-3,16,-425,-375,-50,400
,1086,2023-10-27 11:20:01.87,183,-162,-2052,43,0,15,-436,-315,-121,375
,1087,2023-10-27 11:20:01.88,182,-153,-2054,43,2,14,-432,-380,-52,406
,1088,2023-10-27 11:20:01.89,181,-157,-2048,39,-1,16,-434,-312,-122,373
,1089,2023-10-27 11:20:01.90,188,-163,-2052,41,-2,19,-437,-380,-57,408
,1090,2023-10-27 11:20:01.91,181,-162,-2060,44,-5,20,-430,-310,-120,370
,1091,2023-10-27 11:20:01.92,172,-168,-2052,43,-8,24,-438,-388,-50,413
,1092,2023-10-27 11:20:01.93,184,-167,-2043,41,-7,29,-425,-310,-115,367
,1093,2023-10-27 11:20:01.94,181,-168,-2049,38,-3,30,-444,-384,-60,414
,1094,2023-10-27 11:20:01.95,177,-164,-2055,35,-2,33,-426,-303,-123,364
,1095,2023-10-27 11:20:01.96,174,-166,-2061,31,-2,38,-445,-387,-58,416
,1096,2023-10-27 11:20:01.97,181,-168,-2059,28,-1,39,-417,-300,-117,358
,1097,2023-10-27 11:20:01.98,177,-164,-2060,24,-1,41,-452,-391,-61,421
,1098,2023-10-27 11:20:01.99,185,-154,-2047,19,6,42,-403,-284,-119,343
,1099,2023-10-27 11:20:02.00,172,-161,-2045,13,11,43,-444,-382,-62,413
,1100,2023-10-27 11:20:02.01,192,-161,-2044,7,13,42,-400,-278,-122,339
,1101,2023-10-27 11:20:02.02,179,-157,-2051,2,17,40,-451,-389,-62,420
,1102,2023-10-27 11:20:02.03,180,-156,-2052,-2,18,41,-401,-280,-121,340
,1103,2023-10-27 11:20:02.04,182,-155,-2048,-4,19,34,-449,-382,-67,415
,1104,2023-10-27 11:20:02.05,172,-141,-2055,-4,17,31,-400,-281,-119,340
,1105,2023-10-27 11:20:02.06,156,-151,-2038,15,-23,31,-456,-387,-69,421
,1106,2023-10-27 11:20:02.07,228,-141,-2049,21,-27,30,-394,-277,-117,335
,1107,2023-10-27 11:20:02.08,188,-126,-2045,7,16,14,-460,-391,-69,425
,1108,2023-10-27 11:20:02.09,165,-139,-2019,-7,27,3,-388,-272,-116,330
,1109,2023-10-27 11:20:02.10,190,-134,-2047,-1,5,4,-462,-395,-67,428
,1110,2023-10-27 11:20:02.11,207,-154,-2064,7,16,-5,-386,-272,-114,329
,1111,2023-10-27 11:20:02.12,170,-147,-2045,13,20,-10,-469,-396,-73,432
,1112,2023-10-27 11:20:02.13,179,-158,-2045,18,9,-11,-388,-272,-116,330
,1113,2023-10-27 11:20:02.14,193,-171,-2050,14,13,-10,-470,-399,-71,434
,1114,2023-10-27 11:20:02.15,166,-159,-2067,18,14,-10,-381,-273,-108,327
,1115,2023-10-27 11:20:02.16,194,-153,-2052,26,7,-8,-473,-403,-70,438
,1116,2023-10-27 11:20:02.17,188,-147,-2048,26,11,-9,-380,-272,-108,326
,1117,2023-10-27 11:20:02.18,172,-160,-2057,20,10,-10,-478,-408,-70,443
,1118,2023-10-27 11:20:02.19,179,-167,-2053,16,7,-7,-376,-273,-103,324
,1119,2023-10-27 11:20:02.20,168,-164,-2054,17,7,-3,-480,-411,-69,445
,1120,2023-10-27 11:20:02.21,173,-164,-2053,16,4,3,-374,-272,-102,323
,1121,2023-10-27 11:20:02.22,182,-159,-2048,11,6,9,-483,-412,-71,447
,1122,2023-10-27 11:20:02.23,183,-165,-2043,4,12,17,-371,-266,-105,318
,1123,2023-10-27 11:20:02.24,184,-162,-2050,-2,17,21,-487,-414,-73,450
,1124,2023-10-27 11:20:02.25,185,-156,-2039,-4,19,25,-365,-267,-98,316
,1125,2023-10-27 11:20:02.26,194,-156,-2039,-7,18,26,-480,-414,-66,447
,1126,2023-10-27 11:20:02.27,184,-151,-2046,-13,21,31,-354,-260,-94,307
,1127,2023-10-27 11:20:02.28,189,-158,-2052,-17,21,31,-483,-409,-74,446
,1128,2023-10-27 11:20:02.29,167,-156,-2033,-15,17,34,-358,-258,-100,308
,1129,2023-10-27 11:20:02.30,179,-150,-2061,3,-22,41,-489,-409,-80,449
,1130,2023-10-27 11:20:02.31,211,-158,-2058,4,-2,39,-353,-257,-96,305
,1131,2023-10-27 11:20:02.32,179,-152,-2052,-2,21,30,-488,-419,-69,453
,1132,2023-10-27 11:20:02.33,197,-144,-2048,-3,20,27,-348,-268,-80,308
,1133,2023-10-27 11:20:02.34,182,-150,-2050,7,12,23,-491,-426,-65,458
,1134,2023-10-27 11:20:02.35,191,-145,-2053,20,-6,18,-347,-264,-83,305
,1135,2023-10-27 11:20:02.36,196,-142,-2050,26,-11,11,-492,-420,-72,456
,1136,2023-10-27 11:20:02.37,197,-146,-2061,25,9,6,-339,-257,-82,298
,1137,2023-10-27 11:20:02.38,186,-146,-2048,17,26,-5,-487,-413,-74,450
,1138,2023-10-27 11:20:02.39,183,-149,-2049,12,21,-7,-339,-256,-83,297
,1139,2023-10-27 11:20:02.40,184,-152,-2050,21,5,-5,-488,-412,-76,450
,1140,2023-10-27 11:20:02.41,199,-159,-2047,22,8,-8,-337,-259,-78,298
,1141,2023-10-27 11:20:02.42,187,-150,-2041,18,14,-8,-490,-414,-76,452
,1142,2023-10-27 11:20:02.43,182,-170,-2041,11,18,-9,-336,-261,-75,298
,1143,2023-10-27 11:20:02.44,190,-167,-2053,16,8,-6,-501,-422,-79,461
,1144,2023-10-27 11:20:02.45,197,-162,-2048,20,9,-1,-335,-260,-75,297
,1145,2023-10-27 11:20:02.46,198,-167,-2036,19,18,1,-505,-426,-79,465
,1146,2023-10-27 11:20:02.47,190,-170,-2040,18,17,6,-328,-255,-73,291
,1147,2023-10-27 11:20:02.48,203,-159,-2055,18,9,9,-495,-418,-77,456
,1148,2023-10-27 11:20:02.49,195,-166,-2057,19,17,11,-322,-247,-75,284
,1149,2023-10-27 11:20:02.50,184,-167,-2050,23,10,16,-495,-411,-84,453
,1150,2023-10-27 11:20:02.51,203,-166,-2050,23,9,17,-321,-247,-74,284
,1151,2023-10-27 11:20:02.52,193,-166,-2049,14,35,16,-494,-411,-83,452
,1152,2023-10-27 11:20:02.53,179,-165,-2042,12,25,18,-320,-244,-76,282
,1153,2023-10-27 11:20:02.54,197,-165,-2053,22,1,25,-505,-411,-94,458
,1154,2023-10-27 11:20:02.55,189,-168,-2054,27,-1,26,-337,-256,-81,296
,1155,2023-10-27 11:20:02.56,184,-163,-2046,21,16,22,-512,-420,-92,466
,1156,2023-10-27 11:20:02.57,185,-165,-2049,7,21,24,-319,-245,-74,282
,1157,2023-10-27 11:20:02.58,192,-164,-2060,4,19,22,-493,-400,-93,446
,1158,2023-10-27 11:20:02.59,173,-167,-2063,9,10,26,-306,-234,-72,270
,1159,2023-10-27 11:20:02.60,192,-168,-2058,16,-12,24,-486,-392,-94,439
,1160,2023-10-27 11:20:02.61,200,-159,-2052,14,-6,25,-301,-229,-72,265
,1161,2023-10-27 11:20:02.62,195,-160,-2037,-12,35,16,-493,-391,-102,442
,1162,2023-10-27 11:20:02.63,177,-166,-2051,-5,15,16,-315,-232,-83,273
,1163,2023-10-27 11:20:02.64,194,-165,-2048,7,-4,21,-501,-389,-112,445
,1164,2023-10-27 11:20:02.65,203,-158,-2048,10,5,18,-309,-227,-82,268
,1165,2023-10-27 11:20:02.66,187,-159,-2048,1,15,17,-497,-389,-108,443
,1166,2023-10-27 11:20:02.67,189,-166,-2052,-14,28,15,-306,-233,-73,269
,1167,2023-10-27 11:20:02.68,194,-157,-2055,-16,32,10,-493,-386,-107,439
,1168,2023-10-27 11:20:02.69,201,-153,-2053,-9,13,12,-308,-235,-73,271
,1169,2023-10-27 11:20:02.70,218,-150,-2056,-2,3,13,-488,-408,-80,448
,1170,2023-10-27 11:20:02.71,205,-151,-2052,-12,24,8,-274,-264,-10,269
,1171,2023-10-27 11:20:02.72,198,-148,-2044,-24,42,2,-446,-402,-44,424
,1172,2023-10-27 11:20:02.73,207,-156,-2049,-18,28,5,-251,-231,-20,241
,1173,2023-10-27 11:20:02.74,223,-170,-2054,-6,33,3,-452,-379,-73,415
,1174,2023-10-27 11:20:02.75,205,-176,-2032,3,45,0,-274,-234,-40,254
,1175,2023-10-27 11:20:02.76,210,-178,-2027,17,41,4,-476,-389,-87,432
,1176,2023-10-27 11:20:02.77,210,-190,-2035,33,34,3,-305,-260,-45,282
,1177,2023-10-27 11:20:02.78,205,-187,-2033,57,23,7,-501,-449,-52,475
,1178,2023-10-27 11:20:02.79,204,-190,-2037,83,10,11,-306,-339,33,322
,1179,2023-10-27 11:20:02.80,193,-187,-2044,102,-3,12,-481,-475,-6,478
,1180,2023-10-27 11:20:02.81,196,-175,-2025,115,-10,15,-287,-318,31,302
,1181,2023-10-27 11:20:02.82,231,-174,-2058,108,4,14,-484,-456,-28,470
,1182,2023-10-27 11:20:02.83,194,-189,-2054,84,25,3,-314,-324,10,319
,1183,2023-10-27 11:20:02.84,196,-177,-2062,71,31,1,-508,-462,-46,485
,1184,2023-10-27 11:20:02.85,184,-183,-2074,71,17,4,-336,-338,2,337
,1185,2023-10-27 11:20:02.86,195,-176,-2057,69,-4,6,-518,-465,-53,491
,1186,2023-10-27 11:20:02.87,188,-175,-2053,60,-19,5,-349,-344,-5,346
,1187,2023-10-27 11:20:02.88,181,-178,-2056,43,-21,5,-536,-470,-66,503
,1188,2023-10-27 11:20:02.89,182,-177,-2076,16,-12,6,-361,-351,-10,356
,1189,2023-10-27 11:20:02.90,182,-167,-2077,-2,-26,7,-540,-466,-74,503
,1190,2023-10-27 11:20:02.91,189,-154,-2078,-26,-28,9,-359,-336,-23,347
,1191,2023-10-27 11:20:02.92,176,-152,-2074,-39,-42,7,-527,-441,-86,484
,1192,2023-10-27 11:20:02.93,174,-149,-2076,-53,-64,8,-358,-326,-32,342
,1193,2023-10-27 11:20:02.94,171,-148,-2070,-66,-75,9,-522,-427,-95,474
,1194,2023-10-27 11:20:02.95,182,-134,-2088,-80,-82,6,-347,-317,-30,332
,1195,2023-10-27 11:20:02.96,179,-123,-2058,-93,-91,1,-504,-411,-93,457
,1196,2023-10-27 11:20:02.97,190,-116,-2066,-102,-90,-3,-333,-304,-29,318
,1197,2023-10-27 11:20:02.98,211,-129,-2073,-116,-74,-13,-491,-387,-104,439
,1198,2023-10-27 11:20:02.99,192,-130,-2040,-140,-37,-30,-327,-287,-40,307
,1199,2023-10-27 11:20:03.00,188,-117,-2036,-144,-34,-32,-485,-375,-110,430
,1200,2023-10-27 11:20:03.01,192,-136,-2018,-136,-47,-29,-324,-284,-40,304
,1201,2023-10-27 11:20:03.02,185,-135,-2021,-121,-60,-24,-479,-367,-112,423
,1202,2023-10-27 11:20:03.03,190,-143,-2011,-101,-61,-19,-323,-280,-43,301
,1203,2023-10-27 11:20:03.04,190,-137,-2009,-95,-41,-15,-473,-363,-110,418
,1204,2023-10-27 11:20:03.05,201,-129,-2007,-94,-21,-13,-326,-285,-41,305
,1205,2023-10-27 11:20:03.06,188,-131,-2017,-90,1,-12,-476,-361,-115,418
,1206,2023-10-27 11:20:03.07,176,-121,-2033,-83,14,-7,-333,-291,-42,312
,1207,2023-10-27 11:20:03.08,194,-133,-2046,-74,19,-4,-472,-359,-113,415
,1208,2023-10-27 11:20:03.09,193,-131,-2050,-63,21,-2,-336,-293,-43,314
,1209,2023-10-27 11:20:03.10,196,-133,-2056,-49,26,5,-478,-359,-119,418
,1210,2023-10-27 11:20:03.11,198,-138,-2057,-33,27,3,-345,-302,-43,323
,1211,2023-10-27 11:20:03.12,194,-127,-2061,-17,28,3,-479,-364,-115,421
,1212,2023-10-27 11:20:03.13,196,-132,-2063,1,26,3,-350,-307,-43,328
,1213,2023-10-27 11:20:03.14,193,-123,-2070,17,23,0,-478,-357,-121,417
,1214,2023-10-27 11:20:03.15,202,-130,-2064,35,20,-1,-350,-306,-44,328
,1215,2023-10-27 11:20:03.16,192,-137,-2066,46,13,-4,-474,-353,-121,413
,1216,2023-10-27 11:20:03.17,173,-128,-2062,55,5,-6,-358,-318,-40,338
,1217,2023-10-27 11:20:03.18,186,-132,-2055,60,1,-7,-479,-360,-119,419
,1218,2023-10-27 11:20:03.19,178,-132,-2056,61,-4,-6,-362,-322,-40,342
,1219,2023-10-27 11:20:03.20,164,-131,-2065,60,-12,-5,-477,-352,-125,414
,1220,2023-10-27 11:20:03.21,169,-137,-2062,55,-20,1,-373,-323,-50,348
,1221,2023-10-27 11:20:03.22,166,-131,-2051,52,-30,2,-474,-344,-130,409
,1222,2023-10-27 11:20:03.23,181,-142,-2056,45,-30,7,-372,-326,-46,349
,1223,2023-10-27 11:20:03.24,190,-162,-1995,52,-36,8,-477,-352,-125,414
,1224,2023-10-27 11:20:03.25,180,-135,-2060,52,-5,9,-382,-341,-41,361
,1225,2023-10-27 11:20:03.26,169,-136,-2116,31,-10,17,-478,-352,-126,415
,1226,2023-10-27 11:20:03.27,176,-159,-2090,14,-33,24,-386,-337,-49,361
,1227,2023-10-27 11:20:03.28,188,-155,-2054,31,-31,29,-471,-346,-125,408
,1228,2023-10-27 11:20:03.29,162,-134,-2097,57,-27,24,-384,-342,-42,363
,1229,2023-10-27 11:20:03.30,155,-130,-2141,52,-34,29,-467,-349,-118,408
,1230,2023-10-27 11:20:03.31,170,-143,-2129,46,-48,29,-394,-349,-45,371
,1231,2023-10-27 11:20:03.32,211,-129,-2188,48,-44,31,-462,-336,-126,399
,1232,2023-10-27 11:20:03.33,169,-143,-2229,-2,-1,16,-393,-346,-47,369
,1233,2023-10-27 11:20:03.34,170,-136,-2058,-27,-23,8,-468,-343,-125,405
,1234,2023-10-27 11:20:03.35,190,-141,-2082,-10,-14,9,-397,-351,-46,374
,1235,2023-10-27 11:20:03.36,165,-136,-2122,-4,-27,-3,-446,-320,-126,383
,1236,2023-10-27 11:20:03.37,169,-118,-2119,4,-42,-11,-347,-288,-59,317
,1237,2023-10-27 11:20:03.38,194,-99,-2148,17,-45,-20,-412,-222,-190,317
,1238,2023-10-27 11:20:03.39,182,-102,-2092,11,-27,-38,-356,-222,-134,289
,1239,2023-10-27 11:20:03.40,156,-114,-2028,-4,-1,-54,-381,-176,-205,278
,1240,2023-10-27 11:20:03.41,160,-137,-2034,0,-7,-59,-349,-249,-100,299
,1241,2023-10-27 11:20:03.42,159,-140,-2036,9,-18,-63,-404,-255,-149,329
,1242,2023-10-27 11:20:03.43,153,-135,-2021,32,-24,-64,-386,-332,-54,359
,1243,2023-10-27 11:20:03.44,158,-149,-2022,49,-27,-64,-439,-310,-129,374
,1244,2023-10-27 11:20:03.45,174,-160,-1995,51,-15,-59,-422,-368,-54,395
,1245,2023-10-27 11:20:03.46,152,-153,-1994,57,-10,-52,-453,-339,-114,396
,1246,2023-10-27 11:20:03.47,156,-159,-1985,66,-12,-44,-439,-402,-37,420
,1247,2023-10-27 11:20:03.48,148,-170,-1999,77,-13,-29,-471,-374,-97,422
,1248,2023-10-27 11:20:03.49,163,-178,-1992,83,-5,-15,-459,-436,-23,447
,1249,2023-10-27 11:20:03.50,144,-185,-1974,87,1,0,-479,-393,-86,436
,1250,2023-10-27 11:20:03.51,154,-202,-1985,101,-10,21,-468,-444,-24,456
,1251,2023-10-27 11:20:03.52,165,-201,-1976,112,-5,39,-478,-389,-89,433
,1252,2023-10-27 11:20:03.53,160,-192,-1988,126,-4,52,-474,-446,-28,460
,1253,2023-10-27 11:20:03.54,152,-181,-2012,133,-12,63,-474,-389,-85,431
,1254,2023-10-27 11:20:03.55,169,-165,-1986,127,1,67,-482,-457,-25,469
,1255,2023-10-27 11:20:03.56,152,-179,-1965,127,16,75,-477,-394,-83,435
,1256,2023-10-27 11:20:03.57,153,-187,-1972,135,-7,83,-484,-466,-18,475
,1257,2023-10-27 11:20:03.58,169,-181,-1941,132,2,87,-470,-396,-74,433
,1258,2023-10-27 11:20:03.59,163,-169,-1960,117,31,86,-487,-473,-14,480
,1259,2023-10-27 11:20:03.60,173,-166,-1962,96,54,80,-467,-402,-65,434
,1260,2023-10-27 11:20:03.61,179,-152,-1983,73,74,74,-486,-478,-8,482
,1261,2023-10-27 11:20:03.62,183,-143,-2001,50,79,69,-451,-391,-60,421
,1262,2023-10-27 11:20:03.63,177,-127,-2002,28,79,61,-477,-465,-12,471
,1263,2023-10-27 11:20:03.64,179,-137,-2024,7,85,53,-447,-385,-62,416
,1264,2023-10-27 11:20:03.65,183,-132,-2030,-17,87,45,-483,-472,-11,477
,1265,2023-10-27 11:20:03.66,189,-129,-2045,-37,86,34,-432,-370,-62,401
,1266,2023-10-27 11:20:03.67,193,-140,-2053,-51,84,27,-476,-451,-25,463
,1267,2023-10-27 11:20:03.68,176,-143,-2074,-53,63,24,-413,-337,-76,375
,1268,2023-10-27 11:20:03.69,215,-141,-2079,-62,63,20,-460,-428,-32,444
,1269,2023-10-27 11:20:03.70,207,-160,-2085,-64,70,12,-388,-290,-98,339
,1270,2023-10-27 11:20:03.71,208,-182,-2110,-58,62,8,-434,-379,-55,406
,1271,2023-10-27 11:20:03.72,191,-189,-2092,-52,63,9,-330,-242,-88,286
,1272,2023-10-27 11:20:03.73,211,-192,-2115,-41,67,12,-392,-334,-58,363
,1273,2023-10-27 11:20:03.74,205,-209,-2131,-28,73,15,-306,-136,-170,221
,1274,2023-10-27 11:20:03.75,211,-179,-2107,-10,60,23,-323,-133,-190,228
,1275,2023-10-27 11:20:03.76,201,-175,-2079,10,58,18,-168,63,-231,52
,1276,2023-10-27 11:20:03.77,184,-192,-2086,29,46,28,-269,-107,-162,188
,1277,2023-10-27 11:20:03.78,212,-178,-2107,33,30,34,-193,-38,-155,115
,1278,2023-10-27 11:20:03.79,197,-145,-2066,20,47,26,-336,-246,-90,291
,1279,2023-10-27 11:20:03.80,161,-151,-2034,18,41,28,-257,-144,-113,200
,1280,2023-10-27 11:20:03.81,190,-158,-2010,8,33,31,-388,-311,-77,349
,1281,2023-10-27 11:20:03.82,186,-155,-1988,-5,30,28,-309,-199,-110,254
,1282,2023-10-27 11:20:03.83,184,-152,-1964,-20,35,23,-429,-362,-67,395
,1283,2023-10-27 11:20:03.84,171,-143,-1965,-30,34,13,-336,-245,-91,290
,1284,2023-10-27 11:20:03.85,169,-139,-2010,-25,8,10,-462,-399,-63,430
,1285,2023-10-27 11:20:03.86,187,-117,-2037,-20,-29,7,-370,-281,-89,325
,1286,2023-10-27 11:20:03.87,184,-105,-2029,-20,-47,-4,-492,-436,-56,464
,1287,2023-10-27 11:20:03.88,185,-111,-2028,-28,-55,-20,-384,-308,-76,346
,1288,2023-10-27 11:20:03.89,199,-111,-2047,-53,-37,-38,-507,-458,-49,482
,1289,2023-10-27 11:20:03.90,179,-101,-2048,-84,-19,-56,-390,-320,-70,355
,1290,2023-10-27 11:20:03.91,174,-107,-2038,-92,-31,-73,-503,-458,-45,480
,1291,2023-10-27 11:20:03.92,200,-123,-2084,-76,-71,-75,-381,-304,-77,342
,1292,2023-10-27 11:20:03.93,215,-132,-2076,-66,-69,-84,-509,-446,-63,477
,1293,2023-10-27 11:20:03.94,177,-146,-2048,-71,-51,-90,-380,-299,-81,339
,1294,2023-10-27 11:20:03.95,195,-157,-2052,-71,-48,-92,-504,-444,-60,474
,1295,2023-10-27 11:20:03.96,191,-165,-2090,-57,-53,-85,-367,-287,-80,327
,1296,2023-10-27 11:20:03.97,164,-176,-2091,-29,-70,-74,-499,-430,-69,464
,1297,2023-10-27 11:20:03.98,175,-167,-2102,2,-90,-58,-350,-268,-82,309
,1298,2023-10-27 11:20:03.99,175,-185,-2083,23,-103,-38,-481,-410,-71,445
,1299,2023-10-27 11:20:04.00,176,-198,-2064,43,-99,-20,-328,-246,-82,287
,1300,2023-10-27 11:20:04.01,196,-211,-2064,55,-80,-3,-474,-399,-75,436
,1301,2023-10-27 11:20:04.02,207,-217,-2063,47,-30,4,-315,-235,-80,275
,1302,2023-10-27 11:20:04.03,164,-214,-2016,51,-5,20,-466,-390,-76,428
,1303,2023-10-27 11:20:04.04,177,-219,-2022,70,4,40,-304,-218,-86,261
,1304,2023-10-27 11:20:04.05,184,-210,-2015,90,25,53,-469,-384,-85,426
,1305,2023-10-27 11:20:04.06,167,-207,-1997,103,30,65,-312,-223,-89,267
,1306,2023-10-27 11:20:04.07,179,-204,-2005,107,52,74,-472,-384,-88,428
,1307,2023-10-27 11:20:04.08,179,-190,-2031,101,79,76,-312,-222,-90,267
,1308,2023-10-27 11:20:04.09,176,-174,-2035,92,99,78,-478,-386,-92,432
,1309,2023-10-27 11:20:04.10,182,-166,-2058,81,115,73,-314,-232,-82,273
,1310,2023-10-27 11:20:04.11,188,-147,-2058,65,119,67,-482,-389,-93,435
,1311,2023-10-27 11:20:04.12,177,-141,-2051,52,118,59,-309,-226,-83,267
,1312,2023-10-27 11:20:04.13,147,-150,-2049,68,67,60,-480,-389,-91,434
,1313,2023-10-27 11:20:04.14,221,-144,-2094,84,30,58,-307,-223,-84,265
,1314,2023-10-27 11:20:04.15,213,-144,-2072,67,56,39,-483,-388,-95,435
,1315,2023-10-27 11:20:04.16,175,-141,-2052,45,68,21,-310,-231,-79,270
,1316,2023-10-27 11:20:04.17,216,-144,-2060,25,74,8,-489,-395,-94,442
,1317,2023-10-27 11:20:04.18,211,-157,-2081,19,82,-9,-312,-229,-83,270
,1318,2023-10-27 11:20:04.19,201,-166,-2072,31,59,-17,-491,-392,-99,441
,1319,2023-10-27 11:20:04.20,228,-162,-2066,46,32,-22,-306,-232,-74,269
,1320,2023-10-27 11:20:04.21,212,-162,-2058,42,56,-37,-487,-392,-95,439
,1321,2023-10-27 11:20:04.22,196,-163,-2051,34,65,-44,-307,-230,-77,268
,1322,2023-10-27 11:20:04.23,196,-175,-2051,38,42,-42,-496,-393,-103,444
,1323,2023-10-27 11:20:04.24,215,-184,-2044,48,40,-46,-313,-237,-76,275
,1324,2023-10-27 11:20:04.25,202,-183,-2039,54,39,-46,-498,-394,-104,446
,1325,2023-10-27 11:20:04.26,199,-190,-2027,54,31,-38,-315,-236,-79,275
,1326,2023-10-27 11:20:04.27,214,-193,-2037,51,31,-31,-505,-395,-110,450
,1327,2023-10-27 11:20:04.28,207,-198,-2023,50,30,-25,-323,-239,-84,281
,1328,2023-10-27 11:20:04.29,200,-205,-2030,50,26,-13,-513,-391,-122,452
,1329,2023-10-27 11:20:04.30,207,-205,-2032,54,15,0,-330,-235,-95,282
,1330,2023-10-27 11:20:04.31,222,-205,-2047,50,17,12,-513,-383,-130,448
,1331,2023-10-27 11:20:04.32,213,-203,-2056,42,34,20,-322,-228,-94,275
,1332,2023-10-27 11:20:04.33,201,-204,-2052,45,27,30,-508,-374,-134,441
,1333,2023-10-27 11:20:04.34,213,-206,-2058,50,15,41,-318,-222,-96,270
,1334,2023-10-27 11:20:04.35,218,-217,-2050,49,28,46,-507,-376,-131,441
,1335,2023-10-27 11:20:04.36,205,-212,-2053,50,34,54,-314,-230,-84,272
,1336,2023-10-27 11:20:04.37,201,-212,-2049,56,25,60,-502,-377,-125,439
,1337,2023-10-27 11:20:04.38,216,-212,-2049,63,21,64,-315,-234,-81,274
,1338,2023-10-27 11:20:04.39,209,-206,-2053,60,42,60,-500,-378,-122,439
,1339,2023-10-27 11:20:04.40,214,-192,-2041,61,40,62,-310,-233,-77,271
,1340,2023-10-27 11:20:04.41,236,-190,-2048,61,37,61,-494,-376,-118,435
,1341,2023-10-27 11:20:04.42,213,-190,-2049,61,43,55,-308,-242,-66,275
,1342,2023-10-27 11:20:04.43,220,-184,-2062,60,36,53,-500,-383,-117,441
,1343,2023-10-27 11:20:04.44,212,-178,-2058,54,33,49,-314,-249,-65,281
,1344,2023-10-27 11:20:04.45,218,-172,-2053,48,33,40,-502,-381,-121,441
,1345,2023-10-27 11:20:04.46,205,-189,-2070,37,29,37,-324,-257,-67,290
,1346,2023-10-27 11:20:04.47,230,-210,-2027,36,15,31,-502,-386,-116,444
,1347,2023-10-27 11:20:04.48,222,-188,-2035,43,22,23,-310,-253,-57,281
,1348,2023-10-27 11:20:04.49,218,-185,-2035,43,16,19,-498,-384,-114,441
,1349,2023-10-27 11:20:04.50,222,-195,-2035,39,10,15,-316,-260,-56,288
,1350,2023-10-27 11:20:04.51,213,-200,-2041,39,9,14,-496,-390,-106,443
,1351,2023-10-27 11:20:04.52,207,-206,-2046,42,3,14,-314,-262,-52,288
,1352,2023-10-27 11:20:04.53,205,-208,-2040,38,-3,16,-497,-382,-115,439
,1353,2023-10-27 11:20:04.54,212,-211,-2039,33,-5,22,-320,-266,-54,293
,1354,2023-10-27 11:20:04.55,213,-220,-2043,26,-4,30,-493,-379,-114,436
,1355,2023-10-27 11:20:04.56,221,-221,-2035,19,-2,34,-314,-259,-55,286
,1356,2023-10-27 11:20:04.57,210,-217,-2041,13,0,42,-487,-377,-110,432
,1357,2023-10-27 11:20:04.58,218,-205,-2033,7,6,47,-314,-274,-40,294
,1358,2023-10-27 11:20:04.59,214,-206,-2038,-1,9,52,-485,-381,-104,433
,1359,2023-10-27 11:20:04.60,202,-208,-2042,-8,11,54,-318,-272,-46,295
,1360,2023-10-27 11:20:04.61,208,-211,-2047,-12,13,54,-493,-375,-118,434
,1361,2023-10-27 11:20:04.62,217,-212,-2048,-13,14,54,-327,-277,-50,302
,1362,2023-10-27 11:20:04.63,214,-204,-2051,-14,15,51,-485,-368,-117,426
,1363,2023-10-27 11:20:04.64,212,-204,-2049,-12,12,47,-320,-275,-45,297
,1364,2023-10-27 11:20:04.65,210,-180,-2086,-17,7,43,-480,-367,-113,423
,1365,2023-10-27 11:20:04.66,224,-203,-2037,-16,-4,39,-322,-282,-40,302
,1366,2023-10-27 11:20:04.67,234,-203,-2029,-2,9,30,-480,-368,-112,424
,1367,2023-10-27 11:20:04.68,212,-194,-2070,5,9,22,-330,-287,-43,308
,1368,2023-10-27 11:20:04.69,220,-200,-2056,4,2,19,-488,-370,-118,429
,1369,2023-10-27 11:20:04.70,214,-211,-2052,18,-5,9,-330,-292,-38,311
,1370,2023-10-27 11:20:04.71,217,-210,-2057,18,-8,7,-482,-367,-115,424
,1371,2023-10-27 11:20:04.72,213,-202,-2043,19,-11,6,-337,-295,-42,316
,1372,2023-10-27 11:20:04.73,213,-209,-2048,19,-13,3,-484,-369,-115,426
,1373,2023-10-27 11:20:04.74,219,-216,-2047,21,-12,5,-337,-300,-37,318
,1374,2023-10-27 11:20:04.75,210,-222,-2058,24,-18,8,-480,-368,-112,424
,1375,2023-10-27 11:20:04.76,200,-211,-2033,22,-21,12,-348,-309,-39,328
,1376,2023-10-27 11:20:04.77,212,-218,-2039,20,-17,14,-482,-369,-113,425
,1377,2023-10-27 11:20:04.78,209,-205,-2032,17,-16,18,-344,-314,-30,329
,1378,2023-10-27 11:20:04.79,206,-204,-2025,12,-10,19,-475,-366,-109,420
,1379,2023-10-27 11:20:04.80,210,-216,-2033,7,-4,21,-350,-320,-30,335
,1380,2023-10-27 11:20:04.81,213,-205,-2040,4,-3,22,-480,-374,-106,427
,1381,2023-10-27 11:20:04.82,213,-215,-2047,2,-2,28,-354,-325,-29,339
,1382,2023-10-27 11:20:04.83,205,-207,-2041,-3,-3,30,-476,-365,-111,420
,1383,2023-10-27 11:20:04.84,195,-210,-2045,-7,-3,33,-362,-325,-37,343
,1384,2023-10-27 11:20:04.85,215,-206,-2032,-12,-1,35,-479,-365,-114,422
,1385,2023-10-27 11:20:04.86,204,-194,-2033,-16,1,32,-363,-326,-37,344
,1386,2023-10-27 11:20:04.87,213,-196,-2037,-17,2,32,-474,-368,-106,421
,1387,2023-10-27 11:20:04.88,214,-201,-2035,-20,5,28,-368,-341,-27,354
,1388,2023-10-27 11:20:04.89,214,-203,-2043,-18,7,28,-471,-367,-104,419
,1389,2023-10-27 11:20:04.90,202,-201,-2046,-19,9,25,-370,-344,-26,357
,1390,2023-10-27 11:20:04.91,214,-189,-2047,-16,12,21,-470,-360,-110,415
,1391,2023-10-27 11:20:04.92,205,-186,-2049,-16,8,17,-379,-345,-34,362
,1392,2023-10-27 11:20:04.93,212,-187,-2050,-14,7,9,-470,-359,-111,414
,1393,2023-10-27 11:20:04.94,212,-189,-2052,-12,6,8,-376,-347,-29,361
,1394,2023-10-27 11:20:04.95,217,-191,-2040,-8,5,1,-470,-361,-109,415
,1395,2023-10-27 11:20:04.96,216,-188,-2047,-8,4,0,-383,-349,-34,366
,1396,2023-10-27 11:20:04.97,214,-187,-2043,-6,1,-4,-464,-348,-116,406
,1397,2023-10-27 11:20:04.98,208,-189,-2051,-4,0,-5,-385,-347,-38,366
,1398,2023-10-27 11:20:04.99,207,-192,-2043,0,-4,-9,-457,-342,-115,399
,1399,2023-10-27 11:20:05.00,197,-202,-2043,2,-6,-8,-388,-350,-38,369
,1400,2023-10-27 11:20:05.01,216,-205,-2041,6,-8,-6,-455,-343,-112,399
,1401,2023-10-27 11:20:05.02,203,-200,-2040,5,-10,1,-394,-355,-39,374
,1402,2023-10-27 11:20:05.03,197,-201,-2038,7,-8,3,-453,-339,-114,396
,1403,2023-10-27 11:20:05.04,204,-197,-2039,6,-3,5,-395,-359,-36,377
,1404,2023-10-27 11:20:05.05,209,-200,-2041,3,-2,11,-447,-339,-108,393
,1405,2023-10-27 11:20:05.06,202,-199,-2049,4,2,14,-402,-372,-30,387
,1406,2023-10-27 11:20:05.07,213,-201,-2048,7,0,17,-455,-362,-93,408
,1407,2023-10-27 11:20:05.08,209,-194,-2042,8,3,17,-412,-399,-13,405
,1408,2023-10-27 11:20:05.09,216,-197,-2048,5,6,21,-444,-371,-73,407
,1409,2023-10-27 11:20:05.10,219,-194,-2045,3,5,20,-402,-402,0,402
,1410,2023-10-27 11:20:05.11,209,-187,-2045,2,6,22,-435,-364,-71,399
,1411,2023-10-27 11:20:05.12,213,-186,-2050,4,2,19,-405,-400,-5,402
,1412,2023-10-27 11:20:05.13,204,-194,-2044,3,-1,18,-422,-350,-72,386
,1413,2023-10-27 11:20:05.14,222,-191,-2041,3,-2,17,-402,-390,-12,396
,1414,2023-10-27 11:20:05.15,213,-190,-2042,-1,-2,17,-420,-337,-83,378
,1415,2023-10-27 11:20:05.16,213,-196,-2039,1,-1,14,-407,-390,-17,398
,1416,2023-10-27 11:20:05.17,216,-188,-2034,-2,2,12,-411,-322,-89,366
,1417,2023-10-27 11:20:05.18,209,-188,-2040,-2,5,11,-408,-380,-28,394
,1418,2023-10-27 11:20:05.19,206,-194,-2043,-2,5,9,-412,-319,-93,365
,1419,2023-10-27 11:20:05.20,198,-196,-2040,0,3,9,-411,-386,-25,398
,1420,2023-10-27 11:20:05.21,213,-196,-2031,1,4,11,-405,-311,-94,358
,1421,2023-10-27 11:20:05.22,209,-207,-2033,2,6,9,-418,-382,-36,400
,1422,2023-10-27 11:20:05.23,215,-196,-2047,2,6,9,-408,-309,-99,358
,1423,2023-10-27 11:20:05.24,216,-196,-2051,2,9,9,-421,-382,-39,401
,1424,2023-10-27 11:20:05.25,218,-184,-2042,-1,14,8,-400,-298,-102,349
,1425,2023-10-27 11:20:05.26,210,-188,-2046,-4,14,7,-425,-384,-41,404
,1426,2023-10-27 11:20:05.27,201,-194,-2050,-9,15,4,-403,-297,-106,350
,1427,2023-10-27 11:20:05.28,206,-197,-2064,-12,11,2,-429,-389,-40,409
,1428,2023-10-27 11:20:05.29,202,-192,-2061,-10,2,6,-395,-290,-105,342
,1429,2023-10-27 11:20:05.30,199,-195,-2057,-7,-7,10,-432,-386,-46,409
,1430,2023-10-27 11:20:05.31,197,-199,-2056,-9,-16,12,-399,-295,-104,347
,1431,2023-10-27 11:20:05.32,208,-196,-2053,-7,-23,15,-441,-392,-49,416
,1432,2023-10-27 11:20:05.33,211,-194,-2046,-8,-26,20,-395,-292,-103,343
,1433,2023-10-27 11:20:05.34,208,-185,-2046,-9,-29,22,-444,-394,-50,419
,1434,2023-10-27 11:20:05.35,207,-197,-2049,-8,-28,24,-391,-288,-103,339
,1435,2023-10-27 11:20:05.36,209,-201,-2043,-9,-25,29,-452,-399,-53,425
,1436,2023-10-27 11:20:05.37,207,-200,-2047,-7,-25,30,-384,-282,-102,333
,1437,2023-10-27 11:20:05.38,208,-205,-2047,-5,-22,35,-455,-399,-56,427
,1438,2023-10-27 11:20:05.39,212,-198,-2050,0,-22,39,-382,-284,-98,333
,1439,2023-10-27 11:20:05.40,201,-183,-2043,-1,-21,40,-451,-400,-51,425
,1440,2023-10-27 11:20:05.41,204,-192,-2038,0,-18,38,-376,-276,-100,326
,1441,2023-10-27 11:20:05.42,206,-185,-2037,1,-10,37,-458,-401,-57,429
,1442,2023-10-27 11:20:05.43,198,-187,-2044,0,-8,37,-374,-276,-98,325
,1443,2023-10-27 11:20:05.44,208,-184,-2046,0,-7,34,-457,-397,-60,427
,1444,2023-10-27 11:20:05.45,209,-186,-2043,0,-4,33,-367,-267,-100,317
,1445,2023-10-27 11:20:05.46,202,-182,-2039,1,0,29,-458,-399,-59,428
,1446,2023-10-27 11:20:05.47,201,-181,-2046,3,4,27,-361,-266,-95,313
,1447,2023-10-27 11:20:05.48,202,-187,-2043,1,6,23,-463,-404,-59,433
,1448,2023-10-27 11:20:05.49,191,-181,-2052,2,4,19,-366,-282,-84,324
,1449,2023-10-27 11:20:05.50,194,-181,-2049,4,3,17,-470,-426,-44,448
,1450,2023-10-27 11:20:05.51,202,-185,-2033,7,-1,13,-361,-297,-64,329
,1451,2023-10-27 11:20:05.52,206,-193,-2049,6,0,11,-473,-430,-43,451
,1452,2023-10-27 11:20:05.53,194,-190,-2042,4,-4,12,-357,-285,-72,321
,1453,2023-10-27 11:20:05.54,209,-186,-2037,5,-3,13,-471,-425,-46,448
,1454,2023-10-27 11:20:05.55,206,-193,-2050,5,0,14,-350,-278,-72,314
,1455,2023-10-27 11:20:05.56,197,-184,-2041,4,3,15,-472,-419,-53,445
,1456,2023-10-27 11:20:05.57,201,-184,-2043,0,7,14,-350,-272,-78,311
,1457,2023-10-27 11:20:05.58,201,-188,-2048,-1,8,18,-478,-420,-58,449
,1458,2023-10-27 11:20:05.59,198,-189,-2044,-2,9,18,-349,-269,-80,309
,1459,2023-10-27 11:20:05.60,201,-192,-2040,-5,9,20,-484,-416,-68,450
,1460,2023-10-27 11:20:05.61,183,-194,-2044,-6,10,22,-348,-264,-84,306
,1461,2023-10-27 11:20:05.62,198,-187,-2052,-6,9,23,-484,-417,-67,450
,1462,2023-10-27 11:20:05.63,217,-178,-2045,-7,11,25,-343,-258,-85,300
,1463,2023-10-27 11:20:05.64,203,-183,-2039,-7,12,22,-488,-416,-72,452
,1464,2023-10-27 11:20:05.65,204,-176,-2038,-5,13,22,-344,-260,-84,302
,1465,2023-10-27 11:20:05.66,205,-177,-2037,-7,15,16,-489,-418,-71,453
,1466,2023-10-27 11:20:05.67,199,-187,-2042,-8,19,14,-342,-261,-81,301
,1467,2023-10-27 11:20:05.68,207,-186,-2044,-8,21,14,-493,-415,-78,454
,1468,2023-10-27 11:20:05.69,201,-176,-2044,-6,23,10,-341,-260,-81,300
,1469,2023-10-27 11:20:05.70,203,-175,-2039,-4,21,9,-494,-416,-78,455
,1470,2023-10-27 11:20:05.71,164,-184,-2042,7,-6,8,-335,-252,-83,293
,1471,2023-10-27 11:20:05.72,214,-188,-2055,20,-14,14,-498,-415,-83,456
,1472,2023-10-27 11:20:05.73,197,-185,-2051,10,23,5,-338,-254,-84,296
,1473,2023-10-27 11:20:05.74,199,-173,-2042,0,21,3,-499,-416,-83,457
,1474,2023-10-27 11:20:05.75,203,-184,-2054,0,21,3,-332,-250,-82,291
,1475,2023-10-27 11:20:05.76,194,-195,-2049,14,4,6,-500,-415,-85,457
,1476,2023-10-27 11:20:05.77,227,-193,-2053,30,-16,11,-327,-251,-76,289
,1477,2023-10-27 11:20:05.78,210,-189,-2049,31,-3,10,-499,-412,-87,455
,1478,2023-10-27 11:20:05.79,203,-192,-2043,24,14,9,-330,-248,-82,289
,1479,2023-10-27 11:20:05.80,207,-189,-2052,20,15,10,-502,-411,-91,456
,1480,2023-10-27 11:20:05.81,208,-204,-2054,23,14,11,-323,-240,-83,281
,1481,2023-10-27 11:20:05.82,195,-197,-2053,32,12,17,-495,-396,-99,445
,1482,2023-10-27 11:20:05.83,214,-202,-2047,31,12,20,-318,-231,-87,274
,1483,2023-10-27 11:20:05.84,199,-193,-2039,29,12,21,-494,-395,-99,444
,1484,2023-10-27 11:20:05.85,226,-195,-2043,31,6,28,-313,-233,-80,273
,1485,2023-10-27 11:20:05.86,204,-191,-2047,27,22,27,-496,-394,-102,445
,1486,2023-10-27 11:20:05.87,215,-196,-2045,21,24,28,-316,-232,-84,274
,1487,2023-10-27 11:20:05.88,195,-193,-2029,16,15,25,-498,-398,-100,448
,1488,2023-10-27 11:20:05.89,208,-180,-2042,22,-6,29,-311,-237,-74,274
,1489,2023-10-27 11:20:05.90,216,-176,-2050,19,3,25,-493,-394,-99,443
,1490,2023-10-27 11:20:05.91,200,-175,-2037,7,17,20,-308,-231,-77,269
,1491,2023-10-27 11:20:05.92,202,-176,-2055,1,5,18,-497,-394,-103,445
,1492,2023-10-27 11:20:05.93,229,-176,-2064,-7,0,15,-312,-239,-73,275
,1493,2023-10-27 11:20:05.94,208,-184,-2063,-6,-3,10,-496,-396,-100,446
,1494,2023-10-27 11:20:05.95,200,-188,-2051,-5,-17,9,-310,-242,-68,276
,1495,2023-10-27 11:20:05.96,198,-182,-2045,-6,-20,9,-500,-401,-99,450
,1496,2023-10-27 11:20:05.97,202,-183,-2043,-6,-24,9,-312,-247,-65,279
,1497,2023-10-27 11:20:05.98,206,-193,-2031,-1,-23,9,-502,-399,-103,450
,1498,2023-10-27 11:20:05.99,210,-199,-2049,1,-18,8,-314,-247,-67,280
,1499,2023-10-27 11:20:06.00,213,-190,-2047,5,-18,14,-504,-399,-105,451
,1500,2023-10-27 11:20:06.01,200,-195,-2043,9,-17,14,-310,-248,-62,279
,1501,2023-10-27 11:20:06.02,209,-194,-2040,18,-11,14,-500,-398,-102,449
,1502,2023-10-27 11:20:06.03,202,-196,-2041,21,-14,20,-306,-244,-62,275
,1503,2023-10-27 11:20:06.04,200,-192,-2054,23,-8,21,-497,-395,-102,446
,1504,2023-10-27 11:20:06.05,202,-178,-2051,27,-7,21,-305,-246,-59,275
,1505,2023-10-27 11:20:06.06,195,-180,-2053,29,-7,18,-498,-397,-101,447
,1506,2023-10-27 11:20:06.07,207,-180,-2050,29,-8,18,-312,-254,-58,283
,1507,2023-10-27 11:20:06.08,190,-184,-2062,25,-10,16,-497,-395,-102,446
,1508,2023-10-27 11:20:06.09,177,-182,-2053,22,-14,16,-313,-255,-58,284
,1509,2023-10-27 11:20:06.10,189,-186,-2058,22,-23,16,-504,-399,-105,451
,1510,2023-10-27 11:20:06.11,181,-191,-2042,21,-28,20,-317,-261,-56,289
,1511,2023-10-27 11:20:06.12,193,-195,-2034,17,-29,20,-497,-393,-104,445
,1512,2023-10-27 11:20:06.13,197,-192,-2033,12,-21,24,-307,-254,-53,280
,1513,2023-10-27 11:20:06.14,201,-186,-2033,10,-15,22,-490,-386,-104,438
,1514,2023-10-27 11:20:06.15,198,-186,-2029,9,-8,20,-301,-256,-45,278
,1515,2023-10-27 11:20:06.16,193,-180,-2034,6,-2,17,-482,-386,-96,434
,1516,2023-10-27 11:20:06.17,190,-186,-2044,1,6,12,-298,-261,-37,279
,1517,2023-10-27 11:20:06.18,191,-185,-2053,2,6,11,-496,-406,-90,451
,1518,2023-10-27 11:20:06.19,191,-191,-2057,7,1,7,-332,-304,-28,318
,1519,2023-10-27 11:20:06.20,190,-181,-2053,16,-2,6,-524,-456,-68,490
,1520,2023-10-27 11:20:06.21,199,-178,-2044,17,-8,2,-346,-346,0,346
,1521,2023-10-27 11:20:06.22,198,-178,-2062,20,-5,-10,-521,-470,-51,495
,1522,2023-10-27 11:20:06.23,199,-175,-2053,21,-7,-14,-347,-358,11,352
,1523,2023-10-27 11:20:06.24,189,-176,-2047,24,-7,-20,-501,-487,-14,494
,1524,2023-10-27 11:20:06.25,192,-177,-2047,30,-6,-27,-310,-374,64,342
,1525,2023-10-27 11:20:06.26,176,-187,-2051,32,-5,-32,-516,-457,-59,486
,1526,2023-10-27 11:20:06.27,185,-194,-2053,28,-5,-33,-382,-334,-48,358
,1527,2023-10-27 11:20:06.28,188,-201,-2057,27,-6,-30,-520,-435,-85,477
,1528,2023-10-27 11:20:06.29,193,-205,-2047,34,0,-27,-310,-327,17,318
,1529,2023-10-27 11:20:06.30,186,-208,-2040,39,7,-24,-448,-427,-21,437
,1530,2023-10-27 11:20:06.31,189,-207,-2034,32,23,-17,-284,-329,45,306
,1531,2023-10-27 11:20:06.32,191,-205,-2041,26,39,-12,-426,-437,11,431
,1532,2023-10-27 11:20:06.33,179,-220,-2042,21,54,-8,-254,-345,91,299
,1533,2023-10-27 11:20:06.34,187,-211,-2064,20,59,1,-407,-438,31,422
,1534,2023-10-27 11:20:06.35,194,-203,-2058,19,62,1,-264,-349,85,306
,1535,2023-10-27 11:20:06.36,190,-193,-2050,19,57,10,-435,-440,5,437
,1536,2023-10-27 11:20:06.37,181,-197,-2024,24,46,12,-301,-352,51,326
,1537,2023-10-27 11:20:06.38,210,-192,-2039,37,23,19,-508,-419,-89,463
