// Data mode  : Full
// Data quality  : High
// Acceleration sensor's range  : 16g
// Gyroscope sensor's range  : 2000dps
//
//ARTIFACT,NUM,DATE,ACC_X,ACC_Y,ACC_Z,GYRO_X,GYRO_Y,GYRO_Z,EOG_L,EOG_R,EOG_H,EOG_V
,1,2023-10-27 10:30:08.78,-64,1,-2045,69,-16,-27,402,-60,462,-171
,2,2023-10-27 10:30:08.79,-63,-7,-2037,62,-7,-23,22,256,-234,-139
,3,2023-10-27 10:30:08.80,-64,4,-2034,60,-1,-18,394,-64,458,-165
,4,2023-10-27 10:30:08.81,-47,-2,-2045,52,7,-8,32,226,-194,-129
,5,2023-10-27 10:30:08.82,-54,-2,-2049,44,13,-1,400,-76,476,-162
,6,2023-10-27 10:30:08.83,-65,-9,-2048,43,15,7,34,225,-191,-129
,7,2023-10-27 10:30:08.84,-62,-11,-2055,42,18,14,392,-70,462,-161
,8,2023-10-27 10:30:08.85,-61,-10,-2056,41,14,25,35,231,-196,-133
,9,2023-10-27 10:30:08.86,-58,-8,-2052,41,11,33,392,-68,460,-162
,10,2023-10-27 10:30:08.87,-64,-3,-2053,45,7,36,39,229,-190,-134
,11,2023-10-27 10:30:08.88,-55,9,-2041,53,3,40,385,-60,445,-162
,12,2023-10-27 10:30:08.89,-57,4,-2052,54,-1,36,36,232,-196,-134
,13,2023-10-27 10:30:08.90,-52,4,-2037,53,-1,35,389,-56,445,-166
,14,2023-10-27 10:30:08.91,-58,2,-2037,55,-2,37,52,224,-172,-138
,15,2023-10-27 10:30:08.92,-50,-6,-2032,60,1,34,387,-60,447,-163
,16,2023-10-27 10:30:08.93,-59,-21,-2049,65,-1,33,40,218,-178,-129
,17,2023-10-27 10:30:08.94,-65,-24,-2065,70,-5,37,384,-59,443,-162
,18,2023-10-27 10:30:08.95,-63,-30,-2065,74,-9,41,52,212,-160,-132
,19,2023-10-27 10:30:08.96,-55,-40,-2075,79,-4,45,375,-47,422,-164
,20,2023-10-27 10:30:08.97,-62,-20,-2073,85,-6,50,43,222,-179,-132
,21,2023-10-27 10:30:08.98,-85,-20,-2075,92,-7,50,372,-50,422,-161
,22,2023-10-27 10:30:08.99,-84,-24,-2081,97,-15,48,51,199,-148,-125
,23,2023-10-27 10:30:09.00,-73,-23,-2074,101,-28,47,372,-41,413,-165
,24,2023-10-27 10:30:09.01,-76,-23,-2067,98,-34,47,57,210,-153,-133
,25,2023-10-27 10:30:09.02,-65,-28,-2067,97,-43,47,370,-32,402,-169
,26,2023-10-27 10:30:09.03,-68,-24,-2047,97,-44,47,60,203,-143,-131
,27,2023-10-27 10:30:09.04,-66,-26,-2045,96,-40,43,368,-34,402,-167
,28,2023-10-27 10:30:09.05,-65,-28,-2029,92,-29,36,63,195,-132,-129
,29,2023-10-27 10:30:09.06,-82,-26,-2032,91,-26,35,363,-25,388,-169
,30,2023-10-27 10:30:09.07,-88,-37,-2051,95,-29,38,68,199,-131,-133
,31,2023-10-27 10:30:09.08,-103,-58,-2057,95,-36,37,364,-16,380,-174
,32,2023-10-27 10:30:09.09,-87,-29,-2063,89,-47,40,76,188,-112,-132
,33,2023-10-27 10:30:09.10,-101,-49,-2073,80,-47,43,361,-21,382,-170
,34,2023-10-27 10:30:09.11,-90,-32,-2054,72,-46,46,78,180,-102,-129
,35,2023-10-27 10:30:09.12,-83,-29,-2048,65,-44,42,353,-13,366,-170
,36,2023-10-27 10:30:09.13,-85,-27,-2047,58,-35,41,81,178,-97,-129
,37,2023-10-27 10:30:09.14,-83,-13,-2036,52,-34,35,356,-7,363,-174
,38,2023-10-27 10:30:09.15,-78,-18,-2040,46,-24,25,87,172,-85,-129
,39,2023-10-27 10:30:09.16,-81,-33,-2053,38,-12,16,345,8,337,-176
,40,2023-10-27 10:30:09.17,-72,-39,-2049,32,-4,12,87,173,-86,-130
,41,2023-10-27 10:30:09.18,-76,-31,-2052,35,9,11,346,11,335,-178
,42,2023-10-27 10:30:09.19,-82,-48,-2048,35,18,6,104,167,-63,-135
,43,2023-10-27 10:30:09.20,-74,-43,-2054,37,18,4,337,13,324,-175
,44,2023-10-27 10:30:09.21,-90,-45,-2062,42,11,0,91,152,-61,-121
,45,2023-10-27 10:30:09.22,-88,-36,-2062,41,4,-2,314,8,306,-161
,46,2023-10-27 10:30:09.23,-83,-38,-2064,36,4,-5,105,149,-44,-127
,47,2023-10-27 10:30:09.24,-78,-36,-2052,31,0,-5,326,25,301,-175
,48,2023-10-27 10:30:09.25,-67,-37,-2046,26,-2,-10,104,142,-38,-123
,49,2023-10-27 10:30:09.26,-78,-34,-2045,14,-6,-11,321,29,292,-175
,50,2023-10-27 10:30:09.27,-79,-34,-2039,7,-8,-11,113,134,-21,-123
,51,2023-10-27 10:30:09.28,-93,-44,-2052,1,-13,-10,314,36,278,-175
,52,2023-10-27 10:30:09.29,-89,-50,-2063,-4,-16,-5,120,131,-11,-125
,53,2023-10-27 10:30:09.30,-99,-49,-2064,0,-21,-3,313,50,263,-181
,54,2023-10-27 10:30:09.31,-89,-55,-2060,-1,-28,3,134,127,7,-130
,55,2023-10-27 10:30:09.32,-93,-51,-2053,4,-34,7,308,50,258,-179
,56,2023-10-27 10:30:09.33,-92,-44,-2058,10,-34,12,134,114,20,-124
,57,2023-10-27 10:30:09.34,-94,-46,-2056,17,-26,17,294,59,235,-176
,58,2023-10-27 10:30:09.35,-102,-32,-2057,19,-32,19,136,115,21,-125
,59,2023-10-27 10:30:09.36,-113,-46,-2050,20,-21,20,290,63,227,-176
,60,2023-10-27 10:30:09.37,-109,-41,-2054,26,-19,21,150,105,45,-127
,61,2023-10-27 10:30:09.38,-103,-54,-2052,29,-16,23,290,64,226,-177
,62,2023-10-27 10:30:09.39,-105,-46,-2032,30,-7,24,152,98,54,-125
,63,2023-10-27 10:30:09.40,-108,-46,-2038,32,-1,23,276,73,203,-174
,64,2023-10-27 10:30:09.41,-115,-37,-2047,32,1,23,148,102,46,-125
,65,2023-10-27 10:30:09.42,-96,-37,-2049,35,4,19,268,86,182,-177
,66,2023-10-27 10:30:09.43,-87,-44,-2055,36,8,11,155,90,65,-122
,67,2023-10-27 10:30:09.44,-83,-37,-2053,40,19,2,259,90,169,-174
,68,2023-10-27 10:30:09.45,-82,-31,-2051,45,33,-3,156,82,74,-119
,69,2023-10-27 10:30:09.46,-91,-37,-2048,44,40,-10,249,81,168,-165
,70,2023-10-27 10:30:09.47,-76,-36,-2057,46,38,-20,170,63,107,-116
,71,2023-10-27 10:30:09.48,-69,-42,-2056,46,42,-27,243,103,140,-173
,72,2023-10-27 10:30:09.49,-75,-37,-2062,49,42,-31,174,77,97,-125
,73,2023-10-27 10:30:09.50,-78,-34,-2072,46,47,-39,236,109,127,-172
,74,2023-10-27 10:30:09.51,-66,-36,-2079,53,37,-51,184,60,124,-122
,75,2023-10-27 10:30:09.52,-72,-17,-2074,50,35,-62,231,103,128,-167
,76,2023-10-27 10:30:09.53,-56,-22,-2038,40,37,-78,188,54,134,-121
,77,2023-10-27 10:30:09.54,-59,-24,-2029,31,41,-88,230,119,111,-174
,78,2023-10-27 10:30:09.55,-65,-26,-2040,22,48,-102,200,54,146,-127
,79,2023-10-27 10:30:09.56,-43,-36,-2035,22,39,-116,218,121,97,-169
,80,2023-10-27 10:30:09.57,-42,-20,-2043,21,32,-128,198,46,152,-122
,81,2023-10-27 10:30:09.58,-41,-34,-2063,17,41,-139,216,124,92,-170
,82,2023-10-27 10:30:09.59,-44,-45,-2063,18,36,-148,206,38,168,-122
,83,2023-10-27 10:30:09.60,-47,-40,-2077,19,37,-152,211,136,75,-173
,84,2023-10-27 10:30:09.61,-59,-46,-2077,20,33,-154,210,36,174,-123
,85,2023-10-27 10:30:09.62,-60,-48,-2087,22,27,-151,206,142,64,-174
,86,2023-10-27 10:30:09.63,-60,-60,-2090,28,7,-153,212,21,191,-116
,87,2023-10-27 10:30:09.64,-65,-65,-2089,30,-26,-140,203,156,47,-179
,88,2023-10-27 10:30:09.65,-79,-63,-2086,34,-46,-135,231,32,199,-131
,89,2023-10-27 10:30:09.66,-76,-57,-2086,35,-59,-130,212,166,46,-189
,90,2023-10-27 10:30:09.67,-81,-55,-2078,38,-71,-126,246,19,227,-132
,91,2023-10-27 10:30:09.68,-83,-53,-2070,46,-77,-123,196,149,47,-172
,92,2023-10-27 10:30:09.69,-89,-50,-2060,44,-78,-122,242,1,241,-121
,93,2023-10-27 10:30:09.70,-90,-53,-2069,42,-84,-121,186,167,19,-176
,94,2023-10-27 10:30:09.71,-93,-42,-2068,41,-80,-123,256,16,240,-136
,95,2023-10-27 10:30:09.72,-111,-51,-2061,40,-75,-126,179,178,1,-178
,96,2023-10-27 10:30:09.73,-101,-51,-2069,35,-77,-123,263,5,258,-134
,97,2023-10-27 10:30:09.74,-115,-48,-2057,30,-70,-127,177,174,3,-175
,98,2023-10-27 10:30:09.75,-101,-61,-2058,32,-67,-130,270,2,268,-136
,99,2023-10-27 10:30:09.76,-115,-64,-2041,30,-66,-135,168,187,-19,-177
,100,2023-10-27 10:30:09.77,-102,-60,-2043,30,-67,-137,272,2,270,-137
,101,2023-10-27 10:30:09.78,-113,-69,-2058,40,-67,-138,154,191,-37,-172
,102,2023-10-27 10:30:09.79,-110,-69,-2041,44,-69,-137,277,-10,287,-133
,103,2023-10-27 10:30:09.80,-108,-68,-2038,45,-66,-143,148,180,-32,-164
,104,2023-10-27 10:30:09.81,-116,-73,-2021,47,-59,-146,280,-19,299,-130
,105,2023-10-27 10:30:09.82,-103,-68,-2011,48,-50,-152,147,192,-45,-169
,106,2023-10-27 10:30:09.83,-112,-93,-2034,46,-39,-149,291,-17,308,-137
,107,2023-10-27 10:30:09.84,-127,-80,-2028,39,-36,-152,138,208,-70,-173
,108,2023-10-27 10:30:09.85,-131,-87,-2045,33,-26,-158,289,-20,309,-134
,109,2023-10-27 10:30:09.86,-117,-76,-2040,34,-22,-161,134,199,-65,-166
,110,2023-10-27 10:30:09.87,-116,-83,-2032,29,-17,-162,295,-32,327,-131
,111,2023-10-27 10:30:09.88,-117,-100,-2032,21,-7,-168,123,206,-83,-164
,112,2023-10-27 10:30:09.89,-106,-90,-2036,22,-5,-175,301,-30,331,-135
,113,2023-10-27 10:30:09.90,-108,-82,-2029,25,4,-180,120,222,-102,-171
,114,2023-10-27 10:30:09.91,-99,-88,-2042,29,14,-189,309,-30,339,-139
,115,2023-10-27 10:30:09.92,-95,-83,-2039,32,28,-199,118,212,-94,-165
,116,2023-10-27 10:30:09.93,-95,-76,-2053,34,27,-208,321,-50,371,-135
,117,2023-10-27 10:30:09.94,-96,-79,-2062,36,30,-214,115,200,-85,-157
,118,2023-10-27 10:30:09.95,-112,-80,-2070,37,27,-217,324,-53,377,-135
,119,2023-10-27 10:30:09.96,-117,-82,-2077,35,18,-224,110,225,-115,-167
,120,2023-10-27 10:30:09.97,-124,-87,-2088,31,0,-227,332,-42,374,-145
,121,2023-10-27 10:30:09.98,-117,-97,-2093,23,-13,-231,107,224,-117,-165
,122,2023-10-27 10:30:09.99,-114,-86,-2079,17,-40,-233,339,-52,391,-143
,123,2023-10-27 10:30:10.00,-110,-95,-2082,15,-51,-235,103,232,-129,-167
,124,2023-10-27 10:30:10.01,-121,-79,-2063,8,-62,-233,346,-51,397,-147
,125,2023-10-27 10:30:10.02,-115,-86,-2067,-1,-70,-231,100,227,-127,-163
,126,2023-10-27 10:30:10.03,-131,-79,-2075,-5,-68,-227,346,-64,410,-141
,127,2023-10-27 10:30:10.04,-128,-82,-2050,-7,-73,-222,76,222,-146,-149
,128,2023-10-27 10:30:10.05,-132,-90,-2050,-14,-69,-218,342,-59,401,-141
,129,2023-10-27 10:30:10.06,-139,-90,-2039,-16,-74,-215,85,244,-159,-164
,130,2023-10-27 10:30:10.07,-127,-99,-2038,-13,-74,-212,365,-55,420,-155
,131,2023-10-27 10:30:10.08,-146,-92,-2039,-12,-75,-212,91,248,-157,-169
,132,2023-10-27 10:30:10.09,-136,-95,-2039,-9,-73,-215,366,-62,428,-152
,133,2023-10-27 10:30:10.10,-123,-87,-2020,-9,-65,-217,80,238,-158,-159
,134,2023-10-27 10:30:10.11,-111,-85,-2017,-15,-51,-220,363,-71,434,-146
,135,2023-10-27 10:30:10.12,-110,-63,-2021,-19,-33,-224,66,241,-175,-153
,136,2023-10-27 10:30:10.13,-103,-69,-2026,-23,-11,-233,362,-69,431,-146
,137,2023-10-27 10:30:10.14,-93,-63,-2018,-26,15,-240,64,250,-186,-157
,138,2023-10-27 10:30:10.15,-99,-55,-2025,-32,53,-251,370,-67,437,-151
,139,2023-10-27 10:30:10.16,-102,-62,-2029,-38,86,-261,74,252,-178,-163
,140,2023-10-27 10:30:10.17,-87,-66,-2051,-26,88,-271,379,-73,452,-153
,141,2023-10-27 10:30:10.18,-112,-70,-2055,-10,88,-281,61,254,-193,-157
,142,2023-10-27 10:30:10.19,-112,-69,-2097,2,68,-287,368,-69,437,-149
,143,2023-10-27 10:30:10.20,-105,-83,-2123,13,47,-292,59,261,-202,-160
,144,2023-10-27 10:30:10.21,-83,-84,-2096,20,41,-298,378,-72,450,-153
,145,2023-10-27 10:30:10.22,-75,-83,-2065,14,42,-293,54,263,-209,-158
,146,2023-10-27 10:30:10.23,-93,-96,-2031,5,44,-287,378,-78,456,-150
,147,2023-10-27 10:30:10.24,-85,-98,-2033,19,30,-286,56,256,-200,-156
,148,2023-10-27 10:30:10.25,-96,-110,-2046,33,16,-286,392,-78,470,-157
,149,2023-10-27 10:30:10.26,-95,-123,-2060,55,-7,-273,58,272,-214,-165
,150,2023-10-27 10:30:10.27,-101,-121,-2061,58,-22,-258,396,-78,474,-159
,151,2023-10-27 10:30:10.28,-109,-141,-2059,55,-35,-242,56,256,-200,-156
,152,2023-10-27 10:30:10.29,-128,-155,-2047,54,-47,-230,405,-83,488,-161
,153,2023-10-27 10:30:10.30,-113,-145,-2044,57,-65,-214,67,265,-198,-166
,154,2023-10-27 10:30:10.31,-119,-137,-2048,57,-75,-201,406,-73,479,-166
,155,2023-10-27 10:30:10.32,-134,-128,-2046,55,-89,-196,45,268,-223,-156
,156,2023-10-27 10:30:10.33,-128,-130,-2050,55,-88,-188,381,-80,461,-150
,157,2023-10-27 10:30:10.34,-133,-134,-2062,47,-92,-182,8,254,-246,-131
,158,2023-10-27 10:30:10.35,-129,-111,-2042,33,-90,-181,376,-90,466,-143
,159,2023-10-27 10:30:10.36,-126,-123,-2033,23,-86,-182,42,246,-204,-144
,160,2023-10-27 10:30:10.37,-130,-125,-2032,14,-71,-188,405,-87,492,-159
,161,2023-10-27 10:30:10.38,-126,-123,-2027,9,-58,-188,44,262,-218,-153
,162,2023-10-27 10:30:10.39,-118,-133,-2035,7,-43,-192,399,-75,474,-162
,163,2023-10-27 10:30:10.40,-129,-129,-2041,5,-29,-190,40,268,-228,-154
,164,2023-10-27 10:30:10.41,-125,-139,-2058,5,-12,-188,401,-87,488,-157
,165,2023-10-27 10:30:10.42,-115,-147,-2062,10,-4,-179,50,257,-207,-153
,166,2023-10-27 10:30:10.43,-111,-133,-2066,11,8,-170,407,-90,497,-158
,167,2023-10-27 10:30:10.44,-112,-130,-2072,12,14,-163,49,262,-213,-155
,168,2023-10-27 10:30:10.45,-109,-110,-2062,12,21,-157,393,-86,479,-153
,169,2023-10-27 10:30:10.46,-115,-115,-2050,9,24,-153,32,269,-237,-150
,170,2023-10-27 10:30:10.47,-119,-129,-2048,9,20,-146,397,-68,465,-164
,171,2023-10-27 10:30:10.48,-113,-124,-2058,13,17,-144,32,272,-240,-152
,172,2023-10-27 10:30:10.49,-117,-124,-2071,20,11,-138,396,-71,467,-162
,173,2023-10-27 10:30:10.50,-114,-137,-2081,31,-2,-131,26,258,-232,-142
,174,2023-10-27 10:30:10.51,-120,-147,-2082,44,-13,-123,394,-72,466,-161
,175,2023-10-27 10:30:10.52,-118,-137,-2082,55,-35,-111,26,264,-238,-145
,176,2023-10-27 10:30:10.53,-123,-138,-2069,66,-44,-99,399,-63,462,-168
,177,2023-10-27 10:30:10.54,-126,-148,-2050,64,-47,-89,32,262,-230,-147
,178,2023-10-27 10:30:10.55,-127,-124,-2036,68,-63,-78,404,-66,470,-169
,179,2023-10-27 10:30:10.56,-124,-127,-2025,66,-74,-67,38,257,-219,-147
,180,2023-10-27 10:30:10.57,-132,-121,-2039,60,-83,-56,405,-73,478,-166
,181,2023-10-27 10:30:10.58,-143,-117,-2049,49,-92,-50,42,245,-203,-143
,182,2023-10-27 10:30:10.59,-146,-123,-2062,38,-101,-39,407,-72,479,-167
,183,2023-10-27 10:30:10.60,-152,-124,-2068,31,-96,-29,43,253,-210,-148
,184,2023-10-27 10:30:10.61,-158,-118,-2060,20,-95,-18,398,-65,463,-166
,185,2023-10-27 10:30:10.62,-154,-108,-2055,10,-91,-5,32,247,-215,-139
,186,2023-10-27 10:30:10.63,-149,-111,-2061,-2,-86,5,393,-69,462,-162
,187,2023-10-27 10:30:10.64,-159,-113,-2055,-9,-80,13,36,238,-202,-137
,188,2023-10-27 10:30:10.65,-158,-109,-2046,-13,-65,18,401,-64,465,-168
,189,2023-10-27 10:30:10.66,-151,-113,-2042,-11,-57,29,44,235,-191,-139
,190,2023-10-27 10:30:10.67,-151,-114,-2037,-3,-49,39,408,-66,474,-171
,191,2023-10-27 10:30:10.68,-140,-113,-2036,8,-43,51,54,224,-170,-139
,192,2023-10-27 10:30:10.69,-152,-121,-2031,18,-36,56,402,-56,458,-173
,193,2023-10-27 10:30:10.70,-138,-108,-2029,30,-34,65,49,235,-186,-142
,194,2023-10-27 10:30:10.71,-137,-106,-2020,38,-27,70,394,-54,448,-170
,195,2023-10-27 10:30:10.72,-130,-110,-2022,48,-22,77,50,224,-174,-137
,196,2023-10-27 10:30:10.73,-138,-108,-2024,56,-17,80,394,-55,449,-169
,197,2023-10-27 10:30:10.74,-131,-109,-2036,67,-8,81,54,224,-170,-139
,198,2023-10-27 10:30:10.75,-126,-118,-2031,78,-4,77,386,-50,436,-168
,199,2023-10-27 10:30:10.76,-135,-122,-2046,89,1,79,48,219,-171,-133
,200,2023-10-27 10:30:10.77,-134,-123,-2056,99,3,82,383,-55,438,-164
,201,2023-10-27 10:30:10.78,-135,-126,-2054,101,2,81,53,204,-151,-128
,202,2023-10-27 10:30:10.79,-130,-128,-2057,103,4,82,394,-46,440,-174
,203,2023-10-27 10:30:10.80,-132,-121,-2067,108,-2,81,64,209,-145,-136
,204,2023-10-27 10:30:10.81,-137,-141,-2059,111,-10,82,388,-32,420,-178
,205,2023-10-27 10:30:10.82,-129,-137,-2057,107,-21,82,64,208,-144,-136
,206,2023-10-27 10:30:10.83,-141,-143,-2062,107,-27,81,397,-24,421,-186
,207,2023-10-27 10:30:10.84,-133,-140,-2054,106,-27,80,71,196,-125,-133
,208,2023-10-27 10:30:10.85,-148,-147,-2045,110,-31,79,380,-23,403,-178
,209,2023-10-27 10:30:10.86,-147,-163,-2042,106,-41,79,57,188,-131,-122
,210,2023-10-27 10:30:10.87,-154,-165,-2060,107,-50,80,370,-37,407,-166
,211,2023-10-27 10:30:10.88,-135,-158,-2056,105,-53,82,71,168,-97,-119
,212,2023-10-27 10:30:10.89,-145,-163,-2055,98,-49,82,352,-24,376,-164
,213,2023-10-27 10:30:10.90,-153,-160,-2042,91,-43,85,68,196,-128,-132
,214,2023-10-27 10:30:10.91,-155,-146,-2054,85,-30,84,353,-6,359,-173
,215,2023-10-27 10:30:10.92,-169,-147,-2086,77,-28,79,72,185,-113,-128
,216,2023-10-27 10:30:10.93,-181,-143,-2090,68,-26,69,356,-4,360,-176
,217,2023-10-27 10:30:10.94,-184,-154,-2082,71,-32,64,82,181,-99,-131
,218,2023-10-27 10:30:10.95,-190,-151,-2081,67,-43,59,353,-5,358,-174
,219,2023-10-27 10:30:10.96,-185,-138,-2067,60,-54,51,85,164,-79,-124
,220,2023-10-27 10:30:10.97,-182,-129,-2052,49,-65,40,351,0,351,-175
,221,2023-10-27 10:30:10.98,-169,-124,-2034,35,-66,27,93,164,-71,-128
,222,2023-10-27 10:30:10.99,-168,-140,-2026,28,-62,18,344,21,323,-182
,223,2023-10-27 10:30:11.00,-178,-130,-2019,28,-53,9,92,169,-77,-130
,224,2023-10-27 10:30:11.01,-185,-140,-2020,25,-51,-1,337,20,317,-178
,225,2023-10-27 10:30:11.02,-176,-166,-2015,31,-54,-4,100,150,-50,-125
,226,2023-10-27 10:30:11.03,-183,-176,-2021,45,-57,-5,334,22,312,-178
,227,2023-10-27 10:30:11.04,-200,-191,-2000,69,-70,1,107,154,-47,-130
,228,2023-10-27 10:30:11.05,-207,-192,-2004,89,-75,6,324,36,288,-180
,229,2023-10-27 10:30:11.06,-193,-210,-2001,110,-87,14,112,142,-30,-127
,230,2023-10-27 10:30:11.07,-211,-200,-2009,131,-103,23,320,35,285,-177
,231,2023-10-27 10:30:11.08,-228,-199,-2019,148,-117,30,120,140,-20,-130
,232,2023-10-27 10:30:11.09,-223,-190,-2037,156,-131,37,316,39,277,-177
,233,2023-10-27 10:30:11.10,-224,-182,-2041,159,-137,42,124,130,-6,-127
,234,2023-10-27 10:30:11.11,-218,-172,-2040,158,-145,48,308,47,261,-177
,235,2023-10-27 10:30:11.12,-234,-184,-2053,147,-151,52,131,126,5,-128
,236,2023-10-27 10:30:11.13,-240,-181,-2059,140,-157,52,308,51,257,-179
,237,2023-10-27 10:30:11.14,-252,-183,-2062,129,-149,52,140,118,22,-129
,238,2023-10-27 10:30:11.15,-243,-195,-2072,121,-153,50,305,55,250,-180
,239,2023-10-27 10:30:11.16,-245,-178,-2059,107,-143,48,145,111,34,-128
,240,2023-10-27 10:30:11.17,-257,-191,-2058,95,-136,46,301,58,243,-179
,241,2023-10-27 10:30:11.18,-254,-185,-2054,82,-131,43,150,102,48,-126
,242,2023-10-27 10:30:11.19,-253,-187,-2033,77,-120,40,290,63,227,-176
,243,2023-10-27 10:30:11.20,-244,-202,-2023,66,-102,40,153,96,57,-124
,244,2023-10-27 10:30:11.21,-243,-204,-2018,59,-82,36,289,76,213,-182
,245,2023-10-27 10:30:11.22,-248,-216,-2002,58,-63,35,167,91,76,-129
,246,2023-10-27 10:30:11.23,-231,-214,-2013,59,-52,38,277,89,188,-183
,247,2023-10-27 10:30:11.24,-231,-208,-1999,63,-38,37,172,99,73,-135
,248,2023-10-27 10:30:11.25,-237,-213,-1995,67,-21,38,268,91,177,-179
,249,2023-10-27 10:30:11.26,-231,-209,-1994,70,-11,39,175,80,95,-127
,250,2023-10-27 10:30:11.27,-233,-213,-2008,69,1,36,250,85,165,-167
,251,2023-10-27 10:30:11.28,-223,-215,-2007,68,10,34,179,80,99,-129
,252,2023-10-27 10:30:11.29,-212,-211,-2008,70,18,30,254,110,144,-182
,253,2023-10-27 10:30:11.30,-218,-202,-2014,74,22,28,178,73,105,-125
,254,2023-10-27 10:30:11.31,-209,-213,-2001,80,16,26,240,110,130,-175
,255,2023-10-27 10:30:11.32,-206,-214,-2001,83,19,27,184,69,115,-126
,256,2023-10-27 10:30:11.33,-212,-221,-1996,92,8,27,232,125,107,-178
,257,2023-10-27 10:30:11.34,-221,-231,-2001,99,-10,27,192,70,122,-131
,258,2023-10-27 10:30:11.35,-233,-233,-2019,111,-35,25,227,124,103,-175
,259,2023-10-27 10:30:11.36,-237,-250,-2045,129,-63,26,193,58,135,-125
,260,2023-10-27 10:30:11.37,-248,-253,-2075,151,-96,31,217,134,83,-175
,261,2023-10-27 10:30:11.38,-238,-258,-2060,161,-130,37,197,59,138,-128
,262,2023-10-27 10:30:11.39,-264,-249,-2067,166,-158,47,210,139,71,-174
,263,2023-10-27 10:30:11.40,-281,-258,-2069,168,-179,48,205,43,162,-124
,264,2023-10-27 10:30:11.41,-290,-251,-2062,175,-203,48,211,136,75,-173
,265,2023-10-27 10:30:11.42,-296,-229,-2061,167,-214,49,213,33,180,-123
,266,2023-10-27 10:30:11.43,-315,-233,-2061,151,-224,43,202,138,64,-170
,267,2023-10-27 10:30:11.44,-311,-236,-2055,125,-223,35,219,20,199,-119
,268,2023-10-27 10:30:11.45,-333,-228,-2058,102,-227,23,196,123,73,-159
,269,2023-10-27 10:30:11.46,-331,-227,-2047,77,-226,14,233,8,225,-120
,270,2023-10-27 10:30:11.47,-341,-238,-2041,46,-220,-2,199,148,51,-173
,271,2023-10-27 10:30:11.48,-352,-230,-2029,19,-204,-15,248,21,227,-134
,272,2023-10-27 10:30:11.49,-347,-237,-2032,-7,-187,-23,193,156,37,-174
,273,2023-10-27 10:30:11.50,-333,-244,-2021,-32,-166,-31,248,7,241,-127
,274,2023-10-27 10:30:11.51,-336,-245,-2003,-56,-139,-40,184,138,46,-161
,275,2023-10-27 10:30:11.52,-324,-251,-1985,-83,-105,-47,256,-13,269,-121
,276,2023-10-27 10:30:11.53,-325,-241,-1979,-103,-72,-51,182,159,23,-170
,277,2023-10-27 10:30:11.54,-309,-242,-1975,-118,-37,-57,262,4,258,-133
,278,2023-10-27 10:30:11.55,-302,-247,-1949,-128,-1,-58,175,175,0,-175
,279,2023-10-27 10:30:11.56,-287,-253,-1951,-137,47,-57,268,-2,270,-133
,280,2023-10-27 10:30:11.57,-272,-256,-1940,-142,89,-55,172,174,-2,-173
,281,2023-10-27 10:30:11.58,-274,-277,-1930,-136,133,-53,274,-13,287,-130
,282,2023-10-27 10:30:11.59,-263,-269,-1935,-116,167,-45,168,176,-8,-172
,283,2023-10-27 10:30:11.60,-258,-272,-1940,-84,186,-30,285,-19,304,-133
,284,2023-10-27 10:30:11.61,-242,-260,-1942,-53,204,-17,162,184,-22,-173
,285,2023-10-27 10:30:11.62,-250,-275,-1950,-21,208,-2,292,-21,313,-135
,286,2023-10-27 10:30:11.63,-239,-286,-1988,12,205,13,151,193,-42,-172
,287,2023-10-27 10:30:11.64,-244,-267,-2009,37,196,25,294,-24,318,-135
,288,2023-10-27 10:30:11.65,-228,-265,-2029,57,182,40,148,202,-54,-175
,289,2023-10-27 10:30:11.66,-233,-256,-2053,74,179,53,297,-38,335,-129
,290,2023-10-27 10:30:11.67,-248,-242,-2063,83,171,63,137,176,-39,-156
,291,2023-10-27 10:30:11.68,-240,-237,-2082,82,155,72,295,-57,352,-119
,292,2023-10-27 10:30:11.69,-245,-229,-2091,77,136,82,128,199,-71,-163
,293,2023-10-27 10:30:11.70,-252,-235,-2090,68,109,91,308,-31,339,-138
,294,2023-10-27 10:30:11.71,-262,-234,-2096,55,70,100,119,207,-88,-163
,295,2023-10-27 10:30:11.72,-263,-226,-2093,43,31,111,309,-40,349,-134
,296,2023-10-27 10:30:11.73,-255,-231,-2081,28,5,114,117,210,-93,-163
,297,2023-10-27 10:30:11.74,-252,-229,-2037,5,-22,120,316,-47,363,-134
,298,2023-10-27 10:30:11.75,-250,-223,-2026,-3,-23,115,116,216,-100,-166
,299,2023-10-27 10:30:11.76,-244,-226,-2025,-9,-22,108,324,-49,373,-137
,300,2023-10-27 10:30:11.77,-252,-225,-2013,-7,-21,94,111,224,-113,-167
,301,2023-10-27 10:30:11.78,-248,-226,-2019,-1,-3,84,328,-50,378,-139
,302,2023-10-27 10:30:11.79,-260,-232,-2014,8,2,76,99,226,-127,-162
,303,2023-10-27 10:30:11.80,-255,-230,-2019,9,11,68,333,-58,391,-137
,304,2023-10-27 10:30:11.81,-268,-233,-2017,11,16,59,95,221,-126,-158
,305,2023-10-27 10:30:11.82,-279,-243,-2010,10,13,51,339,-58,397,-140
,306,2023-10-27 10:30:11.83,-269,-242,-2003,11,13,53,91,239,-148,-165
,307,2023-10-27 10:30:11.84,-276,-244,-1996,6,22,53,347,-54,401,-146
,308,2023-10-27 10:30:11.85,-270,-242,-2000,1,33,54,99,234,-135,-166
,309,2023-10-27 10:30:11.86,-267,-242,-1993,-7,42,55,356,-65,421,-145
,310,2023-10-27 10:30:11.87,-264,-233,-2006,-13,44,57,85,229,-144,-157
,311,2023-10-27 10:30:11.88,-263,-226,-2012,-17,49,55,355,-70,425,-142
,312,2023-10-27 10:30:11.89,-255,-224,-2020,-22,51,50,86,230,-144,-158
,313,2023-10-27 10:30:11.90,-250,-214,-2020,-26,59,43,358,-72,430,-143
,314,2023-10-27 10:30:11.91,-254,-215,-2031,-31,64,36,70,238,-168,-154
,315,2023-10-27 10:30:11.92,-249,-210,-2043,-35,65,28,356,-70,426,-143
,316,2023-10-27 10:30:11.93,-255,-205,-2048,-38,60,21,80,240,-160,-160
,317,2023-10-27 10:30:11.94,-247,-205,-2066,-44,52,13,372,-80,452,-146
,318,2023-10-27 10:30:11.95,-246,-216,-2071,-45,37,8,78,238,-160,-158
,319,2023-10-27 10:30:11.96,-248,-212,-2065,-49,25,6,370,-79,449,-145
,320,2023-10-27 10:30:11.97,-246,-213,-2051,-50,16,4,66,248,-182,-157
,321,2023-10-27 10:30:11.98,-235,-205,-2052,-48,6,4,365,-78,443,-143
,322,2023-10-27 10:30:11.99,-234,-203,-2047,-47,1,1,58,252,-194,-155
,323,2023-10-27 10:30:12.00,-234,-209,-2042,-44,-1,0,373,-78,451,-147
,324,2023-10-27 10:30:12.01,-246,-203,-2036,-42,-3,-3,57,250,-193,-153
,325,2023-10-27 10:30:12.02,-240,-209,-2031,-37,1,-1,378,-82,460,-148
,326,2023-10-27 10:30:12.03,-243,-219,-2030,-29,1,-4,56,245,-189,-150
,327,2023-10-27 10:30:12.04,-246,-210,-2027,-24,2,-1,382,-82,464,-150
,328,2023-10-27 10:30:12.05,-245,-218,-2031,-19,-2,2,59,259,-200,-159
,329,2023-10-27 10:30:12.06,-233,-230,-2042,-14,-7,7,393,-75,468,-159
,330,2023-10-27 10:30:12.07,-243,-221,-2034,-7,-6,17,49,248,-199,-148
,331,2023-10-27 10:30:12.08,-251,-210,-2034,-7,-3,22,384,-96,480,-144
,332,2023-10-27 10:30:12.09,-240,-216,-2037,-8,-1,27,50,232,-182,-141
,333,2023-10-27 10:30:12.10,-233,-199,-2028,2,10,27,395,-92,487,-151
,334,2023-10-27 10:30:12.11,-239,-199,-2023,6,20,28,52,256,-204,-154
,335,2023-10-27 10:30:12.12,-230,-212,-2017,15,32,24,399,-78,477,-160
,336,2023-10-27 10:30:12.13,-232,-212,-2012,19,45,20,46,262,-216,-154
,337,2023-10-27 10:30:12.14,-234,-205,-2020,30,53,21,398,-81,479,-158
,338,2023-10-27 10:30:12.15,-241,-206,-2010,37,62,21,46,257,-211,-151
,339,2023-10-27 10:30:12.16,-228,-208,-1993,41,68,19,395,-87,482,-154
,340,2023-10-27 10:30:12.17,-223,-212,-2008,50,61,20,36,252,-216,-144
,341,2023-10-27 10:30:12.18,-231,-207,-2002,55,65,22,396,-85,481,-155
,342,2023-10-27 10:30:12.19,-234,-211,-2014,56,59,24,40,257,-217,-148
,343,2023-10-27 10:30:12.20,-238,-208,-2021,53,54,23,399,-84,483,-157
,344,2023-10-27 10:30:12.21,-244,-215,-2027,55,47,24,40,261,-221,-150
,345,2023-10-27 10:30:12.22,-240,-227,-2020,49,41,25,397,-85,482,-156
,346,2023-10-27 10:30:12.23,-234,-221,-2023,42,42,28,37,263,-226,-150
,347,2023-10-27 10:30:12.24,-232,-214,-2022,39,40,25,406,-83,489,-161
,348,2023-10-27 10:30:12.25,-233,-212,-2024,29,41,25,40,259,-219,-149
,349,2023-10-27 10:30:12.26,-239,-204,-2019,17,44,20,410,-85,495,-162
,350,2023-10-27 10:30:12.27,-237,-225,-2038,10,45,16,44,256,-212,-150
,351,2023-10-27 10:30:12.28,-234,-212,-2034,8,45,14,413,-94,507,-159
,352,2023-10-27 10:30:12.29,-227,-221,-2034,2,47,9,37,233,-196,-135
,353,2023-10-27 10:30:12.30,-236,-219,-2046,2,50,6,408,-96,504,-156
,354,2023-10-27 10:30:12.31,-237,-226,-2034,0,58,7,44,243,-199,-143
,355,2023-10-27 10:30:12.32,-228,-230,-2050,-2,62,19,413,-85,498,-164
,356,2023-10-27 10:30:12.33,-220,-229,-2059,5,57,26,42,243,-201,-142
,357,2023-10-27 10:30:12.34,-240,-222,-2031,9,61,15,408,-88,496,-160
,358,2023-10-27 10:30:12.35,-229,-227,-2024,12,64,1,44,242,-198,-143
,359,2023-10-27 10:30:12.36,-218,-235,-2026,12,67,9,408,-87,495,-160
,360,2023-10-27 10:30:12.37,-215,-230,-2028,18,67,15,41,242,-201,-141
,361,2023-10-27 10:30:12.38,-205,-236,-2019,22,68,7,408,-82,490,-163
,362,2023-10-27 10:30:12.39,-200,-233,-2016,28,67,-1,38,241,-203,-139
,363,2023-10-27 10:30:12.40,-195,-245,-2013,28,76,-1,408,-82,490,-163
,364,2023-10-27 10:30:12.41,-199,-252,-2015,38,87,-5,39,236,-197,-137
,365,2023-10-27 10:30:12.42,-194,-253,-2006,56,93,-6,402,-69,471,-166
,366,2023-10-27 10:30:12.43,-203,-246,-2011,70,105,-7,33,247,-214,-140
,367,2023-10-27 10:30:12.44,-186,-260,-2004,82,120,-9,405,-67,472,-169
,368,2023-10-27 10:30:12.45,-197,-255,-2004,89,121,-12,44,232,-188,-138
,369,2023-10-27 10:30:12.46,-197,-252,-2017,114,121,-7,407,-88,495,-159
,370,2023-10-27 10:30:12.47,-197,-252,-2019,127,109,1,56,224,-168,-140
,371,2023-10-27 10:30:12.48,-202,-256,-2031,111,96,6,405,-77,482,-164
,372,2023-10-27 10:30:12.49,-189,-266,-2035,99,84,9,50,231,-181,-140
,373,2023-10-27 10:30:12.50,-172,-227,-2052,83,68,20,408,-65,473,-171
,374,2023-10-27 10:30:12.51,-179,-257,-2064,53,59,40,54,233,-179,-143
,375,2023-10-27 10:30:12.52,-195,-252,-2055,35,52,43,403,-59,462,-172
,376,2023-10-27 10:30:12.53,-190,-241,-2043,22,54,48,38,215,-177,-126
,377,2023-10-27 10:30:12.54,-183,-242,-2056,13,46,62,392,-53,445,-169
,378,2023-10-27 10:30:12.55,-186,-233,-2050,-12,52,75,39,221,-182,-130
,379,2023-10-27 10:30:12.56,-198,-252,-2032,-38,53,80,383,-49,432,-167
,380,2023-10-27 10:30:12.57,-177,-251,-2039,-69,51,87,42,214,-172,-128
,381,2023-10-27 10:30:12.58,-188,-254,-2035,-84,56,91,382,-55,437,-163
,382,2023-10-27 10:30:12.59,-173,-237,-2023,-85,58,100,50,209,-159,-129
,383,2023-10-27 10:30:12.60,-167,-249,-2037,-89,70,118,384,-49,433,-167
,384,2023-10-27 10:30:12.61,-179,-244,-2029,-99,83,130,59,208,-149,-133
,385,2023-10-27 10:30:12.62,-184,-234,-2049,-104,88,135,388,-42,430,-173
,386,2023-10-27 10:30:12.63,-164,-228,-2033,-117,89,132,64,204,-140,-134
,387,2023-10-27 10:30:12.64,-161,-220,-2035,-130,93,140,388,-37,425,-175
,388,2023-10-27 10:30:12.65,-155,-213,-2025,-142,96,153,64,203,-139,-133
,389,2023-10-27 10:30:12.66,-156,-203,-2031,-154,104,157,384,-30,414,-177
,390,2023-10-27 10:30:12.67,-159,-203,-2033,-174,112,155,70,188,-118,-129
,391,2023-10-27 10:30:12.68,-168,-187,-2031,-191,113,158,375,-32,407,-171
,392,2023-10-27 10:30:12.69,-159,-188,-2033,-195,115,167,70,188,-118,-129
,393,2023-10-27 10:30:12.70,-170,-184,-2036,-204,115,168,374,-24,398,-175
,394,2023-10-27 10:30:12.71,-146,-190,-2031,-218,107,171,82,182,-100,-132
,395,2023-10-27 10:30:12.72,-156,-177,-2047,-217,102,175,368,-26,394,-171
,396,2023-10-27 10:30:12.73,-150,-183,-2037,-211,95,173,78,177,-99,-127
,397,2023-10-27 10:30:12.74,-139,-170,-2030,-203,99,171,362,-14,376,-174
,398,2023-10-27 10:30:12.75,-148,-161,-2039,-188,95,173,80,175,-95,-127
,399,2023-10-27 10:30:12.76,-144,-135,-2047,-179,90,174,357,-3,360,-177
,400,2023-10-27 10:30:12.77,-157,-126,-2052,-172,74,168,84,167,-83,-125
,401,2023-10-27 10:30:12.78,-164,-123,-2073,-174,61,162,350,-3,353,-173
,402,2023-10-27 10:30:12.79,-167,-127,-2084,-176,43,163,92,156,-64,-124
,403,2023-10-27 10:30:12.80,-166,-119,-2078,-169,25,162,352,3,349,-177
,404,2023-10-27 10:30:12.81,-165,-110,-2069,-172,16,159,105,160,-55,-132
,405,2023-10-27 10:30:12.82,-169,-96,-2069,-175,16,155,345,8,337,-176
,406,2023-10-27 10:30:12.83,-152,-101,-2068,-170,6,154,101,149,-48,-125
,407,2023-10-27 10:30:12.84,-150,-102,-2055,-168,4,157,342,13,329,-177
,408,2023-10-27 10:30:12.85,-160,-92,-2054,-165,4,151,109,146,-37,-127
,409,2023-10-27 10:30:12.86,-163,-82,-2073,-163,3,143,336,19,317,-177
,410,2023-10-27 10:30:12.87,-155,-67,-2064,-164,1,134,111,137,-26,-124
,411,2023-10-27 10:30:12.88,-162,-70,-2058,-156,-6,130,332,41,291,-186
,412,2023-10-27 10:30:12.89,-138,-87,-2047,-147,-2,119,111,133,-22,-122
,413,2023-10-27 10:30:12.90,-129,-92,-2027,-125,4,109,307,29,278,-168
,414,2023-10-27 10:30:12.91,-131,-109,-2014,-93,21,101,106,109,-3,-107
,415,2023-10-27 10:30:12.92,-139,-103,-2006,-58,40,95,314,40,274,-177
,416,2023-10-27 10:30:12.93,-120,-111,-1997,-20,59,92,133,128,5,-130
,417,2023-10-27 10:30:12.94,-134,-104,-2004,19,75,88,302,38,264,-170
,418,2023-10-27 10:30:12.95,-130,-99,-2008,51,83,86,131,113,18,-122
,419,2023-10-27 10:30:12.96,-136,-87,-2022,65,83,90,305,47,258,-176
,420,2023-10-27 10:30:12.97,-148,-107,-2032,74,78,96,144,99,45,-121
,421,2023-10-27 10:30:12.98,-143,-85,-2032,74,75,94,307,49,258,-178
,422,2023-10-27 10:30:12.99,-152,-78,-2045,70,68,93,153,94,59,-123
,423,2023-10-27 10:30:13.00,-147,-91,-2048,62,60,99,288,59,229,-173
,424,2023-10-27 10:30:13.01,-152,-96,-2061,51,49,98,151,94,57,-122
,425,2023-10-27 10:30:13.02,-158,-93,-2065,43,37,96,282,69,213,-175
,426,2023-10-27 10:30:13.03,-144,-91,-2070,34,35,96,158,90,68,-124
,427,2023-10-27 10:30:13.04,-154,-86,-2069,23,41,98,272,67,205,-169
,428,2023-10-27 10:30:13.05,-139,-102,-2073,17,41,99,160,73,87,-116
,429,2023-10-27 10:30:13.06,-141,-91,-2070,5,41,99,274,76,198,-175
,430,2023-10-27 10:30:13.07,-125,-93,-2068,-4,40,100,174,76,98,-125
,431,2023-10-27 10:30:13.08,-130,-82,-2066,-12,46,99,272,92,180,-182
,432,2023-10-27 10:30:13.09,-149,-90,-2063,-18,53,93,182,74,108,-128
,433,2023-10-27 10:30:13.10,-130,-84,-2050,-17,56,90,256,87,169,-171
,434,2023-10-27 10:30:13.11,-143,-94,-2050,-7,57,86,181,57,124,-119
,435,2023-10-27 10:30:13.12,-122,-91,-2069,-2,52,86,250,96,154,-173
,436,2023-10-27 10:30:13.13,-134,-92,-2067,-3,53,90,189,54,135,-121
,437,2023-10-27 10:30:13.14,-133,-98,-2057,2,51,93,239,98,141,-168
,438,2023-10-27 10:30:13.15,-133,-99,-2059,2,59,90,188,50,138,-119
,439,2023-10-27 10:30:13.16,-110,-79,-2052,1,66,92,218,107,111,-162
,440,2023-10-27 10:30:13.17,-107,-86,-2053,1,65,97,184,47,137,-115
,441,2023-10-27 10:30:13.18,-116,-79,-2063,-1,59,95,214,114,100,-164
,442,2023-10-27 10:30:13.19,-111,-76,-2057,-6,60,88,196,39,157,-117
,443,2023-10-27 10:30:13.20,-120,-71,-2052,-8,54,84,214,121,93,-167
,444,2023-10-27 10:30:13.21,-111,-70,-2053,-12,49,78,205,33,172,-119
,445,2023-10-27 10:30:13.22,-119,-79,-2054,-13,39,75,204,134,70,-169
,446,2023-10-27 10:30:13.23,-120,-75,-2058,-19,33,67,211,36,175,-123
,447,2023-10-27 10:30:13.24,-119,-64,-2038,-16,29,61,205,134,71,-169
,448,2023-10-27 10:30:13.25,-118,-75,-2053,-12,26,53,231,21,210,-126
,449,2023-10-27 10:30:13.26,-113,-71,-2054,-7,23,54,201,134,67,-167
,450,2023-10-27 10:30:13.27,-112,-85,-2066,-5,18,55,234,18,216,-126
,451,2023-10-27 10:30:13.28,-126,-99,-2061,-1,21,57,195,148,47,-171
,452,2023-10-27 10:30:13.29,-118,-94,-2060,5,20,57,244,27,217,-135
,453,2023-10-27 10:30:13.30,-109,-102,-2046,4,23,72,180,159,21,-169
,454,2023-10-27 10:30:13.31,-114,-98,-2057,4,30,81,239,8,231,-123
,455,2023-10-27 10:30:13.32,-121,-95,-2060,3,35,88,177,146,31,-161
,456,2023-10-27 10:30:13.33,-114,-90,-2055,1,39,87,254,-1,255,-126
,457,2023-10-27 10:30:13.34,-114,-89,-2053,-1,37,92,176,163,13,-169
,458,2023-10-27 10:30:13.35,-114,-89,-2065,-3,32,98,259,-4,263,-127
,459,2023-10-27 10:30:13.36,-112,-83,-2063,-3,29,95,176,166,10,-171
,460,2023-10-27 10:30:13.37,-108,-75,-2054,0,33,91,272,-7,279,-132
,461,2023-10-27 10:30:13.38,-126,-88,-2059,5,27,89,167,170,-3,-168
,462,2023-10-27 10:30:13.39,-116,-84,-2062,12,19,90,274,-6,280,-134
,463,2023-10-27 10:30:13.40,-113,-89,-2053,12,10,90,159,191,-32,-175
,464,2023-10-27 10:30:13.41,-112,-85,-2053,7,9,89,278,-8,286,-135
,465,2023-10-27 10:30:13.42,-96,-90,-2057,4,6,86,156,192,-36,-174
,466,2023-10-27 10:30:13.43,-127,-86,-2052,3,1,91,292,-18,310,-137
,467,2023-10-27 10:30:13.44,-115,-72,-2061,-1,0,87,152,193,-41,-172
,468,2023-10-27 10:30:13.45,-124,-87,-2042,-1,1,84,294,-21,315,-136
,469,2023-10-27 10:30:13.46,-119,-89,-2043,9,-11,74,130,201,-71,-165
,470,2023-10-27 10:30:13.47,-122,-87,-2027,17,-7,66,291,-19,310,-136
,471,2023-10-27 10:30:13.48,-125,-91,-2013,27,-11,58,132,214,-82,-173
,472,2023-10-27 10:30:13.49,-125,-96,-2025,21,-3,52,302,-16,318,-143
,473,2023-10-27 10:30:13.50,-117,-88,-2033,22,2,47,126,228,-102,-177
,474,2023-10-27 10:30:13.51,-127,-106,-2027,24,-3,42,304,-20,324,-142
,475,2023-10-27 10:30:13.52,-125,-123,-2042,23,-13,48,123,220,-97,-171
,476,2023-10-27 10:30:13.53,-122,-131,-2053,24,-17,55,320,-46,366,-137
,477,2023-10-27 10:30:13.54,-104,-140,-2046,28,-18,55,120,183,-63,-151
,478,2023-10-27 10:30:13.55,-113,-131,-2050,33,-6,62,316,-53,369,-131
,479,2023-10-27 10:30:13.56,-127,-120,-2057,34,-2,72,99,231,-132,-165
,480,2023-10-27 10:30:13.57,-122,-107,-2039,39,11,77,314,-26,340,-144
,481,2023-10-27 10:30:13.58,-129,-96,-2036,37,19,82,94,234,-140,-164
,482,2023-10-27 10:30:13.59,-137,-119,-2058,27,20,83,318,-43,361,-137
,483,2023-10-27 10:30:13.60,-124,-101,-2064,25,17,85,100,229,-129,-164
,484,2023-10-27 10:30:13.61,-122,-104,-2067,25,20,85,331,-47,378,-142
,485,2023-10-27 10:30:13.62,-119,-101,-2078,24,27,86,88,244,-156,-166
,486,2023-10-27 10:30:13.63,-110,-115,-2068,26,37,88,324,-42,366,-141
,487,2023-10-27 10:30:13.64,-105,-115,-2052,31,46,89,83,248,-165,-165
,488,2023-10-27 10:30:13.65,-106,-117,-2048,35,56,94,343,-53,396,-145
,489,2023-10-27 10:30:13.66,-107,-124,-2045,43,59,99,88,237,-149,-162
,490,2023-10-27 10:30:13.67,-97,-122,-2043,48,66,105,354,-60,414,-147
,491,2023-10-27 10:30:13.68,-94,-121,-2049,48,69,108,87,240,-153,-163
,492,2023-10-27 10:30:13.69,-93,-105,-2048,49,70,118,353,-55,408,-149
,493,2023-10-27 10:30:13.70,-86,-94,-2041,47,79,121,78,259,-181,-168
,494,2023-10-27 10:30:13.71,-77,-106,-2055,40,86,128,347,-64,411,-141
,495,2023-10-27 10:30:13.72,-74,-106,-2052,33,91,136,68,242,-174,-155
,496,2023-10-27 10:30:13.73,-61,-120,-2047,25,96,139,353,-75,428,-139
,497,2023-10-27 10:30:13.74,-55,-117,-2042,23,103,149,70,251,-181,-160
,498,2023-10-27 10:30:13.75,-63,-128,-2052,29,110,157,364,-72,436,-146
,499,2023-10-27 10:30:13.76,-68,-143,-2056,44,110,170,59,240,-181,-149
,500,2023-10-27 10:30:13.77,-60,-131,-2053,56,118,185,364,-76,440,-144
,501,2023-10-27 10:30:13.78,-67,-132,-2068,59,117,201,55,255,-200,-155
,502,2023-10-27 10:30:13.79,-76,-121,-2075,60,103,225,370,-72,442,-149
,503,2023-10-27 10:30:13.80,-61,-125,-2064,50,85,245,58,249,-191,-153
,504,2023-10-27 10:30:13.81,-66,-135,-2062,32,74,266,379,-80,459,-149
,505,2023-10-27 10:30:13.82,-50,-129,-2063,23,70,285,66,249,-183,-157
,506,2023-10-27 10:30:13.83,-50,-121,-2064,25,71,298,383,-76,459,-153
,507,2023-10-27 10:30:13.84,-74,-111,-2067,46,77,325,58,263,-205,-160
,508,2023-10-27 10:30:13.85,-69,-117,-2054,50,75,339,378,-77,455,-150
,509,2023-10-27 10:30:13.86,-67,-114,-2055,45,63,344,49,263,-214,-156
,510,2023-10-27 10:30:13.87,-68,-118,-2063,41,55,344,379,-74,453,-152
,511,2023-10-27 10:30:13.88,-74,-103,-2081,42,44,345,42,266,-224,-154
,512,2023-10-27 10:30:13.89,-90,-97,-2077,48,29,347,384,-75,459,-154
,513,2023-10-27 10:30:13.90,-97,-92,-2058,55,19,337,41,259,-218,-150
,514,2023-10-27 10:30:13.91,-89,-95,-2059,62,14,329,386,-76,462,-155
,515,2023-10-27 10:30:13.92,-90,-94,-2047,66,-2,322,38,263,-225,-150
,516,2023-10-27 10:30:13.93,-96,-89,-2053,67,-17,320,392,-80,472,-156
,517,2023-10-27 10:30:13.94,-73,-89,-2044,64,-17,310,50,258,-208,-154
,518,2023-10-27 10:30:13.95,-98,-91,-2055,54,-4,299,399,-83,482,-158
,519,2023-10-27 10:30:13.96,-81,-80,-2049,53,8,290,42,263,-221,-152
,520,2023-10-27 10:30:13.97,-86,-74,-2049,49,14,282,389,-86,475,-151
,521,2023-10-27 10:30:13.98,-88,-80,-2040,48,19,268,32,261,-229,-146
,522,2023-10-27 10:30:13.99,-93,-80,-2053,41,26,253,402,-87,489,-157
,523,2023-10-27 10:30:14.00,-97,-84,-2074,36,35,235,52,258,-206,-155
,524,2023-10-27 10:30:14.01,-95,-96,-2061,40,33,222,416,-89,505,-163
,525,2023-10-27 10:30:14.02,-92,-105,-2083,48,30,214,40,252,-212,-146
,526,2023-10-27 10:30:14.03,-89,-99,-2062,48,30,208,404,-88,492,-158
,527,2023-10-27 10:30:14.04,-92,-108,-2058,44,21,206,44,251,-207,-147
,528,2023-10-27 10:30:14.05,-92,-142,-2081,28,13,216,411,-87,498,-162
,529,2023-10-27 10:30:14.06,-81,-143,-2080,25,-3,222,43,260,-217,-151
,530,2023-10-27 10:30:14.07,-61,-131,-2049,32,0,219,400,-81,481,-159
,531,2023-10-27 10:30:14.08,-66,-145,-2043,38,12,224,30,258,-228,-144
,532,2023-10-27 10:30:14.09,-55,-131,-2036,49,25,236,400,-82,482,-159
,533,2023-10-27 10:30:14.10,-58,-105,-2034,59,24,244,29,253,-224,-141
,534,2023-10-27 10:30:14.11,-69,-110,-2021,57,27,243,406,-78,484,-164
,535,2023-10-27 10:30:14.12,-67,-115,-2043,49,38,245,33,248,-215,-140
,536,2023-10-27 10:30:14.13,-48,-116,-2052,43,34,245,405,-78,483,-163
,537,2023-10-27 10:30:14.14,-52,-113,-2067,45,34,254,41,254,-213,-147
,538,2023-10-27 10:30:14.15,-63,-106,-2056,43,26,258,403,-78,481,-162
,539,2023-10-27 10:30:14.16,-66,-107,-2070,44,18,253,34,250,-216,-142
,540,2023-10-27 10:30:14.17,-71,-84,-2089,37,7,250,396,-86,482,-155
,541,2023-10-27 10:30:14.18,-75,-91,-2068,34,-3,239,37,246,-209,-141
,542,2023-10-27 10:30:14.19,-68,-79,-2083,32,-14,231,409,-76,485,-166
,543,2023-10-27 10:30:14.20,-78,-73,-2088,29,-24,217,39,247,-208,-143
,544,2023-10-27 10:30:14.21,-85,-76,-2070,33,-33,198,407,-73,480,-167
,545,2023-10-27 10:30:14.22,-69,-61,-2077,40,-47,175,45,242,-197,-143
,546,2023-10-27 10:30:14.23,-71,-81,-2074,35,-51,151,406,-68,474,-169
,547,2023-10-27 10:30:14.24,-72,-68,-2069,31,-57,127,43,246,-203,-144
,548,2023-10-27 10:30:14.25,-78,-77,-2080,34,-57,106,402,-76,478,-163
,549,2023-10-27 10:30:14.26,-91,-74,-2064,43,-64,79,37,229,-192,-133
,550,2023-10-27 10:30:14.27,-89,-72,-2053,52,-67,47,394,-71,465,-161
,551,2023-10-27 10:30:14.28,-99,-81,-2051,58,-68,21,33,237,-204,-135
,552,2023-10-27 10:30:14.29,-91,-86,-2045,67,-66,-5,396,-63,459,-166
,553,2023-10-27 10:30:14.30,-94,-94,-2047,76,-76,-23,40,229,-189,-134
,554,2023-10-27 10:30:14.31,-100,-92,-2054,78,-72,-51,395,-66,461,-164
,555,2023-10-27 10:30:14.32,-101,-84,-2052,81,-77,-77,43,221,-178,-132
,556,2023-10-27 10:30:14.33,-113,-83,-2050,80,-77,-98,389,-66,455,-161
,557,2023-10-27 10:30:14.34,-112,-94,-2058,78,-86,-116,44,218,-174,-131
,558,2023-10-27 10:30:14.35,-121,-85,-2057,80,-95,-136,387,-67,454,-160
,559,2023-10-27 10:30:14.36,-120,-85,-2063,76,-108,-156,48,213,-165,-130
,560,2023-10-27 10:30:14.37,-115,-89,-2054,68,-115,-175,390,-49,439,-170
,561,2023-10-27 10:30:14.38,-100,-93,-2056,59,-120,-195,53,228,-175,-140
,562,2023-10-27 10:30:14.39,-105,-98,-2040,52,-115,-216,387,-38,425,-174
,563,2023-10-27 10:30:14.40,-102,-106,-2039,43,-116,-237,50,214,-164,-132
,564,2023-10-27 10:30:14.41,-114,-98,-2049,38,-111,-257,388,-46,434,-171
,565,2023-10-27 10:30:14.42,-121,-96,-2062,30,-109,-276,65,199,-134,-132
,566,2023-10-27 10:30:14.43,-138,-99,-2054,22,-111,-292,388,-48,436,-170
,567,2023-10-27 10:30:14.44,-129,-107,-2059,12,-106,-304,71,195,-124,-133
,568,2023-10-27 10:30:14.45,-141,-116,-2067,2,-104,-314,378,-38,416,-170
,569,2023-10-27 10:30:14.46,-149,-106,-2079,-6,-109,-322,64,198,-134,-131
,570,2023-10-27 10:30:14.47,-171,-123,-2080,-17,-114,-329,370,-28,398,-171
,571,2023-10-27 10:30:14.48,-171,-150,-2088,-19,-125,-337,66,196,-130,-131
,572,2023-10-27 10:30:14.49,-161,-183,-2063,-17,-130,-324,369,-23,392,-173
,573,2023-10-27 10:30:14.50,-154,-187,-2036,-20,-117,-301,70,189,-119,-129
,574,2023-10-27 10:30:14.51,-145,-191,-2017,-23,-91,-272,361,-21,382,-170
,575,2023-10-27 10:30:14.52,-152,-184,-1992,-23,-63,-248,78,185,-107,-131
,576,2023-10-27 10:30:14.53,-140,-160,-1983,-21,-32,-227,356,-15,371,-170
,577,2023-10-27 10:30:14.54,-156,-175,-1987,-21,-10,-204,82,182,-100,-132
,578,2023-10-27 10:30:14.55,-162,-157,-2007,-22,2,-186,346,2,344,-174
,579,2023-10-27 10:30:14.56,-157,-156,-2028,-21,18,-170,72,187,-115,-129
,580,2023-10-27 10:30:14.57,-136,-150,-2039,-21,29,-151,340,1,339,-170
,581,2023-10-27 10:30:14.58,-127,-152,-2047,-21,46,-137,78,163,-85,-120
,582,2023-10-27 10:30:14.59,-134,-141,-2050,-23,46,-123,334,0,334,-167
,583,2023-10-27 10:30:14.60,-126,-146,-2045,-31,48,-110,79,159,-80,-119
,584,2023-10-27 10:30:14.61,-116,-154,-2041,-36,49,-100,329,6,323,-167
,585,2023-10-27 10:30:14.62,-113,-153,-2045,-42,65,-90,96,151,-55,-123
,586,2023-10-27 10:30:14.63,-90,-149,-2047,-40,82,-79,324,10,314,-167
,587,2023-10-27 10:30:14.64,-95,-160,-2040,-35,105,-65,93,152,-59,-122
,588,2023-10-27 10:30:14.65,-93,-159,-2054,-30,119,-53,317,23,294,-170
,589,2023-10-27 10:30:14.66,-100,-147,-2066,-27,134,-39,103,156,-53,-129
,590,2023-10-27 10:30:14.67,-87,-152,-2062,-25,132,-28,318,32,286,-175
,591,2023-10-27 10:30:14.68,-97,-144,-2051,-21,133,-15,106,140,-34,-123
,592,2023-10-27 10:30:14.69,-95,-145,-2052,-18,122,-6,308,35,273,-171
,593,2023-10-27 10:30:14.70,-98,-144,-2054,-13,106,-1,110,141,-31,-125
,594,2023-10-27 10:30:14.71,-82,-137,-2060,-11,89,1,297,50,247,-173
,595,2023-10-27 10:30:14.72,-99,-131,-2061,1,71,6,117,136,-19,-126
,596,2023-10-27 10:30:14.73,-89,-117,-2051,12,53,11,288,48,240,-168
,597,2023-10-27 10:30:14.74,-96,-123,-2042,8,52,15,119,123,-4,-121
,598,2023-10-27 10:30:14.75,-80,-128,-2043,1,52,12,286,54,232,-170
,599,2023-10-27 10:30:14.76,-85,-116,-2073,-3,44,10,127,123,4,-125
,600,2023-10-27 10:30:14.77,-86,-125,-2065,-10,36,5,284,64,220,-174
,601,2023-10-27 10:30:14.78,-76,-111,-2056,-13,29,-3,138,110,28,-124
,602,2023-10-27 10:30:14.79,-77,-116,-2054,-12,30,-7,284,68,216,-176
,603,2023-10-27 10:30:14.80,-86,-125,-2057,-6,35,-11,147,104,43,-125
,604,2023-10-27 10:30:14.81,-74,-116,-2059,-4,31,-12,265,75,190,-170
,605,2023-10-27 10:30:14.82,-99,-108,-2075,-2,25,-17,142,99,43,-120
,606,2023-10-27 10:30:14.83,-89,-127,-2078,-1,24,-22,253,57,196,-155
,607,2023-10-27 10:30:14.84,-89,-128,-2066,-3,22,-23,146,75,71,-110
,608,2023-10-27 10:30:14.85,-85,-129,-2060,1,19,-21,253,80,173,-166
,609,2023-10-27 10:30:14.86,-90,-124,-2051,4,14,-20,156,92,64,-124
,610,2023-10-27 10:30:14.87,-92,-123,-2057,3,13,-22,255,101,154,-178
,611,2023-10-27 10:30:14.88,-78,-132,-2061,-2,9,-24,169,86,83,-127
,612,2023-10-27 10:30:14.89,-85,-132,-2052,-1,7,-23,246,101,145,-173
,613,2023-10-27 10:30:14.90,-83,-124,-2049,4,8,-21,173,73,100,-123
,614,2023-10-27 10:30:14.91,-81,-138,-2040,17,7,-21,243,104,139,-173
,615,2023-10-27 10:30:14.92,-77,-124,-2033,31,0,-22,186,66,120,-126
,616,2023-10-27 10:30:14.93,-91,-134,-2037,40,-3,-19,237,116,121,-176
,617,2023-10-27 10:30:14.94,-90,-141,-2051,49,-7,-17,189,69,120,-129
,618,2023-10-27 10:30:14.95,-101,-116,-2047,56,-14,-11,223,120,103,-171
,619,2023-10-27 10:30:14.96,-107,-132,-2060,72,-26,-17,193,66,127,-129
,620,2023-10-27 10:30:14.97,-102,-125,-2037,55,-5,-14,218,128,90,-173
,621,2023-10-27 10:30:14.98,-105,-128,-2053,41,5,-14,199,56,143,-127
,622,2023-10-27 10:30:14.99,-97,-124,-2048,41,3,-15,213,127,86,-170
,623,2023-10-27 10:30:15.00,-113,-122,-2048,38,-5,-17,207,49,158,-128
,624,2023-10-27 10:30:15.01,-121,-123,-2061,30,-8,-23,214,140,74,-177
,625,2023-10-27 10:30:15.02,-110,-134,-2072,26,-17,-33,224,43,181,-133
,626,2023-10-27 10:30:15.03,-115,-129,-2063,28,-23,-38,203,138,65,-170
,627,2023-10-27 10:30:15.04,-114,-126,-2073,24,-18,-46,222,33,189,-127
,628,2023-10-27 10:30:15.05,-110,-113,-2067,21,-12,-54,190,138,52,-164
,629,2023-10-27 10:30:15.06,-107,-105,-2062,18,-1,-68,224,25,199,-124
,630,2023-10-27 10:30:15.07,-110,-105,-2055,16,11,-80,186,148,38,-167
,631,2023-10-27 10:30:15.08,-103,-106,-2058,12,13,-94,229,26,203,-127
,632,2023-10-27 10:30:15.09,-112,-120,-2064,10,13,-106,181,157,24,-169
,633,2023-10-27 10:30:15.10,-111,-128,-2058,10,14,-116,240,14,226,-127
,634,2023-10-27 10:30:15.11,-108,-133,-2052,21,9,-124,173,154,19,-163
,635,2023-10-27 10:30:15.12,-119,-132,-2048,34,10,-127,244,8,236,-126
,636,2023-10-27 10:30:15.13,-105,-126,-2039,43,4,-125,165,164,1,-164
,637,2023-10-27 10:30:15.14,-113,-127,-2040,46,0,-125,251,13,238,-132
,638,2023-10-27 10:30:15.15,-111,-140,-2045,46,-4,-126,161,188,-27,-174
,639,2023-10-27 10:30:15.16,-112,-136,-2046,49,-10,-131,262,12,250,-137
,640,2023-10-27 10:30:15.17,-104,-125,-2050,56,-10,-136,197,155,42,-176
,641,2023-10-27 10:30:15.18,-103,-128,-2039,61,-4,-137,294,-21,315,-136
,642,2023-10-27 10:30:15.19,-102,-142,-2028,62,21,-142,153,176,-23,-164
,643,2023-10-27 10:30:15.20,-107,-147,-2022,72,25,-139,255,-6,261,-124
,644,2023-10-27 10:30:15.21,-105,-163,-2031,81,30,-139,128,182,-54,-155
,645,2023-10-27 10:30:15.22,-103,-165,-2047,84,37,-142,272,-17,289,-127
,646,2023-10-27 10:30:15.23,-95,-171,-2040,98,38,-147,134,177,-43,-155
,647,2023-10-27 10:30:15.24,-92,-173,-2031,114,50,-148,280,-19,299,-130
,648,2023-10-27 10:30:15.25,-88,-172,-2028,119,67,-142,131,195,-64,-163
,649,2023-10-27 10:30:15.26,-82,-173,-2051,113,89,-139,288,-17,305,-135
,650,2023-10-27 10:30:15.27,-69,-154,-2062,105,94,-134,126,199,-73,-162
,651,2023-10-27 10:30:15.28,-73,-134,-2068,96,92,-134,290,-27,317,-131
,652,2023-10-27 10:30:15.29,-62,-144,-2042,72,92,-134,116,203,-87,-159
,653,2023-10-27 10:30:15.30,-75,-169,-2066,48,95,-135,295,-34,329,-130
,654,2023-10-27 10:30:15.31,-83,-184,-2057,40,89,-142,117,209,-92,-163
,655,2023-10-27 10:30:15.32,-84,-180,-2058,53,71,-146,309,-36,345,-136
,656,2023-10-27 10:30:15.33,-62,-205,-2062,64,55,-134,105,212,-107,-158
,657,2023-10-27 10:30:15.34,-76,-235,-2043,69,44,-118,304,-39,343,-132
,658,2023-10-27 10:30:15.35,-78,-249,-2060,84,25,-110,112,201,-89,-156
,659,2023-10-27 10:30:15.36,-69,-235,-2030,99,39,-103,324,-53,377,-135
,660,2023-10-27 10:30:15.37,-57,-221,-2023,117,46,-94,110,213,-103,-161
,661,2023-10-27 10:30:15.38,-57,-207,-2022,126,53,-78,318,-54,372,-132
,662,2023-10-27 10:30:15.39,-73,-196,-2022,124,56,-68,92,221,-129,-156
,663,2023-10-27 10:30:15.40,-76,-197,-2031,108,54,-62,317,-59,376,-129
,664,2023-10-27 10:30:15.41,-75,-204,-2046,81,47,-56,98,221,-123,-159
,665,2023-10-27 10:30:15.42,-89,-191,-2059,45,41,-40,335,-62,397,-136
,666,2023-10-27 10:30:15.43,-87,-185,-2071,14,38,-33,86,221,-135,-153
,667,2023-10-27 10:30:15.44,-69,-185,-2054,-19,48,-40,337,-70,407,-133
,668,2023-10-27 10:30:15.45,-67,-189,-2056,-52,60,-35,81,215,-134,-148
,669,2023-10-27 10:30:15.46,-57,-206,-2045,-71,76,-31,344,-71,415,-136
,670,2023-10-27 10:30:15.47,-54,-214,-2027,-87,88,-34,81,235,-154,-158
,671,2023-10-27 10:30:15.48,-43,-216,-2038,-104,111,-29,344,-59,403,-142
,672,2023-10-27 10:30:15.49,-45,-212,-2035,-111,127,-17,75,243,-168,-159
,673,2023-10-27 10:30:15.50,-31,-199,-2028,-113,150,-5,356,-70,426,-143
,674,2023-10-27 10:30:15.51,-17,-195,-2026,-112,166,9,69,236,-167,-152
,675,2023-10-27 10:30:15.52,-24,-187,-2030,-116,183,18,356,-76,432,-140
,676,2023-10-27 10:30:15.53,-2,-197,-2042,-120,189,21,66,231,-165,-148
,677,2023-10-27 10:30:15.54,-1,-194,-2044,-108,189,25,365,-77,442,-144
,678,2023-10-27 10:30:15.55,-5,-167,-2034,-83,197,33,68,238,-170,-153
,679,2023-10-27 10:30:15.56,-2,-184,-2022,-54,219,34,365,-75,440,-145
,680,2023-10-27 10:30:15.57,11,-156,-2038,-35,216,40,61,242,-181,-151
,681,2023-10-27 10:30:15.58,-6,-151,-2050,-37,205,52,366,-79,445,-143
,682,2023-10-27 10:30:15.59,3,-159,-2059,-44,187,58,57,245,-188,-151
,683,2023-10-27 10:30:15.60,0,-170,-2056,-52,167,61,369,-83,452,-143
,684,2023-10-27 10:30:15.61,13,-154,-2087,-51,159,64,56,249,-193,-152
,685,2023-10-27 10:30:15.62,16,-140,-2087,-38,146,74,377,-79,456,-149
,686,2023-10-27 10:30:15.63,18,-130,-2079,-28,135,85,53,260,-207,-156
,687,2023-10-27 10:30:15.64,15,-118,-2069,-29,124,84,380,-77,457,-151
,688,2023-10-27 10:30:15.65,27,-127,-2079,-33,116,76,48,253,-205,-150
,689,2023-10-27 10:30:15.66,18,-125,-2082,-30,100,66,386,-85,471,-150
,690,2023-10-27 10:30:15.67,29,-105,-2064,-32,84,65,54,240,-186,-147
,691,2023-10-27 10:30:15.68,48,-117,-2067,-32,82,62,389,-92,481,-148
,692,2023-10-27 10:30:15.69,36,-129,-2074,-32,74,56,49,253,-204,-151
,693,2023-10-27 10:30:15.70,47,-130,-2061,-21,69,54,384,-85,469,-149
,694,2023-10-27 10:30:15.71,55,-133,-2065,-14,68,52,42,256,-214,-149
,695,2023-10-27 10:30:15.72,52,-129,-2060,-2,64,49,395,-91,486,-152
,696,2023-10-27 10:30:15.73,107,-95,-2012,15,50,36,42,255,-213,-148
,697,2023-10-27 10:30:15.74,57,-122,-2047,16,59,34,396,-88,484,-154
,698,2023-10-27 10:30:15.75,57,-128,-2051,12,57,37,28,250,-222,-139
,699,2023-10-27 10:30:15.76,49,-128,-2062,15,52,37,394,-86,480,-154
,700,2023-10-27 10:30:15.77,28,-130,-2061,21,35,37,36,256,-220,-146
,701,2023-10-27 10:30:15.78,41,-126,-2083,25,20,30,400,-88,488,-156
,702,2023-10-27 10:30:15.79,34,-138,-2090,27,-1,27,33,246,-213,-139
,703,2023-10-27 10:30:15.80,18,-141,-2087,35,-29,23,388,-91,479,-148
,704,2023-10-27 10:30:15.81,24,-154,-2088,32,-41,22,19,250,-231,-134
,705,2023-10-27 10:30:15.82,10,-167,-2098,27,-54,26,382,-88,470,-147
,706,2023-10-27 10:30:15.83,3,-187,-2070,24,-64,40,22,261,-239,-141
,707,2023-10-27 10:30:15.84,3,-194,-2048,20,-70,60,396,-89,485,-153
,708,2023-10-27 10:30:15.85,-2,-189,-2047,12,-70,86,32,246,-214,-139
,709,2023-10-27 10:30:15.86,7,-174,-2072,-12,-74,106,401,-93,494,-154
,710,2023-10-27 10:30:15.87,3,-167,-2087,-45,-95,131,28,252,-224,-140
,711,2023-10-27 10:30:15.88,14,-156,-2082,-81,-110,155,402,-78,480,-162
,712,2023-10-27 10:30:15.89,4,-141,-2065,-111,-105,156,34,259,-225,-146
,713,2023-10-27 10:30:15.90,26,-135,-2055,-132,-74,148,401,-84,485,-158
,714,2023-10-27 10:30:15.91,24,-143,-2062,-133,-54,143,34,249,-215,-141
,715,2023-10-27 10:30:15.92,11,-135,-2077,-115,-40,137,400,-80,480,-160
,716,2023-10-27 10:30:15.93,22,-134,-2061,-91,-30,127,35,259,-224,-147
,717,2023-10-27 10:30:15.94,26,-133,-2048,-62,-16,110,385,-62,447,-161
,718,2023-10-27 10:30:15.95,15,-117,-2041,-44,-12,105,7,278,-271,-142
,719,2023-10-27 10:30:15.96,30,-105,-2047,-31,-16,94,387,-79,466,-154
,720,2023-10-27 10:30:15.97,24,-97,-2060,-33,-11,90,31,231,-200,-131
,721,2023-10-27 10:30:15.98,34,-79,-2051,-32,-21,85,408,-90,498,-159
,722,2023-10-27 10:30:15.99,35,-84,-2053,-39,-10,71,36,238,-202,-137
,723,2023-10-27 10:30:16.00,35,-69,-2028,-51,4,58,398,-72,470,-163
,724,2023-10-27 10:30:16.01,34,-90,-2037,-56,25,45,34,247,-213,-140
,725,2023-10-27 10:30:16.02,24,-92,-2033,-50,33,34,399,-76,475,-161
,726,2023-10-27 10:30:16.03,31,-102,-2031,-49,41,26,40,238,-198,-139
,727,2023-10-27 10:30:16.04,26,-106,-2024,-51,54,16,405,-83,488,-161
,728,2023-10-27 10:30:16.05,37,-101,-2019,-38,61,7,46,231,-185,-138
,729,2023-10-27 10:30:16.06,39,-124,-2033,-15,68,4,407,-76,483,-165
,730,2023-10-27 10:30:16.07,48,-121,-2017,8,82,4,46,242,-196,-144
,731,2023-10-27 10:30:16.08,35,-126,-2022,27,96,6,408,-67,475,-170
,732,2023-10-27 10:30:16.09,18,-119,-2027,46,111,9,46,227,-181,-136
,733,2023-10-27 10:30:16.10,32,-127,-2034,56,123,9,400,-69,469,-165
,734,2023-10-27 10:30:16.11,14,-123,-2034,69,130,3,42,226,-184,-134
,735,2023-10-27 10:30:16.12,-3,-124,-2052,69,139,1,390,-61,451,-164
,736,2023-10-27 10:30:16.13,-9,-113,-2072,69,132,-3,41,221,-180,-131
,737,2023-10-27 10:30:16.14,-16,-112,-2070,50,143,12,384,-67,451,-158
,738,2023-10-27 10:30:16.15,-1,-96,-2070,20,137,24,46,215,-169,-130
,739,2023-10-27 10:30:16.16,-7,-100,-2113,-15,128,26,380,-56,436,-162
,740,2023-10-27 10:30:16.17,-12,-95,-2065,-58,115,24,48,218,-170,-133
,741,2023-10-27 10:30:16.18,3,-85,-2065,-91,112,13,396,-59,455,-168
,742,2023-10-27 10:30:16.19,0,-74,-2067,-114,112,4,71,211,-140,-141
,743,2023-10-27 10:30:16.20,6,-79,-2066,-130,116,-7,396,-55,451,-170
,744,2023-10-27 10:30:16.21,19,-83,-2080,-145,126,-16,58,203,-145,-130
,745,2023-10-27 10:30:16.22,21,-80,-2068,-160,129,-22,375,-56,431,-159
,746,2023-10-27 10:30:16.23,25,-66,-2062,-180,139,-32,57,198,-141,-127
,747,2023-10-27 10:30:16.24,31,-69,-2069,-200,144,-41,382,-48,430,-167
,748,2023-10-27 10:30:16.25,45,-52,-2044,-217,149,-53,76,197,-121,-136
,749,2023-10-27 10:30:16.26,33,-59,-2048,-230,161,-66,373,-40,413,-166
,750,2023-10-27 10:30:16.27,52,-58,-2054,-233,160,-75,62,196,-134,-129
,751,2023-10-27 10:30:16.28,57,-54,-2069,-240,161,-80,366,-32,398,-167
,752,2023-10-27 10:30:16.29,43,-39,-2062,-247,154,-85,79,192,-113,-135
,753,2023-10-27 10:30:16.30,58,-50,-2077,-246,139,-91,375,-30,405,-172
,754,2023-10-27 10:30:16.31,69,-52,-2080,-253,122,-97,80,181,-101,-130
,755,2023-10-27 10:30:16.32,61,-44,-2095,-252,105,-101,365,-32,397,-166
,756,2023-10-27 10:30:16.33,81,-23,-2077,-252,87,-108,79,173,-94,-126
,757,2023-10-27 10:30:16.34,88,-15,-2068,-248,77,-111,360,-22,382,-169
,758,2023-10-27 10:30:16.35,101,-39,-2072,-252,66,-105,88,169,-81,-128
,759,2023-10-27 10:30:16.36,96,-36,-2082,-251,60,-103,359,-12,371,-173
,760,2023-10-27 10:30:16.37,102,-32,-2082,-239,40,-108,97,169,-72,-133
,761,2023-10-27 10:30:16.38,85,-28,-2079,-213,22,-109,348,-18,366,-165
,762,2023-10-27 10:30:16.39,88,-18,-2089,-190,-4,-112,93,156,-63,-124
,763,2023-10-27 10:30:16.40,84,-4,-2098,-160,-30,-110,345,-9,354,-168
,764,2023-10-27 10:30:16.41,67,-11,-2111,-137,-67,-111,104,157,-53,-130
,765,2023-10-27 10:30:16.42,58,0,-2109,-123,-91,-120,344,-2,346,-171
,766,2023-10-27 10:30:16.43,70,-11,-2115,-107,-112,-133,107,143,-36,-125
,767,2023-10-27 10:30:16.44,68,3,-2101,-84,-137,-144,340,-5,345,-167
,768,2023-10-27 10:30:16.45,70,1,-2121,-65,-164,-135,117,137,-20,-127
,769,2023-10-27 10:30:16.46,48,4,-2146,-48,-193,-130,338,8,330,-173
,770,2023-10-27 10:30:16.47,46,12,-2115,-26,-215,-142,128,135,-7,-131
,771,2023-10-27 10:30:16.48,55,13,-2075,-18,-216,-163,331,21,310,-176
,772,2023-10-27 10:30:16.49,49,15,-2051,-15,-205,-169,133,137,-4,-135
,773,2023-10-27 10:30:16.50,56,28,-2020,-9,-205,-164,317,22,295,-169
,774,2023-10-27 10:30:16.51,36,4,-2005,-16,-185,-160,130,124,6,-127
,775,2023-10-27 10:30:16.52,33,-6,-2009,-28,-168,-168,308,35,273,-171
,776,2023-10-27 10:30:16.53,28,-19,-2000,-42,-150,-168,136,124,12,-130
,777,2023-10-27 10:30:16.54,24,-24,-2000,-53,-150,-152,318,40,278,-179
,778,2023-10-27 10:30:16.55,-6,-33,-2020,-64,-131,-137,148,112,36,-130
,779,2023-10-27 10:30:16.56,2,-28,-2017,-75,-126,-120,304,34,270,-169
,780,2023-10-27 10:30:16.57,13,-17,-2003,-92,-91,-108,142,92,50,-117
,781,2023-10-27 10:30:16.58,0,-33,-1997,-106,-48,-98,290,23,267,-156
,782,2023-10-27 10:30:16.59,6,-47,-2011,-121,-13,-90,153,81,72,-117
,783,2023-10-27 10:30:16.60,10,-29,-2025,-127,22,-79,280,58,222,-169
,784,2023-10-27 10:30:16.61,20,-13,-2024,-132,46,-64,156,102,54,-129
,785,2023-10-27 10:30:16.62,17,-9,-2011,-146,73,-58,275,57,218,-166
,786,2023-10-27 10:30:16.63,11,-1,-2018,-167,110,-54,164,73,91,-118
,787,2023-10-27 10:30:16.64,14,6,-2022,-181,138,-49,258,56,202,-157
,788,2023-10-27 10:30:16.65,27,12,-2048,-210,163,-49,160,78,82,-119
,789,2023-10-27 10:30:16.66,22,41,-2053,-228,179,-46,249,75,174,-162
,790,2023-10-27 10:30:16.67,32,36,-2060,-246,184,-46,165,79,86,-122
,791,2023-10-27 10:30:16.68,42,40,-2074,-269,173,-47,246,76,170,-161
,792,2023-10-27 10:30:16.69,39,57,-2094,-283,167,-41,178,63,115,-120
,793,2023-10-27 10:30:16.70,77,94,-2102,-301,147,-34,240,84,156,-162
,794,2023-10-27 10:30:16.71,64,72,-2082,-316,131,-30,188,61,127,-124
,795,2023-10-27 10:30:16.72,87,97,-2078,-327,121,-24,227,82,145,-154
,796,2023-10-27 10:30:16.73,62,99,-2089,-331,106,-23,188,53,135,-120
,797,2023-10-27 10:30:16.74,66,84,-2112,-325,73,-26,228,92,136,-160
,798,2023-10-27 10:30:16.75,51,115,-2117,-320,51,-31,207,49,158,-128
,799,2023-10-27 10:30:16.76,82,119,-2089,-313,22,-40,226,104,122,-165
,800,2023-10-27 10:30:16.77,86,132,-2078,-320,3,-43,206,43,163,-124
,801,2023-10-27 10:30:16.78,64,132,-2086,-325,4,-47,208,105,103,-156
,802,2023-10-27 10:30:16.79,75,141,-2064,-328,12,-53,212,31,181,-121
,803,2023-10-27 10:30:16.80,70,134,-2081,-326,19,-47,200,113,87,-156
,804,2023-10-27 10:30:16.81,88,143,-2064,-322,25,-47,216,35,181,-125
,805,2023-10-27 10:30:16.82,71,148,-2044,-304,10,-45,192,118,74,-155
,806,2023-10-27 10:30:16.83,63,167,-2024,-295,4,-41,223,31,192,-127
,807,2023-10-27 10:30:16.84,57,157,-2061,-295,14,-38,193,135,58,-164
,808,2023-10-27 10:30:16.85,79,163,-2049,-296,7,-37,241,26,215,-133
,809,2023-10-27 10:30:16.86,78,169,-2045,-290,6,-33,200,134,66,-167
,810,2023-10-27 10:30:16.87,57,179,-2033,-276,-5,-29,259,11,248,-135
,811,2023-10-27 10:30:16.88,53,212,-2015,-267,0,-29,194,139,55,-166
,812,2023-10-27 10:30:16.89,78,200,-2018,-256,-1,-29,261,10,251,-135
,813,2023-10-27 10:30:16.90,60,218,-2003,-242,8,-32,179,148,31,-163
,814,2023-10-27 10:30:16.91,70,231,-2015,-234,48,-41,266,9,257,-137
,815,2023-10-27 10:30:16.92,78,258,-2023,-215,66,-49,172,150,22,-161
,816,2023-10-27 10:30:16.93,77,258,-2028,-191,80,-56,271,-3,274,-134
,817,2023-10-27 10:30:16.94,70,266,-2028,-184,99,-69,170,145,25,-157
,818,2023-10-27 10:30:16.95,60,278,-2063,-178,112,-83,284,-7,291,-138
,819,2023-10-27 10:30:16.96,60,291,-2082,-172,121,-95,155,174,-19,-164
,820,2023-10-27 10:30:16.97,54,309,-2057,-165,122,-128,-140,-71,-69,105
,821,2023-10-27 10:30:16.98,90,316,-2047,-194,133,-149,319,-1128,1447,404
,822,2023-10-27 10:30:16.99,95,416,-1983,-232,147,-167,615,-1911,2526,648
,823,2023-10-27 10:30:17.00,119,321,-2055,-253,134,-179,649,-2048,2697,699
,824,2023-10-27 10:30:17.01,98,282,-2088,-284,117,-181,494,-2048,2542,777
,825,2023-10-27 10:30:17.02,99,322,-2042,-326,110,-192,379,-2048,2427,834
,826,2023-10-27 10:30:17.03,108,316,-2022,-361,104,-201,362,-2048,2410,843
,827,2023-10-27 10:30:17.04,110,289,-2037,-362,88,-214,371,-2048,2419,838
,828,2023-10-27 10:30:17.05,94,301,-2044,-348,63,-224,418,-2048,2466,815
,829,2023-10-27 10:30:17.06,104,296,-2033,-332,62,-229,389,-2048,2437,829
,830,2023-10-27 10:30:17.07,107,290,-2050,-306,53,-226,382,-2043,2425,830
,831,2023-10-27 10:30:17.08,106,287,-2052,-271,51,-216,302,-2029,2331,863
,832,2023-10-27 10:30:17.09,106,304,-2072,-225,48,-199,305,-2022,2327,858
,833,2023-10-27 10:30:17.10,99,293,-2069,-154,40,-180,234,-2021,2255,893
,834,2023-10-27 10:30:17.11,96,304,-2057,-98,27,-160,269,-2024,2293,877
,835,2023-10-27 10:30:17.12,75,316,-2020,-56,34,-134,192,-2026,2218,917
,836,2023-10-27 10:30:17.13,61,307,-2065,-12,14,-130,269,-2026,2295,878
,837,2023-10-27 10:30:17.14,67,326,-2075,28,-1,-101,161,-2026,2187,932
,838,2023-10-27 10:30:17.15,62,318,-2048,66,12,-82,274,-2026,2300,876
,839,2023-10-27 10:30:17.16,90,324,-2029,65,-19,-82,158,-2025,2183,933
,840,2023-10-27 10:30:17.17,60,328,-2016,56,-22,-67,312,-2026,2338,857
,841,2023-10-27 10:30:17.18,77,325,-2022,53,-23,-63,142,-2026,2168,942
,842,2023-10-27 10:30:17.19,53,323,-2008,48,-35,-50,324,-2026,2350,851
,843,2023-10-27 10:30:17.20,72,322,-2015,31,-49,-42,128,-2026,2154,949
,844,2023-10-27 10:30:17.21,66,315,-2014,-5,-47,-28,314,-2026,2340,856
,845,2023-10-27 10:30:17.22,72,314,-2005,-25,-39,-19,100,-2026,2126,963
,846,2023-10-27 10:30:17.23,63,310,-1994,-41,-21,-8,295,-2026,2321,865
,847,2023-10-27 10:30:17.24,57,315,-2003,-53,10,-8,91,-2026,2117,967
,848,2023-10-27 10:30:17.25,75,326,-2016,-50,39,-8,300,-2026,2326,863
,849,2023-10-27 10:30:17.26,72,329,-2026,-41,59,-16,74,-2026,2100,976
,850,2023-10-27 10:30:17.27,65,330,-2037,-36,73,-26,296,-2026,2322,865
,851,2023-10-27 10:30:17.28,82,343,-2044,-25,78,-39,72,-2026,2098,977
,852,2023-10-27 10:30:17.29,86,333,-2040,-18,75,-48,309,-2026,2335,858
,853,2023-10-27 10:30:17.30,103,344,-2037,-16,76,-50,54,-2026,2080,986
,854,2023-10-27 10:30:17.31,100,335,-2029,-10,75,-48,288,-2025,2313,868
,855,2023-10-27 10:30:17.32,100,340,-2026,-3,71,-47,19,-2024,2043,1002
,856,2023-10-27 10:30:17.33,94,337,-2023,2,65,-48,272,-2022,2294,875
,857,2023-10-27 10:30:17.34,110,338,-2037,-1,63,-46,0,-2017,2017,1008
,858,2023-10-27 10:30:17.35,106,340,-2042,4,48,-50,282,-2011,2293,864
,859,2023-10-27 10:30:17.36,105,332,-2043,0,30,-53,26,-1984,2010,979
,860,2023-10-27 10:30:17.37,113,338,-2038,-3,15,-54,299,-1957,2256,829
,861,2023-10-27 10:30:17.38,113,338,-2047,-10,-4,-56,0,-1869,1869,934
,862,2023-10-27 10:30:17.39,112,330,-2055,-22,-13,-48,287,-1798,2085,755
,863,2023-10-27 10:30:17.40,103,328,-2049,-28,-28,-39,11,-1652,1663,820
,864,2023-10-27 10:30:17.41,92,332,-2046,-35,-35,-32,302,-1577,1879,637
,865,2023-10-27 10:30:17.42,93,327,-2030,-41,-41,-29,0,-1421,1421,710
,866,2023-10-27 10:30:17.43,82,331,-2039,-43,-47,-30,300,-1356,1656,528
,867,2023-10-27 10:30:17.44,73,330,-2046,-43,-51,-26,-1,-1213,1212,607
,868,2023-10-27 10:30:17.45,74,336,-2052,-49,-63,-24,312,-1162,1474,425
,869,2023-10-27 10:30:17.46,85,330,-2048,-52,-69,-12,18,-1027,1045,504
,870,2023-10-27 10:30:17.47,78,332,-2028,-52,-72,-6,311,-994,1305,341
,871,2023-10-27 10:30:17.48,78,332,-2021,-50,-70,3,-2,-886,884,444
,872,2023-10-27 10:30:17.49,73,343,-2019,-46,-64,13,304,-870,1174,283
,873,2023-10-27 10:30:17.50,68,337,-2021,-42,-64,18,-1,-748,747,374
,874,2023-10-27 10:30:17.51,67,345,-2014,-42,-59,22,310,-727,1037,208
,875,2023-10-27 10:30:17.52,62,342,-2020,-41,-53,22,3,-619,622,308
,876,2023-10-27 10:30:17.53,63,352,-2024,-38,-48,22,324,-630,954,153
,877,2023-10-27 10:30:17.54,73,369,-2022,-34,-43,22,7,-546,553,269
,878,2023-10-27 10:30:17.55,58,373,-2035,-35,-35,22,318,-567,885,124
,879,2023-10-27 10:30:17.56,55,385,-2027,-38,-28,22,-3,-467,464,235
,880,2023-10-27 10:30:17.57,56,386,-2027,-41,-24,13,325,-456,781,65
,881,2023-10-27 10:30:17.58,73,381,-2027,-45,-27,7,5,-369,374,182
,882,2023-10-27 10:30:17.59,47,396,-2037,-51,-22,-3,335,-378,713,21
,883,2023-10-27 10:30:17.60,50,382,-2031,-56,-24,-9,14,-304,318,145
,884,2023-10-27 10:30:17.61,51,380,-2030,-57,-30,-11,339,-328,667,-5
,885,2023-10-27 10:30:17.62,55,380,-2033,-51,-29,-9,10,-283,293,136
,886,2023-10-27 10:30:17.63,63,370,-2034,-48,-30,-5,325,-308,633,-8
,887,2023-10-27 10:30:17.64,48,371,-2028,-40,-30,0,4,-247,251,121
,888,2023-10-27 10:30:17.65,57,374,-2025,-28,-28,10,338,-258,596,-40
,889,2023-10-27 10:30:17.66,59,369,-2028,-14,-27,18,15,-192,207,88
,890,2023-10-27 10:30:17.67,50,369,-2025,-1,-28,22,326,-219,545,-53
,891,2023-10-27 10:30:17.68,62,376,-2027,10,-28,22,0,-183,183,91
,892,2023-10-27 10:30:17.69,54,381,-2020,23,-32,19,333,-198,531,-67
,893,2023-10-27 10:30:17.70,37,379,-2021,31,-38,16,12,-146,158,67
,894,2023-10-27 10:30:17.71,57,372,-2032,42,-40,13,345,-151,496,-97
,895,2023-10-27 10:30:17.72,32,381,-2021,45,-40,15,13,-126,139,56
,896,2023-10-27 10:30:17.73,43,374,-2028,43,-35,14,339,-133,472,-103
,897,2023-10-27 10:30:17.74,48,368,-2028,44,-35,15,6,-127,133,60
,898,2023-10-27 10:30:17.75,40,366,-2023,42,-40,17,328,-143,471,-92
,899,2023-10-27 10:30:17.76,27,359,-2029,34,-36,17,-2,-139,137,70
,900,2023-10-27 10:30:17.77,31,360,-2021,29,-33,21,327,-132,459,-97
,901,2023-10-27 10:30:17.78,40,355,-2018,25,-30,22,3,-112,115,54
,902,2023-10-27 10:30:17.79,41,361,-2014,24,-20,25,333,-91,424,-121
,903,2023-10-27 10:30:17.80,37,362,-2015,25,-15,31,9,-80,89,35
,904,2023-10-27 10:30:17.81,38,357,-2012,28,-10,34,342,-67,409,-137
,905,2023-10-27 10:30:17.82,38,359,-2017,30,-3,34,18,-77,95,29
,906,2023-10-27 10:30:17.83,39,368,-2019,32,1,27,319,-81,400,-119
,907,2023-10-27 10:30:17.84,35,359,-2032,32,5,23,-2,-89,87,45
,908,2023-10-27 10:30:17.85,41,362,-2034,31,9,22,308,-93,401,-107
,909,2023-10-27 10:30:17.86,47,360,-2029,31,11,21,5,-92,97,43
,910,2023-10-27 10:30:17.87,44,361,-2028,30,9,20,322,-47,369,-137
,911,2023-10-27 10:30:17.88,48,359,-2036,30,12,20,14,-46,60,16
,912,2023-10-27 10:30:17.89,32,359,-2020,32,12,21,333,-15,348,-159
,913,2023-10-27 10:30:17.90,53,357,-2020,34,18,21,34,-33,67,0
,914,2023-10-27 10:30:17.91,52,350,-2026,33,23,19,339,-18,357,-160
,915,2023-10-27 10:30:17.92,57,349,-2023,34,21,15,39,-55,94,8
,916,2023-10-27 10:30:17.93,46,348,-2021,33,21,14,336,-26,362,-155
,917,2023-10-27 10:30:17.94,45,338,-1994,36,17,15,46,-50,96,2
,918,2023-10-27 10:30:17.95,52,334,-2012,33,20,14,347,2,345,-174
,919,2023-10-27 10:30:17.96,59,337,-2043,33,21,16,60,-39,99,-10
,920,2023-10-27 10:30:17.97,63,338,-2023,37,11,23,346,5,341,-175
,921,2023-10-27 10:30:17.98,56,352,-2028,22,9,28,52,-39,91,-6
,922,2023-10-27 10:30:17.99,62,346,-2037,16,8,26,325,12,313,-168
,923,2023-10-27 10:30:18.00,44,356,-2036,18,3,22,47,-38,85,-4
,924,2023-10-27 10:30:18.01,54,355,-2048,15,0,16,321,0,321,-160
,925,2023-10-27 10:30:18.02,55,350,-2051,16,-3,12,53,-49,102,-2
,926,2023-10-27 10:30:18.03,53,351,-2039,29,-14,18,322,7,315,-164
,927,2023-10-27 10:30:18.04,61,343,-2027,28,-17,21,56,-35,91,-10
,928,2023-10-27 10:30:18.05,47,345,-2020,26,-17,26,329,33,296,-181
,929,2023-10-27 10:30:18.06,47,344,-2018,23,-17,29,64,-40,104,-12
,930,2023-10-27 10:30:18.07,54,341,-2019,21,-20,31,316,27,289,-171
,931,2023-10-27 10:30:18.08,42,342,-2029,23,-22,32,64,-36,100,-14
,932,2023-10-27 10:30:18.09,50,346,-2026,24,-20,33,331,41,290,-186
,933,2023-10-27 10:30:18.10,38,349,-2038,27,-18,37,93,-29,122,-32
,934,2023-10-27 10:30:18.11,51,357,-2032,27,-19,39,331,44,287,-187
,935,2023-10-27 10:30:18.12,48,355,-2030,24,-18,41,84,-29,113,-27
,936,2023-10-27 10:30:18.13,37,358,-2025,22,-18,41,293,20,273,-156
,937,2023-10-27 10:30:18.14,48,355,-2025,18,-21,40,53,-71,124,9
,938,2023-10-27 10:30:18.15,50,353,-2025,12,-21,40,263,-17,280,-123
,939,2023-10-27 10:30:18.16,39,353,-2028,11,-25,39,60,-79,139,9
,940,2023-10-27 10:30:18.17,56,350,-2026,10,-26,35,281,-2,283,-139
,941,2023-10-27 10:30:18.18,50,352,-2027,16,-23,35,81,-65,146,-8
,942,2023-10-27 10:30:18.19,39,346,-2036,21,-21,32,278,-4,282,-137
,943,2023-10-27 10:30:18.20,42,351,-2030,30,-19,33,73,-76,149,1
,944,2023-10-27 10:30:18.21,55,348,-2016,34,-9,34,266,0,266,-133
,945,2023-10-27 10:30:18.22,50,359,-2023,33,-1,32,100,-53,153,-23
,946,2023-10-27 10:30:18.23,38,359,-2022,31,6,34,303,34,269,-168
,947,2023-10-27 10:30:18.24,59,352,-2027,30,7,33,112,-53,165,-29
,948,2023-10-27 10:30:18.25,59,347,-2021,24,4,32,256,28,228,-142
,949,2023-10-27 10:30:18.26,44,338,-2031,26,3,35,70,-52,122,-9
,950,2023-10-27 10:30:18.27,41,343,-2037,29,-2,36,216,39,177,-127
,951,2023-10-27 10:30:18.28,53,350,-2034,33,-6,36,48,-56,104,4
,952,2023-10-27 10:30:18.29,52,348,-2028,40,-11,34,199,14,185,-106
,953,2023-10-27 10:30:18.30,52,352,-2026,41,-8,35,61,-72,133,5
,954,2023-10-27 10:30:18.31,39,354,-2017,46,-7,33,234,39,195,-136
,955,2023-10-27 10:30:18.32,39,357,-2022,46,-10,32,97,-47,144,-25
,956,2023-10-27 10:30:18.33,45,355,-2033,46,-14,26,242,41,201,-141
,957,2023-10-27 10:30:18.34,46,359,-2026,39,-19,22,95,-63,158,-16
,958,2023-10-27 10:30:18.35,34,360,-2024,35,-22,17,222,40,182,-131
,959,2023-10-27 10:30:18.36,35,345,-2028,29,-23,12,102,-57,159,-22
,960,2023-10-27 10:30:18.37,41,340,-2035,26,-22,13,236,58,178,-147
,961,2023-10-27 10:30:18.38,44,337,-2033,27,-20,11,128,-41,169,-43
,962,2023-10-27 10:30:18.39,38,335,-2031,31,-18,13,228,55,173,-141
,963,2023-10-27 10:30:18.40,29,338,-2027,34,-12,12,120,-62,182,-29
,964,2023-10-27 10:30:18.41,44,338,-2022,38,-9,12,214,17,197,-115
,965,2023-10-27 10:30:18.42,42,349,-2030,42,-10,10,119,-115,234,-2
,966,2023-10-27 10:30:18.43,40,337,-2034,44,-11,9,221,-35,256,-93
,967,2023-10-27 10:30:18.44,23,336,-2034,47,-19,6,143,-130,273,-6
,968,2023-10-27 10:30:18.45,37,337,-2044,43,-25,3,225,-6,231,-109
,969,2023-10-27 10:30:18.46,33,348,-2034,40,-28,-2,141,-103,244,-19
,970,2023-10-27 10:30:18.47,24,344,-2032,28,-29,-3,203,17,186,-110
,971,2023-10-27 10:30:18.48,18,347,-2046,17,-26,-8,143,-89,232,-27
,972,2023-10-27 10:30:18.49,12,351,-2045,12,-28,-12,189,22,167,-105
,973,2023-10-27 10:30:18.50,5,347,-2049,4,-33,-16,130,-94,224,-18
,974,2023-10-27 10:30:18.51,3,340,-2043,-2,-34,-22,177,2,175,-89
,975,2023-10-27 10:30:18.52,17,340,-2037,-6,-32,-23,138,-120,258,-9
,976,2023-10-27 10:30:18.53,10,339,-2032,-7,-25,-23,182,1,181,-91
,977,2023-10-27 10:30:18.54,14,342,-2022,-7,-18,-18,159,-99,258,-30
,978,2023-10-27 10:30:18.55,19,340,-2019,-1,-10,-14,194,27,167,-110
,979,2023-10-27 10:30:18.56,25,338,-2018,2,-4,-7,175,-76,251,-49
,980,2023-10-27 10:30:18.57,31,339,-2027,10,-1,-3,198,60,138,-129
,981,2023-10-27 10:30:18.58,24,337,-2027,18,2,3,192,-53,245,-69
,982,2023-10-27 10:30:18.59,15,335,-2034,22,6,9,190,55,135,-122
,983,2023-10-27 10:30:18.60,23,343,-2038,27,8,14,170,-86,256,-42
,984,2023-10-27 10:30:18.61,22,332,-2026,34,10,17,162,17,145,-89
,985,2023-10-27 10:30:18.62,17,337,-2027,43,16,20,162,-99,261,-31
,986,2023-10-27 10:30:18.63,25,334,-2028,47,20,19,159,30,129,-94
,987,2023-10-27 10:30:18.64,29,327,-2016,51,23,21,178,-83,261,-47
,988,2023-10-27 10:30:18.65,26,320,-2016,54,20,22,144,34,110,-89
,989,2023-10-27 10:30:18.66,23,318,-2018,54,20,27,173,-88,261,-42
,990,2023-10-27 10:30:18.67,34,319,-2021,50,19,29,130,14,116,-72
,991,2023-10-27 10:30:18.68,34,324,-2028,44,24,31,168,-106,274,-31
,992,2023-10-27 10:30:18.69,33,320,-2018,44,26,33,127,4,123,-65
,993,2023-10-27 10:30:18.70,32,318,-2033,34,25,32,201,-94,295,-53
,994,2023-10-27 10:30:18.71,37,320,-2043,26,25,34,149,15,134,-82
,995,2023-10-27 10:30:18.72,45,329,-2031,20,27,32,220,-97,317,-61
,996,2023-10-27 10:30:18.73,51,327,-2032,9,29,32,146,6,140,-76
,997,2023-10-27 10:30:18.74,54,326,-2030,2,39,29,227,-107,334,-60
,998,2023-10-27 10:30:18.75,40,324,-2038,6,44,27,132,-8,140,-62
,999,2023-10-27 10:30:18.76,54,328,-2045,8,41,29,215,-118,333,-48
,1000,2023-10-27 10:30:18.77,42,328,-2045,11,40,28,116,3,113,-59
,1001,2023-10-27 10:30:18.78,52,325,-2035,14,34,28,238,-93,331,-72
,1002,2023-10-27 10:30:18.79,56,328,-2035,16,29,29,124,5,119,-64
,1003,2023-10-27 10:30:18.80,61,331,-2024,13,20,28,243,-96,339,-73
,1004,2023-10-27 10:30:18.81,65,333,-2014,11,17,31,130,11,119,-70
,1005,2023-10-27 10:30:18.82,57,338,-2012,10,12,32,256,-100,356,-78
,1006,2023-10-27 10:30:18.83,69,338,-2018,8,11,35,130,12,118,-71
,1007,2023-10-27 10:30:18.84,63,334,-2034,11,10,31,266,-82,348,-92
,1008,2023-10-27 10:30:18.85,60,328,-2045,14,4,28,114,8,106,-61
,1009,2023-10-27 10:30:18.86,47,327,-2046,19,-2,23,250,-100,350,-75
,1010,2023-10-27 10:30:18.87,49,325,-2055,22,-11,21,98,4,94,-51
,1011,2023-10-27 10:30:18.88,60,328,-2046,24,-19,21,254,-89,343,-82
,1012,2023-10-27 10:30:18.89,52,320,-2044,28,-28,21,95,-11,106,-42
,1013,2023-10-27 10:30:18.90,38,326,-2047,28,-32,26,256,-107,363,-74
,1014,2023-10-27 10:30:18.91,41,314,-2053,32,-43,23,93,-4,97,-44
,1015,2023-10-27 10:30:18.92,32,309,-2053,40,-62,20,259,-101,360,-79
,1016,2023-10-27 10:30:18.93,21,302,-2057,47,-77,16,69,-20,89,-24
,1017,2023-10-27 10:30:18.94,5,300,-2058,54,-87,17,262,-110,372,-76
,1018,2023-10-27 10:30:18.95,10,295,-2064,59,-96,20,74,-28,102,-23
,1019,2023-10-27 10:30:18.96,1,299,-2060,62,-107,25,265,-106,371,-79
,1020,2023-10-27 10:30:18.97,-11,306,-2050,65,-112,26,71,3,68,-37
,1021,2023-10-27 10:30:18.98,-20,311,-2041,62,-111,29,272,-77,349,-97
,1022,2023-10-27 10:30:18.99,-10,317,-2038,51,-104,27,68,5,63,-36
,1023,2023-10-27 10:30:19.00,-11,306,-2031,46,-95,24,280,-91,371,-94
,1024,2023-10-27 10:30:19.01,-32,298,-2016,42,-91,20,48,-25,73,-11
,1025,2023-10-27 10:30:19.02,-16,288,-2026,41,-88,20,279,-101,380,-89
,1026,2023-10-27 10:30:19.03,-33,305,-2022,39,-72,19,58,-27,85,-15
,1027,2023-10-27 10:30:19.04,-18,296,-2016,36,-55,23,295,-89,384,-103
,1028,2023-10-27 10:30:19.05,-24,291,-2016,34,-42,26,52,-17,69,-17
,1029,2023-10-27 10:30:19.06,-17,297,-1999,40,-31,31,289,-84,373,-102
,1030,2023-10-27 10:30:19.07,-5,308,-2005,35,-15,33,53,-31,84,-11
,1031,2023-10-27 10:30:19.08,-1,309,-2005,25,3,38,298,-104,402,-97
,1032,2023-10-27 10:30:19.09,-18,312,-2005,13,23,47,54,-48,102,-3
,1033,2023-10-27 10:30:19.10,-8,312,-2006,3,35,54,300,-113,413,-93
,1034,2023-10-27 10:30:19.11,-3,301,-2011,2,38,59,50,-46,96,-2
,1035,2023-10-27 10:30:19.12,-23,308,-2019,6,35,63,303,-105,408,-99
,1036,2023-10-27 10:30:19.13,-32,313,-2048,5,36,66,37,-42,79,2
,1037,2023-10-27 10:30:19.14,-18,319,-2052,3,34,73,300,-114,414,-93
,1038,2023-10-27 10:30:19.15,-22,315,-2059,9,28,81,51,-44,95,-3
,1039,2023-10-27 10:30:19.16,2,327,-2047,7,21,92,318,-89,407,-114
,1040,2023-10-27 10:30:19.17,-8,331,-2047,8,23,104,53,-14,67,-19
,1041,2023-10-27 10:30:19.18,-1,335,-2056,11,18,110,322,-72,394,-125
,1042,2023-10-27 10:30:19.19,-2,349,-2037,8,15,116,52,-24,76,-14
,1043,2023-10-27 10:30:19.20,-1,346,-2042,-1,12,122,322,-97,419,-112
,1044,2023-10-27 10:30:19.21,-4,344,-2029,-10,8,127,44,-51,95,3
,1045,2023-10-27 10:30:19.22,5,334,-2031,-12,1,132,345,-85,430,-130
,1046,2023-10-27 10:30:19.23,5,330,-2024,-20,6,137,66,-29,95,-18
,1047,2023-10-27 10:30:19.24,19,332,-2036,-18,9,145,350,-77,427,-136
,1048,2023-10-27 10:30:19.25,29,321,-2030,-7,9,154,48,-35,83,-6
,1049,2023-10-27 10:30:19.26,19,330,-2022,12,20,157,332,-101,433,-115
,1050,2023-10-27 10:30:19.27,74,323,-1977,3,72,181,41,-44,85,1
,1051,2023-10-27 10:30:19.28,38,329,-2033,37,60,170,324,-87,411,-118
,1052,2023-10-27 10:30:19.29,24,317,-2022,72,59,174,30,-9,39,-10
,1053,2023-10-27 10:30:19.30,40,314,-2006,90,60,174,320,-62,382,-129
,1054,2023-10-27 10:30:19.31,33,313,-2025,102,71,173,37,5,32,-21
,1055,2023-10-27 10:30:19.32,41,314,-2030,122,63,177,342,-43,385,-149
,1056,2023-10-27 10:30:19.33,49,305,-2030,136,56,177,42,30,12,-36
,1057,2023-10-27 10:30:19.34,40,305,-2038,149,57,184,322,-48,370,-137
,1058,2023-10-27 10:30:19.35,51,290,-2036,172,46,189,-5,-8,3,6
,1059,2023-10-27 10:30:19.36,55,288,-2039,198,46,189,264,-116,380,-74
,1060,2023-10-27 10:30:19.37,53,279,-2036,218,41,190,-26,-54,28,40
,1061,2023-10-27 10:30:19.38,43,277,-2047,246,36,190,270,-132,402,-69
,1062,2023-10-27 10:30:19.39,48,257,-2061,274,26,198,-12,-55,43,33
,1063,2023-10-27 10:30:19.40,33,271,-2061,287,15,203,292,-128,420,-82
,1064,2023-10-27 10:30:19.41,49,275,-2060,297,-4,215,14,-22,36,4
,1065,2023-10-27 10:30:19.42,23,270,-2057,297,-15,222,295,-91,386,-102
,1066,2023-10-27 10:30:19.43,31,264,-2063,286,-23,223,-20,-36,16,28
,1067,2023-10-27 10:30:19.44,27,268,-2064,271,-39,226,244,-151,395,-46
,1068,2023-10-27 10:30:19.45,46,263,-2073,251,-48,219,-37,-68,31,52
,1069,2023-10-27 10:30:19.46,26,264,-2046,226,-43,224,208,-181,389,-13
,1070,2023-10-27 10:30:19.47,31,271,-2071,212,-61,223,-81,-102,21,91
,1071,2023-10-27 10:30:19.48,32,250,-2060,200,-65,220,224,-180,404,-22
,1072,2023-10-27 10:30:19.49,31,272,-2071,187,-67,208,-17,-44,27,30
,1073,2023-10-27 10:30:19.50,44,256,-2056,176,-58,192,260,-139,399,-60
,1074,2023-10-27 10:30:19.51,37,225,-2045,170,-48,176,-15,-21,6,18
,1075,2023-10-27 10:30:19.52,40,219,-2041,168,-47,169,248,-140,388,-54
,1076,2023-10-27 10:30:19.53,25,221,-2025,162,-43,164,-23,-46,23,34
,1077,2023-10-27 10:30:19.54,21,234,-2045,150,-43,165,240,-160,400,-40
,1078,2023-10-27 10:30:19.55,32,224,-2033,142,-44,161,-12,-35,23,23
,1079,2023-10-27 10:30:19.56,38,231,-2029,127,-42,155,268,-138,406,-65
,1080,2023-10-27 10:30:19.57,36,232,-2026,106,-33,145,26,-20,46,-3
,1081,2023-10-27 10:30:19.58,32,235,-2034,95,-21,136,272,-132,404,-70
,1082,2023-10-27 10:30:19.59,29,230,-2050,88,-15,122,1,1,0,-1
,1083,2023-10-27 10:30:19.60,22,222,-2058,85,-13,110,250,-110,360,-70
,1084,2023-10-27 10:30:19.61,24,217,-2054,78,-10,89,6,9,-3,-7
,1085,2023-10-27 10:30:19.62,12,205,-2064,70,-10,79,258,-101,359,-78
,1086,2023-10-27 10:30:19.63,17,208,-2070,66,-18,70,19,8,11,-13
,1087,2023-10-27 10:30:19.64,25,201,-2068,64,-27,67,279,-104,383,-87
,1088,2023-10-27 10:30:19.65,19,197,-2053,61,-26,65,47,10,37,-28
,1089,2023-10-27 10:30:19.66,18,186,-2045,62,-24,62,280,-100,380,-90
,1090,2023-10-27 10:30:19.67,6,195,-2047,61,-24,60,20,0,20,-10
,1091,2023-10-27 10:30:19.68,21,192,-2052,58,-21,53,246,-100,346,-73
,1092,2023-10-27 10:30:19.69,14,201,-2044,58,-19,52,1,2,-1,-1
,1093,2023-10-27 10:30:19.70,3,191,-2045,53,-17,44,262,-82,344,-90
,1094,2023-10-27 10:30:19.71,16,190,-2044,51,-22,44,56,18,38,-37
,1095,2023-10-27 10:30:19.72,12,184,-2047,47,-24,40,293,-71,364,-111
,1096,2023-10-27 10:30:19.73,4,176,-2048,42,-30,40,52,-2,54,-25
,1097,2023-10-27 10:30:19.74,4,168,-2048,43,-36,38,256,-108,364,-74
,1098,2023-10-27 10:30:19.75,3,168,-2046,44,-39,45,14,-39,53,12
,1099,2023-10-27 10:30:19.76,7,154,-2056,49,-38,48,209,-115,324,-47
,1100,2023-10-27 10:30:19.77,8,160,-2060,54,-36,55,9,-6,15,-1
,1101,2023-10-27 10:30:19.78,23,168,-2059,59,-27,60,232,-78,310,-77
,1102,2023-10-27 10:30:19.79,20,168,-2045,63,-19,65,40,5,35,-22
,1103,2023-10-27 10:30:19.80,37,182,-2049,70,-7,67,231,-94,325,-68
,1104,2023-10-27 10:30:19.81,38,172,-2037,80,8,69,44,4,40,-24
,1105,2023-10-27 10:30:19.82,26,175,-2038,84,20,64,265,-43,308,-111
,1106,2023-10-27 10:30:19.83,17,187,-2046,86,38,54,96,39,57,-67
,1107,2023-10-27 10:30:19.84,29,175,-2053,87,47,44,288,-33,321,-127
,1108,2023-10-27 10:30:19.85,31,169,-2047,84,52,36,83,28,55,-55
,1109,2023-10-27 10:30:19.86,26,167,-2047,83,52,34,257,-37,294,-110
,1110,2023-10-27 10:30:19.87,44,159,-2053,82,55,37,68,28,40,-48
,1111,2023-10-27 10:30:19.88,30,158,-2053,85,51,42,238,-37,275,-100
,1112,2023-10-27 10:30:19.89,38,158,-2051,87,53,41,67,27,40,-47
,1113,2023-10-27 10:30:19.90,29,162,-2061,89,50,39,229,-46,275,-91
,1114,2023-10-27 10:30:19.91,35,159,-2066,90,45,37,77,-6,83,-35
,1115,2023-10-27 10:30:19.92,33,156,-2060,84,44,34,256,-47,303,-104
,1116,2023-10-27 10:30:19.93,37,152,-2064,78,38,36,115,30,85,-72
,1117,2023-10-27 10:30:19.94,36,148,-2057,73,33,38,273,0,273,-136
,1118,2023-10-27 10:30:19.95,30,150,-2047,72,24,42,118,47,71,-82
,1119,2023-10-27 10:30:19.96,35,147,-2044,71,24,43,254,10,244,-132
,1120,2023-10-27 10:30:19.97,38,143,-2028,74,33,42,88,64,24,-76
,1121,2023-10-27 10:30:19.98,36,145,-2026,75,33,37,208,29,179,-118
,1122,2023-10-27 10:30:19.99,53,132,-2038,76,33,35,68,50,18,-59
,1123,2023-10-27 10:30:20.00,52,125,-2033,76,34,35,220,21,199,-120
,1124,2023-10-27 10:30:20.01,50,137,-2052,74,32,37,95,40,55,-67
,1125,2023-10-27 10:30:20.02,58,143,-2060,69,33,41,210,27,183,-118
,1126,2023-10-27 10:30:20.03,56,144,-2069,61,33,44,76,50,26,-63
,1127,2023-10-27 10:30:20.04,49,145,-2071,63,36,44,179,22,157,-100
,1128,2023-10-27 10:30:20.05,47,144,-2056,61,38,40,53,26,27,-39
,1129,2023-10-27 10:30:20.06,37,150,-2068,57,38,32,179,15,164,-97
,1130,2023-10-27 10:30:20.07,34,151,-2059,51,32,26,99,6,93,-52
,1131,2023-10-27 10:30:20.08,45,141,-2073,45,24,24,218,0,218,-109
,1132,2023-10-27 10:30:20.09,41,147,-2092,32,14,25,115,-6,121,-54
,1133,2023-10-27 10:30:20.10,41,147,-2085,22,2,27,213,25,188,-119
,1134,2023-10-27 10:30:20.11,42,136,-2071,15,0,28,106,25,81,-65
,1135,2023-10-27 10:30:20.12,41,137,-2066,11,1,27,182,48,134,-115
,1136,2023-10-27 10:30:20.13,41,138,-2058,15,0,29,84,35,49,-59
,1137,2023-10-27 10:30:20.14,38,139,-2060,27,1,31,174,50,124,-112
,1138,2023-10-27 10:30:20.15,34,140,-2052,32,-2,31,113,14,99,-63
,1139,2023-10-27 10:30:20.16,30,132,-2046,34,-4,35,216,40,176,-128
,1140,2023-10-27 10:30:20.17,25,132,-2037,32,-14,41,144,3,141,-73
,1141,2023-10-27 10:30:20.18,41,124,-2043,28,-19,49,208,55,153,-131
,1142,2023-10-27 10:30:20.19,28,132,-2039,25,-22,56,96,5,91,-50
,1143,2023-10-27 10:30:20.20,36,131,-2039,27,-20,63,157,62,95,-109
,1144,2023-10-27 10:30:20.21,37,139,-2040,29,-12,65,110,15,95,-62
,1145,2023-10-27 10:30:20.22,41,124,-2051,29,-3,64,182,66,116,-124
,1146,2023-10-27 10:30:20.23,38,141,-2062,35,-1,65,131,16,115,-73
,1147,2023-10-27 10:30:20.24,36,140,-2069,37,3,60,173,78,95,-125
,1148,2023-10-27 10:30:20.25,26,131,-2069,37,4,60,110,10,100,-60
,1149,2023-10-27 10:30:20.26,24,137,-2069,35,-4,57,156,79,77,-117
,1150,2023-10-27 10:30:20.27,36,139,-2067,35,-6,56,134,14,120,-74
,1151,2023-10-27 10:30:20.28,24,135,-2068,28,-11,58,185,95,90,-140
,1152,2023-10-27 10:30:20.29,45,141,-2060,25,-14,59,159,8,151,-83
,1153,2023-10-27 10:30:20.30,38,148,-2058,22,-15,59,182,93,89,-137
,1154,2023-10-27 10:30:20.31,25,150,-2051,20,-11,55,143,2,141,-72
,1155,2023-10-27 10:30:20.32,26,146,-2043,17,-10,51,157,95,62,-126
,1156,2023-10-27 10:30:20.33,25,151,-2050,14,-11,44,135,1,134,-68
,1157,2023-10-27 10:30:20.34,27,143,-2046,11,-6,37,170,118,52,-144
,1158,2023-10-27 10:30:20.35,34,143,-2047,10,-7,34,143,6,137,-74
,1159,2023-10-27 10:30:20.36,25,144,-2048,9,-3,34,144,117,27,-130
,1160,2023-10-27 10:30:20.37,40,140,-2047,9,2,30,106,-15,121,-45
,1161,2023-10-27 10:30:20.38,25,128,-2051,12,6,32,137,111,26,-124
,1162,2023-10-27 10:30:20.39,33,132,-2045,19,12,33,149,-15,164,-67
,1163,2023-10-27 10:30:20.40,28,119,-2052,27,14,33,176,120,56,-148
,1164,2023-10-27 10:30:20.41,38,126,-2059,31,14,34,178,-13,191,-82
,1165,2023-10-27 10:30:20.42,36,122,-2064,32,12,36,173,124,49,-148
,1166,2023-10-27 10:30:20.43,33,118,-2067,34,11,45,144,-16,160,-64
,1167,2023-10-27 10:30:20.44,41,126,-2064,36,12,49,129,124,5,-126
,1168,2023-10-27 10:30:20.45,31,130,-2054,32,12,55,122,-37,159,-42
,1169,2023-10-27 10:30:20.46,34,133,-2059,29,12,63,100,100,0,-100
,1170,2023-10-27 10:30:20.47,37,128,-2073,27,9,63,127,-52,179,-37
,1171,2023-10-27 10:30:20.48,39,126,-2075,24,4,61,91,80,11,-85
,1172,2023-10-27 10:30:20.49,-7,93,-2118,16,4,59,125,-73,198,-26
,1173,2023-10-27 10:30:20.50,43,119,-2092,6,-3,57,116,87,29,-101
,1174,2023-10-27 10:30:20.51,48,122,-2084,16,-8,58,158,-63,221,-47
,1175,2023-10-27 10:30:20.52,48,125,-2069,23,-8,64,124,99,25,-111
,1176,2023-10-27 10:30:20.53,44,127,-2064,26,1,67,132,-73,205,-29
,1177,2023-10-27 10:30:20.54,53,132,-2049,34,10,71,98,88,10,-93
,1178,2023-10-27 10:30:20.55,48,140,-2045,37,15,65,157,-81,238,-38
,1179,2023-10-27 10:30:20.56,43,142,-2037,34,11,57,118,101,17,-109
,1180,2023-10-27 10:30:20.57,44,129,-2026,28,8,49,173,-73,246,-50
,1181,2023-10-27 10:30:20.58,52,130,-2030,22,2,46,112,106,6,-109
,1182,2023-10-27 10:30:20.59,50,133,-2027,15,-1,45,143,-79,222,-32
,1183,2023-10-27 10:30:20.60,61,129,-2034,13,-1,46,104,116,-12,-110
,1184,2023-10-27 10:30:20.61,41,130,-2041,12,4,44,166,-76,242,-45
,1185,2023-10-27 10:30:20.62,44,128,-2051,17,6,41,120,123,-3,-121
,1186,2023-10-27 10:30:20.63,26,132,-2063,19,6,36,175,-86,261,-44
,1187,2023-10-27 10:30:20.64,41,132,-2071,23,2,26,158,128,30,-143
,1188,2023-10-27 10:30:20.65,33,144,-2074,27,-6,21,214,-86,300,-64
,1189,2023-10-27 10:30:20.66,51,135,-2078,23,-12,18,130,120,10,-125
,1190,2023-10-27 10:30:20.67,37,143,-2071,17,-17,14,169,-99,268,-35
,1191,2023-10-27 10:30:20.68,40,138,-2066,10,-24,18,116,129,-13,-122
,1192,2023-10-27 10:30:20.69,27,138,-2070,3,-28,18,161,-90,251,-35
,1193,2023-10-27 10:30:20.70,42,133,-2079,-3,-34,18,102,141,-39,-121
,1194,2023-10-27 10:30:20.71,42,126,-2063,-6,-38,20,172,-93,265,-39
,1195,2023-10-27 10:30:20.72,22,122,-2067,-4,-40,23,120,134,-14,-127
,1196,2023-10-27 10:30:20.73,12,126,-2076,-1,-45,30,177,-112,289,-32
,1197,2023-10-27 10:30:20.74,27,114,-2070,-1,-44,33,138,121,17,-129
,1198,2023-10-27 10:30:20.75,25,116,-2069,4,-40,39,206,-110,316,-48
,1199,2023-10-27 10:30:20.76,14,116,-2059,9,-34,46,158,132,26,-145
,1200,2023-10-27 10:30:20.77,14,126,-2051,8,-33,55,211,-103,314,-54
,1201,2023-10-27 10:30:20.78,14,121,-2056,7,-26,61,126,145,-19,-135
,1202,2023-10-27 10:30:20.79,12,125,-2043,8,-19,69,174,-105,279,-34
,1203,2023-10-27 10:30:20.80,24,116,-2026,6,-14,74,96,147,-51,-121
,1204,2023-10-27 10:30:20.81,24,118,-2026,1,-8,85,158,-103,261,-27
,1205,2023-10-27 10:30:20.82,29,119,-2020,1,-9,98,73,144,-71,-108
,1206,2023-10-27 10:30:20.83,25,132,-2018,-2,-9,106,150,-110,260,-20
,1207,2023-10-27 10:30:20.84,19,148,-2025,-8,-6,112,91,142,-51,-116
,1208,2023-10-27 10:30:20.85,38,151,-2039,-5,-2,110,169,-125,294,-22
,1209,2023-10-27 10:30:20.86,28,149,-2052,-4,1,103,105,124,-19,-114
,1210,2023-10-27 10:30:20.87,29,150,-2075,-3,8,95,183,-134,317,-24
,1211,2023-10-27 10:30:20.88,22,145,-2075,0,8,81,132,141,-9,-136
,1212,2023-10-27 10:30:20.89,23,132,-2076,5,7,77,208,-127,335,-40
,1213,2023-10-27 10:30:20.90,14,137,-2085,7,-6,72,128,137,-9,-132
,1214,2023-10-27 10:30:20.91,21,127,-2091,-3,-17,76,197,-125,322,-36
,1215,2023-10-27 10:30:20.92,28,126,-2067,-9,-26,83,94,146,-52,-120
,1216,2023-10-27 10:30:20.93,24,128,-2057,-17,-37,98,163,-121,284,-21
,1217,2023-10-27 10:30:20.94,37,121,-2059,-18,-44,104,93,148,-55,-120
,1218,2023-10-27 10:30:20.95,27,135,-2059,-21,-44,105,174,-133,307,-20
,1219,2023-10-27 10:30:20.96,34,125,-2059,-24,-43,104,106,135,-29,-120
,1220,2023-10-27 10:30:20.97,37,132,-2069,-17,-36,96,185,-142,327,-21
,1221,2023-10-27 10:30:20.98,70,141,-2057,-32,-8,104,109,136,-27,-122
,1222,2023-10-27 10:30:20.99,34,147,-2115,-10,-49,92,198,-138,336,-30
,1223,2023-10-27 10:30:21.00,49,157,-2120,-1,-60,91,119,131,-12,-125
,1224,2023-10-27 10:30:21.01,48,165,-2079,-7,-71,89,180,-139,319,-20
,1225,2023-10-27 10:30:21.02,23,144,-2065,-20,-72,86,96,151,-55,-123
,1226,2023-10-27 10:30:21.03,33,157,-2076,-13,-87,87,179,-124,303,-27
,1227,2023-10-27 10:30:21.04,29,150,-2069,-7,-115,81,118,161,-43,-139
,1228,2023-10-27 10:30:21.05,7,137,-2063,-11,-133,74,229,-108,337,-60
,1229,2023-10-27 10:30:21.06,1,122,-2065,-7,-156,72,120,162,-42,-141
,1230,2023-10-27 10:30:21.07,-1,111,-2073,-1,-174,74,203,-118,321,-42
,1231,2023-10-27 10:30:21.08,-24,104,-2076,0,-193,80,114,145,-31,-129
,1232,2023-10-27 10:30:21.09,-16,108,-2092,12,-213,96,217,-121,338,-48
,1233,2023-10-27 10:30:21.10,-24,132,-2065,13,-223,111,131,159,-28,-145
,1234,2023-10-27 10:30:21.11,-29,139,-2049,6,-224,126,209,-124,333,-42
,1235,2023-10-27 10:30:21.12,-23,149,-2039,-6,-222,137,99,138,-39,-118
,1236,2023-10-27 10:30:21.13,-23,159,-2041,-24,-218,146,205,-130,335,-37
,1237,2023-10-27 10:30:21.14,-37,175,-2034,-38,-218,149,76,135,-59,-105
,1238,2023-10-27 10:30:21.15,-47,178,-2028,-54,-216,155,198,-113,311,-42
,1239,2023-10-27 10:30:21.16,-85,169,-2035,-68,-210,155,86,159,-73,-122
,1240,2023-10-27 10:30:21.17,-58,197,-1995,-74,-209,150,216,-110,326,-53
,1241,2023-10-27 10:30:21.18,-72,193,-2016,-83,-195,139,110,151,-41,-130
,1242,2023-10-27 10:30:21.19,-89,170,-2023,-85,-173,129,210,-120,330,-45
,1243,2023-10-27 10:30:21.20,-94,172,-2017,-78,-152,119,82,142,-60,-112
,1244,2023-10-27 10:30:21.21,-82,165,-2021,-71,-135,116,189,-120,309,-34
,1245,2023-10-27 10:30:21.22,-89,168,-2021,-59,-109,117,78,139,-61,-108
,1246,2023-10-27 10:30:21.23,-71,166,-2011,-53,-85,122,213,-114,327,-49
,1247,2023-10-27 10:30:21.24,-81,170,-1995,-38,-56,128,103,135,-32,-119
,1248,2023-10-27 10:30:21.25,-67,168,-2013,-29,-27,126,227,-104,331,-61
,1249,2023-10-27 10:30:21.26,-65,171,-2016,-17,-4,123,101,149,-48,-125
,1250,2023-10-27 10:30:21.27,-79,179,-2035,-7,15,112,215,-95,310,-60
,1251,2023-10-27 10:30:21.28,-68,175,-2051,0,27,100,90,150,-60,-120
,1252,2023-10-27 10:30:21.29,-71,173,-2055,9,31,90,201,-95,296,-53
,1253,2023-10-27 10:30:21.30,-71,175,-2055,17,48,75,72,148,-76,-110
,1254,2023-10-27 10:30:21.31,-55,162,-2056,25,55,64,208,-96,304,-56
,1255,2023-10-27 10:30:21.32,-61,154,-2056,35,63,56,97,130,-33,-113
,1256,2023-10-27 10:30:21.33,-49,153,-2049,42,67,51,217,-99,316,-59
,1257,2023-10-27 10:30:21.34,-34,148,-2060,42,65,50,76,134,-58,-105
,1258,2023-10-27 10:30:21.35,-40,157,-2052,43,59,50,196,-86,282,-55
,1259,2023-10-27 10:30:21.36,-37,153,-2056,35,54,51,54,135,-81,-94
,1260,2023-10-27 10:30:21.37,-34,150,-2050,32,52,47,170,-86,256,-42
,1261,2023-10-27 10:30:21.38,-42,152,-2049,30,44,45,45,133,-88,-89
,1262,2023-10-27 10:30:21.39,-29,151,-2055,30,38,35,207,-78,285,-64
,1263,2023-10-27 10:30:21.40,-44,143,-2051,33,37,31,100,136,-36,-118
,1264,2023-10-27 10:30:21.41,-35,142,-2057,39,32,22,225,-77,302,-74
,1265,2023-10-27 10:30:21.42,-40,144,-2064,44,24,17,87,111,-24,-99
,1266,2023-10-27 10:30:21.43,-35,147,-2066,43,14,16,208,-110,318,-49
,1267,2023-10-27 10:30:21.44,-42,148,-2073,43,9,17,84,79,5,-81
,1268,2023-10-27 10:30:21.45,-38,153,-2047,28,15,15,219,-110,329,-54
,1269,2023-10-27 10:30:21.46,-34,160,-2052,19,16,19,98,103,-5,-100
,1270,2023-10-27 10:30:21.47,-40,150,-2046,19,7,23,214,-76,290,-69
,1271,2023-10-27 10:30:21.48,-50,152,-2064,18,2,22,78,122,-44,-100
,1272,2023-10-27 10:30:21.49,-55,155,-2071,23,7,17,181,-62,243,-59
,1273,2023-10-27 10:30:21.50,-58,159,-2070,29,6,13,77,121,-44,-99
,1274,2023-10-27 10:30:21.51,-62,149,-2066,33,0,8,204,-55,259,-74
,1275,2023-10-27 10:30:21.52,-57,160,-2059,32,-3,3,96,114,-18,-105
,1276,2023-10-27 10:30:21.53,-54,161,-2061,40,-6,1,210,-48,258,-81
,1277,2023-10-27 10:30:21.54,-57,152,-2049,43,-9,8,102,123,-21,-112
,1278,2023-10-27 10:30:21.55,-58,157,-2052,38,-12,10,215,-50,265,-82
,1279,2023-10-27 10:30:21.56,-65,156,-2048,40,-14,14,92,97,-5,-94
,1280,2023-10-27 10:30:21.57,-60,152,-2042,35,-20,16,203,-59,262,-72
,1281,2023-10-27 10:30:21.58,-77,148,-2054,33,-18,21,93,94,-1,-93
,1282,2023-10-27 10:30:21.59,-72,144,-2044,30,-22,28,203,-43,246,-80
,1283,2023-10-27 10:30:21.60,-64,141,-2039,29,-20,32,89,94,-5,-91
,1284,2023-10-27 10:30:21.61,-70,146,-2042,29,-22,42,189,-42,231,-73
,1285,2023-10-27 10:30:21.62,-82,164,-2034,30,-14,41,91,100,-9,-95
,1286,2023-10-27 10:30:21.63,-74,163,-2037,32,-7,42,198,-23,221,-87
,1287,2023-10-27 10:30:21.64,-76,164,-2045,31,3,39,116,106,10,-111
,1288,2023-10-27 10:30:21.65,-71,168,-2035,31,15,38,208,-10,218,-99
,1289,2023-10-27 10:30:21.66,-71,180,-2035,32,23,34,99,100,-1,-99
,1290,2023-10-27 10:30:21.67,-72,172,-2051,29,27,31,188,-18,206,-85
,1291,2023-10-27 10:30:21.68,-61,182,-2051,24,28,24,88,83,5,-85
,1292,2023-10-27 10:30:21.69,-71,182,-2058,26,29,19,180,-11,191,-84
,1293,2023-10-27 10:30:21.70,-60,182,-2055,21,32,12,106,89,17,-97
,1294,2023-10-27 10:30:21.71,-59,177,-2057,20,36,8,193,-6,199,-93
,1295,2023-10-27 10:30:21.72,-42,173,-2051,21,44,9,115,90,25,-102
,1296,2023-10-27 10:30:21.73,-38,166,-2048,24,49,9,191,0,191,-95
,1297,2023-10-27 10:30:21.74,-50,155,-2064,25,53,5,107,77,30,-92
,1298,2023-10-27 10:30:21.75,-50,155,-2063,33,51,5,185,9,176,-97
,1299,2023-10-27 10:30:21.76,-38,149,-2070,40,47,6,129,82,47,-105
,1300,2023-10-27 10:30:21.77,-31,142,-2063,49,39,4,221,22,199,-121
,1301,2023-10-27 10:30:21.78,-32,132,-2064,57,33,6,152,79,73,-115
,1302,2023-10-27 10:30:21.79,-21,130,-2058,70,30,8,220,30,190,-125
,1303,2023-10-27 10:30:21.80,-18,120,-2062,80,24,10,156,85,71,-120
,1304,2023-10-27 10:30:21.81,-25,121,-2054,91,22,9,198,31,167,-114
,1305,2023-10-27 10:30:21.82,-21,106,-2059,99,28,12,123,76,47,-99
,1306,2023-10-27 10:30:21.83,-25,105,-2057,105,27,13,191,28,163,-109
,1307,2023-10-27 10:30:21.84,-20,90,-2053,110,23,17,134,58,76,-96
,1308,2023-10-27 10:30:21.85,-18,85,-2055,112,17,23,208,36,172,-122
,1309,2023-10-27 10:30:21.86,-14,82,-2056,108,13,28,170,57,113,-113
,1310,2023-10-27 10:30:21.87,-25,83,-2052,98,17,39,241,41,200,-141
,1311,2023-10-27 10:30:21.88,-21,78,-2056,86,19,51,169,45,124,-107
,1312,2023-10-27 10:30:21.89,-34,83,-2052,72,26,60,203,48,155,-125
,1313,2023-10-27 10:30:21.90,-37,94,-2050,68,25,63,135,50,85,-92
,1314,2023-10-27 10:30:21.91,-37,88,-2053,57,24,62,176,43,133,-109
,1315,2023-10-27 10:30:21.92,-39,87,-2055,50,17,52,142,38,104,-90
,1316,2023-10-27 10:30:21.93,-24,88,-2049,42,13,49,190,46,144,-118
,1317,2023-10-27 10:30:21.94,-21,86,-2055,36,10,46,143,35,108,-89
,1318,2023-10-27 10:30:21.95,-28,97,-2056,26,4,51,184,53,131,-118
,1319,2023-10-27 10:30:21.96,-28,95,-2063,19,0,54,154,31,123,-92
,1320,2023-10-27 10:30:21.97,-41,102,-2057,11,-5,55,182,84,98,-133
,1321,2023-10-27 10:30:21.98,-33,118,-2055,1,-8,54,124,57,67,-90
,1322,2023-10-27 10:30:21.99,-30,125,-2055,-7,-10,50,130,81,49,-105
,1323,2023-10-27 10:30:22.00,-39,140,-2055,-17,-15,44,111,31,80,-71
,1324,2023-10-27 10:30:22.01,-43,143,-2056,-24,-20,40,168,76,92,-122
,1325,2023-10-27 10:30:22.02,-46,143,-2066,-32,-27,33,142,23,119,-82
,1326,2023-10-27 10:30:22.03,-59,146,-2064,-46,-36,25,176,81,95,-128
,1327,2023-10-27 10:30:22.04,-54,155,-2071,-58,-45,22,162,16,146,-89
,1328,2023-10-27 10:30:22.05,-49,156,-2063,-67,-57,17,201,90,111,-145
,1329,2023-10-27 10:30:22.06,-54,160,-2066,-69,-63,17,183,24,159,-103
,1330,2023-10-27 10:30:22.07,-66,149,-2058,-68,-68,19,204,102,102,-153
,1331,2023-10-27 10:30:22.08,-71,141,-2061,-56,-73,20,178,25,153,-101
,1332,2023-10-27 10:30:22.09,-81,141,-2051,-39,-72,20,176,111,65,-143
,1333,2023-10-27 10:30:22.10,-84,145,-2057,-26,-67,25,127,7,120,-67
,1334,2023-10-27 10:30:22.11,-64,146,-2043,-13,-55,32,128,92,36,-110
,1335,2023-10-27 10:30:22.12,-78,146,-2037,-3,-48,42,135,-6,141,-64
,1336,2023-10-27 10:30:22.13,-78,152,-2047,7,-40,44,147,106,41,-126
,1337,2023-10-27 10:30:22.14,-90,140,-2052,21,-38,46,126,4,122,-65
,1338,2023-10-27 10:30:22.15,-89,117,-2039,27,-36,44,146,118,28,-132
,1339,2023-10-27 10:30:22.16,-79,114,-2028,35,-25,51,166,5,161,-85
,1340,2023-10-27 10:30:22.17,-61,113,-2028,40,-9,69,186,131,55,-158
,1341,2023-10-27 10:30:22.18,-50,121,-2029,46,3,95,171,0,171,-85
,1342,2023-10-27 10:30:22.19,-68,122,-2046,52,25,121,161,114,47,-137
,1343,2023-10-27 10:30:22.20,-65,118,-2058,63,37,139,156,-23,179,-66
,1344,2023-10-27 10:30:22.21,-71,123,-2053,78,43,145,157,124,33,-140
,1345,2023-10-27 10:30:22.22,-77,125,-2052,83,48,133,144,-24,168,-60
,1346,2023-10-27 10:30:22.23,-62,120,-2056,93,50,118,132,117,15,-124
,1347,2023-10-27 10:30:22.24,-49,118,-2057,105,48,105,152,-30,182,-61
,1348,2023-10-27 10:30:22.25,-41,121,-2050,102,49,93,163,120,43,-141
,1349,2023-10-27 10:30:22.26,-38,122,-2052,103,42,89,197,-33,230,-82
,1350,2023-10-27 10:30:22.27,-39,122,-2059,103,33,72,179,122,57,-150
,1351,2023-10-27 10:30:22.28,-48,114,-2052,97,28,50,165,-40,205,-62
,1352,2023-10-27 10:30:22.29,-41,101,-2059,96,20,24,152,114,38,-133
,1353,2023-10-27 10:30:22.30,-42,86,-2065,96,14,8,162,-52,214,-55
,1354,2023-10-27 10:30:22.31,-41,72,-2055,94,7,-3,146,141,5,-143
,1355,2023-10-27 10:30:22.32,-32,57,-2057,91,5,-2,167,-37,204,-65
,1356,2023-10-27 10:30:22.33,-29,62,-2046,81,2,6,135,140,-5,-137
,1357,2023-10-27 10:30:22.34,-43,53,-2049,70,0,11,158,-48,206,-55
