// Data mode  : Full
// Data quality  : High
// Acceleration sensor's range  : 16g
// Gyroscope sensor's range  : 2000dps
//
//ARTIFACT,NUM,DATE,ACC_X,ACC_Y,ACC_Z,GYRO_X,GYRO_Y,GYRO_Z,EOG_L,EOG_R,EOG_H,EOG_V
,1,2023-10-20 13:29:59.85,332,-144,-2036,16,4,32,533,-535,1068,1
,2,2023-10-20 13:29:59.86,336,-137,-2037,17,3,29,707,-579,1286,-64
,3,2023-10-20 13:29:59.87,342,-140,-2035,14,4,25,557,-611,1168,27
,4,2023-10-20 13:29:59.88,343,-142,-2035,14,6,25,722,-590,1312,-66
,5,2023-10-20 13:29:59.89,343,-152,-2034,21,4,26,572,-662,1234,45
,6,2023-10-20 13:29:59.90,350,-146,-2022,24,0,28,713,-809,1522,48
,7,2023-10-20 13:29:59.91,350,-154,-2026,30,-2,30,560,-859,1419,149
,8,2023-10-20 13:29:59.92,348,-151,-2027,39,4,31,704,-879,1583,87
,9,2023-10-20 13:29:59.93,344,-142,-2032,41,4,30,580,-769,1349,94
,10,2023-10-20 13:29:59.94,344,-143,-2035,32,3,34,707,-643,1350,-32
,11,2023-10-20 13:29:59.95,348,-153,-2039,32,3,37,567,-697,1264,65
,12,2023-10-20 13:29:59.96,348,-147,-2041,34,1,34,705,-863,1568,79
,13,2023-10-20 13:29:59.97,349,-150,-2033,34,0,34,612,-920,1532,154
,14,2023-10-20 13:29:59.98,355,-144,-2038,38,-3,33,724,-918,1642,97
,15,2023-10-20 13:29:59.99,337,-148,-2042,39,-4,30,598,-870,1468,136
,16,2023-10-20 13:30:00.00,345,-144,-2039,42,-5,26,681,-853,1534,86
,17,2023-10-20 13:30:00.01,334,-140,-2033,43,-11,24,578,-801,1379,111
,18,2023-10-20 13:30:00.02,355,-150,-2028,35,-15,21,675,-759,1434,42
,19,2023-10-20 13:30:00.03,350,-152,-2027,30,-12,19,587,-735,1322,74
,20,2023-10-20 13:30:00.04,343,-166,-2025,33,-3,19,676,-727,1403,25
,21,2023-10-20 13:30:00.05,339,-163,-2035,33,-7,24,597,-682,1279,42
,22,2023-10-20 13:30:00.06,339,-164,-2041,31,-11,32,664,-614,1278,-25
,23,2023-10-20 13:30:00.07,335,-161,-2045,27,-10,40,580,-536,1116,-22
,24,2023-10-20 13:30:00.08,324,-158,-2036,24,-14,44,650,-447,1097,-101
,25,2023-10-20 13:30:00.09,343,-153,-2038,19,-16,48,588,-467,1055,-60
,26,2023-10-20 13:30:00.10,330,-154,-2036,18,-19,49,649,-504,1153,-72
,27,2023-10-20 13:30:00.11,327,-145,-2038,15,-13,46,601,-585,1186,-8
,28,2023-10-20 13:30:00.12,337,-149,-2033,13,-16,39,641,-614,1255,-13
,29,2023-10-20 13:30:00.13,330,-156,-2036,12,-14,35,600,-660,1260,30
,30,2023-10-20 13:30:00.14,336,-160,-2033,10,-11,30,635,-674,1309,19
,31,2023-10-20 13:30:00.15,322,-161,-2031,14,-6,28,609,-676,1285,33
,32,2023-10-20 13:30:00.16,321,-164,-2035,19,-5,25,631,-649,1280,9
,33,2023-10-20 13:30:00.17,327,-161,-2034,18,-1,24,611,-612,1223,0
,34,2023-10-20 13:30:00.18,321,-163,-2042,10,2,25,624,-559,1183,-32
,35,2023-10-20 13:30:00.19,323,-161,-2040,3,5,26,619,-510,1129,-54
,36,2023-10-20 13:30:00.20,338,-158,-2038,3,9,25,630,-460,1090,-85
,37,2023-10-20 13:30:00.21,337,-163,-2033,3,9,25,638,-554,1192,-42
,38,2023-10-20 13:30:00.22,325,-162,-2041,4,10,26,650,-643,1293,-3
,39,2023-10-20 13:30:00.23,328,-150,-2038,10,8,25,674,-701,1375,13
,40,2023-10-20 13:30:00.24,332,-154,-2029,14,6,19,664,-681,1345,8
,41,2023-10-20 13:30:00.25,323,-147,-2026,23,8,18,689,-541,1230,-74
,42,2023-10-20 13:30:00.26,331,-150,-2030,27,6,11,645,-406,1051,-119
,43,2023-10-20 13:30:00.27,332,-152,-2027,32,3,12,659,-299,958,-180
,44,2023-10-20 13:30:00.28,333,-154,-2038,31,1,8,596,-278,874,-159
,45,2023-10-20 13:30:00.29,333,-149,-2025,30,4,6,642,-203,845,-219
,46,2023-10-20 13:30:00.30,339,-156,-2030,29,3,4,1050,37,1013,-543
,47,2023-10-20 13:30:00.31,329,-162,-2042,30,3,5,2047,1105,942,-1576
,48,2023-10-20 13:30:00.32,340,-168,-2047,26,4,6,2047,1520,527,-1783
,49,2023-10-20 13:30:00.33,340,-162,-2035,26,0,2,2047,520,1527,-1283
,50,2023-10-20 13:30:00.34,347,-162,-2030,25,-1,-1,2047,-323,2370,-862
,51,2023-10-20 13:30:00.35,350,-166,-2036,24,-7,-1,-608,-504,-104,556
,52,2023-10-20 13:30:00.36,340,-162,-2040,23,-12,1,-693,-335,-358,514
,53,2023-10-20 13:30:00.37,336,-175,-2049,25,-17,6,321,-96,417,-112
,54,2023-10-20 13:30:00.38,332,-168,-2043,28,-26,7,794,-145,939,-324
,55,2023-10-20 13:30:00.39,333,-159,-2048,24,-34,11,866,2,864,-434
,56,2023-10-20 13:30:00.40,332,-166,-2052,17,-39,13,585,-50,635,-267
,57,2023-10-20 13:30:00.41,324,-174,-2048,13,-38,16,649,117,532,-383
,58,2023-10-20 13:30:00.42,321,-177,-2039,10,-45,17,612,60,552,-336
,59,2023-10-20 13:30:00.43,319,-183,-2035,10,-46,15,762,197,565,-479
,60,2023-10-20 13:30:00.44,323,-188,-2037,21,-34,10,636,139,497,-387
,61,2023-10-20 13:30:00.45,312,-185,-2030,29,-39,11,716,283,433,-499
,62,2023-10-20 13:30:00.46,332,-178,-2016,34,-31,6,548,228,320,-388
,63,2023-10-20 13:30:00.47,327,-157,-2040,33,-11,1,619,327,292,-473
,64,2023-10-20 13:30:00.48,320,-162,-2050,22,5,-9,463,286,177,-374
,65,2023-10-20 13:30:00.49,331,-168,-2038,10,-1,-9,518,326,192,-422
,66,2023-10-20 13:30:00.50,319,-199,-2030,7,7,-4,380,199,181,-289
,67,2023-10-20 13:30:00.51,325,-191,-2039,10,2,8,459,262,197,-360
,68,2023-10-20 13:30:00.52,334,-186,-2015,10,-11,12,334,178,156,-256
,69,2023-10-20 13:30:00.53,331,-184,-2027,4,-3,21,430,290,140,-360
,70,2023-10-20 13:30:00.54,332,-172,-2030,8,1,24,308,216,92,-262
,71,2023-10-20 13:30:00.55,329,-168,-2027,17,-9,27,425,301,124,-363
,72,2023-10-20 13:30:00.56,327,-153,-2016,11,-10,25,305,169,136,-237
,73,2023-10-20 13:30:00.57,319,-159,-2030,-2,-6,16,439,252,187,-345
,74,2023-10-20 13:30:00.58,320,-179,-2046,-1,-16,13,312,142,170,-227
,75,2023-10-20 13:30:00.59,310,-181,-2048,9,-35,17,460,276,184,-368
,76,2023-10-20 13:30:00.60,316,-173,-2053,8,-44,15,326,182,144,-254
,77,2023-10-20 13:30:00.61,318,-153,-2046,4,-46,10,488,281,207,-384
,78,2023-10-20 13:30:00.62,322,-148,-2045,4,-47,-1,339,132,207,-235
,79,2023-10-20 13:30:00.63,317,-155,-2042,-3,-50,-11,513,245,268,-379
,80,2023-10-20 13:30:00.64,299,-161,-2049,-12,-39,-20,355,135,220,-245
,81,2023-10-20 13:30:00.65,313,-147,-2053,-18,-34,-29,536,283,253,-409
,82,2023-10-20 13:30:00.66,312,-152,-2060,-31,-24,-32,369,169,200,-269
,83,2023-10-20 13:30:00.67,298,-168,-2057,-43,-13,-36,552,295,257,-423
,84,2023-10-20 13:30:00.68,302,-155,-2054,-37,-21,-33,379,141,238,-260
,85,2023-10-20 13:30:00.69,294,-139,-2052,-34,-29,-28,585,296,289,-440
,86,2023-10-20 13:30:00.70,301,-136,-2035,-40,-37,-29,401,171,230,-286
,87,2023-10-20 13:30:00.71,310,-142,-2032,-44,-31,-33,596,337,259,-466
,88,2023-10-20 13:30:00.72,317,-129,-2027,-38,-25,-35,396,187,209,-291
,89,2023-10-20 13:30:00.73,323,-130,-2027,-25,-26,-46,614,315,299,-464
,90,2023-10-20 13:30:00.74,325,-109,-2050,-31,-13,-55,416,136,280,-276
,91,2023-10-20 13:30:00.75,330,-96,-2039,-35,-1,-64,640,320,320,-480
,92,2023-10-20 13:30:00.76,336,-123,-2043,-25,-1,-69,427,204,223,-315
,93,2023-10-20 13:30:00.77,319,-131,-2039,-12,-11,-69,648,408,240,-528
,94,2023-10-20 13:30:00.78,329,-137,-2036,0,-13,-65,432,248,184,-340
,95,2023-10-20 13:30:00.79,321,-128,-2037,9,-19,-56,656,426,230,-541
,96,2023-10-20 13:30:00.80,322,-154,-2002,8,-28,-46,436,257,179,-346
,97,2023-10-20 13:30:00.81,318,-173,-2008,19,-26,-33,665,446,219,-555
,98,2023-10-20 13:30:00.82,320,-170,-2016,41,-30,-20,438,276,162,-357
,99,2023-10-20 13:30:00.83,311,-155,-2032,69,-40,-11,677,329,348,-503
,100,2023-10-20 13:30:00.84,318,-128,-2043,77,-49,-6,441,54,387,-247
,101,2023-10-20 13:30:00.85,306,-130,-2028,73,-48,-5,688,187,501,-437
,102,2023-10-20 13:30:00.86,313,-124,-2043,62,-45,-9,456,64,392,-260
,103,2023-10-20 13:30:00.87,301,-122,-2062,60,-46,-17,696,242,454,-469
,104,2023-10-20 13:30:00.88,299,-122,-2057,48,-46,-24,452,78,374,-265
,105,2023-10-20 13:30:00.89,306,-124,-2040,28,-43,-31,688,220,468,-454
,106,2023-10-20 13:30:00.90,301,-146,-2060,16,-34,-34,453,56,397,-254
,107,2023-10-20 13:30:00.91,302,-134,-2069,15,-30,-41,700,197,503,-448
,108,2023-10-20 13:30:00.92,302,-128,-2056,12,-25,-51,459,41,418,-250
,109,2023-10-20 13:30:00.93,316,-131,-2045,11,-26,-65,699,250,449,-474
,110,2023-10-20 13:30:00.94,305,-122,-2058,9,-18,-79,445,123,322,-284
,111,2023-10-20 13:30:00.95,306,-116,-2046,3,-12,-96,693,228,465,-460
,112,2023-10-20 13:30:00.96,297,-124,-2040,0,-7,-108,458,8,450,-233
,113,2023-10-20 13:30:00.97,304,-140,-2038,-1,1,-117,710,39,671,-374
,114,2023-10-20 13:30:00.98,330,-150,-2014,11,12,-125,474,-98,572,-188
,115,2023-10-20 13:30:00.99,289,-146,-1996,47,23,-124,713,67,646,-390
,116,2023-10-20 13:30:01.00,276,-86,-2006,59,0,-141,415,-92,507,-161
,117,2023-10-20 13:30:01.01,330,-155,-2020,41,-30,-125,1124,708,416,-916
,118,2023-10-20 13:30:01.02,277,-229,-2081,47,-23,-97,2047,1988,59,-2017
,119,2023-10-20 13:30:01.03,283,-207,-2067,68,-24,-94,2047,1965,82,-2006
,120,2023-10-20 13:30:01.04,293,-221,-2009,85,-15,-86,2047,983,1064,-1515
,121,2023-10-20 13:30:01.05,312,-213,-1990,112,-12,-77,2047,422,1625,-1234
,122,2023-10-20 13:30:01.06,299,-205,-2028,161,-20,-72,-455,-12,-443,233
,123,2023-10-20 13:30:01.07,277,-166,-2041,191,-18,-72,-837,-116,-721,476
,124,2023-10-20 13:30:01.08,266,-142,-2042,175,-27,-82,-132,-202,70,167
,125,2023-10-20 13:30:01.09,262,-163,-2046,142,-37,-87,846,-82,928,-382
,126,2023-10-20 13:30:01.10,257,-200,-2057,130,-37,-91,684,-128,812,-278
,127,2023-10-20 13:30:01.11,247,-200,-2070,124,-54,-93,643,-91,734,-276
,128,2023-10-20 13:30:01.12,242,-192,-2078,106,-60,-93,274,-229,503,-22
,129,2023-10-20 13:30:01.13,252,-178,-2067,84,-62,-97,486,-389,875,-48
,130,2023-10-20 13:30:01.14,273,-195,-2031,69,-53,-99,325,-442,767,58
,131,2023-10-20 13:30:01.15,272,-201,-2015,53,-36,-102,562,-254,816,-154
,132,2023-10-20 13:30:01.16,260,-205,-2037,42,-23,-110,343,-228,571,-57
,133,2023-10-20 13:30:01.17,268,-196,-2031,37,-18,-115,552,-260,812,-146
,134,2023-10-20 13:30:01.18,287,-170,-2046,25,-7,-122,342,-394,736,26
,135,2023-10-20 13:30:01.19,272,-168,-2053,-9,11,-131,564,-517,1081,-23
,136,2023-10-20 13:30:01.20,280,-162,-2069,-29,10,-142,357,-603,960,123
,137,2023-10-20 13:30:01.21,293,-145,-2058,-53,13,-159,579,-733,1312,77
,138,2023-10-20 13:30:01.22,314,-156,-2066,-78,26,-177,375,-727,1102,176
,139,2023-10-20 13:30:01.23,341,-177,-2046,-97,46,-176,595,-702,1297,53
,140,2023-10-20 13:30:01.24,339,-198,-2021,-96,53,-162,394,-655,1049,130
,141,2023-10-20 13:30:01.25,342,-221,-2037,-78,43,-123,611,-684,1295,36
,142,2023-10-20 13:30:01.26,328,-200,-2058,-52,36,-96,408,-673,1081,132
,143,2023-10-20 13:30:01.27,328,-188,-2073,-28,16,-80,626,-667,1293,20
,144,2023-10-20 13:30:01.28,320,-180,-2084,-13,1,-62,433,-601,1034,84
,145,2023-10-20 13:30:01.29,308,-152,-2113,0,-25,-44,641,-470,1111,-85
,146,2023-10-20 13:30:01.30,323,-161,-2066,5,-43,-41,438,-384,822,-27
,147,2023-10-20 13:30:01.31,317,-147,-2061,4,-56,-30,650,-224,874,-213
,148,2023-10-20 13:30:01.32,325,-132,-2038,14,-62,-22,460,-233,693,-113
,149,2023-10-20 13:30:01.33,306,-163,-2008,25,-69,-21,667,-200,867,-233
,150,2023-10-20 13:30:01.34,300,-165,-2004,34,-68,-12,482,-377,859,-52
,151,2023-10-20 13:30:01.35,304,-171,-2011,57,-77,0,645,-613,1258,-16
,152,2023-10-20 13:30:01.36,284,-176,-2030,88,-98,17,410,-730,1140,160
,153,2023-10-20 13:30:01.37,271,-189,-2025,106,-126,25,672,-598,1270,-37
,154,2023-10-20 13:30:01.38,269,-190,-2011,100,-113,24,560,-525,1085,-17
,155,2023-10-20 13:30:01.39,267,-195,-2030,91,-96,26,738,-537,1275,-100
,156,2023-10-20 13:30:01.40,263,-181,-2019,96,-82,22,546,-547,1093,0
,157,2023-10-20 13:30:01.41,269,-171,-2029,107,-91,19,701,-486,1187,-107
,158,2023-10-20 13:30:01.42,260,-174,-2007,98,-79,16,538,-449,987,-44
,159,2023-10-20 13:30:01.43,258,-158,-2024,79,-56,10,671,-409,1080,-131
,160,2023-10-20 13:30:01.44,273,-164,-2020,56,-37,1,505,-468,973,-18
,161,2023-10-20 13:30:01.45,255,-169,-2032,35,-19,-6,758,-512,1270,-123
,162,2023-10-20 13:30:01.46,270,-171,-2028,16,-4,-15,638,-547,1185,-45
,163,2023-10-20 13:30:01.47,257,-171,-2030,-5,14,-19,867,-463,1330,-202
,164,2023-10-20 13:30:01.48,256,-161,-2036,-30,26,-25,714,-546,1260,-84
,165,2023-10-20 13:30:01.49,267,-167,-2041,-46,43,-38,879,-641,1520,-119
,166,2023-10-20 13:30:01.50,272,-174,-2048,-53,56,-41,744,-810,1554,33
,167,2023-10-20 13:30:01.51,276,-177,-2054,-53,46,-45,880,-940,1820,30
,168,2023-10-20 13:30:01.52,279,-160,-2033,-56,49,-49,748,-1017,1765,134
,169,2023-10-20 13:30:01.53,295,-156,-2040,-64,64,-58,836,-1031,1867,97
,170,2023-10-20 13:30:01.54,297,-164,-2052,-71,68,-63,728,-1054,1782,163
,171,2023-10-20 13:30:01.55,301,-153,-2066,-80,75,-63,826,-1138,1964,156
,172,2023-10-20 13:30:01.56,306,-163,-2069,-77,73,-58,708,-1151,1859,221
,173,2023-10-20 13:30:01.57,297,-146,-2080,-77,72,-51,777,-1155,1932,189
,174,2023-10-20 13:30:01.58,305,-146,-2088,-82,77,-45,684,-1154,1838,235
,175,2023-10-20 13:30:01.59,330,-160,-2051,-56,50,-52,857,-1206,2063,174
,176,2023-10-20 13:30:01.60,304,-159,-2034,-22,36,-48,822,-1253,2075,215
,177,2023-10-20 13:30:01.61,322,-141,-2047,-16,-3,-42,939,-1307,2246,184
,178,2023-10-20 13:30:01.62,328,-167,-2049,-19,-39,-16,860,-1266,2126,203
,179,2023-10-20 13:30:01.63,312,-190,-2059,-11,-46,11,1004,-1233,2237,114
,180,2023-10-20 13:30:01.64,308,-190,-2056,6,-58,23,990,-1236,2226,123
,181,2023-10-20 13:30:01.65,305,-188,-2033,29,-68,38,1144,-1291,2435,73
,182,2023-10-20 13:30:01.66,298,-199,-2039,57,-80,54,1239,-1340,2579,50
,183,2023-10-20 13:30:01.67,295,-175,-2020,84,-84,64,1082,-1297,2379,107
,184,2023-10-20 13:30:01.68,292,-168,-2025,95,-81,71,887,-1280,2167,196
,185,2023-10-20 13:30:01.69,266,-173,-2037,99,-69,72,922,-1300,2222,189
,186,2023-10-20 13:30:01.70,248,-174,-2035,111,-84,70,954,-1332,2286,189
,187,2023-10-20 13:30:01.71,255,-174,-2049,118,-95,67,1015,-1352,2367,168
,188,2023-10-20 13:30:01.72,253,-164,-2035,104,-95,62,1000,-1355,2355,177
,189,2023-10-20 13:30:01.73,258,-170,-2020,91,-76,47,881,-1284,2165,201
,190,2023-10-20 13:30:01.74,261,-184,-2034,83,-58,41,803,-1256,2059,226
,191,2023-10-20 13:30:01.75,258,-172,-2022,72,-38,31,748,-1180,1928,216
,192,2023-10-20 13:30:01.76,250,-181,-2035,68,-24,17,727,-1163,1890,218
,193,2023-10-20 13:30:01.77,250,-179,-2050,58,-8,6,658,-1105,1763,223
,194,2023-10-20 13:30:01.78,251,-192,-2046,46,5,-2,651,-1120,1771,234
,195,2023-10-20 13:30:01.79,236,-204,-2049,39,12,-8,604,-1062,1666,229
,196,2023-10-20 13:30:01.80,264,-196,-2057,36,11,-13,605,-1085,1690,240
,197,2023-10-20 13:30:01.81,254,-198,-2054,35,8,-17,557,-1003,1560,223
,198,2023-10-20 13:30:01.82,262,-191,-2049,26,6,-20,508,-1024,1532,258
,199,2023-10-20 13:30:01.83,259,-188,-2045,14,10,-26,454,-933,1387,239
,200,2023-10-20 13:30:01.84,276,-188,-2026,3,12,-35,357,-986,1343,314
,201,2023-10-20 13:30:01.85,273,-189,-2018,-1,14,-39,298,-934,1232,318
,202,2023-10-20 13:30:01.86,286,-183,-2006,3,10,-45,232,-999,1231,383
,203,2023-10-20 13:30:01.87,281,-192,-2006,2,3,-48,215,-947,1162,366
,204,2023-10-20 13:30:01.88,267,-200,-2011,3,5,-49,227,-1044,1271,408
,205,2023-10-20 13:30:01.89,266,-206,-2019,9,-1,-55,231,-996,1227,382
,206,2023-10-20 13:30:01.90,280,-185,-2027,13,-16,-60,245,-1072,1317,413
,207,2023-10-20 13:30:01.91,298,-188,-2002,1,-27,-75,232,-1003,1235,385
,208,2023-10-20 13:30:01.92,322,-209,-1979,-10,-13,-73,285,-1079,1364,397
,209,2023-10-20 13:30:01.93,330,-202,-1953,-34,18,-61,276,-1010,1286,367
,210,2023-10-20 13:30:01.94,322,-229,-1944,-55,43,-36,315,-1086,1401,385
,211,2023-10-20 13:30:01.95,320,-238,-1979,-55,49,-2,295,-1014,1309,359
,212,2023-10-20 13:30:01.96,310,-253,-1987,-51,47,37,388,-1112,1500,362
,213,2023-10-20 13:30:01.97,295,-259,-2016,-48,40,83,362,-1038,1400,338
,214,2023-10-20 13:30:01.98,305,-249,-2033,-50,25,122,434,-1100,1534,333
,215,2023-10-20 13:30:01.99,287,-233,-2058,-50,20,146,380,-1013,1393,316
,216,2023-10-20 13:30:02.00,294,-211,-2054,-44,5,156,502,-1117,1619,307
,217,2023-10-20 13:30:02.01,292,-192,-2041,-51,-12,166,430,-1056,1486,313
,218,2023-10-20 13:30:02.02,312,-196,-2062,-63,-18,177,562,-1158,1720,298
,219,2023-10-20 13:30:02.03,320,-171,-2054,-47,-37,180,391,-1168,1559,388
,220,2023-10-20 13:30:02.04,280,-137,-2082,-65,-35,182,600,-1306,1906,353
,221,2023-10-20 13:30:02.05,279,-106,-2125,-89,-61,182,561,-1331,1892,385
,222,2023-10-20 13:30:02.06,259,-106,-2160,-120,-92,180,822,-1418,2240,298
,223,2023-10-20 13:30:02.07,247,-115,-2160,-154,-122,182,822,-1426,2248,302
,224,2023-10-20 13:30:02.08,245,-107,-2157,-184,-143,179,1058,-1502,2560,222
,225,2023-10-20 13:30:02.09,223,-116,-2170,-205,-164,179,971,-1435,2406,232
,226,2023-10-20 13:30:02.10,230,-109,-2182,-218,-185,177,1108,-1447,2555,169
,227,2023-10-20 13:30:02.11,207,-116,-2166,-242,-198,182,1007,-1374,2381,183
,228,2023-10-20 13:30:02.12,188,-132,-2143,-247,-212,181,1184,-1424,2608,120
,229,2023-10-20 13:30:02.13,188,-99,-2125,-238,-231,175,924,-1329,2253,202
,230,2023-10-20 13:30:02.14,194,-94,-2087,-241,-241,169,1010,-1350,2360,170
,231,2023-10-20 13:30:02.15,173,-79,-2058,-228,-251,157,779,-1224,2003,222
,232,2023-10-20 13:30:02.16,173,-54,-2027,-226,-250,146,883,-1215,2098,166
,233,2023-10-20 13:30:02.17,175,-32,-2002,-212,-246,127,580,-966,1546,193
,234,2023-10-20 13:30:02.18,169,-19,-1984,-191,-238,106,674,-996,1670,161
,235,2023-10-20 13:30:02.19,168,-48,-1997,-169,-230,80,468,-883,1351,207
,236,2023-10-20 13:30:02.20,173,-22,-1972,-126,-231,58,593,-1036,1629,221
,237,2023-10-20 13:30:02.21,170,-13,-1964,-97,-214,37,408,-952,1360,272
,238,2023-10-20 13:30:02.22,186,-35,-1949,-75,-181,8,527,-1074,1601,273
,239,2023-10-20 13:30:02.23,164,-61,-1986,-49,-143,-15,360,-961,1321,300
,240,2023-10-20 13:30:02.24,162,-49,-2022,-35,-106,-36,497,-1075,1572,289
,241,2023-10-20 13:30:02.25,175,-56,-1974,-25,-66,-54,337,-968,1305,315
,242,2023-10-20 13:30:02.26,174,-62,-2016,4,-38,-69,481,-1108,1589,313
,243,2023-10-20 13:30:02.27,172,-67,-2049,14,-8,-75,250,-1111,1361,430
,244,2023-10-20 13:30:02.28,163,-79,-2070,18,1,-77,584,-1309,1893,362
,245,2023-10-20 13:30:02.29,158,-81,-2081,15,17,-76,438,-1428,1866,495
,246,2023-10-20 13:30:02.30,172,-85,-2100,4,26,-66,967,-1604,2571,318
,247,2023-10-20 13:30:02.31,167,-88,-2094,0,24,-52,2047,-1809,3856,-119
,248,2023-10-20 13:30:02.32,174,-84,-2092,1,18,-33,2047,-1876,3923,-85
,249,2023-10-20 13:30:02.33,179,-79,-2090,-6,15,-15,2047,-1724,3771,-161
,250,2023-10-20 13:30:02.34,187,-96,-2078,-10,11,2,2047,-1646,3693,-200
,251,2023-10-20 13:30:02.35,175,-99,-2063,-10,4,21,2047,-1558,3605,-244
,252,2023-10-20 13:30:02.36,192,-95,-2054,-4,-4,41,2047,-1564,3611,-241
,253,2023-10-20 13:30:02.37,189,-98,-2045,4,-12,56,2047,-1521,3568,-263
,254,2023-10-20 13:30:02.38,176,-101,-2036,9,-12,70,2047,-1545,3592,-251
,255,2023-10-20 13:30:02.39,170,-91,-2029,20,-11,74,2047,-1479,3526,-284
,256,2023-10-20 13:30:02.40,174,-99,-2026,37,-12,75,2047,-1396,3443,-325
,257,2023-10-20 13:30:02.41,150,-98,-2038,52,-14,80,2047,-1285,3332,-381
,258,2023-10-20 13:30:02.42,166,-88,-2025,64,-23,78,1030,-1101,2131,35
,259,2023-10-20 13:30:02.43,179,-95,-2033,69,-24,72,-763,-1010,247,886
,260,2023-10-20 13:30:02.44,179,-98,-2026,58,-18,71,334,-794,1128,230
,261,2023-10-20 13:30:02.45,161,-114,-2040,42,-8,79,1416,-773,2189,-321
,262,2023-10-20 13:30:02.46,165,-106,-2060,41,-10,82,2047,-550,2597,-748
,263,2023-10-20 13:30:02.47,175,-111,-2036,41,-2,72,2047,-575,2622,-736
,264,2023-10-20 13:30:02.48,180,-92,-2034,27,12,71,2047,-337,2384,-855
,265,2023-10-20 13:30:02.49,185,-92,-2046,7,33,66,2047,-409,2456,-819
,266,2023-10-20 13:30:02.50,176,-86,-2042,2,47,58,46,-185,231,69
,267,2023-10-20 13:30:02.51,159,-87,-2053,6,57,42,-962,-315,-647,638
,268,2023-10-20 13:30:02.52,166,-55,-2069,6,44,28,291,-92,383,-99
,269,2023-10-20 13:30:02.53,180,-81,-2063,-10,39,17,1038,-246,1284,-396
,270,2023-10-20 13:30:02.54,182,-109,-2070,-26,40,16,1421,-20,1441,-700
,271,2023-10-20 13:30:02.55,160,-97,-2069,-30,51,10,772,-181,953,-295
,272,2023-10-20 13:30:02.56,168,-73,-2067,-24,37,3,856,26,830,-441
,273,2023-10-20 13:30:02.57,158,-82,-2088,-32,28,0,558,-157,715,-200
,274,2023-10-20 13:30:02.58,160,-81,-2101,-41,16,-2,892,56,836,-474
,275,2023-10-20 13:30:02.59,160,-82,-2093,-48,9,-6,591,-121,712,-235
,276,2023-10-20 13:30:02.60,163,-68,-2092,-57,0,-7,852,74,778,-463
,277,2023-10-20 13:30:02.61,184,-62,-2078,-64,-17,-11,519,-108,627,-205
,278,2023-10-20 13:30:02.62,179,-78,-2066,-59,-25,-13,779,78,701,-428
,279,2023-10-20 13:30:02.63,191,-74,-2049,-52,-20,-15,472,-107,579,-182
,280,2023-10-20 13:30:02.64,187,-87,-2047,-45,-16,-14,742,67,675,-404
,281,2023-10-20 13:30:02.65,189,-104,-2038,-27,-10,-6,435,-106,541,-164
,282,2023-10-20 13:30:02.66,183,-89,-2043,-6,-15,5,712,77,635,-394
,283,2023-10-20 13:30:02.67,181,-86,-2048,3,-11,8,422,-88,510,-167
,284,2023-10-20 13:30:02.68,182,-91,-2029,15,-8,8,687,83,604,-385
,285,2023-10-20 13:30:02.69,175,-81,-2028,15,0,18,390,-94,484,-148
,286,2023-10-20 13:30:02.70,191,-80,-2045,18,-3,25,710,104,606,-407
,287,2023-10-20 13:30:02.71,181,-90,-2061,23,-2,32,464,-64,528,-200
,288,2023-10-20 13:30:02.72,171,-90,-2048,28,2,39,740,129,611,-434
,289,2023-10-20 13:30:02.73,174,-83,-2047,31,1,36,429,-60,489,-184
,290,2023-10-20 13:30:02.74,171,-87,-2053,32,3,39,701,130,571,-415
,291,2023-10-20 13:30:02.75,174,-79,-2058,38,0,38,439,-38,477,-200
,292,2023-10-20 13:30:02.76,180,-62,-2058,36,-4,29,714,136,578,-425
,293,2023-10-20 13:30:02.77,194,-68,-2062,33,-7,28,428,-38,466,-195
,294,2023-10-20 13:30:02.78,179,-83,-2062,24,-7,26,696,113,583,-404
,295,2023-10-20 13:30:02.79,180,-90,-2038,15,4,24,450,-55,505,-197
,296,2023-10-20 13:30:02.80,180,-95,-2048,13,3,27,701,96,605,-398
,297,2023-10-20 13:30:02.81,185,-98,-2058,21,-1,35,409,-62,471,-173
,298,2023-10-20 13:30:02.82,188,-103,-2056,33,-2,36,549,94,455,-321
,299,2023-10-20 13:30:02.83,175,-79,-2060,32,9,37,282,5,277,-143
,300,2023-10-20 13:30:02.84,163,-90,-2083,41,-2,40,350,68,282,-209
,301,2023-10-20 13:30:02.85,169,-87,-2077,44,-11,43,-52,-157,105,104
,302,2023-10-20 13:30:02.86,173,-65,-2088,43,-24,37,-356,-426,70,391
,303,2023-10-20 13:30:02.87,160,-69,-2068,27,-34,36,-560,-634,74,597
,304,2023-10-20 13:30:02.88,156,-75,-2065,15,-32,34,-654,-855,201,754
,305,2023-10-20 13:30:02.89,146,-39,-2057,-2,-47,20,-679,-878,199,778
,306,2023-10-20 13:30:02.90,149,-52,-2054,-20,-47,4,-720,-932,212,826
,307,2023-10-20 13:30:02.91,159,-51,-2046,-38,-38,-5,-712,-873,161,792
,308,2023-10-20 13:30:02.92,157,-35,-2050,-56,-35,-15,-728,-930,202,829
,309,2023-10-20 13:30:02.93,161,-34,-2036,-66,-36,-28,-699,-904,205,801
,310,2023-10-20 13:30:02.94,169,-63,-2059,-67,-28,-28,-675,-978,303,826
,311,2023-10-20 13:30:02.95,156,-67,-2051,-64,-28,-25,-625,-939,314,782
,312,2023-10-20 13:30:02.96,148,-55,-2047,-70,-23,-29,-554,-985,431,769
,313,2023-10-20 13:30:02.97,176,-76,-2056,-79,-20,-22,-501,-960,459,730
,314,2023-10-20 13:30:02.98,204,-77,-2058,-69,-15,-12,-387,-1017,630,702
,315,2023-10-20 13:30:02.99,193,-79,-2043,-50,-19,-2,-358,-1008,650,683
,316,2023-10-20 13:30:03.00,195,-74,-2039,-36,-11,9,-242,-1059,817,650
,317,2023-10-20 13:30:03.01,200,-99,-2050,-31,-13,26,-223,-1035,812,629
,318,2023-10-20 13:30:03.02,203,-101,-2053,-4,-8,50,-72,-1064,992,568
,319,2023-10-20 13:30:03.03,199,-102,-2052,30,-10,65,-80,-1039,959,559
,320,2023-10-20 13:30:03.04,184,-76,-2042,47,-7,76,75,-1064,1139,494
,321,2023-10-20 13:30:03.05,181,-90,-2056,49,0,96,39,-1051,1090,506
,322,2023-10-20 13:30:03.06,163,-89,-2087,61,-5,112,199,-1076,1275,438
,323,2023-10-20 13:30:03.07,154,-72,-2077,101,-26,118,156,-1069,1225,456
,324,2023-10-20 13:30:03.08,158,-48,-2053,121,-45,110,310,-1087,1397,388
,325,2023-10-20 13:30:03.09,164,-54,-2058,105,-44,94,232,-1069,1301,418
,326,2023-10-20 13:30:03.10,154,-68,-2051,96,-44,85,375,-1075,1450,350
,327,2023-10-20 13:30:03.11,159,-54,-2060,95,-51,72,304,-1073,1377,384
,328,2023-10-20 13:30:03.12,167,-74,-2051,95,-44,54,450,-1084,1534,317
,329,2023-10-20 13:30:03.13,149,-60,-2039,92,-36,28,377,-1101,1478,362
,330,2023-10-20 13:30:03.14,144,-68,-2047,88,-21,8,496,-1110,1606,307
,331,2023-10-20 13:30:03.15,157,-73,-2044,87,-21,-11,416,-1105,1521,344
,332,2023-10-20 13:30:03.16,142,-82,-2044,82,-10,-26,519,-1090,1609,285
,333,2023-10-20 13:30:03.17,132,-91,-2058,75,2,-33,450,-1082,1532,316
,334,2023-10-20 13:30:03.18,147,-89,-2056,66,-3,-47,546,-1072,1618,263
,335,2023-10-20 13:30:03.19,151,-98,-2054,46,-2,-43,477,-1100,1577,311
,336,2023-10-20 13:30:03.20,136,-101,-2041,24,4,-34,552,-1097,1649,272
,337,2023-10-20 13:30:03.21,157,-98,-2062,18,2,-33,512,-1095,1607,291
,338,2023-10-20 13:30:03.22,158,-91,-2070,6,3,-30,584,-1062,1646,239
,339,2023-10-20 13:30:03.23,159,-98,-2059,-5,4,-22,556,-1077,1633,260
,340,2023-10-20 13:30:03.24,159,-98,-2061,-7,2,-15,601,-1061,1662,230
,341,2023-10-20 13:30:03.25,154,-97,-2058,-5,-3,-10,569,-1085,1654,258
,342,2023-10-20 13:30:03.26,143,-104,-2064,-5,-3,2,612,-1060,1672,224
,343,2023-10-20 13:30:03.27,150,-107,-2064,-4,-5,10,608,-1121,1729,256
,344,2023-10-20 13:30:03.28,146,-101,-2068,13,-9,16,637,-1106,1743,234
,345,2023-10-20 13:30:03.29,139,-100,-2070,31,-20,20,636,-1127,1763,245
,346,2023-10-20 13:30:03.30,139,-99,-2066,38,-27,23,657,-1073,1730,208
,347,2023-10-20 13:30:03.31,150,-79,-2065,39,-30,24,674,-1094,1768,210
,348,2023-10-20 13:30:03.32,152,-84,-2060,39,-31,24,699,-1046,1745,173
,349,2023-10-20 13:30:03.33,145,-84,-2059,36,-28,21,713,-1100,1813,193
,350,2023-10-20 13:30:03.34,162,-85,-2058,44,-31,20,724,-1061,1785,168
,351,2023-10-20 13:30:03.35,155,-89,-2053,47,-30,18,769,-1111,1880,171
,352,2023-10-20 13:30:03.36,159,-96,-2039,44,-25,13,759,-1056,1815,148
,353,2023-10-20 13:30:03.37,144,-94,-2038,40,-18,11,816,-1135,1951,159
,354,2023-10-20 13:30:03.38,136,-114,-2041,42,-10,12,766,-1091,1857,162
,355,2023-10-20 13:30:03.39,147,-122,-2051,43,-7,14,861,-1142,2003,140
,356,2023-10-20 13:30:03.40,133,-114,-2049,47,1,17,787,-1070,1857,141
,357,2023-10-20 13:30:03.41,137,-116,-2046,51,6,19,861,-1139,2000,139
,358,2023-10-20 13:30:03.42,113,-115,-2051,52,14,16,775,-1072,1847,148
,359,2023-10-20 13:30:03.43,163,-81,-2053,69,8,0,856,-1143,1999,143
,360,2023-10-20 13:30:03.44,163,-104,-2007,80,14,-27,762,-1069,1831,153
,361,2023-10-20 13:30:03.45,180,-144,-2028,54,22,-15,850,-1129,1979,139
,362,2023-10-20 13:30:03.46,162,-113,-2010,43,31,-10,748,-1051,1799,151
,363,2023-10-20 13:30:03.47,170,-139,-2052,16,11,9,832,-1124,1956,146
,364,2023-10-20 13:30:03.48,144,-169,-2093,-19,11,56,723,-1049,1772,163
,365,2023-10-20 13:30:03.49,123,-153,-2092,-6,1,66,820,-1129,1949,154
,366,2023-10-20 13:30:03.50,147,-147,-2062,16,-11,54,718,-1048,1766,165
,367,2023-10-20 13:30:03.51,171,-158,-2042,27,-11,61,838,-1120,1958,141
,368,2023-10-20 13:30:03.52,152,-144,-2042,52,-12,70,713,-1034,1747,160
,369,2023-10-20 13:30:03.53,136,-125,-2017,76,-9,69,822,-1117,1939,147
,370,2023-10-20 13:30:03.54,146,-112,-2043,66,1,56,688,-1036,1724,174
,371,2023-10-20 13:30:03.55,143,-116,-2056,47,-2,55,802,-1126,1928,162
,372,2023-10-20 13:30:03.56,120,-96,-2052,33,-4,57,681,-1040,1721,179
,373,2023-10-20 13:30:03.57,123,-99,-2071,20,3,46,826,-1129,1955,151
,374,2023-10-20 13:30:03.58,133,-97,-2072,3,-5,31,678,-1036,1714,179
,375,2023-10-20 13:30:03.59,130,-108,-2074,-12,-9,19,804,-1126,1930,161
,376,2023-10-20 13:30:03.60,149,-105,-2065,-22,-10,11,666,-1034,1700,184
,377,2023-10-20 13:30:03.61,133,-94,-2058,-27,-9,-1,833,-1153,1986,160
,378,2023-10-20 13:30:03.62,135,-99,-2060,-29,-6,-12,674,-1057,1731,191
,379,2023-10-20 13:30:03.63,129,-100,-2057,-35,0,-19,823,-1131,1954,154
,380,2023-10-20 13:30:03.64,126,-94,-2058,-41,0,-29,650,-1021,1671,185
,381,2023-10-20 13:30:03.65,131,-110,-2060,-51,5,-34,812,-1128,1940,158
,382,2023-10-20 13:30:03.66,143,-113,-2055,-50,8,-34,686,-1033,1719,173
,383,2023-10-20 13:30:03.67,144,-111,-2029,-52,11,-36,897,-1130,2027,116
,384,2023-10-20 13:30:03.68,161,-127,-2025,-49,18,-36,704,-1023,1727,159
,385,2023-10-20 13:30:03.69,153,-126,-2054,-35,23,-26,864,-1122,1986,129
,386,2023-10-20 13:30:03.70,150,-130,-2056,-25,28,-19,707,-1018,1725,155
,387,2023-10-20 13:30:03.71,143,-112,-2043,-12,29,-14,930,-1138,2068,104
,388,2023-10-20 13:30:03.72,146,-103,-2048,-6,25,-17,749,-1037,1786,144
,389,2023-10-20 13:30:03.73,147,-93,-2057,0,18,-8,961,-1147,2108,93
,390,2023-10-20 13:30:03.74,156,-87,-2063,7,18,-6,720,-1036,1756,158
,391,2023-10-20 13:30:03.75,154,-93,-2059,3,16,0,904,-1135,2039,115
,392,2023-10-20 13:30:03.76,145,-108,-2053,-7,10,15,667,-1025,1692,179
,393,2023-10-20 13:30:03.77,138,-93,-2063,-11,-9,28,873,-1130,2003,128
,394,2023-10-20 13:30:03.78,145,-113,-2078,-15,-22,42,676,-1024,1700,174
,395,2023-10-20 13:30:03.79,147,-107,-2078,-12,-25,49,892,-1148,2040,128
,396,2023-10-20 13:30:03.80,150,-94,-2067,-8,-33,49,720,-1033,1753,156
,397,2023-10-20 13:30:03.81,154,-79,-2071,-2,-43,47,960,-1148,2108,94
,398,2023-10-20 13:30:03.82,157,-69,-2073,-5,-53,36,701,-1027,1728,163
,399,2023-10-20 13:30:03.83,148,-64,-2065,-22,-29,19,888,-1131,2019,121
,400,2023-10-20 13:30:03.84,142,-53,-2055,-25,-28,4,673,-1014,1687,170
,401,2023-10-20 13:30:03.85,148,-42,-2046,-23,-27,-11,914,-1133,2047,109
,402,2023-10-20 13:30:03.86,135,-41,-2047,-29,-20,-27,646,-1018,1664,186
,403,2023-10-20 13:30:03.87,141,-44,-2054,-36,-10,-39,817,-1122,1939,152
,404,2023-10-20 13:30:03.88,132,-72,-2059,-30,-3,-51,551,-1008,1559,228
,405,2023-10-20 13:30:03.89,150,-55,-2063,-28,-9,-54,770,-1126,1896,178
,406,2023-10-20 13:30:03.90,136,-55,-2066,-45,10,-61,580,-1022,1602,221
,407,2023-10-20 13:30:03.91,138,-72,-2042,-45,8,-57,836,-1154,1990,159
,408,2023-10-20 13:30:03.92,148,-71,-2040,-37,11,-55,654,-1044,1698,195
,409,2023-10-20 13:30:03.93,151,-74,-2039,-35,21,-50,904,-1160,2064,128
,410,2023-10-20 13:30:03.94,175,-67,-2049,-42,34,-48,643,-1033,1676,195
,411,2023-10-20 13:30:03.95,175,-77,-2045,-53,48,-43,861,-1137,1998,138
,412,2023-10-20 13:30:03.96,170,-77,-2052,-32,47,-36,623,-1017,1640,197
,413,2023-10-20 13:30:03.97,168,-73,-2054,-12,32,-17,862,-1137,1999,137
,414,2023-10-20 13:30:03.98,170,-91,-2052,-5,23,-5,623,-1026,1649,201
,415,2023-10-20 13:30:03.99,168,-90,-2063,2,25,7,853,-1142,1995,144
,416,2023-10-20 13:30:04.00,182,-102,-2077,22,18,20,616,-1021,1637,202
,417,2023-10-20 13:30:04.01,169,-89,-2058,49,3,33,861,-1129,1990,134
,418,2023-10-20 13:30:04.02,162,-97,-2057,66,-10,44,648,-1016,1664,184
,419,2023-10-20 13:30:04.03,158,-116,-2051,82,-20,55,897,-1139,2036,121
,420,2023-10-20 13:30:04.04,158,-114,-2051,97,-27,68,639,-1031,1670,196
,421,2023-10-20 13:30:04.05,160,-108,-2056,106,-34,77,875,-1152,2027,138
,422,2023-10-20 13:30:04.06,137,-105,-2065,112,-35,82,649,-1034,1683,192
,423,2023-10-20 13:30:04.07,141,-90,-2042,126,-60,86,902,-1136,2038,117
,424,2023-10-20 13:30:04.08,146,-75,-2031,119,-60,79,654,-1032,1686,189
,425,2023-10-20 13:30:04.09,126,-76,-2039,102,-55,67,896,-1167,2063,135
,426,2023-10-20 13:30:04.10,103,-78,-2066,79,-59,41,671,-1059,1730,194
,427,2023-10-20 13:30:04.11,96,-79,-2077,68,-69,31,920,-1166,2086,123
,428,2023-10-20 13:30:04.12,94,-100,-2085,45,-60,18,660,-1049,1709,194
,429,2023-10-20 13:30:04.13,85,-104,-2099,35,-72,8,884,-1158,2042,137
,430,2023-10-20 13:30:04.14,88,-98,-2092,24,-75,2,655,-1038,1693,191
,431,2023-10-20 13:30:04.15,98,-88,-2084,7,-72,-9,888,-1140,2028,126
,432,2023-10-20 13:30:04.16,101,-103,-2085,-13,-62,-15,665,-1027,1692,181
,433,2023-10-20 13:30:04.17,109,-96,-2048,-12,-57,-22,886,-1134,2020,124
,434,2023-10-20 13:30:04.18,110,-106,-2037,-9,-49,-32,650,-1035,1685,192
,435,2023-10-20 13:30:04.19,112,-96,-2044,-14,-27,-44,877,-1156,2033,139
,436,2023-10-20 13:30:04.20,114,-106,-2033,0,-23,-48,639,-1046,1685,203
,437,2023-10-20 13:30:04.21,106,-109,-2023,11,-10,-51,863,-1133,1996,135
,438,2023-10-20 13:30:04.22,116,-111,-2029,9,6,-49,630,-1020,1650,195
,439,2023-10-20 13:30:04.23,94,-123,-2033,13,17,-44,848,-1113,1961,132
,440,2023-10-20 13:30:04.24,104,-128,-2034,20,22,-33,633,-1032,1665,199
,441,2023-10-20 13:30:04.25,113,-127,-2044,32,17,-19,862,-1150,2012,144
,442,2023-10-20 13:30:04.26,103,-127,-2049,34,20,-7,643,-1047,1690,202
,443,2023-10-20 13:30:04.27,107,-136,-2047,38,18,14,878,-1121,1999,121
,444,2023-10-20 13:30:04.28,121,-125,-2038,45,17,29,680,-1032,1712,176
,445,2023-10-20 13:30:04.29,124,-124,-2039,43,13,42,906,-1134,2040,114
,446,2023-10-20 13:30:04.30,123,-129,-2045,38,18,51,697,-1047,1744,175
,447,2023-10-20 13:30:04.31,125,-111,-2045,30,19,57,904,-1123,2027,109
,448,2023-10-20 13:30:04.32,118,-114,-2049,26,25,65,674,-1046,1720,186
,449,2023-10-20 13:30:04.33,134,-119,-2061,20,28,66,873,-1139,2012,133
,450,2023-10-20 13:30:04.34,118,-121,-2060,15,29,66,656,-1050,1706,197
,451,2023-10-20 13:30:04.35,120,-105,-2057,9,30,61,863,-1110,1973,123
,452,2023-10-20 13:30:04.36,114,-117,-2068,4,32,58,664,-1036,1700,186
,453,2023-10-20 13:30:04.37,111,-119,-2072,2,31,58,872,-1118,1990,123
,454,2023-10-20 13:30:04.38,126,-118,-2070,-2,30,49,707,-1042,1749,167
,455,2023-10-20 13:30:04.39,122,-120,-2058,-6,28,48,903,-1099,2002,98
,456,2023-10-20 13:30:04.40,122,-115,-2060,-12,34,51,707,-1026,1733,159
,457,2023-10-20 13:30:04.41,137,-106,-2042,-11,37,43,883,-1090,1973,103
,458,2023-10-20 13:30:04.42,137,-109,-2036,-7,45,35,706,-1031,1737,162
,459,2023-10-20 13:30:04.43,132,-90,-2044,-1,50,23,882,-1095,1977,106
,460,2023-10-20 13:30:04.44,144,-87,-2040,3,53,9,709,-1050,1759,170
,461,2023-10-20 13:30:04.45,146,-85,-2042,0,58,-4,876,-1116,1992,120
,462,2023-10-20 13:30:04.46,140,-86,-2061,-2,57,-16,715,-1060,1775,172
,463,2023-10-20 13:30:04.47,142,-99,-2057,3,58,-21,882,-1107,1989,112
,464,2023-10-20 13:30:04.48,140,-97,-2056,8,57,-36,750,-1044,1794,147
,465,2023-10-20 13:30:04.49,157,-90,-2068,1,55,-42,903,-1082,1985,89
,466,2023-10-20 13:30:04.50,149,-93,-2074,-1,54,-44,744,-1036,1780,146
,467,2023-10-20 13:30:04.51,146,-107,-2082,5,46,-45,882,-1085,1967,101
,468,2023-10-20 13:30:04.52,145,-83,-2076,12,32,-50,738,-1049,1787,155
,469,2023-10-20 13:30:04.53,149,-71,-2043,5,21,-48,871,-1092,1963,110
,470,2023-10-20 13:30:04.54,164,-84,-2030,-19,29,-56,750,-1059,1809,154
,471,2023-10-20 13:30:04.55,164,-105,-2040,-29,29,-58,888,-1086,1974,99
,472,2023-10-20 13:30:04.56,164,-102,-2052,-14,27,-61,721,-1049,1770,164
,473,2023-10-20 13:30:04.57,155,-97,-2050,7,19,-64,826,-1073,1899,123
,474,2023-10-20 13:30:04.58,152,-87,-2057,19,8,-68,656,-1058,1714,201
,475,2023-10-20 13:30:04.59,151,-91,-2055,22,6,-67,787,-1083,1870,148
,476,2023-10-20 13:30:04.60,154,-98,-2049,29,-4,-66,680,-1060,1740,190
,477,2023-10-20 13:30:04.61,144,-80,-2056,33,-12,-65,807,-1074,1881,133
,478,2023-10-20 13:30:04.62,133,-89,-2064,25,-15,-69,690,-1048,1738,179
,479,2023-10-20 13:30:04.63,138,-98,-2056,21,-25,-72,800,-1059,1859,129
,480,2023-10-20 13:30:04.64,135,-96,-2058,21,-32,-69,711,-1048,1759,168
,481,2023-10-20 13:30:04.65,134,-105,-2059,21,-34,-74,789,-1067,1856,139
,482,2023-10-20 13:30:04.66,131,-95,-2046,24,-38,-80,655,-1063,1718,204
,483,2023-10-20 13:30:04.67,126,-89,-2045,19,-37,-94,709,-1070,1779,180
,484,2023-10-20 13:30:04.68,134,-91,-2064,15,-26,-108,602,-1064,1666,231
,485,2023-10-20 13:30:04.69,138,-96,-2056,21,-23,-120,723,-1067,1790,172
,486,2023-10-20 13:30:04.70,148,-96,-2053,33,-24,-131,686,-1066,1752,190
,487,2023-10-20 13:30:04.71,137,-99,-2055,32,-13,-141,787,-1066,1853,139
,488,2023-10-20 13:30:04.72,126,-100,-2075,36,-8,-150,756,-1099,1855,171
,489,2023-10-20 13:30:04.73,135,-103,-2076,35,-5,-157,824,-1106,1930,141
,490,2023-10-20 13:30:04.74,133,-98,-2093,28,-4,-156,817,-1102,1919,142
,491,2023-10-20 13:30:04.75,134,-100,-2059,14,3,-155,844,-1072,1916,114
,492,2023-10-20 13:30:04.76,141,-112,-2049,1,3,-150,804,-1101,1905,148
,493,2023-10-20 13:30:04.77,135,-133,-2049,6,-4,-138,815,-1095,1910,140
,494,2023-10-20 13:30:04.78,139,-128,-2044,7,2,-124,795,-1111,1906,158
,495,2023-10-20 13:30:04.79,129,-153,-2024,-2,19,-107,804,-1077,1881,136
,496,2023-10-20 13:30:04.80,149,-166,-2039,20,22,-86,788,-1076,1864,144
,497,2023-10-20 13:30:04.81,133,-139,-2057,49,6,-64,787,-1040,1827,126
,498,2023-10-20 13:30:04.82,137,-144,-2058,58,0,-46,785,-1072,1857,143
,499,2023-10-20 13:30:04.83,120,-139,-2079,58,0,-31,795,-1049,1844,127
,500,2023-10-20 13:30:04.84,130,-106,-2077,56,1,-24,862,-1083,1945,110
,501,2023-10-20 13:30:04.85,129,-104,-2065,50,-1,-18,829,-1047,1876,109
,502,2023-10-20 13:30:04.86,124,-94,-2071,43,-10,-13,830,-1111,1941,140
,503,2023-10-20 13:30:04.87,124,-93,-2061,34,-17,-13,788,-1080,1868,146
,504,2023-10-20 13:30:04.88,130,-81,-2067,21,-24,-18,838,-1120,1958,141
,505,2023-10-20 13:30:04.89,132,-80,-2054,3,-9,-24,807,-1062,1869,127
,506,2023-10-20 13:30:04.90,135,-105,-2045,-12,-3,-34,861,-1095,1956,117
,507,2023-10-20 13:30:04.91,138,-102,-2039,-6,8,-39,793,-1041,1834,124
,508,2023-10-20 13:30:04.92,135,-80,-2050,-9,17,-40,836,-1109,1945,136
,509,2023-10-20 13:30:04.93,154,-89,-2029,-28,23,-47,762,-1063,1825,150
,510,2023-10-20 13:30:04.94,158,-117,-2059,-38,42,-48,811,-1103,1914,146
,511,2023-10-20 13:30:04.95,145,-131,-2063,-27,47,-37,752,-1037,1789,142
,512,2023-10-20 13:30:04.96,153,-117,-2061,-8,46,-29,849,-1109,1958,130
,513,2023-10-20 13:30:04.97,174,-109,-2049,-4,52,-24,763,-1058,1821,147
,514,2023-10-20 13:30:04.98,174,-106,-2063,0,63,-19,857,-1135,1992,139
,515,2023-10-20 13:30:04.99,160,-108,-2057,12,64,-12,753,-1070,1823,158
,516,2023-10-20 13:30:05.00,167,-117,-2051,25,49,-1,854,-1120,1974,133
,517,2023-10-20 13:30:05.01,171,-123,-2041,36,44,8,761,-1061,1822,150
,518,2023-10-20 13:30:05.02,169,-113,-2044,45,43,17,852,-1137,1989,142
,519,2023-10-20 13:30:05.03,161,-126,-2053,47,42,24,755,-1075,1830,160
,520,2023-10-20 13:30:05.04,159,-115,-2054,48,36,33,868,-1138,2006,135
,521,2023-10-20 13:30:05.05,150,-115,-2053,56,32,42,744,-1036,1780,146
,522,2023-10-20 13:30:05.06,144,-122,-2059,52,18,48,849,-1099,1948,125
,523,2023-10-20 13:30:05.07,165,-105,-2042,37,26,52,701,-1019,1720,159
,524,2023-10-20 13:30:05.08,154,-102,-2053,35,19,57,792,-1109,1901,158
,525,2023-10-20 13:30:05.09,161,-105,-2058,37,5,58,687,-1033,1720,173
,526,2023-10-20 13:30:05.10,144,-102,-2047,34,1,53,836,-1131,1967,147
,527,2023-10-20 13:30:05.11,152,-101,-2055,19,6,49,710,-1042,1752,166
,528,2023-10-20 13:30:05.12,131,-100,-2058,1,11,43,844,-1114,1958,135
,529,2023-10-20 13:30:05.13,133,-103,-2067,-5,13,40,702,-1013,1715,155
,530,2023-10-20 13:30:05.14,131,-109,-2069,-14,15,36,858,-1093,1951,117
,531,2023-10-20 13:30:05.15,124,-100,-2077,-28,20,26,701,-1003,1704,151
,532,2023-10-20 13:30:05.16,152,-101,-2063,-34,18,20,840,-1108,1948,134
,533,2023-10-20 13:30:05.17,148,-96,-2054,-41,17,19,666,-1018,1684,176
,534,2023-10-20 13:30:05.18,161,-92,-2054,-54,32,16,818,-1120,1938,151
,535,2023-10-20 13:30:05.19,179,-98,-2069,-63,42,9,673,-1022,1695,174
,536,2023-10-20 13:30:05.20,184,-102,-2066,-65,50,10,858,-1118,1976,130
,537,2023-10-20 13:30:05.21,175,-100,-2072,-54,48,16,693,-1019,1712,163
,538,2023-10-20 13:30:05.22,169,-98,-2071,-41,39,21,871,-1147,2018,138
,539,2023-10-20 13:30:05.23,159,-99,-2069,-31,28,31,696,-1045,1741,174
,540,2023-10-20 13:30:05.24,164,-102,-2056,-21,17,38,886,-1133,2019,123
,541,2023-10-20 13:30:05.25,161,-106,-2056,-13,7,51,691,-1013,1704,161
,542,2023-10-20 13:30:05.26,164,-105,-2053,-9,-2,63,874,-1118,1992,122
,543,2023-10-20 13:30:05.27,161,-104,-2043,-2,-15,73,676,-1012,1688,168
,544,2023-10-20 13:30:05.28,150,-94,-2035,0,-16,81,868,-1122,1990,127
,545,2023-10-20 13:30:05.29,158,-88,-2027,-1,-17,84,684,-1013,1697,164
,546,2023-10-20 13:30:05.30,157,-99,-2031,-1,-18,87,900,-1133,2033,116
,547,2023-10-20 13:30:05.31,149,-104,-2036,10,-18,90,707,-1026,1733,159
,548,2023-10-20 13:30:05.32,144,-80,-2031,19,-22,84,922,-1149,2071,113
,549,2023-10-20 13:30:05.33,135,-74,-2043,14,-16,73,721,-1037,1758,158
,550,2023-10-20 13:30:05.34,134,-85,-2062,0,-10,64,946,-1160,2106,107
,551,2023-10-20 13:30:05.35,118,-80,-2058,-9,-11,52,719,-1037,1756,159
,552,2023-10-20 13:30:05.36,139,-70,-2066,-27,-6,40,928,-1133,2061,102
,553,2023-10-20 13:30:05.37,116,-70,-2066,-46,4,30,726,-999,1725,136
,554,2023-10-20 13:30:05.38,134,-83,-2057,-56,11,23,947,-1112,2059,82
,555,2023-10-20 13:30:05.39,145,-72,-2058,-56,11,18,706,-1004,1710,149
,556,2023-10-20 13:30:05.40,150,-75,-2055,-55,12,17,902,-1157,2059,127
,557,2023-10-20 13:30:05.41,152,-65,-2060,-57,24,13,669,-1042,1711,186
,558,2023-10-20 13:30:05.42,164,-73,-2073,-56,33,11,888,-1166,2054,139
,559,2023-10-20 13:30:05.43,175,-77,-2067,-55,37,20,655,-1041,1696,193
,560,2023-10-20 13:30:05.44,160,-83,-2070,-47,39,26,893,-1160,2053,133
,561,2023-10-20 13:30:05.45,152,-87,-2079,-37,36,37,674,-1035,1709,180
,562,2023-10-20 13:30:05.46,166,-78,-2067,-26,36,46,912,-1161,2073,124
,563,2023-10-20 13:30:05.47,155,-62,-2061,-18,32,50,673,-1030,1703,178
,564,2023-10-20 13:30:05.48,166,-67,-2069,-7,28,58,899,-1135,2034,118
,565,2023-10-20 13:30:05.49,164,-67,-2043,9,27,63,680,-1014,1694,167
,566,2023-10-20 13:30:05.50,169,-56,-2052,21,19,62,927,-1154,2081,113
,567,2023-10-20 13:30:05.51,160,-57,-2048,22,13,60,698,-1039,1737,170
,568,2023-10-20 13:30:05.52,156,-56,-2061,23,16,57,1209,-1301,2510,46
,569,2023-10-20 13:30:05.53,164,-59,-2054,23,11,54,2047,-1711,3758,-168
,570,2023-10-20 13:30:05.54,154,-61,-2044,16,15,48,2047,-1950,3997,-48
,571,2023-10-20 13:30:05.55,147,-87,-2051,18,10,48,2047,-2006,4053,-20
,572,2023-10-20 13:30:05.56,150,-88,-2059,23,8,48,2047,-1933,3980,-57
,573,2023-10-20 13:30:05.57,149,-94,-2040,26,7,50,2047,-1790,3837,-128
,574,2023-10-20 13:30:05.58,145,-94,-2043,31,10,51,2047,-1629,3676,-209
,575,2023-10-20 13:30:05.59,168,-83,-2041,37,9,57,2047,-1224,3271,-411
,576,2023-10-20 13:30:05.60,161,-90,-2043,37,9,56,2047,-1046,3093,-500
,577,2023-10-20 13:30:05.61,170,-91,-2042,34,19,53,-634,-796,162,715
,578,2023-10-20 13:30:05.62,151,-93,-2051,40,23,52,-823,-900,77,861
,579,2023-10-20 13:30:05.63,154,-88,-2052,44,26,50,-76,-834,758,455
,580,2023-10-20 13:30:05.64,167,-81,-2065,32,25,48,802,-991,1793,94
,581,2023-10-20 13:30:05.65,159,-94,-2078,26,25,50,584,-896,1480,156
,582,2023-10-20 13:30:05.66,152,-104,-2077,26,16,49,466,-1015,1481,274
,583,2023-10-20 13:30:05.67,151,-105,-2067,29,7,48,112,-896,1008,392
,584,2023-10-20 13:30:05.68,156,-88,-2052,21,9,49,287,-1002,1289,357
,585,2023-10-20 13:30:05.69,161,-85,-2054,14,10,49,203,-937,1140,367
,586,2023-10-20 13:30:05.70,157,-103,-2053,22,2,48,440,-1107,1547,333
,587,2023-10-20 13:30:05.71,158,-104,-2061,27,-3,49,243,-1025,1268,391
,588,2023-10-20 13:30:05.72,166,-79,-2057,20,-2,45,417,-1141,1558,362
,589,2023-10-20 13:30:05.73,163,-83,-2056,6,6,39,210,-1018,1228,404
,590,2023-10-20 13:30:05.74,166,-88,-2057,1,13,36,400,-1108,1508,354
,591,2023-10-20 13:30:05.75,169,-94,-2055,0,11,35,214,-998,1212,392
,592,2023-10-20 13:30:05.76,178,-83,-2059,-3,16,35,430,-1098,1528,334
,593,2023-10-20 13:30:05.77,168,-80,-2051,-7,17,42,257,-1007,1264,375
,594,2023-10-20 13:30:05.78,169,-81,-2065,-13,17,41,504,-1125,1629,310
,595,2023-10-20 13:30:05.79,186,-96,-2041,-10,14,45,290,-1076,1366,393
,596,2023-10-20 13:30:05.80,176,-81,-2035,-5,18,48,554,-1204,1758,325
,597,2023-10-20 13:30:05.81,189,-87,-2046,1,18,47,341,-1188,1529,423
,598,2023-10-20 13:30:05.82,182,-86,-2050,7,17,48,713,-1312,2025,299
,599,2023-10-20 13:30:05.83,186,-83,-2040,16,18,47,522,-1331,1853,404
,600,2023-10-20 13:30:05.84,180,-85,-2039,21,15,47,1137,-1509,2646,186
,601,2023-10-20 13:30:05.85,191,-81,-2048,22,15,47,1682,-1642,3324,-20
,602,2023-10-20 13:30:05.86,182,-82,-2053,24,11,48,2047,-1731,3778,-158
,603,2023-10-20 13:30:05.87,161,-75,-2054,23,7,44,2047,-1723,3770,-162
,604,2023-10-20 13:30:05.88,172,-81,-2052,23,1,43,2047,-1711,3758,-168
,605,2023-10-20 13:30:05.89,172,-84,-2047,17,-2,39,2047,-1585,3632,-231
,606,2023-10-20 13:30:05.90,151,-80,-2045,10,-2,34,2047,-1474,3521,-286
,607,2023-10-20 13:30:05.91,172,-77,-2044,3,0,26,2047,-1316,3363,-365
,608,2023-10-20 13:30:05.92,166,-85,-2044,-1,8,19,1089,-1194,2283,52
,609,2023-10-20 13:30:05.93,177,-89,-2050,0,9,16,-1125,-946,-179,1035
,610,2023-10-20 13:30:05.94,175,-85,-2031,1,17,19,-490,-912,422,701
,611,2023-10-20 13:30:05.95,181,-99,-2049,3,23,17,320,-850,1170,265
,612,2023-10-20 13:30:05.96,186,-100,-2067,7,23,26,872,-951,1823,39
,613,2023-10-20 13:30:05.97,184,-98,-2063,9,22,33,457,-924,1381,233
,614,2023-10-20 13:30:05.98,192,-95,-2051,5,26,38,361,-1003,1364,321
,615,2023-10-20 13:30:05.99,186,-94,-2066,7,31,46,117,-958,1075,420
,616,2023-10-20 13:30:06.00,178,-76,-2060,7,30,53,286,-1030,1316,372
,617,2023-10-20 13:30:06.01,172,-94,-2078,5,21,57,174,-985,1159,405
,618,2023-10-20 13:30:06.02,172,-100,-2077,10,12,66,340,-1045,1385,352
,619,2023-10-20 13:30:06.03,161,-93,-2076,16,1,72,172,-994,1166,411
,620,2023-10-20 13:30:06.04,154,-101,-2085,8,-6,82,352,-1041,1393,344
,621,2023-10-20 13:30:06.05,147,-99,-2087,6,-10,93,221,-1005,1226,392
,622,2023-10-20 13:30:06.06,161,-96,-2082,8,-19,102,413,-1063,1476,325
,623,2023-10-20 13:30:06.07,157,-90,-2066,16,-32,110,249,-1025,1274,388
,624,2023-10-20 13:30:06.08,162,-99,-2062,16,-27,119,427,-1064,1491,318
,625,2023-10-20 13:30:06.09,180,-83,-2049,21,-23,131,309,-1046,1355,368
,626,2023-10-20 13:30:06.10,159,-106,-2064,34,-27,135,503,-1097,1600,297
,627,2023-10-20 13:30:06.11,173,-91,-2054,29,-17,137,333,-1069,1402,368
,628,2023-10-20 13:30:06.12,183,-87,-2059,19,-7,143,493,-1095,1588,301
,629,2023-10-20 13:30:06.13,172,-91,-2059,21,5,150,359,-1053,1412,347
,630,2023-10-20 13:30:06.14,161,-96,-2053,23,5,150,535,-1066,1601,265
,631,2023-10-20 13:30:06.15,175,-65,-2044,18,4,147,407,-1039,1446,316
,632,2023-10-20 13:30:06.16,186,-66,-2049,14,19,140,564,-1061,1625,248
,633,2023-10-20 13:30:06.17,182,-82,-2040,10,28,136,432,-1052,1484,310
,634,2023-10-20 13:30:06.18,185,-70,-2059,13,28,116,574,-1073,1647,249
,635,2023-10-20 13:30:06.19,173,-90,-2057,9,26,111,460,-1069,1529,304
,636,2023-10-20 13:30:06.20,186,-91,-2049,16,23,112,580,-1087,1667,253
,637,2023-10-20 13:30:06.21,176,-81,-2040,20,25,105,482,-1073,1555,295
,638,2023-10-20 13:30:06.22,179,-85,-2032,28,15,102,606,-1077,1683,235
,639,2023-10-20 13:30:06.23,200,-84,-2032,40,14,95,510,-1068,1578,279
,640,2023-10-20 13:30:06.24,189,-81,-2035,45,3,88,620,-1070,1690,225
,641,2023-10-20 13:30:06.25,190,-77,-2049,46,2,84,470,-1069,1539,299
,642,2023-10-20 13:30:06.26,194,-101,-2056,52,-8,79,559,-1066,1625,253
,643,2023-10-20 13:30:06.27,177,-96,-2057,61,-16,73,551,-1067,1618,258
,644,2023-10-20 13:30:06.28,169,-83,-2060,57,-24,65,673,-1054,1727,190
,645,2023-10-20 13:30:06.29,186,-83,-2069,54,-47,59,610,-1057,1667,223
,646,2023-10-20 13:30:06.30,162,-106,-2081,54,-50,60,666,-1045,1711,189
,647,2023-10-20 13:30:06.31,167,-94,-2074,44,-55,57,609,-1054,1663,222
,648,2023-10-20 13:30:06.32,161,-98,-2067,37,-60,56,658,-1038,1696,190
,649,2023-10-20 13:30:06.33,171,-95,-2060,32,-64,60,604,-1056,1660,226
,650,2023-10-20 13:30:06.34,174,-95,-2054,26,-54,54,640,-1042,1682,201
,651,2023-10-20 13:30:06.35,178,-95,-2046,18,-40,53,593,-1067,1660,237
,652,2023-10-20 13:30:06.36,185,-96,-2047,20,-38,54,628,-1047,1675,209
,653,2023-10-20 13:30:06.37,182,-102,-2048,28,-32,55,601,-1067,1668,233
,654,2023-10-20 13:30:06.38,178,-108,-2057,33,-23,54,635,-1038,1673,201
,655,2023-10-20 13:30:06.39,169,-111,-2065,43,-18,57,632,-1074,1706,221
,656,2023-10-20 13:30:06.40,174,-107,-2055,52,-15,57,643,-1050,1693,203
,657,2023-10-20 13:30:06.41,165,-103,-2055,59,-19,57,633,-1086,1719,226
,658,2023-10-20 13:30:06.42,169,-91,-2050,65,-22,54,628,-1051,1679,211
,659,2023-10-20 13:30:06.43,168,-99,-2056,66,-22,53,628,-1085,1713,228
,660,2023-10-20 13:30:06.44,166,-94,-2046,60,-20,50,620,-1045,1665,212
,661,2023-10-20 13:30:06.45,158,-97,-2047,57,-25,51,629,-1081,1710,226
,662,2023-10-20 13:30:06.46,159,-107,-2044,52,-31,54,608,-1041,1649,216
,663,2023-10-20 13:30:06.47,171,-99,-2037,40,-32,55,644,-1100,1744,228
,664,2023-10-20 13:30:06.48,159,-96,-2042,31,-25,58,566,-1224,1790,329
,665,2023-10-20 13:30:06.49,167,-99,-2033,28,-17,57,654,-1408,2062,377
,666,2023-10-20 13:30:06.50,155,-117,-2049,24,-11,56,835,-1447,2282,306
,667,2023-10-20 13:30:06.51,164,-114,-2064,20,-9,57,970,-1472,2442,251
,668,2023-10-20 13:30:06.52,162,-130,-2072,27,-13,60,1056,-1462,2518,203
,669,2023-10-20 13:30:06.53,146,-125,-2077,39,-24,66,1152,-1496,2648,172
,670,2023-10-20 13:30:06.54,155,-117,-2077,45,-37,68,1228,-1500,2728,136
,671,2023-10-20 13:30:06.55,143,-103,-2076,49,-41,63,1360,-1533,2893,86
,672,2023-10-20 13:30:06.56,144,-97,-2066,47,-46,55,1692,-1619,3311,-36
,673,2023-10-20 13:30:06.57,150,-69,-2060,42,-48,45,2047,-1683,3730,-182
,674,2023-10-20 13:30:06.58,135,-77,-2063,34,-43,36,2047,-1810,3857,-118
,675,2023-10-20 13:30:06.59,139,-74,-2043,28,-35,21,2047,-1874,3921,-86
,676,2023-10-20 13:30:06.60,145,-78,-2038,23,-28,4,2047,-1925,3972,-61
,677,2023-10-20 13:30:06.61,146,-105,-2037,20,-18,-8,2047,-1869,3916,-89
,678,2023-10-20 13:30:06.62,149,-107,-2046,24,-18,-17,2047,-1823,3870,-112
,679,2023-10-20 13:30:06.63,147,-118,-2042,23,-9,-26,2047,-1600,3647,-223
,680,2023-10-20 13:30:06.64,139,-122,-2056,25,-3,-31,2047,-1404,3451,-321
,681,2023-10-20 13:30:06.65,141,-126,-2070,42,-11,-31,2047,-1038,3085,-504
,682,2023-10-20 13:30:06.66,144,-108,-2060,54,-29,-29,2047,-576,2623,-735
,683,2023-10-20 13:30:06.67,139,-103,-2043,50,-31,-27,-499,-622,123,560
,684,2023-10-20 13:30:06.68,139,-97,-2054,49,-35,-28,-1045,-654,-391,849
,685,2023-10-20 13:30:06.69,134,-96,-2068,50,-51,-27,-208,-872,664,540
,686,2023-10-20 13:30:06.70,127,-110,-2036,47,-65,-29,417,-828,1245,205
,687,2023-10-20 13:30:06.71,132,-112,-2036,40,-78,-30,292,-928,1220,318
,688,2023-10-20 13:30:06.72,113,-120,-2028,34,-75,-32,-46,-827,781,436
,689,2023-10-20 13:30:06.73,128,-146,-2054,35,-70,-32,-374,-931,557,652
,690,2023-10-20 13:30:06.74,126,-150,-2038,43,-64,-29,-415,-851,436,633
,691,2023-10-20 13:30:06.75,121,-144,-2029,55,-53,-34,-375,-985,610,680
,692,2023-10-20 13:30:06.76,117,-138,-2040,60,-41,-39,-278,-904,626,591
,693,2023-10-20 13:30:06.77,111,-142,-2050,60,-31,-40,-184,-1018,834,601
,694,2023-10-20 13:30:06.78,106,-148,-2066,62,-30,-44,-147,-922,775,534
,695,2023-10-20 13:30:06.79,98,-135,-2059,56,-30,-49,-107,-1045,938,576
,696,2023-10-20 13:30:06.80,99,-133,-2074,46,-25,-50,-121,-955,834,538
,697,2023-10-20 13:30:06.81,102,-125,-2087,35,-26,-54,-21,-1082,1061,551
,698,2023-10-20 13:30:06.82,120,-126,-2081,19,-18,-57,-20,-978,958,499
,699,2023-10-20 13:30:06.83,101,-128,-2054,6,-18,-63,102,-1080,1182,489
,700,2023-10-20 13:30:06.84,111,-148,-2045,-2,-14,-62,64,-973,1037,454
,701,2023-10-20 13:30:06.85,106,-147,-2037,-3,-14,-58,183,-1103,1286,460
,702,2023-10-20 13:30:06.86,115,-155,-2043,0,-3,-51,117,-1015,1132,449
,703,2023-10-20 13:30:06.87,115,-158,-2042,11,-15,-38,306,-1141,1447,417
,704,2023-10-20 13:30:06.88,110,-158,-2051,31,-18,-29,244,-1026,1270,391
,705,2023-10-20 13:30:06.89,103,-163,-2062,44,-28,-10,421,-1126,1547,352
,706,2023-10-20 13:30:06.90,106,-127,-2051,61,-44,9,288,-1019,1307,365
,707,2023-10-20 13:30:06.91,106,-115,-2045,56,-45,12,478,-1162,1640,342
,708,2023-10-20 13:30:06.92,108,-113,-2060,49,-40,9,274,-1153,1427,439
,709,2023-10-20 13:30:06.93,101,-113,-2061,37,-34,6,568,-1295,1863,363
,710,2023-10-20 13:30:06.94,110,-125,-2060,29,-29,0,420,-1276,1696,428
,711,2023-10-20 13:30:06.95,101,-124,-2078,17,-27,-5,725,-1366,2091,320
,712,2023-10-20 13:30:06.96,98,-134,-2071,11,-20,-9,556,-1253,1809,348
,713,2023-10-20 13:30:06.97,96,-146,-2073,11,-20,-12,830,-1304,2134,237
,714,2023-10-20 13:30:06.98,99,-158,-2080,17,-26,-11,648,-1244,1892,298
,715,2023-10-20 13:30:06.99,108,-147,-2073,22,-27,-9,967,-1356,2323,194
,716,2023-10-20 13:30:07.00,118,-137,-2053,12,-8,-6,838,-1328,2166,245
,717,2023-10-20 13:30:07.01,113,-161,-2050,2,10,0,1129,-1410,2539,140
,718,2023-10-20 13:30:07.02,109,-169,-2040,25,10,12,931,-1334,2265,201
,719,2023-10-20 13:30:07.03,129,-154,-2027,50,5,24,1169,-1386,2555,108
,720,2023-10-20 13:30:07.04,120,-147,-2027,53,13,33,1051,-1314,2365,131
,721,2023-10-20 13:30:07.05,114,-141,-2041,46,22,39,1312,-1395,2707,41
,722,2023-10-20 13:30:07.06,117,-139,-2026,46,17,49,1178,-1360,2538,91
,723,2023-10-20 13:30:07.07,113,-147,-2054,38,20,52,1378,-1430,2808,26
,724,2023-10-20 13:30:07.08,96,-148,-2044,33,16,54,1207,-1363,2570,78
,725,2023-10-20 13:30:07.09,111,-146,-2048,29,15,57,1414,-1423,2837,4
,726,2023-10-20 13:30:07.10,111,-151,-2040,30,11,58,1360,-1399,2759,19
,727,2023-10-20 13:30:07.11,111,-150,-2049,28,10,56,1587,-1482,3069,-52
,728,2023-10-20 13:30:07.12,124,-130,-2055,27,3,52,1568,-1491,3059,-38
,729,2023-10-20 13:30:07.13,116,-136,-2060,28,-1,46,1732,-1539,3271,-96
,730,2023-10-20 13:30:07.14,120,-129,-2065,19,3,38,1493,-1482,2975,-5
,731,2023-10-20 13:30:07.15,103,-139,-2068,13,1,29,1605,-1507,3112,-49
,732,2023-10-20 13:30:07.16,118,-135,-2057,12,-7,20,1574,-1497,3071,-38
,733,2023-10-20 13:30:07.17,130,-133,-2061,12,-6,12,1816,-1538,3354,-139
,734,2023-10-20 13:30:07.18,112,-146,-2063,9,-10,8,2047,-1502,3549,-272
,735,2023-10-20 13:30:07.19,112,-144,-2065,9,-12,5,2047,-1503,3550,-272
,736,2023-10-20 13:30:07.20,121,-154,-2064,8,-18,6,2047,-1408,3455,-319
,737,2023-10-20 13:30:07.21,113,-164,-2064,11,-14,7,2047,-1448,3495,-299
,738,2023-10-20 13:30:07.22,114,-153,-2058,11,-14,13,2047,-1455,3502,-296
,739,2023-10-20 13:30:07.23,103,-158,-2052,10,-13,21,2047,-1387,3434,-330
,740,2023-10-20 13:30:07.24,103,-178,-2052,16,-16,27,864,-1244,2108,190
,741,2023-10-20 13:30:07.25,113,-151,-2045,14,-11,32,-468,-1096,628,782
,742,2023-10-20 13:30:07.26,98,-159,-2036,13,-8,39,316,-1035,1351,359
,743,2023-10-20 13:30:07.27,104,-147,-2039,16,-12,45,1639,-892,2531,-373
,744,2023-10-20 13:30:07.28,94,-160,-2050,13,-15,46,2047,-867,2914,-590
,745,2023-10-20 13:30:07.29,100,-144,-2042,8,-12,49,2047,-721,2768,-663
,746,2023-10-20 13:30:07.30,105,-143,-2041,2,-16,48,2047,-711,2758,-668
,747,2023-10-20 13:30:07.31,93,-141,-2040,0,-18,48,2047,-551,2598,-748
,748,2023-10-20 13:30:07.32,82,-136,-2038,-4,-19,45,2047,-626,2673,-710
,749,2023-10-20 13:30:07.33,86,-134,-2053,-9,-19,40,2047,268,1779,-1157
,750,2023-10-20 13:30:07.34,85,-141,-2055,-19,-22,39,2047,1018,1029,-1532
,751,2023-10-20 13:30:07.35,70,-145,-2059,-26,-17,36,2047,1742,305,-1894
,752,2023-10-20 13:30:07.36,65,-150,-2065,-25,-19,37,2047,2017,30,-2032
,753,2023-10-20 13:30:07.37,71,-140,-2057,-25,-25,40,2047,1754,293,-1900
,754,2023-10-20 13:30:07.38,64,-145,-2069,-25,-19,43,2047,714,1333,-1380
,755,2023-10-20 13:30:07.39,62,-150,-2069,-28,-17,44,2047,977,1070,-1512
,756,2023-10-20 13:30:07.40,78,-139,-2051,-29,-13,42,2047,1926,121,-1986
,757,2023-10-20 13:30:07.41,71,-138,-2046,-29,-12,43,2047,2037,10,-2042
,758,2023-10-20 13:30:07.42,80,-131,-2064,-36,-7,42,2047,2047,0,-2047
,759,2023-10-20 13:30:07.43,76,-141,-2082,-38,-1,41,2047,2038,9,-2042
,760,2023-10-20 13:30:07.44,64,-121,-2065,-33,-3,40,2047,2037,10,-2042
,761,2023-10-20 13:30:07.45,85,-101,-2067,-39,2,30,2047,2020,27,-2033
,762,2023-10-20 13:30:07.46,81,-126,-2073,-40,6,31,2047,2032,15,-2039
,763,2023-10-20 13:30:07.47,95,-116,-2063,-40,7,28,2047,2031,16,-2039
,764,2023-10-20 13:30:07.48,99,-115,-2068,-34,12,27,2047,2019,28,-2033
,765,2023-10-20 13:30:07.49,99,-128,-2068,-28,17,30,2047,2030,17,-2038
,766,2023-10-20 13:30:07.50,91,-123,-2049,-16,12,36,2047,2029,18,-2038
,767,2023-10-20 13:30:07.51,96,-130,-2043,-2,15,42,2047,2025,22,-2036
,768,2023-10-20 13:30:07.52,111,-119,-2047,7,14,45,2047,2020,27,-2033
,769,2023-10-20 13:30:07.53,108,-118,-2035,16,21,54,2047,2008,39,-2027
,770,2023-10-20 13:30:07.54,105,-120,-2039,24,27,61,2047,2005,42,-2026
,771,2023-10-20 13:30:07.55,110,-117,-2045,31,29,66,2047,1969,78,-2008
,772,2023-10-20 13:30:07.56,100,-124,-2054,34,32,72,2047,1816,231,-1931
,773,2023-10-20 13:30:07.57,104,-126,-2039,34,27,79,2047,1809,238,-1928
,774,2023-10-20 13:30:07.58,98,-123,-2045,31,29,81,2047,1735,312,-1891
,775,2023-10-20 13:30:07.59,99,-122,-2040,32,22,80,2047,1794,253,-1920
,776,2023-10-20 13:30:07.60,99,-127,-2038,33,20,82,2047,1729,318,-1888
,777,2023-10-20 13:30:07.61,98,-124,-2044,34,21,80,2047,1818,229,-1932
,778,2023-10-20 13:30:07.62,94,-131,-2041,32,24,79,2047,1828,219,-1937
,779,2023-10-20 13:30:07.63,98,-133,-2042,33,30,78,2047,1831,216,-1939
,780,2023-10-20 13:30:07.64,104,-130,-2052,32,33,77,2047,1719,328,-1883
,781,2023-10-20 13:30:07.65,100,-132,-2056,25,40,77,2047,1592,455,-1819
,782,2023-10-20 13:30:07.66,101,-142,-2067,22,46,76,2047,1293,754,-1670
,783,2023-10-20 13:30:07.67,98,-150,-2068,16,51,75,2047,801,1246,-1424
,784,2023-10-20 13:30:07.68,109,-138,-2048,12,58,75,-1191,-157,-1034,674
,785,2023-10-20 13:30:07.69,111,-160,-2047,21,61,74,-1943,-687,-1256,1315
,786,2023-10-20 13:30:07.70,114,-162,-2052,33,64,74,-1419,-816,-603,1117
,787,2023-10-20 13:30:07.71,105,-143,-2047,43,62,75,-829,-802,-27,815
,788,2023-10-20 13:30:07.72,114,-137,-2046,39,61,74,-773,-865,92,819
,789,2023-10-20 13:30:07.73,123,-141,-2050,31,66,75,-954,-929,-25,941
,790,2023-10-20 13:30:07.74,117,-128,-2055,28,70,75,-1188,-971,-217,1079
,791,2023-10-20 13:30:07.75,115,-128,-2073,26,59,72,-1072,-773,-299,922
,792,2023-10-20 13:30:07.76,112,-121,-2076,14,49,70,-912,-676,-236,794
,793,2023-10-20 13:30:07.77,111,-128,-2085,-1,37,73,-800,-671,-129,735
,794,2023-10-20 13:30:07.78,116,-129,-2088,-12,26,76,-833,-728,-105,780
,795,2023-10-20 13:30:07.79,122,-115,-2100,-24,18,71,-843,-743,-100,793
,796,2023-10-20 13:30:07.80,128,-129,-2114,-29,9,72,-904,-756,-148,830
,797,2023-10-20 13:30:07.81,144,-138,-2103,-28,3,78,-897,-750,-147,823
,798,2023-10-20 13:30:07.82,138,-133,-2081,-25,1,80,-940,-776,-164,858
,799,2023-10-20 13:30:07.83,144,-158,-2074,-8,-1,87,-920,-782,-138,851
,800,2023-10-20 13:30:07.84,154,-168,-2053,25,-1,98,-968,-838,-130,903
,801,2023-10-20 13:30:07.85,163,-162,-2034,54,9,104,-952,-853,-99,902
,802,2023-10-20 13:30:07.86,158,-162,-2011,80,21,104,-911,-900,-11,905
,803,2023-10-20 13:30:07.87,153,-167,-2027,107,33,108,-796,-901,105,848
,804,2023-10-20 13:30:07.88,137,-191,-2039,131,39,112,-640,-944,304,792
,805,2023-10-20 13:30:07.89,154,-212,-2040,146,47,114,-428,-936,508,682
,806,2023-10-20 13:30:07.90,121,-188,-2025,152,59,118,-336,-985,649,660
,807,2023-10-20 13:30:07.91,108,-188,-2024,161,53,121,-192,-971,779,581
,808,2023-10-20 13:30:07.92,109,-182,-2021,156,55,125,-195,-1011,816,603
,809,2023-10-20 13:30:07.93,101,-193,-2024,144,50,132,-108,-984,876,546
,810,2023-10-20 13:30:07.94,117,-179,-2000,136,43,130,-106,-1035,929,570
,811,2023-10-20 13:30:07.95,114,-188,-2011,120,44,129,9,-1009,1018,500
,812,2023-10-20 13:30:07.96,115,-190,-2012,101,47,130,0,-1050,1050,525
,813,2023-10-20 13:30:07.97,116,-199,-2009,92,40,130,83,-1008,1091,462
,814,2023-10-20 13:30:07.98,123,-189,-2023,89,38,130,70,-1040,1110,485
,815,2023-10-20 13:30:07.99,137,-194,-2030,79,46,127,133,-996,1129,431
,816,2023-10-20 13:30:08.00,115,-181,-2040,65,61,118,100,-1044,1144,472
,817,2023-10-20 13:30:08.01,135,-164,-2060,55,58,105,168,-1003,1171,417
,818,2023-10-20 13:30:08.02,138,-170,-2062,36,56,96,165,-1050,1215,442
,819,2023-10-20 13:30:08.03,141,-175,-2074,11,62,90,251,-1003,1254,376
,820,2023-10-20 13:30:08.04,150,-180,-2079,0,68,82,280,-1078,1358,399
,821,2023-10-20 13:30:08.05,127,-183,-2087,-6,69,80,335,-1037,1372,351
,822,2023-10-20 13:30:08.06,130,-161,-2101,-3,55,75,342,-1087,1429,372
,823,2023-10-20 13:30:08.07,144,-152,-2121,-15,29,76,384,-1022,1406,319
,824,2023-10-20 13:30:08.08,133,-167,-2121,-28,25,76,418,-1084,1502,333
,825,2023-10-20 13:30:08.09,123,-149,-2131,-35,16,69,441,-1024,1465,291
,826,2023-10-20 13:30:08.10,124,-146,-2097,-41,-12,69,479,-1098,1577,309
,827,2023-10-20 13:30:08.11,100,-151,-2091,-44,-23,74,460,-1033,1493,286
,828,2023-10-20 13:30:08.12,125,-135,-2071,-52,-46,74,480,-1091,1571,305
,829,2023-10-20 13:30:08.13,109,-149,-2039,-60,-44,76,456,-1016,1472,280
,830,2023-10-20 13:30:08.14,112,-156,-2058,-62,-46,79,519,-1109,1628,295
,831,2023-10-20 13:30:08.15,122,-155,-2039,-59,-61,80,486,-1043,1529,278
,832,2023-10-20 13:30:08.16,126,-149,-2025,-52,-50,78,556,-1130,1686,287
,833,2023-10-20 13:30:08.17,115,-148,-2019,-49,-33,75,494,-1049,1543,277
,834,2023-10-20 13:30:08.18,115,-154,-2037,-41,-29,69,560,-1124,1684,282
,835,2023-10-20 13:30:08.19,121,-160,-2016,-31,-18,69,489,-1036,1525,273
,836,2023-10-20 13:30:08.20,135,-141,-2015,-27,4,62,569,-1108,1677,269
,837,2023-10-20 13:30:08.21,131,-147,-2040,-18,25,56,492,-1019,1511,263
,838,2023-10-20 13:30:08.22,130,-154,-2046,3,37,46,601,-1103,1704,251
,839,2023-10-20 13:30:08.23,140,-150,-2036,12,44,39,510,-1017,1527,253
,840,2023-10-20 13:30:08.24,129,-163,-2040,14,59,34,604,-1098,1702,247
,841,2023-10-20 13:30:08.25,144,-169,-2032,27,65,32,506,-1012,1518,253
,842,2023-10-20 13:30:08.26,134,-168,-2020,33,75,32,655,-1118,1773,231
,843,2023-10-20 13:30:08.27,151,-158,-2030,35,79,33,570,-1031,1601,230
,844,2023-10-20 13:30:08.28,165,-170,-2040,30,81,36,739,-1124,1863,192
,845,2023-10-20 13:30:08.29,166,-165,-2038,28,88,37,619,-1023,1642,202
,846,2023-10-20 13:30:08.30,168,-173,-2050,25,90,41,780,-1114,1894,167
,847,2023-10-20 13:30:08.31,157,-166,-2040,27,82,47,672,-1012,1684,170
,848,2023-10-20 13:30:08.32,166,-161,-2050,22,77,45,861,-1122,1983,130
,849,2023-10-20 13:30:08.33,154,-162,-2050,9,65,48,715,-1025,1740,155
,850,2023-10-20 13:30:08.34,157,-149,-2062,8,51,48,901,-1119,2020,109
,851,2023-10-20 13:30:08.35,164,-123,-2054,-1,38,42,731,-1013,1744,141
,852,2023-10-20 13:30:08.36,161,-125,-2063,-22,34,37,917,-1107,2024,95
,853,2023-10-20 13:30:08.37,172,-131,-2057,-40,24,26,733,-1007,1740,137
,854,2023-10-20 13:30:08.38,177,-135,-2060,-49,19,16,931,-1120,2051,94
,855,2023-10-20 13:30:08.39,165,-144,-2077,-46,5,9,750,-1020,1770,135
,856,2023-10-20 13:30:08.40,172,-140,-2083,-50,-2,0,960,-1117,2077,78
,857,2023-10-20 13:30:08.41,168,-131,-2080,-52,-8,-8,730,-1018,1748,144
,858,2023-10-20 13:30:08.42,167,-134,-2064,-58,-14,-15,933,-1156,2089,111
,859,2023-10-20 13:30:08.43,150,-125,-2084,-59,-24,-18,777,-1109,1886,166
,860,2023-10-20 13:30:08.44,161,-137,-2073,-59,-36,-17,1073,-1247,2320,87
,861,2023-10-20 13:30:08.45,141,-126,-2073,-58,-42,-19,1100,-1276,2376,88
,862,2023-10-20 13:30:08.46,144,-127,-2065,-66,-39,-15,1410,-1433,2843,11
,863,2023-10-20 13:30:08.47,137,-130,-2054,-71,-50,-9,1669,-1552,3221,-58
,864,2023-10-20 13:30:08.48,141,-116,-2059,-74,-55,-3,2047,-1708,3755,-169
,865,2023-10-20 13:30:08.49,114,-128,-2059,-78,-57,8,2047,-1881,3928,-83
,866,2023-10-20 13:30:08.50,129,-125,-2063,-79,-65,21,2047,-1984,4031,-31
,867,2023-10-20 13:30:08.51,115,-120,-2064,-82,-62,35,2047,-2022,4069,-12
,868,2023-10-20 13:30:08.52,123,-120,-2062,-79,-68,45,2047,-2018,4065,-14
,869,2023-10-20 13:30:08.53,118,-133,-2072,-79,-64,61,2047,-1976,4023,-35
,870,2023-10-20 13:30:08.54,107,-119,-2055,-80,-71,74,2047,-1484,3531,-281
,871,2023-10-20 13:30:08.55,98,-114,-2066,-75,-59,79,2047,-872,2919,-587
,872,2023-10-20 13:30:08.56,106,-111,-2052,-63,-63,89,2047,189,1858,-1118
,873,2023-10-20 13:30:08.57,113,-92,-2048,-63,-49,90,2047,1062,985,-1554
,874,2023-10-20 13:30:08.58,121,-82,-2029,-58,-33,89,2047,1735,312,-1891
,875,2023-10-20 13:30:08.59,95,-102,-2042,-38,-19,86,2047,1966,81,-2006
,876,2023-10-20 13:30:08.60,110,-84,-2029,-23,-17,78,2047,1981,66,-2014
,877,2023-10-20 13:30:08.61,113,-75,-2039,-11,-8,73,2047,2003,44,-2025
,878,2023-10-20 13:30:08.62,105,-69,-2044,-8,11,62,2047,2011,36,-2029
,879,2023-10-20 13:30:08.63,100,-59,-2044,-12,19,49,2047,2022,25,-2034
,880,2023-10-20 13:30:08.64,125,-53,-2040,-10,34,40,2047,2026,21,-2036
,881,2023-10-20 13:30:08.65,130,-53,-2044,-6,37,29,2047,2039,8,-2043
,882,2023-10-20 13:30:08.66,133,-68,-2033,-6,48,16,2047,2024,23,-2035
,883,2023-10-20 13:30:08.67,133,-60,-2019,-2,57,4,2047,2028,19,-2037
,884,2023-10-20 13:30:08.68,137,-82,-2058,-5,75,-7,2047,2034,13,-2040
,885,2023-10-20 13:30:08.69,143,-107,-2068,12,78,-12,2047,2034,13,-2040
,886,2023-10-20 13:30:08.70,152,-96,-2060,42,75,-12,2047,2037,10,-2042
,887,2023-10-20 13:30:08.71,147,-93,-2074,51,70,-14,2047,2010,37,-2028
,888,2023-10-20 13:30:08.72,146,-124,-2086,56,63,-18,2047,2015,32,-2031
,889,2023-10-20 13:30:08.73,143,-129,-2070,77,52,-11,2047,1899,148,-1973
,890,2023-10-20 13:30:08.74,164,-121,-2086,89,31,-6,2047,1845,202,-1946
,891,2023-10-20 13:30:08.75,164,-133,-2074,87,31,-2,2047,1542,505,-1794
,892,2023-10-20 13:30:08.76,158,-116,-2055,85,35,-3,2047,1508,539,-1777
,893,2023-10-20 13:30:08.77,167,-129,-2054,73,40,-2,2047,1222,825,-1634
,894,2023-10-20 13:30:08.78,165,-140,-2066,69,41,3,2047,1163,884,-1605
,895,2023-10-20 13:30:08.79,171,-147,-2059,70,33,12,2047,867,1180,-1457
,896,2023-10-20 13:30:08.80,174,-143,-2048,69,40,16,2047,790,1257,-1418
,897,2023-10-20 13:30:08.81,163,-142,-2059,62,47,14,2047,509,1538,-1278
,898,2023-10-20 13:30:08.82,169,-140,-2076,63,41,16,2047,448,1599,-1247
,899,2023-10-20 13:30:08.83,165,-132,-2054,63,33,19,2047,174,1873,-1110
,900,2023-10-20 13:30:08.84,178,-144,-2055,62,38,20,930,116,814,-523
,901,2023-10-20 13:30:08.85,153,-150,-2073,64,36,15,-1068,-207,-861,637
,902,2023-10-20 13:30:08.86,163,-149,-2048,66,22,15,-420,-314,-106,367
,903,2023-10-20 13:30:08.87,158,-167,-2040,72,19,20,191,-613,804,211
,904,2023-10-20 13:30:08.88,162,-160,-2027,71,14,21,388,-711,1099,161
,905,2023-10-20 13:30:08.89,157,-164,-2034,75,13,19,-175,-879,704,527
,906,2023-10-20 13:30:08.90,168,-167,-2037,81,-3,22,-370,-851,481,610
,907,2023-10-20 13:30:08.91,166,-163,-2046,81,-1,23,-638,-928,290,783
,908,2023-10-20 13:30:08.92,162,-161,-2044,69,9,21,-659,-945,286,802
,909,2023-10-20 13:30:08.93,168,-138,-2036,58,9,18,-779,-990,211,884
,910,2023-10-20 13:30:08.94,176,-142,-2038,49,14,15,-856,-1036,180,946
,911,2023-10-20 13:30:08.95,170,-156,-2057,41,27,10,-924,-1028,104,976
,912,2023-10-20 13:30:08.96,155,-161,-2063,38,28,7,-1011,-1067,56,1039
,913,2023-10-20 13:30:08.97,158,-159,-2072,38,21,6,-1036,-1048,12,1042
,914,2023-10-20 13:30:08.98,155,-163,-2068,34,12,8,-1136,-1116,-20,1126
,915,2023-10-20 13:30:08.99,147,-170,-2067,33,10,8,-1152,-1107,-45,1129
,916,2023-10-20 13:30:09.00,153,-149,-2066,32,6,6,-1143,-1053,-90,1098
,917,2023-10-20 13:30:09.01,172,-152,-2056,27,2,-1,-1043,-935,-108,989
,918,2023-10-20 13:30:09.02,146,-143,-2050,22,3,-2,-1008,-861,-147,934
,919,2023-10-20 13:30:09.03,153,-143,-2060,20,5,-6,-904,-749,-155,826
,920,2023-10-20 13:30:09.04,157,-152,-2063,11,3,-9,-948,-733,-215,840
,921,2023-10-20 13:30:09.05,152,-162,-2066,6,5,-9,-897,-664,-233,780
,922,2023-10-20 13:30:09.06,150,-144,-2063,2,10,-13,-968,-659,-309,813
,923,2023-10-20 13:30:09.07,168,-137,-2063,-6,17,-19,-905,-614,-291,759
,924,2023-10-20 13:30:09.08,154,-149,-2056,-11,17,-24,-946,-643,-303,794
,925,2023-10-20 13:30:09.09,156,-157,-2054,-2,15,-21,-876,-636,-240,756
,926,2023-10-20 13:30:09.10,153,-139,-2047,5,12,-23,-923,-718,-205,820
,927,2023-10-20 13:30:09.11,162,-155,-2043,6,14,-28,-875,-711,-164,793
,928,2023-10-20 13:30:09.12,167,-153,-2064,7,18,-30,-937,-790,-147,863
,929,2023-10-20 13:30:09.13,159,-184,-2066,17,12,-20,-894,-760,-134,827
,930,2023-10-20 13:30:09.14,171,-173,-2063,35,5,-9,-948,-822,-126,885
,931,2023-10-20 13:30:09.15,163,-169,-2042,42,3,-5,-912,-793,-119,852
,932,2023-10-20 13:30:09.16,173,-175,-2034,39,2,7,-971,-859,-112,915
,933,2023-10-20 13:30:09.17,165,-195,-2046,46,2,18,-940,-839,-101,889
,934,2023-10-20 13:30:09.18,167,-188,-2040,53,-5,28,-993,-903,-90,948
,935,2023-10-20 13:30:09.19,169,-169,-2035,49,-1,35,-937,-878,-59,907
,936,2023-10-20 13:30:09.20,163,-165,-2026,39,1,42,-933,-934,1,933
,937,2023-10-20 13:30:09.21,159,-158,-2033,38,2,43,-826,-910,84,868
,938,2023-10-20 13:30:09.22,154,-161,-2038,35,0,38,-739,-962,223,850
,939,2023-10-20 13:30:09.23,143,-156,-2045,31,-5,36,-632,-942,310,787
,940,2023-10-20 13:30:09.24,142,-157,-2041,27,-7,35,-501,-990,489,745
,941,2023-10-20 13:30:09.25,139,-164,-2046,23,-9,29,-447,-964,517,705
,942,2023-10-20 13:30:09.26,152,-164,-2053,17,-10,29,-332,-1000,668,666
,943,2023-10-20 13:30:09.27,135,-157,-2050,17,-9,28,-288,-986,698,637
,944,2023-10-20 13:30:09.28,133,-147,-2049,13,-4,20,-132,-1025,893,578
,945,2023-10-20 13:30:09.29,144,-147,-2052,7,-1,15,-123,-1004,881,563
,946,2023-10-20 13:30:09.30,150,-154,-2049,2,6,7,32,-1027,1059,497
,947,2023-10-20 13:30:09.31,148,-149,-2057,1,14,-1,9,-1011,1020,501
,948,2023-10-20 13:30:09.32,146,-149,-2058,1,18,0,158,-1031,1189,436
,949,2023-10-20 13:30:09.33,151,-154,-2050,-2,20,-4,106,-1018,1124,456
,950,2023-10-20 13:30:09.34,149,-156,-2057,-1,16,-4,250,-1032,1282,391
,951,2023-10-20 13:30:09.35,157,-153,-2068,-1,20,-4,180,-1029,1209,424
,952,2023-10-20 13:30:09.36,163,-152,-2063,-2,17,0,326,-1047,1373,360
,953,2023-10-20 13:30:09.37,169,-154,-2061,-3,13,0,270,-1040,1310,385
,954,2023-10-20 13:30:09.38,158,-152,-2054,2,9,3,413,-1044,1457,315
,955,2023-10-20 13:30:09.39,160,-147,-2054,3,8,6,332,-1046,1378,357
,956,2023-10-20 13:30:09.40,155,-144,-2054,8,5,3,457,-1051,1508,297
,957,2023-10-20 13:30:09.41,162,-153,-2048,11,3,3,416,-1057,1473,320
,958,2023-10-20 13:30:09.42,173,-141,-2053,16,0,1,536,-1053,1589,258
,959,2023-10-20 13:30:09.43,172,-140,-2056,22,2,1,461,-1050,1511,294
,960,2023-10-20 13:30:09.44,168,-146,-2052,24,0,-2,548,-1037,1585,244
,961,2023-10-20 13:30:09.45,156,-146,-2052,28,-3,0,486,-1055,1541,284
,962,2023-10-20 13:30:09.46,161,-159,-2054,31,-5,1,565,-1048,1613,241
,963,2023-10-20 13:30:09.47,158,-157,-2061,35,-9,2,501,-1062,1563,280
,964,2023-10-20 13:30:09.48,152,-164,-2064,36,-14,5,572,-1043,1615,235
,965,2023-10-20 13:30:09.49,156,-163,-2061,39,-20,11,527,-1066,1593,269
,966,2023-10-20 13:30:09.50,157,-162,-2061,40,-24,17,583,-1046,1629,231
,967,2023-10-20 13:30:09.51,151,-162,-2060,38,-24,19,537,-1065,1602,264
,968,2023-10-20 13:30:09.52,151,-166,-2061,39,-28,22,575,-1037,1612,231
,969,2023-10-20 13:30:09.53,146,-169,-2056,42,-27,26,544,-1076,1620,266
,970,2023-10-20 13:30:09.54,151,-174,-2044,43,-23,30,578,-1050,1628,236
,971,2023-10-20 13:30:09.55,145,-170,-2047,47,-23,31,562,-1081,1643,259
,972,2023-10-20 13:30:09.56,144,-174,-2036,49,-23,31,581,-1043,1624,231
,973,2023-10-20 13:30:09.57,138,-167,-2033,47,-19,30,578,-1079,1657,250
,974,2023-10-20 13:30:09.58,156,-156,-2034,41,-11,26,588,-1042,1630,227
,975,2023-10-20 13:30:09.59,148,-171,-2050,39,-11,20,602,-1076,1678,237
,976,2023-10-20 13:30:09.60,136,-181,-2040,40,-13,19,590,-1033,1623,221
,977,2023-10-20 13:30:09.61,146,-176,-2035,34,-7,16,604,-1080,1684,238
,978,2023-10-20 13:30:09.62,144,-172,-2045,32,-10,15,587,-1040,1627,226
,979,2023-10-20 13:30:09.63,148,-164,-2053,32,-13,8,614,-1092,1706,239
,980,2023-10-20 13:30:09.64,150,-153,-2043,38,-14,-4,586,-1041,1627,227
,981,2023-10-20 13:30:09.65,146,-146,-2055,39,-12,-23,627,-1090,1717,231
,982,2023-10-20 13:30:09.66,148,-162,-2065,38,-8,-38,598,-1035,1633,218
,983,2023-10-20 13:30:09.67,143,-167,-2067,41,-1,-48,651,-1091,1742,220
,984,2023-10-20 13:30:09.68,138,-182,-2072,41,-5,-52,592,-1035,1627,221
,985,2023-10-20 13:30:09.69,131,-200,-2051,41,-7,-49,651,-1099,1750,224
,986,2023-10-20 13:30:09.70,133,-196,-2046,37,-9,-37,590,-1038,1628,224
,987,2023-10-20 13:30:09.71,134,-195,-2039,31,-8,-29,664,-1095,1759,215
,988,2023-10-20 13:30:09.72,119,-205,-2039,29,-8,-18,593,-1025,1618,216
,989,2023-10-20 13:30:09.73,146,-186,-2039,23,-9,-7,676,-1092,1768,208
,990,2023-10-20 13:30:09.74,142,-190,-2041,10,-3,4,598,-1028,1626,215
,991,2023-10-20 13:30:09.75,139,-186,-2040,-1,7,13,697,-1102,1799,202
,992,2023-10-20 13:30:09.76,138,-186,-2039,-6,10,19,599,-1030,1629,215
,993,2023-10-20 13:30:09.77,142,-177,-2045,-10,11,25,686,-1103,1789,208
,994,2023-10-20 13:30:09.78,147,-178,-2054,-14,13,28,579,-1026,1605,223
,995,2023-10-20 13:30:09.79,143,-175,-2048,-12,17,28,685,-1099,1784,207
,996,2023-10-20 13:30:09.80,148,-170,-2051,-13,13,30,595,-1020,1615,212
,997,2023-10-20 13:30:09.81,152,-176,-2049,-6,14,31,732,-1103,1835,185
,998,2023-10-20 13:30:09.82,149,-173,-2055,-2,13,28,613,-1023,1636,205
,999,2023-10-20 13:30:09.83,153,-172,-2059,1,12,28,746,-1107,1853,180
,1000,2023-10-20 13:30:09.84,154,-169,-2058,4,11,28,621,-1021,1642,200
,1001,2023-10-20 13:30:09.85,147,-162,-2056,7,12,24,773,-1104,1877,165
,1002,2023-10-20 13:30:09.86,146,-169,-2048,6,9,23,643,-1019,1662,188
,1003,2023-10-20 13:30:09.87,150,-164,-2050,5,7,20,791,-1112,1903,160
,1004,2023-10-20 13:30:09.88,153,-163,-2052,4,5,15,607,-1024,1631,208
,1005,2023-10-20 13:30:09.89,137,-164,-2045,4,4,14,739,-1120,1859,190
,1006,2023-10-20 13:30:09.90,145,-158,-2046,2,4,10,593,-1024,1617,215
,1007,2023-10-20 13:30:09.91,156,-159,-2049,0,6,1,770,-1110,1880,170
,1008,2023-10-20 13:30:09.92,161,-159,-2052,-5,13,-1,610,-1011,1621,200
,1009,2023-10-20 13:30:09.93,159,-166,-2048,-9,12,-5,778,-1105,1883,163
,1010,2023-10-20 13:30:09.94,159,-186,-2061,-9,15,-2,601,-1011,1612,205
,1011,2023-10-20 13:30:09.95,158,-177,-2060,-7,17,2,780,-1113,1893,166
,1012,2023-10-20 13:30:09.96,154,-182,-2057,-8,20,7,609,-1015,1624,203
,1013,2023-10-20 13:30:09.97,163,-181,-2066,-2,14,15,788,-1115,1903,163
,1014,2023-10-20 13:30:09.98,157,-181,-2066,7,11,22,577,-1009,1586,216
,1015,2023-10-20 13:30:09.99,175,-173,-2058,16,8,25,738,-1104,1842,183
,1016,2023-10-20 13:30:10.00,156,-172,-2061,17,3,31,536,-997,1533,230
,1017,2023-10-20 13:30:10.01,159,-173,-2058,19,-2,37,721,-1105,1826,192
,1018,2023-10-20 13:30:10.02,164,-163,-2064,20,-7,37,547,-1006,1553,229
,1019,2023-10-20 13:30:10.03,143,-167,-2066,20,-9,42,748,-1123,1871,187
,1020,2023-10-20 13:30:10.04,147,-153,-2050,14,-15,39,545,-1017,1562,236
,1021,2023-10-20 13:30:10.05,152,-157,-2052,9,-16,37,740,-1125,1865,192
,1022,2023-10-20 13:30:10.06,152,-158,-2055,5,-18,35,533,-1009,1542,238
,1023,2023-10-20 13:30:10.07,131,-157,-2050,1,-18,31,737,-1115,1852,189
,1024,2023-10-20 13:30:10.08,135,-161,-2054,0,-17,27,544,-1005,1549,230
,1025,2023-10-20 13:30:10.09,139,-158,-2053,-1,-19,24,766,-1117,1883,175
,1026,2023-10-20 13:30:10.10,133,-162,-2046,-1,-15,22,576,-1005,1581,214
,1027,2023-10-20 13:30:10.11,139,-157,-2058,-2,-16,21,801,-1122,1923,160
,1028,2023-10-20 13:30:10.12,125,-155,-2059,-1,-19,23,571,-1006,1577,217
,1029,2023-10-20 13:30:10.13,126,-155,-2057,-2,-21,25,785,-1110,1895,162
,1030,2023-10-20 13:30:10.14,129,-141,-2052,-4,-15,24,570,-996,1566,213
,1031,2023-10-20 13:30:10.15,126,-144,-2050,-3,-16,22,805,-1118,1923,156
,1032,2023-10-20 13:30:10.16,133,-135,-2068,-4,-14,18,590,-1008,1598,209
,1033,2023-10-20 13:30:10.17,126,-131,-2051,-5,-11,13,826,-1126,1952,150
,1034,2023-10-20 13:30:10.18,134,-143,-2058,-7,-7,8,611,-1009,1620,199
,1035,2023-10-20 13:30:10.19,129,-145,-2053,-3,-4,2,846,-1120,1966,137
,1036,2023-10-20 13:30:10.20,139,-150,-2047,1,1,1,605,-1003,1608,199
,1037,2023-10-20 13:30:10.21,145,-151,-2046,7,5,0,838,-1119,1957,140
,1038,2023-10-20 13:30:10.22,132,-156,-2049,16,12,-1,605,-1005,1610,200
,1039,2023-10-20 13:30:10.23,144,-149,-2055,25,11,-3,832,-1127,1959,147
,1040,2023-10-20 13:30:10.24,154,-147,-2048,33,17,-4,563,-1011,1574,224
,1041,2023-10-20 13:30:10.25,142,-154,-2051,35,20,0,784,-1123,1907,169
,1042,2023-10-20 13:30:10.26,149,-148,-2049,36,15,-3,548,-1008,1556,230
,1043,2023-10-20 13:30:10.27,152,-152,-2048,36,17,-3,786,-1126,1912,170
,1044,2023-10-20 13:30:10.28,134,-160,-2055,33,15,-3,533,-1012,1545,239
,1045,2023-10-20 13:30:10.29,142,-168,-2049,28,15,-3,749,-1131,1880,191
,1046,2023-10-20 13:30:10.30,140,-163,-2047,26,18,-1,497,-1011,1508,257
,1047,2023-10-20 13:30:10.31,152,-155,-2044,25,22,-4,712,-1125,1837,206
,1048,2023-10-20 13:30:10.32,148,-165,-2043,23,21,-3,482,-1005,1487,261
,1049,2023-10-20 13:30:10.33,148,-172,-2043,22,21,-2,712,-1116,1828,202
,1050,2023-10-20 13:30:10.34,151,-162,-2052,20,16,-3,489,-1001,1490,256
,1051,2023-10-20 13:30:10.35,162,-169,-2064,23,7,-5,743,-1113,1856,185
,1052,2023-10-20 13:30:10.36,156,-163,-2063,27,6,-3,518,-1000,1518,241
,1053,2023-10-20 13:30:10.37,149,-159,-2046,28,-3,-2,764,-1111,1875,173
,1054,2023-10-20 13:30:10.38,155,-168,-2057,27,-4,-1,546,-1000,1546,227
,1055,2023-10-20 13:30:10.39,142,-163,-2064,26,-1,1,793,-1107,1900,157
,1056,2023-10-20 13:30:10.40,152,-168,-2059,25,-1,3,559,-1002,1561,221
,1057,2023-10-20 13:30:10.41,139,-170,-2062,25,-9,4,803,-1118,1921,157
,1058,2023-10-20 13:30:10.42,135,-169,-2055,23,-8,9,568,-1010,1578,221
,1059,2023-10-20 13:30:10.43,144,-169,-2053,21,-8,9,807,-1108,1915,150
,1060,2023-10-20 13:30:10.44,132,-165,-2045,21,-7,8,557,-996,1553,219
,1061,2023-10-20 13:30:10.45,132,-147,-2047,19,-7,4,796,-1098,1894,151
,1062,2023-10-20 13:30:10.46,147,-156,-2044,11,-1,-2,550,-1004,1554,227
,1063,2023-10-20 13:30:10.47,138,-162,-2061,10,0,-8,756,-1110,1866,177
,1064,2023-10-20 13:30:10.48,135,-159,-2056,12,3,-14,502,-1022,1524,260
,1065,2023-10-20 13:30:10.49,137,-161,-2051,9,2,-14,781,-1136,1917,177
,1066,2023-10-20 13:30:10.50,145,-171,-2048,9,6,-13,746,-1041,1787,147
,1067,2023-10-20 13:30:10.51,144,-173,-2055,13,3,-6,1030,-1138,2168,54
,1068,2023-10-20 13:30:10.52,144,-179,-2053,13,5,1,898,-1031,1929,66
,1069,2023-10-20 13:30:10.53,139,-180,-2054,17,4,7,1079,-1118,2197,19
,1070,2023-10-20 13:30:10.54,146,-173,-2051,21,10,15,943,-1016,1959,36
,1071,2023-10-20 13:30:10.55,138,-182,-2048,22,16,20,1109,-1102,2211,-3
,1072,2023-10-20 13:30:10.56,145,-175,-2051,25,18,23,949,-1015,1964,33
,1073,2023-10-20 13:30:10.57,149,-177,-2046,27,22,28,1096,-1110,2206,7
,1074,2023-10-20 13:30:10.58,157,-178,-2046,31,27,29,965,-1022,1987,28
,1075,2023-10-20 13:30:10.59,157,-182,-2046,34,25,28,1106,-1105,2211,0
,1076,2023-10-20 13:30:10.60,152,-181,-2053,39,27,35,949,-1014,1963,32
,1077,2023-10-20 13:30:10.61,163,-180,-2051,39,25,34,1079,-1086,2165,3
,1078,2023-10-20 13:30:10.62,162,-182,-2054,43,23,34,920,-1002,1922,41
,1079,2023-10-20 13:30:10.63,151,-197,-2058,48,15,31,1049,-1077,2126,14
,1080,2023-10-20 13:30:10.64,164,-195,-2050,50,15,33,904,-1001,1905,48
,1081,2023-10-20 13:30:10.65,149,-192,-2043,47,12,30,1037,-1077,2114,20
,1082,2023-10-20 13:30:10.66,158,-192,-2052,46,9,29,942,-1008,1950,33
,1083,2023-10-20 13:30:10.67,159,-190,-2042,39,9,28,1073,-1081,2154,4
,1084,2023-10-20 13:30:10.68,146,-189,-2045,34,9,26,958,-1015,1973,28
,1085,2023-10-20 13:30:10.69,144,-198,-2040,28,11,28,1058,-1079,2137,10
,1086,2023-10-20 13:30:10.70,151,-197,-2043,21,15,28,945,-1019,1964,37
,1087,2023-10-20 13:30:10.71,158,-206,-2047,15,13,29,1056,-1079,2135,11
,1088,2023-10-20 13:30:10.72,158,-199,-2043,10,14,29,988,-1006,1994,9
,1089,2023-10-20 13:30:10.73,170,-182,-2048,7,17,24,1072,-1048,2120,-12
,1090,2023-10-20 13:30:10.74,146,-182,-2052,1,18,22,976,-1006,1982,15
,1091,2023-10-20 13:30:10.75,156,-181,-2051,-4,16,20,1051,-1070,2121,9
,1092,2023-10-20 13:30:10.76,160,-184,-2065,-7,12,17,997,-1028,2025,15
,1093,2023-10-20 13:30:10.77,158,-197,-2057,-8,11,16,1067,-1066,2133,0
,1094,2023-10-20 13:30:10.78,150,-191,-2054,-11,8,17,1010,-1020,2030,5
,1095,2023-10-20 13:30:10.79,154,-183,-2050,-14,9,18,1050,-1062,2112,6
,1096,2023-10-20 13:30:10.80,154,-178,-2049,-12,9,19,978,-1016,1994,19
,1097,2023-10-20 13:30:10.81,155,-168,-2058,-7,6,19,1020,-1048,2068,14
,1098,2023-10-20 13:30:10.82,154,-182,-2053,-5,8,22,975,-1025,2000,25
,1099,2023-10-20 13:30:10.83,155,-172,-2054,-6,10,21,1026,-1069,2095,21
,1100,2023-10-20 13:30:10.84,163,-173,-2053,-4,11,20,1037,-1040,2077,1
,1101,2023-10-20 13:30:10.85,169,-175,-2050,-3,10,22,1052,-1062,2114,5
,1102,2023-10-20 13:30:10.86,166,-173,-2051,-1,9,22,1009,-1030,2039,10
,1103,2023-10-20 13:30:10.87,157,-174,-2064,2,7,24,1014,-1048,2062,17
,1104,2023-10-20 13:30:10.88,154,-170,-2054,5,5,25,1002,-1024,2026,11
,1105,2023-10-20 13:30:10.89,167,-173,-2046,3,0,24,1006,-1040,2046,17
,1106,2023-10-20 13:30:10.90,159,-173,-2050,3,-1,25,1005,-1023,2028,9
,1107,2023-10-20 13:30:10.91,159,-164,-2052,2,-6,21,1000,-1038,2038,19
,1108,2023-10-20 13:30:10.92,153,-160,-2048,3,-7,18,984,-1023,2007,19
,1109,2023-10-20 13:30:10.93,161,-172,-2055,2,-10,17,981,-1031,2012,25
,1110,2023-10-20 13:30:10.94,158,-171,-2048,-2,-12,17,1025,-1039,2064,7
,1111,2023-10-20 13:30:10.95,157,-167,-2045,-3,-10,18,1012,-1053,2065,20
,1112,2023-10-20 13:30:10.96,149,-170,-2053,-5,-8,17,1048,-1055,2103,3
,1113,2023-10-20 13:30:10.97,154,-171,-2045,-7,-6,18,1005,-1048,2053,21
,1114,2023-10-20 13:30:10.98,151,-164,-2045,-9,-3,17,1044,-1046,2090,1
,1115,2023-10-20 13:30:10.99,139,-171,-2051,-10,-1,23,994,-1036,2030,21
,1116,2023-10-20 13:30:11.00,156,-172,-2053,-7,2,25,1042,-1048,2090,3
,1117,2023-10-20 13:30:11.01,152,-171,-2051,-6,3,28,987,-1037,2024,25
,1118,2023-10-20 13:30:11.02,160,-165,-2046,-5,6,30,1028,-1041,2069,6
,1119,2023-10-20 13:30:11.03,153,-165,-2047,-4,4,31,962,-1017,1979,27
,1120,2023-10-20 13:30:11.04,160,-164,-2050,-2,4,30,1008,-1029,2037,10
,1121,2023-10-20 13:30:11.05,162,-159,-2049,2,4,29,952,-1010,1962,29
,1122,2023-10-20 13:30:11.06,150,-152,-2059,-2,1,28,1040,-1045,2085,2
,1123,2023-10-20 13:30:11.07,162,-152,-2065,3,0,26,978,-1026,2004,24
,1124,2023-10-20 13:30:11.08,145,-169,-2060,5,-4,24,1091,-1055,2146,-18
,1125,2023-10-20 13:30:11.09,154,-160,-2053,8,-8,27,983,-1021,2004,19
,1126,2023-10-20 13:30:11.10,137,-166,-2050,7,-5,24,1058,-1052,2110,-3
,1127,2023-10-20 13:30:11.11,145,-165,-2055,7,-6,22,941,-1022,1963,40
,1128,2023-10-20 13:30:11.12,146,-153,-2053,6,-8,20,1076,-1052,2128,-12
,1129,2023-10-20 13:30:11.13,143,-165,-2049,3,-6,18,965,-1010,1975,22
,1130,2023-10-20 13:30:11.14,145,-165,-2054,0,-5,19,1082,-1058,2140,-12
,1131,2023-10-20 13:30:11.15,147,-164,-2052,-3,-2,21,954,-1019,1973,32
,1132,2023-10-20 13:30:11.16,144,-161,-2051,-3,0,21,1081,-1074,2155,-3
,1133,2023-10-20 13:30:11.17,146,-162,-2053,-5,3,21,962,-1029,1991,33
,1134,2023-10-20 13:30:11.18,148,-163,-2058,-1,0,23,1116,-1076,2192,-20
,1135,2023-10-20 13:30:11.19,136,-173,-2052,0,-1,25,974,-1017,1991,21
,1136,2023-10-20 13:30:11.20,144,-166,-2056,2,-7,24,1116,-1074,2190,-21
,1137,2023-10-20 13:30:11.21,157,-170,-2056,11,-9,22,970,-1018,1988,24
,1138,2023-10-20 13:30:11.22,149,-171,-2047,18,-2,18,1128,-1072,2200,-28
,1139,2023-10-20 13:30:11.23,158,-157,-2052,22,-3,14,959,-1006,1965,23
,1140,2023-10-20 13:30:11.24,151,-166,-2063,23,2,8,1097,-1076,2173,-10
,1141,2023-10-20 13:30:11.25,151,-168,-2067,23,4,7,931,-1013,1944,41
,1142,2023-10-20 13:30:11.26,145,-174,-2064,22,3,7,1077,-1068,2145,-4
,1143,2023-10-20 13:30:11.27,130,-166,-2069,18,-3,9,928,-992,1920,32
,1144,2023-10-20 13:30:11.28,124,-171,-2055,14,-5,15,1120,-1066,2186,-27
,1145,2023-10-20 13:30:11.29,148,-169,-2054,8,-8,16,937,-998,1935,30
,1146,2023-10-20 13:30:11.30,138,-167,-2046,8,-12,19,1086,-1086,2172,0
,1147,2023-10-20 13:30:11.31,144,-162,-2037,3,-12,21,928,-1015,1943,43
,1148,2023-10-20 13:30:11.32,138,-160,-2033,-3,-7,23,1143,-1095,2238,-24
,1149,2023-10-20 13:30:11.33,137,-162,-2042,-3,-5,20,958,-1012,1970,27
,1150,2023-10-20 13:30:11.34,133,-169,-2036,0,-6,22,1141,-1091,2232,-25
,1151,2023-10-20 13:30:11.35,134,-168,-2046,2,-4,26,931,-1003,1934,36
,1152,2023-10-20 13:30:11.36,133,-172,-2042,4,-1,28,1121,-1096,2217,-12
,1153,2023-10-20 13:30:11.37,141,-148,-2039,10,1,27,930,-1008,1938,39
,1154,2023-10-20 13:30:11.38,144,-158,-2045,12,5,22,1139,-1085,2224,-27
,1155,2023-10-20 13:30:11.39,137,-150,-2049,15,6,19,924,-986,1910,31
,1156,2023-10-20 13:30:11.40,128,-149,-2052,11,11,13,1112,-1095,2207,-8
,1157,2023-10-20 13:30:11.41,134,-150,-2054,10,14,11,916,-1007,1923,45
,1158,2023-10-20 13:30:11.42,133,-157,-2056,11,15,5,1143,-1105,2248,-19
,1159,2023-10-20 13:30:11.43,136,-152,-2062,10,14,1,924,-1000,1924,38
,1160,2023-10-20 13:30:11.44,136,-161,-2057,10,13,-1,1123,-1101,2224,-11
,1161,2023-10-20 13:30:11.45,149,-169,-2067,12,16,3,916,-1001,1917,42
,1162,2023-10-20 13:30:11.46,135,-164,-2059,11,13,6,1155,-1095,2250,-30
,1163,2023-10-20 13:30:11.47,140,-171,-2052,8,13,13,930,-986,1916,28
,1164,2023-10-20 13:30:11.48,149,-168,-2047,8,14,20,1140,-1090,2230,-25
,1165,2023-10-20 13:30:11.49,145,-168,-2052,9,18,24,917,-984,1901,33
,1166,2023-10-20 13:30:11.50,161,-157,-2048,9,17,28,1139,-1085,2224,-27
,1167,2023-10-20 13:30:11.51,150,-155,-2044,11,19,25,898,-975,1873,38
,1168,2023-10-20 13:30:11.52,143,-148,-2044,10,22,22,1096,-1089,2185,-3
,1169,2023-10-20 13:30:11.53,158,-158,-2057,16,22,19,893,-981,1874,44
,1170,2023-10-20 13:30:11.54,144,-159,-2053,19,17,15,1133,-1108,2241,-12
,1171,2023-10-20 13:30:11.55,149,-160,-2054,21,13,15,920,-995,1915,37
,1172,2023-10-20 13:30:11.56,156,-154,-2051,24,12,10,1158,-1100,2258,-29
,1173,2023-10-20 13:30:11.57,151,-156,-2054,28,7,8,910,-980,1890,35
,1174,2023-10-20 13:30:11.58,169,-159,-2051,32,5,7,1136,-1103,2239,-16
,1175,2023-10-20 13:30:11.59,150,-148,-2050,35,6,5,879,-986,1865,53
,1176,2023-10-20 13:30:11.60,148,-160,-2045,33,7,0,1098,-1097,2195,0
,1177,2023-10-20 13:30:11.61,155,-168,-2049,33,9,-2,876,-973,1849,48
,1178,2023-10-20 13:30:11.62,156,-171,-2051,31,3,0,1124,-1092,2216,-16
,1179,2023-10-20 13:30:11.63,156,-171,-2055,27,5,-3,908,-978,1886,35
,1180,2023-10-20 13:30:11.64,153,-184,-2059,26,2,-3,1161,-1112,2273,-24
,1181,2023-10-20 13:30:11.65,143,-194,-2047,20,8,8,926,-994,1920,34
,1182,2023-10-20 13:30:11.66,139,-205,-2049,12,6,19,1169,-1112,2281,-28
,1183,2023-10-20 13:30:11.67,151,-211,-2051,11,9,36,923,-988,1911,32
,1184,2023-10-20 13:30:11.68,152,-180,-2048,8,10,49,1161,-1112,2273,-24
,1185,2023-10-20 13:30:11.69,145,-166,-2050,5,15,53,919,-990,1909,35
,1186,2023-10-20 13:30:11.70,145,-163,-2051,6,15,56,1158,-1118,2276,-20
,1187,2023-10-20 13:30:11.71,157,-159,-2047,6,17,49,917,-991,1908,37
,1188,2023-10-20 13:30:11.72,158,-148,-2056,7,12,41,1160,-1110,2270,-25
,1189,2023-10-20 13:30:11.73,150,-151,-2055,16,8,30,917,-983,1900,33
,1190,2023-10-20 13:30:11.74,146,-156,-2049,17,2,20,1160,-1105,2265,-27
,1191,2023-10-20 13:30:11.75,153,-163,-2054,21,-1,11,914,-980,1894,33
,1192,2023-10-20 13:30:11.76,137,-170,-2050,20,-5,5,1145,-1115,2260,-15
,1193,2023-10-20 13:30:11.77,132,-169,-2051,17,-5,9,891,-990,1881,49
,1194,2023-10-20 13:30:11.78,135,-171,-2049,11,-4,8,1125,-1109,2234,-8
,1195,2023-10-20 13:30:11.79,145,-177,-2039,8,0,12,894,-981,1875,43
,1196,2023-10-20 13:30:11.80,146,-172,-2046,5,-1,15,1137,-1107,2244,-15
,1197,2023-10-20 13:30:11.81,157,-177,-2044,5,3,16,874,-975,1849,50
,1198,2023-10-20 13:30:11.82,151,-162,-2051,9,7,13,1097,-1082,2179,-7
,1199,2023-10-20 13:30:11.83,150,-165,-2051,13,8,9,876,-955,1831,39
,1200,2023-10-20 13:30:11.84,145,-168,-2056,21,7,7,1120,-1085,2205,-17
,1201,2023-10-20 13:30:11.85,143,-173,-2050,24,8,2,890,-970,1860,40
,1202,2023-10-20 13:30:11.86,150,-167,-2054,28,7,0,1122,-1092,2214,-15
,1203,2023-10-20 13:30:11.87,140,-168,-2056,27,6,-5,892,-971,1863,39
,1204,2023-10-20 13:30:11.88,151,-174,-2055,26,10,-6,1121,-1098,2219,-11
,1205,2023-10-20 13:30:11.89,146,-160,-2047,20,8,-7,911,-979,1890,34
,1206,2023-10-20 13:30:11.90,160,-191,-2053,14,11,-5,1148,-1096,2244,-26
,1207,2023-10-20 13:30:11.91,145,-196,-2054,8,14,4,916,-973,1889,28
,1208,2023-10-20 13:30:11.92,147,-183,-2055,15,10,13,1135,-1090,2225,-22
,1209,2023-10-20 13:30:11.93,146,-175,-2041,12,9,12,900,-980,1880,40
,1210,2023-10-20 13:30:11.94,159,-169,-2053,3,11,13,1132,-1098,2230,-17
,1211,2023-10-20 13:30:11.95,140,-173,-2059,3,13,16,910,-982,1892,36
,1212,2023-10-20 13:30:11.96,147,-170,-2056,1,7,21,1121,-1100,2221,-10
,1213,2023-10-20 13:30:11.97,149,-172,-2059,-3,7,24,922,-988,1910,33
,1214,2023-10-20 13:30:11.98,165,-168,-2051,-5,5,24,1134,-1107,2241,-13
,1215,2023-10-20 13:30:11.99,155,-162,-2057,-2,6,25,939,-991,1930,26
,1216,2023-10-20 13:30:12.00,159,-170,-2058,3,7,24,1140,-1092,2232,-24
,1217,2023-10-20 13:30:12.01,155,-177,-2047,8,9,25,926,-974,1900,24
,1218,2023-10-20 13:30:12.02,153,-174,-2050,15,9,29,1204,-1133,2337,-35
,1219,2023-10-20 13:30:12.03,159,-173,-2043,21,13,32,1533,-1347,2880,-93
,1220,2023-10-20 13:30:12.04,169,-180,-2039,27,16,30,2047,-1681,3728,-183
,1221,2023-10-20 13:30:12.05,164,-171,-2042,35,20,27,2047,-1924,3971,-61
,1222,2023-10-20 13:30:12.06,152,-170,-2044,37,21,22,2047,-2005,4052,-21
,1223,2023-10-20 13:30:12.07,160,-186,-2038,42,21,21,2047,-1993,4040,-27
,1224,2023-10-20 13:30:12.08,159,-184,-2044,42,25,18,2047,-1949,3996,-49
,1225,2023-10-20 13:30:12.09,156,-208,-2045,50,19,22,2047,-1954,4001,-46
,1226,2023-10-20 13:30:12.10,151,-211,-2047,54,13,28,2047,-1980,4027,-33
,1227,2023-10-20 13:30:12.11,174,-205,-2034,48,24,31,2047,-2008,4055,-19
,1228,2023-10-20 13:30:12.12,169,-199,-2038,36,31,36,2047,-2024,4071,-11
,1229,2023-10-20 13:30:12.13,161,-203,-2034,30,29,41,2047,-2028,4075,-9
,1230,2023-10-20 13:30:12.14,169,-185,-2042,27,37,39,2047,-2027,4074,-10
,1231,2023-10-20 13:30:12.15,166,-186,-2062,19,36,38,2047,-2022,4069,-12
,1232,2023-10-20 13:30:12.16,166,-179,-2069,6,27,35,2047,-2018,4065,-14
,1233,2023-10-20 13:30:12.17,163,-153,-2063,-9,23,28,2047,-1953,4000,-47
,1234,2023-10-20 13:30:12.18,166,-166,-2060,-29,16,26,2047,-1816,3863,-115
,1235,2023-10-20 13:30:12.19,157,-156,-2057,-30,-3,27,2047,-1601,3648,-223
,1236,2023-10-20 13:30:12.20,152,-144,-2039,-28,-15,20,2047,-1092,3139,-477
,1237,2023-10-20 13:30:12.21,168,-148,-2046,-39,-9,15,2047,-819,2866,-614
,1238,2023-10-20 13:30:12.22,148,-158,-2053,-41,-6,11,2047,-442,2489,-802
,1239,2023-10-20 13:30:12.23,148,-154,-2058,-30,-10,13,-43,-254,211,148
,1240,2023-10-20 13:30:12.24,169,-184,-2061,-30,-6,13,-1461,-303,-1158,882
,1241,2023-10-20 13:30:12.25,151,-179,-2057,-16,-1,17,-1236,-428,-808,832
,1242,2023-10-20 13:30:12.26,155,-175,-2045,4,-3,20,-731,-559,-172,645
,1243,2023-10-20 13:30:12.27,161,-168,-2051,12,2,16,-502,-575,73,538
,1244,2023-10-20 13:30:12.28,171,-171,-2047,23,7,18,-633,-619,-14,626
,1245,2023-10-20 13:30:12.29,165,-167,-2048,35,8,17,-750,-602,-148,676
,1246,2023-10-20 13:30:12.30,156,-171,-2040,32,14,18,-860,-660,-200,760
,1247,2023-10-20 13:30:12.31,175,-167,-2032,26,23,16,-834,-638,-196,736
,1248,2023-10-20 13:30:12.32,163,-169,-2033,20,22,18,-875,-695,-180,785
,1249,2023-10-20 13:30:12.33,167,-171,-2045,16,24,19,-848,-680,-168,764
,1250,2023-10-20 13:30:12.34,151,-176,-2061,13,23,20,-909,-751,-158,830
,1251,2023-10-20 13:30:12.35,157,-162,-2055,1,16,20,-888,-731,-157,809
,1252,2023-10-20 13:30:12.36,151,-166,-2056,-6,7,23,-937,-795,-142,866
,1253,2023-10-20 13:30:12.37,150,-182,-2065,-8,-2,25,-837,-802,-35,819
,1254,2023-10-20 13:30:12.38,157,-175,-2053,-11,-10,28,-731,-876,145,803
,1255,2023-10-20 13:30:12.39,158,-154,-2034,-15,-8,26,-582,-882,300,732
,1256,2023-10-20 13:30:12.40,169,-156,-2040,-24,-6,27,-389,-941,552,665
,1257,2023-10-20 13:30:12.41,144,-135,-2038,-30,5,16,-323,-928,605,625
,1258,2023-10-20 13:30:12.42,168,-153,-2055,-34,9,10,-172,-969,797,570
,1259,2023-10-20 13:30:12.43,163,-161,-2057,-28,11,9,-176,-939,763,557
,1260,2023-10-20 13:30:12.44,148,-153,-2052,-12,5,13,22,-966,988,472
,1261,2023-10-20 13:30:12.45,152,-147,-2059,-12,4,9,-36,-958,922,497
,1262,2023-10-20 13:30:12.46,154,-144,-2051,-10,10,13,133,-999,1132,433
,1263,2023-10-20 13:30:12.47,156,-137,-2054,-10,9,12,53,-999,1052,473
,1264,2023-10-20 13:30:12.48,163,-132,-2061,-10,8,16,242,-1027,1269,392
,1265,2023-10-20 13:30:12.49,162,-125,-2063,-15,11,14,108,-1014,1122,453
,1266,2023-10-20 13:30:12.50,164,-110,-2057,-21,12,12,286,-1025,1311,369
,1267,2023-10-20 13:30:12.51,169,-123,-2065,-35,17,8,214,-1020,1234,403
,1268,2023-10-20 13:30:12.52,163,-128,-2076,-35,13,8,411,-1031,1442,310
,1269,2023-10-20 13:30:12.53,156,-123,-2069,-28,2,8,301,-1026,1327,362
,1270,2023-10-20 13:30:12.54,168,-116,-2066,-26,-3,4,462,-1026,1488,282
,1271,2023-10-20 13:30:12.55,158,-120,-2076,-27,-8,1,434,-1027,1461,296
,1272,2023-10-20 13:30:12.56,181,-116,-2059,-26,-18,5,587,-1026,1613,219
,1273,2023-10-20 13:30:12.57,176,-99,-2050,-24,-17,1,572,-1034,1606,231
,1274,2023-10-20 13:30:12.58,164,-114,-2080,-29,-12,-5,724,-1029,1753,152
,1275,2023-10-20 13:30:12.59,180,-119,-2080,-20,-21,-1,847,-1040,1887,96
,1276,2023-10-20 13:30:12.60,176,-111,-2081,-6,-33,1,921,-1027,1948,53
,1277,2023-10-20 13:30:12.61,180,-117,-2085,2,-41,-6,1004,-1046,2050,21
,1278,2023-10-20 13:30:12.62,177,-138,-2087,16,-42,-11,963,-1030,1993,33
,1279,2023-10-20 13:30:12.63,176,-134,-2077,36,-54,-16,987,-1046,2033,29
,1280,2023-10-20 13:30:12.64,171,-136,-2054,54,-62,-21,940,-1022,1962,41
,1281,2023-10-20 13:30:12.65,170,-136,-2054,65,-65,-28,1042,-1047,2089,2
,1282,2023-10-20 13:30:12.66,172,-150,-2061,60,-54,-30,976,-1023,1999,23
,1283,2023-10-20 13:30:12.67,161,-174,-2056,51,-44,-29,1063,-1050,2113,-6
,1284,2023-10-20 13:30:12.68,154,-200,-2059,46,-39,-14,976,-1021,1997,22
,1285,2023-10-20 13:30:12.69,142,-201,-2044,49,-33,6,1080,-1054,2134,-13
,1286,2023-10-20 13:30:12.70,143,-219,-2039,57,-36,25,985,-1019,2004,17
,1287,2023-10-20 13:30:12.71,133,-222,-2026,62,-38,48,1098,-1061,2159,-18
,1288,2023-10-20 13:30:12.72,138,-223,-2011,72,-37,68,995,-1018,2013,11
,1289,2023-10-20 13:30:12.73,137,-215,-2017,82,-39,87,1103,-1057,2160,-23
,1290,2023-10-20 13:30:12.74,135,-180,-2005,88,-32,97,974,-1006,1980,16
,1291,2023-10-20 13:30:12.75,137,-148,-2016,86,-30,94,1084,-1054,2138,-15
,1292,2023-10-20 13:30:12.76,150,-139,-2018,79,-29,85,961,-1000,1961,19
,1293,2023-10-20 13:30:12.77,139,-137,-2031,61,-18,73,1087,-1039,2126,-24
,1294,2023-10-20 13:30:12.78,130,-145,-2026,49,-14,61,950,-982,1932,16
,1295,2023-10-20 13:30:12.79,150,-151,-2042,35,-13,49,1062,-1040,2102,-11
,1296,2023-10-20 13:30:12.80,136,-160,-2065,28,-16,41,932,-988,1920,28
,1297,2023-10-20 13:30:12.81,133,-170,-2071,25,-23,38,1100,-1054,2154,-23
,1298,2023-10-20 13:30:12.82,145,-157,-2069,14,-19,37,961,-997,1958,18
,1299,2023-10-20 13:30:12.83,135,-157,-2070,14,-28,33,1117,-1062,2179,-27
,1300,2023-10-20 13:30:12.84,155,-153,-2070,19,-39,34,872,-957,1829,42
,1301,2023-10-20 13:30:12.85,157,-151,-2050,26,-36,29,-170,112,-282,29
,1302,2023-10-20 13:30:12.86,149,-148,-2041,30,-26,21,325,917,-592,-621
,1303,2023-10-20 13:30:12.87,156,-150,-2014,41,-18,9,2047,812,1235,-1429
,1304,2023-10-20 13:30:12.88,161,-151,-2004,47,-6,-4,2047,-160,2207,-943
,1305,2023-10-20 13:30:12.89,157,-169,-2025,58,11,-9,2047,-805,2852,-621
,1306,2023-10-20 13:30:12.90,149,-198,-2040,69,21,-10,2047,-1217,3264,-415
,1307,2023-10-20 13:30:12.91,140,-186,-2047,81,17,-9,2047,-1315,3362,-366
,1308,2023-10-20 13:30:12.92,145,-175,-2065,80,22,1,2047,-1444,3491,-301
,1309,2023-10-20 13:30:12.93,135,-177,-2061,69,17,9,2047,-1586,3633,-230
,1310,2023-10-20 13:30:12.94,138,-173,-2069,55,5,15,2047,-1735,3782,-156
,1311,2023-10-20 13:30:12.95,138,-161,-2081,40,-1,20,2047,-1797,3844,-125
,1312,2023-10-20 13:30:12.96,122,-163,-2073,28,-13,17,2047,-1840,3887,-103
,1313,2023-10-20 13:30:12.97,124,-171,-2046,18,-22,23,2047,-1835,3882,-106
,1314,2023-10-20 13:30:12.98,123,-174,-2056,11,-23,22,2047,-1849,3896,-99
,1315,2023-10-20 13:30:12.99,131,-183,-2045,11,-26,19,2047,-1821,3868,-113
,1316,2023-10-20 13:30:13.00,118,-187,-2046,20,-24,15,2047,-1830,3877,-108
,1317,2023-10-20 13:30:13.01,109,-192,-2041,29,-17,14,2047,-1816,3863,-115
,1318,2023-10-20 13:30:13.02,112,-180,-2046,40,-13,20,2047,-1834,3881,-106
,1319,2023-10-20 13:30:13.03,122,-202,-2026,41,-4,27,2047,-1818,3865,-114
,1320,2023-10-20 13:30:13.04,111,-195,-2039,46,3,39,2047,-1833,3880,-107
,1321,2023-10-20 13:30:13.05,108,-188,-2041,45,19,55,2047,-1808,3855,-119
,1322,2023-10-20 13:30:13.06,125,-181,-2051,54,23,62,2047,-1811,3858,-118
,1323,2023-10-20 13:30:13.07,138,-167,-2055,62,27,58,2047,-1778,3825,-134
,1324,2023-10-20 13:30:13.08,132,-171,-2077,60,35,51,2047,-1788,3835,-129
,1325,2023-10-20 13:30:13.09,146,-153,-2073,70,30,46,2047,-1758,3805,-144
,1326,2023-10-20 13:30:13.10,139,-147,-2085,74,24,29,2047,-1766,3813,-140
,1327,2023-10-20 13:30:13.11,139,-164,-2097,74,19,15,2047,-1740,3787,-153
,1328,2023-10-20 13:30:13.12,136,-176,-2103,85,3,10,2047,-1759,3806,-144
,1329,2023-10-20 13:30:13.13,130,-161,-2087,89,-12,1,2047,-1735,3782,-156
,1330,2023-10-20 13:30:13.14,135,-170,-2083,87,-19,-7,2047,-1752,3799,-147
,1331,2023-10-20 13:30:13.15,135,-171,-2085,87,-22,-11,2047,-1734,3781,-156
,1332,2023-10-20 13:30:13.16,143,-174,-2082,85,-28,-17,2047,-1761,3808,-143
,1333,2023-10-20 13:30:13.17,135,-177,-2074,82,-32,-21,2047,-1762,3809,-142
,1334,2023-10-20 13:30:13.18,136,-180,-2068,84,-39,-18,2047,-1785,3832,-131
,1335,2023-10-20 13:30:13.19,127,-185,-2069,85,-48,-16,2047,-1757,3804,-145
,1336,2023-10-20 13:30:13.20,127,-186,-2042,87,-50,-16,2047,-1768,3815,-139
,1337,2023-10-20 13:30:13.21,120,-175,-2031,92,-53,-17,2047,-1742,3789,-152
,1338,2023-10-20 13:30:13.22,123,-177,-2033,95,-53,-20,2047,-1745,3792,-151
,1339,2023-10-20 13:30:13.23,115,-165,-2035,96,-59,-22,2047,-1740,3787,-153
,1340,2023-10-20 13:30:13.24,114,-169,-2024,98,-56,-32,2047,-1770,3817,-138
,1341,2023-10-20 13:30:13.25,110,-170,-2056,109,-59,-47,2047,-1741,3788,-153
,1342,2023-10-20 13:30:13.26,94,-163,-2053,114,-65,-63,2047,-1739,3786,-154
,1343,2023-10-20 13:30:13.27,93,-181,-2057,115,-65,-73,2047,-1715,3762,-166
,1344,2023-10-20 13:30:13.28,96,-205,-2056,106,-66,-81,2047,-1726,3773,-160
,1345,2023-10-20 13:30:13.29,101,-221,-2059,116,-65,-82,2047,-1665,3712,-191
,1346,2023-10-20 13:30:13.30,107,-236,-2022,125,-67,-79,2047,-1653,3700,-197
,1347,2023-10-20 13:30:13.31,107,-241,-2027,130,-54,-77,-296,-1614,1318,955
,1348,2023-10-20 13:30:13.32,105,-231,-2022,137,-40,-76,-381,-1618,1237,999
,1349,2023-10-20 13:30:13.33,114,-254,-2027,149,-28,-75,841,-1538,2379,348
,1350,2023-10-20 13:30:13.34,109,-249,-2026,158,-22,-80,1589,-1502,3091,-43
,1351,2023-10-20 13:30:13.35,106,-254,-2035,169,-6,-88,1410,-1416,2826,3
,1352,2023-10-20 13:30:13.36,99,-255,-2035,175,-5,-92,1025,-1359,2384,167
,1353,2023-10-20 13:30:13.37,118,-258,-2039,182,-1,-106,894,-1221,2115,163
,1354,2023-10-20 13:30:13.38,124,-276,-2044,186,-1,-113,921,-1164,2085,121
,1355,2023-10-20 13:30:13.39,129,-288,-2023,195,2,-123,949,-1091,2040,71
,1356,2023-10-20 13:30:13.40,118,-304,-2018,203,3,-134,823,-1065,1888,121
,1357,2023-10-20 13:30:13.41,135,-317,-2013,210,7,-143,278,-819,1097,270
,1358,2023-10-20 13:30:13.42,141,-327,-1997,208,22,-149,-38,-314,276,176
,1359,2023-10-20 13:30:13.43,126,-335,-2001,214,27,-158,206,252,-46,-229
,1360,2023-10-20 13:30:13.44,175,-342,-1987,236,27,-175,58,204,-146,-131
,1361,2023-10-20 13:30:13.45,187,-331,-1957,250,36,-199,-395,-227,-168,311
,1362,2023-10-20 13:30:13.46,189,-344,-1978,240,66,-208,-547,-444,-103,495
,1363,2023-10-20 13:30:13.47,184,-363,-2001,243,68,-221,-791,-693,-98,742
,1364,2023-10-20 13:30:13.48,179,-375,-2029,261,56,-231,-706,-640,-66,673
,1365,2023-10-20 13:30:13.49,185,-369,-2018,271,45,-243,-836,-758,-78,797
,1366,2023-10-20 13:30:13.50,184,-370,-2034,272,36,-254,-727,-669,-58,698
,1367,2023-10-20 13:30:13.51,191,-381,-2031,254,26,-266,-885,-811,-74,848
,1368,2023-10-20 13:30:13.52,198,-375,-1998,248,18,-274,-788,-724,-64,756
,1369,2023-10-20 13:30:13.53,190,-395,-2008,251,9,-283,-940,-843,-97,891
,1370,2023-10-20 13:30:13.54,179,-407,-2032,250,-13,-284,-829,-729,-100,779
,1371,2023-10-20 13:30:13.55,167,-417,-2061,234,-25,-275,-979,-822,-157,900
,1372,2023-10-20 13:30:13.56,168,-439,-2082,214,-60,-260,-871,-732,-139,801
,1373,2023-10-20 13:30:13.57,155,-447,-2072,180,-89,-240,-1018,-885,-133,951
,1374,2023-10-20 13:30:13.58,148,-457,-2072,155,-119,-215,-904,-804,-100,854
,1375,2023-10-20 13:30:13.59,142,-444,-2094,129,-159,-182,-1040,-929,-111,984
,1376,2023-10-20 13:30:13.60,156,-446,-2079,87,-186,-149,-929,-842,-87,885
,1377,2023-10-20 13:30:13.61,151,-412,-2069,50,-208,-119,-1046,-965,-81,1005
,1378,2023-10-20 13:30:13.62,155,-418,-2044,27,-227,-93,-913,-870,-43,891
,1379,2023-10-20 13:30:13.63,128,-414,-2064,7,-253,-69,-940,-983,43,961
,1380,2023-10-20 13:30:13.64,103,-389,-2065,-31,-269,-46,-787,-902,115,844
,1381,2023-10-20 13:30:13.65,78,-380,-2081,-77,-277,-28,-721,-1039,318,880
,1382,2023-10-20 13:30:13.66,71,-376,-2082,-119,-285,-13,-611,-944,333,777
,1383,2023-10-20 13:30:13.67,51,-356,-2042,-161,-285,-5,-546,-1043,497,794
,1384,2023-10-20 13:30:13.68,18,-348,-2053,-194,-282,1,-488,-950,462,719
,1385,2023-10-20 13:30:13.69,13,-320,-2032,-223,-282,1,-366,-1065,699,715
,1386,2023-10-20 13:30:13.70,7,-299,-2043,-240,-283,0,-322,-972,650,647
,1387,2023-10-20 13:30:13.71,17,-300,-2035,-271,-261,-8,-157,-1070,913,613
,1388,2023-10-20 13:30:13.72,14,-291,-2020,-296,-238,-14,-168,-985,817,576
,1389,2023-10-20 13:30:13.73,17,-280,-2005,-298,-205,-22,9,-1097,1106,544
,1390,2023-10-20 13:30:13.74,17,-270,-2005,-299,-181,-31,-57,-1003,946,530
,1391,2023-10-20 13:30:13.75,16,-267,-1990,-295,-143,-39,137,-1088,1225,475
,1392,2023-10-20 13:30:13.76,7,-264,-2004,-278,-113,-46,45,-1008,1053,481
,1393,2023-10-20 13:30:13.77,22,-244,-1999,-265,-88,-53,257,-1112,1369,427
,1394,2023-10-20 13:30:13.78,23,-249,-1996,-241,-61,-68,132,-1024,1156,446
,1395,2023-10-20 13:30:13.79,32,-226,-2007,-216,-32,-85,346,-1099,1445,376
,1396,2023-10-20 13:30:13.80,54,-240,-2035,-180,-5,-102,196,-1033,1229,418
,1397,2023-10-20 13:30:13.81,38,-239,-2008,-133,10,-113,419,-1138,1557,359
,1398,2023-10-20 13:30:13.82,59,-214,-1992,-102,32,-129,268,-1066,1334,399
,1399,2023-10-20 13:30:13.83,71,-226,-2018,-73,48,-140,501,-1136,1637,317
,1400,2023-10-20 13:30:13.84,65,-257,-2031,-32,56,-141,324,-1055,1379,365
,1401,2023-10-20 13:30:13.85,44,-259,-2030,2,65,-140,540,-1126,1666,293
,1402,2023-10-20 13:30:13.86,47,-244,-2053,23,57,-136,344,-1045,1389,350
,1403,2023-10-20 13:30:13.87,64,-255,-2051,30,45,-130,561,-1103,1664,271
,1404,2023-10-20 13:30:13.88,80,-268,-2047,53,32,-112,388,-1041,1429,326
,1405,2023-10-20 13:30:13.89,66,-269,-2032,74,29,-97,605,-1115,1720,255
,1406,2023-10-20 13:30:13.90,80,-244,-2046,82,20,-86,417,-1049,1466,316
,1407,2023-10-20 13:30:13.91,94,-245,-2043,78,9,-79,610,-1100,1710,245
,1408,2023-10-20 13:30:13.92,108,-258,-2052,66,4,-75,429,-1037,1466,304
,1409,2023-10-20 13:30:13.93,103,-267,-2036,57,6,-70,627,-1096,1723,234
,1410,2023-10-20 13:30:13.94,95,-273,-2025,53,-1,-68,429,-1045,1474,308
,1411,2023-10-20 13:30:13.95,98,-259,-2034,46,-14,-60,624,-1093,1717,234
,1412,2023-10-20 13:30:13.96,107,-246,-2053,27,-23,-55,448,-1043,1491,297
,1413,2023-10-20 13:30:13.97,94,-271,-2055,1,-34,-56,646,-1087,1733,220
,1414,2023-10-20 13:30:13.98,117,-278,-2053,-11,-36,-57,495,-1042,1537,273
,1415,2023-10-20 13:30:13.99,113,-248,-2057,-16,-44,-70,704,-1075,1779,185
,1416,2023-10-20 13:30:14.00,115,-224,-2040,-21,-65,-91,579,-1032,1611,226
,1417,2023-10-20 13:30:14.01,123,-218,-2043,-38,-78,-113,756,-1072,1828,158
,1418,2023-10-20 13:30:14.02,128,-197,-2030,-56,-82,-140,663,-1038,1701,187
,1419,2023-10-20 13:30:14.03,113,-192,-2026,-66,-91,-172,821,-1073,1894,126
,1420,2023-10-20 13:30:14.04,115,-199,-2012,-82,-112,-205,708,-1042,1750,167
,1421,2023-10-20 13:30:14.05,121,-216,-1953,-84,-129,-240,839,-1069,1908,115
,1422,2023-10-20 13:30:14.06,82,-207,-2093,-36,-174,-273,748,-1038,1786,145
,1423,2023-10-20 13:30:14.07,62,-179,-2070,-40,-225,-297,852,-1061,1913,104
,1424,2023-10-20 13:30:14.08,94,-183,-2028,-39,-262,-361,735,-1048,1783,156
,1425,2023-10-20 13:30:14.09,68,-122,-2052,-24,-252,-445,836,-1076,1912,120
,1426,2023-10-20 13:30:14.10,47,-101,-2034,-28,-267,-525,765,-1058,1823,146
,1427,2023-10-20 13:30:14.11,27,-131,-2003,-31,-265,-607,864,-1069,1933,102
,1428,2023-10-20 13:30:14.12,34,-178,-2012,0,-291,-688,785,-1053,1838,134
,1429,2023-10-20 13:30:14.13,-17,-240,-2039,33,-314,-746,857,-1063,1920,103
,1430,2023-10-20 13:30:14.14,-37,-294,-2065,56,-340,-786,794,-1062,1856,134
,1431,2023-10-20 13:30:14.15,-64,-327,-2060,77,-357,-814,850,-1070,1920,110
,1432,2023-10-20 13:30:14.16,-91,-366,-2067,103,-383,-826,753,-1075,1828,161
,1433,2023-10-20 13:30:14.17,-67,-387,-2036,125,-405,-826,806,-1077,1883,135
