// Data mode  : Full
// Data quality  : High
// Acceleration sensor's range  : 16g
// Gyroscope sensor's range  : 2000dps
//
//ARTIFACT,NUM,DATE,ACC_X,ACC_Y,ACC_Z,GYRO_X,GYRO_Y,GYRO_Z,EOG_L,EOG_R,EOG_H,EOG_V
,1,2023-10-27 10:42:30.31,-72,428,-2025,112,59,88,-621,771,-1392,-75
,2,2023-10-27 10:42:30.32,-79,429,-2010,117,34,88,-443,569,-1012,-63
,3,2023-10-27 10:42:30.33,-76,438,-2018,116,40,87,-618,776,-1394,-79
,4,2023-10-27 10:42:30.34,-73,408,-2031,127,32,86,-450,573,-1023,-61
,5,2023-10-27 10:42:30.35,-79,434,-2038,132,19,83,-627,782,-1409,-77
,6,2023-10-27 10:42:30.36,-74,453,-2011,133,0,76,-444,574,-1018,-65
,7,2023-10-27 10:42:30.37,-65,449,-2011,137,-2,68,-627,784,-1411,-78
,8,2023-10-27 10:42:30.38,-70,438,-2005,129,-4,60,-449,565,-1014,-58
,9,2023-10-27 10:42:30.39,-74,438,-2010,123,12,51,-639,776,-1415,-68
,10,2023-10-27 10:42:30.40,-79,446,-2002,113,18,39,-457,559,-1016,-51
,11,2023-10-27 10:42:30.41,-82,441,-2019,101,25,29,-645,776,-1421,-65
,12,2023-10-27 10:42:30.42,-90,437,-2009,91,24,21,-458,568,-1026,-55
,13,2023-10-27 10:42:30.43,-67,415,-2000,85,25,17,-645,796,-1441,-75
,14,2023-10-27 10:42:30.44,-92,414,-2003,86,38,16,-453,571,-1024,-59
,15,2023-10-27 10:42:30.45,-84,394,-2012,87,51,10,-642,796,-1438,-77
,16,2023-10-27 10:42:30.46,-68,379,-2015,99,25,15,-450,577,-1027,-63
,17,2023-10-27 10:42:30.47,-86,397,-2018,111,18,19,-648,796,-1444,-74
,18,2023-10-27 10:42:30.48,-77,374,-2007,127,6,17,-457,571,-1028,-57
,19,2023-10-27 10:42:30.49,-70,378,-2004,137,8,14,-647,796,-1443,-74
,20,2023-10-27 10:42:30.50,-57,406,-2023,136,19,12,-449,572,-1021,-61
,21,2023-10-27 10:42:30.51,-57,393,-2001,132,27,8,-643,807,-1450,-82
,22,2023-10-27 10:42:30.52,-60,396,-1994,131,37,4,-441,576,-1017,-67
,23,2023-10-27 10:42:30.53,-54,392,-1992,124,52,-1,-632,799,-1431,-83
,24,2023-10-27 10:42:30.54,-50,373,-2006,117,64,-5,-438,563,-1001,-62
,25,2023-10-27 10:42:30.55,-69,372,-2034,117,69,-7,-638,791,-1429,-76
,26,2023-10-27 10:42:30.56,-66,365,-2044,123,65,-9,-445,556,-1001,-55
,27,2023-10-27 10:42:30.57,-65,361,-2037,124,57,-7,-647,788,-1435,-70
,28,2023-10-27 10:42:30.58,-70,353,-2035,124,52,-7,-455,563,-1018,-54
,29,2023-10-27 10:42:30.59,-70,340,-2026,127,50,-4,-645,789,-1434,-72
,30,2023-10-27 10:42:30.60,-52,330,-2023,135,48,5,-447,556,-1003,-54
,31,2023-10-27 10:42:30.61,-57,335,-2018,137,46,7,-643,785,-1428,-71
,32,2023-10-27 10:42:30.62,-50,333,-2022,127,47,17,-452,552,-1004,-50
,33,2023-10-27 10:42:30.63,-51,328,-2018,126,58,24,-652,783,-1435,-65
,34,2023-10-27 10:42:30.64,-52,339,-2017,125,62,30,-463,560,-1023,-48
,35,2023-10-27 10:42:30.65,-53,332,-2014,126,47,30,-656,787,-1443,-65
,36,2023-10-27 10:42:30.66,-37,325,-2014,122,56,35,-465,571,-1036,-53
,37,2023-10-27 10:42:30.67,-47,326,-2019,122,59,35,-665,796,-1461,-65
,38,2023-10-27 10:42:30.68,-37,310,-2023,123,70,39,-473,571,-1044,-49
,39,2023-10-27 10:42:30.69,-60,307,-2027,126,71,41,-672,790,-1462,-59
,40,2023-10-27 10:42:30.70,-46,303,-2040,131,62,43,-474,583,-1057,-54
,41,2023-10-27 10:42:30.71,-47,334,-2039,136,43,48,-658,802,-1460,-72
,42,2023-10-27 10:42:30.72,-52,315,-2049,127,37,48,-472,580,-1052,-54
,43,2023-10-27 10:42:30.73,-31,333,-2059,115,33,44,-655,804,-1459,-74
,44,2023-10-27 10:42:30.74,-43,351,-2057,117,21,42,-475,580,-1055,-52
,45,2023-10-27 10:42:30.75,-53,356,-2042,113,3,41,-658,804,-1462,-73
,46,2023-10-27 10:42:30.76,-50,345,-2029,86,10,32,-472,594,-1066,-61
,47,2023-10-27 10:42:30.77,-53,352,-2038,71,3,26,-648,808,-1456,-80
,48,2023-10-27 10:42:30.78,-50,350,-2049,52,11,18,-471,595,-1066,-62
,49,2023-10-27 10:42:30.79,-34,340,-2044,42,4,14,-645,803,-1448,-79
,50,2023-10-27 10:42:30.80,-52,335,-2037,36,5,5,-478,596,-1074,-59
,51,2023-10-27 10:42:30.81,-47,336,-2048,32,1,1,-650,805,-1455,-77
,52,2023-10-27 10:42:30.82,-43,336,-2048,32,-8,-2,-478,599,-1077,-60
,53,2023-10-27 10:42:30.83,-52,343,-2034,25,-12,-2,-645,807,-1452,-81
,54,2023-10-27 10:42:30.84,-33,347,-2029,13,-10,-4,-476,608,-1084,-66
,55,2023-10-27 10:42:30.85,-38,333,-2006,8,-4,-6,-637,800,-1437,-81
,56,2023-10-27 10:42:30.86,-42,330,-2003,3,4,-5,-480,605,-1085,-62
,57,2023-10-27 10:42:30.87,-32,329,-1986,1,13,2,-637,798,-1435,-80
,58,2023-10-27 10:42:30.88,-35,312,-1994,8,24,9,-480,603,-1083,-61
,59,2023-10-27 10:42:30.89,-36,315,-2019,22,25,14,-633,792,-1425,-79
,60,2023-10-27 10:42:30.90,-44,319,-2029,35,18,22,-482,610,-1092,-64
,61,2023-10-27 10:42:30.91,-36,332,-2039,47,2,28,-631,788,-1419,-78
,62,2023-10-27 10:42:30.92,-43,347,-2035,47,4,31,-488,610,-1098,-61
,63,2023-10-27 10:42:30.93,-34,353,-2039,44,4,31,-629,782,-1411,-76
,64,2023-10-27 10:42:30.94,-47,354,-2040,39,3,29,-492,604,-1096,-56
,65,2023-10-27 10:42:30.95,-39,357,-2042,34,9,16,-629,774,-1403,-72
,66,2023-10-27 10:42:30.96,-32,354,-2035,36,0,8,-498,612,-1110,-57
,67,2023-10-27 10:42:30.97,-41,358,-2044,38,-7,-1,-628,768,-1396,-70
,68,2023-10-27 10:42:30.98,-38,368,-2045,40,-12,-15,-502,616,-1118,-57
,69,2023-10-27 10:42:30.99,-32,356,-2044,41,-19,-27,-625,769,-1394,-72
,70,2023-10-27 10:42:31.00,-32,347,-2051,44,-21,-39,-507,616,-1123,-54
,71,2023-10-27 10:42:31.01,-51,347,-2033,53,-19,-51,-626,763,-1389,-68
,72,2023-10-27 10:42:31.02,-42,335,-2027,64,-26,-60,-515,625,-1140,-55
,73,2023-10-27 10:42:31.03,-43,335,-2027,69,-34,-69,-621,761,-1382,-70
,74,2023-10-27 10:42:31.04,-76,338,-2026,74,-39,-78,-516,630,-1146,-57
,75,2023-10-27 10:42:31.05,-58,335,-2019,82,-42,-86,-616,758,-1374,-71
,76,2023-10-27 10:42:31.06,-55,330,-2024,90,-40,-96,-522,628,-1150,-53
,77,2023-10-27 10:42:31.07,-58,329,-2020,95,-35,-101,-609,765,-1374,-78
,78,2023-10-27 10:42:31.08,-64,321,-2033,91,-27,-107,-523,640,-1163,-58
,79,2023-10-27 10:42:31.09,-62,303,-2025,95,-24,-109,-612,747,-1359,-67
,80,2023-10-27 10:42:31.10,-67,303,-2024,102,-26,-106,-538,627,-1165,-44
,81,2023-10-27 10:42:31.11,-74,294,-2028,100,-18,-101,-610,745,-1355,-67
,82,2023-10-27 10:42:31.12,-77,299,-2041,105,-19,-101,-539,643,-1182,-52
,83,2023-10-27 10:42:31.13,-50,276,-2030,103,-18,-95,-610,740,-1350,-65
,84,2023-10-27 10:42:31.14,-68,277,-2027,103,-6,-89,-541,653,-1194,-56
,85,2023-10-27 10:42:31.15,-61,290,-2048,103,-6,-86,-608,735,-1343,-63
,86,2023-10-27 10:42:31.16,-67,277,-2024,99,4,-81,-551,655,-1206,-52
,87,2023-10-27 10:42:31.17,-55,266,-2027,98,10,-74,-600,732,-1332,-66
,88,2023-10-27 10:42:31.18,-70,269,-2032,99,16,-68,-547,657,-1204,-55
,89,2023-10-27 10:42:31.19,-70,255,-2029,110,15,-66,-591,728,-1319,-68
,90,2023-10-27 10:42:31.20,-68,239,-2035,118,13,-61,-548,665,-1213,-58
,91,2023-10-27 10:42:31.21,-67,246,-2029,118,8,-55,-593,716,-1309,-61
,92,2023-10-27 10:42:31.22,-83,240,-2033,123,-4,-48,-564,665,-1229,-50
,93,2023-10-27 10:42:31.23,-82,232,-2021,139,-10,-43,-593,715,-1308,-61
,94,2023-10-27 10:42:31.24,-89,244,-2048,147,-5,-38,-564,668,-1232,-52
,95,2023-10-27 10:42:31.25,-90,242,-2066,137,-5,-33,-578,707,-1285,-64
,96,2023-10-27 10:42:31.26,-99,229,-2054,126,-2,-36,-557,675,-1232,-59
,97,2023-10-27 10:42:31.27,-102,224,-2041,120,-1,-36,-568,702,-1270,-67
,98,2023-10-27 10:42:31.28,-97,215,-2031,118,1,-34,-564,680,-1244,-58
,99,2023-10-27 10:42:31.29,-90,227,-2050,122,1,-36,-567,705,-1272,-69
,100,2023-10-27 10:42:31.30,-92,227,-2046,108,6,-38,-569,685,-1254,-58
,101,2023-10-27 10:42:31.31,-81,225,-2029,94,7,-41,-576,690,-1266,-57
,102,2023-10-27 10:42:31.32,-81,217,-2031,91,18,-44,-586,692,-1278,-53
,103,2023-10-27 10:42:31.33,-94,230,-2026,80,26,-47,-568,680,-1248,-56
,104,2023-10-27 10:42:31.34,-90,227,-2033,75,30,-55,-584,689,-1273,-52
,105,2023-10-27 10:42:31.35,-95,232,-2039,66,40,-64,-553,677,-1230,-62
,106,2023-10-27 10:42:31.36,-82,222,-2035,61,40,-69,-576,691,-1267,-57
,107,2023-10-27 10:42:31.37,-94,223,-2052,49,46,-81,-545,672,-1217,-63
,108,2023-10-27 10:42:31.38,-90,229,-2058,38,38,-84,-579,701,-1280,-61
,109,2023-10-27 10:42:31.39,-89,233,-2050,32,36,-93,-544,664,-1208,-60
,110,2023-10-27 10:42:31.40,-79,230,-2046,29,34,-96,-591,702,-1293,-55
,111,2023-10-27 10:42:31.41,-97,222,-2028,23,30,-99,-541,665,-1206,-62
,112,2023-10-27 10:42:31.42,-85,224,-2020,18,40,-95,-592,706,-1298,-57
,113,2023-10-27 10:42:31.43,-80,206,-2014,12,42,-99,-545,651,-1196,-53
,114,2023-10-27 10:42:31.44,-74,216,-2048,15,54,-82,-602,713,-1315,-55
,115,2023-10-27 10:42:31.45,-59,214,-2035,14,51,-77,-536,649,-1185,-56
,116,2023-10-27 10:42:31.46,-66,207,-2029,15,53,-67,-602,717,-1319,-57
,117,2023-10-27 10:42:31.47,-53,213,-2040,17,61,-59,-533,648,-1181,-57
,118,2023-10-27 10:42:31.48,-60,216,-2042,18,62,-52,-599,734,-1333,-67
,119,2023-10-27 10:42:31.49,-51,214,-2047,24,62,-44,-527,642,-1169,-57
,120,2023-10-27 10:42:31.50,-56,213,-2053,24,60,-38,-607,730,-1337,-61
,121,2023-10-27 10:42:31.51,-50,214,-2049,31,60,-28,-529,628,-1157,-49
,122,2023-10-27 10:42:31.52,-62,205,-2034,39,51,-26,-612,733,-1345,-60
,123,2023-10-27 10:42:31.53,-42,219,-2046,46,41,-22,-515,636,-1151,-60
,124,2023-10-27 10:42:31.54,-47,221,-2045,43,47,-13,-606,747,-1353,-70
,125,2023-10-27 10:42:31.55,-47,209,-2046,43,43,-10,-510,630,-1140,-60
,126,2023-10-27 10:42:31.56,-43,209,-2063,52,42,-3,-614,748,-1362,-67
,127,2023-10-27 10:42:31.57,-27,220,-2049,40,49,0,-510,631,-1141,-60
,128,2023-10-27 10:42:31.58,-41,212,-2029,35,52,3,-619,747,-1366,-64
,129,2023-10-27 10:42:31.59,-27,214,-2050,40,47,11,-502,619,-1121,-58
,130,2023-10-27 10:42:31.60,-30,223,-2061,38,47,12,-615,751,-1366,-68
,131,2023-10-27 10:42:31.61,-34,222,-2063,35,46,16,-499,620,-1119,-60
,132,2023-10-27 10:42:31.62,-33,205,-2075,32,35,16,-625,759,-1384,-67
,133,2023-10-27 10:42:31.63,-41,201,-2057,33,28,20,-495,617,-1112,-61
,134,2023-10-27 10:42:31.64,-40,220,-2035,28,22,27,-622,755,-1377,-66
,135,2023-10-27 10:42:31.65,-32,207,-2033,26,23,24,-490,604,-1094,-57
,136,2023-10-27 10:42:31.66,-29,224,-2028,21,28,21,-624,762,-1386,-69
,137,2023-10-27 10:42:31.67,-32,234,-2040,22,32,17,-491,610,-1101,-59
,138,2023-10-27 10:42:31.68,-40,242,-2041,14,42,15,-633,760,-1393,-63
,139,2023-10-27 10:42:31.69,-4,212,-2038,7,43,9,-493,592,-1085,-49
,140,2023-10-27 10:42:31.70,-35,223,-2047,5,36,8,-636,758,-1394,-61
,141,2023-10-27 10:42:31.71,-33,233,-2063,3,45,1,-489,591,-1080,-51
,142,2023-10-27 10:42:31.72,-29,218,-2055,10,37,-7,-641,775,-1416,-67
,143,2023-10-27 10:42:31.73,-19,232,-2059,14,35,-14,-483,602,-1085,-59
,144,2023-10-27 10:42:31.74,-19,227,-2055,14,33,-28,-634,775,-1409,-70
,145,2023-10-27 10:42:31.75,-21,223,-2051,14,27,-33,-477,590,-1067,-56
,146,2023-10-27 10:42:31.76,-26,224,-2059,21,16,-41,-640,775,-1415,-67
,147,2023-10-27 10:42:31.77,-14,220,-2041,22,14,-50,-486,594,-1080,-54
,148,2023-10-27 10:42:31.78,-37,217,-2036,16,13,-54,-652,790,-1442,-69
,149,2023-10-27 10:42:31.79,-33,218,-2045,5,23,-50,-480,601,-1081,-60
,150,2023-10-27 10:42:31.80,-19,199,-2052,3,21,-47,-644,794,-1438,-75
,151,2023-10-27 10:42:31.81,-35,200,-2060,7,18,-47,-476,586,-1062,-55
,152,2023-10-27 10:42:31.82,-20,190,-2046,13,15,-40,-650,787,-1437,-68
,153,2023-10-27 10:42:31.83,-33,205,-2052,16,13,-36,-474,580,-1054,-53
,154,2023-10-27 10:42:31.84,-22,218,-2049,12,20,-33,-647,785,-1432,-69
,155,2023-10-27 10:42:31.85,-20,235,-2051,12,16,-39,-466,577,-1043,-55
,156,2023-10-27 10:42:31.86,-17,237,-2050,15,20,-48,-644,789,-1433,-72
,157,2023-10-27 10:42:31.87,-27,231,-2041,17,14,-55,-462,573,-1035,-55
,158,2023-10-27 10:42:31.88,-18,236,-2046,12,10,-60,-646,778,-1424,-66
,159,2023-10-27 10:42:31.89,-30,231,-2046,9,14,-67,-455,572,-1027,-58
,160,2023-10-27 10:42:31.90,-21,230,-2043,9,10,-71,-648,787,-1435,-69
,161,2023-10-27 10:42:31.91,-39,234,-2039,8,16,-75,-463,569,-1032,-53
,162,2023-10-27 10:42:31.92,-20,229,-2044,1,16,-76,-656,778,-1434,-61
,163,2023-10-27 10:42:31.93,-39,223,-2051,0,14,-72,-464,571,-1035,-53
,164,2023-10-27 10:42:31.94,-28,224,-2049,-3,10,-69,-657,788,-1445,-65
,165,2023-10-27 10:42:31.95,-32,220,-2049,-6,5,-72,-464,560,-1024,-48
,166,2023-10-27 10:42:31.96,-23,229,-2048,-4,4,-69,-651,783,-1434,-66
,167,2023-10-27 10:42:31.97,-26,230,-2046,-8,3,-65,-457,554,-1011,-48
,168,2023-10-27 10:42:31.98,-19,230,-2033,-15,7,-64,-645,790,-1435,-72
,169,2023-10-27 10:42:31.99,-11,238,-2021,-24,15,-59,-447,559,-1006,-56
,170,2023-10-27 10:42:32.00,-23,223,-2028,-26,27,-57,-645,784,-1429,-69
,171,2023-10-27 10:42:32.01,-12,229,-2023,-30,30,-53,-456,553,-1009,-48
,172,2023-10-27 10:42:32.02,-13,236,-2029,-24,39,-52,-651,788,-1439,-68
,173,2023-10-27 10:42:32.03,-20,227,-2051,-18,50,-48,-452,551,-1003,-49
,174,2023-10-27 10:42:32.04,-7,223,-2034,-8,40,-47,-651,782,-1433,-65
,175,2023-10-27 10:42:32.05,-7,214,-2056,5,31,-41,-456,546,-1002,-45
,176,2023-10-27 10:42:32.06,-14,248,-2084,19,17,-37,-653,783,-1436,-65
,177,2023-10-27 10:42:32.07,2,243,-2076,25,11,-38,-462,544,-1006,-41
,178,2023-10-27 10:42:32.08,-10,243,-2074,21,3,-41,-655,787,-1442,-66
,179,2023-10-27 10:42:32.09,14,242,-2035,14,5,-45,-456,554,-1010,-49
,180,2023-10-27 10:42:32.10,23,248,-2031,8,23,-51,-651,789,-1440,-69
,181,2023-10-27 10:42:32.11,13,238,-2029,11,38,-61,-450,548,-998,-49
,182,2023-10-27 10:42:32.12,7,243,-2057,21,47,-70,-644,785,-1429,-70
,183,2023-10-27 10:42:32.13,-6,237,-2068,25,46,-78,-451,543,-994,-46
,184,2023-10-27 10:42:32.14,-8,227,-2053,33,34,-83,-648,780,-1428,-66
,185,2023-10-27 10:42:32.15,-21,220,-2043,32,28,-90,-454,545,-999,-45
,186,2023-10-27 10:42:32.16,-20,206,-2053,42,19,-96,-650,776,-1426,-63
,187,2023-10-27 10:42:32.17,-26,217,-2042,52,9,-103,-458,540,-998,-41
,188,2023-10-27 10:42:32.18,-10,228,-2030,56,8,-110,-649,776,-1425,-63
,189,2023-10-27 10:42:32.19,-25,224,-2027,52,14,-116,-460,540,-1000,-40
,190,2023-10-27 10:42:32.20,-34,223,-2023,51,19,-127,-655,776,-1431,-60
,191,2023-10-27 10:42:32.21,-19,206,-2007,53,24,-131,-467,546,-1013,-39
,192,2023-10-27 10:42:32.22,-47,186,-2023,54,33,-135,-652,779,-1431,-63
,193,2023-10-27 10:42:32.23,-35,178,-2034,57,44,-136,-468,549,-1017,-40
,194,2023-10-27 10:42:32.24,-32,196,-2047,59,38,-137,-651,782,-1433,-65
,195,2023-10-27 10:42:32.25,-36,178,-2055,66,32,-136,-474,562,-1036,-44
,196,2023-10-27 10:42:32.26,-44,167,-2059,72,24,-131,-648,781,-1429,-66
,197,2023-10-27 10:42:32.27,-54,203,-2053,73,25,-127,-468,559,-1027,-45
,198,2023-10-27 10:42:32.28,-40,186,-2050,62,30,-124,-641,785,-1426,-72
,199,2023-10-27 10:42:32.29,-54,181,-2073,51,21,-124,-459,571,-1030,-56
,200,2023-10-27 10:42:32.30,-55,173,-2062,41,13,-120,-629,801,-1430,-86
,201,2023-10-27 10:42:32.31,-50,186,-2083,44,3,-114,-461,571,-1032,-55
,202,2023-10-27 10:42:32.32,-60,202,-2068,43,-17,-114,-630,796,-1426,-83
,203,2023-10-27 10:42:32.33,-50,196,-2061,20,-10,-111,-464,569,-1033,-52
,204,2023-10-27 10:42:32.34,-58,194,-2056,8,-18,-106,-621,787,-1408,-83
,205,2023-10-27 10:42:32.35,-68,201,-2076,-6,-4,-103,-445,582,-1027,-68
,206,2023-10-27 10:42:32.36,-63,193,-2073,-21,-19,-97,-609,798,-1407,-94
,207,2023-10-27 10:42:32.37,-77,196,-2065,-35,-22,-93,-459,593,-1052,-67
,208,2023-10-27 10:42:32.38,-77,203,-2060,-39,-29,-90,-623,789,-1412,-83
,209,2023-10-27 10:42:32.39,-64,197,-2058,-38,-35,-82,-471,579,-1050,-54
,210,2023-10-27 10:42:32.40,-59,194,-2060,-38,-39,-75,-617,751,-1368,-67
,211,2023-10-27 10:42:32.41,-75,203,-2052,-43,-38,-68,-467,565,-1032,-49
,212,2023-10-27 10:42:32.42,-59,200,-2016,-47,-31,-59,-611,774,-1385,-81
,213,2023-10-27 10:42:32.43,-76,198,-2025,-41,-24,-50,-465,598,-1063,-66
,214,2023-10-27 10:42:32.44,-62,205,-2046,-35,-16,-43,-600,782,-1382,-91
,215,2023-10-27 10:42:32.45,-56,206,-2041,-36,-9,-33,-464,596,-1060,-66
,216,2023-10-27 10:42:32.46,-62,188,-2020,-26,-11,-25,-606,761,-1367,-77
,217,2023-10-27 10:42:32.47,-70,203,-2038,-18,-5,-9,-482,593,-1075,-55
,218,2023-10-27 10:42:32.48,-68,212,-2044,-10,-6,-1,-614,761,-1375,-73
,219,2023-10-27 10:42:32.49,-50,208,-2036,-7,-8,8,-495,597,-1092,-51
,220,2023-10-27 10:42:32.50,-63,217,-2028,-3,-1,16,-611,752,-1363,-70
,221,2023-10-27 10:42:32.51,-60,211,-2038,1,-2,26,-492,600,-1092,-54
,222,2023-10-27 10:42:32.52,-70,218,-2028,-2,6,28,-603,750,-1353,-73
,223,2023-10-27 10:42:32.53,-52,223,-2031,-7,11,33,-496,601,-1097,-52
,224,2023-10-27 10:42:32.54,-56,212,-2039,-1,21,32,-602,744,-1346,-71
,225,2023-10-27 10:42:32.55,-54,224,-2033,2,20,31,-502,607,-1109,-52
,226,2023-10-27 10:42:32.56,-61,221,-2027,2,19,26,-600,739,-1339,-69
,227,2023-10-27 10:42:32.57,-52,230,-2046,-2,21,22,-511,615,-1126,-52
,228,2023-10-27 10:42:32.58,-53,224,-2049,1,20,17,-601,741,-1342,-70
,229,2023-10-27 10:42:32.59,-50,234,-2038,2,20,7,-514,622,-1136,-54
,230,2023-10-27 10:42:32.60,-50,231,-2057,2,27,1,-596,739,-1335,-71
,231,2023-10-27 10:42:32.61,-46,238,-2067,-4,28,-5,-517,630,-1147,-56
,232,2023-10-27 10:42:32.62,-54,232,-2076,-14,32,-5,-590,736,-1326,-73
,233,2023-10-27 10:42:32.63,-61,226,-2074,-17,26,-5,-524,629,-1153,-52
,234,2023-10-27 10:42:32.64,-54,217,-2066,-16,13,-6,-588,725,-1313,-68
,235,2023-10-27 10:42:32.65,-53,223,-2055,-20,8,3,-525,633,-1158,-54
,236,2023-10-27 10:42:32.66,-40,236,-2042,-15,6,6,-582,715,-1297,-66
,237,2023-10-27 10:42:32.67,-50,225,-2045,-10,8,13,-527,637,-1164,-55
,238,2023-10-27 10:42:32.68,-39,240,-2044,-11,12,16,-576,714,-1290,-69
,239,2023-10-27 10:42:32.69,-40,236,-2044,-11,13,19,-532,639,-1171,-53
,240,2023-10-27 10:42:32.70,-42,251,-2047,-14,18,19,-574,712,-1286,-69
,241,2023-10-27 10:42:32.71,-44,248,-2059,-11,17,27,-531,668,-1199,-68
,242,2023-10-27 10:42:32.72,-51,243,-2063,-12,17,31,-568,715,-1283,-73
,243,2023-10-27 10:42:32.73,-57,243,-2057,-12,4,37,-538,660,-1198,-61
,244,2023-10-27 10:42:32.74,-60,262,-2053,-9,5,36,-564,699,-1263,-67
,245,2023-10-27 10:42:32.75,-62,244,-2042,-2,0,39,-544,670,-1214,-63
,246,2023-10-27 10:42:32.76,-52,241,-2023,-3,7,43,-561,704,-1265,-71
,247,2023-10-27 10:42:32.77,-56,232,-2028,7,14,45,-549,662,-1211,-56
,248,2023-10-27 10:42:32.78,-54,205,-2024,21,20,54,-550,697,-1247,-73
,249,2023-10-27 10:42:32.79,-57,243,-2039,43,21,58,-551,668,-1219,-58
,250,2023-10-27 10:42:32.80,-49,243,-2032,54,29,55,-549,685,-1234,-68
,251,2023-10-27 10:42:32.81,-45,238,-2034,54,36,59,-558,676,-1234,-59
,252,2023-10-27 10:42:32.82,-59,245,-2042,60,36,55,-554,679,-1233,-62
,253,2023-10-27 10:42:32.83,-51,238,-2046,67,36,57,-567,678,-1245,-55
,254,2023-10-27 10:42:32.84,-43,243,-2048,68,38,53,-552,676,-1228,-62
,255,2023-10-27 10:42:32.85,-36,250,-2032,70,37,48,-574,682,-1256,-54
,256,2023-10-27 10:42:32.86,-36,236,-2029,61,49,45,-549,669,-1218,-60
,257,2023-10-27 10:42:32.87,-35,227,-2031,56,56,44,-578,690,-1268,-56
,258,2023-10-27 10:42:32.88,-20,215,-2036,60,63,41,-545,666,-1211,-60
,259,2023-10-27 10:42:32.89,-20,200,-2035,70,66,41,-581,696,-1277,-57
,260,2023-10-27 10:42:32.90,-28,218,-2044,78,63,41,-538,663,-1201,-62
,261,2023-10-27 10:42:32.91,-26,195,-2041,81,63,41,-586,693,-1279,-53
,262,2023-10-27 10:42:32.92,-17,219,-2063,78,64,44,-538,653,-1191,-57
,263,2023-10-27 10:42:32.93,-26,214,-2059,71,69,43,-594,705,-1299,-55
,264,2023-10-27 10:42:32.94,-43,213,-2056,68,58,44,-535,649,-1184,-57
,265,2023-10-27 10:42:32.95,-26,230,-2063,56,50,43,-594,705,-1299,-55
,266,2023-10-27 10:42:32.96,-27,228,-2066,42,53,43,-526,643,-1169,-58
,267,2023-10-27 10:42:32.97,-29,231,-2055,31,50,39,-595,706,-1301,-55
,268,2023-10-27 10:42:32.98,-23,228,-2059,18,55,38,-529,638,-1167,-54
,269,2023-10-27 10:42:32.99,-23,220,-2051,18,48,34,-605,716,-1321,-55
,270,2023-10-27 10:42:33.00,-12,224,-2059,19,47,34,-522,634,-1156,-56
,271,2023-10-27 10:42:33.01,-4,221,-2054,21,42,29,-609,716,-1325,-53
,272,2023-10-27 10:42:33.02,0,210,-2050,27,46,26,-522,628,-1150,-53
,273,2023-10-27 10:42:33.03,-12,207,-2054,38,52,22,-613,722,-1335,-54
,274,2023-10-27 10:42:33.04,-9,223,-2050,53,40,15,-516,620,-1136,-52
,275,2023-10-27 10:42:33.05,-14,210,-2050,61,39,10,-612,724,-1336,-56
,276,2023-10-27 10:42:33.06,-8,201,-2041,70,38,7,-508,618,-1126,-55
,277,2023-10-27 10:42:33.07,10,203,-2054,81,33,2,-614,726,-1340,-56
,278,2023-10-27 10:42:33.08,-10,211,-2039,80,29,3,-505,616,-1121,-55
,279,2023-10-27 10:42:33.09,17,189,-2045,76,29,5,-618,737,-1355,-59
,280,2023-10-27 10:42:33.10,9,183,-2046,82,31,9,-508,608,-1116,-50
,281,2023-10-27 10:42:33.11,6,187,-2032,85,44,12,-628,733,-1361,-52
,282,2023-10-27 10:42:33.12,17,172,-2042,84,50,14,-506,614,-1120,-54
,283,2023-10-27 10:42:33.13,16,163,-2043,83,50,17,-635,734,-1369,-49
,284,2023-10-27 10:42:33.14,35,165,-2045,87,57,25,-504,596,-1100,-46
,285,2023-10-27 10:42:33.15,33,159,-2054,95,55,31,-628,740,-1368,-56
,286,2023-10-27 10:42:33.16,19,171,-2057,94,51,35,-489,596,-1085,-53
,287,2023-10-27 10:42:33.17,27,175,-2062,95,56,36,-627,751,-1378,-62
,288,2023-10-27 10:42:33.18,33,151,-2062,98,43,34,-490,591,-1081,-50
,289,2023-10-27 10:42:33.19,15,157,-2036,96,42,36,-628,757,-1385,-64
,290,2023-10-27 10:42:33.20,12,157,-2039,96,48,34,-491,592,-1083,-50
,291,2023-10-27 10:42:33.21,14,161,-2058,96,47,30,-641,760,-1401,-59
,292,2023-10-27 10:42:33.22,20,160,-2063,101,32,29,-495,592,-1087,-48
,293,2023-10-27 10:42:33.23,11,159,-2061,92,30,26,-645,757,-1402,-56
,294,2023-10-27 10:42:33.24,5,159,-2058,89,22,25,-492,580,-1072,-44
,295,2023-10-27 10:42:33.25,5,165,-2065,83,23,19,-645,762,-1407,-58
,296,2023-10-27 10:42:33.26,0,164,-2060,71,18,19,-481,578,-1059,-48
,297,2023-10-27 10:42:33.27,10,154,-2044,64,9,14,-644,766,-1410,-61
,298,2023-10-27 10:42:33.28,6,149,-2059,58,3,16,-479,581,-1060,-51
,299,2023-10-27 10:42:33.29,-7,147,-2041,56,-2,16,-645,770,-1415,-62
,300,2023-10-27 10:42:33.30,6,154,-2045,52,0,15,-483,577,-1060,-47
,301,2023-10-27 10:42:33.31,7,139,-2043,54,0,12,-652,771,-1423,-59
,302,2023-10-27 10:42:33.32,9,161,-2031,53,4,15,-477,563,-1040,-43
,303,2023-10-27 10:42:33.33,13,152,-2034,43,20,11,-650,764,-1414,-57
,304,2023-10-27 10:42:33.34,11,149,-2045,35,30,12,-478,565,-1043,-43
,305,2023-10-27 10:42:33.35,5,150,-2046,34,38,16,-654,776,-1430,-61
,306,2023-10-27 10:42:33.36,13,139,-2048,39,38,17,-479,565,-1044,-43
,307,2023-10-27 10:42:33.37,13,132,-2035,45,35,22,-660,776,-1436,-58
,308,2023-10-27 10:42:33.38,7,138,-2045,47,34,22,-474,564,-1038,-45
,309,2023-10-27 10:42:33.39,-3,141,-2065,39,30,24,-658,776,-1434,-59
,310,2023-10-27 10:42:33.40,12,145,-2056,40,27,27,-476,558,-1034,-41
,311,2023-10-27 10:42:33.41,13,165,-2050,35,29,28,-659,777,-1436,-59
,312,2023-10-27 10:42:33.42,18,158,-2060,22,29,28,-474,550,-1024,-38
,313,2023-10-27 10:42:33.43,27,157,-2061,11,39,30,-662,776,-1438,-57
,314,2023-10-27 10:42:33.44,14,140,-2080,2,39,25,-473,559,-1032,-43
,315,2023-10-27 10:42:33.45,8,150,-2079,3,33,26,-659,783,-1442,-62
,316,2023-10-27 10:42:33.46,12,143,-2075,2,34,29,-471,559,-1030,-44
,317,2023-10-27 10:42:33.47,22,139,-2069,4,28,31,-662,791,-1453,-64
,318,2023-10-27 10:42:33.48,22,139,-2082,7,17,34,-473,561,-1034,-44
,319,2023-10-27 10:42:33.49,23,153,-2072,11,18,33,-666,779,-1445,-56
,320,2023-10-27 10:42:33.50,28,156,-2061,14,15,32,-478,547,-1025,-34
,321,2023-10-27 10:42:33.51,23,152,-2059,14,13,32,-668,783,-1451,-57
,322,2023-10-27 10:42:33.52,36,153,-2066,14,15,35,-473,550,-1023,-38
,323,2023-10-27 10:42:33.53,38,153,-2061,12,20,34,-662,792,-1454,-65
,324,2023-10-27 10:42:33.54,31,147,-2060,11,18,35,-464,553,-1017,-44
,325,2023-10-27 10:42:33.55,15,130,-2074,15,16,39,-658,789,-1447,-65
,326,2023-10-27 10:42:33.56,26,131,-2084,27,-7,50,-464,551,-1015,-43
,327,2023-10-27 10:42:33.57,31,133,-2072,30,-19,54,-662,789,-1451,-63
,328,2023-10-27 10:42:33.58,33,140,-2045,33,-21,49,-469,551,-1020,-41
,329,2023-10-27 10:42:33.59,41,141,-2044,32,-7,52,-667,777,-1444,-55
,330,2023-10-27 10:42:33.60,51,146,-2035,31,-2,50,-472,551,-1023,-39
,331,2023-10-27 10:42:33.61,55,141,-2037,30,1,47,-664,784,-1448,-60
,332,2023-10-27 10:42:33.62,43,126,-2048,41,4,50,-469,550,-1019,-40
,333,2023-10-27 10:42:33.63,55,135,-2056,48,-6,55,-662,789,-1451,-63
,334,2023-10-27 10:42:33.64,49,132,-2050,50,-6,60,-466,559,-1025,-46
,335,2023-10-27 10:42:33.65,39,125,-2050,49,-4,65,-655,790,-1445,-67
,336,2023-10-27 10:42:33.66,45,117,-2042,48,-9,68,-464,560,-1024,-48
,337,2023-10-27 10:42:33.67,43,132,-2037,43,-6,72,-656,800,-1456,-72
,338,2023-10-27 10:42:33.68,46,132,-2039,46,-1,71,-470,565,-1035,-47
,339,2023-10-27 10:42:33.69,40,120,-2069,59,-8,69,-660,800,-1460,-70
,340,2023-10-27 10:42:33.70,34,145,-2065,65,-19,71,-470,565,-1035,-47
,341,2023-10-27 10:42:33.71,21,150,-2059,63,-38,65,-656,801,-1457,-72
,342,2023-10-27 10:42:33.72,0,144,-2055,53,-44,64,-478,568,-1046,-45
,343,2023-10-27 10:42:33.73,-5,133,-2061,42,-43,63,-664,799,-1463,-67
,344,2023-10-27 10:42:33.74,-9,135,-2066,38,-61,58,-484,568,-1052,-42
,345,2023-10-27 10:42:33.75,0,144,-2051,26,-53,53,-662,792,-1454,-65
,346,2023-10-27 10:42:33.76,13,148,-2048,14,-54,47,-483,562,-1045,-39
,347,2023-10-27 10:42:33.77,-11,145,-2064,7,-35,36,-660,788,-1448,-64
,348,2023-10-27 10:42:33.78,1,150,-2051,9,-38,32,-486,569,-1055,-41
,349,2023-10-27 10:42:33.79,-5,155,-2053,1,-28,27,-665,787,-1452,-61
,350,2023-10-27 10:42:33.80,17,146,-2046,-9,-12,24,-494,569,-1063,-37
,351,2023-10-27 10:42:33.81,13,143,-2044,-18,2,15,-659,784,-1443,-62
,352,2023-10-27 10:42:33.82,5,160,-2046,-25,21,10,-490,565,-1055,-37
,353,2023-10-27 10:42:33.83,11,147,-2053,-27,37,3,-652,778,-1430,-63
,354,2023-10-27 10:42:33.84,8,134,-2062,-25,43,3,-487,573,-1060,-43
,355,2023-10-27 10:42:33.85,18,143,-2065,-13,41,1,-651,783,-1434,-66
,356,2023-10-27 10:42:33.86,30,125,-2053,-14,41,2,-489,578,-1067,-44
,357,2023-10-27 10:42:33.87,29,134,-2058,-6,38,5,-645,778,-1423,-66
,358,2023-10-27 10:42:33.88,37,133,-2047,4,38,7,-488,569,-1057,-40
,359,2023-10-27 10:42:33.89,26,127,-2051,12,33,11,-646,769,-1415,-61
,360,2023-10-27 10:42:33.90,19,134,-2053,23,24,11,-497,574,-1071,-38
,361,2023-10-27 10:42:33.91,27,132,-2056,30,26,18,-643,764,-1407,-60
,362,2023-10-27 10:42:33.92,41,132,-2056,34,12,19,-495,572,-1067,-38
,363,2023-10-27 10:42:33.93,17,126,-2064,35,9,21,-639,764,-1403,-62
,364,2023-10-27 10:42:33.94,19,129,-2060,42,-3,27,-493,597,-1090,-52
,365,2023-10-27 10:42:33.95,23,141,-2069,47,-9,26,-636,760,-1396,-62
,366,2023-10-27 10:42:33.96,16,141,-2079,31,-11,22,-506,581,-1087,-37
,367,2023-10-27 10:42:33.97,-1,136,-2077,24,-16,22,-634,756,-1390,-61
,368,2023-10-27 10:42:33.98,-10,132,-2081,23,-26,20,-509,590,-1099,-40
,369,2023-10-27 10:42:33.99,4,125,-2073,20,-30,18,-633,757,-1390,-62
,370,2023-10-27 10:42:34.00,0,128,-2066,15,-34,19,-515,585,-1100,-35
,371,2023-10-27 10:42:34.01,6,130,-2069,9,-33,18,-620,747,-1367,-63
,372,2023-10-27 10:42:34.02,-14,131,-2073,1,-32,16,-511,592,-1103,-40
,373,2023-10-27 10:42:34.03,-9,135,-2071,-3,-35,16,-620,744,-1364,-62
,374,2023-10-27 10:42:34.04,-12,142,-2052,-13,-28,18,-517,595,-1112,-39
,375,2023-10-27 10:42:34.05,-18,132,-2042,-17,-25,17,-620,734,-1354,-57
,376,2023-10-27 10:42:34.06,-1,125,-2036,-19,-20,19,-521,599,-1120,-39
,377,2023-10-27 10:42:34.07,7,122,-2030,-16,-12,27,-614,738,-1352,-62
,378,2023-10-27 10:42:34.08,13,133,-2030,-6,-1,29,-526,604,-1130,-39
,379,2023-10-27 10:42:34.09,19,131,-2021,4,13,29,-609,730,-1339,-60
,380,2023-10-27 10:42:34.10,26,137,-2014,9,35,32,-524,616,-1140,-46
,381,2023-10-27 10:42:34.11,26,121,-2027,18,54,35,-602,729,-1331,-63
,382,2023-10-27 10:42:34.12,19,123,-2053,33,59,38,-530,614,-1144,-42
,383,2023-10-27 10:42:34.13,12,123,-2054,50,51,37,-607,727,-1334,-60
,384,2023-10-27 10:42:34.14,14,143,-2058,55,43,38,-543,627,-1170,-42
,385,2023-10-27 10:42:34.15,9,141,-2070,57,30,38,-599,718,-1317,-59
,386,2023-10-27 10:42:34.16,8,114,-2103,63,14,46,-539,630,-1169,-45
,387,2023-10-27 10:42:34.17,3,142,-2063,75,-15,48,-587,726,-1313,-69
,388,2023-10-27 10:42:34.18,15,154,-2077,77,-29,41,-536,644,-1180,-54
,389,2023-10-27 10:42:34.19,5,157,-2065,59,-37,34,-586,721,-1307,-67
,390,2023-10-27 10:42:34.20,-1,169,-2068,42,-33,28,-547,647,-1194,-50
,391,2023-10-27 10:42:34.21,-25,166,-2072,29,-35,21,-581,719,-1300,-69
,392,2023-10-27 10:42:34.22,1,135,-2076,20,-37,20,-547,649,-1196,-51
,393,2023-10-27 10:42:34.23,-12,166,-2065,8,-35,16,-576,713,-1289,-68
,394,2023-10-27 10:42:34.24,-2,149,-2067,-1,-26,13,-555,660,-1215,-52
,395,2023-10-27 10:42:34.25,1,157,-2071,2,-28,10,-573,702,-1275,-64
,396,2023-10-27 10:42:34.26,-8,143,-2065,4,-27,16,-558,653,-1211,-47
,397,2023-10-27 10:42:34.27,11,176,-2046,5,-31,11,-568,693,-1261,-62
,398,2023-10-27 10:42:34.28,-3,160,-2051,4,-18,6,-560,657,-1217,-48
,399,2023-10-27 10:42:34.29,13,160,-2044,0,-3,6,-567,680,-1247,-56
,400,2023-10-27 10:42:34.30,1,147,-2061,6,3,9,-567,653,-1220,-43
,401,2023-10-27 10:42:34.31,4,138,-2062,14,1,14,-562,674,-1236,-56
,402,2023-10-27 10:42:34.32,-3,141,-2057,24,1,21,-575,657,-1232,-41
,403,2023-10-27 10:42:34.33,12,145,-2058,35,-1,30,-560,669,-1229,-54
,404,2023-10-27 10:42:34.34,3,147,-2050,47,-5,29,-574,669,-1243,-47
,405,2023-10-27 10:42:34.35,4,132,-2048,61,-8,32,-545,677,-1222,-66
,406,2023-10-27 10:42:34.36,5,122,-2043,69,-10,42,-579,675,-1254,-48
,407,2023-10-27 10:42:34.37,9,121,-2076,79,-10,51,-550,667,-1217,-58
,408,2023-10-27 10:42:34.38,-1,120,-2087,85,-20,58,-580,677,-1257,-48
,409,2023-10-27 10:42:34.39,-7,111,-2082,89,-25,67,-545,664,-1209,-59
,410,2023-10-27 10:42:34.40,-2,109,-2066,82,-24,75,-589,689,-1278,-50
,411,2023-10-27 10:42:34.41,8,109,-2075,77,-25,83,-545,652,-1197,-53
,412,2023-10-27 10:42:34.42,2,105,-2080,74,-26,85,-590,685,-1275,-47
,413,2023-10-27 10:42:34.43,-14,106,-2060,71,-21,87,-539,640,-1179,-50
,414,2023-10-27 10:42:34.44,4,97,-2055,64,-16,87,-595,684,-1279,-44
,415,2023-10-27 10:42:34.45,4,96,-2023,63,-6,91,-534,627,-1161,-46
,416,2023-10-27 10:42:34.46,20,101,-2007,63,12,93,-603,681,-1284,-39
,417,2023-10-27 10:42:34.47,18,97,-2018,43,43,94,-530,629,-1159,-49
,418,2023-10-27 10:42:34.48,10,73,-2033,39,74,92,-599,697,-1296,-49
,419,2023-10-27 10:42:34.49,20,75,-2045,56,76,96,-523,626,-1149,-51
,420,2023-10-27 10:42:34.50,-2,83,-2040,79,60,99,-607,700,-1307,-46
,421,2023-10-27 10:42:34.51,15,121,-2037,92,43,101,-520,626,-1146,-53
,422,2023-10-27 10:42:34.52,-2,111,-2068,85,32,100,-608,704,-1312,-48
,423,2023-10-27 10:42:34.53,11,110,-2063,76,22,99,-520,622,-1142,-51
,424,2023-10-27 10:42:34.54,-1,114,-2065,67,19,94,-614,714,-1328,-50
,425,2023-10-27 10:42:34.55,-7,103,-2050,59,5,96,-516,615,-1131,-49
,426,2023-10-27 10:42:34.56,-2,100,-2048,48,9,91,-619,710,-1329,-45
,427,2023-10-27 10:42:34.57,-11,100,-2047,27,11,88,-514,605,-1119,-45
,428,2023-10-27 10:42:34.58,-11,100,-2066,26,1,85,-620,715,-1335,-47
,429,2023-10-27 10:42:34.59,-8,100,-2056,24,-5,81,-509,602,-1111,-46
,430,2023-10-27 10:42:34.60,-10,103,-2065,16,1,82,-623,724,-1347,-50
,431,2023-10-27 10:42:34.61,-8,92,-2053,6,0,79,-504,605,-1109,-50
,432,2023-10-27 10:42:34.62,-11,96,-2072,-1,8,84,-624,724,-1348,-50
,433,2023-10-27 10:42:34.63,-8,81,-2054,-2,5,84,-504,597,-1101,-46
,434,2023-10-27 10:42:34.64,-7,94,-2056,6,3,89,-633,731,-1364,-49
,435,2023-10-27 10:42:34.65,-14,83,-2072,12,4,92,-504,593,-1097,-44
,436,2023-10-27 10:42:34.66,-2,93,-2071,10,1,89,-633,728,-1361,-47
,437,2023-10-27 10:42:34.67,-9,102,-2080,11,0,91,-491,580,-1071,-44
,438,2023-10-27 10:42:34.68,-16,112,-2079,12,4,86,-627,729,-1356,-51
,439,2023-10-27 10:42:34.69,-14,115,-2074,6,8,86,-487,575,-1062,-44
,440,2023-10-27 10:42:34.70,-6,114,-2083,-3,14,87,-633,733,-1366,-50
,441,2023-10-27 10:42:34.71,10,100,-2070,3,7,82,-486,576,-1062,-45
,442,2023-10-27 10:42:34.72,14,114,-2056,12,5,80,-636,738,-1374,-51
,443,2023-10-27 10:42:34.73,10,101,-2047,14,16,82,-479,576,-1055,-48
,444,2023-10-27 10:42:34.74,16,95,-2040,23,31,83,-633,746,-1379,-56
,445,2023-10-27 10:42:34.75,25,101,-2039,20,52,88,-471,569,-1040,-49
,446,2023-10-27 10:42:34.76,25,78,-2039,29,64,88,-631,752,-1383,-60
,447,2023-10-27 10:42:34.77,24,68,-2039,50,66,97,-469,568,-1037,-49
,448,2023-10-27 10:42:34.78,29,64,-2026,65,59,99,-633,749,-1382,-58
,449,2023-10-27 10:42:34.79,21,71,-2034,81,54,109,-462,559,-1021,-48
,450,2023-10-27 10:42:34.80,13,56,-2040,81,54,116,-637,746,-1383,-54
,451,2023-10-27 10:42:34.81,8,51,-2038,81,61,123,-470,558,-1028,-44
,452,2023-10-27 10:42:34.82,1,48,-2053,85,59,126,-644,742,-1386,-49
,453,2023-10-27 10:42:34.83,9,59,-2055,73,56,133,-468,548,-1016,-40
,454,2023-10-27 10:42:34.84,7,55,-2045,67,37,144,-646,741,-1387,-47
,455,2023-10-27 10:42:34.85,2,44,-2058,59,39,146,-478,549,-1027,-35
,456,2023-10-27 10:42:34.86,6,50,-2055,45,36,152,-658,745,-1403,-43
,457,2023-10-27 10:42:34.87,14,69,-2070,35,37,155,-485,549,-1034,-32
,458,2023-10-27 10:42:34.88,27,72,-2057,25,32,155,-660,761,-1421,-50
,459,2023-10-27 10:42:34.89,28,93,-2080,16,34,148,-473,550,-1023,-38
,460,2023-10-27 10:42:34.90,23,100,-2050,2,41,131,-659,769,-1428,-55
,461,2023-10-27 10:42:34.91,23,99,-2081,-15,58,123,-476,564,-1040,-44
,462,2023-10-27 10:42:34.92,33,94,-2067,-21,55,111,-659,781,-1440,-61
,463,2023-10-27 10:42:34.93,47,106,-2079,-20,52,96,-473,568,-1041,-47
,464,2023-10-27 10:42:34.94,41,113,-2071,-23,59,90,-656,793,-1449,-68
,465,2023-10-27 10:42:34.95,34,115,-2070,-31,57,85,-463,567,-1030,-52
,466,2023-10-27 10:42:34.96,38,103,-2055,-30,67,79,-650,780,-1430,-65
,467,2023-10-27 10:42:34.97,49,81,-2025,-31,68,80,-458,556,-1014,-49
,468,2023-10-27 10:42:34.98,39,96,-2014,-26,66,85,-646,778,-1424,-66
,469,2023-10-27 10:42:34.99,47,106,-2023,-9,56,86,-453,546,-999,-46
,470,2023-10-27 10:42:35.00,47,109,-2046,8,51,85,-651,772,-1423,-60
,471,2023-10-27 10:42:35.01,28,116,-2038,14,37,87,-461,549,-1010,-44
,472,2023-10-27 10:42:35.02,25,124,-2040,23,31,85,-657,780,-1437,-61
,473,2023-10-27 10:42:35.03,29,109,-2052,27,17,88,-464,547,-1011,-41
,474,2023-10-27 10:42:35.04,33,111,-2060,25,13,87,-658,774,-1432,-58
,475,2023-10-27 10:42:35.05,40,127,-2072,20,7,81,-470,550,-1020,-40
,476,2023-10-27 10:42:35.06,35,114,-2069,8,8,73,-663,780,-1443,-58
,477,2023-10-27 10:42:35.07,34,115,-2055,2,11,63,-466,552,-1018,-43
,478,2023-10-27 10:42:35.08,41,112,-2050,-3,19,54,-655,785,-1440,-65
,479,2023-10-27 10:42:35.09,34,85,-2071,-1,23,51,-459,547,-1006,-44
,480,2023-10-27 10:42:35.10,26,86,-2069,3,23,54,-654,783,-1437,-64
,481,2023-10-27 10:42:35.11,35,87,-2066,5,26,58,-460,550,-1010,-45
,482,2023-10-27 10:42:35.12,20,80,-2070,9,24,62,-650,779,-1429,-64
,483,2023-10-27 10:42:35.13,26,80,-2070,10,20,63,-458,544,-1002,-43
,484,2023-10-27 10:42:35.14,36,72,-2072,9,15,79,-651,773,-1424,-61
,485,2023-10-27 10:42:35.15,33,99,-2068,4,10,77,-466,539,-1005,-36
,486,2023-10-27 10:42:35.16,28,103,-2060,-3,9,76,-654,762,-1416,-54
,487,2023-10-27 10:42:35.17,23,92,-2067,-25,18,85,-462,537,-999,-37
,488,2023-10-27 10:42:35.18,10,81,-2066,-33,10,91,-647,760,-1407,-56
,489,2023-10-27 10:42:35.19,11,84,-2081,-33,4,98,-460,527,-987,-33
,490,2023-10-27 10:42:35.20,9,105,-2081,-39,-8,101,-647,760,-1407,-56
,491,2023-10-27 10:42:35.21,18,106,-2068,-53,-13,105,-465,531,-996,-33
,492,2023-10-27 10:42:35.22,18,85,-2083,-54,-14,107,-653,756,-1409,-51
,493,2023-10-27 10:42:35.23,34,96,-2087,-50,-10,108,-478,525,-1003,-23
,494,2023-10-27 10:42:35.24,24,106,-2083,-45,-8,110,-653,756,-1409,-51
,495,2023-10-27 10:42:35.25,32,93,-2081,-47,5,113,-472,534,-1006,-31
,496,2023-10-27 10:42:35.26,41,81,-2085,-40,8,120,-650,754,-1404,-52
,497,2023-10-27 10:42:35.27,25,62,-2102,-24,10,125,-472,532,-1004,-30
,498,2023-10-27 10:42:35.28,24,55,-2087,-8,0,138,-644,749,-1393,-52
,499,2023-10-27 10:42:35.29,35,66,-2105,18,-21,163,-472,527,-999,-27
,500,2023-10-27 10:42:35.30,42,89,-2088,38,-30,173,-645,740,-1385,-47
,501,2023-10-27 10:42:35.31,58,42,-2058,47,-28,191,-476,531,-1007,-27
,502,2023-10-27 10:42:35.32,34,66,-2020,59,-18,199,-640,738,-1378,-49
,503,2023-10-27 10:42:35.33,67,66,-2020,74,-11,211,-471,535,-1006,-32
,504,2023-10-27 10:42:35.34,61,79,-1992,86,-5,218,-633,745,-1378,-56
,505,2023-10-27 10:42:35.35,75,82,-2018,94,15,218,-471,536,-1007,-32
,506,2023-10-27 10:42:35.36,47,56,-2005,96,31,216,-636,737,-1373,-50
,507,2023-10-27 10:42:35.37,56,89,-2009,92,43,213,-482,541,-1023,-29
,508,2023-10-27 10:42:35.38,59,74,-2032,90,41,219,-630,741,-1371,-55
,509,2023-10-27 10:42:35.39,54,63,-2072,81,39,227,-475,540,-1015,-32
,510,2023-10-27 10:42:35.40,51,70,-2060,79,20,235,-621,738,-1359,-58
,511,2023-10-27 10:42:35.41,53,62,-2077,78,1,242,-469,551,-1020,-41
,512,2023-10-27 10:42:35.42,51,75,-2084,79,-26,249,-611,741,-1352,-65
,513,2023-10-27 10:42:35.43,68,57,-2087,74,-41,254,-473,559,-1032,-43
,514,2023-10-27 10:42:35.44,69,104,-2085,63,-54,253,-610,744,-1354,-67
,515,2023-10-27 10:42:35.45,77,117,-2097,40,-48,242,-476,561,-1037,-42
,516,2023-10-27 10:42:35.46,75,79,-2082,43,-62,231,-600,742,-1342,-71
,517,2023-10-27 10:42:35.47,59,92,-2064,36,-49,222,-466,572,-1038,-53
,518,2023-10-27 10:42:35.48,82,119,-2040,29,-47,199,-586,747,-1333,-80
,519,2023-10-27 10:42:35.49,74,118,-2044,15,-26,184,-465,577,-1042,-56
,520,2023-10-27 10:42:35.50,85,112,-2042,11,-10,166,-565,735,-1300,-85
,521,2023-10-27 10:42:35.51,74,111,-2060,6,-2,150,-443,583,-1026,-70
,522,2023-10-27 10:42:35.52,72,108,-2073,-2,10,134,-552,753,-1305,-100
,523,2023-10-27 10:42:35.53,40,71,-2085,2,17,133,-452,596,-1048,-72
,524,2023-10-27 10:42:35.54,73,92,-2085,8,0,122,-565,748,-1313,-91
,525,2023-10-27 10:42:35.55,35,97,-2048,3,-13,118,-469,598,-1067,-64
,526,2023-10-27 10:42:35.56,46,70,-2044,-4,-11,120,-568,748,-1316,-90
,527,2023-10-27 10:42:35.57,46,81,-2019,-2,-14,121,-481,616,-1097,-67
,528,2023-10-27 10:42:35.58,44,76,-2037,-3,-12,125,-543,749,-1292,-103
,529,2023-10-27 10:42:35.59,44,78,-2030,8,-19,128,-443,622,-1065,-89
,530,2023-10-27 10:42:35.60,42,105,-2040,23,-25,123,-512,741,-1253,-114
,531,2023-10-27 10:42:35.61,45,118,-2037,30,-39,116,-441,628,-1069,-93
,532,2023-10-27 10:42:35.62,45,88,-2081,37,-44,111,-512,733,-1245,-110
,533,2023-10-27 10:42:35.63,46,98,-2068,42,-48,101,-451,616,-1067,-82
,534,2023-10-27 10:42:35.64,40,110,-2028,47,-51,84,-518,708,-1226,-95
,535,2023-10-27 10:42:35.65,41,101,-2004,52,-45,73,-468,621,-1089,-76
,536,2023-10-27 10:42:35.66,38,98,-2019,60,-35,62,-519,712,-1231,-96
,537,2023-10-27 10:42:35.67,34,65,-2050,74,-29,52,-478,627,-1105,-74
,538,2023-10-27 10:42:35.68,22,83,-2073,92,-32,38,-522,708,-1230,-93
,539,2023-10-27 10:42:35.69,22,62,-2078,82,-29,39,-484,630,-1114,-73
,540,2023-10-27 10:42:35.70,18,51,-2084,72,-30,46,-521,696,-1217,-87
,541,2023-10-27 10:42:35.71,-10,50,-2081,57,-34,52,-496,624,-1120,-64
,542,2023-10-27 10:42:35.72,-14,62,-2087,45,-54,66,-520,685,-1205,-82
,543,2023-10-27 10:42:35.73,11,88,-2084,29,-66,70,-502,624,-1126,-61
,544,2023-10-27 10:42:35.74,19,78,-2074,10,-73,68,-520,670,-1190,-75
,545,2023-10-27 10:42:35.75,27,92,-2073,-4,-72,68,-512,626,-1138,-57
,546,2023-10-27 10:42:35.76,31,107,-2065,-22,-49,61,-519,665,-1184,-73
,547,2023-10-27 10:42:35.77,34,97,-2079,-28,-41,49,-518,630,-1148,-56
,548,2023-10-27 10:42:35.78,37,106,-2066,-24,-23,37,-518,665,-1183,-73
,549,2023-10-27 10:42:35.79,29,93,-2101,-15,-13,25,-524,643,-1167,-59
,550,2023-10-27 10:42:35.80,44,75,-2090,-13,-8,17,-517,663,-1180,-73
,551,2023-10-27 10:42:35.81,11,87,-2064,7,-19,22,-531,645,-1176,-57
,552,2023-10-27 10:42:35.82,37,106,-2055,14,-13,10,-506,660,-1166,-77
,553,2023-10-27 10:42:35.83,18,90,-2055,16,-2,2,-524,656,-1180,-66
,554,2023-10-27 10:42:35.84,31,82,-2046,22,3,-2,-496,651,-1147,-77
,555,2023-10-27 10:42:35.85,27,97,-2010,19,6,1,-531,655,-1186,-62
,556,2023-10-27 10:42:35.86,28,87,-2031,13,10,7,-499,644,-1143,-72
,557,2023-10-27 10:42:35.87,30,83,-2051,20,13,5,-540,664,-1204,-62
,558,2023-10-27 10:42:35.88,44,94,-2063,23,12,8,-497,639,-1136,-71
,559,2023-10-27 10:42:35.89,30,76,-2070,24,5,13,-542,663,-1205,-60
,560,2023-10-27 10:42:35.90,37,73,-2068,25,3,23,-491,632,-1123,-70
,561,2023-10-27 10:42:35.91,42,76,-2046,29,1,33,-544,665,-1209,-60
,562,2023-10-27 10:42:35.92,30,65,-2019,32,3,37,-483,622,-1105,-69
,563,2023-10-27 10:42:35.93,41,71,-2036,43,12,49,-551,666,-1217,-57
,564,2023-10-27 10:42:35.94,41,63,-2052,44,14,55,-481,613,-1094,-66
,565,2023-10-27 10:42:35.95,33,68,-2063,46,27,60,-550,662,-1212,-56
,566,2023-10-27 10:42:35.96,29,78,-2067,60,28,64,-472,603,-1075,-65
,567,2023-10-27 10:42:35.97,22,80,-2066,59,35,71,-560,670,-1230,-55
,568,2023-10-27 10:42:35.98,24,73,-2068,50,45,75,-479,609,-1088,-65
,569,2023-10-27 10:42:35.99,30,75,-2065,46,52,76,-570,672,-1242,-51
,570,2023-10-27 10:42:36.00,38,66,-2054,46,54,73,-474,595,-1069,-60
,571,2023-10-27 10:42:36.01,36,72,-2051,62,46,69,-566,678,-1244,-56
,572,2023-10-27 10:42:36.02,41,81,-2061,57,57,58,-461,597,-1058,-68
,573,2023-10-27 10:42:36.03,35,89,-2061,51,57,41,-567,684,-1251,-58
,574,2023-10-27 10:42:36.04,43,92,-2052,52,57,27,-462,594,-1056,-66
,575,2023-10-27 10:42:36.05,35,83,-2053,57,47,8,-572,687,-1259,-57
,576,2023-10-27 10:42:36.06,52,83,-2071,61,52,-12,-458,587,-1045,-64
,577,2023-10-27 10:42:36.07,57,62,-2067,68,51,-29,-575,696,-1271,-60
,578,2023-10-27 10:42:36.08,53,58,-2075,80,44,-43,-452,587,-1039,-67
,579,2023-10-27 10:42:36.09,50,51,-2059,85,36,-52,-572,703,-1275,-65
,580,2023-10-27 10:42:36.10,56,43,-2062,93,27,-57,-451,578,-1029,-63
,581,2023-10-27 10:42:36.11,56,39,-2074,98,23,-57,-579,700,-1279,-60
,582,2023-10-27 10:42:36.12,48,38,-2074,94,18,-54,-448,576,-1024,-64
,583,2023-10-27 10:42:36.13,61,33,-2072,87,13,-47,-584,707,-1291,-61
,584,2023-10-27 10:42:36.14,54,24,-2059,82,15,-39,-445,569,-1014,-62
,585,2023-10-27 10:42:36.15,75,10,-2059,67,21,-27,-584,710,-1294,-63
,586,2023-10-27 10:42:36.16,63,32,-2034,60,37,-14,-442,561,-1003,-59
,587,2023-10-27 10:42:36.17,61,-5,-2074,52,44,-5,-591,710,-1301,-59
,588,2023-10-27 10:42:36.18,67,3,-2072,55,39,7,-447,559,-1006,-56
,589,2023-10-27 10:42:36.19,63,19,-2071,70,21,17,-594,712,-1306,-59
,590,2023-10-27 10:42:36.20,72,29,-2065,72,18,24,-444,553,-997,-54
,591,2023-10-27 10:42:36.21,56,27,-2059,61,23,27,-593,716,-1309,-61
,592,2023-10-27 10:42:36.22,68,31,-2072,53,27,27,-428,547,-975,-59
,593,2023-10-27 10:42:36.23,52,37,-2079,48,23,27,-588,710,-1298,-61
,594,2023-10-27 10:42:36.24,56,34,-2069,39,17,23,-432,536,-968,-52
,595,2023-10-27 10:42:36.25,54,38,-2067,32,11,18,-599,711,-1310,-56
,596,2023-10-27 10:42:36.26,43,34,-2058,28,10,10,-432,531,-963,-49
,597,2023-10-27 10:42:36.27,50,30,-2043,27,7,6,-602,712,-1314,-55
,598,2023-10-27 10:42:36.28,36,28,-2041,28,3,0,-426,528,-954,-51
,599,2023-10-27 10:42:36.29,40,21,-2045,27,9,-6,-596,720,-1316,-62
,600,2023-10-27 10:42:36.30,49,15,-2039,26,6,-11,-415,523,-938,-54
,601,2023-10-27 10:42:36.31,44,32,-2033,16,24,-25,-594,722,-1316,-64
,602,2023-10-27 10:42:36.32,39,6,-2036,10,44,-24,-412,526,-938,-57
,603,2023-10-27 10:42:36.33,45,3,-2038,17,45,-28,-596,722,-1318,-63
,604,2023-10-27 10:42:36.34,35,0,-2052,30,53,-24,-419,516,-935,-48
,605,2023-10-27 10:42:36.35,44,6,-2038,28,51,-23,-603,718,-1321,-57
,606,2023-10-27 10:42:36.36,39,0,-2051,27,53,-24,-419,509,-928,-45
,607,2023-10-27 10:42:36.37,43,16,-2043,29,57,-26,-600,716,-1316,-58
,608,2023-10-27 10:42:36.38,39,14,-2053,20,61,-25,-409,505,-914,-48
,609,2023-10-27 10:42:36.39,47,13,-2058,13,62,-23,-594,721,-1315,-63
,610,2023-10-27 10:42:36.40,47,22,-2095,8,65,-23,-405,491,-896,-43
,611,2023-10-27 10:42:36.41,46,22,-2100,-1,66,-26,-590,719,-1309,-64
,612,2023-10-27 10:42:36.42,57,13,-2104,-13,63,-27,-395,496,-891,-50
,613,2023-10-27 10:42:36.43,55,19,-2081,-17,75,-32,-576,724,-1300,-74
,614,2023-10-27 10:42:36.44,55,22,-2034,-17,85,-37,-371,499,-870,-64
,615,2023-10-27 10:42:36.45,74,-6,-2052,-14,95,-41,-576,739,-1315,-81
,616,2023-10-27 10:42:36.46,80,-1,-2060,-2,98,-41,-389,509,-898,-60
,617,2023-10-27 10:42:36.47,94,15,-2054,17,104,-42,-601,735,-1336,-67
,618,2023-10-27 10:42:36.48,101,10,-2058,32,110,-47,-413,504,-917,-45
,619,2023-10-27 10:42:36.49,96,3,-2056,44,122,-50,-611,734,-1345,-61
,620,2023-10-27 10:42:36.50,99,17,-2048,60,131,-51,-392,521,-913,-64
,621,2023-10-27 10:42:36.51,93,24,-2056,71,132,-58,-590,752,-1342,-81
,622,2023-10-27 10:42:36.52,95,19,-2076,73,128,-61,-391,521,-912,-65
,623,2023-10-27 10:42:36.53,108,22,-2085,66,130,-63,-598,747,-1345,-74
,624,2023-10-27 10:42:36.54,97,14,-2069,60,127,-59,-402,510,-912,-54
,625,2023-10-27 10:42:36.55,108,12,-2096,56,122,-54,-604,752,-1356,-74
,626,2023-10-27 10:42:36.56,109,7,-2083,49,102,-45,-402,520,-922,-59
,627,2023-10-27 10:42:36.57,99,16,-2051,43,90,-46,-607,752,-1359,-72
,628,2023-10-27 10:42:36.58,112,18,-2036,32,82,-41,-410,520,-930,-55
,629,2023-10-27 10:42:36.59,115,20,-2036,30,65,-36,-614,764,-1378,-75
,630,2023-10-27 10:42:36.60,119,27,-2055,21,57,-36,-418,526,-944,-54
,631,2023-10-27 10:42:36.61,121,34,-2047,14,49,-34,-620,772,-1392,-76
,632,2023-10-27 10:42:36.62,105,28,-2078,1,28,-31,-419,542,-961,-61
,633,2023-10-27 10:42:36.63,98,30,-2087,-19,21,-32,-620,788,-1408,-84
,634,2023-10-27 10:42:36.64,100,28,-2083,-41,12,-31,-429,555,-984,-63
,635,2023-10-27 10:42:36.65,90,53,-2081,-59,-13,-31,-617,794,-1411,-88
,636,2023-10-27 10:42:36.66,90,61,-2073,-80,-27,-29,-411,552,-963,-70
,637,2023-10-27 10:42:36.67,98,69,-2079,-90,-46,-32,-603,783,-1386,-90
,638,2023-10-27 10:42:36.68,74,70,-2066,-106,-56,-35,-414,542,-956,-64
,639,2023-10-27 10:42:36.69,75,82,-2065,-131,-58,-41,-605,775,-1380,-85
,640,2023-10-27 10:42:36.70,73,62,-2059,-149,-78,-42,-410,533,-943,-61
,641,2023-10-27 10:42:36.71,61,42,-2063,-154,-82,-39,-599,758,-1357,-79
,642,2023-10-27 10:42:36.72,59,50,-2094,-156,-91,-29,-417,526,-943,-54
,643,2023-10-27 10:42:36.73,52,48,-2067,-164,-95,-22,-607,753,-1360,-73
,644,2023-10-27 10:42:36.74,58,61,-2079,-162,-101,-11,-424,514,-938,-45
,645,2023-10-27 10:42:36.75,55,71,-2075,-169,-114,0,-620,728,-1348,-54
,646,2023-10-27 10:42:36.76,47,87,-2087,-169,-118,6,-443,501,-944,-29
,647,2023-10-27 10:42:36.77,47,98,-2104,-174,-120,14,-630,712,-1342,-41
,648,2023-10-27 10:42:36.78,42,110,-2128,-179,-123,14,-453,492,-945,-19
,649,2023-10-27 10:42:36.79,46,118,-2122,-184,-131,20,-639,708,-1347,-34
,650,2023-10-27 10:42:36.80,37,135,-2102,-181,-132,19,-466,485,-951,-9
,651,2023-10-27 10:42:36.81,28,113,-2093,-172,-145,16,-652,674,-1326,-11
,652,2023-10-27 10:42:36.82,30,110,-2063,-148,-162,16,-478,476,-954,1
,653,2023-10-27 10:42:36.83,27,116,-2068,-130,-166,17,-640,702,-1342,-31
,654,2023-10-27 10:42:36.84,28,105,-2080,-103,-172,18,-465,510,-975,-22
,655,2023-10-27 10:42:36.85,7,106,-2052,-78,-175,14,-626,720,-1346,-47
,656,2023-10-27 10:42:36.86,4,107,-2059,-55,-175,16,-457,522,-979,-32
,657,2023-10-27 10:42:36.87,0,109,-2036,-43,-185,19,-615,732,-1347,-58
,658,2023-10-27 10:42:36.88,-8,104,-2053,-24,-173,21,-457,537,-994,-40
,659,2023-10-27 10:42:36.89,-12,94,-2064,-2,-167,23,-610,741,-1351,-65
,660,2023-10-27 10:42:36.90,5,107,-2060,5,-150,27,-453,546,-999,-46
,661,2023-10-27 10:42:36.91,-24,81,-2048,16,-146,28,-602,744,-1346,-71
,662,2023-10-27 10:42:36.92,-21,64,-2010,35,-116,35,-456,545,-1001,-44
,663,2023-10-27 10:42:36.93,-13,69,-2032,58,-112,37,-603,736,-1339,-66
,664,2023-10-27 10:42:36.94,-18,57,-2004,71,-90,43,-462,554,-1016,-46
,665,2023-10-27 10:42:36.95,-7,53,-1985,97,-70,47,-594,733,-1327,-69
,666,2023-10-27 10:42:36.96,-8,35,-1980,107,-51,54,-458,554,-1012,-48
,667,2023-10-27 10:42:36.97,-6,38,-1992,117,-22,61,-594,732,-1326,-69
,668,2023-10-27 10:42:36.98,1,22,-2011,128,5,65,-467,558,-1025,-45
,669,2023-10-27 10:42:36.99,2,25,-2022,135,35,73,-593,726,-1319,-66
,670,2023-10-27 10:42:37.00,11,34,-2024,139,54,79,-476,565,-1041,-44
,671,2023-10-27 10:42:37.01,6,45,-2043,145,75,88,-593,731,-1324,-69
,672,2023-10-27 10:42:37.02,28,40,-2054,140,85,91,-476,573,-1049,-48
,673,2023-10-27 10:42:37.03,24,49,-2057,122,109,98,-587,726,-1313,-69
,674,2023-10-27 10:42:37.04,28,27,-2058,115,119,105,-480,582,-1062,-51
,675,2023-10-27 10:42:37.05,25,20,-2066,105,130,118,-585,735,-1320,-75
,676,2023-10-27 10:42:37.06,35,28,-2077,92,143,127,-486,594,-1080,-54
,677,2023-10-27 10:42:37.07,41,25,-2071,89,144,135,-576,725,-1301,-74
,678,2023-10-27 10:42:37.08,43,30,-2069,78,149,143,-478,589,-1067,-55
,679,2023-10-27 10:42:37.09,74,35,-2036,67,156,146,-563,720,-1283,-78
,680,2023-10-27 10:42:37.10,70,36,-2063,70,151,149,-483,590,-1073,-53
,681,2023-10-27 10:42:37.11,58,40,-2068,68,143,155,-562,710,-1272,-74
,682,2023-10-27 10:42:37.12,72,53,-2083,64,139,151,-485,594,-1079,-54
,683,2023-10-27 10:42:37.13,77,66,-2072,58,131,146,-553,702,-1255,-74
,684,2023-10-27 10:42:37.14,70,58,-2082,53,121,135,-490,594,-1084,-52
,685,2023-10-27 10:42:37.15,74,62,-2082,47,112,129,-555,696,-1251,-70
,686,2023-10-27 10:42:37.16,84,65,-2082,43,92,120,-496,596,-1092,-50
,687,2023-10-27 10:42:37.17,71,60,-2072,44,66,112,-551,684,-1235,-66
,688,2023-10-27 10:42:37.18,71,61,-2079,44,45,103,-502,593,-1095,-45
,689,2023-10-27 10:42:37.19,81,61,-2090,31,24,97,-542,678,-1220,-68
,690,2023-10-27 10:42:37.20,73,46,-2062,26,7,92,-504,593,-1097,-44
,691,2023-10-27 10:42:37.21,76,55,-2063,28,-13,85,-543,663,-1206,-60
,692,2023-10-27 10:42:37.22,71,49,-2062,21,-19,80,-517,590,-1107,-36
,693,2023-10-27 10:42:37.23,77,49,-2066,20,-24,70,-541,661,-1202,-60
,694,2023-10-27 10:42:37.24,73,52,-2062,22,-29,58,-518,603,-1121,-42
,695,2023-10-27 10:42:37.25,75,76,-2051,24,-32,44,-540,662,-1202,-61
,696,2023-10-27 10:42:37.26,72,41,-2077,21,-31,27,-520,618,-1138,-49
,697,2023-10-27 10:42:37.27,54,72,-2045,17,-27,13,-533,658,-1191,-62
,698,2023-10-27 10:42:37.28,41,50,-2079,20,-27,-1,-527,617,-1144,-45
,699,2023-10-27 10:42:37.29,39,47,-2078,15,-33,-10,-527,665,-1192,-69
,700,2023-10-27 10:42:37.30,47,29,-2077,11,-32,-11,-524,635,-1159,-55
,701,2023-10-27 10:42:37.31,41,5,-2084,12,-28,-7,-518,658,-1176,-70
,702,2023-10-27 10:42:37.32,26,35,-2044,13,-30,-5,-525,633,-1158,-54
,703,2023-10-27 10:42:37.33,24,20,-2061,13,-19,-3,-512,646,-1158,-67
,704,2023-10-27 10:42:37.34,31,21,-2058,9,-5,3,-532,635,-1167,-51
,705,2023-10-27 10:42:37.35,46,24,-2056,5,4,5,-513,637,-1150,-62
,706,2023-10-27 10:42:37.36,34,21,-2056,1,17,7,-535,636,-1171,-50
,707,2023-10-27 10:42:37.37,40,26,-2058,2,20,14,-504,634,-1138,-65
,708,2023-10-27 10:42:37.38,45,35,-2061,0,27,15,-540,640,-1180,-50
,709,2023-10-27 10:42:37.39,51,39,-2052,-2,32,21,-505,624,-1129,-59
,710,2023-10-27 10:42:37.40,37,47,-2065,-4,34,21,-547,644,-1191,-48
,711,2023-10-27 10:42:37.41,61,48,-2056,-4,31,23,-497,616,-1113,-59
,712,2023-10-27 10:42:37.42,48,50,-2051,-3,29,24,-546,648,-1194,-51
,713,2023-10-27 10:42:37.43,72,50,-2060,0,26,25,-489,612,-1101,-61
,714,2023-10-27 10:42:37.44,70,64,-2065,4,26,23,-545,653,-1198,-54
,715,2023-10-27 10:42:37.45,71,60,-2064,7,19,22,-482,604,-1086,-61
,716,2023-10-27 10:42:37.46,63,50,-2058,10,16,24,-546,656,-1202,-55
,717,2023-10-27 10:42:37.47,72,48,-2058,18,7,25,-476,610,-1086,-67
,718,2023-10-27 10:42:37.48,61,43,-2058,20,5,30,-552,668,-1220,-58
,719,2023-10-27 10:42:37.49,59,50,-2062,22,5,29,-480,601,-1081,-60
,720,2023-10-27 10:42:37.50,55,53,-2063,27,2,29,-566,672,-1238,-53
,721,2023-10-27 10:42:37.51,61,56,-2060,25,2,28,-474,598,-1072,-62
,722,2023-10-27 10:42:37.52,58,46,-2053,25,-1,25,-559,675,-1234,-58
,723,2023-10-27 10:42:37.53,53,53,-2068,27,-4,22,-463,586,-1049,-61
,724,2023-10-27 10:42:37.54,57,47,-2075,24,1,19,-562,678,-1240,-58
,725,2023-10-27 10:42:37.55,42,43,-2078,23,4,17,-465,588,-1053,-61
,726,2023-10-27 10:42:37.56,53,38,-2073,23,0,15,-570,680,-1250,-55
,727,2023-10-27 10:42:37.57,35,39,-2058,29,-3,19,-462,582,-1044,-60
,728,2023-10-27 10:42:37.58,40,32,-2076,23,-3,13,-569,690,-1259,-60
,729,2023-10-27 10:42:37.59,50,35,-2067,13,1,16,-453,582,-1035,-64
,730,2023-10-27 10:42:37.60,55,31,-2061,13,5,13,-568,696,-1264,-64
,731,2023-10-27 10:42:37.61,38,41,-2059,8,10,15,-448,574,-1022,-63
,732,2023-10-27 10:42:37.62,53,36,-2060,8,12,16,-569,700,-1269,-65
,733,2023-10-27 10:42:37.63,50,41,-2060,5,20,13,-449,560,-1009,-55
,734,2023-10-27 10:42:37.64,49,40,-2062,4,24,15,-572,699,-1271,-63
,735,2023-10-27 10:42:37.65,51,40,-2052,0,28,14,-437,564,-1001,-63
,736,2023-10-27 10:42:37.66,58,37,-2059,-2,26,17,-574,708,-1282,-67
,737,2023-10-27 10:42:37.67,48,41,-2065,-5,22,19,-437,561,-998,-62
,738,2023-10-27 10:42:37.68,59,52,-2067,-4,21,18,-579,708,-1287,-64
,739,2023-10-27 10:42:37.69,54,50,-2064,0,19,18,-433,549,-982,-58
,740,2023-10-27 10:42:37.70,57,46,-2063,1,17,15,-581,708,-1289,-63
,741,2023-10-27 10:42:37.71,66,49,-2060,4,14,17,-433,554,-987,-60
,742,2023-10-27 10:42:37.72,63,46,-2061,9,12,20,-585,719,-1304,-67
,743,2023-10-27 10:42:37.73,70,48,-2055,16,14,21,-431,548,-979,-58
,744,2023-10-27 10:42:37.74,67,47,-2060,20,15,23,-591,716,-1307,-62
,745,2023-10-27 10:42:37.75,62,46,-2063,22,19,26,-432,545,-977,-56
,746,2023-10-27 10:42:37.76,61,55,-2062,25,18,31,-593,720,-1313,-63
,747,2023-10-27 10:42:37.77,62,48,-2061,27,20,28,-431,544,-975,-56
,748,2023-10-27 10:42:37.78,59,54,-2070,28,18,29,-597,726,-1323,-64
,749,2023-10-27 10:42:37.79,57,49,-2069,29,16,30,-424,545,-969,-60
,750,2023-10-27 10:42:37.80,56,45,-2065,29,14,24,-596,728,-1324,-66
,751,2023-10-27 10:42:37.81,50,49,-2065,29,13,23,-425,539,-964,-57
,752,2023-10-27 10:42:37.82,54,51,-2065,30,12,19,-600,735,-1335,-67
,753,2023-10-27 10:42:37.83,56,50,-2057,31,13,16,-423,531,-954,-54
,754,2023-10-27 10:42:37.84,64,44,-2060,35,16,8,-604,731,-1335,-63
,755,2023-10-27 10:42:37.85,74,48,-2051,38,16,5,-424,533,-957,-54
,756,2023-10-27 10:42:37.86,56,37,-2049,38,20,4,-602,735,-1337,-66
,757,2023-10-27 10:42:37.87,59,40,-2053,39,21,1,-418,525,-943,-53
,758,2023-10-27 10:42:37.88,48,32,-2043,41,22,2,-601,736,-1337,-67
,759,2023-10-27 10:42:37.89,62,40,-2049,41,21,3,-412,528,-940,-58
,760,2023-10-27 10:42:37.90,66,39,-2062,37,21,6,-602,737,-1339,-67
,761,2023-10-27 10:42:37.91,62,43,-2061,32,21,9,-413,526,-939,-56
,762,2023-10-27 10:42:37.92,55,45,-2057,29,23,7,-604,743,-1347,-69
,763,2023-10-27 10:42:37.93,62,43,-2058,27,21,11,-411,524,-935,-56
,764,2023-10-27 10:42:37.94,75,40,-2061,24,19,11,-606,741,-1347,-67
,765,2023-10-27 10:42:37.95,65,35,-2056,23,17,11,-410,519,-929,-54
,766,2023-10-27 10:42:37.96,67,33,-2053,27,21,15,-603,742,-1345,-69
,767,2023-10-27 10:42:37.97,60,32,-2069,25,24,15,-406,513,-919,-53
,768,2023-10-27 10:42:37.98,75,27,-2070,28,23,17,-605,743,-1348,-69
,769,2023-10-27 10:42:37.99,72,29,-2058,29,26,17,-409,515,-924,-53
,770,2023-10-27 10:42:38.00,62,20,-2065,32,27,19,-608,748,-1356,-70
,771,2023-10-27 10:42:38.01,66,30,-2064,33,27,19,-406,519,-925,-56
,772,2023-10-27 10:42:38.02,67,24,-2060,36,28,22,-610,745,-1355,-67
,773,2023-10-27 10:42:38.03,69,36,-2071,33,27,20,-408,509,-917,-50
,774,2023-10-27 10:42:38.04,81,29,-2065,31,29,20,-617,723,-1340,-53
,775,2023-10-27 10:42:38.05,63,18,-2067,28,34,17,-412,506,-918,-47
,776,2023-10-27 10:42:38.06,70,20,-2077,28,33,18,-613,744,-1357,-65
,777,2023-10-27 10:42:38.07,57,21,-2071,28,27,22,-408,514,-922,-53
,778,2023-10-27 10:42:38.08,66,11,-2065,28,24,24,-613,747,-1360,-67
,779,2023-10-27 10:42:38.09,74,19,-2063,30,25,28,-413,515,-928,-51
,780,2023-10-27 10:42:38.10,74,15,-2061,32,17,32,-617,753,-1370,-68
,781,2023-10-27 10:42:38.11,74,23,-2061,30,18,33,-414,520,-934,-53
,782,2023-10-27 10:42:38.12,83,28,-2050,29,20,36,-616,760,-1376,-72
,783,2023-10-27 10:42:38.13,76,31,-2050,26,23,33,-418,520,-938,-51
,784,2023-10-27 10:42:38.14,83,31,-2055,21,29,31,-612,771,-1383,-79
,785,2023-10-27 10:42:38.15,82,29,-2049,18,34,31,-411,528,-939,-58
,786,2023-10-27 10:42:38.16,75,23,-2053,16,31,29,-608,771,-1379,-81
,787,2023-10-27 10:42:38.17,58,27,-2051,17,34,30,-407,533,-940,-63
,788,2023-10-27 10:42:38.18,83,26,-2061,18,33,28,-600,767,-1367,-83
,789,2023-10-27 10:42:38.19,67,27,-2055,22,32,27,-406,527,-933,-60
,790,2023-10-27 10:42:38.20,75,19,-2058,27,36,27,-598,765,-1363,-83
,791,2023-10-27 10:42:38.21,74,28,-2057,37,34,24,-403,530,-933,-63
,792,2023-10-27 10:42:38.22,63,22,-2054,46,40,21,-595,764,-1359,-84
,793,2023-10-27 10:42:38.23,81,14,-2062,56,40,19,-404,531,-935,-63
,794,2023-10-27 10:42:38.24,82,9,-2075,67,35,20,-593,767,-1360,-87
,795,2023-10-27 10:42:38.25,93,2,-2061,73,40,19,-404,533,-937,-64
,796,2023-10-27 10:42:38.26,97,0,-2065,80,37,19,-591,759,-1350,-84
,797,2023-10-27 10:42:38.27,80,6,-2062,82,41,20,-406,531,-937,-62
,798,2023-10-27 10:42:38.28,87,-11,-2064,84,44,25,-590,761,-1351,-85
,799,2023-10-27 10:42:38.29,85,0,-2060,82,43,30,-412,532,-944,-60
,800,2023-10-27 10:42:38.30,92,-2,-2059,78,49,35,-594,753,-1347,-79
,801,2023-10-27 10:42:38.31,94,-5,-2062,76,44,37,-416,530,-946,-57
,802,2023-10-27 10:42:38.32,104,-4,-2053,71,53,40,-591,752,-1343,-80
,803,2023-10-27 10:42:38.33,103,-1,-2059,65,51,40,-420,528,-948,-54
,804,2023-10-27 10:42:38.34,110,5,-2061,56,58,44,-594,748,-1342,-77
,805,2023-10-27 10:42:38.35,107,0,-2070,58,50,45,-424,538,-962,-57
,806,2023-10-27 10:42:38.36,103,15,-2064,55,51,38,-587,752,-1339,-82
,807,2023-10-27 10:42:38.37,110,8,-2054,52,43,34,-420,535,-955,-57
,808,2023-10-27 10:42:38.38,107,-3,-2053,54,41,27,-586,748,-1334,-81
,809,2023-10-27 10:42:38.39,110,11,-2053,50,39,19,-428,540,-968,-56
,810,2023-10-27 10:42:38.40,127,14,-2063,50,36,12,-585,743,-1328,-79
,811,2023-10-27 10:42:38.41,115,1,-2060,47,34,7,-433,543,-976,-55
,812,2023-10-27 10:42:38.42,114,3,-2055,46,34,2,-576,755,-1331,-89
,813,2023-10-27 10:42:38.43,123,4,-2063,46,30,-6,-434,550,-984,-58
,814,2023-10-27 10:42:38.44,118,-1,-2068,40,33,-8,-583,736,-1319,-76
,815,2023-10-27 10:42:38.45,125,-15,-2056,44,27,-12,-450,530,-980,-40
,816,2023-10-27 10:42:38.46,119,-11,-2065,43,26,-12,-577,737,-1314,-80
,817,2023-10-27 10:42:38.47,116,-4,-2050,39,18,-13,-438,550,-988,-56
,818,2023-10-27 10:42:38.48,126,-19,-2072,25,38,-20,-571,736,-1307,-82
,819,2023-10-27 10:42:38.49,113,-27,-2092,25,26,-9,-444,553,-997,-54
,820,2023-10-27 10:42:38.50,126,-12,-2082,30,14,-6,-567,728,-1295,-80
,821,2023-10-27 10:42:38.51,131,-11,-2075,25,2,-1,-447,548,-995,-50
,822,2023-10-27 10:42:38.52,103,-1,-2077,16,-1,2,-568,716,-1284,-74
,823,2023-10-27 10:42:38.53,120,-5,-2068,10,-7,6,-454,556,-1010,-51
,824,2023-10-27 10:42:38.54,109,-9,-2067,3,-6,12,-566,707,-1273,-70
,825,2023-10-27 10:42:38.55,110,-7,-2075,5,-11,11,-454,557,-1011,-51
,826,2023-10-27 10:42:38.56,104,-7,-2079,4,-21,12,-563,706,-1269,-71
,827,2023-10-27 10:42:38.57,105,-7,-2075,5,-27,15,-463,569,-1032,-53
,828,2023-10-27 10:42:38.58,103,-6,-2065,6,-34,13,-558,710,-1268,-76
,829,2023-10-27 10:42:38.59,94,-3,-2063,5,-30,14,-462,569,-1031,-53
,830,2023-10-27 10:42:38.60,97,-5,-2058,3,-31,16,-549,708,-1257,-79
,831,2023-10-27 10:42:38.61,89,-4,-2065,7,-30,15,-463,582,-1045,-59
,832,2023-10-27 10:42:38.62,83,-16,-2054,6,-34,18,-525,722,-1247,-98
,833,2023-10-27 10:42:38.63,82,-16,-2060,10,-32,19,-444,598,-1042,-77
,834,2023-10-27 10:42:38.64,79,-15,-2057,13,-27,25,-521,709,-1230,-94
,835,2023-10-27 10:42:38.65,76,-17,-2053,20,-26,27,-460,590,-1050,-65
,836,2023-10-27 10:42:38.66,77,-24,-2052,26,-21,26,-534,690,-1224,-78
,837,2023-10-27 10:42:38.67,82,-20,-2038,31,-12,31,-475,587,-1062,-56
,838,2023-10-27 10:42:38.68,93,-26,-2040,40,-12,34,-533,680,-1213,-73
,839,2023-10-27 10:42:38.69,96,-19,-2049,47,-5,38,-485,587,-1072,-51
,840,2023-10-27 10:42:38.70,98,-28,-2054,51,-2,41,-530,683,-1213,-76
,841,2023-10-27 10:42:38.71,98,-24,-2058,57,1,38,-478,606,-1084,-64
,842,2023-10-27 10:42:38.72,94,-25,-2062,63,-1,39,-516,691,-1207,-87
,843,2023-10-27 10:42:38.73,99,-17,-2078,64,1,41,-484,610,-1094,-63
,844,2023-10-27 10:42:38.74,99,-30,-2088,65,-5,48,-517,678,-1195,-80
,845,2023-10-27 10:42:38.75,101,-20,-2098,62,-9,53,-491,611,-1102,-60
,846,2023-10-27 10:42:38.76,90,-20,-2092,58,-15,56,-503,672,-1175,-84
,847,2023-10-27 10:42:38.77,111,-21,-2075,57,-26,56,-485,610,-1095,-62
,848,2023-10-27 10:42:38.78,91,-27,-2071,51,-32,60,-506,660,-1166,-77
,849,2023-10-27 10:42:38.79,91,-28,-2067,54,-28,65,-500,619,-1119,-59
,850,2023-10-27 10:42:38.80,90,-28,-2054,64,-32,68,-511,658,-1169,-73
,851,2023-10-27 10:42:38.81,88,-27,-2049,65,-32,65,-512,617,-1129,-52
,852,2023-10-27 10:42:38.82,90,-26,-2048,67,-36,67,-510,649,-1159,-69
,853,2023-10-27 10:42:38.83,90,-23,-2049,70,-25,68,-509,634,-1143,-62
,854,2023-10-27 10:42:38.84,77,-34,-2036,70,-24,65,-507,642,-1149,-67
,855,2023-10-27 10:42:38.85,83,-39,-2057,74,-28,70,-525,626,-1151,-50
,856,2023-10-27 10:42:38.86,82,-24,-2063,79,-30,68,-507,616,-1123,-54
,857,2023-10-27 10:42:38.87,72,-55,-2063,89,-36,63,-523,624,-1147,-50
,858,2023-10-27 10:42:38.88,73,-28,-2056,94,-37,62,-503,617,-1120,-57
,859,2023-10-27 10:42:38.89,74,-32,-2051,96,-35,61,-539,623,-1162,-42
,860,2023-10-27 10:42:38.90,72,-34,-2054,98,-24,57,-500,620,-1120,-60
,861,2023-10-27 10:42:38.91,83,-36,-2066,94,-15,53,-539,633,-1172,-47
,862,2023-10-27 10:42:38.92,69,-39,-2057,93,-13,52,-496,612,-1108,-58
,863,2023-10-27 10:42:38.93,60,-35,-2044,91,-12,46,-542,640,-1182,-49
,864,2023-10-27 10:42:38.94,61,-54,-2052,87,-5,49,-486,606,-1092,-60
,865,2023-10-27 10:42:38.95,61,-49,-2043,78,1,47,-543,641,-1184,-49
,866,2023-10-27 10:42:38.96,66,-53,-2055,71,15,46,-487,604,-1091,-58
,867,2023-10-27 10:42:38.97,74,-57,-2048,67,16,49,-550,653,-1203,-51
,868,2023-10-27 10:42:38.98,68,-45,-2035,60,28,46,-480,600,-1080,-60
,869,2023-10-27 10:42:38.99,72,-41,-2066,54,37,47,-550,656,-1206,-53
,870,2023-10-27 10:42:39.00,74,-48,-2068,43,45,39,-468,598,-1066,-65
,871,2023-10-27 10:42:39.01,67,-50,-2074,36,49,39,-544,667,-1211,-61
,872,2023-10-27 10:42:39.02,71,-43,-2065,27,50,37,-457,595,-1052,-69
,873,2023-10-27 10:42:39.03,77,-49,-2076,23,52,35,-546,669,-1215,-61
,874,2023-10-27 10:42:39.04,76,-43,-2065,23,53,37,-452,594,-1046,-71
,875,2023-10-27 10:42:39.05,89,-37,-2065,22,45,31,-547,675,-1222,-64
,876,2023-10-27 10:42:39.06,89,-36,-2069,21,44,29,-449,590,-1039,-70
,877,2023-10-27 10:42:39.07,100,-35,-2057,20,42,20,-551,684,-1235,-66
,878,2023-10-27 10:42:39.08,99,-36,-2063,23,40,18,-443,590,-1033,-73
,879,2023-10-27 10:42:39.09,92,-37,-2071,21,38,12,-551,684,-1235,-66
,880,2023-10-27 10:42:39.10,93,-42,-2069,26,29,12,-441,582,-1023,-70
,881,2023-10-27 10:42:39.11,105,-49,-2067,29,26,7,-555,693,-1248,-69
,882,2023-10-27 10:42:39.12,99,-47,-2076,31,22,5,-434,582,-1016,-74
,883,2023-10-27 10:42:39.13,103,-47,-2071,33,14,4,-557,694,-1251,-68
,884,2023-10-27 10:42:39.14,97,-54,-2064,39,11,4,-430,576,-1006,-73
,885,2023-10-27 10:42:39.15,96,-53,-2070,40,8,7,-559,703,-1262,-72
,886,2023-10-27 10:42:39.16,100,-50,-2066,43,4,6,-430,569,-999,-69
,887,2023-10-27 10:42:39.17,93,-60,-2069,43,5,9,-564,702,-1266,-69
,888,2023-10-27 10:42:39.18,98,-63,-2069,43,4,9,-426,569,-995,-71
,889,2023-10-27 10:42:39.19,82,-62,-2076,41,1,14,-564,706,-1270,-71
,890,2023-10-27 10:42:39.20,101,-65,-2059,38,-2,17,-422,564,-986,-71
,891,2023-10-27 10:42:39.21,94,-57,-2057,39,-4,19,-565,711,-1276,-73
,892,2023-10-27 10:42:39.22,97,-60,-2052,40,-3,16,-412,559,-971,-73
,893,2023-10-27 10:42:39.23,84,-57,-2050,40,-4,13,-565,712,-1277,-73
,894,2023-10-27 10:42:39.24,95,-61,-2048,39,-2,12,-403,567,-970,-82
,895,2023-10-27 10:42:39.25,91,-71,-2050,41,4,7,-568,717,-1285,-74
,896,2023-10-27 10:42:39.26,91,-67,-2050,42,7,4,-412,551,-963,-69
,897,2023-10-27 10:42:39.27,89,-73,-2058,44,7,4,-581,703,-1284,-61
,898,2023-10-27 10:42:39.28,87,-65,-2062,48,8,0,-411,547,-958,-68
,899,2023-10-27 10:42:39.29,89,-73,-2047,44,11,-1,-577,723,-1300,-73
,900,2023-10-27 10:42:39.30,100,-75,-2056,48,12,1,-416,536,-952,-60
,901,2023-10-27 10:42:39.31,94,-73,-2057,44,19,4,-581,720,-1301,-69
,902,2023-10-27 10:42:39.32,100,-74,-2049,44,20,10,-412,539,-951,-63
,903,2023-10-27 10:42:39.33,100,-82,-2052,40,24,8,-583,727,-1310,-72
,904,2023-10-27 10:42:39.34,89,-80,-2058,36,23,13,-404,540,-944,-68
,905,2023-10-27 10:42:39.35,103,-81,-2058,35,29,12,-581,732,-1313,-75
,906,2023-10-27 10:42:39.36,104,-86,-2063,31,34,11,-402,536,-938,-67
,907,2023-10-27 10:42:39.37,99,-78,-2057,28,34,13,-582,735,-1317,-76
,908,2023-10-27 10:42:39.38,102,-80,-2060,31,30,13,-402,534,-936,-66
,909,2023-10-27 10:42:39.39,92,-81,-2064,34,27,12,-588,744,-1332,-78
,910,2023-10-27 10:42:39.40,114,-71,-2068,34,25,13,-405,537,-942,-66
,911,2023-10-27 10:42:39.41,109,-77,-2070,35,23,14,-593,743,-1336,-75
,912,2023-10-27 10:42:39.42,102,-85,-2070,36,23,11,-404,530,-934,-63
,913,2023-10-27 10:42:39.43,118,-89,-2078,38,16,8,-591,744,-1335,-76
,914,2023-10-27 10:42:39.44,96,-75,-2070,38,14,8,-402,529,-931,-63
,915,2023-10-27 10:42:39.45,110,-85,-2071,39,6,10,-593,743,-1336,-75
,916,2023-10-27 10:42:39.46,111,-94,-2068,38,2,10,-402,529,-931,-63
,917,2023-10-27 10:42:39.47,111,-82,-2061,35,-3,12,-596,747,-1343,-75
,918,2023-10-27 10:42:39.48,99,-89,-2058,31,-5,12,-397,524,-921,-63
,919,2023-10-27 10:42:39.49,109,-84,-2069,31,-6,14,-593,749,-1342,-78
,920,2023-10-27 10:42:39.50,108,-80,-2066,27,-7,15,-398,522,-920,-62
,921,2023-10-27 10:42:39.51,107,-89,-2063,27,-9,14,-592,751,-1343,-79
,922,2023-10-27 10:42:39.52,116,-82,-2071,22,-8,16,-397,521,-918,-62
,923,2023-10-27 10:42:39.53,84,-92,-2062,21,-10,16,-593,751,-1344,-79
,924,2023-10-27 10:42:39.54,93,-81,-2052,22,-14,12,-394,527,-921,-66
,925,2023-10-27 10:42:39.55,90,-88,-2057,21,-14,15,-594,753,-1347,-79
,926,2023-10-27 10:42:39.56,88,-82,-2056,19,-8,14,-394,523,-917,-64
,927,2023-10-27 10:42:39.57,89,-88,-2050,17,-6,14,-599,751,-1350,-76
,928,2023-10-27 10:42:39.58,101,-88,-2049,16,-6,13,-399,513,-912,-57
,929,2023-10-27 10:42:39.59,91,-80,-2058,14,0,12,-601,748,-1349,-73
,930,2023-10-27 10:42:39.60,95,-85,-2042,15,2,11,-406,509,-915,-51
,931,2023-10-27 10:42:39.61,98,-91,-2055,18,6,11,-608,738,-1346,-65
,932,2023-10-27 10:42:39.62,95,-83,-2066,17,-1,13,-414,497,-911,-41
,933,2023-10-27 10:42:39.63,79,-83,-2068,15,-4,11,-614,729,-1343,-57
,934,2023-10-27 10:42:39.64,91,-82,-2064,14,-2,11,-414,491,-905,-38
,935,2023-10-27 10:42:39.65,107,-92,-2061,11,2,8,-609,733,-1342,-62
,936,2023-10-27 10:42:39.66,103,-86,-2061,10,6,5,-418,489,-907,-35
,937,2023-10-27 10:42:39.67,99,-89,-2067,10,9,6,-618,723,-1341,-52
,938,2023-10-27 10:42:39.68,90,-92,-2069,8,11,2,-426,475,-901,-24
,939,2023-10-27 10:42:39.69,90,-85,-2074,6,6,2,-613,736,-1349,-61
,940,2023-10-27 10:42:39.70,89,-92,-2067,8,4,5,-411,508,-919,-48
,941,2023-10-27 10:42:39.71,95,-89,-2057,3,-1,7,-602,751,-1353,-74
,942,2023-10-27 10:42:39.72,94,-86,-2060,2,-3,9,-402,526,-928,-62
,943,2023-10-27 10:42:39.73,91,-90,-2049,-2,-4,11,-588,766,-1354,-89
,944,2023-10-27 10:42:39.74,92,-81,-2048,-8,-2,17,-391,537,-928,-73
,945,2023-10-27 10:42:39.75,89,-82,-2060,-12,2,16,-579,776,-1355,-98
,946,2023-10-27 10:42:39.76,87,-80,-2059,-18,-1,16,-389,545,-934,-78
,947,2023-10-27 10:42:39.77,95,-73,-2060,-20,0,17,-582,774,-1356,-96
,948,2023-10-27 10:42:39.78,87,-77,-2063,-22,-3,17,-396,543,-939,-73
,949,2023-10-27 10:42:39.79,85,-77,-2057,-18,0,16,-585,772,-1357,-93
,950,2023-10-27 10:42:39.80,86,-74,-2062,-20,-3,17,-401,544,-945,-71
,951,2023-10-27 10:42:39.81,88,-76,-2056,-15,-2,16,-586,771,-1357,-92
,952,2023-10-27 10:42:39.82,98,-66,-2063,-10,-5,15,-407,541,-948,-67
,953,2023-10-27 10:42:39.83,99,-70,-2063,-5,-4,14,-586,771,-1357,-92
,954,2023-10-27 10:42:39.84,101,-71,-2062,0,-2,11,-412,544,-956,-66
,955,2023-10-27 10:42:39.85,81,-67,-2067,1,-2,10,-586,767,-1353,-90
,956,2023-10-27 10:42:39.86,77,-71,-2066,6,-4,9,-414,547,-961,-66
,957,2023-10-27 10:42:39.87,87,-74,-2071,12,-7,11,-584,762,-1346,-89
,958,2023-10-27 10:42:39.88,92,-75,-2073,11,-6,14,-417,548,-965,-65
,959,2023-10-27 10:42:39.89,84,-80,-2071,16,-7,15,-587,759,-1346,-86
,960,2023-10-27 10:42:39.90,87,-77,-2055,20,-4,16,-421,552,-973,-65
,961,2023-10-27 10:42:39.91,101,-82,-2048,24,-1,14,-584,760,-1344,-88
,962,2023-10-27 10:42:39.92,86,-84,-2061,29,5,17,-424,552,-976,-64
,963,2023-10-27 10:42:39.93,82,-88,-2054,30,9,15,-585,757,-1342,-86
,964,2023-10-27 10:42:39.94,79,-91,-2071,32,9,18,-430,549,-979,-59
,965,2023-10-27 10:42:39.95,84,-91,-2068,30,8,22,-582,751,-1333,-84
,966,2023-10-27 10:42:39.96,91,-89,-2059,29,7,24,-435,550,-985,-57
,967,2023-10-27 10:42:39.97,80,-89,-2057,24,8,29,-578,746,-1324,-84
,968,2023-10-27 10:42:39.98,85,-87,-2051,23,8,27,-434,556,-990,-61
,969,2023-10-27 10:42:39.99,95,-86,-2050,22,12,28,-570,743,-1313,-86
,970,2023-10-27 10:42:40.00,96,-83,-2039,18,16,24,-434,559,-993,-62
,971,2023-10-27 10:42:40.01,88,-85,-2055,18,19,20,-569,737,-1306,-84
,972,2023-10-27 10:42:40.02,85,-84,-2064,16,19,17,-439,563,-1002,-62
,973,2023-10-27 10:42:40.03,95,-89,-2056,11,17,12,-570,734,-1304,-82
,974,2023-10-27 10:42:40.04,102,-88,-2060,10,10,11,-443,568,-1011,-62
,975,2023-10-27 10:42:40.05,87,-85,-2064,6,11,9,-566,736,-1302,-85
,976,2023-10-27 10:42:40.06,90,-87,-2065,6,7,8,-436,588,-1024,-76
,977,2023-10-27 10:42:40.07,94,-84,-2066,1,6,7,-561,734,-1295,-86
,978,2023-10-27 10:42:40.08,98,-84,-2064,-2,7,6,-453,570,-1023,-58
,979,2023-10-27 10:42:40.09,97,-86,-2065,-4,7,6,-568,719,-1287,-75
,980,2023-10-27 10:42:40.10,95,-89,-2062,-7,8,9,-463,577,-1040,-57
,981,2023-10-27 10:42:40.11,109,-85,-2061,-7,5,9,-561,722,-1283,-80
,982,2023-10-27 10:42:40.12,91,-79,-2059,-8,6,12,-464,578,-1042,-57
,983,2023-10-27 10:42:40.13,97,-83,-2065,-7,9,16,-559,710,-1269,-75
,984,2023-10-27 10:42:40.14,93,-86,-2060,-6,8,15,-467,582,-1049,-57
,985,2023-10-27 10:42:40.15,95,-74,-2068,-5,8,19,-564,693,-1257,-64
,986,2023-10-27 10:42:40.16,97,-71,-2067,-4,8,18,-471,587,-1058,-58
,987,2023-10-27 10:42:40.17,90,-74,-2065,-4,7,18,-550,704,-1254,-77
,988,2023-10-27 10:42:40.18,95,-78,-2065,-1,5,18,-470,588,-1058,-59
,989,2023-10-27 10:42:40.19,103,-72,-2060,0,2,20,-543,699,-1242,-78
,990,2023-10-27 10:42:40.20,94,-81,-2059,1,3,17,-475,585,-1060,-55
,991,2023-10-27 10:42:40.21,84,-72,-2054,7,3,19,-536,691,-1227,-77
,992,2023-10-27 10:42:40.22,91,-80,-2057,12,4,17,-480,592,-1072,-56
,993,2023-10-27 10:42:40.23,98,-85,-2059,14,9,19,-534,692,-1226,-79
,994,2023-10-27 10:42:40.24,95,-80,-2055,18,7,19,-488,596,-1084,-54
,995,2023-10-27 10:42:40.25,102,-85,-2058,20,8,19,-530,683,-1213,-76
,996,2023-10-27 10:42:40.26,93,-86,-2064,24,8,18,-492,602,-1094,-55
,997,2023-10-27 10:42:40.27,96,-83,-2058,25,11,16,-525,680,-1205,-77
,998,2023-10-27 10:42:40.28,97,-83,-2067,21,11,18,-496,607,-1103,-55
,999,2023-10-27 10:42:40.29,106,-82,-2057,22,9,17,-525,669,-1194,-72
,1000,2023-10-27 10:42:40.30,100,-82,-2064,21,7,15,-504,610,-1114,-53
,1001,2023-10-27 10:42:40.31,106,-81,-2062,19,3,15,-520,667,-1187,-73
,1002,2023-10-27 10:42:40.32,93,-82,-2070,14,2,15,-503,620,-1123,-58
,1003,2023-10-27 10:42:40.33,95,-81,-2064,10,4,15,-516,660,-1176,-72
,1004,2023-10-27 10:42:40.34,93,-79,-2060,7,-4,14,-507,624,-1131,-58
,1005,2023-10-27 10:42:40.35,103,-84,-2055,2,-3,14,-511,656,-1167,-72
,1006,2023-10-27 10:42:40.36,100,-85,-2061,2,-2,14,-509,626,-1135,-58
,1007,2023-10-27 10:42:40.37,91,-77,-2062,-4,-3,15,-506,645,-1151,-69
,1008,2023-10-27 10:42:40.38,86,-88,-2056,-4,0,19,-513,624,-1137,-55
,1009,2023-10-27 10:42:40.39,98,-87,-2047,-7,-1,17,-502,646,-1148,-72
,1010,2023-10-27 10:42:40.40,99,-89,-2064,-10,0,24,-518,633,-1151,-57
,1011,2023-10-27 10:42:40.41,93,-73,-2068,-9,2,20,-496,645,-1141,-74
,1012,2023-10-27 10:42:40.42,106,-71,-2059,-7,8,18,-524,638,-1162,-57
,1013,2023-10-27 10:42:40.43,102,-74,-2055,-5,9,13,-490,636,-1126,-73
,1014,2023-10-27 10:42:40.44,97,-76,-2062,0,13,9,-525,643,-1168,-59
,1015,2023-10-27 10:42:40.45,108,-72,-2068,6,14,4,-483,630,-1113,-73
,1016,2023-10-27 10:42:40.46,96,-74,-2071,14,11,4,-529,645,-1174,-58
,1017,2023-10-27 10:42:40.47,97,-77,-2072,15,5,5,-474,636,-1110,-81
,1018,2023-10-27 10:42:40.48,101,-81,-2058,15,0,7,-534,655,-1189,-60
,1019,2023-10-27 10:42:40.49,99,-73,-2063,15,-2,10,-478,618,-1096,-70
,1020,2023-10-27 10:42:40.50,98,-77,-2060,14,-7,10,-540,649,-1189,-54
,1021,2023-10-27 10:42:40.51,83,-73,-2057,6,-6,14,-474,616,-1090,-71
,1022,2023-10-27 10:42:40.52,91,-80,-2060,3,-3,17,-540,670,-1210,-65
,1023,2023-10-27 10:42:40.53,103,-81,-2060,0,0,20,-471,614,-1085,-71
,1024,2023-10-27 10:42:40.54,93,-83,-2061,-7,5,24,-545,677,-1222,-66
,1025,2023-10-27 10:42:40.55,102,-75,-2062,-6,6,23,-469,618,-1087,-74
,1026,2023-10-27 10:42:40.56,93,-87,-2057,-2,5,22,-552,669,-1221,-58
,1027,2023-10-27 10:42:40.57,101,-76,-2047,6,4,21,-454,607,-1061,-76
,1028,2023-10-27 10:42:40.58,102,-76,-2049,14,3,16,-543,670,-1213,-63
,1029,2023-10-27 10:42:40.59,79,-80,-2066,21,1,12,-447,595,-1042,-74
,1030,2023-10-27 10:42:40.60,93,-81,-2071,27,3,10,-548,676,-1224,-64
,1031,2023-10-27 10:42:40.61,105,-87,-2062,30,0,8,-448,588,-1036,-70
,1032,2023-10-27 10:42:40.62,95,-93,-2072,30,1,10,-557,677,-1234,-60
,1033,2023-10-27 10:42:40.63,104,-99,-2074,23,2,15,-452,577,-1029,-62
,1034,2023-10-27 10:42:40.64,95,-102,-2065,15,1,20,-560,682,-1242,-61
,1035,2023-10-27 10:42:40.65,83,-103,-2056,9,2,28,-443,569,-1012,-63
,1036,2023-10-27 10:42:40.66,103,-101,-2060,-1,1,40,-560,685,-1245,-62
,1037,2023-10-27 10:42:40.67,101,-94,-2059,-4,1,46,-445,568,-1013,-61
,1038,2023-10-27 10:42:40.68,88,-91,-2057,-5,1,48,-566,689,-1255,-61
,1039,2023-10-27 10:42:40.69,108,-88,-2065,-8,1,47,-442,562,-1004,-60
,1040,2023-10-27 10:42:40.70,99,-83,-2065,-11,-3,45,-570,685,-1255,-57
,1041,2023-10-27 10:42:40.71,89,-74,-2069,-11,-5,40,-440,555,-995,-57
,1042,2023-10-27 10:42:40.72,95,-81,-2064,-12,-7,37,-574,691,-1265,-58
,1043,2023-10-27 10:42:40.73,89,-81,-2083,-8,-8,32,-438,559,-997,-60
,1044,2023-10-27 10:42:40.74,90,-82,-2065,-6,-10,28,-582,700,-1282,-59
,1045,2023-10-27 10:42:40.75,83,-78,-2061,-2,-14,24,-436,557,-993,-60
,1046,2023-10-27 10:42:40.76,89,-87,-2063,-2,-16,23,-581,705,-1286,-62
,1047,2023-10-27 10:42:40.77,92,-91,-2053,-1,-15,24,-427,550,-977,-61
,1048,2023-10-27 10:42:40.78,84,-93,-2055,6,-11,25,-580,708,-1288,-64
,1049,2023-10-27 10:42:40.79,92,-94,-2047,5,-4,28,-429,546,-975,-58
,1050,2023-10-27 10:42:40.80,100,-85,-2040,8,2,27,-584,717,-1301,-66
,1051,2023-10-27 10:42:40.81,99,-82,-2042,8,10,31,-429,545,-974,-58
,1052,2023-10-27 10:42:40.82,100,-90,-2054,10,15,31,-586,722,-1308,-68
,1053,2023-10-27 10:42:40.83,107,-73,-2057,10,13,29,-426,542,-968,-58
,1054,2023-10-27 10:42:40.84,97,-72,-2053,4,14,28,-589,723,-1312,-67
,1055,2023-10-27 10:42:40.85,105,-75,-2055,-1,12,24,-424,538,-962,-57
,1056,2023-10-27 10:42:40.86,119,-63,-2067,0,6,18,-590,720,-1310,-65
,1057,2023-10-27 10:42:40.87,110,-60,-2056,-10,-1,16,-419,531,-950,-56
,1058,2023-10-27 10:42:40.88,107,-67,-2065,-16,-9,16,-592,739,-1331,-73
,1059,2023-10-27 10:42:40.89,100,-64,-2065,-29,-14,16,-426,542,-968,-58
,1060,2023-10-27 10:42:40.90,107,-76,-2076,-43,-18,19,-603,736,-1339,-66
,1061,2023-10-27 10:42:40.91,100,-68,-2082,-42,-30,33,-426,529,-955,-51
,1062,2023-10-27 10:42:40.92,88,-68,-2114,-43,-44,41,-602,741,-1343,-69
,1063,2023-10-27 10:42:40.93,91,-85,-2127,-46,-59,44,-418,541,-959,-61
,1064,2023-10-27 10:42:40.94,87,-55,-2086,-40,-74,56,-600,750,-1350,-75
,1065,2023-10-27 10:42:40.95,106,-61,-2060,-35,-79,60,-414,534,-948,-60
,1066,2023-10-27 10:42:40.96,85,-71,-2048,-32,-81,64,-600,748,-1348,-74
,1067,2023-10-27 10:42:40.97,86,-75,-2040,-14,-70,71,-413,529,-942,-58
,1068,2023-10-27 10:42:40.98,88,-80,-2055,1,-56,71,-600,746,-1346,-73
,1069,2023-10-27 10:42:40.99,96,-86,-2065,14,-46,71,-413,520,-933,-53
,1070,2023-10-27 10:42:41.00,83,-71,-2073,25,-39,71,-603,736,-1339,-66
,1071,2023-10-27 10:42:41.01,79,-68,-2087,32,-37,73,-412,510,-922,-49
,1072,2023-10-27 10:42:41.02,63,-69,-2098,23,-39,73,-603,737,-1340,-67
,1073,2023-10-27 10:42:41.03,55,-48,-2101,14,-57,76,-410,512,-922,-51
,1074,2023-10-27 10:42:41.04,48,-42,-2115,-9,-70,82,-602,738,-1340,-68
,1075,2023-10-27 10:42:41.05,44,-39,-2110,-37,-79,90,-408,512,-920,-52
,1076,2023-10-27 10:42:41.06,33,-40,-2091,-62,-92,103,-604,743,-1347,-69
,1077,2023-10-27 10:42:41.07,27,-49,-2064,-81,-96,108,-409,520,-929,-55
,1078,2023-10-27 10:42:41.08,18,-51,-2034,-89,-110,121,-611,750,-1361,-69
,1079,2023-10-27 10:42:41.09,29,-82,-2063,-89,-111,129,-409,523,-932,-57
,1080,2023-10-27 10:42:41.10,-19,-57,-2049,-62,-149,150,-616,766,-1382,-75
,1081,2023-10-27 10:42:41.11,8,-24,-2024,-47,-157,146,-419,543,-962,-62
,1082,2023-10-27 10:42:41.12,3,-42,-2035,-63,-146,135,-612,777,-1389,-82
,1083,2023-10-27 10:42:41.13,-17,-25,-2040,-76,-129,139,-395,535,-930,-70
,1084,2023-10-27 10:42:41.14,-6,-13,-2019,-78,-119,133,-591,770,-1361,-89
,1085,2023-10-27 10:42:41.15,-14,-2,-2043,-88,-101,127,-391,527,-918,-68
,1086,2023-10-27 10:42:41.16,-46,-22,-2062,-89,-104,119,-590,760,-1350,-85
,1087,2023-10-27 10:42:41.17,-30,-7,-2074,-95,-95,116,-389,515,-904,-63
,1088,2023-10-27 10:42:41.18,-26,-23,-2088,-90,-106,116,-587,753,-1340,-83
,1089,2023-10-27 10:42:41.19,-32,6,-2055,-89,-102,111,-388,508,-896,-60
,1090,2023-10-27 10:42:41.20,-45,-33,-2068,-81,-88,94,-587,738,-1325,-75
,1091,2023-10-27 10:42:41.21,-2,-10,-2050,-60,-84,86,-392,497,-889,-52
,1092,2023-10-27 10:42:41.22,-21,-50,-2017,-45,-66,74,-597,739,-1336,-71
,1093,2023-10-27 10:42:41.23,-27,-13,-2005,-28,-52,68,-402,512,-914,-55
,1094,2023-10-27 10:42:41.24,-15,-33,-2024,-16,-21,61,-602,751,-1353,-74
,1095,2023-10-27 10:42:41.25,-24,-35,-2028,-5,10,56,-404,521,-925,-58
,1096,2023-10-27 10:42:41.26,-6,-18,-2058,-4,38,58,-601,755,-1356,-77
,1097,2023-10-27 10:42:41.27,10,-8,-2060,2,66,47,-406,521,-927,-57
,1098,2023-10-27 10:42:41.28,25,19,-2063,7,87,41,-603,753,-1356,-75
,1099,2023-10-27 10:42:41.29,42,18,-2041,4,115,30,-402,530,-932,-64
,1100,2023-10-27 10:42:41.30,36,50,-2087,13,125,19,-601,766,-1367,-82
,1101,2023-10-27 10:42:41.31,35,47,-2097,11,131,8,-410,532,-942,-61
,1102,2023-10-27 10:42:41.32,40,63,-2128,11,130,-1,-602,760,-1362,-79
,1103,2023-10-27 10:42:41.33,22,70,-2129,1,118,-12,-413,535,-948,-61
,1104,2023-10-27 10:42:41.34,38,89,-2098,-13,99,-19,-596,778,-1374,-91
,1105,2023-10-27 10:42:41.35,76,125,-2064,-50,113,-35,-415,542,-957,-63
,1106,2023-10-27 10:42:41.36,72,93,-2072,-68,104,-38,-595,774,-1369,-89
,1107,2023-10-27 10:42:41.37,69,104,-2067,-83,93,-38,-416,550,-966,-67
,1108,2023-10-27 10:42:41.38,73,119,-2053,-105,78,-43,-598,774,-1372,-88
,1109,2023-10-27 10:42:41.39,78,96,-2052,-126,64,-46,-418,555,-973,-68
,1110,2023-10-27 10:42:41.40,86,89,-2062,-132,41,-41,-597,772,-1369,-87
,1111,2023-10-27 10:42:41.41,57,88,-2075,-124,12,-31,-425,551,-976,-63
,1112,2023-10-27 10:42:41.42,63,99,-2070,-111,-31,-15,-600,773,-1373,-86
,1113,2023-10-27 10:42:41.43,56,108,-2088,-111,-73,-6,-432,556,-988,-62
,1114,2023-10-27 10:42:41.44,41,104,-2083,-106,-105,8,-642,835,-1477,-96
,1115,2023-10-27 10:42:41.45,35,114,-2090,-107,-119,23,-503,659,-1162,-78
,1116,2023-10-27 10:42:41.46,42,85,-2081,-93,-140,33,-613,826,-1439,-106
,1117,2023-10-27 10:42:41.47,31,102,-2078,-84,-153,40,-413,571,-984,-79
,1118,2023-10-27 10:42:41.48,13,74,-2060,-76,-165,54,-554,750,-1304,-98
,1119,2023-10-27 10:42:41.49,11,50,-2056,-50,-185,64,-412,560,-972,-74
,1120,2023-10-27 10:42:41.50,32,63,-2066,-25,-176,78,-575,771,-1346,-98
,1121,2023-10-27 10:42:41.51,-7,80,-2032,29,-175,87,-432,588,-1020,-78
,1122,2023-10-27 10:42:41.52,29,38,-2017,88,-167,94,-576,778,-1354,-101
,1123,2023-10-27 10:42:41.53,15,30,-2012,125,-132,102,-431,594,-1025,-81
,1124,2023-10-27 10:42:41.54,3,-5,-2011,167,-81,106,-572,784,-1356,-106
,1125,2023-10-27 10:42:41.55,11,11,-1979,229,-46,116,-435,602,-1037,-83
,1126,2023-10-27 10:42:41.56,8,-35,-1999,272,1,118,-569,784,-1353,-107
,1127,2023-10-27 10:42:41.57,20,-52,-1985,326,33,113,-440,608,-1048,-84
,1128,2023-10-27 10:42:41.58,17,-83,-1991,382,71,114,-566,786,-1352,-110
,1129,2023-10-27 10:42:41.59,34,-118,-2013,417,109,118,-448,617,-1065,-84
,1130,2023-10-27 10:42:41.60,39,-170,-2006,436,146,122,-559,788,-1347,-114
,1131,2023-10-27 10:42:41.61,31,-211,-2022,469,171,122,-443,625,-1068,-91
,1132,2023-10-27 10:42:41.62,58,-220,-2027,494,177,126,-549,785,-1334,-118
,1133,2023-10-27 10:42:41.63,66,-210,-2032,502,165,132,-441,633,-1074,-96
,1134,2023-10-27 10:42:41.64,90,-224,-2018,490,181,134,-542,776,-1318,-117
,1135,2023-10-27 10:42:41.65,84,-216,-2021,470,191,128,-439,629,-1068,-95
,1136,2023-10-27 10:42:41.66,103,-211,-2027,451,205,116,-531,769,-1300,-119
,1137,2023-10-27 10:42:41.67,92,-229,-2035,430,204,105,-437,634,-1071,-98
,1138,2023-10-27 10:42:41.68,113,-211,-2043,397,206,90,-529,762,-1291,-116
,1139,2023-10-27 10:42:41.69,115,-216,-2065,359,200,72,-446,626,-1072,-90
,1140,2023-10-27 10:42:41.70,112,-227,-2059,327,179,59,-521,757,-1278,-118
,1141,2023-10-27 10:42:41.71,110,-238,-2096,292,159,47,-448,614,-1062,-83
,1142,2023-10-27 10:42:41.72,133,-252,-2091,259,136,40,-519,729,-1248,-105
,1143,2023-10-27 10:42:41.73,122,-257,-2075,229,103,29,-451,607,-1058,-78
,1144,2023-10-27 10:42:41.74,148,-265,-2065,212,86,23,-515,723,-1238,-104
,1145,2023-10-27 10:42:41.75,136,-279,-2048,200,60,16,-459,615,-1074,-78
,1146,2023-10-27 10:42:41.76,140,-277,-2067,184,62,7,-525,709,-1234,-92
,1147,2023-10-27 10:42:41.77,139,-270,-2059,175,53,3,-473,626,-1099,-76
,1148,2023-10-27 10:42:41.78,134,-258,-2074,165,56,-4,-525,711,-1236,-93
,1149,2023-10-27 10:42:41.79,133,-252,-2042,134,66,-16,-482,631,-1113,-74
,1150,2023-10-27 10:42:41.80,131,-277,-2093,102,68,-12,-525,704,-1229,-89
,1151,2023-10-27 10:42:41.81,122,-265,-2115,90,56,-9,-486,628,-1114,-71
,1152,2023-10-27 10:42:41.82,107,-249,-2099,80,33,-3,-524,694,-1218,-85
,1153,2023-10-27 10:42:41.83,98,-236,-2100,63,11,3,-493,627,-1120,-67
,1154,2023-10-27 10:42:41.84,89,-231,-2104,34,4,6,-522,687,-1209,-82
,1155,2023-10-27 10:42:41.85,80,-210,-2082,13,-7,13,-500,630,-1130,-65
,1156,2023-10-27 10:42:41.86,102,-210,-2075,4,-17,15,-521,681,-1202,-80
,1157,2023-10-27 10:42:41.87,86,-200,-2072,-12,-26,19,-509,634,-1143,-62
,1158,2023-10-27 10:42:41.88,86,-197,-2071,-17,-32,20,-521,674,-1195,-76
,1159,2023-10-27 10:42:41.89,92,-199,-2045,-18,-37,19,-517,634,-1151,-58
,1160,2023-10-27 10:42:41.90,82,-194,-2039,-13,-37,15,-520,664,-1184,-72
,1161,2023-10-27 10:42:41.91,79,-196,-2055,-4,-34,10,-522,639,-1161,-58
,1162,2023-10-27 10:42:41.92,75,-179,-2047,8,-34,4,-514,656,-1170,-71
,1163,2023-10-27 10:42:41.93,69,-190,-2040,15,-28,5,-524,641,-1165,-58
,1164,2023-10-27 10:42:41.94,73,-178,-2041,21,-23,6,-508,648,-1156,-70
,1165,2023-10-27 10:42:41.95,70,-178,-2037,20,-24,7,-524,648,-1172,-62
,1166,2023-10-27 10:42:41.96,58,-174,-2050,20,-24,9,-499,642,-1141,-71
,1167,2023-10-27 10:42:41.97,46,-176,-2059,15,-25,10,-522,648,-1170,-63
,1168,2023-10-27 10:42:41.98,39,-174,-2059,11,-30,10,-492,631,-1123,-69
,1169,2023-10-27 10:42:41.99,49,-182,-2055,8,-33,13,-528,649,-1177,-60
,1170,2023-10-27 10:42:42.00,53,-197,-2057,2,-27,10,-486,613,-1099,-63
,1171,2023-10-27 10:42:42.01,53,-185,-2046,-2,-22,11,-529,640,-1169,-55
,1172,2023-10-27 10:42:42.02,41,-187,-2050,2,-20,14,-478,603,-1081,-62
,1173,2023-10-27 10:42:42.03,36,-208,-2039,17,-10,18,-531,645,-1176,-57
,1174,2023-10-27 10:42:42.04,43,-204,-2054,28,0,27,-474,598,-1072,-62
,1175,2023-10-27 10:42:42.05,40,-191,-2047,33,4,29,-539,645,-1184,-53
,1176,2023-10-27 10:42:42.06,51,-196,-2059,35,3,29,-469,594,-1063,-62
,1177,2023-10-27 10:42:42.07,64,-186,-2047,32,5,25,-541,656,-1197,-57
,1178,2023-10-27 10:42:42.08,56,-195,-2035,29,12,24,-467,592,-1059,-62
,1179,2023-10-27 10:42:42.09,64,-198,-2048,27,23,17,-548,662,-1210,-57
,1180,2023-10-27 10:42:42.10,60,-202,-2058,20,30,17,-464,584,-1048,-60
,1181,2023-10-27 10:42:42.11,56,-199,-2063,18,32,12,-542,677,-1219,-67
,1182,2023-10-27 10:42:42.12,55,-210,-2057,22,30,10,-455,586,-1041,-65
,1183,2023-10-27 10:42:42.13,61,-214,-2054,22,26,9,-545,679,-1224,-67
,1184,2023-10-27 10:42:42.14,78,-216,-2041,28,24,10,-450,581,-1031,-65
,1185,2023-10-27 10:42:42.15,68,-213,-2042,34,26,10,-547,684,-1231,-68
,1186,2023-10-27 10:42:42.16,72,-217,-2040,29,29,11,-449,586,-1035,-68
,1187,2023-10-27 10:42:42.17,76,-214,-2046,28,32,13,-554,690,-1244,-68
,1188,2023-10-27 10:42:42.18,65,-218,-2041,23,29,14,-451,582,-1033,-65
,1189,2023-10-27 10:42:42.19,71,-212,-2046,18,23,19,-562,693,-1255,-65
,1190,2023-10-27 10:42:42.20,64,-208,-2052,9,22,18,-457,570,-1027,-56
