// Data mode  : Full
// Data quality  : High
// Acceleration sensor's range  : 16g
// Gyroscope sensor's range  : 2000dps
//
//ARTIFACT,NUM,DATE,ACC_X,ACC_Y,ACC_Z,GYRO_X,GYRO_Y,GYRO_Z,EOG_L,EOG_R,EOG_H,EOG_V
,1,2023-10-20 13:10:58.88,73,-322,-2036,15,5,16,558,56,502,-307
,2,2023-10-20 13:10:58.89,59,-311,-2038,13,5,17,793,196,597,-494
,3,2023-10-20 13:10:58.90,56,-318,-2046,9,2,19,562,55,507,-308
,4,2023-10-20 13:10:58.91,60,-310,-2049,6,2,20,795,196,599,-495
,5,2023-10-20 13:10:58.92,57,-311,-2045,0,1,22,570,57,513,-313
,6,2023-10-20 13:10:58.93,53,-308,-2042,0,2,22,798,205,593,-501
,7,2023-10-20 13:10:58.94,61,-309,-2038,-1,-3,23,571,59,512,-315
,8,2023-10-20 13:10:58.95,65,-307,-2043,-2,-3,24,799,209,590,-504
,9,2023-10-20 13:10:58.96,56,-309,-2028,0,-3,24,574,55,519,-314
,10,2023-10-20 13:10:58.97,56,-303,-2032,3,-1,24,795,208,587,-501
,11,2023-10-20 13:10:58.98,54,-295,-2020,3,0,24,572,53,519,-312
,12,2023-10-20 13:10:58.99,47,-297,-2031,5,-2,20,790,210,580,-500
,13,2023-10-20 13:10:59.00,58,-302,-2026,9,1,20,570,52,518,-311
,14,2023-10-20 13:10:59.01,55,-300,-2031,12,3,17,787,204,583,-495
,15,2023-10-20 13:10:59.02,56,-309,-2041,13,2,19,578,50,528,-314
,16,2023-10-20 13:10:59.03,53,-311,-2051,14,2,18,781,203,578,-492
,17,2023-10-20 13:10:59.04,67,-306,-2040,14,0,22,570,43,527,-306
,18,2023-10-20 13:10:59.05,47,-303,-2039,11,-1,23,776,199,577,-487
,19,2023-10-20 13:10:59.06,62,-311,-2041,12,-1,25,572,43,529,-307
,20,2023-10-20 13:10:59.07,60,-308,-2038,9,1,25,773,203,570,-488
,21,2023-10-20 13:10:59.08,54,-304,-2041,8,2,23,569,39,530,-304
,22,2023-10-20 13:10:59.09,54,-309,-2037,9,3,19,768,201,567,-484
,23,2023-10-20 13:10:59.10,57,-304,-2037,12,6,17,576,39,537,-307
,24,2023-10-20 13:10:59.11,52,-309,-2043,9,6,14,757,197,560,-477
,25,2023-10-20 13:10:59.12,48,-315,-2050,14,6,14,576,38,538,-307
,26,2023-10-20 13:10:59.13,48,-311,-2048,15,0,14,762,205,557,-483
,27,2023-10-20 13:10:59.14,54,-314,-2033,16,0,15,583,41,542,-312
,28,2023-10-20 13:10:59.15,56,-314,-2035,19,0,17,767,214,553,-490
,29,2023-10-20 13:10:59.16,54,-306,-2039,17,-1,16,591,48,543,-319
,30,2023-10-20 13:10:59.17,60,-314,-2044,10,0,16,766,215,551,-490
,31,2023-10-20 13:10:59.18,61,-309,-2042,6,-2,17,592,44,548,-318
,32,2023-10-20 13:10:59.19,51,-316,-2041,5,-1,18,759,213,546,-486
,33,2023-10-20 13:10:59.20,71,-311,-2043,4,1,18,590,41,549,-315
,34,2023-10-20 13:10:59.21,58,-314,-2040,4,-2,20,754,211,543,-482
,35,2023-10-20 13:10:59.22,50,-309,-2041,2,-4,22,595,43,552,-319
,36,2023-10-20 13:10:59.23,58,-308,-2035,2,-1,25,747,207,540,-477
,37,2023-10-20 13:10:59.24,57,-307,-2035,3,-2,27,587,35,552,-311
,38,2023-10-20 13:10:59.25,56,-305,-2038,0,0,25,730,200,530,-465
,39,2023-10-20 13:10:59.26,60,-299,-2036,2,0,21,584,32,552,-308
,40,2023-10-20 13:10:59.27,46,-297,-2031,1,-2,18,730,204,526,-467
,41,2023-10-20 13:10:59.28,48,-303,-2032,4,-1,15,598,37,561,-317
,42,2023-10-20 13:10:59.29,48,-303,-2037,5,-2,15,732,203,529,-467
,43,2023-10-20 13:10:59.30,52,-297,-2033,9,1,16,597,34,563,-315
,44,2023-10-20 13:10:59.31,50,-306,-2037,9,1,15,723,198,525,-460
,45,2023-10-20 13:10:59.32,64,-307,-2033,10,5,12,603,36,567,-319
,46,2023-10-20 13:10:59.33,60,-297,-2032,13,5,13,723,201,522,-462
,47,2023-10-20 13:10:59.34,52,-303,-2030,13,9,13,610,40,570,-325
,48,2023-10-20 13:10:59.35,52,-304,-2036,15,9,12,721,198,523,-459
,49,2023-10-20 13:10:59.36,56,-303,-2039,15,10,11,613,39,574,-326
,50,2023-10-20 13:10:59.37,56,-307,-2046,14,9,10,714,199,515,-456
,51,2023-10-20 13:10:59.38,58,-308,-2053,17,11,10,619,43,576,-331
,52,2023-10-20 13:10:59.39,57,-312,-2044,17,10,11,714,202,512,-458
,53,2023-10-20 13:10:59.40,52,-314,-2045,14,9,11,626,47,579,-336
,54,2023-10-20 13:10:59.41,64,-315,-2038,14,8,12,712,202,510,-457
,55,2023-10-20 13:10:59.42,57,-316,-2035,13,10,12,631,48,583,-339
,56,2023-10-20 13:10:59.43,48,-317,-2035,16,10,12,713,206,507,-459
,57,2023-10-20 13:10:59.44,58,-312,-2039,10,12,11,638,50,588,-344
,58,2023-10-20 13:10:59.45,57,-309,-2038,9,8,10,703,198,505,-450
,59,2023-10-20 13:10:59.46,68,-311,-2045,4,7,9,640,47,593,-343
,60,2023-10-20 13:10:59.47,54,-315,-2038,1,5,11,695,193,502,-444
,61,2023-10-20 13:10:59.48,56,-307,-2043,1,-2,11,641,51,590,-346
,62,2023-10-20 13:10:59.49,68,-313,-2043,0,-5,12,690,193,497,-441
,63,2023-10-20 13:10:59.50,53,-316,-2042,2,-6,15,650,59,591,-354
,64,2023-10-20 13:10:59.51,61,-309,-2029,3,-6,17,690,198,492,-444
,65,2023-10-20 13:10:59.52,51,-311,-2036,5,-1,18,642,51,591,-346
,66,2023-10-20 13:10:59.53,55,-308,-2034,3,1,19,684,191,493,-437
,67,2023-10-20 13:10:59.54,59,-302,-2029,5,3,21,659,61,598,-360
,68,2023-10-20 13:10:59.55,51,-305,-2030,1,3,19,682,191,491,-436
,69,2023-10-20 13:10:59.56,55,-299,-2034,2,2,20,666,65,601,-365
,70,2023-10-20 13:10:59.57,59,-298,-2040,2,1,17,680,193,487,-436
,71,2023-10-20 13:10:59.58,60,-296,-2031,5,-3,16,667,65,602,-366
,72,2023-10-20 13:10:59.59,48,-304,-2034,5,-5,18,667,177,490,-422
,73,2023-10-20 13:10:59.60,59,-307,-2035,9,-3,18,666,62,604,-364
,74,2023-10-20 13:10:59.61,55,-307,-2039,9,-1,20,664,183,481,-423
,75,2023-10-20 13:10:59.62,57,-303,-2038,13,-1,18,684,75,609,-379
,76,2023-10-20 13:10:59.63,51,-310,-2037,15,-1,19,674,187,487,-430
,77,2023-10-20 13:10:59.64,55,-304,-2041,16,-4,22,694,77,617,-385
,78,2023-10-20 13:10:59.65,45,-306,-2037,19,-4,21,664,175,489,-419
,79,2023-10-20 13:10:59.66,51,-312,-2039,20,-1,20,688,74,614,-381
,80,2023-10-20 13:10:59.67,50,-299,-2038,20,5,19,653,174,479,-413
,81,2023-10-20 13:10:59.68,55,-306,-2040,19,8,15,694,80,614,-387
,82,2023-10-20 13:10:59.69,62,-306,-2044,18,9,14,654,177,477,-415
,83,2023-10-20 13:10:59.70,57,-306,-2046,13,11,14,704,84,620,-394
,84,2023-10-20 13:10:59.71,49,-314,-2047,13,10,15,649,169,480,-409
,85,2023-10-20 13:10:59.72,47,-308,-2042,15,5,16,701,84,617,-392
,86,2023-10-20 13:10:59.73,45,-317,-2036,15,-1,17,638,165,473,-401
,87,2023-10-20 13:10:59.74,61,-311,-2034,14,-4,18,708,92,616,-400
,88,2023-10-20 13:10:59.75,51,-308,-2040,10,-2,17,642,176,466,-409
,89,2023-10-20 13:10:59.76,50,-301,-2050,5,1,14,715,99,616,-407
,90,2023-10-20 13:10:59.77,50,-305,-2049,2,5,16,630,164,466,-397
,91,2023-10-20 13:10:59.78,56,-307,-2041,-2,1,14,715,91,624,-403
,92,2023-10-20 13:10:59.79,51,-302,-2035,0,-3,17,627,157,470,-392
,93,2023-10-20 13:10:59.80,54,-305,-2030,2,3,15,720,98,622,-409
,94,2023-10-20 13:10:59.81,47,-299,-2023,2,3,15,622,158,464,-390
,95,2023-10-20 13:10:59.82,61,-304,-2029,4,3,15,725,106,619,-415
,96,2023-10-20 13:10:59.83,50,-295,-2033,7,6,13,622,158,464,-390
,97,2023-10-20 13:10:59.84,60,-299,-2034,8,10,13,734,113,621,-423
,98,2023-10-20 13:10:59.85,53,-297,-2036,9,11,11,615,147,468,-381
,99,2023-10-20 13:10:59.86,67,-304,-2038,11,11,9,728,103,625,-415
,100,2023-10-20 13:10:59.87,63,-310,-2038,12,13,10,603,137,466,-370
,101,2023-10-20 13:10:59.88,59,-313,-2039,14,11,8,727,99,628,-413
,102,2023-10-20 13:10:59.89,56,-309,-2040,19,13,10,600,134,466,-367
,103,2023-10-20 13:10:59.90,56,-311,-2037,16,12,13,722,95,627,-408
,104,2023-10-20 13:10:59.91,53,-313,-2048,15,13,15,595,126,469,-360
,105,2023-10-20 13:10:59.92,51,-307,-2036,14,10,14,729,100,629,-414
,106,2023-10-20 13:10:59.93,62,-307,-2036,15,10,14,588,125,463,-356
,107,2023-10-20 13:10:59.94,55,-308,-2039,15,8,14,733,107,626,-420
,108,2023-10-20 13:10:59.95,54,-315,-2038,16,6,13,581,121,460,-351
,109,2023-10-20 13:10:59.96,57,-308,-2043,15,6,14,732,106,626,-419
,110,2023-10-20 13:10:59.97,58,-308,-2033,17,5,15,577,112,465,-344
,111,2023-10-20 13:10:59.98,52,-313,-2032,14,5,13,733,105,628,-419
,112,2023-10-20 13:10:59.99,64,-320,-2038,17,5,13,571,107,464,-339
,113,2023-10-20 13:11:00.00,55,-311,-2042,13,7,11,739,111,628,-425
,114,2023-10-20 13:11:00.01,61,-318,-2041,9,9,11,574,111,463,-342
,115,2023-10-20 13:11:00.02,58,-318,-2043,8,9,12,746,117,629,-431
,116,2023-10-20 13:11:00.03,63,-312,-2046,6,8,14,571,104,467,-337
,117,2023-10-20 13:11:00.04,55,-311,-2037,8,5,14,743,115,628,-429
,118,2023-10-20 13:11:00.05,64,-305,-2035,6,5,15,564,100,464,-332
,119,2023-10-20 13:11:00.06,65,-312,-2045,2,3,16,750,123,627,-436
,120,2023-10-20 13:11:00.07,59,-313,-2030,3,4,16,569,106,463,-337
,121,2023-10-20 13:11:00.08,61,-307,-2042,3,2,18,762,134,628,-448
,122,2023-10-20 13:11:00.09,64,-304,-2035,2,-1,18,572,106,466,-339
,123,2023-10-20 13:11:00.10,53,-310,-2039,3,-3,21,766,134,632,-450
,124,2023-10-20 13:11:00.11,56,-298,-2038,3,-5,21,563,98,465,-330
,125,2023-10-20 13:11:00.12,54,-303,-2033,3,-3,21,766,138,628,-452
,126,2023-10-20 13:11:00.13,53,-299,-2029,5,-1,22,563,97,466,-330
,127,2023-10-20 13:11:00.14,48,-304,-2028,6,1,20,770,148,622,-459
,128,2023-10-20 13:11:00.15,56,-309,-2034,7,3,22,569,104,465,-336
,129,2023-10-20 13:11:00.16,57,-308,-2044,9,1,24,787,163,624,-475
,130,2023-10-20 13:11:00.17,56,-313,-2049,9,-1,28,576,107,469,-341
,131,2023-10-20 13:11:00.18,56,-310,-2048,9,-2,27,782,158,624,-470
,132,2023-10-20 13:11:00.19,59,-313,-2045,12,-3,27,554,87,467,-320
,133,2023-10-20 13:11:00.20,45,-315,-2036,14,-4,28,761,137,624,-449
,134,2023-10-20 13:11:00.21,57,-315,-2036,17,-3,28,542,69,473,-305
,135,2023-10-20 13:11:00.22,48,-314,-2045,18,1,29,764,138,626,-451
,136,2023-10-20 13:11:00.23,48,-310,-2043,19,-1,27,550,73,477,-311
,137,2023-10-20 13:11:00.24,50,-318,-2040,21,4,27,776,152,624,-464
,138,2023-10-20 13:11:00.25,56,-311,-2039,21,5,24,554,80,474,-317
,139,2023-10-20 13:11:00.26,61,-310,-2034,20,7,22,772,156,616,-464
,140,2023-10-20 13:11:00.27,61,-309,-2044,18,6,20,548,74,474,-311
,141,2023-10-20 13:11:00.28,43,-314,-2043,15,5,14,783,160,623,-471
,142,2023-10-20 13:11:00.29,46,-316,-2033,15,3,16,556,77,479,-316
,143,2023-10-20 13:11:00.30,50,-318,-2029,12,2,16,788,170,618,-479
,144,2023-10-20 13:11:00.31,52,-322,-2035,10,6,14,547,67,480,-307
,145,2023-10-20 13:11:00.32,60,-305,-2034,8,10,13,789,168,621,-478
,146,2023-10-20 13:11:00.33,58,-310,-2029,4,7,14,555,66,489,-310
,147,2023-10-20 13:11:00.34,53,-302,-2026,0,8,13,788,170,618,-479
,148,2023-10-20 13:11:00.35,52,-301,-2031,-5,8,11,549,65,484,-307
,149,2023-10-20 13:11:00.36,52,-300,-2034,-6,7,9,786,172,614,-479
,150,2023-10-20 13:11:00.37,54,-310,-2037,-8,7,10,553,63,490,-308
,151,2023-10-20 13:11:00.38,55,-302,-2040,-7,9,8,789,179,610,-484
,152,2023-10-20 13:11:00.39,49,-295,-2031,-6,9,11,552,63,489,-307
,153,2023-10-20 13:11:00.40,50,-291,-2032,-6,9,6,785,175,610,-480
,154,2023-10-20 13:11:00.41,63,-297,-2042,-6,8,9,545,53,492,-299
,155,2023-10-20 13:11:00.42,57,-302,-2041,-1,11,7,785,176,609,-480
,156,2023-10-20 13:11:00.43,61,-307,-2040,4,11,10,552,53,499,-302
,157,2023-10-20 13:11:00.44,71,-304,-2045,9,9,8,782,177,605,-479
,158,2023-10-20 13:11:00.45,50,-310,-2038,15,10,9,549,46,503,-297
,159,2023-10-20 13:11:00.46,55,-310,-2040,15,8,13,774,173,601,-473
,160,2023-10-20 13:11:00.47,52,-312,-2034,19,13,12,532,29,503,-280
,161,2023-10-20 13:11:00.48,64,-309,-2042,19,15,13,752,152,600,-452
,162,2023-10-20 13:11:00.49,71,-310,-2037,18,16,13,519,16,503,-267
,163,2023-10-20 13:11:00.50,69,-309,-2034,17,18,14,748,153,595,-450
,164,2023-10-20 13:11:00.51,56,-309,-2042,16,12,13,522,20,502,-271
,165,2023-10-20 13:11:00.52,60,-307,-2035,12,9,16,752,160,592,-456
,166,2023-10-20 13:11:00.53,56,-320,-2040,12,6,20,532,18,514,-275
,167,2023-10-20 13:11:00.54,63,-313,-2040,14,3,22,760,163,597,-461
,168,2023-10-20 13:11:00.55,61,-312,-2027,11,0,21,535,20,515,-277
,169,2023-10-20 13:11:00.56,54,-305,-2024,7,3,23,760,171,589,-465
,170,2023-10-20 13:11:00.57,48,-306,-2035,3,9,23,544,27,517,-285
,171,2023-10-20 13:11:00.58,61,-305,-2045,4,9,22,771,183,588,-477
,172,2023-10-20 13:11:00.59,48,-295,-2050,3,9,20,553,33,520,-293
,173,2023-10-20 13:11:00.60,60,-296,-2044,2,7,20,779,191,588,-485
,174,2023-10-20 13:11:00.61,65,-293,-2029,1,7,17,558,36,522,-297
,175,2023-10-20 13:11:00.62,65,-299,-2042,0,8,14,771,196,575,-483
,176,2023-10-20 13:11:00.63,52,-295,-2041,2,10,13,562,39,523,-300
,177,2023-10-20 13:11:00.64,59,-302,-2031,6,10,14,776,202,574,-489
,178,2023-10-20 13:11:00.65,59,-301,-2042,6,12,10,563,36,527,-299
,179,2023-10-20 13:11:00.66,59,-297,-2037,6,12,10,780,209,571,-494
,180,2023-10-20 13:11:00.67,61,-298,-2042,6,12,9,571,38,533,-304
,181,2023-10-20 13:11:00.68,62,-300,-2051,4,14,8,777,201,576,-489
,182,2023-10-20 13:11:00.69,56,-310,-2046,8,11,7,575,34,541,-304
,183,2023-10-20 13:11:00.70,48,-305,-2048,11,7,11,776,207,569,-491
,184,2023-10-20 13:11:00.71,64,-314,-2040,15,6,13,581,42,539,-311
,185,2023-10-20 13:11:00.72,50,-309,-2041,18,8,16,772,209,563,-490
,186,2023-10-20 13:11:00.73,72,-312,-2042,22,8,21,592,51,541,-321
,187,2023-10-20 13:11:00.74,62,-302,-2034,20,6,22,782,222,560,-502
,188,2023-10-20 13:11:00.75,65,-309,-2038,20,6,23,594,51,543,-322
,189,2023-10-20 13:11:00.76,64,-300,-2039,17,9,19,773,218,555,-495
,190,2023-10-20 13:11:00.77,52,-301,-2035,15,8,19,593,48,545,-320
,191,2023-10-20 13:11:00.78,72,-310,-2041,13,7,15,769,219,550,-494
,192,2023-10-20 13:11:00.79,50,-318,-2037,12,8,16,596,46,550,-321
,193,2023-10-20 13:11:00.80,63,-314,-2030,11,6,15,767,216,551,-491
,194,2023-10-20 13:11:00.81,64,-315,-2036,13,6,15,601,46,555,-323
,195,2023-10-20 13:11:00.82,65,-310,-2036,10,6,14,757,211,546,-484
,196,2023-10-20 13:11:00.83,58,-308,-2037,4,5,15,594,37,557,-315
,197,2023-10-20 13:11:00.84,59,-313,-2040,3,7,12,751,210,541,-480
,198,2023-10-20 13:11:00.85,58,-314,-2045,3,6,12,604,44,560,-324
,199,2023-10-20 13:11:00.86,62,-312,-2047,3,3,10,753,214,539,-483
,200,2023-10-20 13:11:00.87,60,-311,-2038,-1,1,11,606,43,563,-324
,201,2023-10-20 13:11:00.88,62,-313,-2033,-1,2,12,745,207,538,-476
,202,2023-10-20 13:11:00.89,61,-305,-2042,-6,1,12,606,41,565,-323
,203,2023-10-20 13:11:00.90,54,-301,-2045,-5,1,13,742,210,532,-476
,204,2023-10-20 13:11:00.91,46,-296,-2045,-5,-4,12,616,47,569,-331
,205,2023-10-20 13:11:00.92,63,-302,-2045,-3,-4,11,737,210,527,-473
,206,2023-10-20 13:11:00.93,69,-300,-2034,-3,-5,11,617,46,571,-331
,207,2023-10-20 13:11:00.94,62,-294,-2036,-2,-1,12,736,206,530,-471
,208,2023-10-20 13:11:00.95,48,-300,-2041,-3,0,12,619,41,578,-330
,209,2023-10-20 13:11:00.96,62,-297,-2042,-2,1,13,725,203,522,-464
,210,2023-10-20 13:11:00.97,67,-301,-2042,-2,5,14,621,42,579,-331
,211,2023-10-20 13:11:00.98,68,-294,-2034,-3,9,13,723,202,521,-462
,212,2023-10-20 13:11:00.99,59,-294,-2040,0,8,13,627,45,582,-336
,213,2023-10-20 13:11:01.00,60,-294,-2038,2,6,13,720,204,516,-462
,214,2023-10-20 13:11:01.01,63,-296,-2039,4,7,10,637,51,586,-344
,215,2023-10-20 13:11:01.02,58,-299,-2040,5,9,11,718,202,516,-460
,216,2023-10-20 13:11:01.03,58,-298,-2038,6,8,9,635,50,585,-342
,217,2023-10-20 13:11:01.04,63,-295,-2044,6,11,7,708,202,506,-455
,218,2023-10-20 13:11:01.05,67,-298,-2042,10,11,7,641,53,588,-347
,219,2023-10-20 13:11:01.06,62,-299,-2041,11,10,3,701,199,502,-450
,220,2023-10-20 13:11:01.07,54,-303,-2046,9,5,6,644,55,589,-349
,221,2023-10-20 13:11:01.08,56,-305,-2043,13,4,5,694,190,504,-442
,222,2023-10-20 13:11:01.09,53,-303,-2035,15,5,4,647,50,597,-348
,223,2023-10-20 13:11:01.10,64,-305,-2038,15,7,8,690,188,502,-439
,224,2023-10-20 13:11:01.11,62,-309,-2039,16,7,11,647,50,597,-348
,225,2023-10-20 13:11:01.12,61,-306,-2043,17,6,12,683,186,497,-434
,226,2023-10-20 13:11:01.13,63,-306,-2043,17,6,15,653,55,598,-354
,227,2023-10-20 13:11:01.14,70,-302,-2037,15,4,15,681,188,493,-434
,228,2023-10-20 13:11:01.15,66,-304,-2039,17,1,16,658,58,600,-358
,229,2023-10-20 13:11:01.16,61,-301,-2030,15,1,16,659,172,487,-415
,230,2023-10-20 13:11:01.17,51,-297,-2038,13,3,13,658,59,599,-358
,231,2023-10-20 13:11:01.18,62,-301,-2035,12,1,15,665,178,487,-421
,232,2023-10-20 13:11:01.19,62,-297,-2038,9,2,16,658,54,604,-356
,233,2023-10-20 13:11:01.20,61,-308,-2040,8,4,15,660,171,489,-415
,234,2023-10-20 13:11:01.21,73,-303,-2046,5,3,16,666,58,608,-362
,235,2023-10-20 13:11:01.22,59,-303,-2038,7,4,16,658,172,486,-415
,236,2023-10-20 13:11:01.23,60,-299,-2032,9,4,16,676,66,610,-371
,237,2023-10-20 13:11:01.24,62,-302,-2035,10,4,16,657,173,484,-415
,238,2023-10-20 13:11:01.25,63,-303,-2038,10,6,15,674,67,607,-370
,239,2023-10-20 13:11:01.26,70,-297,-2042,12,9,17,646,169,477,-407
,240,2023-10-20 13:11:01.27,63,-297,-2046,13,8,14,681,69,612,-375
,241,2023-10-20 13:11:01.28,67,-305,-2040,9,11,16,646,166,480,-406
,242,2023-10-20 13:11:01.29,69,-316,-2047,12,13,16,690,74,616,-382
,243,2023-10-20 13:11:01.30,54,-300,-2040,16,9,16,645,167,478,-406
,244,2023-10-20 13:11:01.31,63,-312,-2040,17,9,18,699,80,619,-389
,245,2023-10-20 13:11:01.32,70,-308,-2039,19,5,16,639,163,476,-401
,246,2023-10-20 13:11:01.33,66,-304,-2036,24,4,18,702,83,619,-392
,247,2023-10-20 13:11:01.34,59,-308,-2028,25,6,15,633,163,470,-398
,248,2023-10-20 13:11:01.35,65,-304,-2042,20,6,13,706,89,617,-397
,249,2023-10-20 13:11:01.36,63,-309,-2047,17,8,12,632,162,470,-397
,250,2023-10-20 13:11:01.37,49,-303,-2048,17,8,11,713,94,619,-403
,251,2023-10-20 13:11:01.38,62,-304,-2048,14,5,11,629,161,468,-395
,252,2023-10-20 13:11:01.39,62,-303,-2044,11,3,12,716,95,621,-405
,253,2023-10-20 13:11:01.40,68,-309,-2044,9,4,10,624,152,472,-388
,254,2023-10-20 13:11:01.41,61,-301,-2046,7,4,8,719,95,624,-407
,255,2023-10-20 13:11:01.42,63,-298,-2037,2,5,5,618,151,467,-384
,256,2023-10-20 13:11:01.43,59,-302,-2042,3,6,1,726,102,624,-414
,257,2023-10-20 13:11:01.44,50,-306,-2049,3,6,0,618,153,465,-385
,258,2023-10-20 13:11:01.45,63,-308,-2058,5,2,0,730,103,627,-416
,259,2023-10-20 13:11:01.46,63,-308,-2059,5,-1,3,606,143,463,-374
,260,2023-10-20 13:11:01.47,59,-308,-2062,7,-3,3,721,96,625,-408
,261,2023-10-20 13:11:01.48,58,-315,-2060,8,-4,6,593,134,459,-363
,262,2023-10-20 13:11:01.49,65,-307,-2050,9,-2,7,718,93,625,-405
,263,2023-10-20 13:11:01.50,56,-306,-2048,13,2,6,589,128,461,-358
,264,2023-10-20 13:11:01.51,64,-302,-2048,16,1,5,726,97,629,-411
,265,2023-10-20 13:11:01.52,58,-302,-2045,19,0,1,580,118,462,-349
,266,2023-10-20 13:11:01.53,68,-305,-2037,21,2,4,710,86,624,-398
,267,2023-10-20 13:11:01.54,74,-303,-2036,20,3,1,560,101,459,-330
,268,2023-10-20 13:11:01.55,56,-303,-2033,23,4,-3,710,84,626,-397
,269,2023-10-20 13:11:01.56,52,-307,-2035,22,-1,-2,563,101,462,-332
,270,2023-10-20 13:11:01.57,56,-316,-2029,20,-3,0,712,84,628,-398
,271,2023-10-20 13:11:01.58,61,-316,-2022,19,-2,6,567,104,463,-335
,272,2023-10-20 13:11:01.59,59,-308,-2004,13,0,7,732,104,628,-418
,273,2023-10-20 13:11:01.60,55,-315,-2005,11,3,15,571,104,467,-337
,274,2023-10-20 13:11:01.61,60,-312,-2002,11,11,14,740,109,631,-424
,275,2023-10-20 13:11:01.62,63,-299,-2017,8,18,17,567,103,464,-335
,276,2023-10-20 13:11:01.63,60,-300,-2027,2,21,17,744,120,624,-432
,277,2023-10-20 13:11:01.64,58,-297,-2028,1,20,15,568,107,461,-337
,278,2023-10-20 13:11:01.65,66,-304,-2030,3,17,15,752,128,624,-440
,279,2023-10-20 13:11:01.66,55,-305,-2029,3,13,14,570,109,461,-339
,280,2023-10-20 13:11:01.67,73,-306,-2036,6,9,12,758,136,622,-447
,281,2023-10-20 13:11:01.68,69,-294,-2035,8,5,12,572,108,464,-340
,282,2023-10-20 13:11:01.69,63,-293,-2034,6,7,10,767,144,623,-455
,283,2023-10-20 13:11:01.70,69,-301,-2038,5,5,6,574,113,461,-343
,284,2023-10-20 13:11:01.71,54,-307,-2044,3,9,7,778,155,623,-466
,285,2023-10-20 13:11:01.72,58,-309,-2043,2,9,9,577,115,462,-346
,286,2023-10-20 13:11:01.73,64,-305,-2032,2,9,9,780,162,618,-471
,287,2023-10-20 13:11:01.74,74,-298,-2026,5,14,11,574,114,460,-344
,288,2023-10-20 13:11:01.75,76,-299,-2035,2,14,12,787,170,617,-478
,289,2023-10-20 13:11:01.76,60,-311,-2039,7,17,15,577,113,464,-345
,290,2023-10-20 13:11:01.77,65,-303,-2039,8,16,17,792,172,620,-482
,291,2023-10-20 13:11:01.78,63,-295,-2042,6,16,15,577,106,471,-341
,292,2023-10-20 13:11:01.79,69,-292,-2044,6,15,13,794,169,625,-481
,293,2023-10-20 13:11:01.80,63,-292,-2046,8,10,12,572,101,471,-336
,294,2023-10-20 13:11:01.81,65,-294,-2038,8,6,8,789,168,621,-478
,295,2023-10-20 13:11:01.82,73,-293,-2045,11,4,7,562,95,467,-328
,296,2023-10-20 13:11:01.83,64,-294,-2044,11,2,4,786,171,615,-478
,297,2023-10-20 13:11:01.84,64,-304,-2036,11,5,2,561,91,470,-326
,298,2023-10-20 13:11:01.85,66,-305,-2050,9,2,3,787,171,616,-479
,299,2023-10-20 13:11:01.86,64,-301,-2055,7,5,5,562,88,474,-325
,300,2023-10-20 13:11:01.87,67,-310,-2044,4,6,10,792,175,617,-483
,301,2023-10-20 13:11:01.88,73,-306,-2045,6,3,11,561,83,478,-322
,302,2023-10-20 13:11:01.89,70,-305,-2040,7,0,12,786,178,608,-482
,303,2023-10-20 13:11:01.90,73,-308,-2043,14,-1,14,558,82,476,-320
,304,2023-10-20 13:11:01.91,66,-313,-2037,17,-4,17,789,178,611,-483
,305,2023-10-20 13:11:01.92,66,-302,-2036,21,-8,17,561,79,482,-320
,306,2023-10-20 13:11:01.93,81,-301,-2044,24,-7,17,793,180,613,-486
,307,2023-10-20 13:11:01.94,73,-304,-2038,29,-5,16,560,77,483,-318
,308,2023-10-20 13:11:01.95,59,-303,-2047,26,-7,14,787,177,610,-482
,309,2023-10-20 13:11:01.96,44,-309,-2039,26,-8,14,553,70,483,-311
,310,2023-10-20 13:11:01.97,61,-315,-2034,23,-11,14,781,175,606,-478
,311,2023-10-20 13:11:01.98,81,-307,-2037,22,-13,15,553,62,491,-307
,312,2023-10-20 13:11:01.99,59,-305,-2034,19,-10,16,792,181,611,-486
,313,2023-10-20 13:11:02.00,70,-310,-2024,17,-6,17,556,64,492,-310
,314,2023-10-20 13:11:02.01,56,-311,-2027,11,-5,18,793,187,606,-490
,315,2023-10-20 13:11:02.02,62,-310,-2031,11,-2,21,548,59,489,-303
,316,2023-10-20 13:11:02.03,67,-306,-2041,10,1,20,780,179,601,-479
,317,2023-10-20 13:11:02.04,60,-305,-2033,9,1,22,551,55,496,-303
,318,2023-10-20 13:11:02.05,58,-300,-2034,10,3,23,788,188,600,-488
,319,2023-10-20 13:11:02.06,60,-300,-2035,11,2,24,553,53,500,-303
,320,2023-10-20 13:11:02.07,55,-302,-2029,14,-1,22,784,183,601,-483
,321,2023-10-20 13:11:02.08,63,-307,-2038,18,-2,23,549,46,503,-297
,322,2023-10-20 13:11:02.09,67,-308,-2035,19,-1,20,781,183,598,-482
,323,2023-10-20 13:11:02.10,68,-314,-2040,20,0,21,551,47,504,-299
,324,2023-10-20 13:11:02.11,57,-310,-2041,24,3,22,786,195,591,-490
,325,2023-10-20 13:11:02.12,61,-306,-2041,24,6,20,554,51,503,-302
,326,2023-10-20 13:11:02.13,54,-314,-2042,26,2,19,789,204,585,-496
,327,2023-10-20 13:11:02.14,64,-316,-2048,25,2,22,558,52,506,-305
,328,2023-10-20 13:11:02.15,46,-309,-2035,27,-1,20,789,203,586,-496
,329,2023-10-20 13:11:02.16,56,-312,-2046,26,1,20,564,47,517,-305
,330,2023-10-20 13:11:02.17,53,-318,-2038,23,4,20,788,204,584,-496
,331,2023-10-20 13:11:02.18,63,-316,-2043,19,5,18,566,51,515,-308
,332,2023-10-20 13:11:02.19,60,-307,-2044,16,6,15,785,206,579,-495
,333,2023-10-20 13:11:02.20,57,-303,-2043,13,5,13,564,47,517,-305
,334,2023-10-20 13:11:02.21,60,-313,-2042,14,2,15,787,205,582,-496
,335,2023-10-20 13:11:02.22,67,-312,-2043,12,0,17,571,45,526,-308
,336,2023-10-20 13:11:02.23,68,-311,-2037,14,-3,18,790,207,583,-498
,337,2023-10-20 13:11:02.24,56,-307,-2028,14,-7,19,573,49,524,-311
,338,2023-10-20 13:11:02.25,70,-309,-2024,14,-6,17,785,210,575,-497
,339,2023-10-20 13:11:02.26,68,-310,-2032,11,-3,20,573,48,525,-310
,340,2023-10-20 13:11:02.27,54,-305,-2038,6,1,21,783,214,569,-498
,341,2023-10-20 13:11:02.28,57,-307,-2039,4,-2,22,577,44,533,-310
,342,2023-10-20 13:11:02.29,56,-306,-2030,5,3,21,775,213,562,-494
,343,2023-10-20 13:11:02.30,59,-314,-2034,5,3,25,568,43,525,-305
,344,2023-10-20 13:11:02.31,61,-312,-2028,7,6,27,778,211,567,-494
,345,2023-10-20 13:11:02.32,60,-311,-2035,11,7,27,580,41,539,-310
,346,2023-10-20 13:11:02.33,57,-310,-2027,18,6,27,779,216,563,-497
,347,2023-10-20 13:11:02.34,67,-307,-2039,23,6,24,584,41,543,-312
,348,2023-10-20 13:11:02.35,65,-307,-2036,23,5,19,770,212,558,-491
,349,2023-10-20 13:11:02.36,81,-310,-2045,26,7,17,582,36,546,-309
,350,2023-10-20 13:11:02.37,64,-308,-2039,25,6,14,766,212,554,-489
,351,2023-10-20 13:11:02.38,62,-316,-2036,26,5,13,592,44,548,-318
,352,2023-10-20 13:11:02.39,71,-321,-2042,26,7,9,767,218,549,-492
,353,2023-10-20 13:11:02.40,58,-318,-2038,27,7,10,592,42,550,-317
,354,2023-10-20 13:11:02.41,73,-331,-2027,21,9,13,755,208,547,-481
,355,2023-10-20 13:11:02.42,62,-326,-2030,22,9,13,591,37,554,-314
,356,2023-10-20 13:11:02.43,77,-319,-2028,20,12,15,755,209,546,-482
,357,2023-10-20 13:11:02.44,70,-314,-2038,13,14,14,594,39,555,-316
,358,2023-10-20 13:11:02.45,65,-316,-2041,9,11,15,744,204,540,-474
,359,2023-10-20 13:11:02.46,70,-310,-2038,7,9,16,592,32,560,-312
,360,2023-10-20 13:11:02.47,70,-310,-2042,2,5,11,738,203,535,-470
,361,2023-10-20 13:11:02.48,79,-322,-2045,-3,4,15,601,38,563,-319
,362,2023-10-20 13:11:02.49,74,-315,-2042,-1,2,16,742,211,531,-476
,363,2023-10-20 13:11:02.50,65,-306,-2041,-3,1,16,610,43,567,-326
,364,2023-10-20 13:11:02.51,56,-313,-2037,-2,-4,19,739,209,530,-474
,365,2023-10-20 13:11:02.52,58,-312,-2039,-2,-4,16,617,45,572,-331
,366,2023-10-20 13:11:02.53,66,-309,-2038,0,-4,20,734,212,522,-473
,367,2023-10-20 13:11:02.54,65,-309,-2037,1,-1,20,616,49,567,-332
,368,2023-10-20 13:11:02.55,55,-312,-2036,2,4,22,732,211,521,-471
,369,2023-10-20 13:11:02.56,65,-307,-2032,3,4,22,618,43,575,-330
,370,2023-10-20 13:11:02.57,51,-309,-2036,3,6,20,721,204,517,-462
,371,2023-10-20 13:11:02.58,54,-303,-2036,8,12,18,616,41,575,-328
,372,2023-10-20 13:11:02.59,55,-306,-2042,10,13,17,713,198,515,-455
,373,2023-10-20 13:11:02.60,65,-301,-2041,13,12,15,631,42,589,-336
,374,2023-10-20 13:11:02.61,59,-300,-2038,15,7,11,721,201,520,-461
,375,2023-10-20 13:11:02.62,59,-303,-2046,16,5,8,637,49,588,-343
,376,2023-10-20 13:11:02.63,64,-313,-2036,21,5,4,715,206,509,-460
,377,2023-10-20 13:11:02.64,61,-308,-2027,22,3,1,639,55,584,-347
,378,2023-10-20 13:11:02.65,65,-308,-2036,17,2,-1,704,201,503,-452
,379,2023-10-20 13:11:02.66,67,-318,-2035,19,6,-1,644,56,588,-350
,380,2023-10-20 13:11:02.67,70,-316,-2039,16,3,2,704,203,501,-453
,381,2023-10-20 13:11:02.68,61,-313,-2038,13,5,2,653,61,592,-357
,382,2023-10-20 13:11:02.69,67,-319,-2036,12,4,9,696,198,498,-447
,383,2023-10-20 13:11:02.70,68,-325,-2040,11,4,11,649,57,592,-353
,384,2023-10-20 13:11:02.71,64,-327,-2043,12,0,17,676,186,490,-431
,385,2023-10-20 13:11:02.72,57,-316,-2042,8,-4,21,653,60,593,-356
,386,2023-10-20 13:11:02.73,53,-319,-2039,12,-5,27,688,196,492,-442
,387,2023-10-20 13:11:02.74,61,-318,-2037,13,-5,31,669,72,597,-370
,388,2023-10-20 13:11:02.75,59,-315,-2032,14,0,32,690,202,488,-446
,389,2023-10-20 13:11:02.76,62,-308,-2034,16,4,34,668,72,596,-370
,390,2023-10-20 13:11:02.77,59,-306,-2034,22,4,31,676,190,486,-433
,391,2023-10-20 13:11:02.78,52,-315,-2034,24,9,27,678,74,604,-376
,392,2023-10-20 13:11:02.79,58,-308,-2040,23,11,21,679,192,487,-435
,393,2023-10-20 13:11:02.80,52,-308,-2048,25,11,18,676,70,606,-373
,394,2023-10-20 13:11:02.81,63,-312,-2043,27,7,12,669,184,485,-426
,395,2023-10-20 13:11:02.82,60,-312,-2039,26,8,7,678,70,608,-374
,396,2023-10-20 13:11:02.83,68,-315,-2038,23,8,1,662,179,483,-420
,397,2023-10-20 13:11:02.84,67,-315,-2041,20,9,-1,678,69,609,-373
,398,2023-10-20 13:11:02.85,63,-326,-2038,20,8,0,655,175,480,-415
,399,2023-10-20 13:11:02.86,62,-326,-2035,17,9,3,681,71,610,-376
,400,2023-10-20 13:11:02.87,63,-330,-2031,14,11,6,650,174,476,-412
,401,2023-10-20 13:11:02.88,65,-327,-2035,11,13,8,691,81,610,-386
,402,2023-10-20 13:11:02.89,56,-323,-2037,10,16,11,651,179,472,-415
,403,2023-10-20 13:11:02.90,67,-318,-2026,9,17,16,701,86,615,-393
,404,2023-10-20 13:11:02.91,74,-318,-2029,9,18,15,646,172,474,-409
,405,2023-10-20 13:11:02.92,73,-316,-2028,9,19,15,700,83,617,-391
,406,2023-10-20 13:11:02.93,84,-316,-2041,10,21,13,636,163,473,-399
,407,2023-10-20 13:11:02.94,61,-320,-2047,12,18,13,698,81,617,-389
,408,2023-10-20 13:11:02.95,63,-324,-2032,13,11,13,630,160,470,-395
,409,2023-10-20 13:11:02.96,61,-325,-2035,15,11,14,707,86,621,-396
,410,2023-10-20 13:11:02.97,65,-323,-2044,15,7,15,634,159,475,-396
,411,2023-10-20 13:11:02.98,71,-320,-2031,11,7,12,711,88,623,-399
,412,2023-10-20 13:11:02.99,66,-314,-2037,7,7,15,623,155,468,-389
,413,2023-10-20 13:11:03.00,70,-323,-2041,3,13,12,712,88,624,-400
,414,2023-10-20 13:11:03.01,81,-312,-2047,0,14,14,616,148,468,-382
,415,2023-10-20 13:11:03.02,57,-317,-2041,-3,15,13,712,88,624,-400
,416,2023-10-20 13:11:03.03,68,-311,-2042,-4,13,13,611,147,464,-379
,417,2023-10-20 13:11:03.04,64,-311,-2044,-4,9,12,716,94,622,-405
,418,2023-10-20 13:11:03.05,70,-308,-2035,-5,5,8,610,147,463,-378
,419,2023-10-20 13:11:03.06,60,-304,-2033,-4,3,9,721,100,621,-410
,420,2023-10-20 13:11:03.07,53,-307,-2030,-3,5,8,606,146,460,-376
,421,2023-10-20 13:11:03.08,64,-311,-2036,-1,7,7,728,106,622,-417
,422,2023-10-20 13:11:03.09,60,-310,-2042,-2,11,6,611,147,464,-379
,423,2023-10-20 13:11:03.10,67,-320,-2040,2,15,8,738,111,627,-424
,424,2023-10-20 13:11:03.11,61,-316,-2036,-1,22,8,604,140,464,-372
,425,2023-10-20 13:11:03.12,67,-317,-2031,3,29,8,725,102,623,-413
,426,2023-10-20 13:11:03.13,68,-311,-2019,3,38,10,600,135,465,-367
,427,2023-10-20 13:11:03.14,64,-309,-2018,4,43,8,747,116,631,-431
,428,2023-10-20 13:11:03.15,75,-298,-2034,1,47,4,603,138,465,-370
,429,2023-10-20 13:11:03.16,72,-300,-2030,1,49,1,746,122,624,-434
,430,2023-10-20 13:11:03.17,83,-306,-2037,2,46,-2,591,134,457,-362
,431,2023-10-20 13:11:03.18,84,-308,-2043,1,43,-2,745,123,622,-434
,432,2023-10-20 13:11:03.19,81,-310,-2052,6,31,-7,591,131,460,-361
,433,2023-10-20 13:11:03.20,67,-307,-2038,11,17,-2,755,131,624,-443
,434,2023-10-20 13:11:03.21,78,-322,-2045,17,13,0,587,126,461,-356
,435,2023-10-20 13:11:03.22,70,-321,-2032,21,6,5,762,138,624,-450
,436,2023-10-20 13:11:03.23,78,-332,-2039,24,2,10,586,126,460,-356
,437,2023-10-20 13:11:03.24,81,-327,-2027,28,7,16,759,136,623,-447
,438,2023-10-20 13:11:03.25,77,-324,-2028,28,15,20,582,124,458,-353
,439,2023-10-20 13:11:03.26,67,-335,-2037,25,23,24,767,142,625,-454
,440,2023-10-20 13:11:03.27,59,-327,-2046,25,21,31,582,120,462,-351
,441,2023-10-20 13:11:03.28,73,-325,-2045,21,20,36,769,142,627,-455
,442,2023-10-20 13:11:03.29,71,-327,-2042,19,24,36,575,113,462,-344
,443,2023-10-20 13:11:03.30,64,-313,-2060,14,17,34,768,143,625,-455
,444,2023-10-20 13:11:03.31,68,-308,-2056,9,21,34,576,111,465,-343
,445,2023-10-20 13:11:03.32,62,-322,-2043,8,22,35,773,152,621,-462
,446,2023-10-20 13:11:03.33,65,-313,-2036,8,11,32,568,109,459,-338
,447,2023-10-20 13:11:03.34,76,-314,-2033,6,27,30,757,142,615,-449
,448,2023-10-20 13:11:03.35,70,-320,-2026,1,42,25,555,94,461,-324
,449,2023-10-20 13:11:03.36,77,-317,-2020,7,26,22,764,140,624,-452
,450,2023-10-20 13:11:03.37,74,-307,-2027,7,43,24,559,90,469,-324
,451,2023-10-20 13:11:03.38,77,-309,-2025,7,46,22,770,145,625,-457
,452,2023-10-20 13:11:03.39,95,-299,-2023,4,38,21,560,89,471,-324
,453,2023-10-20 13:11:03.40,83,-300,-2022,5,41,18,777,151,626,-464
,454,2023-10-20 13:11:03.41,82,-289,-2041,12,31,14,565,93,472,-329
,455,2023-10-20 13:11:03.42,96,-294,-2060,17,7,14,791,167,624,-479
,456,2023-10-20 13:11:03.43,74,-299,-2057,13,24,12,575,101,474,-338
,457,2023-10-20 13:11:03.44,102,-307,-2055,12,14,12,800,175,625,-487
,458,2023-10-20 13:11:03.45,94,-314,-2039,11,7,13,562,83,479,-322
,459,2023-10-20 13:11:03.46,89,-310,-2043,16,19,18,776,112,664,-444
,460,2023-10-20 13:11:03.47,80,-322,-2040,24,19,21,550,32,518,-291
,461,2023-10-20 13:11:03.48,93,-333,-2045,31,7,28,782,125,657,-453
,462,2023-10-20 13:11:03.49,84,-313,-2031,34,17,31,555,56,499,-305
,463,2023-10-20 13:11:03.50,85,-312,-2018,30,28,33,788,145,643,-466
,464,2023-10-20 13:11:03.51,86,-318,-2038,28,29,34,550,53,497,-301
,465,2023-10-20 13:11:03.52,89,-335,-2035,31,28,35,779,143,636,-461
,466,2023-10-20 13:11:03.53,83,-324,-2045,38,17,40,534,44,490,-289
,467,2023-10-20 13:11:03.54,81,-325,-2046,39,11,42,778,147,631,-462
,468,2023-10-20 13:11:03.55,88,-320,-2042,36,8,42,546,51,495,-298
,469,2023-10-20 13:11:03.56,97,-316,-2037,37,2,45,787,160,627,-473
,470,2023-10-20 13:11:03.57,87,-319,-2039,33,6,45,549,54,495,-301
,471,2023-10-20 13:11:03.58,92,-329,-2038,32,7,44,783,163,620,-473
,472,2023-10-20 13:11:03.59,80,-321,-2035,35,-3,44,545,52,493,-298
,473,2023-10-20 13:11:03.60,78,-316,-2024,36,3,48,780,161,619,-470
,474,2023-10-20 13:11:03.61,74,-320,-2030,32,9,45,541,44,497,-292
,475,2023-10-20 13:11:03.62,91,-317,-2026,30,11,40,777,165,612,-471
,476,2023-10-20 13:11:03.63,91,-326,-2026,31,11,42,542,48,494,-295
,477,2023-10-20 13:11:03.64,85,-324,-2028,41,9,41,779,171,608,-475
,478,2023-10-20 13:11:03.65,103,-321,-2036,45,8,38,548,51,497,-299
,479,2023-10-20 13:11:03.66,94,-322,-2054,45,7,34,778,170,608,-474
,480,2023-10-20 13:11:03.67,84,-330,-2041,40,16,33,549,44,505,-296
,481,2023-10-20 13:11:03.68,81,-347,-2045,44,5,32,787,176,611,-481
,482,2023-10-20 13:11:03.69,87,-340,-2027,50,5,31,549,43,506,-296
,483,2023-10-20 13:11:03.70,109,-327,-2016,53,0,28,780,176,604,-478
,484,2023-10-20 13:11:03.71,112,-327,-2015,49,14,25,544,36,508,-290
,485,2023-10-20 13:11:03.72,107,-333,-2014,43,25,19,776,171,605,-473
,486,2023-10-20 13:11:03.73,98,-327,-2033,46,28,15,540,28,512,-284
,487,2023-10-20 13:11:03.74,106,-333,-2034,49,22,11,762,161,601,-461
,488,2023-10-20 13:11:03.75,97,-345,-2033,52,3,12,534,17,517,-275
,489,2023-10-20 13:11:03.76,90,-345,-2026,50,3,14,756,158,598,-457
,490,2023-10-20 13:11:03.77,96,-336,-2038,48,1,14,533,15,518,-274
,491,2023-10-20 13:11:03.78,107,-340,-2049,36,5,17,758,164,594,-461
,492,2023-10-20 13:11:03.79,106,-338,-2037,24,9,20,536,18,518,-277
,493,2023-10-20 13:11:03.80,107,-341,-2034,21,7,22,753,164,589,-458
,494,2023-10-20 13:11:03.81,100,-349,-2032,19,1,25,535,13,522,-274
,495,2023-10-20 13:11:03.82,92,-345,-2029,18,7,26,754,163,591,-458
,496,2023-10-20 13:11:03.83,97,-327,-2029,16,10,29,536,10,526,-273
,497,2023-10-20 13:11:03.84,92,-332,-2022,18,2,29,748,162,586,-455
,498,2023-10-20 13:11:03.85,93,-345,-2021,22,-1,29,534,8,526,-271
,499,2023-10-20 13:11:03.86,85,-342,-2033,24,-8,33,741,163,578,-452
,500,2023-10-20 13:11:03.87,82,-334,-2037,23,-10,36,533,5,528,-269
,501,2023-10-20 13:11:03.88,87,-334,-2040,19,-15,39,742,165,577,-453
,502,2023-10-20 13:11:03.89,79,-333,-2030,12,-21,41,541,10,531,-275
,503,2023-10-20 13:11:03.90,78,-325,-2019,8,-22,43,745,174,571,-459
,504,2023-10-20 13:11:03.91,78,-321,-2018,-3,-12,47,555,16,539,-285
,505,2023-10-20 13:11:03.92,66,-323,-2021,-10,-1,49,746,176,570,-461
,506,2023-10-20 13:11:03.93,63,-341,-2042,-13,6,54,555,17,538,-286
,507,2023-10-20 13:11:03.94,53,-347,-2030,-9,9,63,737,178,559,-457
,508,2023-10-20 13:11:03.95,64,-347,-2028,1,-2,68,565,23,542,-294
,509,2023-10-20 13:11:03.96,60,-335,-2030,14,-5,74,756,192,564,-474
,510,2023-10-20 13:11:03.97,58,-326,-2052,22,11,78,576,30,546,-303
,511,2023-10-20 13:11:03.98,67,-333,-2062,18,25,75,742,190,552,-466
,512,2023-10-20 13:11:03.99,70,-331,-2060,19,19,73,573,27,546,-300
,513,2023-10-20 13:11:04.00,76,-325,-2043,26,20,74,757,200,557,-478
,514,2023-10-20 13:11:04.01,79,-323,-2054,35,10,70,602,55,547,-328
,515,2023-10-20 13:11:04.02,72,-336,-2064,38,8,63,779,246,533,-512
,516,2023-10-20 13:11:04.03,91,-340,-2077,40,9,62,620,88,532,-354
,517,2023-10-20 13:11:04.04,84,-351,-2067,39,20,65,778,262,516,-520
,518,2023-10-20 13:11:04.05,86,-350,-2039,30,27,64,634,99,535,-366
,519,2023-10-20 13:11:04.06,99,-358,-2035,37,12,62,797,278,519,-537
,520,2023-10-20 13:11:04.07,88,-348,-2040,45,21,63,656,118,538,-387
,521,2023-10-20 13:11:04.08,106,-343,-2040,48,8,59,804,293,511,-548
,522,2023-10-20 13:11:04.09,111,-338,-2055,38,8,54,670,127,543,-398
,523,2023-10-20 13:11:04.10,101,-340,-2057,27,19,45,814,302,512,-558
,524,2023-10-20 13:11:04.11,104,-340,-2046,16,23,39,688,137,551,-412
,525,2023-10-20 13:11:04.12,124,-347,-2046,25,-10,32,818,309,509,-563
,526,2023-10-20 13:11:04.13,109,-341,-2046,27,-14,29,690,136,554,-413
,527,2023-10-20 13:11:04.14,117,-343,-2034,21,-7,24,806,298,508,-552
,528,2023-10-20 13:11:04.15,99,-353,-2029,16,-8,21,681,125,556,-403
,529,2023-10-20 13:11:04.16,97,-353,-2016,22,-20,23,797,287,510,-542
,530,2023-10-20 13:11:04.17,92,-351,-2005,32,-26,22,685,123,562,-404
,531,2023-10-20 13:11:04.18,89,-342,-1984,30,-29,20,789,285,504,-537
,532,2023-10-20 13:11:04.19,90,-356,-1990,25,-24,19,700,135,565,-417
,533,2023-10-20 13:11:04.20,83,-370,-2017,24,-17,22,807,308,499,-557
,534,2023-10-20 13:11:04.21,100,-376,-2028,22,-23,26,738,174,564,-456
,535,2023-10-20 13:11:04.22,70,-376,-2031,20,-30,36,834,357,477,-595
,536,2023-10-20 13:11:04.23,66,-386,-2021,26,-37,48,773,232,541,-502
,537,2023-10-20 13:11:04.24,85,-389,-2019,32,-42,58,835,391,444,-613
,538,2023-10-20 13:11:04.25,59,-370,-2009,42,-47,67,745,210,535,-477
,539,2023-10-20 13:11:04.26,59,-352,-1964,31,-27,76,792,325,467,-558
,540,2023-10-20 13:11:04.27,58,-346,-1945,19,-6,79,728,160,568,-444
,541,2023-10-20 13:11:04.28,62,-360,-1963,25,-16,78,798,308,490,-553
,542,2023-10-20 13:11:04.29,65,-333,-1973,26,-18,75,749,176,573,-462
,543,2023-10-20 13:11:04.30,46,-321,-2003,24,-14,71,772,299,473,-535
,544,2023-10-20 13:11:04.31,55,-310,-2026,15,-30,59,677,97,580,-387
,545,2023-10-20 13:11:04.32,47,-315,-2028,-4,-28,45,704,196,508,-450
,546,2023-10-20 13:11:04.33,51,-314,-2021,-19,-23,31,622,21,601,-321
,547,2023-10-20 13:11:04.34,53,-341,-2020,-13,-43,22,648,141,507,-394
,548,2023-10-20 13:11:04.35,53,-351,-2025,2,-50,14,578,-11,589,-283
,549,2023-10-20 13:11:04.36,61,-352,-2034,5,-33,6,614,123,491,-368
,550,2023-10-20 13:11:04.37,59,-364,-2020,4,-13,2,567,-18,585,-274
,551,2023-10-20 13:11:04.38,64,-375,-2037,8,-15,2,584,103,481,-343
,552,2023-10-20 13:11:04.39,66,-379,-2065,8,-5,5,552,-33,585,-259
,553,2023-10-20 13:11:04.40,56,-397,-2094,10,-10,13,566,86,480,-326
,554,2023-10-20 13:11:04.41,50,-410,-2115,8,-19,24,545,-41,586,-252
,555,2023-10-20 13:11:04.42,60,-401,-2116,2,-25,32,560,84,476,-322
,556,2023-10-20 13:11:04.43,54,-410,-2093,-9,-17,43,556,-34,590,-261
,557,2023-10-20 13:11:04.44,42,-410,-2089,-9,-15,53,564,85,479,-324
,558,2023-10-20 13:11:04.45,63,-385,-2071,-15,-10,61,566,-30,596,-268
,559,2023-10-20 13:11:04.46,63,-363,-2057,-26,-4,66,559,81,478,-320
,560,2023-10-20 13:11:04.47,59,-348,-2046,-36,5,63,556,-34,590,-261
,561,2023-10-20 13:11:04.48,63,-337,-2051,-52,12,58,544,69,475,-306
,562,2023-10-20 13:11:04.49,71,-335,-2048,-56,13,55,556,-39,595,-258
,563,2023-10-20 13:11:04.50,57,-329,-2036,-56,13,48,533,61,472,-297
,564,2023-10-20 13:11:04.51,57,-322,-2021,-56,13,40,543,-48,591,-247
,565,2023-10-20 13:11:04.52,73,-315,-2020,-46,0,40,507,45,462,-276
,566,2023-10-20 13:11:04.53,82,-318,-2010,-31,-18,42,545,-54,599,-245
,567,2023-10-20 13:11:04.54,99,-313,-2022,-23,-15,43,516,43,473,-279
,568,2023-10-20 13:11:04.55,71,-295,-2006,-27,3,46,582,-33,615,-274
,569,2023-10-20 13:11:04.56,80,-291,-2003,-25,-1,43,546,64,482,-305
,570,2023-10-20 13:11:04.57,72,-310,-2001,-13,1,45,609,-6,615,-301
,571,2023-10-20 13:11:04.58,87,-310,-1998,2,0,46,557,85,472,-321
,572,2023-10-20 13:11:04.59,77,-313,-1989,16,8,46,632,16,616,-324
,573,2023-10-20 13:11:04.60,82,-313,-2000,24,26,45,568,97,471,-332
,574,2023-10-20 13:11:04.61,82,-315,-2015,27,40,43,643,27,616,-335
,575,2023-10-20 13:11:04.62,76,-332,-2021,34,44,45,566,97,469,-331
,576,2023-10-20 13:11:04.63,81,-337,-2016,45,32,52,677,44,633,-360
,577,2023-10-20 13:11:04.64,81,-330,-2029,56,22,56,598,120,478,-359
,578,2023-10-20 13:11:04.65,76,-326,-2047,54,26,62,704,72,632,-388
,579,2023-10-20 13:11:04.66,73,-328,-2053,43,23,65,603,131,472,-367
,580,2023-10-20 13:11:04.67,74,-330,-2057,34,24,66,712,84,628,-398
,581,2023-10-20 13:11:04.68,72,-331,-2055,38,20,66,603,134,469,-368
,582,2023-10-20 13:11:04.69,70,-325,-2050,43,11,60,708,78,630,-393
,583,2023-10-20 13:11:04.70,80,-324,-2072,43,-6,52,582,114,468,-348
,584,2023-10-20 13:11:04.71,77,-323,-2073,47,-8,47,698,68,630,-383
,585,2023-10-20 13:11:04.72,87,-316,-2068,42,0,39,574,102,472,-338
,586,2023-10-20 13:11:04.73,74,-322,-2059,28,11,34,723,79,644,-401
,587,2023-10-20 13:11:04.74,75,-336,-2047,24,5,26,584,109,475,-346
,588,2023-10-20 13:11:04.75,96,-329,-2047,29,-10,31,728,89,639,-408
,589,2023-10-20 13:11:04.76,67,-321,-2055,33,-16,31,576,104,472,-340
,590,2023-10-20 13:11:04.77,72,-318,-2049,23,-13,35,740,104,636,-422
,591,2023-10-20 13:11:04.78,65,-335,-2047,5,-3,38,596,123,473,-359
,592,2023-10-20 13:11:04.79,60,-342,-2048,2,-3,41,744,112,632,-428
,593,2023-10-20 13:11:04.80,50,-349,-2038,3,-13,47,589,119,470,-354
,594,2023-10-20 13:11:04.81,34,-355,-2040,5,-26,51,743,107,636,-425
,595,2023-10-20 13:11:04.82,33,-355,-2028,8,-36,60,576,107,469,-341
,596,2023-10-20 13:11:04.83,34,-376,-2018,12,-29,68,740,108,632,-424
,597,2023-10-20 13:11:04.84,33,-370,-2004,19,-13,77,572,108,464,-340
,598,2023-10-20 13:11:04.85,40,-349,-2011,17,0,81,732,104,628,-418
,599,2023-10-20 13:11:04.86,37,-352,-2011,14,15,82,552,88,464,-320
,600,2023-10-20 13:11:04.87,37,-357,-2002,27,2,79,728,95,633,-411
,601,2023-10-20 13:11:04.88,53,-336,-2003,52,-20,76,554,79,475,-316
,602,2023-10-20 13:11:04.89,63,-328,-2015,60,-18,70,740,94,646,-417
,603,2023-10-20 13:11:04.90,45,-327,-2024,44,3,61,562,81,481,-321
,604,2023-10-20 13:11:04.91,56,-343,-2043,35,7,49,755,120,635,-437
,605,2023-10-20 13:11:04.92,64,-355,-2043,42,5,45,570,101,469,-335
,606,2023-10-20 13:11:04.93,54,-357,-2039,46,0,39,759,128,631,-443
,607,2023-10-20 13:11:04.94,67,-357,-2026,52,1,35,563,92,471,-327
,608,2023-10-20 13:11:04.95,76,-356,-2019,57,4,27,758,124,634,-441
,609,2023-10-20 13:11:04.96,76,-338,-2044,50,27,19,558,86,472,-322
,610,2023-10-20 13:11:04.97,75,-352,-2061,37,32,15,758,124,634,-441
,611,2023-10-20 13:11:04.98,72,-365,-2078,34,30,11,552,81,471,-316
,612,2023-10-20 13:11:04.99,47,-366,-2075,37,22,10,744,114,630,-429
,613,2023-10-20 13:11:05.00,51,-346,-2081,38,6,14,532,60,472,-296
,614,2023-10-20 13:11:05.01,46,-329,-2066,24,1,19,736,107,629,-421
,615,2023-10-20 13:11:05.02,41,-350,-2033,7,9,23,527,55,472,-291
,616,2023-10-20 13:11:05.03,47,-348,-2019,3,15,29,741,117,624,-429
,617,2023-10-20 13:11:05.04,32,-356,-2015,9,29,37,535,62,473,-298
,618,2023-10-20 13:11:05.05,31,-356,-2014,27,28,43,758,128,630,-443
,619,2023-10-20 13:11:05.06,68,-344,-1988,55,32,50,545,66,479,-305
,620,2023-10-20 13:11:05.07,71,-343,-1994,62,47,44,772,142,630,-457
,621,2023-10-20 13:11:05.08,56,-358,-1998,83,46,37,552,70,482,-311
,622,2023-10-20 13:11:05.09,71,-348,-2004,98,38,31,777,149,628,-463
,623,2023-10-20 13:11:05.10,44,-353,-2000,106,39,25,548,66,482,-307
,624,2023-10-20 13:11:05.11,70,-355,-2008,104,31,20,774,149,625,-461
,625,2023-10-20 13:11:05.12,83,-357,-2038,88,37,17,547,66,481,-306
,626,2023-10-20 13:11:05.13,78,-371,-2035,67,47,18,776,155,621,-465
,627,2023-10-20 13:11:05.14,88,-378,-2037,49,54,17,558,75,483,-316
,628,2023-10-20 13:11:05.15,88,-387,-2012,38,49,17,770,159,611,-464
,629,2023-10-20 13:11:05.16,102,-391,-2036,38,34,18,540,62,478,-301
,630,2023-10-20 13:11:05.17,89,-384,-2062,40,26,19,760,145,615,-452
,631,2023-10-20 13:11:05.18,97,-389,-2060,34,21,22,546,59,487,-302
,632,2023-10-20 13:11:05.19,76,-391,-2053,28,36,24,772,159,613,-465
,633,2023-10-20 13:11:05.20,96,-388,-2041,29,25,23,544,56,488,-300
,634,2023-10-20 13:11:05.21,95,-378,-2050,33,23,21,774,159,615,-466
,635,2023-10-20 13:11:05.22,94,-387,-2031,40,2,23,548,53,495,-300
,636,2023-10-20 13:11:05.23,98,-366,-2052,46,-14,25,784,170,614,-477
,637,2023-10-20 13:11:05.24,76,-375,-2040,37,-5,29,553,58,495,-305
,638,2023-10-20 13:11:05.25,77,-390,-2021,35,-2,30,786,174,612,-480
,639,2023-10-20 13:11:05.26,72,-397,-2016,40,-4,39,549,52,497,-300
,640,2023-10-20 13:11:05.27,61,-399,-2004,49,-4,44,788,174,614,-481
,641,2023-10-20 13:11:05.28,52,-391,-2003,57,-3,51,549,46,503,-297
,642,2023-10-20 13:11:05.29,66,-382,-2006,59,-1,56,778,170,608,-474
,643,2023-10-20 13:11:05.30,81,-388,-2006,59,6,57,539,38,501,-288
,644,2023-10-20 13:11:05.31,67,-390,-2026,60,8,56,774,169,605,-471
,645,2023-10-20 13:11:05.32,65,-390,-2023,59,10,55,542,38,504,-290
,646,2023-10-20 13:11:05.33,73,-396,-2014,61,12,55,779,174,605,-476
,647,2023-10-20 13:11:05.34,74,-377,-2024,67,6,53,549,41,508,-295
,648,2023-10-20 13:11:05.35,72,-386,-2034,64,-3,51,783,179,604,-481
,649,2023-10-20 13:11:05.36,73,-378,-2041,56,-8,47,548,36,512,-292
,650,2023-10-20 13:11:05.37,71,-390,-2039,49,-5,47,774,177,597,-475
,651,2023-10-20 13:11:05.38,68,-396,-2026,48,3,43,545,33,512,-289
,652,2023-10-20 13:11:05.39,50,-408,-2026,53,-8,43,767,172,595,-469
,653,2023-10-20 13:11:05.40,64,-390,-2027,56,-11,38,538,23,515,-280
,654,2023-10-20 13:11:05.41,77,-400,-2014,56,-20,42,766,172,594,-469
,655,2023-10-20 13:11:05.42,77,-389,-2014,52,-10,35,547,23,524,-285
,656,2023-10-20 13:11:05.43,77,-389,-2021,45,2,33,774,174,600,-474
,657,2023-10-20 13:11:05.44,65,-389,-2023,34,23,27,549,23,526,-286
,658,2023-10-20 13:11:05.45,58,-399,-2027,25,39,21,774,177,597,-475
,659,2023-10-20 13:11:05.46,68,-418,-2034,33,7,20,561,26,535,-293
,660,2023-10-20 13:11:05.47,69,-415,-2056,32,7,25,771,182,589,-476
,661,2023-10-20 13:11:05.48,46,-419,-2027,38,14,27,557,25,532,-291
,662,2023-10-20 13:11:05.49,53,-414,-2009,37,19,34,776,187,589,-481
,663,2023-10-20 13:11:05.50,65,-399,-2048,37,4,42,573,27,546,-300
,664,2023-10-20 13:11:05.51,45,-404,-2035,27,2,46,785,190,595,-487
,665,2023-10-20 13:11:05.52,56,-390,-2005,24,-4,53,584,32,552,-308
,666,2023-10-20 13:11:05.53,52,-397,-2005,20,2,53,788,203,585,-495
,667,2023-10-20 13:11:05.54,54,-401,-1997,19,21,52,585,40,545,-312
,668,2023-10-20 13:11:05.55,64,-377,-2022,30,18,47,800,217,583,-508
,669,2023-10-20 13:11:05.56,69,-385,-2013,26,22,47,589,40,549,-314
,670,2023-10-20 13:11:05.57,72,-377,-2017,27,9,43,784,209,575,-496
,671,2023-10-20 13:11:05.58,78,-397,-2013,20,9,38,574,28,546,-301
,672,2023-10-20 13:11:05.59,81,-405,-2009,29,2,34,776,213,563,-494
,673,2023-10-20 13:11:05.60,81,-389,-2018,35,0,35,596,43,553,-319
,674,2023-10-20 13:11:05.61,76,-388,-2014,31,-5,27,788,220,568,-504
,675,2023-10-20 13:11:05.62,74,-398,-2031,34,-11,20,596,44,552,-320
,676,2023-10-20 13:11:05.63,81,-386,-2023,33,-15,15,772,214,558,-493
,677,2023-10-20 13:11:05.64,73,-407,-2031,30,-19,12,582,34,548,-308
,678,2023-10-20 13:11:05.65,60,-408,-2036,21,-15,6,763,207,556,-485
,679,2023-10-20 13:11:05.66,62,-413,-2034,17,-23,3,594,37,557,-315
,680,2023-10-20 13:11:05.67,79,-392,-2027,17,-21,3,768,218,550,-493
,681,2023-10-20 13:11:05.68,72,-392,-2026,2,-8,1,600,41,559,-320
,682,2023-10-20 13:11:05.69,63,-412,-2043,-5,1,-1,751,202,549,-476
,683,2023-10-20 13:11:05.70,57,-411,-2040,5,-4,6,600,33,567,-316
,684,2023-10-20 13:11:05.71,75,-416,-2019,19,-22,12,748,195,553,-471
,685,2023-10-20 13:11:05.72,73,-419,-2007,31,-36,21,602,33,569,-317
,686,2023-10-20 13:11:05.73,61,-409,-2016,33,-25,26,742,199,543,-470
,687,2023-10-20 13:11:05.74,44,-396,-2012,23,-4,29,605,31,574,-318
,688,2023-10-20 13:11:05.75,55,-404,-2016,18,8,32,744,196,548,-470
,689,2023-10-20 13:11:05.76,59,-418,-2025,20,3,37,618,32,586,-325
,690,2023-10-20 13:11:05.77,52,-408,-2025,25,-2,42,744,195,549,-469
,691,2023-10-20 13:11:05.78,47,-409,-2004,24,-5,47,616,34,582,-325
,692,2023-10-20 13:11:05.79,42,-422,-1997,27,-2,51,738,201,537,-469
,693,2023-10-20 13:11:05.80,47,-417,-1997,30,9,53,625,41,584,-333
,694,2023-10-20 13:11:05.81,51,-421,-2000,38,8,52,733,200,533,-466
,695,2023-10-20 13:11:05.82,53,-410,-2025,43,8,51,624,39,585,-331
,696,2023-10-20 13:11:05.83,59,-409,-2039,39,7,50,728,195,533,-461
,697,2023-10-20 13:11:05.84,49,-388,-2052,27,2,40,628,42,586,-335
,698,2023-10-20 13:11:05.85,57,-384,-2045,23,-23,22,728,204,524,-466
,699,2023-10-20 13:11:05.86,43,-378,-2032,26,-39,10,638,50,588,-344
,700,2023-10-20 13:11:05.87,70,-406,-1997,21,-45,2,715,195,520,-455
,701,2023-10-20 13:11:05.88,81,-419,-2015,20,-30,-3,621,34,587,-327
,702,2023-10-20 13:11:05.89,40,-423,-2038,9,-4,0,694,181,513,-437
,703,2023-10-20 13:11:05.90,55,-437,-2039,9,5,14,624,36,588,-330
,704,2023-10-20 13:11:05.91,64,-422,-2047,7,4,29,692,183,509,-437
,705,2023-10-20 13:11:05.92,46,-414,-2026,-9,1,41,643,48,595,-345
,706,2023-10-20 13:11:05.93,69,-414,-2020,-18,-8,42,711,201,510,-456
,707,2023-10-20 13:11:05.94,83,-437,-1993,-14,-8,55,662,59,603,-360
,708,2023-10-20 13:11:05.95,80,-427,-1974,4,16,60,704,200,504,-452
,709,2023-10-20 13:11:05.96,55,-399,-2020,17,33,58,665,66,599,-365
,710,2023-10-20 13:11:05.97,68,-365,-2069,20,26,43,688,190,498,-439
,711,2023-10-20 13:11:05.98,51,-358,-2044,20,7,36,654,59,595,-356
,712,2023-10-20 13:11:05.99,56,-382,-2028,16,-27,30,668,176,492,-422
,713,2023-10-20 13:11:06.00,57,-383,-2042,-3,-31,16,648,50,598,-349
,714,2023-10-20 13:11:06.01,62,-400,-2024,-20,-31,11,663,176,487,-419
,715,2023-10-20 13:11:06.02,51,-421,-2009,-30,-2,11,658,61,597,-359
,716,2023-10-20 13:11:06.03,44,-441,-1993,-24,11,15,676,183,493,-429
,717,2023-10-20 13:11:06.04,43,-436,-1999,-8,18,21,664,62,602,-363
,718,2023-10-20 13:11:06.05,49,-413,-2030,-8,31,23,651,165,486,-408
,719,2023-10-20 13:11:06.06,52,-429,-2017,-7,15,28,673,61,612,-367
,720,2023-10-20 13:11:06.07,64,-402,-2034,-9,18,30,666,182,484,-424
,721,2023-10-20 13:11:06.08,61,-410,-2031,-11,5,32,683,74,609,-378
,722,2023-10-20 13:11:06.09,54,-402,-2020,-17,8,31,672,188,484,-430
,723,2023-10-20 13:11:06.10,74,-397,-2021,-18,1,27,699,83,616,-391
,724,2023-10-20 13:11:06.11,53,-402,-2025,-22,11,25,669,187,482,-428
,725,2023-10-20 13:11:06.12,77,-403,-2021,-24,8,17,697,90,607,-393
,726,2023-10-20 13:11:06.13,57,-422,-2025,-12,6,20,654,183,471,-418
,727,2023-10-20 13:11:06.14,49,-401,-2032,-10,13,16,690,82,608,-386
,728,2023-10-20 13:11:06.15,47,-420,-2034,-5,-4,20,647,171,476,-409
,729,2023-10-20 13:11:06.16,58,-413,-2040,1,-6,18,688,76,612,-382
,730,2023-10-20 13:11:06.17,63,-404,-2034,1,-10,24,638,164,474,-401
,731,2023-10-20 13:11:06.18,62,-398,-2015,-1,-11,22,692,77,615,-384
,732,2023-10-20 13:11:06.19,41,-392,-2018,-11,13,17,626,157,469,-391
,733,2023-10-20 13:11:06.20,72,-408,-2004,-18,18,16,684,72,612,-378
,734,2023-10-20 13:11:06.21,47,-428,-2027,-9,22,18,622,150,472,-386
,735,2023-10-20 13:11:06.22,48,-413,-2026,5,9,19,700,81,619,-390
,736,2023-10-20 13:11:06.23,51,-386,-2011,7,-1,20,624,155,469,-389
,737,2023-10-20 13:11:06.24,72,-386,-2018,2,9,19,708,84,624,-396
,738,2023-10-20 13:11:06.25,81,-386,-2034,-5,25,17,620,148,472,-384
,739,2023-10-20 13:11:06.26,70,-397,-2023,-11,37,12,713,84,629,-398
,740,2023-10-20 13:11:06.27,54,-406,-2035,-3,31,11,616,142,474,-379
,741,2023-10-20 13:11:06.28,58,-415,-2020,7,16,11,720,85,635,-402
,742,2023-10-20 13:11:06.29,57,-422,-2021,23,-8,13,622,142,480,-382
,743,2023-10-20 13:11:06.30,55,-428,-2016,38,-32,19,731,95,636,-413
,744,2023-10-20 13:11:06.31,59,-400,-2000,46,-33,24,620,143,477,-381
,745,2023-10-20 13:11:06.32,74,-395,-2005,38,-26,27,726,96,630,-411
,746,2023-10-20 13:11:06.33,64,-400,-2018,18,8,24,605,136,469,-370
,747,2023-10-20 13:11:06.34,73,-405,-2037,5,14,21,724,94,630,-409
,748,2023-10-20 13:11:06.35,38,-404,-2056,-4,32,24,603,134,469,-368
,749,2023-10-20 13:11:06.36,55,-404,-2027,-1,20,26,726,97,629,-411
,750,2023-10-20 13:11:06.37,71,-394,-2021,1,3,28,606,139,467,-372
,751,2023-10-20 13:11:06.38,63,-397,-2023,-5,-7,28,728,96,632,-412
,752,2023-10-20 13:11:06.39,59,-398,-2011,-11,9,31,594,127,467,-360
,753,2023-10-20 13:11:06.40,61,-388,-2007,-15,9,35,728,96,632,-412
,754,2023-10-20 13:11:06.41,51,-400,-2007,-22,13,37,589,129,460,-359
,755,2023-10-20 13:11:06.42,57,-388,-2017,-20,6,38,730,117,613,-423
,756,2023-10-20 13:11:06.43,50,-395,-2021,-17,3,36,574,125,449,-349
,757,2023-10-20 13:11:06.44,40,-374,-2030,-19,25,26,732,113,619,-422
,758,2023-10-20 13:11:06.45,58,-347,-2011,-4,31,-2,574,114,460,-344
,759,2023-10-20 13:11:06.46,67,-338,-2004,1,57,-27,736,112,624,-424
,760,2023-10-20 13:11:06.47,78,-427,-1949,13,77,-25,572,117,455,-344
,761,2023-10-20 13:11:06.48,51,-458,-1992,31,105,-17,741,117,624,-429
,762,2023-10-20 13:11:06.49,52,-422,-2069,34,91,-5,574,112,462,-343
,763,2023-10-20 13:11:06.50,60,-378,-2098,30,66,6,756,122,634,-439
,764,2023-10-20 13:11:06.51,91,-384,-2056,26,26,11,582,110,472,-346
,765,2023-10-20 13:11:06.52,54,-359,-2031,17,31,-2,760,127,633,-443
,766,2023-10-20 13:11:06.53,74,-422,-2045,6,18,-8,579,107,472,-343
,767,2023-10-20 13:11:06.54,76,-398,-2018,2,26,-9,774,134,640,-454
,768,2023-10-20 13:11:06.55,53,-413,-2034,18,8,-14,588,116,472,-352
,769,2023-10-20 13:11:06.56,74,-416,-2020,21,1,-12,781,144,637,-462
,770,2023-10-20 13:11:06.57,67,-416,-2012,37,-3,-11,586,114,472,-350
,771,2023-10-20 13:11:06.58,76,-385,-2034,30,1,-18,779,143,636,-461
,772,2023-10-20 13:11:06.59,66,-391,-2024,5,19,-22,576,103,473,-339
,773,2023-10-20 13:11:06.60,52,-408,-2031,-1,26,-25,773,140,633,-456
,774,2023-10-20 13:11:06.61,70,-409,-2035,5,4,-19,573,97,476,-335
,775,2023-10-20 13:11:06.62,66,-421,-2032,6,-8,-12,781,142,639,-461
,776,2023-10-20 13:11:06.63,65,-416,-2022,-5,3,-6,574,91,483,-332
,777,2023-10-20 13:11:06.64,70,-423,-1999,-17,11,6,783,143,640,-463
,778,2023-10-20 13:11:06.65,84,-419,-2015,-24,26,20,570,89,481,-329
,779,2023-10-20 13:11:06.66,73,-421,-2022,-24,35,33,781,144,637,-462
,780,2023-10-20 13:11:06.67,82,-404,-2021,-23,40,45,564,86,478,-325
,781,2023-10-20 13:11:06.68,87,-403,-2029,-15,32,50,773,147,626,-460
,782,2023-10-20 13:11:06.69,67,-402,-2041,-5,19,53,554,82,472,-318
,783,2023-10-20 13:11:06.70,93,-367,-2043,6,4,56,773,146,627,-459
,784,2023-10-20 13:11:06.71,95,-375,-2025,0,-2,55,552,74,478,-313
,785,2023-10-20 13:11:06.72,61,-384,-2037,-12,22,51,774,142,632,-458
,786,2023-10-20 13:11:06.73,71,-381,-2042,-8,2,50,551,68,483,-309
,787,2023-10-20 13:11:06.74,72,-372,-2043,2,-33,48,775,145,630,-460
,788,2023-10-20 13:11:06.75,68,-358,-2030,13,-47,42,548,68,480,-308
,789,2023-10-20 13:11:06.76,74,-357,-2010,18,-59,26,769,149,620,-459
,790,2023-10-20 13:11:06.77,68,-347,-2035,14,-33,11,540,60,480,-300
,791,2023-10-20 13:11:06.78,59,-376,-2025,12,-27,0,789,162,627,-475
,792,2023-10-20 13:11:06.79,51,-391,-2037,18,-25,-9,550,62,488,-306
,793,2023-10-20 13:11:06.80,64,-401,-2018,25,-28,-9,777,156,621,-466
,794,2023-10-20 13:11:06.81,58,-413,-2016,25,-18,-4,540,50,490,-295
,795,2023-10-20 13:11:06.82,59,-414,-2004,30,-4,-3,782,159,623,-470
,796,2023-10-20 13:11:06.83,62,-414,-2009,26,12,2,551,61,490,-306
,797,2023-10-20 13:11:06.84,69,-419,-2003,26,19,6,780,160,620,-470
,798,2023-10-20 13:11:06.85,71,-413,-2018,24,21,15,550,58,492,-304
,799,2023-10-20 13:11:06.86,60,-393,-2035,27,11,18,787,171,616,-479
,800,2023-10-20 13:11:06.87,69,-393,-2042,30,-15,17,560,63,497,-311
,801,2023-10-20 13:11:06.88,65,-409,-2013,39,-38,17,799,184,615,-491
,802,2023-10-20 13:11:06.89,58,-421,-2002,46,-51,22,564,66,498,-315
,803,2023-10-20 13:11:06.90,66,-428,-1988,53,-62,34,804,191,613,-497
,804,2023-10-20 13:11:06.91,76,-414,-1998,62,-46,35,570,70,500,-320
,805,2023-10-20 13:11:06.92,67,-409,-2013,64,-46,39,815,202,613,-508
,806,2023-10-20 13:11:06.93,68,-407,-2035,65,-44,40,577,73,504,-325
,807,2023-10-20 13:11:06.94,78,-403,-2042,69,-56,37,811,204,607,-507
,808,2023-10-20 13:11:06.95,71,-382,-2046,69,-60,30,572,70,502,-321
,809,2023-10-20 13:11:06.96,55,-361,-2056,58,-63,12,810,208,602,-509
,810,2023-10-20 13:11:06.97,65,-356,-2042,32,-46,-6,577,68,509,-322
,811,2023-10-20 13:11:06.98,67,-352,-2035,3,-19,-29,805,196,609,-500
,812,2023-10-20 13:11:06.99,59,-382,-2000,-10,-12,-54,565,52,513,-308
,813,2023-10-20 13:11:07.00,63,-397,-2001,-6,11,-70,801,200,601,-500
,814,2023-10-20 13:11:07.01,62,-401,-2003,12,19,-86,574,61,513,-317
,815,2023-10-20 13:11:07.02,56,-413,-2011,22,29,-97,800,203,597,-501
,816,2023-10-20 13:11:07.03,43,-418,-2019,36,28,-105,568,52,516,-310
,817,2023-10-20 13:11:07.04,39,-414,-2028,45,20,-109,795,198,597,-496
,818,2023-10-20 13:11:07.05,31,-413,-2021,33,32,-116,566,45,521,-305
,819,2023-10-20 13:11:07.06,49,-431,-2002,29,26,-123,784,192,592,-488
,820,2023-10-20 13:11:07.07,47,-448,-2007,37,19,-129,561,37,524,-299
,821,2023-10-20 13:11:07.08,47,-446,-2002,59,-3,-128,784,191,593,-487
,822,2023-10-20 13:11:07.09,41,-446,-2002,54,7,-129,563,38,525,-300
,823,2023-10-20 13:11:07.10,40,-457,-2022,43,15,-132,783,192,591,-487
,824,2023-10-20 13:11:07.11,35,-448,-2025,26,34,-137,561,36,525,-298
,825,2023-10-20 13:11:07.12,56,-451,-2012,25,15,-141,764,184,580,-474
,826,2023-10-20 13:11:07.13,45,-437,-2029,22,8,-143,556,25,531,-290
,827,2023-10-20 13:11:07.14,51,-430,-2025,7,13,-152,771,190,581,-480
,828,2023-10-20 13:11:07.15,52,-436,-2016,-39,70,-157,561,28,533,-294
,829,2023-10-20 13:11:07.16,50,-428,-2019,-63,91,-157,764,187,577,-475
,830,2023-10-20 13:11:07.17,55,-428,-2022,-75,84,-152,559,20,539,-289
,831,2023-10-20 13:11:07.18,55,-422,-2024,-79,54,-137,749,177,572,-463
,832,2023-10-20 13:11:07.19,57,-405,-2033,-74,12,-122,564,24,540,-294
,833,2023-10-20 13:11:07.20,55,-381,-2025,-87,19,-110,743,176,567,-459
,834,2023-10-20 13:11:07.21,75,-382,-2001,-103,25,-105,553,15,538,-284
,835,2023-10-20 13:11:07.22,60,-409,-2003,-111,56,-95,735,170,565,-452
,836,2023-10-20 13:11:07.23,78,-402,-2030,-96,54,-83,560,18,542,-289
,837,2023-10-20 13:11:07.24,59,-399,-2029,-75,51,-71,738,181,557,-459
,838,2023-10-20 13:11:07.25,71,-378,-2026,-56,36,-62,566,19,547,-292
,839,2023-10-20 13:11:07.26,81,-366,-2019,-45,16,-54,746,186,560,-466
,840,2023-10-20 13:11:07.27,88,-346,-2033,-38,9,-57,572,18,554,-295
,841,2023-10-20 13:11:07.28,106,-333,-2033,-35,13,-61,734,180,554,-457
,842,2023-10-20 13:11:07.29,95,-328,-2020,-40,35,-69,583,24,559,-303
,843,2023-10-20 13:11:07.30,86,-340,-2027,-46,51,-79,742,190,552,-466
,844,2023-10-20 13:11:07.31,94,-368,-2043,-33,47,-89,577,21,556,-299
,845,2023-10-20 13:11:07.32,94,-361,-2047,-7,33,-95,738,188,550,-463
,846,2023-10-20 13:11:07.33,86,-367,-2028,17,17,-98,583,21,562,-302
,847,2023-10-20 13:11:07.34,105,-361,-2034,29,24,-104,719,178,541,-448
,848,2023-10-20 13:11:07.35,109,-368,-2019,35,22,-108,576,14,562,-295
,849,2023-10-20 13:11:07.36,100,-368,-2028,35,34,-115,731,187,544,-459
,850,2023-10-20 13:11:07.37,103,-360,-2028,33,32,-123,589,23,566,-306
,851,2023-10-20 13:11:07.38,134,-361,-2036,31,25,-125,718,180,538,-449
,852,2023-10-20 13:11:07.39,118,-379,-2034,31,22,-129,588,16,572,-302
,853,2023-10-20 13:11:07.40,120,-391,-2031,23,37,-130,721,184,537,-452
,854,2023-10-20 13:11:07.41,122,-399,-2018,21,42,-131,600,26,574,-313
,855,2023-10-20 13:11:07.42,121,-399,-2007,22,48,-126,713,185,528,-449
,856,2023-10-20 13:11:07.43,108,-400,-1995,26,60,-122,592,19,573,-305
,857,2023-10-20 13:11:07.44,117,-399,-1991,36,34,-118,714,182,532,-448
,858,2023-10-20 13:11:07.45,121,-395,-2011,39,28,-111,618,30,588,-324
,859,2023-10-20 13:11:07.46,126,-380,-2011,33,39,-105,728,197,531,-462
,860,2023-10-20 13:11:07.47,132,-376,-2022,26,31,-100,619,38,581,-328
,861,2023-10-20 13:11:07.48,117,-382,-2024,14,27,-95,704,188,516,-446
,862,2023-10-20 13:11:07.49,118,-364,-2048,4,13,-88,612,31,581,-321
,863,2023-10-20 13:11:07.50,153,-378,-2033,-1,-8,-81,714,197,517,-455
,864,2023-10-20 13:11:07.51,137,-383,-2028,-11,5,-73,638,49,589,-343
,865,2023-10-20 13:11:07.52,138,-370,-2022,-20,14,-71,714,203,511,-458
,866,2023-10-20 13:11:07.53,145,-373,-2036,-15,-3,-60,634,43,591,-338
,867,2023-10-20 13:11:07.54,133,-362,-2049,-15,-5,-55,697,186,511,-441
,868,2023-10-20 13:11:07.55,129,-371,-2059,-16,-5,-46,634,37,597,-335
,869,2023-10-20 13:11:07.56,129,-383,-2043,-21,-2,-38,711,194,517,-452
,870,2023-10-20 13:11:07.57,121,-390,-2050,-12,-10,-31,653,59,594,-356
,871,2023-10-20 13:11:07.58,119,-385,-2044,2,-18,-22,702,206,496,-454
,872,2023-10-20 13:11:07.59,110,-391,-2054,13,-24,-12,640,57,583,-348
,873,2023-10-20 13:11:07.60,116,-391,-2040,23,-18,-3,698,210,488,-454
,874,2023-10-20 13:11:07.61,110,-388,-2035,25,-6,3,654,62,592,-358
,875,2023-10-20 13:11:07.62,113,-387,-2034,28,-15,7,700,205,495,-452
,876,2023-10-20 13:11:07.63,100,-391,-2024,36,-4,11,667,50,617,-358
,877,2023-10-20 13:11:07.64,88,-385,-2026,47,-26,12,726,200,526,-463
,878,2023-10-20 13:11:07.65,106,-378,-2022,45,-24,11,714,70,644,-392
,879,2023-10-20 13:11:07.66,121,-388,-2012,43,-30,7,728,208,520,-468
,880,2023-10-20 13:11:07.67,101,-401,-2006,42,-10,2,699,62,637,-380
,881,2023-10-20 13:11:07.68,97,-400,-2000,47,-3,-4,713,172,541,-442
,882,2023-10-20 13:11:07.69,94,-416,-2006,50,-2,-13,725,51,674,-388
,883,2023-10-20 13:11:07.70,91,-414,-2006,56,-4,-21,723,177,546,-450
,884,2023-10-20 13:11:07.71,99,-423,-1999,57,1,-27,716,64,652,-390
,885,2023-10-20 13:11:07.72,91,-436,-1998,61,-2,-30,688,173,515,-430
,886,2023-10-20 13:11:07.73,111,-430,-2011,58,11,-32,708,64,644,-386
,887,2023-10-20 13:11:07.74,91,-438,-2007,54,14,-33,681,173,508,-427
,888,2023-10-20 13:11:07.75,113,-442,-2014,54,6,-31,700,63,637,-381
,889,2023-10-20 13:11:07.76,99,-441,-2017,51,-1,-29,661,162,499,-411
,890,2023-10-20 13:11:07.77,112,-437,-2007,46,4,-27,689,61,628,-375
,891,2023-10-20 13:11:07.78,109,-424,-2012,39,15,-24,650,160,490,-405
,892,2023-10-20 13:11:07.79,107,-419,-2020,24,20,-22,692,65,627,-378
,893,2023-10-20 13:11:07.80,100,-411,-2040,10,15,-18,644,157,487,-400
,894,2023-10-20 13:11:07.81,101,-410,-2032,3,6,-11,702,74,628,-388
,895,2023-10-20 13:11:07.82,120,-410,-2021,-7,8,-8,646,164,482,-405
,896,2023-10-20 13:11:07.83,108,-402,-2023,-14,8,-3,712,78,634,-395
,897,2023-10-20 13:11:07.84,124,-391,-2021,-23,12,-1,640,157,483,-398
,898,2023-10-20 13:11:07.85,117,-399,-2023,-26,15,6,714,83,631,-398
,899,2023-10-20 13:11:07.86,113,-397,-2016,-26,11,11,634,154,480,-394
,900,2023-10-20 13:11:07.87,124,-396,-2019,-27,14,17,703,79,624,-391
,901,2023-10-20 13:11:07.88,114,-400,-2008,-22,12,21,616,146,470,-381
,902,2023-10-20 13:11:07.89,126,-394,-2006,-16,8,25,702,77,625,-389
,903,2023-10-20 13:11:07.90,114,-387,-2021,-12,17,26,607,139,468,-373
,904,2023-10-20 13:11:07.91,112,-375,-2033,-17,21,27,714,89,625,-401
,905,2023-10-20 13:11:07.92,116,-376,-2052,-23,14,28,624,151,473,-387
,906,2023-10-20 13:11:07.93,106,-368,-2059,-19,0,25,732,101,631,-416
,907,2023-10-20 13:11:07.94,105,-358,-2055,-19,-20,25,619,148,471,-383
,908,2023-10-20 13:11:07.95,106,-363,-2033,-18,-17,19,741,111,630,-426
,909,2023-10-20 13:11:07.96,117,-361,-2026,-16,-17,11,624,158,466,-391
,910,2023-10-20 13:11:07.97,116,-359,-2022,-12,-10,5,750,123,627,-436
,911,2023-10-20 13:11:07.98,121,-354,-2027,-5,0,-2,625,159,466,-392
,912,2023-10-20 13:11:07.99,113,-347,-2033,-5,2,-11,752,122,630,-437
,913,2023-10-20 13:11:08.00,122,-348,-2026,-4,4,-18,616,147,469,-381
,914,2023-10-20 13:11:08.01,108,-363,-2022,3,6,-27,751,121,630,-436
,915,2023-10-20 13:11:08.02,111,-368,-2016,12,4,-32,593,132,461,-362
,916,2023-10-20 13:11:08.03,110,-377,-2028,16,4,-33,730,106,624,-418
,917,2023-10-20 13:11:08.04,111,-399,-2021,17,11,-30,580,114,466,-347
,918,2023-10-20 13:11:08.05,111,-406,-2024,28,7,-26,738,106,632,-422
,919,2023-10-20 13:11:08.06,101,-410,-2031,41,2,-16,588,121,467,-354
,920,2023-10-20 13:11:08.07,110,-413,-2016,43,9,-5,752,120,632,-436
,921,2023-10-20 13:11:08.08,100,-416,-2020,37,22,3,594,125,469,-359
,922,2023-10-20 13:11:08.09,111,-425,-2012,42,21,10,757,117,640,-437
,923,2023-10-20 13:11:08.10,104,-413,-2010,50,21,16,584,116,468,-350
,924,2023-10-20 13:11:08.11,118,-398,-2020,52,21,14,746,116,630,-431
,925,2023-10-20 13:11:08.12,114,-399,-2032,42,23,10,575,112,463,-343
,926,2023-10-20 13:11:08.13,119,-414,-2042,38,18,8,752,124,628,-438
,927,2023-10-20 13:11:08.14,109,-429,-2035,39,12,11,577,115,462,-346
,928,2023-10-20 13:11:08.15,119,-409,-2029,40,6,6,759,128,631,-443
,929,2023-10-20 13:11:08.16,108,-414,-2023,37,-2,3,571,106,465,-338
,930,2023-10-20 13:11:08.17,121,-415,-2017,35,-7,-1,746,110,636,-428
,931,2023-10-20 13:11:08.18,111,-408,-2013,31,2,-2,557,82,475,-319
,932,2023-10-20 13:11:08.19,109,-404,-2005,20,9,-7,752,102,650,-427
,933,2023-10-20 13:11:08.20,106,-404,-2009,9,10,-13,562,77,485,-319
,934,2023-10-20 13:11:08.21,112,-394,-2015,-1,18,-20,747,103,644,-425
,935,2023-10-20 13:11:08.22,110,-390,-2022,-12,24,-25,547,70,477,-308
,936,2023-10-20 13:11:08.23,123,-387,-2018,-29,31,-27,750,110,640,-430
,937,2023-10-20 13:11:08.24,121,-386,-2023,-35,38,-32,556,74,482,-315
,938,2023-10-20 13:11:08.25,116,-383,-2025,-39,37,-37,762,122,640,-442
,939,2023-10-20 13:11:08.26,120,-390,-2027,-39,38,-37,558,78,480,-318
,940,2023-10-20 13:11:08.27,129,-384,-2024,-37,38,-41,764,126,638,-445
,941,2023-10-20 13:11:08.28,123,-374,-2025,-33,36,-42,552,73,479,-312
,942,2023-10-20 13:11:08.29,129,-376,-2022,-30,29,-44,762,128,634,-445
,943,2023-10-20 13:11:08.30,130,-379,-2029,-26,23,-47,551,72,479,-311
,944,2023-10-20 13:11:08.31,137,-381,-2024,-18,10,-48,768,139,629,-453
,945,2023-10-20 13:11:08.32,146,-378,-2019,-13,3,-49,553,78,475,-315
,946,2023-10-20 13:11:08.33,132,-385,-2024,-7,-2,-48,772,147,625,-459
,947,2023-10-20 13:11:08.34,141,-388,-2030,-1,-4,-48,550,75,475,-312
,948,2023-10-20 13:11:08.35,130,-400,-2036,5,-7,-43,776,154,622,-465
,949,2023-10-20 13:11:08.36,134,-402,-2028,15,-14,-36,553,80,473,-316
,950,2023-10-20 13:11:08.37,129,-402,-2023,18,-12,-32,770,157,613,-463
,951,2023-10-20 13:11:08.38,134,-409,-2028,19,-8,-23,544,72,472,-308
,952,2023-10-20 13:11:08.39,137,-411,-2026,27,-10,-15,772,154,618,-463
,953,2023-10-20 13:11:08.40,121,-410,-2025,34,-9,-6,544,65,479,-304
,954,2023-10-20 13:11:08.41,131,-405,-2021,33,-7,-1,760,152,608,-456
,955,2023-10-20 13:11:08.42,123,-415,-2019,30,-11,5,534,65,469,-299
,956,2023-10-20 13:11:08.43,131,-408,-2019,32,-9,12,740,141,599,-440
,957,2023-10-20 13:11:08.44,121,-402,-2023,33,-16,15,515,44,471,-279
,958,2023-10-20 13:11:08.45,122,-398,-2028,25,-12,20,749,143,606,-446
,959,2023-10-20 13:11:08.46,115,-398,-2029,16,-11,20,529,50,479,-289
,960,2023-10-20 13:11:08.47,119,-400,-2024,10,-14,24,761,158,603,-459
,961,2023-10-20 13:11:08.48,110,-405,-2021,8,-14,25,528,46,482,-287
,962,2023-10-20 13:11:08.49,121,-409,-2025,12,-22,26,771,167,604,-469
,963,2023-10-20 13:11:08.50,122,-403,-2020,10,-17,30,543,52,491,-297
,964,2023-10-20 13:11:08.51,130,-394,-2022,5,-9,29,772,168,604,-470
,965,2023-10-20 13:11:08.52,98,-394,-2018,-1,-4,27,536,53,483,-294
,966,2023-10-20 13:11:08.53,117,-377,-2011,-5,3,23,757,179,578,-468
,967,2023-10-20 13:11:08.54,123,-381,-2020,-8,11,19,528,56,472,-292
,968,2023-10-20 13:11:08.55,117,-385,-2031,-13,11,16,756,178,578,-467
,969,2023-10-20 13:11:08.56,121,-379,-2033,-14,8,10,522,46,476,-284
,970,2023-10-20 13:11:08.57,114,-382,-2040,-13,0,8,746,176,570,-461
,971,2023-10-20 13:11:08.58,109,-378,-2030,-17,-6,6,518,44,474,-281
,972,2023-10-20 13:11:08.59,119,-381,-2021,-19,-10,4,746,175,571,-460
,973,2023-10-20 13:11:08.60,118,-379,-2027,-16,-8,3,523,39,484,-281
,974,2023-10-20 13:11:08.61,119,-386,-2022,-14,-7,6,752,176,576,-464
,975,2023-10-20 13:11:08.62,116,-390,-2019,-9,-10,7,531,40,491,-285
,976,2023-10-20 13:11:08.63,117,-389,-2019,-1,-6,8,749,176,573,-462
,977,2023-10-20 13:11:08.64,122,-394,-2013,8,-4,8,527,35,492,-281
,978,2023-10-20 13:11:08.65,123,-394,-2024,12,2,10,752,181,571,-466
,979,2023-10-20 13:11:08.66,115,-393,-2028,19,4,10,536,39,497,-287
,980,2023-10-20 13:11:08.67,118,-383,-2035,24,-1,10,763,188,575,-475
,981,2023-10-20 13:11:08.68,119,-385,-2032,29,-7,13,547,42,505,-294
,982,2023-10-20 13:11:08.69,112,-378,-2038,29,-6,16,772,201,571,-486
,983,2023-10-20 13:11:08.70,119,-390,-2030,32,-3,21,552,50,502,-301
,984,2023-10-20 13:11:08.71,110,-397,-2011,40,-3,29,766,203,563,-484
,985,2023-10-20 13:11:08.72,108,-396,-2017,54,-6,39,552,44,508,-298
,986,2023-10-20 13:11:08.73,109,-396,-2003,58,5,47,764,196,568,-480
,987,2023-10-20 13:11:08.74,115,-393,-2005,58,12,54,549,34,515,-291
,988,2023-10-20 13:11:08.75,129,-396,-2023,58,27,58,745,186,559,-465
,989,2023-10-20 13:11:08.76,129,-401,-2033,58,17,63,538,26,512,-282
,990,2023-10-20 13:11:08.77,114,-402,-2026,60,32,63,742,184,558,-463
,991,2023-10-20 13:11:08.78,118,-401,-2038,65,18,67,546,26,520,-286
,992,2023-10-20 13:11:08.79,121,-395,-2036,60,23,64,749,188,561,-468
,993,2023-10-20 13:11:08.80,128,-397,-2045,57,18,57,559,30,529,-294
,994,2023-10-20 13:11:08.81,115,-399,-2043,50,11,53,754,196,558,-475
,995,2023-10-20 13:11:08.82,126,-390,-2049,47,3,47,569,34,535,-301
,996,2023-10-20 13:11:08.83,117,-402,-2031,35,-2,41,775,214,561,-494
,997,2023-10-20 13:11:08.84,132,-396,-2019,26,-6,35,581,43,538,-312
,998,2023-10-20 13:11:08.85,115,-398,-2024,18,-9,30,764,212,552,-488
,999,2023-10-20 13:11:08.86,118,-395,-2017,17,-12,24,580,43,537,-311
,1000,2023-10-20 13:11:08.87,118,-398,-2004,10,-9,18,760,216,544,-488
,1001,2023-10-20 13:11:08.88,128,-403,-2010,7,-4,14,578,49,529,-313
,1002,2023-10-20 13:11:08.89,118,-404,-2013,0,1,4,740,211,529,-475
,1003,2023-10-20 13:11:08.90,112,-404,-2022,1,3,4,574,46,528,-310
,1004,2023-10-20 13:11:08.91,112,-407,-2036,1,-7,0,742,215,527,-478
,1005,2023-10-20 13:11:08.92,109,-400,-2039,-1,-7,2,580,46,534,-313
,1006,2023-10-20 13:11:08.93,108,-402,-2028,-8,-7,1,741,213,528,-477
,1007,2023-10-20 13:11:08.94,103,-422,-1994,-7,-6,3,587,44,543,-315
,1008,2023-10-20 13:11:08.95,119,-410,-2009,3,-10,4,731,204,527,-467
,1009,2023-10-20 13:11:08.96,104,-407,-2002,10,8,8,580,34,546,-307
,1010,2023-10-20 13:11:08.97,113,-406,-2010,10,13,8,723,202,521,-462
,1011,2023-10-20 13:11:08.98,125,-405,-2020,11,21,11,586,36,550,-311
,1012,2023-10-20 13:11:08.99,110,-408,-2033,16,23,17,727,203,524,-465
,1013,2023-10-20 13:11:09.00,125,-413,-2028,12,14,19,597,40,557,-318
,1014,2023-10-20 13:11:09.01,120,-410,-2032,13,15,22,728,204,524,-466
,1015,2023-10-20 13:11:09.02,131,-400,-2028,12,10,22,604,41,563,-322
,1016,2023-10-20 13:11:09.03,118,-403,-2000,7,14,23,726,204,522,-465
,1017,2023-10-20 13:11:09.04,135,-404,-2007,1,26,20,608,41,567,-324
,1018,2023-10-20 13:11:09.05,124,-405,-2022,-6,29,17,721,202,519,-461
,1019,2023-10-20 13:11:09.06,133,-407,-2035,-7,26,18,612,45,567,-328
,1020,2023-10-20 13:11:09.07,119,-405,-2047,-9,17,19,722,207,515,-464
,1021,2023-10-20 13:11:09.08,123,-404,-2042,-16,8,18,621,52,569,-336
,1022,2023-10-20 13:11:09.09,121,-398,-2036,-21,0,16,716,206,510,-461
,1023,2023-10-20 13:11:09.10,124,-396,-2029,-24,-10,19,624,42,582,-333
,1024,2023-10-20 13:11:09.11,132,-390,-2018,-25,-19,19,714,192,522,-453
,1025,2023-10-20 13:11:09.12,114,-393,-2016,-21,-24,17,630,38,592,-334
,1026,2023-10-20 13:11:09.13,121,-391,-2021,-16,-30,18,704,190,514,-447
,1027,2023-10-20 13:11:09.14,116,-395,-2030,-7,-35,22,631,43,588,-337
,1028,2023-10-20 13:11:09.15,123,-393,-2029,6,-42,26,700,193,507,-446
,1029,2023-10-20 13:11:09.16,114,-400,-2027,13,-42,29,628,44,584,-336
,1030,2023-10-20 13:11:09.17,121,-402,-2019,20,-43,31,685,183,502,-434
,1031,2023-10-20 13:11:09.18,122,-394,-2019,31,-44,37,635,42,593,-338
,1032,2023-10-20 13:11:09.19,104,-407,-2014,38,-40,42,693,186,507,-439
,1033,2023-10-20 13:11:09.20,115,-387,-2027,40,-31,44,653,52,601,-352
,1034,2023-10-20 13:11:09.21,107,-410,-2007,35,-7,45,695,194,501,-444
,1035,2023-10-20 13:11:09.22,120,-393,-2020,32,-5,46,658,59,599,-358
,1036,2023-10-20 13:11:09.23,112,-410,-2020,33,8,41,689,193,496,-441
,1037,2023-10-20 13:11:09.24,102,-417,-2018,41,-2,39,666,68,598,-367
,1038,2023-10-20 13:11:09.25,108,-408,-2027,43,-7,37,690,194,496,-442
,1039,2023-10-20 13:11:09.26,108,-410,-2022,37,-9,35,666,63,603,-364
,1040,2023-10-20 13:11:09.27,102,-416,-2022,28,-7,33,681,184,497,-432
,1041,2023-10-20 13:11:09.28,105,-407,-2019,27,-18,32,662,60,602,-361
,1042,2023-10-20 13:11:09.29,113,-395,-2020,22,-20,31,665,181,484,-423
,1043,2023-10-20 13:11:09.30,104,-414,-2019,8,-8,30,661,64,597,-362
,1044,2023-10-20 13:11:09.31,105,-413,-2021,-2,-17,28,654,180,474,-417
,1045,2023-10-20 13:11:09.32,103,-415,-2038,1,-20,28,665,69,596,-367
,1046,2023-10-20 13:11:09.33,101,-393,-2030,-7,-22,29,654,181,473,-417
,1047,2023-10-20 13:11:09.34,115,-393,-2030,-15,-24,26,667,70,597,-368
,1048,2023-10-20 13:11:09.35,119,-393,-2028,-22,-20,23,646,176,470,-411
,1049,2023-10-20 13:11:09.36,104,-397,-2033,-20,-17,19,672,71,601,-371
,1050,2023-10-20 13:11:09.37,104,-393,-2024,-16,-17,16,641,173,468,-407
,1051,2023-10-20 13:11:09.38,111,-389,-2022,-14,-21,8,675,70,605,-372
,1052,2023-10-20 13:11:09.39,119,-390,-2019,-6,-21,5,638,168,470,-403
,1053,2023-10-20 13:11:09.40,107,-384,-2022,-1,-19,5,685,79,606,-382
,1054,2023-10-20 13:11:09.41,102,-386,-2023,1,-18,1,632,167,465,-399
,1055,2023-10-20 13:11:09.42,93,-387,-2028,2,-20,3,690,80,610,-385
,1056,2023-10-20 13:11:09.43,107,-402,-2029,2,-19,5,631,171,460,-401
,1057,2023-10-20 13:11:09.44,91,-399,-2029,3,-23,9,694,87,607,-390
,1058,2023-10-20 13:11:09.45,102,-404,-2016,3,-25,16,622,163,459,-392
,1059,2023-10-20 13:11:09.46,90,-398,-2013,1,-18,19,692,86,606,-389
,1060,2023-10-20 13:11:09.47,87,-396,-2010,0,-18,26,616,159,457,-387
,1061,2023-10-20 13:11:09.48,96,-395,-2014,3,-9,27,696,86,610,-391
,1062,2023-10-20 13:11:09.49,89,-392,-2022,5,-5,33,613,155,458,-384
,1063,2023-10-20 13:11:09.50,93,-400,-2016,8,-6,33,703,87,616,-395
,1064,2023-10-20 13:11:09.51,94,-392,-2013,13,-3,33,611,150,461,-380
,1065,2023-10-20 13:11:09.52,99,-394,-2015,19,-4,32,707,91,616,-399
,1066,2023-10-20 13:11:09.53,97,-397,-2019,23,-3,30,603,150,453,-376
,1067,2023-10-20 13:11:09.54,92,-396,-2023,28,-3,28,704,95,609,-399
,1068,2023-10-20 13:11:09.55,81,-401,-2026,31,-6,25,596,143,453,-369
,1069,2023-10-20 13:11:09.56,91,-400,-2030,35,-9,23,710,98,612,-404
,1070,2023-10-20 13:11:09.57,98,-400,-2029,34,-6,22,594,143,451,-368
,1071,2023-10-20 13:11:09.58,97,-397,-2034,31,-3,20,712,101,611,-406
,1072,2023-10-20 13:11:09.59,104,-400,-2036,19,10,21,588,137,451,-362
,1073,2023-10-20 13:11:09.60,90,-402,-2026,11,11,17,715,103,612,-409
,1074,2023-10-20 13:11:09.61,93,-406,-2025,20,-7,17,587,135,452,-361
,1075,2023-10-20 13:11:09.62,93,-389,-2012,25,-12,21,724,108,616,-416
,1076,2023-10-20 13:11:09.63,93,-389,-2015,18,-7,18,588,131,457,-359
,1077,2023-10-20 13:11:09.64,93,-391,-2018,10,-1,15,730,100,630,-415
,1078,2023-10-20 13:11:09.65,91,-401,-2024,6,6,18,588,123,465,-355
,1079,2023-10-20 13:11:09.66,89,-402,-2019,8,8,18,745,99,646,-422
,1080,2023-10-20 13:11:09.67,95,-396,-2015,4,10,19,595,120,475,-357
,1081,2023-10-20 13:11:09.68,98,-402,-2018,2,12,18,751,112,639,-431
,1082,2023-10-20 13:11:09.69,82,-400,-2019,1,20,20,583,119,464,-351
,1083,2023-10-20 13:11:09.70,87,-400,-2021,2,18,19,743,114,629,-428
,1084,2023-10-20 13:11:09.71,93,-398,-2030,3,18,18,574,113,461,-343
,1085,2023-10-20 13:11:09.72,87,-405,-2026,8,15,17,746,117,629,-431
,1086,2023-10-20 13:11:09.73,94,-406,-2027,15,12,17,572,109,463,-340
,1087,2023-10-20 13:11:09.74,95,-400,-2026,17,7,12,748,123,625,-435
,1088,2023-10-20 13:11:09.75,106,-398,-2020,19,2,6,576,115,461,-345
,1089,2023-10-20 13:11:09.76,99,-407,-2016,27,-3,1,752,127,625,-439
,1090,2023-10-20 13:11:09.77,99,-417,-2028,36,-8,-5,561,104,457,-332
,1091,2023-10-20 13:11:09.78,89,-418,-2033,43,-16,-12,738,117,621,-427
,1092,2023-10-20 13:11:09.79,98,-428,-2028,48,-25,-12,553,92,461,-322
,1093,2023-10-20 13:11:09.80,88,-433,-2021,52,-25,-8,750,122,628,-436
,1094,2023-10-20 13:11:09.81,88,-429,-2016,42,-16,-7,562,99,463,-330
,1095,2023-10-20 13:11:09.82,96,-442,-2000,37,-7,-5,753,129,624,-441
,1096,2023-10-20 13:11:09.83,90,-432,-1994,32,9,1,560,96,464,-328
,1097,2023-10-20 13:11:09.84,90,-428,-2000,25,25,3,754,132,622,-443
,1098,2023-10-20 13:11:09.85,95,-431,-2009,16,33,4,551,86,465,-318
,1099,2023-10-20 13:11:09.86,96,-419,-2019,13,32,3,742,116,626,-429
,1100,2023-10-20 13:11:09.87,93,-421,-2037,10,27,3,533,63,470,-298
,1101,2023-10-20 13:11:09.88,100,-415,-2032,2,23,3,741,115,626,-428
,1102,2023-10-20 13:11:09.89,100,-414,-2025,-1,18,0,543,70,473,-306
,1103,2023-10-20 13:11:09.90,96,-416,-2028,-7,12,-2,761,136,625,-448
,1104,2023-10-20 13:11:09.91,109,-415,-2025,-9,6,-1,552,76,476,-314
,1105,2023-10-20 13:11:09.92,100,-412,-2027,-12,8,-3,768,137,631,-452
,1106,2023-10-20 13:11:09.93,108,-411,-2011,-16,9,-2,550,71,479,-310
,1107,2023-10-20 13:11:09.94,106,-404,-2011,-22,13,1,754,134,620,-444
,1108,2023-10-20 13:11:09.95,110,-400,-2005,-30,19,-2,534,62,472,-298
,1109,2023-10-20 13:11:09.96,102,-400,-2017,-37,26,-3,746,132,614,-439
,1110,2023-10-20 13:11:09.97,92,-395,-2027,-44,29,-1,529,58,471,-293
,1111,2023-10-20 13:11:09.98,85,-387,-2035,-50,24,2,752,136,616,-444
,1112,2023-10-20 13:11:09.99,101,-381,-2034,-54,19,3,529,54,475,-291
,1113,2023-10-20 13:11:10.00,114,-376,-2029,-59,22,6,761,147,614,-454
,1114,2023-10-20 13:11:10.01,103,-371,-2019,-63,31,0,543,66,477,-304
,1115,2023-10-20 13:11:10.02,102,-373,-2031,-63,34,-1,773,161,612,-467
,1116,2023-10-20 13:11:10.03,112,-377,-2035,-53,28,-6,546,67,479,-306
,1117,2023-10-20 13:11:10.04,109,-378,-2042,-42,17,-4,770,160,610,-465
,1118,2023-10-20 13:11:10.05,103,-384,-2036,-31,10,-6,531,54,477,-292
,1119,2023-10-20 13:11:10.06,105,-385,-2032,-20,4,-2,746,155,591,-450
,1120,2023-10-20 13:11:10.07,110,-380,-2032,-10,8,2,535,55,480,-295
,1121,2023-10-20 13:11:10.08,101,-386,-2027,-5,6,2,780,174,606,-477
,1122,2023-10-20 13:11:10.09,116,-387,-2023,0,4,10,559,68,491,-313
,1123,2023-10-20 13:11:10.10,103,-394,-2025,9,7,10,791,182,609,-486
,1124,2023-10-20 13:11:10.11,100,-387,-2025,10,11,14,554,66,488,-310
,1125,2023-10-20 13:11:10.12,99,-388,-2024,5,24,17,774,176,598,-475
,1126,2023-10-20 13:11:10.13,103,-394,-2024,1,30,17,541,55,486,-298
,1127,2023-10-20 13:11:10.14,119,-391,-2014,0,34,19,768,171,597,-469
,1128,2023-10-20 13:11:10.15,112,-390,-2024,3,34,18,541,49,492,-295
,1129,2023-10-20 13:11:10.16,101,-396,-2021,1,36,16,777,174,603,-475
,1130,2023-10-20 13:11:10.17,104,-387,-2019,3,35,10,550,46,504,-298
,1131,2023-10-20 13:11:10.18,102,-387,-2017,5,34,9,784,175,609,-479
,1132,2023-10-20 13:11:10.19,98,-390,-2032,8,27,4,551,45,506,-298
,1133,2023-10-20 13:11:10.20,106,-384,-2032,9,19,-1,773,175,598,-474
,1134,2023-10-20 13:11:10.21,105,-388,-2030,10,8,-4,537,36,501,-286
,1135,2023-10-20 13:11:10.22,104,-396,-2021,8,4,-6,764,171,593,-467
,1136,2023-10-20 13:11:10.23,95,-396,-2021,6,6,-7,545,35,510,-290
,1137,2023-10-20 13:11:10.24,113,-391,-2010,2,10,-12,784,185,599,-484
,1138,2023-10-20 13:11:10.25,108,-393,-1998,0,16,-11,559,41,518,-300
,1139,2023-10-20 13:11:10.26,114,-391,-2015,-3,19,-14,780,185,595,-482
,1140,2023-10-20 13:11:10.27,106,-396,-2031,-5,21,-15,558,41,517,-299
,1141,2023-10-20 13:11:10.28,113,-400,-2036,-1,17,-13,772,187,585,-479
,1142,2023-10-20 13:11:10.29,106,-390,-2035,-2,14,-8,544,33,511,-288
,1143,2023-10-20 13:11:10.30,114,-394,-2030,-4,14,-5,745,174,571,-459
,1144,2023-10-20 13:11:10.31,115,-390,-2028,-9,22,-3,536,20,516,-278
,1145,2023-10-20 13:11:10.32,104,-395,-2035,-8,19,-1,760,177,583,-468
,1146,2023-10-20 13:11:10.33,123,-381,-2031,-10,25,4,558,29,529,-293
,1147,2023-10-20 13:11:10.34,109,-388,-2028,-8,30,6,780,195,585,-487
,1148,2023-10-20 13:11:10.35,104,-386,-2007,-8,28,9,572,40,532,-306
,1149,2023-10-20 13:11:10.36,116,-386,-1999,-1,31,8,775,198,577,-486
,1150,2023-10-20 13:11:10.37,131,-387,-2017,9,35,9,567,36,531,-301
,1151,2023-10-20 13:11:10.38,124,-387,-2037,14,33,14,775,196,579,-485
,1152,2023-10-20 13:11:10.39,142,-383,-2029,15,30,12,573,35,538,-304
,1153,2023-10-20 13:11:10.40,125,-370,-2028,16,30,9,768,197,571,-482
,1154,2023-10-20 13:11:10.41,129,-368,-2039,15,23,5,567,33,534,-300
,1155,2023-10-20 13:11:10.42,131,-367,-2048,16,6,3,761,200,561,-480
,1156,2023-10-20 13:11:10.43,123,-373,-2041,19,-5,1,565,38,527,-301
,1157,2023-10-20 13:11:10.44,126,-381,-2026,17,-10,1,755,213,542,-484
,1158,2023-10-20 13:11:10.45,126,-379,-2023,12,-6,1,568,45,523,-306
,1159,2023-10-20 13:11:10.46,117,-375,-2024,8,2,1,748,211,537,-479
,1160,2023-10-20 13:11:10.47,118,-380,-2019,7,14,1,574,47,527,-310
,1161,2023-10-20 13:11:10.48,131,-373,-2025,1,24,3,747,207,540,-477
,1162,2023-10-20 13:11:10.49,112,-381,-2029,-3,25,3,576,38,538,-307
,1163,2023-10-20 13:11:10.50,124,-373,-2025,3,14,3,751,204,547,-477
,1164,2023-10-20 13:11:10.51,125,-370,-2022,6,5,0,578,34,544,-306
,1165,2023-10-20 13:11:10.52,141,-371,-2026,8,4,-1,743,201,542,-472
,1166,2023-10-20 13:11:10.53,120,-375,-2029,3,1,-4,575,28,547,-301
,1167,2023-10-20 13:11:10.54,118,-382,-2017,4,4,-5,734,200,534,-467
,1168,2023-10-20 13:11:10.55,128,-397,-2017,9,9,-2,578,30,548,-304
,1169,2023-10-20 13:11:10.56,107,-391,-2010,15,13,0,733,197,536,-465
,1170,2023-10-20 13:11:10.57,118,-387,-2013,19,14,2,583,27,556,-305
,1171,2023-10-20 13:11:10.58,126,-385,-2027,18,22,2,730,194,536,-462
,1172,2023-10-20 13:11:10.59,117,-383,-2039,22,17,4,594,30,564,-312
,1173,2023-10-20 13:11:10.60,118,-386,-2049,24,7,6,727,196,531,-461
,1174,2023-10-20 13:11:10.61,101,-397,-2052,29,-12,6,596,32,564,-314
,1175,2023-10-20 13:11:10.62,115,-406,-2041,36,-31,12,720,196,524,-458
,1176,2023-10-20 13:11:10.63,118,-406,-2039,47,-36,19,593,26,567,-309
,1177,2023-10-20 13:11:10.64,117,-407,-2030,54,-39,23,704,185,519,-444
,1178,2023-10-20 13:11:10.65,111,-405,-2028,58,-36,30,581,15,566,-298
,1179,2023-10-20 13:11:10.66,112,-412,-2010,69,-35,36,676,164,512,-420
,1180,2023-10-20 13:11:10.67,116,-415,-1999,82,-24,37,566,1,565,-283
,1181,2023-10-20 13:11:10.68,116,-410,-2004,93,-11,38,663,151,512,-407
,1182,2023-10-20 13:11:10.69,115,-426,-2016,97,2,37,565,-4,569,-280
,1183,2023-10-20 13:11:10.70,109,-428,-2029,101,7,36,658,150,508,-404
,1184,2023-10-20 13:11:10.71,128,-435,-2035,106,6,37,572,0,572,-286
,1185,2023-10-20 13:11:10.72,117,-428,-2021,103,13,33,660,155,505,-407
,1186,2023-10-20 13:11:10.73,120,-424,-2035,93,17,26,580,5,575,-292
,1187,2023-10-20 13:11:10.74,123,-411,-2024,82,8,24,648,148,500,-398
,1188,2023-10-20 13:11:10.75,122,-403,-2015,66,-1,18,592,7,585,-299
,1189,2023-10-20 13:11:10.76,114,-400,-2015,42,2,12,673,166,507,-419
,1190,2023-10-20 13:11:10.77,123,-400,-2014,17,3,7,616,29,587,-322
,1191,2023-10-20 13:11:10.78,112,-409,-2015,0,0,5,665,170,495,-417
,1192,2023-10-20 13:11:10.79,105,-405,-2015,-12,-7,5,617,32,585,-324
,1193,2023-10-20 13:11:10.80,117,-407,-1994,-25,-11,7,669,174,495,-421
,1194,2023-10-20 13:11:10.81,128,-389,-1973,-29,-7,7,630,37,593,-333
,1195,2023-10-20 13:11:10.82,125,-384,-1987,-38,10,1,661,170,491,-415
,1196,2023-10-20 13:11:10.83,115,-369,-2018,-47,24,2,642,44,598,-343
,1197,2023-10-20 13:11:10.84,111,-388,-2033,-49,24,3,692,193,499,-442
,1198,2023-10-20 13:11:10.85,113,-376,-2049,-48,18,4,688,76,612,-382
,1199,2023-10-20 13:11:10.86,117,-366,-2049,-50,13,3,709,209,500,-459
,1200,2023-10-20 13:11:10.87,121,-360,-2064,-54,7,5,716,103,613,-409
,1201,2023-10-20 13:11:10.88,126,-360,-2048,-56,2,4,718,233,485,-475
,1202,2023-10-20 13:11:10.89,131,-338,-2020,-57,6,1,726,119,607,-422
,1203,2023-10-20 13:11:10.90,135,-323,-2005,-56,23,-9,727,240,487,-483
,1204,2023-10-20 13:11:10.91,137,-333,-2019,-60,42,-20,743,128,615,-435
,1205,2023-10-20 13:11:10.92,119,-337,-2027,-57,54,-28,716,236,480,-476
,1206,2023-10-20 13:11:10.93,135,-349,-2044,-47,55,-35,741,136,605,-438
,1207,2023-10-20 13:11:10.94,145,-357,-2036,-37,49,-37,709,237,472,-473
,1208,2023-10-20 13:11:10.95,139,-363,-2033,-25,45,-38,740,136,604,-438
,1209,2023-10-20 13:11:10.96,140,-367,-2040,-13,35,-38,695,226,469,-460
,1210,2023-10-20 13:11:10.97,151,-372,-2028,1,26,-36,738,129,609,-433
,1211,2023-10-20 13:11:10.98,160,-372,-2011,15,19,-35,693,222,471,-457
,1212,2023-10-20 13:11:10.99,151,-378,-2010,28,18,-37,728,118,610,-423
,1213,2023-10-20 13:11:11.00,139,-387,-2023,38,16,-39,661,194,467,-427
,1214,2023-10-20 13:11:11.01,143,-392,-2038,50,2,-34,712,100,612,-406
,1215,2023-10-20 13:11:11.02,143,-401,-2049,53,-15,-28,662,190,472,-426
,1216,2023-10-20 13:11:11.03,133,-411,-2060,50,-28,-21,728,110,618,-419
,1217,2023-10-20 13:11:11.04,119,-413,-2058,44,-43,-9,653,185,468,-419
,1218,2023-10-20 13:11:11.05,133,-420,-2031,41,-53,1,708,92,616,-400
,1219,2023-10-20 13:11:11.06,126,-408,-2009,44,-51,7,621,155,466,-388
,1220,2023-10-20 13:11:11.07,117,-414,-2031,44,-52,13,688,70,618,-379
,1221,2023-10-20 13:11:11.08,124,-415,-2038,51,-65,20,604,137,467,-370
,1222,2023-10-20 13:11:11.09,110,-433,-2042,68,-75,28,694,69,625,-381
,1223,2023-10-20 13:11:11.10,97,-432,-2046,87,-86,33,602,136,466,-369
,1224,2023-10-20 13:11:11.11,102,-433,-2056,92,-98,41,680,64,616,-372
,1225,2023-10-20 13:11:11.12,98,-451,-2097,101,-104,47,576,117,459,-346
,1226,2023-10-20 13:11:11.13,100,-463,-2107,110,-108,55,641,37,604,-339
,1227,2023-10-20 13:11:11.14,114,-457,-2075,118,-100,59,526,78,448,-302
,1228,2023-10-20 13:11:11.15,117,-460,-2054,127,-76,50,603,5,598,-304
,1229,2023-10-20 13:11:11.16,113,-472,-2066,129,-48,44,489,46,443,-267
,1230,2023-10-20 13:11:11.17,110,-470,-2061,127,-26,44,566,-25,591,-270
,1231,2023-10-20 13:11:11.18,95,-481,-2045,125,-11,52,455,14,441,-234
,1232,2023-10-20 13:11:11.19,81,-492,-2044,117,-1,59,516,-62,578,-227
,1233,2023-10-20 13:11:11.20,75,-489,-2044,101,-5,72,406,-24,430,-191
,1234,2023-10-20 13:11:11.21,75,-495,-2000,93,-12,90,504,-76,580,-214
,1235,2023-10-20 13:11:11.22,84,-466,-1960,86,-28,103,398,-32,430,-183
,1236,2023-10-20 13:11:11.23,88,-432,-1936,69,-13,109,486,-80,566,-203
,1237,2023-10-20 13:11:11.24,85,-425,-1953,38,13,108,379,-45,424,-167
,1238,2023-10-20 13:11:11.25,65,-422,-1976,9,36,107,486,-80,566,-203
,1239,2023-10-20 13:11:11.26,70,-432,-1989,-8,29,106,386,-40,426,-173
,1240,2023-10-20 13:11:11.27,53,-432,-1993,-16,17,111,498,-68,566,-215
,1241,2023-10-20 13:11:11.28,62,-409,-1982,-15,8,106,393,-33,426,-180
,1242,2023-10-20 13:11:11.29,91,-375,-1952,-20,8,105,536,-34,570,-251
,1243,2023-10-20 13:11:11.30,116,-354,-1924,-33,39,92,438,5,433,-221
,1244,2023-10-20 13:11:11.31,102,-348,-1926,-52,78,76,604,19,585,-311
,1245,2023-10-20 13:11:11.32,106,-338,-1964,-70,114,45,481,38,443,-259
,1246,2023-10-20 13:11:11.33,106,-343,-2011,-73,110,28,661,58,603,-359
,1247,2023-10-20 13:11:11.34,121,-343,-2016,-76,83,17,526,73,453,-299
,1248,2023-10-20 13:11:11.35,140,-346,-2020,-71,61,10,724,113,611,-418
,1249,2023-10-20 13:11:11.36,138,-341,-2025,-69,51,-4,570,118,452,-344
,1250,2023-10-20 13:11:11.37,152,-326,-2063,-76,53,-18,769,157,612,-463
,1251,2023-10-20 13:11:11.38,145,-322,-2077,-81,48,-31,585,135,450,-360
,1252,2023-10-20 13:11:11.39,137,-336,-2086,-79,42,-35,769,164,605,-466
,1253,2023-10-20 13:11:11.40,141,-354,-2083,-66,11,-36,576,126,450,-351
,1254,2023-10-20 13:11:11.41,126,-357,-2067,-41,-14,-28,785,172,613,-478
,1255,2023-10-20 13:11:11.42,111,-373,-2049,-10,-46,-22,596,138,458,-367
,1256,2023-10-20 13:11:11.43,97,-377,-2035,18,-70,-14,812,194,618,-503
,1257,2023-10-20 13:11:11.44,104,-374,-1997,52,-83,-4,612,149,463,-380
,1258,2023-10-20 13:11:11.45,89,-377,-1972,83,-81,2,811,196,615,-503
,1259,2023-10-20 13:11:11.46,99,-379,-1953,100,-70,2,600,139,461,-369
,1260,2023-10-20 13:11:11.47,88,-391,-1948,115,-49,3,820,206,614,-513
,1261,2023-10-20 13:11:11.48,76,-421,-1978,136,-36,5,613,149,464,-381
,1262,2023-10-20 13:11:11.49,81,-426,-1980,149,-29,8,829,222,607,-525
,1263,2023-10-20 13:11:11.50,86,-456,-1991,161,-25,10,610,153,457,-381
,1264,2023-10-20 13:11:11.51,78,-471,-2010,166,-15,13,837,234,603,-535
,1265,2023-10-20 13:11:11.52,84,-463,-2005,166,-8,15,610,153,457,-381
,1266,2023-10-20 13:11:11.53,91,-467,-1985,157,4,14,849,245,604,-547
,1267,2023-10-20 13:11:11.54,108,-469,-1981,144,28,13,627,166,461,-396
,1268,2023-10-20 13:11:11.55,121,-470,-1993,126,55,5,848,251,597,-549
,1269,2023-10-20 13:11:11.56,120,-455,-2004,110,74,-2,611,154,457,-382
,1270,2023-10-20 13:11:11.57,105,-480,-2027,95,84,-9,843,247,596,-545
,1271,2023-10-20 13:11:11.58,115,-485,-2048,85,66,-11,608,148,460,-378
,1272,2023-10-20 13:11:11.59,120,-492,-2048,81,55,-8,849,252,597,-550
,1273,2023-10-20 13:11:11.60,116,-485,-2042,68,46,-6,618,148,470,-383
,1274,2023-10-20 13:11:11.61,128,-481,-2041,53,29,-7,847,247,600,-547
,1275,2023-10-20 13:11:11.62,123,-487,-2029,44,20,-1,607,135,472,-371
,1276,2023-10-20 13:11:11.63,119,-481,-2026,39,14,3,827,235,592,-531
,1277,2023-10-20 13:11:11.64,131,-481,-1990,33,-3,9,588,118,470,-353
,1278,2023-10-20 13:11:11.65,109,-471,-1984,24,15,9,825,228,597,-526
,1279,2023-10-20 13:11:11.66,115,-462,-1992,17,17,12,592,115,477,-353
,1280,2023-10-20 13:11:11.67,112,-466,-1989,16,19,16,830,232,598,-531
,1281,2023-10-20 13:11:11.68,109,-464,-1997,21,9,17,593,110,483,-351
,1282,2023-10-20 13:11:11.69,111,-460,-2011,19,6,18,818,220,598,-519
,1283,2023-10-20 13:11:11.70,110,-450,-2009,23,-2,19,569,90,479,-329
,1284,2023-10-20 13:11:11.71,117,-443,-1999,17,3,19,815,219,596,-517
,1285,2023-10-20 13:11:11.72,111,-445,-2013,10,16,10,578,93,485,-335
,1286,2023-10-20 13:11:11.73,115,-445,-2024,1,19,4,799,209,590,-504
,1287,2023-10-20 13:11:11.74,119,-462,-2047,-1,16,-1,563,74,489,-318
,1288,2023-10-20 13:11:11.75,118,-446,-2027,0,12,-2,808,214,594,-511
,1289,2023-10-20 13:11:11.76,116,-455,-2039,-7,11,-15,581,86,495,-333
,1290,2023-10-20 13:11:11.77,113,-443,-2038,-11,12,-21,800,217,583,-508
,1291,2023-10-20 13:11:11.78,113,-451,-2048,-23,4,-29,572,80,492,-326
,1292,2023-10-20 13:11:11.79,115,-451,-2031,-26,-5,-29,809,221,588,-515
,1293,2023-10-20 13:11:11.80,111,-446,-2024,-31,-1,-32,582,79,503,-330
,1294,2023-10-20 13:11:11.81,116,-446,-2030,-35,10,-34,798,216,582,-507
,1295,2023-10-20 13:11:11.82,112,-445,-2044,-38,15,-31,571,71,500,-321
,1296,2023-10-20 13:11:11.83,108,-459,-2044,-38,14,-25,803,225,578,-514
,1297,2023-10-20 13:11:11.84,116,-457,-2024,-33,8,-18,588,84,504,-336
,1298,2023-10-20 13:11:11.85,104,-440,-1997,-26,9,-11,816,232,584,-524
,1299,2023-10-20 13:11:11.86,117,-443,-1995,-21,16,-8,591,77,514,-334
,1300,2023-10-20 13:11:11.87,105,-451,-2012,-14,23,-7,799,226,573,-512
,1301,2023-10-20 13:11:11.88,94,-448,-2023,-5,17,1,576,66,510,-321
,1302,2023-10-20 13:11:11.89,88,-453,-2007,5,7,7,777,207,570,-492
,1303,2023-10-20 13:11:11.90,97,-456,-1987,11,14,15,568,51,517,-309
,1304,2023-10-20 13:11:11.91,97,-439,-1991,18,26,17,779,208,571,-493
,1305,2023-10-20 13:11:11.92,116,-436,-1992,21,36,17,582,60,522,-321
,1306,2023-10-20 13:11:11.93,101,-432,-1981,22,45,14,788,222,566,-505
,1307,2023-10-20 13:11:11.94,116,-420,-1989,20,58,6,589,68,521,-328
,1308,2023-10-20 13:11:11.95,112,-415,-1994,13,67,-7,798,236,562,-517
,1309,2023-10-20 13:11:11.96,131,-399,-2003,2,68,-19,604,77,527,-340
,1310,2023-10-20 13:11:11.97,145,-400,-2010,-7,71,-34,802,240,562,-521
,1311,2023-10-20 13:11:11.98,146,-396,-2031,-15,68,-50,606,73,533,-339
,1312,2023-10-20 13:11:11.99,137,-410,-2050,-23,59,-62,796,237,559,-516
,1313,2023-10-20 13:11:12.00,141,-430,-2055,-23,41,-66,609,72,537,-340
,1314,2023-10-20 13:11:12.01,149,-448,-2047,-21,22,-65,798,239,559,-518
,1315,2023-10-20 13:11:12.02,125,-457,-2044,-15,10,-53,613,71,542,-342
,1316,2023-10-20 13:11:12.03,133,-455,-2048,-14,2,-45,785,232,553,-508
,1317,2023-10-20 13:11:12.04,120,-457,-2034,-5,-3,-31,604,62,542,-333
,1318,2023-10-20 13:11:12.05,118,-450,-2026,0,-7,-16,772,224,548,-498
,1319,2023-10-20 13:11:12.06,123,-438,-2017,0,-4,-8,597,55,542,-326
,1320,2023-10-20 13:11:12.07,132,-434,-2006,1,-2,-1,761,219,542,-490
,1321,2023-10-20 13:11:12.08,141,-420,-1999,5,10,-1,605,56,549,-330
,1322,2023-10-20 13:11:12.09,143,-415,-1998,5,27,-1,762,221,541,-491
,1323,2023-10-20 13:11:12.10,144,-401,-2010,3,36,-4,615,62,553,-338
,1324,2023-10-20 13:11:12.11,155,-415,-2001,4,43,-6,764,230,534,-497
,1325,2023-10-20 13:11:12.12,156,-439,-2007,8,46,-8,630,76,554,-353
,1326,2023-10-20 13:11:12.13,159,-442,-2019,4,55,-5,777,243,534,-510
,1327,2023-10-20 13:11:12.14,135,-443,-2030,7,57,1,632,75,557,-353
,1328,2023-10-20 13:11:12.15,133,-437,-2042,5,38,1,755,230,525,-492
,1329,2023-10-20 13:11:12.16,151,-429,-2023,4,22,4,620,64,556,-342
,1330,2023-10-20 13:11:12.17,162,-421,-1989,4,9,1,763,240,523,-501
,1331,2023-10-20 13:11:12.18,181,-402,-1971,9,12,-10,639,80,559,-359
,1332,2023-10-20 13:11:12.19,170,-406,-1987,4,21,-21,748,235,513,-491
,1333,2023-10-20 13:11:12.20,166,-423,-2015,-5,26,-25,630,72,558,-351
,1334,2023-10-20 13:11:12.21,149,-424,-2042,-7,21,-23,751,239,512,-495
,1335,2023-10-20 13:11:12.22,148,-431,-2042,-10,17,-15,640,78,562,-359
,1336,2023-10-20 13:11:12.23,143,-435,-2054,-21,11,-11,738,233,505,-485
,1337,2023-10-20 13:11:12.24,135,-452,-2065,-24,3,3,626,67,559,-346
,1338,2023-10-20 13:11:12.25,136,-435,-2060,-17,-24,18,729,224,505,-476
,1339,2023-10-20 13:11:12.26,151,-423,-2027,-19,-45,30,629,68,561,-348
,1340,2023-10-20 13:11:12.27,148,-403,-1982,-23,-35,37,705,209,496,-457
,1341,2023-10-20 13:11:12.28,153,-397,-1986,-33,-12,30,619,58,561,-338
,1342,2023-10-20 13:11:12.29,158,-404,-1996,-37,9,23,715,223,492,-469
,1343,2023-10-20 13:11:12.30,156,-405,-1996,-33,23,16,635,71,564,-353
,1344,2023-10-20 13:11:12.31,142,-406,-2025,-31,32,1,694,213,481,-453
,1345,2023-10-20 13:11:12.32,147,-408,-2028,-34,26,3,629,66,563,-347
,1346,2023-10-20 13:11:12.33,141,-434,-2043,-31,23,8,708,221,487,-464
,1347,2023-10-20 13:11:12.34,138,-431,-2036,-28,19,20,656,80,576,-368
,1348,2023-10-20 13:11:12.35,148,-418,-2023,-20,12,33,696,214,482,-455
,1349,2023-10-20 13:11:12.36,149,-413,-2020,-10,5,46,646,74,572,-360
,1350,2023-10-20 13:11:12.37,153,-407,-2030,-1,3,48,708,228,480,-468
,1351,2023-10-20 13:11:12.38,157,-399,-2030,7,1,48,674,87,587,-380
,1352,2023-10-20 13:11:12.39,144,-396,-2020,16,-6,48,692,209,483,-450
,1353,2023-10-20 13:11:12.40,157,-400,-2030,21,-8,41,666,74,592,-370
,1354,2023-10-20 13:11:12.41,145,-406,-2011,24,-8,36,702,216,486,-459
,1355,2023-10-20 13:11:12.42,167,-400,-1997,26,1,23,671,83,588,-377
,1356,2023-10-20 13:11:12.43,167,-405,-1992,23,12,15,681,206,475,-443
,1357,2023-10-20 13:11:12.44,178,-413,-1987,21,30,8,667,82,585,-374
,1358,2023-10-20 13:11:12.45,158,-419,-2001,20,42,5,680,208,472,-444
,1359,2023-10-20 13:11:12.46,147,-426,-2018,15,39,6,672,83,589,-377
,1360,2023-10-20 13:11:12.47,147,-444,-2040,11,26,16,667,194,473,-430
,1361,2023-10-20 13:11:12.48,145,-453,-2056,7,9,29,677,83,594,-380
,1362,2023-10-20 13:11:12.49,132,-451,-2054,-3,-7,47,684,207,477,-445
,1363,2023-10-20 13:11:12.50,130,-451,-2035,-10,-12,65,674,83,591,-378
,1364,2023-10-20 13:11:12.51,138,-452,-1994,-8,-18,79,649,188,461,-418
,1365,2023-10-20 13:11:12.52,150,-428,-1967,-9,-1,86,659,69,590,-364
,1366,2023-10-20 13:11:12.53,159,-422,-1957,-5,23,84,653,188,465,-420
,1367,2023-10-20 13:11:12.54,152,-420,-1982,-1,44,76,676,81,595,-378
,1368,2023-10-20 13:11:12.55,153,-406,-2015,4,61,69,632,178,454,-405
,1369,2023-10-20 13:11:12.56,156,-400,-2033,13,63,62,672,77,595,-374
,1370,2023-10-20 13:11:12.57,142,-404,-2065,15,50,49,637,177,460,-407
,1371,2023-10-20 13:11:12.58,133,-421,-2080,18,29,47,680,78,602,-379
,1372,2023-10-20 13:11:12.59,170,-393,-2012,53,16,24,625,169,456,-397
,1373,2023-10-20 13:11:12.60,156,-419,-2000,43,19,42,681,82,599,-381
,1374,2023-10-20 13:11:12.61,176,-463,-2032,40,16,44,620,166,454,-393
,1375,2023-10-20 13:11:12.62,149,-437,-2034,34,11,54,695,90,605,-392
,1376,2023-10-20 13:11:12.63,152,-418,-2039,41,3,56,637,176,461,-406
,1377,2023-10-20 13:11:12.64,149,-404,-2023,42,-9,47,712,100,612,-406
,1378,2023-10-20 13:11:12.65,151,-398,-2021,33,-14,34,625,166,459,-395
,1379,2023-10-20 13:11:12.66,146,-402,-2027,30,-23,18,700,88,612,-394
,1380,2023-10-20 13:11:12.67,136,-415,-2025,32,-26,5,611,158,453,-384
,1381,2023-10-20 13:11:12.68,138,-420,-2014,38,-35,-4,703,92,611,-397
,1382,2023-10-20 13:11:12.69,129,-421,-2006,41,-39,-11,604,151,453,-377
,1383,2023-10-20 13:11:12.70,139,-429,-1990,44,-40,-19,697,84,613,-390
,1384,2023-10-20 13:11:12.71,135,-434,-1993,51,-36,-22,593,139,454,-366
,1385,2023-10-20 13:11:12.72,130,-436,-2001,58,-33,-23,701,88,613,-394
,1386,2023-10-20 13:11:12.73,110,-450,-2008,64,-37,-19,588,135,453,-361
,1387,2023-10-20 13:11:12.74,101,-460,-2016,71,-46,-12,700,88,612,-394
,1388,2023-10-20 13:11:12.75,106,-461,-2020,79,-55,-7,584,131,453,-357
,1389,2023-10-20 13:11:12.76,103,-464,-2004,81,-61,3,713,96,617,-404
,1390,2023-10-20 13:11:12.77,107,-465,-1998,79,-57,13,592,136,456,-364
,1391,2023-10-20 13:11:12.78,108,-464,-2002,73,-46,25,723,107,616,-415
,1392,2023-10-20 13:11:12.79,99,-466,-2012,64,-40,32,588,137,451,-362
,1393,2023-10-20 13:11:12.80,96,-469,-2020,57,-38,43,722,108,614,-415
,1394,2023-10-20 13:11:12.81,112,-457,-1996,51,-29,51,582,132,450,-357
,1395,2023-10-20 13:11:12.82,116,-440,-1986,37,-15,50,730,115,615,-422
,1396,2023-10-20 13:11:12.83,114,-441,-1989,16,6,49,581,132,449,-356
,1397,2023-10-20 13:11:12.84,115,-437,-2003,1,14,42,728,118,610,-423
,1398,2023-10-20 13:11:12.85,120,-445,-2004,-4,22,39,575,129,446,-352
,1399,2023-10-20 13:11:12.86,115,-451,-2017,-11,31,38,728,119,609,-423
,1400,2023-10-20 13:11:12.87,129,-445,-2029,-15,35,37,568,123,445,-345
,1401,2023-10-20 13:11:12.88,129,-449,-2037,-21,36,40,730,124,606,-427
,1402,2023-10-20 13:11:12.89,138,-442,-2036,-26,35,38,564,119,445,-341
,1403,2023-10-20 13:11:12.90,137,-415,-2031,-27,22,40,748,135,613,-441
,1404,2023-10-20 13:11:12.91,151,-422,-2018,-31,11,39,573,126,447,-349
,1405,2023-10-20 13:11:12.92,146,-429,-2001,-38,13,37,756,146,610,-451
,1406,2023-10-20 13:11:12.93,148,-406,-2011,-42,20,34,562,116,446,-339
,1407,2023-10-20 13:11:12.94,156,-414,-2026,-49,24,35,763,153,610,-458
,1408,2023-10-20 13:11:12.95,133,-421,-2024,-49,20,35,581,132,449,-356
,1409,2023-10-20 13:11:12.96,160,-404,-2010,-41,10,30,768,164,604,-466
,1410,2023-10-20 13:11:12.97,146,-402,-2015,-33,13,28,577,133,444,-355
,1411,2023-10-20 13:11:12.98,159,-384,-2018,-32,12,21,770,168,602,-469
,1412,2023-10-20 13:11:12.99,156,-401,-2007,-35,11,15,580,127,453,-353
,1413,2023-10-20 13:11:13.00,154,-405,-2024,-33,21,18,796,178,618,-487
,1414,2023-10-20 13:11:13.01,166,-424,-2046,-28,24,20,590,134,456,-362
,1415,2023-10-20 13:11:13.02,144,-425,-2057,-17,13,30,787,186,601,-486
,1416,2023-10-20 13:11:13.03,147,-433,-2036,-6,3,43,585,133,452,-359
,1417,2023-10-20 13:11:13.04,159,-424,-2033,1,2,54,810,200,610,-505
,1418,2023-10-20 13:11:13.05,143,-438,-2022,5,5,67,599,139,460,-369
,1419,2023-10-20 13:11:13.06,143,-432,-2025,16,7,73,798,191,607,-494
,1420,2023-10-20 13:11:13.07,133,-423,-2023,33,-5,82,573,119,454,-346
,1421,2023-10-20 13:11:13.08,139,-420,-2020,46,-12,86,780,174,606,-477
,1422,2023-10-20 13:11:13.09,145,-430,-2009,49,-13,87,566,104,462,-335
,1423,2023-10-20 13:11:13.10,122,-431,-2013,54,-15,86,781,177,604,-479
,1424,2023-10-20 13:11:13.11,132,-433,-2022,53,-27,81,568,108,460,-338
,1425,2023-10-20 13:11:13.12,125,-445,-2017,52,-18,85,789,186,603,-487
,1426,2023-10-20 13:11:13.13,112,-456,-2008,50,-18,83,568,102,466,-335
,1427,2023-10-20 13:11:13.14,136,-455,-1990,47,-19,83,774,171,603,-472
,1428,2023-10-20 13:11:13.15,132,-443,-1981,48,2,77,549,82,467,-315
,1429,2023-10-20 13:11:13.16,129,-436,-1975,49,7,67,754,154,600,-454
,1430,2023-10-20 13:11:13.17,145,-431,-1971,53,12,56,528,63,465,-295
,1431,2023-10-20 13:11:13.18,142,-424,-1993,55,16,43,727,134,593,-430
,1432,2023-10-20 13:11:13.19,128,-425,-2035,52,18,33,508,40,468,-274
,1433,2023-10-20 13:11:13.20,129,-440,-2055,48,3,25,722,119,603,-420
,1434,2023-10-20 13:11:13.21,124,-454,-2062,49,-15,24,510,30,480,-270
,1435,2023-10-20 13:11:13.22,129,-456,-2050,45,-35,27,732,129,603,-430
,1436,2023-10-20 13:11:13.23,116,-462,-2025,36,-41,29,524,41,483,-282
,1437,2023-10-20 13:11:13.24,112,-454,-2034,33,-52,33,748,148,600,-448
,1438,2023-10-20 13:11:13.25,109,-446,-2026,19,-41,44,530,50,480,-290
,1439,2023-10-20 13:11:13.26,83,-454,-1996,-3,-14,45,751,160,591,-455
,1440,2023-10-20 13:11:13.27,93,-444,-1996,-15,-10,39,532,57,475,-294
,1441,2023-10-20 13:11:13.28,89,-459,-1988,-9,-8,39,754,163,591,-458
,1442,2023-10-20 13:11:13.29,91,-451,-1987,2,-8,38,536,51,485,-293
,1443,2023-10-20 13:11:13.30,83,-455,-1983,14,-9,36,762,171,591,-466
,1444,2023-10-20 13:11:13.31,104,-451,-1967,23,-7,28,553,65,488,-309
,1445,2023-10-20 13:11:13.32,125,-453,-1965,40,20,20,763,180,583,-471
,1446,2023-10-20 13:11:13.33,129,-435,-1952,44,62,2,544,61,483,-302
,1447,2023-10-20 13:11:13.34,131,-440,-1980,40,96,-10,754,175,579,-464
,1448,2023-10-20 13:11:13.35,126,-442,-2012,42,107,-27,546,59,487,-302
,1449,2023-10-20 13:11:13.36,130,-463,-2028,43,96,-25,775,196,579,-485
,1450,2023-10-20 13:11:13.37,148,-450,-2023,50,78,-28,562,66,496,-314
,1451,2023-10-20 13:11:13.38,124,-467,-2068,24,57,-27,788,210,578,-499
,1452,2023-10-20 13:11:13.39,135,-482,-2068,19,33,-16,576,80,496,-328
,1453,2023-10-20 13:11:13.40,136,-471,-2049,11,12,-7,799,231,568,-515
,1454,2023-10-20 13:11:13.41,168,-459,-1958,7,13,0,583,89,494,-336
,1455,2023-10-20 13:11:13.42,172,-442,-1958,3,41,-9,803,234,569,-518
,1456,2023-10-20 13:11:13.43,168,-443,-1998,0,53,-11,584,83,501,-333
,1457,2023-10-20 13:11:13.44,153,-453,-2027,4,43,-9,793,229,564,-511
,1458,2023-10-20 13:11:13.45,153,-460,-2047,1,26,-6,584,82,502,-333
,1459,2023-10-20 13:11:13.46,135,-460,-2061,-2,5,5,812,246,566,-529
,1460,2023-10-20 13:11:13.47,144,-460,-2073,-10,-22,20,603,97,506,-350
,1461,2023-10-20 13:11:13.48,140,-458,-2042,-16,-35,35,808,251,557,-529
,1462,2023-10-20 13:11:13.49,156,-459,-1994,-24,-37,44,592,86,506,-339
,1463,2023-10-20 13:11:13.50,145,-450,-1976,-26,-7,51,791,236,555,-513
,1464,2023-10-20 13:11:13.51,134,-434,-1982,-26,13,51,592,76,516,-334
,1465,2023-10-20 13:11:13.52,146,-429,-2016,-21,19,51,804,243,561,-523
,1466,2023-10-20 13:11:13.53,143,-417,-2027,-20,26,45,604,80,524,-342
,1467,2023-10-20 13:11:13.54,132,-424,-2041,-21,24,42,786,232,554,-509
,1468,2023-10-20 13:11:13.55,142,-428,-2057,-17,16,41,580,64,516,-322
,1469,2023-10-20 13:11:13.56,126,-428,-2069,-15,10,39,764,221,543,-492
,1470,2023-10-20 13:11:13.57,141,-438,-2042,-14,1,40,582,55,527,-318
,1471,2023-10-20 13:11:13.58,149,-435,-1996,-7,4,42,770,220,550,-495
,1472,2023-10-20 13:11:13.59,150,-431,-1996,4,19,37,588,59,529,-323
,1473,2023-10-20 13:11:13.60,152,-419,-2005,14,25,25,764,226,538,-495
,1474,2023-10-20 13:11:13.61,155,-423,-2004,21,25,22,596,68,528,-332
,1475,2023-10-20 13:11:13.62,151,-435,-2011,26,31,14,783,242,541,-512
,1476,2023-10-20 13:11:13.63,154,-422,-2013,32,32,8,610,79,531,-344
,1477,2023-10-20 13:11:13.64,137,-424,-2026,28,21,4,778,249,529,-513
,1478,2023-10-20 13:11:13.65,136,-431,-2031,28,0,6,608,79,529,-343
,1479,2023-10-20 13:11:13.66,129,-427,-2009,24,-13,8,769,247,522,-508
,1480,2023-10-20 13:11:13.67,134,-432,-1991,21,-16,10,603,73,530,-338
,1481,2023-10-20 13:11:13.68,133,-426,-1990,18,-8,12,750,234,516,-492
,1482,2023-10-20 13:11:13.69,127,-426,-2008,8,-7,11,600,66,534,-333
,1483,2023-10-20 13:11:13.70,127,-427,-2014,10,-13,12,751,233,518,-492
,1484,2023-10-20 13:11:13.71,133,-433,-2011,7,-12,18,609,67,542,-338
,1485,2023-10-20 13:11:13.72,132,-432,-2013,9,-14,20,762,240,522,-501
,1486,2023-10-20 13:11:13.73,132,-431,-2008,9,-20,21,616,68,548,-342
,1487,2023-10-20 13:11:13.74,120,-440,-2028,18,-26,23,747,231,516,-489
,1488,2023-10-20 13:11:13.75,116,-444,-2029,25,-36,28,600,57,543,-328
,1489,2023-10-20 13:11:13.76,115,-444,-2021,29,-44,31,748,243,505,-495
,1490,2023-10-20 13:11:13.77,111,-442,-2018,34,-45,30,632,85,547,-358
,1491,2023-10-20 13:11:13.78,106,-446,-2019,39,-34,31,765,260,505,-512
,1492,2023-10-20 13:11:13.79,114,-443,-2017,43,-25,33,640,90,550,-365
,1493,2023-10-20 13:11:13.80,119,-444,-2013,45,-16,29,753,253,500,-503
,1494,2023-10-20 13:11:13.81,121,-449,-2007,50,-5,29,646,98,548,-372
,1495,2023-10-20 13:11:13.82,121,-460,-2009,57,-1,28,748,262,486,-505
,1496,2023-10-20 13:11:13.83,120,-460,-2003,64,6,26,652,105,547,-378
,1497,2023-10-20 13:11:13.84,122,-458,-2000,71,5,21,743,259,484,-501
,1498,2023-10-20 13:11:13.85,126,-461,-2006,72,7,21,653,93,560,-373
,1499,2023-10-20 13:11:13.86,123,-468,-2011,70,6,19,738,246,492,-492
,1500,2023-10-20 13:11:13.87,129,-467,-2009,73,3,18,661,97,564,-379
,1501,2023-10-20 13:11:13.88,125,-461,-2009,68,-1,19,743,249,494,-496
,1502,2023-10-20 13:11:13.89,123,-463,-2003,61,-6,20,675,114,561,-394
,1503,2023-10-20 13:11:13.90,115,-467,-1998,49,-6,20,745,272,473,-508
,1504,2023-10-20 13:11:13.91,121,-473,-1999,41,-5,21,687,128,559,-407
,1505,2023-10-20 13:11:13.92,131,-463,-2001,30,-5,21,745,266,479,-505
,1506,2023-10-20 13:11:13.93,121,-456,-1993,15,-2,21,691,120,571,-405
,1507,2023-10-20 13:11:13.94,123,-458,-1990,7,3,19,731,259,472,-495
,1508,2023-10-20 13:11:13.95,127,-452,-1989,-3,10,18,684,114,570,-399
,1509,2023-10-20 13:11:13.96,137,-452,-1984,-9,19,13,716,248,468,-482
,1510,2023-10-20 13:11:13.97,135,-451,-2011,-12,26,10,670,99,571,-384
,1511,2023-10-20 13:11:13.98,141,-461,-2031,-13,21,6,688,222,466,-455
,1512,2023-10-20 13:11:13.99,142,-460,-2037,-12,14,6,648,74,574,-361
,1513,2023-10-20 13:11:14.00,143,-458,-2032,-10,10,6,662,197,465,-429
,1514,2023-10-20 13:11:14.01,143,-461,-2031,-9,5,6,629,53,576,-341
,1515,2023-10-20 13:11:14.02,148,-461,-2026,-7,-1,5,636,171,465,-403
,1516,2023-10-20 13:11:14.03,135,-456,-2020,-4,0,6,615,37,578,-326
,1517,2023-10-20 13:11:14.04,146,-449,-2020,-4,-1,7,613,151,462,-382
,1518,2023-10-20 13:11:14.05,136,-455,-2011,-2,1,6,595,19,576,-307
,1519,2023-10-20 13:11:14.06,151,-451,-2010,0,6,4,585,127,458,-356
,1520,2023-10-20 13:11:14.07,138,-451,-2016,0,12,3,578,-1,579,-288
,1521,2023-10-20 13:11:14.08,141,-452,-2016,-3,12,4,562,110,452,-336
,1522,2023-10-20 13:11:14.09,141,-452,-2020,-6,8,7,567,-8,575,-279
,1523,2023-10-20 13:11:14.10,132,-458,-2008,-3,4,11,547,95,452,-321
,1524,2023-10-20 13:11:14.11,141,-462,-2017,-1,1,15,562,-17,579,-272
,1525,2023-10-20 13:11:14.12,137,-452,-2011,0,-5,16,542,92,450,-317
,1526,2023-10-20 13:11:14.13,135,-448,-2008,5,-11,21,583,4,579,-293
,1527,2023-10-20 13:11:14.14,144,-452,-2011,8,-15,24,551,105,446,-328
,1528,2023-10-20 13:11:14.15,129,-457,-2012,11,-17,26,594,15,579,-304
,1529,2023-10-20 13:11:14.16,123,-451,-2009,14,-23,27,540,101,439,-320
,1530,2023-10-20 13:11:14.17,137,-447,-2011,16,-23,30,595,18,577,-306
,1531,2023-10-20 13:11:14.18,130,-455,-2009,20,-22,29,548,109,439,-328
,1532,2023-10-20 13:11:14.19,123,-454,-2007,25,-20,30,608,27,581,-317
,1533,2023-10-20 13:11:14.20,120,-459,-2014,29,-19,33,549,110,439,-329
,1534,2023-10-20 13:11:14.21,125,-458,-2009,34,-14,33,610,24,586,-317
,1535,2023-10-20 13:11:14.22,129,-454,-2007,38,-12,32,543,100,443,-321
,1536,2023-10-20 13:11:14.23,124,-451,-2002,41,-10,29,616,25,591,-320
,1537,2023-10-20 13:11:14.24,124,-460,-2010,43,-7,26,548,106,442,-327
,1538,2023-10-20 13:11:14.25,128,-463,-2008,45,-7,23,642,46,596,-344
,1539,2023-10-20 13:11:14.26,129,-466,-2011,46,-7,21,572,131,441,-351
,1540,2023-10-20 13:11:14.27,123,-468,-2018,37,-6,19,676,78,598,-377
,1541,2023-10-20 13:11:14.28,124,-473,-2018,31,-5,20,593,142,451,-367
,1542,2023-10-20 13:11:14.29,108,-467,-2021,23,-5,22,701,94,607,-397
,1543,2023-10-20 13:11:14.30,116,-470,-2021,18,-11,21,600,151,449,-375
,1544,2023-10-20 13:11:14.31,116,-466,-2011,11,-11,22,714,111,603,-412
,1545,2023-10-20 13:11:14.32,122,-467,-2001,9,-7,21,606,164,442,-385
,1546,2023-10-20 13:11:14.33,120,-455,-1999,2,-2,18,735,128,607,-431
,1547,2023-10-20 13:11:14.34,121,-459,-2010,1,1,17,617,174,443,-395
,1548,2023-10-20 13:11:14.35,120,-462,-2003,3,1,14,746,149,597,-447
,1549,2023-10-20 13:11:14.36,106,-458,-2002,7,3,15,627,190,437,-408
,1550,2023-10-20 13:11:14.37,114,-463,-2011,14,-4,15,768,171,597,-469
,1551,2023-10-20 13:11:14.38,110,-472,-2015,17,-3,19,633,199,434,-416
,1552,2023-10-20 13:11:14.39,122,-468,-2006,23,-3,19,775,178,597,-476
,1553,2023-10-20 13:11:14.40,112,-462,-1992,26,0,22,625,190,435,-407
,1554,2023-10-20 13:11:14.41,124,-455,-2003,26,6,18,774,168,606,-471
,1555,2023-10-20 13:11:14.42,118,-456,-1998,27,15,18,613,168,445,-390
,1556,2023-10-20 13:11:14.43,120,-457,-2002,31,17,16,764,150,614,-457
,1557,2023-10-20 13:11:14.44,120,-457,-2011,35,16,12,607,156,451,-381
,1558,2023-10-20 13:11:14.45,121,-462,-2010,33,25,6,766,152,614,-459
,1559,2023-10-20 13:11:14.46,133,-459,-2011,33,21,3,601,154,447,-377
,1560,2023-10-20 13:11:14.47,126,-457,-2011,30,23,4,768,157,611,-462
,1561,2023-10-20 13:11:14.48,123,-469,-2011,29,26,4,600,150,450,-375
,1562,2023-10-20 13:11:14.49,142,-469,-2027,27,22,8,778,165,613,-471
,1563,2023-10-20 13:11:14.50,125,-465,-2028,25,22,10,611,157,454,-384
,1564,2023-10-20 13:11:14.51,122,-466,-2031,19,18,10,797,186,611,-491
,1565,2023-10-20 13:11:14.52,124,-463,-2029,14,11,15,618,169,449,-393
,1566,2023-10-20 13:11:14.53,138,-466,-2022,13,8,15,803,199,604,-501
,1567,2023-10-20 13:11:14.54,138,-465,-2007,13,5,17,627,180,447,-403
,1568,2023-10-20 13:11:14.55,144,-461,-1993,18,1,15,812,209,603,-510
,1569,2023-10-20 13:11:14.56,122,-473,-1995,22,5,16,622,178,444,-400
,1570,2023-10-20 13:11:14.57,128,-465,-2004,24,8,15,801,207,594,-504
,1571,2023-10-20 13:11:14.58,125,-464,-2014,24,5,15,616,176,440,-396
,1572,2023-10-20 13:11:14.59,127,-470,-1999,23,1,16,810,217,593,-513
,1573,2023-10-20 13:11:14.60,125,-473,-2001,21,-1,21,596,160,436,-378
,1574,2023-10-20 13:11:14.61,127,-476,-1999,22,-1,25,792,193,599,-492
,1575,2023-10-20 13:11:14.62,122,-472,-1991,25,-4,29,575,126,449,-350
,1576,2023-10-20 13:11:14.63,122,-465,-1992,21,-8,32,758,160,598,-459
,1577,2023-10-20 13:11:14.64,120,-460,-1994,11,-2,32,541,100,441,-320
,1578,2023-10-20 13:11:14.65,133,-457,-1999,4,1,31,726,143,583,-434
,1579,2023-10-20 13:11:14.66,113,-460,-1996,2,-1,28,538,98,440,-318
,1580,2023-10-20 13:11:14.67,112,-461,-2000,4,-5,25,744,160,584,-452
,1581,2023-10-20 13:11:14.68,125,-459,-2012,5,-8,23,537,96,441,-316
,1582,2023-10-20 13:11:14.69,121,-459,-2031,-1,-3,22,748,159,589,-453
,1583,2023-10-20 13:11:14.70,114,-465,-2031,-5,-3,21,540,90,450,-315
,1584,2023-10-20 13:11:14.71,119,-463,-2022,-3,-2,20,748,159,589,-453
,1585,2023-10-20 13:11:14.72,120,-459,-2010,-3,-1,16,538,85,453,-311
,1586,2023-10-20 13:11:14.73,132,-461,-2004,-4,5,13,751,158,593,-454
,1587,2023-10-20 13:11:14.74,130,-455,-2004,-1,19,13,534,73,461,-303
,1588,2023-10-20 13:11:14.75,131,-451,-1999,-6,29,5,747,148,599,-447
,1589,2023-10-20 13:11:14.76,129,-453,-2004,-8,31,3,534,67,467,-300
,1590,2023-10-20 13:11:14.77,124,-462,-2019,-7,28,5,760,160,600,-460
,1591,2023-10-20 13:11:14.78,125,-471,-2016,-7,18,5,542,76,466,-309
,1592,2023-10-20 13:11:14.79,129,-467,-2025,-8,3,12,767,178,589,-472
,1593,2023-10-20 13:11:14.80,115,-468,-2013,-7,-5,15,553,89,464,-321
,1594,2023-10-20 13:11:14.81,125,-474,-2003,-8,-10,24,779,194,585,-486
,1595,2023-10-20 13:11:14.82,124,-464,-1985,-10,-5,31,558,91,467,-324
,1596,2023-10-20 13:11:14.83,123,-456,-1972,-12,5,33,781,196,585,-488
,1597,2023-10-20 13:11:14.84,128,-444,-1967,-15,18,33,559,90,469,-324
,1598,2023-10-20 13:11:14.85,131,-438,-1984,-17,24,34,794,212,582,-503
,1599,2023-10-20 13:11:14.86,134,-451,-2003,-17,27,35,571,99,472,-335
,1600,2023-10-20 13:11:14.87,125,-465,-2022,-17,24,33,790,211,579,-500
,1601,2023-10-20 13:11:14.88,128,-451,-2026,-14,16,33,560,83,477,-321
,1602,2023-10-20 13:11:14.89,121,-461,-2021,-7,5,37,778,195,583,-486
,1603,2023-10-20 13:11:14.90,120,-471,-2023,3,1,40,553,71,482,-312
,1604,2023-10-20 13:11:14.91,129,-468,-2025,14,-2,43,774,189,585,-481
,1605,2023-10-20 13:11:14.92,124,-463,-2029,24,-4,47,554,69,485,-311
,1606,2023-10-20 13:11:14.93,121,-469,-2022,33,-7,44,776,198,578,-487
,1607,2023-10-20 13:11:14.94,124,-457,-2029,39,-3,41,556,68,488,-312
,1608,2023-10-20 13:11:14.95,125,-463,-2023,43,6,36,784,206,578,-495
,1609,2023-10-20 13:11:14.96,127,-459,-2026,46,12,26,553,63,490,-308
,1610,2023-10-20 13:11:14.97,118,-458,-2021,43,17,21,780,208,572,-494
,1611,2023-10-20 13:11:14.98,128,-465,-2017,42,18,15,550,63,487,-306
,1612,2023-10-20 13:11:14.99,120,-461,-2015,37,19,8,783,222,561,-502
,1613,2023-10-20 13:11:15.00,124,-475,-2023,33,16,6,574,83,491,-328
,1614,2023-10-20 13:11:15.01,116,-467,-2017,27,16,7,788,228,560,-508
,1615,2023-10-20 13:11:15.02,123,-475,-2001,22,17,6,580,83,497,-331
,1616,2023-10-20 13:11:15.03,118,-469,-1990,18,14,6,788,229,559,-508
,1617,2023-10-20 13:11:15.04,114,-470,-1982,15,14,5,570,73,497,-321
,1618,2023-10-20 13:11:15.05,115,-463,-1975,14,18,3,778,220,558,-499
,1619,2023-10-20 13:11:15.06,129,-451,-1981,11,18,2,574,69,505,-321
,1620,2023-10-20 13:11:15.07,120,-450,-1987,7,17,2,782,228,554,-505
,1621,2023-10-20 13:11:15.08,135,-450,-2000,0,12,0,582,73,509,-327
,1622,2023-10-20 13:11:15.09,141,-462,-2011,-5,10,2,784,231,553,-507
,1623,2023-10-20 13:11:15.10,151,-470,-2016,-9,8,5,584,74,510,-329
,1624,2023-10-20 13:11:15.11,139,-476,-2018,-10,11,7,786,236,550,-511
,1625,2023-10-20 13:11:15.12,127,-470,-2023,-9,13,12,598,84,514,-341
,1626,2023-10-20 13:11:15.13,143,-466,-2018,-10,14,14,807,256,551,-531
,1627,2023-10-20 13:11:15.14,150,-469,-2023,-5,17,18,625,104,521,-364
,1628,2023-10-20 13:11:15.15,156,-462,-2036,-1,23,15,826,284,542,-555
,1629,2023-10-20 13:11:15.16,153,-465,-2046,1,21,16,638,127,511,-382
,1630,2023-10-20 13:11:15.17,145,-474,-2074,9,14,13,831,306,525,-568
,1631,2023-10-20 13:11:15.18,147,-473,-2079,18,5,11,655,142,513,-398
,1632,2023-10-20 13:11:15.19,160,-474,-2085,27,-5,7,842,319,523,-580
,1633,2023-10-20 13:11:15.20,142,-473,-2080,34,-12,7,668,153,515,-410
,1634,2023-10-20 13:11:15.21,136,-476,-2062,42,-15,7,846,329,517,-587
,1635,2023-10-20 13:11:15.22,147,-479,-2059,53,-16,6,672,157,515,-414
,1636,2023-10-20 13:11:15.23,130,-474,-2042,51,0,10,822,312,510,-567
,1637,2023-10-20 13:11:15.24,135,-458,-2018,42,2,13,638,113,525,-375
,1638,2023-10-20 13:11:15.25,124,-455,-1978,30,5,16,778,256,522,-517
,1639,2023-10-20 13:11:15.26,118,-453,-1973,21,-2,21,597,62,535,-329
,1640,2023-10-20 13:11:15.27,104,-453,-1964,14,-11,24,720,197,523,-458
,1641,2023-10-20 13:11:15.28,112,-447,-1957,5,-22,28,541,6,535,-273
,1642,2023-10-20 13:11:15.29,116,-449,-1946,0,-26,32,643,129,514,-386
,1643,2023-10-20 13:11:15.30,90,-448,-1957,-1,-17,33,483,-47,530,-218
,1644,2023-10-20 13:11:15.31,103,-448,-1960,-3,-11,38,582,81,501,-331
,1645,2023-10-20 13:11:15.32,106,-458,-1973,0,-7,40,427,-96,523,-165
,1646,2023-10-20 13:11:15.33,88,-448,-1966,7,-8,44,511,20,491,-265
,1647,2023-10-20 13:11:15.34,112,-446,-1966,11,-2,44,391,-129,520,-131
,1648,2023-10-20 13:11:15.35,110,-452,-1981,16,7,42,497,12,485,-254
,1649,2023-10-20 13:11:15.36,118,-445,-1995,14,18,38,427,-105,532,-161
,1650,2023-10-20 13:11:15.37,122,-435,-2008,11,26,32,540,55,485,-297
,1651,2023-10-20 13:11:15.38,132,-439,-2019,15,35,21,469,-60,529,-204
,1652,2023-10-20 13:11:15.39,129,-454,-2041,14,38,11,592,103,489,-347
,1653,2023-10-20 13:11:15.40,142,-461,-2059,23,42,-1,542,-3,545,-269
,1654,2023-10-20 13:11:15.41,145,-460,-2046,29,44,-7,669,182,487,-425
,1655,2023-10-20 13:11:15.42,165,-470,-2032,36,51,-15,607,59,548,-333
,1656,2023-10-20 13:11:15.43,168,-474,-2018,43,64,-18,731,246,485,-488
,1657,2023-10-20 13:11:15.44,171,-475,-2010,49,71,-21,668,118,550,-393
,1658,2023-10-20 13:11:15.45,180,-482,-2005,58,68,-19,751,274,477,-512
,1659,2023-10-20 13:11:15.46,162,-477,-2008,63,61,-15,690,141,549,-415
,1660,2023-10-20 13:11:15.47,162,-487,-2005,65,45,-11,770,305,465,-537
,1661,2023-10-20 13:11:15.48,159,-501,-2019,66,25,0,710,158,552,-434
,1662,2023-10-20 13:11:15.49,145,-508,-2025,67,-14,24,768,301,467,-534
,1663,2023-10-20 13:11:15.50,146,-501,-2034,62,-29,36,704,145,559,-424
,1664,2023-10-20 13:11:15.51,135,-484,-1996,36,-23,50,746,276,470,-511
,1665,2023-10-20 13:11:15.52,123,-494,-1976,22,-20,58,696,123,573,-409
,1666,2023-10-20 13:11:15.53,133,-494,-1944,18,-15,65,730,252,478,-491
,1667,2023-10-20 13:11:15.54,121,-499,-1954,22,-6,71,677,101,576,-389
,1668,2023-10-20 13:11:15.55,105,-495,-1943,26,5,77,700,224,476,-462
,1669,2023-10-20 13:11:15.56,109,-479,-1937,26,-2,77,643,66,577,-354
,1670,2023-10-20 13:11:15.57,117,-465,-1947,16,2,76,652,176,476,-414
,1671,2023-10-20 13:11:15.58,111,-452,-1965,1,23,73,602,26,576,-314
,1672,2023-10-20 13:11:15.59,115,-455,-1975,-17,30,64,600,131,469,-365
,1673,2023-10-20 13:11:15.60,129,-461,-1979,-27,32,57,561,-13,574,-274
,1674,2023-10-20 13:11:15.61,117,-458,-1989,-34,25,51,575,108,467,-341
,1675,2023-10-20 13:11:15.62,110,-454,-2006,-44,22,46,582,-3,585,-289
,1676,2023-10-20 13:11:15.63,121,-459,-2026,-56,23,36,597,129,468,-363
,1677,2023-10-20 13:11:15.64,123,-464,-2027,-64,18,31,608,27,581,-317
,1678,2023-10-20 13:11:15.65,131,-458,-2023,-65,20,26,616,157,459,-386
,1679,2023-10-20 13:11:15.66,130,-462,-2021,-65,28,20,639,56,583,-347
,1680,2023-10-20 13:11:15.67,132,-456,-2017,-62,38,12,634,175,459,-404
,1681,2023-10-20 13:11:15.68,134,-450,-2019,-56,50,8,674,84,590,-379
,1682,2023-10-20 13:11:15.69,145,-444,-2017,-45,58,1,670,210,460,-440
,1683,2023-10-20 13:11:15.70,145,-447,-2017,-31,62,-4,722,131,591,-426
,1684,2023-10-20 13:11:15.71,164,-438,-2014,-18,66,-12,694,241,453,-467
,1685,2023-10-20 13:11:15.72,163,-440,-2015,-5,71,-18,747,159,588,-453
,1686,2023-10-20 13:11:15.73,167,-455,-2024,8,70,-27,706,261,445,-483
,1687,2023-10-20 13:11:15.74,167,-454,-2028,21,61,-26,760,174,586,-467
,1688,2023-10-20 13:11:15.75,174,-462,-2029,37,46,-25,704,260,444,-482
,1689,2023-10-20 13:11:15.76,180,-470,-2029,50,31,-19,763,172,591,-467
,1690,2023-10-20 13:11:15.77,169,-481,-2028,56,15,-14,706,260,446,-483
,1691,2023-10-20 13:11:15.78,165,-494,-2006,64,-2,0,762,167,595,-464
,1692,2023-10-20 13:11:15.79,172,-496,-2010,67,-13,9,681,236,445,-458
,1693,2023-10-20 13:11:15.80,157,-499,-1996,69,-17,22,741,140,601,-440
,1694,2023-10-20 13:11:15.81,164,-496,-1990,63,-16,35,659,212,447,-435
,1695,2023-10-20 13:11:15.82,145,-500,-1977,55,-12,46,738,134,604,-436
,1696,2023-10-20 13:11:15.83,140,-495,-1994,46,-5,55,637,190,447,-413
,1697,2023-10-20 13:11:15.84,150,-491,-1994,37,-5,62,728,125,603,-426
,1698,2023-10-20 13:11:15.85,136,-497,-2013,33,1,66,626,174,452,-400
,1699,2023-10-20 13:11:15.86,144,-503,-2011,30,1,72,717,108,609,-412
,1700,2023-10-20 13:11:15.87,144,-488,-2026,28,-2,72,614,161,453,-387
,1701,2023-10-20 13:11:15.88,141,-484,-2025,23,-7,74,712,105,607,-408
,1702,2023-10-20 13:11:15.89,137,-475,-2021,19,-5,69,602,154,448,-378
,1703,2023-10-20 13:11:15.90,140,-463,-2008,17,-1,60,712,104,608,-408
,1704,2023-10-20 13:11:15.91,152,-466,-2004,10,5,51,591,145,446,-368
,1705,2023-10-20 13:11:15.92,143,-468,-2001,7,10,39,707,100,607,-403
,1706,2023-10-20 13:11:15.93,140,-466,-2006,7,11,32,581,136,445,-358
,1707,2023-10-20 13:11:15.94,144,-469,-2014,9,12,21,704,98,606,-401
,1708,2023-10-20 13:11:15.95,149,-473,-2012,5,14,18,574,131,443,-352
,1709,2023-10-20 13:11:15.96,144,-476,-2014,4,11,17,704,100,604,-402
,1710,2023-10-20 13:11:15.97,143,-478,-2017,4,10,18,568,126,442,-347
,1711,2023-10-20 13:11:15.98,143,-483,-2015,4,4,22,704,99,605,-401
,1712,2023-10-20 13:11:15.99,147,-479,-2010,2,1,24,564,120,444,-342
,1713,2023-10-20 13:11:16.00,139,-469,-1998,-1,1,28,715,108,607,-411
,1714,2023-10-20 13:11:16.01,144,-467,-1986,-2,2,26,572,127,445,-349
,1715,2023-10-20 13:11:16.02,138,-461,-1982,-5,10,29,730,123,607,-426
,1716,2023-10-20 13:11:16.03,146,-472,-1988,-4,17,26,576,131,445,-353
,1717,2023-10-20 13:11:16.04,148,-466,-2002,-6,17,23,745,133,612,-439
,1718,2023-10-20 13:11:16.05,152,-465,-2011,-6,17,24,589,144,445,-366
,1719,2023-10-20 13:11:16.06,146,-464,-2016,-7,10,24,778,179,599,-478
,1720,2023-10-20 13:11:16.07,143,-475,-2018,-3,3,27,610,174,436,-392
,1721,2023-10-20 13:11:16.08,139,-472,-2016,3,1,25,780,178,602,-479
,1722,2023-10-20 13:11:16.09,140,-471,-2008,4,-10,26,593,150,443,-371
,1723,2023-10-20 13:11:16.10,141,-477,-2000,11,-10,22,772,165,607,-468
,1724,2023-10-20 13:11:16.11,142,-471,-2003,18,-4,17,587,141,446,-364
,1725,2023-10-20 13:11:16.12,148,-466,-1991,20,3,16,776,167,609,-471
,1726,2023-10-20 13:11:16.13,139,-477,-1991,24,15,9,584,136,448,-360
,1727,2023-10-20 13:11:16.14,139,-472,-2003,26,26,8,772,166,606,-469
,1728,2023-10-20 13:11:16.15,142,-477,-2009,23,32,8,581,131,450,-356
,1729,2023-10-20 13:11:16.16,129,-474,-2008,21,32,8,783,172,611,-477
,1730,2023-10-20 13:11:16.17,133,-484,-2019,15,28,8,586,131,455,-358
,1731,2023-10-20 13:11:16.18,137,-471,-2017,11,23,8,803,190,613,-496
,1732,2023-10-20 13:11:16.19,142,-477,-2015,3,19,12,587,133,454,-360
,1733,2023-10-20 13:11:16.20,137,-466,-2010,0,15,10,797,191,606,-494
,1734,2023-10-20 13:11:16.21,151,-465,-1999,-2,17,7,589,133,456,-361
,1735,2023-10-20 13:11:16.22,152,-466,-1993,-2,18,2,813,212,601,-512
,1736,2023-10-20 13:11:16.23,161,-471,-1994,2,23,-1,604,153,451,-378
,1737,2023-10-20 13:11:16.24,151,-470,-1994,6,26,-6,823,222,601,-522
,1738,2023-10-20 13:11:16.25,163,-483,-2013,12,28,-5,603,150,453,-376
,1739,2023-10-20 13:11:16.26,149,-480,-2015,19,26,-4,824,224,600,-524
,1740,2023-10-20 13:11:16.27,154,-485,-2017,22,21,-4,602,147,455,-374
,1741,2023-10-20 13:11:16.28,153,-491,-2022,25,14,3,824,220,604,-522
,1742,2023-10-20 13:11:16.29,142,-489,-2023,27,8,3,597,136,461,-366
,1743,2023-10-20 13:11:16.30,150,-489,-2018,26,-3,6,815,214,601,-514
,1744,2023-10-20 13:11:16.31,164,-489,-2004,27,-7,9,584,122,462,-353
,1745,2023-10-20 13:11:16.32,154,-491,-2010,28,-2,9,796,199,597,-497
,1746,2023-10-20 13:11:16.33,151,-489,-2005,25,2,12,565,100,465,-332
,1747,2023-10-20 13:11:16.34,157,-495,-2009,21,7,11,784,182,602,-483
,1748,2023-10-20 13:11:16.35,146,-495,-2002,21,15,15,555,88,467,-321
,1749,2023-10-20 13:11:16.36,157,-488,-1999,21,17,17,772,171,601,-471
,1750,2023-10-20 13:11:16.37,157,-487,-1996,18,17,19,546,72,474,-309
,1751,2023-10-20 13:11:16.38,161,-485,-2001,19,16,19,776,174,602,-475
,1752,2023-10-20 13:11:16.39,153,-472,-1996,15,18,19,553,76,477,-314
,1753,2023-10-20 13:11:16.40,151,-473,-2007,7,16,15,787,191,596,-489
,1754,2023-10-20 13:11:16.41,154,-475,-2014,5,10,13,558,85,473,-321
,1755,2023-10-20 13:11:16.42,146,-474,-2010,3,4,12,786,194,592,-490
