// Data mode  : Full
// Data quality  : High
// Acceleration sensor's range  : 16g
// Gyroscope sensor's range  : 2000dps
//
//ARTIFACT,NUM,DATE,ACC_X,ACC_Y,ACC_Z,GYRO_X,GYRO_Y,GYRO_Z,EOG_L,EOG_R,EOG_H,EOG_V
,1,2023-10-27 11:54:10.58,-30,-135,-2043,11,6,11,-279,-786,507,532
,2,2023-10-27 11:54:10.59,-57,-135,-2046,9,-1,13,-169,-651,482,410
,3,2023-10-27 11:54:10.60,-48,-133,-2055,10,7,19,-306,-775,469,540
,4,2023-10-27 11:54:10.61,-43,-135,-2053,8,3,18,-200,-640,440,420
,5,2023-10-27 11:54:10.62,-51,-134,-2052,7,9,28,-329,-761,432,545
,6,2023-10-27 11:54:10.63,-45,-129,-2051,4,6,23,-216,-628,412,422
,7,2023-10-27 11:54:10.64,-57,-133,-2049,3,7,26,-348,-760,412,554
,8,2023-10-27 11:54:10.65,-46,-129,-2049,3,4,21,-220,-620,400,420
,9,2023-10-27 11:54:10.66,-54,-132,-2045,8,3,27,-335,-748,413,541
,10,2023-10-27 11:54:10.67,-52,-126,-2046,9,6,25,-210,-618,408,414
,11,2023-10-27 11:54:10.68,-51,-123,-2047,9,-2,22,-316,-758,442,537
,12,2023-10-27 11:54:10.69,-45,-124,-2048,10,8,21,-190,-626,436,408
,13,2023-10-27 11:54:10.70,-62,-120,-2049,8,2,19,-304,-766,462,535
,14,2023-10-27 11:54:10.71,-54,-117,-2064,10,9,19,-194,-638,444,416
,15,2023-10-27 11:54:10.72,-62,-122,-2055,8,-2,13,-317,-775,458,546
,16,2023-10-27 11:54:10.73,-47,-128,-2057,11,1,17,-209,-633,424,421
,17,2023-10-27 11:54:10.74,-54,-123,-2059,11,-6,12,-327,-754,427,540
,18,2023-10-27 11:54:10.75,-53,-122,-2052,10,-3,15,-212,-610,398,411
,19,2023-10-27 11:54:10.76,-61,-122,-2045,8,-4,14,-315,-747,432,531
,20,2023-10-27 11:54:10.77,-68,-120,-2040,5,3,17,-197,-620,423,408
,21,2023-10-27 11:54:10.78,-53,-122,-2039,1,5,12,-300,-769,469,534
,22,2023-10-27 11:54:10.79,-60,-112,-2045,-1,18,14,-189,-635,446,412
,23,2023-10-27 11:54:10.80,-53,-121,-2046,-3,20,9,-311,-774,463,542
,24,2023-10-27 11:54:10.81,-59,-123,-2053,-5,28,10,-213,-632,419,422
,25,2023-10-27 11:54:10.82,-52,-122,-2046,-3,25,9,-324,-771,447,547
,26,2023-10-27 11:54:10.83,-52,-126,-2053,-2,21,7,-217,-637,420,427
,27,2023-10-27 11:54:10.84,-55,-131,-2051,1,20,9,-326,-782,456,554
,28,2023-10-27 11:54:10.85,-53,-125,-2053,3,12,10,-230,-636,406,433
,29,2023-10-27 11:54:10.86,-47,-126,-2047,4,21,13,-336,-762,426,549
,30,2023-10-27 11:54:10.87,-53,-122,-2048,5,11,12,-222,-624,402,423
,31,2023-10-27 11:54:10.88,-36,-129,-2046,5,16,12,-322,-768,446,545
,32,2023-10-27 11:54:10.89,-43,-127,-2053,7,17,16,-221,-635,414,428
,33,2023-10-27 11:54:10.90,-43,-124,-2048,6,21,13,-328,-776,448,552
,34,2023-10-27 11:54:10.91,-41,-130,-2055,8,20,19,-233,-633,400,433
,35,2023-10-27 11:54:10.92,-45,-136,-2049,10,20,20,-320,-766,446,543
,36,2023-10-27 11:54:10.93,-46,-135,-2052,12,16,22,-218,-640,422,429
,37,2023-10-27 11:54:10.94,-46,-134,-2039,11,15,22,-320,-778,458,549
,38,2023-10-27 11:54:10.95,-45,-134,-2038,9,16,23,-233,-646,413,439
,39,2023-10-27 11:54:10.96,-37,-122,-2049,7,22,20,-340,-774,434,557
,40,2023-10-27 11:54:10.97,-45,-122,-2045,6,29,21,-257,-642,385,449
,41,2023-10-27 11:54:10.98,-38,-117,-2050,2,25,15,-364,-764,400,564
,42,2023-10-27 11:54:10.99,-38,-119,-2060,-1,27,13,-279,-625,346,452
,43,2023-10-27 11:54:11.00,-39,-129,-2066,-7,24,10,-352,-742,390,547
,44,2023-10-27 11:54:11.01,-33,-128,-2061,-7,11,10,-247,-621,374,434
,45,2023-10-27 11:54:11.02,-41,-133,-2060,-4,8,12,-324,-761,437,542
,46,2023-10-27 11:54:11.03,-47,-129,-2052,-4,3,16,-236,-639,403,437
,47,2023-10-27 11:54:11.04,-38,-131,-2048,-1,2,16,-325,-761,436,543
,48,2023-10-27 11:54:11.05,-27,-131,-2049,0,-1,22,-248,-636,388,442
,49,2023-10-27 11:54:11.06,-37,-129,-2048,2,-3,17,-323,-761,438,542
,50,2023-10-27 11:54:11.07,-56,-128,-2057,1,1,19,-241,-646,405,443
,51,2023-10-27 11:54:11.08,-46,-118,-2055,-2,2,18,-315,-771,456,543
,52,2023-10-27 11:54:11.09,-43,-126,-2052,-4,6,19,-242,-652,410,447
,53,2023-10-27 11:54:11.10,-43,-123,-2045,-5,7,16,-309,-769,460,539
,54,2023-10-27 11:54:11.11,-36,-107,-2046,-7,5,15,-237,-662,425,449
,55,2023-10-27 11:54:11.12,-45,-112,-2043,-8,9,13,-312,-776,464,544
,56,2023-10-27 11:54:11.13,-35,-112,-2047,-6,12,11,-255,-665,410,460
,57,2023-10-27 11:54:11.14,-40,-109,-2052,-8,7,6,-309,-775,466,542
,58,2023-10-27 11:54:11.15,-55,-111,-2040,-6,9,4,-244,-670,426,457
,59,2023-10-27 11:54:11.16,-44,-110,-2051,-5,8,3,-316,-777,461,546
,60,2023-10-27 11:54:11.17,-44,-118,-2049,-2,4,5,-271,-669,398,470
,61,2023-10-27 11:54:11.18,-48,-121,-2046,3,-1,7,-334,-766,432,550
,62,2023-10-27 11:54:11.19,-48,-128,-2046,5,2,11,-288,-663,375,475
,63,2023-10-27 11:54:11.20,-48,-123,-2054,6,0,13,-346,-759,413,552
,64,2023-10-27 11:54:11.21,-37,-129,-2055,9,1,21,-291,-656,365,473
,65,2023-10-27 11:54:11.22,-43,-128,-2054,10,-2,21,-318,-741,423,529
,66,2023-10-27 11:54:11.23,-48,-121,-2056,8,-1,27,-257,-651,394,454
,67,2023-10-27 11:54:11.24,-54,-118,-2053,10,2,29,-275,-755,480,515
,68,2023-10-27 11:54:11.25,-44,-127,-2047,11,2,31,-226,-681,455,453
,69,2023-10-27 11:54:11.26,-47,-115,-2050,11,3,26,-260,-769,509,514
,70,2023-10-27 11:54:11.27,-47,-121,-2048,11,3,28,-233,-673,440,453
,71,2023-10-27 11:54:11.28,-33,-119,-2056,12,7,25,-258,-750,492,504
,72,2023-10-27 11:54:11.29,-53,-117,-2048,11,13,25,-229,-681,452,455
,73,2023-10-27 11:54:11.30,-47,-110,-2049,10,11,21,-263,-764,501,513
,74,2023-10-27 11:54:11.31,-46,-114,-2054,7,13,18,-249,-686,437,467
,75,2023-10-27 11:54:11.32,-51,-125,-2052,4,13,15,-265,-746,481,505
,76,2023-10-27 11:54:11.33,-44,-114,-2058,0,13,13,-250,-681,431,465
,77,2023-10-27 11:54:11.34,-46,-115,-2058,-3,13,13,-280,-750,470,515
,78,2023-10-27 11:54:11.35,-45,-108,-2046,-6,13,6,-273,-680,407,476
,79,2023-10-27 11:54:11.36,-37,-114,-2051,-6,21,7,-284,-737,453,510
,80,2023-10-27 11:54:11.37,-32,-107,-2050,-4,16,6,-254,-676,422,465
,81,2023-10-27 11:54:11.38,-38,-110,-2049,-8,22,0,-229,-753,524,491
,82,2023-10-27 11:54:11.39,-39,-111,-2049,-9,23,0,-218,-726,508,472
,83,2023-10-27 11:54:11.40,-47,-126,-2055,-3,24,1,-234,-787,553,510
,84,2023-10-27 11:54:11.41,-40,-127,-2056,2,22,7,-246,-720,474,483
,85,2023-10-27 11:54:11.42,-36,-132,-2058,7,8,5,-248,-748,500,498
,86,2023-10-27 11:54:11.43,-45,-124,-2061,13,4,12,-261,-707,446,484
,87,2023-10-27 11:54:11.44,-55,-116,-2049,17,7,14,-247,-744,497,495
,88,2023-10-27 11:54:11.45,-39,-122,-2051,15,15,18,-261,-718,457,489
,89,2023-10-27 11:54:11.46,-44,-120,-2042,16,13,13,-255,-745,490,500
,90,2023-10-27 11:54:11.47,-36,-122,-2045,20,13,16,-275,-712,437,493
,91,2023-10-27 11:54:11.48,-35,-117,-2045,22,5,11,-251,-736,485,493
,92,2023-10-27 11:54:11.49,-45,-118,-2052,23,6,12,-272,-706,434,489
,93,2023-10-27 11:54:11.50,-33,-113,-2044,15,19,5,-260,-722,462,491
,94,2023-10-27 11:54:11.51,-30,-114,-2046,8,36,4,-284,-706,422,495
,95,2023-10-27 11:54:11.52,-36,-115,-2047,-2,31,0,-246,-724,478,485
,96,2023-10-27 11:54:11.53,-26,-119,-2056,-3,34,1,-296,-721,425,508
,97,2023-10-27 11:54:11.54,-31,-113,-2067,1,23,1,-279,-730,451,504
,98,2023-10-27 11:54:11.55,-32,-117,-2070,0,10,2,-322,-713,391,517
,99,2023-10-27 11:54:11.56,-34,-109,-2064,-7,17,11,-281,-706,425,493
,100,2023-10-27 11:54:11.57,-36,-124,-2058,-14,12,14,-326,-701,375,513
,101,2023-10-27 11:54:11.58,-35,-128,-2041,-13,15,14,-286,-697,411,491
,102,2023-10-27 11:54:11.59,-41,-126,-2028,-8,5,20,-352,-698,346,525
,103,2023-10-27 11:54:11.60,-36,-127,-2018,0,15,25,-322,-691,369,506
,104,2023-10-27 11:54:11.61,-35,-117,-2032,12,18,22,-378,-704,326,541
,105,2023-10-27 11:54:11.62,-36,-111,-2042,13,23,20,-319,-687,368,503
,106,2023-10-27 11:54:11.63,-31,-117,-2055,16,24,22,-370,-710,340,540
,107,2023-10-27 11:54:11.64,-42,-122,-2056,17,20,18,-309,-689,380,499
,108,2023-10-27 11:54:11.65,-37,-113,-2071,22,25,23,-369,-706,337,537
,109,2023-10-27 11:54:11.66,-34,-118,-2072,21,11,19,-307,-682,375,494
,110,2023-10-27 11:54:11.67,-48,-123,-2064,16,21,25,-379,-714,335,546
,111,2023-10-27 11:54:11.68,-24,-114,-2060,15,-4,22,-316,-684,368,500
,112,2023-10-27 11:54:11.69,-29,-109,-2053,9,7,17,-378,-711,333,544
,113,2023-10-27 11:54:11.70,-38,-120,-2043,6,9,15,-291,-682,391,486
,114,2023-10-27 11:54:11.71,-33,-116,-2052,3,10,10,-366,-724,358,545
,115,2023-10-27 11:54:11.72,-42,-116,-2032,8,11,11,-294,-682,388,488
,116,2023-10-27 11:54:11.73,-34,-115,-2047,3,23,2,-370,-735,365,552
,117,2023-10-27 11:54:11.74,-32,-119,-2051,5,18,3,-293,-696,403,494
,118,2023-10-27 11:54:11.75,-39,-123,-2043,7,14,-5,-363,-742,379,552
,119,2023-10-27 11:54:11.76,-29,-116,-2045,11,18,2,-277,-683,406,480
,120,2023-10-27 11:54:11.77,-21,-107,-2049,10,10,-5,-362,-734,372,548
,121,2023-10-27 11:54:11.78,-25,-111,-2046,6,17,-4,-266,-671,405,468
,122,2023-10-27 11:54:11.79,-27,-110,-2057,4,14,-7,-358,-734,376,546
,123,2023-10-27 11:54:11.80,-35,-115,-2055,3,7,-13,-264,-673,409,468
,124,2023-10-27 11:54:11.81,-16,-125,-2049,5,-3,-17,-352,-744,392,548
,125,2023-10-27 11:54:11.82,-28,-126,-2049,7,13,-10,-265,-678,413,471
,126,2023-10-27 11:54:11.83,-34,-128,-2052,8,-1,-16,-362,-746,384,554
,127,2023-10-27 11:54:11.84,-20,-127,-2050,17,0,-8,-270,-675,405,472
,128,2023-10-27 11:54:11.85,-22,-129,-2042,20,-8,-10,-361,-745,384,553
,129,2023-10-27 11:54:11.86,-26,-129,-2056,22,3,-1,-256,-679,423,467
,130,2023-10-27 11:54:11.87,-41,-130,-2064,14,2,-3,-369,-773,404,571
,131,2023-10-27 11:54:11.88,-35,-138,-2063,14,2,9,-257,-687,430,472
,132,2023-10-27 11:54:11.89,-54,-135,-2052,3,2,11,-365,-767,402,566
,133,2023-10-27 11:54:11.90,-56,-135,-2057,-3,-4,23,-262,-682,420,472
,134,2023-10-27 11:54:11.91,-56,-127,-2055,-10,4,29,-382,-774,392,578
,135,2023-10-27 11:54:11.92,-54,-131,-2051,-13,8,37,-286,-679,393,482
,136,2023-10-27 11:54:11.93,-53,-123,-2039,-20,18,43,-398,-751,353,574
,137,2023-10-27 11:54:11.94,-57,-115,-2039,-25,21,42,-278,-655,377,466
,138,2023-10-27 11:54:11.95,-46,-120,-2037,-18,19,42,-384,-757,373,570
,139,2023-10-27 11:54:11.96,-46,-109,-2032,-9,19,42,-270,-657,387,463
,140,2023-10-27 11:54:11.97,-50,-91,-2021,-2,21,33,-388,-758,370,573
,141,2023-10-27 11:54:11.98,-40,-81,-2021,1,33,25,-271,-660,389,465
,142,2023-10-27 11:54:11.99,-23,-72,-2025,-3,40,6,-395,-762,367,578
,143,2023-10-27 11:54:12.00,-11,-69,-2032,-1,47,-9,-283,-656,373,469
,144,2023-10-27 11:54:12.01,-2,-74,-2046,3,47,-27,-411,-761,350,586
,145,2023-10-27 11:54:12.02,-4,-85,-2062,9,49,-39,-291,-651,360,471
,146,2023-10-27 11:54:12.03,7,-105,-2059,10,32,-46,-410,-766,356,588
,147,2023-10-27 11:54:12.04,7,-114,-2067,14,35,-47,-285,-660,375,472
,148,2023-10-27 11:54:12.05,2,-125,-2067,12,30,-47,-408,-774,366,591
,149,2023-10-27 11:54:12.06,-14,-121,-2063,12,31,-40,-288,-648,360,468
,150,2023-10-27 11:54:12.07,-1,-141,-2074,13,16,-35,-414,-758,344,586
,151,2023-10-27 11:54:12.08,-10,-145,-2069,14,12,-23,-288,-640,352,464
,152,2023-10-27 11:54:12.09,-13,-142,-2069,12,13,-12,-411,-768,357,589
,153,2023-10-27 11:54:12.10,-14,-139,-2071,6,20,-1,-290,-646,356,468
,154,2023-10-27 11:54:12.11,-10,-137,-2065,-1,16,2,-420,-760,340,590
,155,2023-10-27 11:54:12.12,-18,-135,-2059,1,11,11,-293,-628,335,460
,156,2023-10-27 11:54:12.13,-23,-127,-2054,6,-2,13,-402,-746,344,574
,157,2023-10-27 11:54:12.14,-19,-127,-2054,4,3,19,-264,-626,362,445
,158,2023-10-27 11:54:12.15,-21,-121,-2051,7,0,21,-395,-768,373,581
,159,2023-10-27 11:54:12.16,-21,-123,-2036,5,3,27,-271,-636,365,453
,160,2023-10-27 11:54:12.17,-31,-132,-2036,4,4,30,-405,-760,355,582
,161,2023-10-27 11:54:12.18,-26,-128,-2041,6,3,32,-276,-630,354,453
,162,2023-10-27 11:54:12.19,-20,-125,-2046,11,-1,36,-402,-764,362,583
,163,2023-10-27 11:54:12.20,-35,-120,-2042,9,8,39,-275,-642,367,458
,164,2023-10-27 11:54:12.21,-27,-108,-2052,9,6,37,-406,-776,370,591
,165,2023-10-27 11:54:12.22,-16,-99,-2051,1,7,31,-284,-636,352,460
,166,2023-10-27 11:54:12.23,-21,-105,-2054,-7,24,24,-429,-750,321,589
,167,2023-10-27 11:54:12.24,-16,-108,-2047,-1,24,17,-305,-616,311,460
,168,2023-10-27 11:54:12.25,-16,-116,-2039,11,24,8,-438,-757,319,597
,169,2023-10-27 11:54:12.26,-7,-99,-2035,23,30,-1,-313,-626,313,469
,170,2023-10-27 11:54:12.27,-3,-95,-2038,28,33,-11,-435,-765,330,600
,171,2023-10-27 11:54:12.28,-5,-101,-2049,33,37,-14,-311,-632,321,471
,172,2023-10-27 11:54:12.29,0,-103,-2058,35,39,-18,-424,-768,344,596
,173,2023-10-27 11:54:12.30,-11,-115,-2062,39,25,-13,-295,-636,341,465
,174,2023-10-27 11:54:12.31,-10,-110,-2076,33,18,-6,-427,-777,350,602
,175,2023-10-27 11:54:12.32,-13,-113,-2068,27,12,0,-312,-626,314,469
,176,2023-10-27 11:54:12.33,-22,-120,-2065,18,9,8,-442,-750,308,596
,177,2023-10-27 11:54:12.34,-14,-122,-2062,13,5,17,-317,-602,285,459
,178,2023-10-27 11:54:12.35,-16,-118,-2065,8,0,26,-439,-736,297,587
,179,2023-10-27 11:54:12.36,-18,-115,-2066,13,2,37,-315,-602,287,458
,180,2023-10-27 11:54:12.37,-21,-116,-2050,10,0,43,-432,-748,316,590
,181,2023-10-27 11:54:12.38,-18,-117,-2039,13,3,43,-314,-611,297,462
,182,2023-10-27 11:54:12.39,-2,-115,-2045,16,7,49,-442,-749,307,595
,183,2023-10-27 11:54:12.40,-16,-109,-2054,22,5,53,-325,-606,281,465
,184,2023-10-27 11:54:12.41,-16,-121,-2047,22,1,54,-454,-746,292,600
,185,2023-10-27 11:54:12.42,-10,-112,-2047,24,2,56,-338,-613,275,475
,186,2023-10-27 11:54:12.43,-18,-116,-2046,24,-3,56,-453,-763,310,608
,187,2023-10-27 11:54:12.44,-15,-115,-2042,21,5,55,-333,-632,299,482
,188,2023-10-27 11:54:12.45,-13,-122,-2048,20,-4,55,-426,-780,354,603
,189,2023-10-27 11:54:12.46,-8,-122,-2048,24,-7,53,-298,-649,351,473
,190,2023-10-27 11:54:12.47,1,-104,-2045,21,-5,46,-395,-788,393,591
,191,2023-10-27 11:54:12.48,-8,-115,-2053,15,-9,42,-291,-642,351,466
,192,2023-10-27 11:54:12.49,-16,-123,-2059,11,2,40,-386,-762,376,574
,193,2023-10-27 11:54:12.50,-12,-122,-2064,8,-14,33,-283,-629,346,456
,194,2023-10-27 11:54:12.51,-12,-130,-2058,6,-9,34,-378,-768,390,573
,195,2023-10-27 11:54:12.52,-3,-122,-2052,5,-15,31,-281,-636,355,458
,196,2023-10-27 11:54:12.53,-19,-123,-2054,1,-9,32,-378,-759,381,568
,197,2023-10-27 11:54:12.54,-29,-128,-2049,1,-13,34,-281,-627,346,454
,198,2023-10-27 11:54:12.55,-30,-146,-2053,4,-12,39,-374,-755,381,564
,199,2023-10-27 11:54:12.56,-40,-135,-2046,4,-8,54,-289,-628,339,458
,200,2023-10-27 11:54:12.57,-36,-147,-2049,6,-11,59,-386,-769,383,577
,201,2023-10-27 11:54:12.58,-38,-134,-2043,5,-3,76,-304,-659,355,481
,202,2023-10-27 11:54:12.59,-26,-132,-2048,-2,-11,78,-393,-784,391,588
,203,2023-10-27 11:54:12.60,-30,-132,-2046,1,-8,90,-308,-656,348,482
,204,2023-10-27 11:54:12.61,-38,-129,-2052,1,-6,93,-400,-777,377,588
,205,2023-10-27 11:54:12.62,-24,-130,-2044,5,2,98,-315,-654,339,484
,206,2023-10-27 11:54:12.63,-35,-115,-2045,4,4,92,-396,-770,374,583
,207,2023-10-27 11:54:12.64,-23,-109,-2043,5,8,88,-325,-641,316,483
,208,2023-10-27 11:54:12.65,-30,-115,-2050,13,8,80,-412,-747,335,579
,209,2023-10-27 11:54:12.66,-19,-101,-2051,11,6,73,-336,-633,297,484
,210,2023-10-27 11:54:12.67,-22,-106,-2058,7,11,60,-405,-752,347,578
,211,2023-10-27 11:54:12.68,-28,-116,-2064,10,5,57,-334,-639,305,486
,212,2023-10-27 11:54:12.69,-20,-114,-2060,7,12,55,-404,-742,338,573
,213,2023-10-27 11:54:12.70,-31,-113,-2048,6,6,52,-331,-633,302,482
,214,2023-10-27 11:54:12.71,-30,-111,-2046,3,10,43,-419,-749,330,584
,215,2023-10-27 11:54:12.72,-25,-112,-2041,4,9,40,-356,-646,290,501
,216,2023-10-27 11:54:12.73,-23,-113,-2041,8,11,33,-406,-743,337,574
,217,2023-10-27 11:54:12.74,-16,-113,-2042,10,12,35,-344,-648,304,496
,218,2023-10-27 11:54:12.75,-21,-109,-2053,12,28,32,-411,-751,340,581
,219,2023-10-27 11:54:12.76,-23,-123,-2054,10,19,29,-364,-660,296,512
,220,2023-10-27 11:54:12.77,-13,-122,-2053,15,22,29,-418,-746,328,582
,221,2023-10-27 11:54:12.78,-26,-119,-2052,16,16,26,-365,-646,281,505
,222,2023-10-27 11:54:12.79,-9,-111,-2037,16,22,24,-403,-728,325,565
,223,2023-10-27 11:54:12.80,-8,-118,-2032,15,24,19,-354,-644,290,499
,224,2023-10-27 11:54:12.81,-4,-124,-2036,21,27,20,-398,-727,329,562
,225,2023-10-27 11:54:12.82,-2,-120,-2052,23,22,17,-362,-655,293,508
,226,2023-10-27 11:54:12.83,3,-125,-2062,19,11,15,-407,-736,329,571
,227,2023-10-27 11:54:12.84,-10,-126,-2074,5,27,22,-373,-657,284,515
,228,2023-10-27 11:54:12.85,-7,-132,-2078,-1,8,26,-411,-726,315,568
,229,2023-10-27 11:54:12.86,-21,-132,-2082,-4,-1,41,-378,-658,280,518
,230,2023-10-27 11:54:12.87,-25,-139,-2078,-3,-20,51,-401,-732,331,566
,231,2023-10-27 11:54:12.88,-21,-141,-2069,0,-20,68,-365,-671,306,518
,232,2023-10-27 11:54:12.89,-19,-133,-2065,1,-30,76,-377,-738,361,557
,233,2023-10-27 11:54:12.90,-28,-132,-2060,2,-28,87,-356,-675,319,515
,234,2023-10-27 11:54:12.91,-33,-139,-2058,4,-22,94,-365,-732,367,548
,235,2023-10-27 11:54:12.92,-18,-125,-2042,11,-29,96,-360,-680,320,520
,236,2023-10-27 11:54:12.93,-24,-126,-2035,18,-16,94,-391,-733,342,562
,237,2023-10-27 11:54:12.94,-27,-116,-2029,24,1,87,-395,-675,280,535
,238,2023-10-27 11:54:12.95,-30,-105,-2030,20,5,75,-409,-715,306,562
,239,2023-10-27 11:54:12.96,-22,-112,-2037,23,18,65,-406,-670,264,538
,240,2023-10-27 11:54:12.97,-32,-118,-2048,18,20,53,-403,-712,309,557
,241,2023-10-27 11:54:12.98,-26,-112,-2041,16,25,44,-404,-675,271,539
,242,2023-10-27 11:54:12.99,-24,-105,-2037,7,22,34,-405,-712,307,558
,243,2023-10-27 11:54:13.00,-11,-110,-2055,3,27,29,-415,-691,276,553
,244,2023-10-27 11:54:13.01,-18,-119,-2050,-2,21,26,-406,-718,312,562
,245,2023-10-27 11:54:13.02,-11,-135,-2053,-8,14,25,-407,-688,281,547
,246,2023-10-27 11:54:13.03,-13,-143,-2063,-7,2,27,-375,-707,332,541
,247,2023-10-27 11:54:13.04,-16,-142,-2053,4,0,37,-385,-684,299,534
,248,2023-10-27 11:54:13.05,-15,-138,-2052,3,-9,37,-368,-702,334,535
,249,2023-10-27 11:54:13.06,-16,-134,-2063,5,-10,40,-407,-684,277,545
,250,2023-10-27 11:54:13.07,-23,-137,-2069,4,-1,47,-398,-699,301,548
,251,2023-10-27 11:54:13.08,-20,-142,-2069,7,0,54,-426,-685,259,555
,252,2023-10-27 11:54:13.09,-36,-139,-2069,5,-4,60,-391,-686,295,538
,253,2023-10-27 11:54:13.10,-20,-129,-2062,8,-10,65,-424,-672,248,548
,254,2023-10-27 11:54:13.11,-28,-111,-2059,6,-10,64,-380,-672,292,526
,255,2023-10-27 11:54:13.12,-28,-98,-2059,-5,-6,62,-418,-687,269,552
,256,2023-10-27 11:54:13.13,-18,-92,-2054,-8,1,61,-386,-690,304,538
,257,2023-10-27 11:54:13.14,-13,-92,-2053,-12,4,53,-438,-709,271,573
,258,2023-10-27 11:54:13.15,-28,-98,-2043,-16,12,47,-395,-698,303,546
,259,2023-10-27 11:54:13.16,-45,-106,-2041,-24,16,41,-438,-697,259,567
,260,2023-10-27 11:54:13.17,-25,-105,-2012,-22,15,39,-380,-672,292,526
,261,2023-10-27 11:54:13.18,-34,-92,-2001,-21,8,33,-436,-703,267,569
,262,2023-10-27 11:54:13.19,-27,-93,-2023,-25,4,29,-375,-678,303,526
,263,2023-10-27 11:54:13.20,-37,-117,-2062,-27,-7,28,-448,-710,262,579
,264,2023-10-27 11:54:13.21,-13,-127,-2062,-29,-1,29,-392,-678,286,535
,265,2023-10-27 11:54:13.22,-32,-126,-2059,-30,-6,32,-456,-703,247,579
,266,2023-10-27 11:54:13.23,-26,-123,-2070,-26,1,33,-387,-663,276,525
,267,2023-10-27 11:54:13.24,-25,-111,-2079,-25,-8,35,-455,-697,242,576
,268,2023-10-27 11:54:13.25,-27,-90,-2072,-23,-4,38,-378,-660,282,519
,269,2023-10-27 11:54:13.26,-30,-81,-2036,-26,11,38,-443,-704,261,573
,270,2023-10-27 11:54:13.27,-32,-96,-2031,-23,24,36,-361,-658,297,509
,271,2023-10-27 11:54:13.28,-37,-102,-2031,-9,30,33,-435,-698,263,566
,272,2023-10-27 11:54:13.29,-15,-93,-2035,9,28,31,-346,-646,300,496
,273,2023-10-27 11:54:13.30,-12,-78,-2040,15,35,33,-430,-697,267,563
,274,2023-10-27 11:54:13.31,-18,-89,-2042,11,54,34,-351,-648,297,499
,275,2023-10-27 11:54:13.32,-19,-119,-2065,11,55,29,-440,-719,279,579
,276,2023-10-27 11:54:13.33,-8,-124,-2056,21,43,35,-356,-660,304,508
,277,2023-10-27 11:54:13.34,-1,-101,-2049,25,37,35,-454,-720,266,587
,278,2023-10-27 11:54:13.35,-5,-105,-2056,22,35,30,-362,-654,292,508
,279,2023-10-27 11:54:13.36,3,-99,-2070,17,29,28,-453,-734,281,593
,280,2023-10-27 11:54:13.37,-2,-110,-2058,16,31,18,-363,-662,299,512
,281,2023-10-27 11:54:13.38,11,-114,-2055,13,38,12,-450,-727,277,588
,282,2023-10-27 11:54:13.39,1,-112,-2063,2,33,7,-335,-653,318,494
,283,2023-10-27 11:54:13.40,17,-114,-2073,-3,26,0,-434,-749,315,591
,284,2023-10-27 11:54:13.41,7,-119,-2075,-3,17,-2,-336,-673,337,504
,285,2023-10-27 11:54:13.42,9,-131,-2068,-6,11,-4,-444,-734,290,589
,286,2023-10-27 11:54:13.43,-7,-121,-2082,-10,2,-4,-338,-644,306,491
,287,2023-10-27 11:54:13.44,-6,-140,-2083,-11,-8,4,-445,-736,291,590
,288,2023-10-27 11:54:13.45,-7,-142,-2085,-5,-28,16,-327,-654,327,490
,289,2023-10-27 11:54:13.46,-11,-129,-2081,1,-30,28,-439,-747,308,593
,290,2023-10-27 11:54:13.47,-4,-114,-2058,3,-44,33,-331,-649,318,490
,291,2023-10-27 11:54:13.48,7,-107,-2054,2,-35,38,-455,-744,289,599
,292,2023-10-27 11:54:13.49,-11,-113,-2047,-1,-16,38,-337,-642,305,489
,293,2023-10-27 11:54:13.50,-12,-118,-2053,2,-17,36,-454,-731,277,592
,294,2023-10-27 11:54:13.51,-29,-115,-2044,14,-15,39,-334,-636,302,485
,295,2023-10-27 11:54:13.52,-36,-102,-2045,21,-23,34,-455,-754,299,604
,296,2023-10-27 11:54:13.53,-28,-95,-2038,19,-23,34,-337,-648,311,492
,297,2023-10-27 11:54:13.54,-31,-91,-2037,17,-13,31,-447,-744,297,595
,298,2023-10-27 11:54:13.55,-46,-98,-2047,14,-17,23,-312,-634,322,473
,299,2023-10-27 11:54:13.56,-32,-99,-2042,17,-23,22,-420,-749,329,584
,300,2023-10-27 11:54:13.57,-32,-109,-2034,24,-29,16,-297,-647,350,472
,301,2023-10-27 11:54:13.58,-34,-110,-2040,29,-14,16,-429,-770,341,599
,302,2023-10-27 11:54:13.59,-28,-102,-2038,24,-4,7,-314,-648,334,481
,303,2023-10-27 11:54:13.60,-29,-102,-2049,18,3,-4,-457,-768,311,612
,304,2023-10-27 11:54:13.61,-20,-103,-2045,17,17,-8,-345,-645,300,495
,305,2023-10-27 11:54:13.62,-31,-108,-2057,16,1,-16,-466,-749,283,607
,306,2023-10-27 11:54:13.63,-35,-105,-2065,17,-7,-21,-329,-621,292,475
,307,2023-10-27 11:54:13.64,-26,-107,-2064,8,2,-21,-459,-745,286,602
,308,2023-10-27 11:54:13.65,-25,-106,-2074,-6,-1,-26,-331,-622,291,476
,309,2023-10-27 11:54:13.66,-16,-100,-2063,-20,2,-23,-478,-750,272,614
,310,2023-10-27 11:54:13.67,-14,-102,-2063,-25,-7,-23,-353,-623,270,488
,311,2023-10-27 11:54:13.68,-16,-92,-2054,-34,-28,-29,-488,-753,265,620
,312,2023-10-27 11:54:13.69,-15,-100,-2051,-30,-33,-22,-359,-623,264,491
,313,2023-10-27 11:54:13.70,-23,-107,-2046,-18,-55,-23,-494,-749,255,621
,314,2023-10-27 11:54:13.71,-18,-104,-2048,-5,-58,-17,-354,-618,264,486
,315,2023-10-27 11:54:13.72,-25,-93,-2048,8,-67,-17,-488,-757,269,622
,316,2023-10-27 11:54:13.73,-22,-97,-2052,12,-64,-15,-354,-630,276,492
,317,2023-10-27 11:54:13.74,-30,-99,-2042,17,-64,-11,-467,-756,289,611
,318,2023-10-27 11:54:13.75,-19,-100,-2028,19,-64,-15,-324,-620,296,472
,319,2023-10-27 11:54:13.76,-12,-108,-2035,25,-49,-13,-456,-756,300,606
,320,2023-10-27 11:54:13.77,-27,-118,-2035,27,-46,-9,-334,-631,297,482
,321,2023-10-27 11:54:13.78,-32,-123,-2052,31,-33,-3,-470,-778,308,624
,322,2023-10-27 11:54:13.79,-37,-125,-2051,38,-52,3,-340,-631,291,485
,323,2023-10-27 11:54:13.80,-43,-117,-2063,42,-48,12,-472,-744,272,608
,324,2023-10-27 11:54:13.81,-41,-124,-2053,39,-53,15,-335,-604,269,469
,325,2023-10-27 11:54:13.82,-45,-105,-2054,32,-41,16,-485,-760,275,622
,326,2023-10-27 11:54:13.83,-40,-96,-2047,25,-33,18,-365,-624,259,494
,327,2023-10-27 11:54:13.84,-41,-101,-2052,22,-28,9,-507,-766,259,636
,328,2023-10-27 11:54:13.85,-43,-107,-2047,20,-24,0,-374,-616,242,495
,329,2023-10-27 11:54:13.86,-52,-107,-2057,25,-21,-7,-482,-751,269,616
,330,2023-10-27 11:54:13.87,-53,-114,-2061,27,-5,-17,-340,-606,266,473
,331,2023-10-27 11:54:13.88,-43,-108,-2062,27,4,-19,-475,-737,262,606
,332,2023-10-27 11:54:13.89,-51,-109,-2063,27,7,-26,-357,-600,243,478
,333,2023-10-27 11:54:13.90,-45,-100,-2060,28,8,-31,-475,-745,270,610
,334,2023-10-27 11:54:13.91,-38,-102,-2053,25,0,-41,-340,-608,268,474
,335,2023-10-27 11:54:13.92,-40,-111,-2043,27,5,-43,-486,-760,274,623
,336,2023-10-27 11:54:13.93,-36,-106,-2067,31,8,-51,-370,-618,248,494
,337,2023-10-27 11:54:13.94,-36,-117,-2064,31,5,-56,-493,-753,260,623
,338,2023-10-27 11:54:13.95,-51,-127,-2037,33,26,-54,-362,-613,251,487
,339,2023-10-27 11:54:13.96,-43,-126,-2027,39,17,-56,-490,-757,267,623
,340,2023-10-27 11:54:13.97,-43,-126,-2029,47,17,-60,-372,-616,244,494
,341,2023-10-27 11:54:13.98,-44,-131,-2030,49,8,-59,-488,-746,258,617
,342,2023-10-27 11:54:13.99,-36,-117,-2032,50,1,-62,-368,-604,236,486
,343,2023-10-27 11:54:14.00,-46,-117,-2030,47,16,-61,-480,-736,256,608
,344,2023-10-27 11:54:14.01,-40,-140,-2049,40,16,-63,-361,-600,239,480
,345,2023-10-27 11:54:14.02,-55,-143,-2048,36,15,-62,-472,-739,267,605
,346,2023-10-27 11:54:14.03,-38,-148,-2048,40,21,-59,-356,-614,258,485
,347,2023-10-27 11:54:14.04,-33,-143,-2050,47,-1,-53,-470,-758,288,614
,348,2023-10-27 11:54:14.05,-55,-143,-2058,44,-7,-53,-356,-615,259,485
,349,2023-10-27 11:54:14.06,-49,-158,-2051,41,-5,-43,-456,-739,283,597
,350,2023-10-27 11:54:14.07,-46,-151,-2030,36,1,-43,-348,-610,262,479
,351,2023-10-27 11:54:14.08,-36,-145,-2026,27,13,-41,-442,-746,304,594
,352,2023-10-27 11:54:14.09,-52,-145,-2040,23,21,-42,-340,-623,283,481
,353,2023-10-27 11:54:14.10,-50,-140,-2040,16,26,-40,-442,-751,309,596
,354,2023-10-27 11:54:14.11,-46,-133,-2054,7,26,-40,-347,-621,274,484
,355,2023-10-27 11:54:14.12,-46,-128,-2070,-8,38,-40,-448,-746,298,597
,356,2023-10-27 11:54:14.13,-39,-126,-2076,-26,34,-38,-353,-631,278,492
,357,2023-10-27 11:54:14.14,-43,-123,-2066,-37,34,-35,-455,-767,312,611
,358,2023-10-27 11:54:14.15,-49,-142,-2058,-41,28,-29,-372,-645,273,508
,359,2023-10-27 11:54:14.16,-36,-136,-2046,-46,26,-26,-457,-753,296,605
,360,2023-10-27 11:54:14.17,-35,-130,-2055,-50,33,-20,-364,-622,258,493
,361,2023-10-27 11:54:14.18,-41,-113,-2059,-54,28,-14,-437,-741,304,589
,362,2023-10-27 11:54:14.19,-45,-83,-2051,-61,25,-8,-342,-630,288,486
,363,2023-10-27 11:54:14.20,-47,-80,-2052,-66,10,-6,-419,-748,329,583
,364,2023-10-27 11:54:14.21,-60,-80,-2071,-65,-8,-5,-342,-641,299,491
,365,2023-10-27 11:54:14.22,-65,-85,-2079,-56,-30,-6,-427,-754,327,590
,366,2023-10-27 11:54:14.23,-73,-83,-2065,-50,-37,-7,-364,-645,281,504
,367,2023-10-27 11:54:14.24,-54,-73,-2040,-41,-44,-11,-451,-752,301,601
,368,2023-10-27 11:54:14.25,-61,-71,-2017,-29,-23,-27,-378,-653,275,515
,369,2023-10-27 11:54:14.26,-30,-67,-1992,-13,3,-36,-439,-752,313,595
,370,2023-10-27 11:54:14.27,-38,-82,-1975,6,26,-55,-361,-644,283,502
,371,2023-10-27 11:54:14.28,-37,-89,-2005,23,51,-70,-430,-739,309,584
,372,2023-10-27 11:54:14.29,-40,-101,-2036,41,60,-77,-369,-630,261,499
,373,2023-10-27 11:54:14.30,-46,-111,-2058,50,63,-85,-431,-722,291,576
,374,2023-10-27 11:54:14.31,-38,-125,-2072,50,76,-81,-372,-633,261,502
,375,2023-10-27 11:54:14.32,-36,-145,-2077,48,69,-86,-416,-730,314,573
,376,2023-10-27 11:54:14.33,-20,-146,-2072,46,66,-77,-362,-644,282,503
,377,2023-10-27 11:54:14.34,-12,-148,-2063,40,77,-73,-396,-734,338,565
,378,2023-10-27 11:54:14.35,-10,-138,-2037,31,83,-70,-351,-649,298,500
,379,2023-10-27 11:54:14.36,-11,-135,-2035,20,99,-67,-396,-729,333,562
,380,2023-10-27 11:54:14.37,-3,-141,-2061,13,92,-71,-358,-666,308,512
,381,2023-10-27 11:54:14.38,-7,-130,-2065,8,90,-67,-387,-746,359,566
,382,2023-10-27 11:54:14.39,14,-122,-2045,1,75,-67,-357,-663,306,510
,383,2023-10-27 11:54:14.40,8,-117,-2039,1,58,-68,-399,-723,324,561
,384,2023-10-27 11:54:14.41,2,-113,-2060,-2,43,-70,-380,-657,277,518
,385,2023-10-27 11:54:14.42,14,-119,-2076,1,15,-69,-410,-723,313,566
,386,2023-10-27 11:54:14.43,15,-100,-2070,5,-3,-57,-377,-650,273,513
,387,2023-10-27 11:54:14.44,10,-88,-2048,-2,-22,-52,-373,-710,337,541
,388,2023-10-27 11:54:14.45,13,-97,-2059,-15,-23,-49,-330,-658,328,494
,389,2023-10-27 11:54:14.46,16,-103,-2066,-24,-32,-37,-316,-726,410,521
,390,2023-10-27 11:54:14.47,-2,-100,-2068,-23,-24,-30,-305,-694,389,499
,391,2023-10-27 11:54:14.48,13,-95,-2075,-27,-22,-20,-321,-750,429,535
,392,2023-10-27 11:54:14.49,30,-72,-2066,-37,-7,-10,-325,-695,370,510
,393,2023-10-27 11:54:14.50,32,-50,-2050,-51,23,-13,-329,-734,405,531
,394,2023-10-27 11:54:14.51,34,-47,-2042,-63,59,-15,-324,-685,361,504
,395,2023-10-27 11:54:14.52,16,-59,-2053,-66,67,-25,-304,-727,423,515
,396,2023-10-27 11:54:14.53,31,-60,-2068,-58,75,-32,-315,-708,393,511
,397,2023-10-27 11:54:14.54,8,-76,-2078,-35,80,-30,-310,-744,434,527
,398,2023-10-27 11:54:14.55,27,-91,-2069,-19,65,-40,-334,-703,369,518
,399,2023-10-27 11:54:14.56,22,-104,-2064,2,63,-36,-332,-724,392,528
,400,2023-10-27 11:54:14.57,31,-90,-2042,19,60,-34,-349,-697,348,523
,401,2023-10-27 11:54:14.58,31,-109,-2028,30,51,-39,-326,-714,388,520
,402,2023-10-27 11:54:14.59,35,-116,-2025,44,59,-33,-354,-696,342,525
,403,2023-10-27 11:54:14.60,26,-131,-2032,62,55,-29,-326,-705,379,515
,404,2023-10-27 11:54:14.61,22,-145,-2040,74,38,-28,-360,-686,326,523
,405,2023-10-27 11:54:14.62,12,-156,-2053,85,38,-25,-331,-695,364,513
,406,2023-10-27 11:54:14.63,25,-158,-2058,97,18,-18,-380,-696,316,538
,407,2023-10-27 11:54:14.64,3,-157,-2075,100,3,-7,-358,-702,344,530
,408,2023-10-27 11:54:14.65,7,-172,-2076,103,2,9,-405,-694,289,549
,409,2023-10-27 11:54:14.66,-1,-162,-2082,100,-23,16,-348,-692,344,520
,410,2023-10-27 11:54:14.67,-16,-158,-2069,94,-28,29,-390,-702,312,546
,411,2023-10-27 11:54:14.68,-21,-154,-2060,82,-26,43,-350,-704,354,527
,412,2023-10-27 11:54:14.69,-11,-137,-2058,65,-35,40,-407,-718,311,562
,413,2023-10-27 11:54:14.70,-30,-137,-2042,46,-22,45,-356,-700,344,528
,414,2023-10-27 11:54:14.71,-34,-134,-2054,29,-23,39,-409,-720,311,564
,415,2023-10-27 11:54:14.72,-35,-131,-2053,20,-16,38,-347,-700,353,523
,416,2023-10-27 11:54:14.73,-33,-130,-2046,11,-24,30,-405,-708,303,556
,417,2023-10-27 11:54:14.74,-15,-112,-2030,-2,-14,24,-348,-678,330,513
,418,2023-10-27 11:54:14.75,-19,-111,-2037,-12,-7,18,-411,-713,302,562
,419,2023-10-27 11:54:14.76,-26,-112,-2052,-19,-12,4,-340,-689,349,514
,420,2023-10-27 11:54:14.77,-34,-125,-2068,-19,-7,6,-403,-719,316,561
,421,2023-10-27 11:54:14.78,-37,-142,-2082,-12,-20,0,-322,-689,367,505
,422,2023-10-27 11:54:14.79,-39,-153,-2082,-2,-27,4,-376,-729,353,552
,423,2023-10-27 11:54:14.80,-39,-147,-2064,9,-34,4,-298,-686,388,492
,424,2023-10-27 11:54:14.81,-46,-133,-2041,8,-28,2,-392,-720,328,556
,425,2023-10-27 11:54:14.82,-17,-124,-2009,5,-12,1,-320,-667,347,493
,426,2023-10-27 11:54:14.83,-16,-105,-1998,1,1,-8,-413,-723,310,568
,427,2023-10-27 11:54:14.84,-20,-114,-2026,-5,32,-23,-338,-689,351,513
,428,2023-10-27 11:54:14.85,-12,-134,-2048,-3,52,-25,-420,-751,331,585
,429,2023-10-27 11:54:14.86,-11,-135,-2056,0,59,-36,-331,-694,363,512
,430,2023-10-27 11:54:14.87,-6,-147,-2068,9,67,-39,-419,-748,329,583
,431,2023-10-27 11:54:14.88,-12,-170,-2077,14,67,-37,-322,-676,354,499
,432,2023-10-27 11:54:14.89,0,-168,-2069,18,61,-32,-434,-747,313,590
,433,2023-10-27 11:54:14.90,-5,-176,-2068,22,59,-23,-360,-683,323,521
,434,2023-10-27 11:54:14.91,-7,-175,-2075,22,37,-12,-456,-749,293,602
,435,2023-10-27 11:54:14.92,-18,-152,-2053,17,34,2,-342,-667,325,504
,436,2023-10-27 11:54:14.93,3,-130,-2027,6,33,10,-425,-733,308,579
,437,2023-10-27 11:54:14.94,1,-120,-2015,-7,36,6,-316,-656,340,486
,438,2023-10-27 11:54:14.95,12,-120,-2041,-11,38,2,-428,-731,303,579
,439,2023-10-27 11:54:14.96,7,-124,-2061,-7,27,-4,-321,-657,336,489
,440,2023-10-27 11:54:14.97,-1,-131,-2076,3,17,-11,-436,-755,319,595
,441,2023-10-27 11:54:14.98,20,-134,-2070,12,0,-20,-343,-672,329,507
,442,2023-10-27 11:54:14.99,7,-128,-2051,16,-18,-25,-448,-758,310,603
,443,2023-10-27 11:54:15.00,14,-138,-2047,22,-15,-31,-320,-672,352,496
,444,2023-10-27 11:54:15.01,8,-135,-2042,19,-15,-33,-415,-768,353,591
,445,2023-10-27 11:54:15.02,6,-136,-2033,18,-9,-37,-296,-673,377,484
,446,2023-10-27 11:54:15.03,15,-138,-2036,17,4,-34,-426,-769,343,597
,447,2023-10-27 11:54:15.04,18,-121,-2017,6,12,-33,-328,-661,333,494
,448,2023-10-27 11:54:15.05,12,-127,-2050,-8,31,-29,-461,-750,289,605
,449,2023-10-27 11:54:15.06,13,-132,-2070,-17,32,-24,-348,-647,299,497
,450,2023-10-27 11:54:15.07,18,-139,-2063,-21,32,-16,-456,-750,294,603
,451,2023-10-27 11:54:15.08,15,-137,-2069,-20,24,-3,-330,-642,312,486
,452,2023-10-27 11:54:15.09,12,-128,-2057,-17,12,2,-454,-739,285,596
,453,2023-10-27 11:54:15.10,15,-124,-2055,-11,15,12,-334,-627,293,480
,454,2023-10-27 11:54:15.11,23,-123,-2070,-9,5,10,-438,-737,299,587
,455,2023-10-27 11:54:15.12,19,-120,-2066,-7,-2,11,-295,-648,353,471
,456,2023-10-27 11:54:15.13,28,-120,-2064,-2,-3,10,-406,-777,371,591
,457,2023-10-27 11:54:15.14,15,-117,-2058,2,-5,5,-292,-660,368,476
,458,2023-10-27 11:54:15.15,12,-111,-2052,-2,-6,3,-422,-758,336,590
,459,2023-10-27 11:54:15.16,13,-110,-2050,-5,5,-3,-288,-633,345,460
,460,2023-10-27 11:54:15.17,7,-111,-2058,-12,6,-8,-419,-755,336,587
,461,2023-10-27 11:54:15.18,2,-113,-2057,-13,9,-7,-297,-641,344,469
,462,2023-10-27 11:54:15.19,11,-123,-2060,-16,5,-12,-434,-763,329,598
,463,2023-10-27 11:54:15.20,-1,-131,-2061,-13,11,-11,-318,-642,324,480
,464,2023-10-27 11:54:15.21,13,-119,-2057,-12,12,-12,-447,-778,331,612
,465,2023-10-27 11:54:15.22,10,-107,-2042,-12,10,-12,-305,-650,345,477
,466,2023-10-27 11:54:15.23,19,-102,-2034,-20,7,-12,-418,-764,346,591
,467,2023-10-27 11:54:15.24,23,-106,-2052,-18,9,-13,-284,-629,345,456
,468,2023-10-27 11:54:15.25,12,-112,-2057,-17,-1,-9,-416,-757,341,586
,469,2023-10-27 11:54:15.26,11,-112,-2067,-16,-8,-5,-296,-623,327,459
,470,2023-10-27 11:54:15.27,17,-112,-2069,-18,-14,-1,-431,-749,318,590
,471,2023-10-27 11:54:15.28,22,-104,-2061,-13,-27,4,-296,-627,331,461
,472,2023-10-27 11:54:15.29,11,-108,-2055,-13,-28,11,-440,-781,341,610
,473,2023-10-27 11:54:15.30,26,-119,-2065,-5,-32,15,-320,-650,330,485
,474,2023-10-27 11:54:15.31,9,-121,-2059,3,-38,23,-462,-781,319,621
,475,2023-10-27 11:54:15.32,3,-118,-2062,11,-35,25,-335,-632,297,483
,476,2023-10-27 11:54:15.33,5,-119,-2059,17,-32,30,-465,-758,293,611
,477,2023-10-27 11:54:15.34,9,-114,-2049,17,-25,32,-330,-619,289,474
,478,2023-10-27 11:54:15.35,7,-115,-2045,23,-18,35,-448,-749,301,598
,479,2023-10-27 11:54:15.36,20,-119,-2041,30,-8,37,-308,-614,306,461
,480,2023-10-27 11:54:15.37,2,-125,-2040,33,-7,35,-437,-758,321,597
,481,2023-10-27 11:54:15.38,7,-126,-2045,37,5,36,-311,-620,309,465
,482,2023-10-27 11:54:15.39,8,-119,-2055,39,1,35,-440,-758,318,599
,483,2023-10-27 11:54:15.40,26,-124,-2055,43,-5,34,-314,-621,307,467
,484,2023-10-27 11:54:15.41,3,-123,-2062,41,-6,36,-437,-760,323,598
,485,2023-10-27 11:54:15.42,9,-130,-2061,40,-5,34,-310,-621,311,465
,486,2023-10-27 11:54:15.43,-5,-130,-2067,38,4,33,-429,-763,334,596
,487,2023-10-27 11:54:15.44,-1,-138,-2065,33,5,33,-301,-625,324,463
,488,2023-10-27 11:54:15.45,-9,-146,-2068,35,-3,30,-430,-772,342,601
,489,2023-10-27 11:54:15.46,-3,-139,-2080,37,-14,38,-312,-635,323,473
,490,2023-10-27 11:54:15.47,-2,-149,-2073,38,-21,43,-434,-771,337,602
,491,2023-10-27 11:54:15.48,-11,-142,-2073,35,-20,47,-304,-631,327,467
,492,2023-10-27 11:54:15.49,-11,-141,-2063,34,-16,52,-430,-774,344,602
,493,2023-10-27 11:54:15.50,-10,-140,-2044,30,-17,57,-313,-631,318,472
,494,2023-10-27 11:54:15.51,-18,-132,-2018,27,0,68,-446,-770,324,608
,495,2023-10-27 11:54:15.52,-16,-133,-2019,29,-4,66,-331,-625,294,478
,496,2023-10-27 11:54:15.53,-4,-127,-2025,30,-9,64,-445,-757,312,601
,497,2023-10-27 11:54:15.54,-9,-128,-2018,35,1,66,-329,-618,289,473
,498,2023-10-27 11:54:15.55,-6,-115,-2029,32,-6,62,-444,-756,312,600
,499,2023-10-27 11:54:15.56,13,-114,-2038,29,-5,56,-337,-625,288,481
,500,2023-10-27 11:54:15.57,-1,-108,-2043,20,0,50,-453,-771,318,612
,501,2023-10-27 11:54:15.58,-5,-115,-2054,11,9,48,-344,-632,288,488
,502,2023-10-27 11:54:15.59,-9,-129,-2078,5,-5,42,-453,-754,301,603
,503,2023-10-27 11:54:15.60,-23,-142,-2098,1,-7,50,-343,-618,275,480
,504,2023-10-27 11:54:15.61,-28,-142,-2079,-1,-27,56,-435,-749,314,592
,505,2023-10-27 11:54:15.62,-16,-126,-2060,-10,-18,64,-326,-625,299,475
,506,2023-10-27 11:54:15.63,-16,-120,-2039,-16,-19,69,-437,-764,327,600
,507,2023-10-27 11:54:15.64,-20,-112,-2023,-23,-4,69,-346,-635,289,490
,508,2023-10-27 11:54:15.65,-11,-111,-2021,-22,10,71,-449,-752,303,600
,509,2023-10-27 11:54:15.66,-5,-104,-2019,-23,24,73,-362,-621,259,491
,510,2023-10-27 11:54:15.67,-6,-106,-2037,-23,38,71,-465,-747,282,606
,511,2023-10-27 11:54:15.68,-21,-112,-2047,-22,49,79,-379,-623,244,501
,512,2023-10-27 11:54:15.69,-15,-131,-2062,-19,36,84,-490,-749,259,619
,513,2023-10-27 11:54:15.70,-13,-112,-2062,-8,38,95,-397,-627,230,512
,514,2023-10-27 11:54:15.71,-9,-110,-2053,-4,36,101,-461,-745,284,603
,515,2023-10-27 11:54:15.72,0,-104,-2052,-3,24,100,-356,-628,272,492
,516,2023-10-27 11:54:15.73,-4,-90,-2045,0,36,106,-438,-744,306,591
,517,2023-10-27 11:54:15.74,11,-92,-2046,7,31,106,-358,-631,273,494
,518,2023-10-27 11:54:15.75,10,-99,-2041,3,34,100,-442,-750,308,596
,519,2023-10-27 11:54:15.76,26,-97,-2024,14,55,101,-366,-642,276,504
,520,2023-10-27 11:54:15.77,36,-98,-2012,27,62,89,-446,-755,309,600
,521,2023-10-27 11:54:15.78,37,-92,-2024,36,85,80,-373,-630,257,501
,522,2023-10-27 11:54:15.79,36,-94,-2046,49,95,67,-426,-725,299,575
,523,2023-10-27 11:54:15.80,39,-108,-2062,57,99,61,-315,-610,295,462
,524,2023-10-27 11:54:15.81,26,-130,-2081,66,92,59,-270,-758,488,514
,525,2023-10-27 11:54:15.82,18,-125,-2083,71,62,60,-181,-688,507,434
,526,2023-10-27 11:54:15.83,19,-135,-2081,77,46,68,-211,-797,586,504
,527,2023-10-27 11:54:15.84,4,-141,-2088,75,20,67,-182,-701,519,441
,528,2023-10-27 11:54:15.85,0,-132,-2091,70,9,73,-247,-788,541,517
,529,2023-10-27 11:54:15.86,12,-127,-2080,58,0,77,-240,-687,447,463
,530,2023-10-27 11:54:15.87,5,-132,-2071,53,-8,74,-308,-767,459,537
,531,2023-10-27 11:54:15.88,12,-144,-2065,60,-19,72,-298,-680,382,489
,532,2023-10-27 11:54:15.89,17,-142,-2036,72,-20,59,-332,-758,426,545
,533,2023-10-27 11:54:15.90,26,-139,-2010,82,8,46,-296,-673,377,484
,534,2023-10-27 11:54:15.91,37,-148,-2002,94,35,27,-344,-752,408,548
,535,2023-10-27 11:54:15.92,39,-153,-2009,112,58,5,-319,-669,350,494
,536,2023-10-27 11:54:15.93,36,-187,-2076,147,50,-11,-352,-741,389,546
,537,2023-10-27 11:54:15.94,17,-198,-2089,150,44,-2,-327,-674,347,500
,538,2023-10-27 11:54:15.95,4,-208,-2104,142,32,3,-357,-743,386,550
,539,2023-10-27 11:54:15.96,3,-196,-2109,131,-2,20,-339,-661,322,500
,540,2023-10-27 11:54:15.97,-10,-192,-2100,112,-34,35,-367,-723,356,545
,541,2023-10-27 11:54:15.98,-25,-185,-2085,88,-59,46,-343,-671,328,507
,542,2023-10-27 11:54:15.99,-2,-149,-2019,64,-74,44,-367,-739,372,553
,543,2023-10-27 11:54:16.00,17,-144,-1964,51,-66,32,-358,-688,330,523
,544,2023-10-27 11:54:16.01,3,-129,-1966,42,-38,7,-372,-737,365,554
,545,2023-10-27 11:54:16.02,3,-138,-2008,37,-22,-16,-362,-675,313,518
,546,2023-10-27 11:54:16.03,-6,-150,-2025,39,-16,-41,-376,-719,343,547
,547,2023-10-27 11:54:16.04,-1,-170,-2050,39,-11,-57,-369,-667,298,518
,548,2023-10-27 11:54:16.05,-19,-188,-2078,39,-32,-63,-367,-711,344,539
,549,2023-10-27 11:54:16.06,-30,-188,-2085,39,-39,-66,-365,-673,308,519
,550,2023-10-27 11:54:16.07,-22,-195,-2082,35,-55,-64,-364,-714,350,539
,551,2023-10-27 11:54:16.08,-17,-206,-2073,24,-63,-59,-380,-684,304,532
,552,2023-10-27 11:54:16.09,-25,-193,-2054,15,-50,-52,-384,-716,332,550
,553,2023-10-27 11:54:16.10,-13,-180,-2018,4,-34,-52,-395,-683,288,539
,554,2023-10-27 11:54:16.11,5,-160,-2027,-10,-6,-57,-375,-711,336,543
,555,2023-10-27 11:54:16.12,-9,-154,-2028,-28,35,-58,-380,-687,307,533
,556,2023-10-27 11:54:16.13,-15,-143,-2042,-44,60,-67,-345,-715,370,530
,557,2023-10-27 11:54:16.14,-4,-141,-2044,-60,77,-68,-358,-709,351,533
,558,2023-10-27 11:54:16.15,-1,-141,-2060,-63,78,-68,-335,-726,391,530
,559,2023-10-27 11:54:16.16,-10,-148,-2076,-55,60,-71,-360,-707,347,533
,560,2023-10-27 11:54:16.17,3,-149,-2065,-45,55,-67,-334,-705,371,519
,561,2023-10-27 11:54:16.18,12,-145,-2043,-33,31,-66,-376,-698,322,537
,562,2023-10-27 11:54:16.19,-5,-147,-2036,-9,21,-61,-344,-701,357,522
,563,2023-10-27 11:54:16.20,11,-149,-2026,15,8,-56,-382,-693,311,537
,564,2023-10-27 11:54:16.21,11,-157,-2033,43,-8,-51,-344,-687,343,515
,565,2023-10-27 11:54:16.22,-4,-171,-2053,67,-20,-47,-393,-693,300,543
,566,2023-10-27 11:54:16.23,-24,-191,-2075,91,-34,-35,-344,-684,340,514
,567,2023-10-27 11:54:16.24,-5,-178,-2063,102,-25,-25,-351,-725,374,538
,568,2023-10-27 11:54:16.25,-3,-180,-2044,104,-12,-20,-353,-794,441,573
,569,2023-10-27 11:54:16.26,5,-182,-2043,99,17,-14,-367,-794,427,580
,570,2023-10-27 11:54:16.27,-1,-192,-2036,105,31,-10,-345,-771,426,558
,571,2023-10-27 11:54:16.28,15,-202,-2023,123,23,-12,-372,-754,382,563
,572,2023-10-27 11:54:16.29,16,-195,-1998,137,41,-14,-362,-744,382,553
,573,2023-10-27 11:54:16.30,44,-173,-1995,140,70,-29,-394,-744,350,569
,574,2023-10-27 11:54:16.31,49,-163,-2024,117,139,-47,-381,-735,354,558
,575,2023-10-27 11:54:16.32,40,-161,-2051,80,183,-69,-410,-745,335,577
,576,2023-10-27 11:54:16.33,43,-165,-2061,56,192,-82,-384,-721,337,552
,577,2023-10-27 11:54:16.34,43,-164,-2083,42,170,-99,-428,-739,311,583
,578,2023-10-27 11:54:16.35,57,-157,-2078,26,136,-110,-383,-711,328,547
,579,2023-10-27 11:54:16.36,38,-130,-2060,2,97,-120,-420,-726,306,573
,580,2023-10-27 11:54:16.37,73,-109,-2039,-22,61,-133,-372,-676,304,524
,581,2023-10-27 11:54:16.38,75,-99,-2027,-48,32,-155,-470,-680,210,575
,582,2023-10-27 11:54:16.39,88,-110,-2010,-74,30,-174,-368,-601,233,484
,583,2023-10-27 11:54:16.40,77,-153,-2016,-83,31,-188,-418,-640,222,529
,584,2023-10-27 11:54:16.41,70,-188,-2017,-79,26,-191,-301,-599,298,450
,585,2023-10-27 11:54:16.42,84,-202,-2012,-64,15,-192,-396,-674,278,535
,586,2023-10-27 11:54:16.43,98,-189,-1974,-47,19,-183,-326,-627,301,476
,587,2023-10-27 11:54:16.44,111,-154,-1967,-41,32,-185,-416,-698,282,557
,588,2023-10-27 11:54:16.45,120,-102,-1989,-42,60,-193,-316,-621,305,468
,589,2023-10-27 11:54:16.46,107,-92,-2015,-52,71,-208,-422,-693,271,557
,590,2023-10-27 11:54:16.47,80,-93,-2055,-48,58,-220,-341,-624,283,482
,591,2023-10-27 11:54:16.48,53,-113,-2088,-45,25,-225,-460,-709,249,584
,592,2023-10-27 11:54:16.49,19,-146,-2123,-46,10,-225,-362,-632,270,497
,593,2023-10-27 11:54:16.50,12,-188,-2153,-51,0,-208,-474,-714,240,594
,594,2023-10-27 11:54:16.51,-15,-225,-2148,-63,-1,-185,-374,-632,258,503
,595,2023-10-27 11:54:16.52,-26,-263,-2157,-70,9,-158,-480,-709,229,594
,596,2023-10-27 11:54:16.53,-20,-285,-2148,-64,14,-126,-361,-619,258,490
,597,2023-10-27 11:54:16.54,-19,-296,-2079,-49,15,-94,-477,-714,237,595
,598,2023-10-27 11:54:16.55,-8,-289,-2045,-25,7,-78,-366,-623,257,494
,599,2023-10-27 11:54:16.56,-2,-255,-2043,7,-6,-61,-477,-705,228,591
,600,2023-10-27 11:54:16.57,20,-188,-2019,27,-22,-56,-358,-610,252,484
,601,2023-10-27 11:54:16.58,43,-127,-1993,18,-19,-66,-477,-712,235,594
,602,2023-10-27 11:54:16.59,52,-103,-2010,-13,-2,-82,-359,-619,260,489
,603,2023-10-27 11:54:16.60,57,-116,-2049,-49,26,-97,-482,-725,243,603
,604,2023-10-27 11:54:16.61,52,-133,-2048,-71,32,-99,-364,-628,264,496
,605,2023-10-27 11:54:16.62,58,-107,-2034,-83,16,-99,-487,-742,255,614
,606,2023-10-27 11:54:16.63,60,-114,-2061,-96,24,-99,-366,-632,266,499
,607,2023-10-27 11:54:16.64,60,-126,-2089,-102,16,-96,-499,-738,239,618
,608,2023-10-27 11:54:16.65,92,-122,-2057,-94,-3,-83,-372,-628,256,500
,609,2023-10-27 11:54:16.66,104,-81,-1977,-80,-3,-74,-515,-753,238,634
,610,2023-10-27 11:54:16.67,111,-85,-1994,-62,-15,-82,-396,-640,244,518
,611,2023-10-27 11:54:16.68,89,-148,-2050,-16,-25,-72,-550,-769,219,659
,612,2023-10-27 11:54:16.69,86,-202,-2097,56,-60,-54,-429,-645,216,537
,613,2023-10-27 11:54:16.70,72,-218,-2114,124,-76,-27,-580,-764,184,672
,614,2023-10-27 11:54:16.71,46,-232,-2118,162,-65,-9,-438,-642,204,540
,615,2023-10-27 11:54:16.72,53,-245,-2117,183,-52,5,-575,-774,199,674
,616,2023-10-27 11:54:16.73,47,-240,-2087,199,-32,19,-436,-653,217,544
,617,2023-10-27 11:54:16.74,36,-212,-2078,209,-32,26,-574,-776,202,675
,618,2023-10-27 11:54:16.75,46,-193,-2084,204,-26,23,-429,-639,210,534
,619,2023-10-27 11:54:16.76,43,-166,-2074,183,-15,14,-565,-763,198,664
,620,2023-10-27 11:54:16.77,29,-173,-2108,160,-17,4,-419,-628,209,523
,621,2023-10-27 11:54:16.78,32,-193,-2131,129,-8,-4,-542,-740,198,641
,622,2023-10-27 11:54:16.79,21,-199,-2134,85,-5,-12,-399,-608,209,503
,623,2023-10-27 11:54:16.80,-4,-212,-2133,46,-4,-9,-525,-746,221,635
,624,2023-10-27 11:54:16.81,2,-220,-2104,15,-9,-5,-374,-610,236,492
,625,2023-10-27 11:54:16.82,14,-212,-2062,-4,-21,5,-498,-736,238,617
,626,2023-10-27 11:54:16.83,31,-171,-1976,-29,-5,4,-356,-603,247,479
,627,2023-10-27 11:54:16.84,44,-145,-1940,-55,42,-6,-495,-749,254,622
,628,2023-10-27 11:54:16.85,56,-120,-1907,-64,61,-14,-370,-614,244,492
,629,2023-10-27 11:54:16.86,74,-97,-1912,-52,71,-32,-507,-747,240,627
,630,2023-10-27 11:54:16.87,66,-104,-1951,-35,81,-47,-370,-605,235,487
,631,2023-10-27 11:54:16.88,61,-143,-1997,-17,75,-53,-503,-748,245,625
,632,2023-10-27 11:54:16.89,70,-152,-2029,1,56,-52,-366,-617,251,491
,633,2023-10-27 11:54:16.90,58,-163,-2051,24,29,-38,-499,-755,256,627
,634,2023-10-27 11:54:16.91,50,-186,-2069,42,-21,-27,-362,-619,257,490
,635,2023-10-27 11:54:16.92,46,-208,-2102,68,-50,1,-490,-766,276,628
,636,2023-10-27 11:54:16.93,35,-244,-2136,92,-89,31,-348,-627,279,487
,637,2023-10-27 11:54:16.94,16,-266,-2151,105,-112,62,-468,-770,302,619
,638,2023-10-27 11:54:16.95,14,-268,-2137,103,-104,96,-336,-617,281,476
,639,2023-10-27 11:54:16.96,17,-276,-2115,102,-88,119,-475,-744,269,609
,640,2023-10-27 11:54:16.97,26,-250,-2086,93,-58,129,-368,-603,235,485
,641,2023-10-27 11:54:16.98,31,-225,-2023,89,-8,134,-522,-756,234,639
,642,2023-10-27 11:54:16.99,30,-193,-2003,85,17,123,-413,-627,214,520
,643,2023-10-27 11:54:17.00,9,-189,-2025,84,33,108,-589,-791,202,690
,644,2023-10-27 11:54:17.01,18,-186,-2058,76,57,99,-478,-669,191,573
,645,2023-10-27 11:54:17.02,18,-200,-2060,59,80,90,-618,-819,201,718
,646,2023-10-27 11:54:17.03,12,-204,-2076,44,81,76,-488,-674,186,581
,647,2023-10-27 11:54:17.04,-6,-208,-2057,40,75,77,-618,-811,193,714
,648,2023-10-27 11:54:17.05,7,-196,-2034,40,48,74,-485,-668,183,576
,649,2023-10-27 11:54:17.06,19,-182,-1998,33,27,67,-616,-808,192,712
,650,2023-10-27 11:54:17.07,29,-165,-1944,22,49,67,-480,-657,177,568
,651,2023-10-27 11:54:17.08,39,-160,-1923,8,71,55,-585,-803,218,694
,652,2023-10-27 11:54:17.09,42,-165,-1938,-4,82,45,-427,-685,258,556
,653,2023-10-27 11:54:17.10,49,-168,-1962,-6,95,41,-472,-782,310,627
,654,2023-10-27 11:54:17.11,51,-165,-2001,1,83,42,-330,-596,266,463
,655,2023-10-27 11:54:17.12,66,-178,-2052,-1,71,40,-429,-708,279,568
,656,2023-10-27 11:54:17.13,58,-190,-2097,-1,59,47,-308,-573,265,440
,657,2023-10-27 11:54:17.14,61,-194,-2117,0,56,63,-384,-700,316,542
,658,2023-10-27 11:54:17.15,58,-214,-2122,4,50,80,-249,-558,309,403
,659,2023-10-27 11:54:17.16,57,-240,-2136,14,38,95,-307,-657,350,482
,660,2023-10-27 11:54:17.17,59,-242,-2111,34,24,116,-219,-521,302,370
,661,2023-10-27 11:54:17.18,65,-238,-2034,58,30,134,-334,-644,310,489
,662,2023-10-27 11:54:17.19,63,-228,-2021,76,49,143,-259,-534,275,396
,663,2023-10-27 11:54:17.20,98,-190,-2024,81,75,143,-378,-680,302,529
,664,2023-10-27 11:54:17.21,103,-151,-1994,77,87,141,-313,-582,269,447
,665,2023-10-27 11:54:17.22,114,-123,-1990,67,111,124,-437,-723,286,580
,666,2023-10-27 11:54:17.23,126,-117,-2010,47,115,105,-354,-599,245,476
,667,2023-10-27 11:54:17.24,111,-134,-2059,36,104,91,-453,-709,256,581
,668,2023-10-27 11:54:17.25,91,-155,-2098,37,81,80,-366,-589,223,477
,669,2023-10-27 11:54:17.26,101,-179,-2088,44,50,78,-475,-717,242,596
,670,2023-10-27 11:54:17.27,106,-190,-2066,53,23,73,-401,-616,215,508
,671,2023-10-27 11:54:17.28,135,-161,-2048,61,-1,61,-509,-740,231,624
,672,2023-10-27 11:54:17.29,160,-161,-2053,69,-6,47,-437,-633,196,535
,673,2023-10-27 11:54:17.30,158,-178,-2093,77,-6,30,-539,-749,210,644
,674,2023-10-27 11:54:17.31,149,-196,-2126,83,-10,19,-464,-631,167,547
,675,2023-10-27 11:54:17.32,124,-229,-2150,91,-15,17,-552,-738,186,645
,676,2023-10-27 11:54:17.33,110,-257,-2178,98,-26,23,-468,-620,152,544
,677,2023-10-27 11:54:17.34,88,-281,-2162,99,-47,39,-543,-723,180,633
,678,2023-10-27 11:54:17.35,83,-295,-2112,106,-70,61,-440,-615,175,527
,679,2023-10-27 11:54:17.36,84,-267,-2039,113,-90,80,-463,-702,239,582
,680,2023-10-27 11:54:17.37,81,-239,-1995,106,-87,91,-370,-596,226,483
,681,2023-10-27 11:54:17.38,67,-237,-1990,93,-73,97,-426,-692,266,559
,682,2023-10-27 11:54:17.39,51,-226,-2020,71,-60,96,-370,-596,226,483
,683,2023-10-27 11:54:17.40,46,-224,-2007,43,-44,97,-440,-683,243,561
,684,2023-10-27 11:54:17.41,49,-233,-1961,17,-6,91,-406,-612,206,509
,685,2023-10-27 11:54:17.42,45,-234,-1949,9,14,81,-484,-712,228,598
,686,2023-10-27 11:54:17.43,41,-244,-1961,8,20,73,-452,-645,193,548
,687,2023-10-27 11:54:17.44,24,-256,-1989,20,17,72,-526,-744,218,635
,688,2023-10-27 11:54:17.45,18,-242,-2004,29,11,79,-492,-677,185,584
,689,2023-10-27 11:54:17.46,32,-238,-2012,24,-6,82,-550,-763,213,656
,690,2023-10-27 11:54:17.47,25,-248,-2038,14,-1,89,-515,-705,190,610
,691,2023-10-27 11:54:17.48,33,-250,-2065,8,-14,95,-564,-784,220,674
,692,2023-10-27 11:54:17.49,36,-259,-2100,5,-34,104,-519,-713,194,616
,693,2023-10-27 11:54:17.50,26,-260,-2113,9,-56,107,-567,-783,216,675
,694,2023-10-27 11:54:17.51,30,-267,-2085,2,-43,110,-524,-712,188,618
,695,2023-10-27 11:54:17.52,33,-278,-2065,6,-21,114,-543,-769,226,656
,696,2023-10-27 11:54:17.53,39,-289,-2017,24,-19,112,-460,-681,221,570
,697,2023-10-27 11:54:17.54,44,-277,-1974,47,-2,115,-383,-719,336,551
,698,2023-10-27 11:54:17.55,22,-278,-1973,63,21,108,-309,-678,369,493
,699,2023-10-27 11:54:17.56,37,-270,-2004,73,26,109,-318,-739,421,528
,700,2023-10-27 11:54:17.57,38,-263,-2047,73,26,113,-341,-697,356,519
,701,2023-10-27 11:54:17.58,24,-263,-2073,57,40,123,-384,-732,348,558
,702,2023-10-27 11:54:17.59,21,-259,-2065,30,43,128,-403,-686,283,544
,703,2023-10-27 11:54:17.60,25,-245,-2037,9,30,128,-433,-729,296,581
,704,2023-10-27 11:54:17.61,40,-240,-2010,8,28,136,-452,-691,239,571
,705,2023-10-27 11:54:17.62,28,-214,-1993,4,30,131,-443,-724,281,583
,706,2023-10-27 11:54:17.63,39,-197,-1976,-4,32,124,-425,-686,261,555
,707,2023-10-27 11:54:17.64,42,-188,-1958,-12,63,119,-400,-704,304,552
,708,2023-10-27 11:54:17.65,37,-191,-1979,-10,68,103,-401,-684,283,542
,709,2023-10-27 11:54:17.66,45,-172,-2009,-9,76,87,-384,-696,312,540
,710,2023-10-27 11:54:17.67,58,-154,-2025,-17,77,76,-409,-666,257,537
,711,2023-10-27 11:54:17.68,67,-139,-2032,-38,91,57,-404,-676,272,540
,712,2023-10-27 11:54:17.69,79,-142,-2047,-60,103,41,-438,-676,238,557
,713,2023-10-27 11:54:17.70,81,-144,-2067,-81,101,15,-420,-696,276,558
,714,2023-10-27 11:54:17.71,98,-148,-2082,-90,99,2,-472,-703,231,587
,715,2023-10-27 11:54:17.72,103,-168,-2090,-90,79,-10,-461,-719,258,590
,716,2023-10-27 11:54:17.73,110,-186,-2114,-80,67,-16,-505,-725,220,615
,717,2023-10-27 11:54:17.74,107,-188,-2145,-69,50,-18,-474,-724,250,599
,718,2023-10-27 11:54:17.75,114,-199,-2165,-53,24,-19,-513,-731,218,622
,719,2023-10-27 11:54:17.76,111,-222,-2164,-36,9,-16,-472,-721,249,596
,720,2023-10-27 11:54:17.77,103,-214,-2135,-25,-14,-8,-533,-745,212,639
,721,2023-10-27 11:54:17.78,106,-219,-2105,-11,-34,-1,-511,-746,235,628
,722,2023-10-27 11:54:17.79,83,-241,-2076,12,-53,15,-578,-775,197,676
,723,2023-10-27 11:54:17.80,70,-252,-2056,33,-80,26,-534,-768,234,651
,724,2023-10-27 11:54:17.81,77,-251,-2044,51,-77,42,-588,-798,210,693
,725,2023-10-27 11:54:17.82,72,-254,-2019,54,-74,57,-514,-772,258,643
,726,2023-10-27 11:54:17.83,57,-250,-2013,55,-54,62,-567,-788,221,677
,727,2023-10-27 11:54:17.84,50,-254,-1993,50,-21,69,-492,-756,264,624
,728,2023-10-27 11:54:17.85,49,-259,-1990,46,-6,71,-548,-789,241,668
,729,2023-10-27 11:54:17.86,49,-256,-1981,43,26,75,-464,-749,285,606
,730,2023-10-27 11:54:17.87,53,-252,-1973,38,40,73,-500,-763,263,631
,731,2023-10-27 11:54:17.88,48,-230,-1975,24,50,62,-370,-688,318,529
,732,2023-10-27 11:54:17.89,47,-215,-1992,6,69,59,-405,-711,306,558
,733,2023-10-27 11:54:17.90,42,-186,-2012,-10,63,43,-308,-644,336,476
,734,2023-10-27 11:54:17.91,48,-173,-2001,-22,57,31,-396,-698,302,547
,735,2023-10-27 11:54:17.92,55,-159,-1992,-25,43,25,-319,-638,319,478
,736,2023-10-27 11:54:17.93,42,-167,-1974,-19,32,10,-427,-719,292,573
,737,2023-10-27 11:54:17.94,42,-180,-1983,-7,21,3,-334,-658,324,496
,738,2023-10-27 11:54:17.95,50,-198,-2011,10,14,-1,-416,-710,294,563
,739,2023-10-27 11:54:17.96,42,-223,-2038,34,27,2,-324,-637,313,480
,740,2023-10-27 11:54:17.97,51,-242,-2062,59,24,6,-412,-721,309,566
,741,2023-10-27 11:54:17.98,63,-238,-2045,91,45,11,-322,-652,330,487
,742,2023-10-27 11:54:17.99,61,-240,-2033,100,66,9,-451,-734,283,592
,743,2023-10-27 11:54:18.00,58,-253,-2038,106,86,8,-366,-662,296,514
,744,2023-10-27 11:54:18.01,56,-257,-2041,112,103,6,-492,-755,263,623
,745,2023-10-27 11:54:18.02,57,-257,-2044,114,101,6,-396,-681,285,538
,746,2023-10-27 11:54:18.03,64,-261,-2043,106,104,6,-509,-774,265,641
,747,2023-10-27 11:54:18.04,71,-262,-2062,93,112,9,-395,-678,283,536
,748,2023-10-27 11:54:18.05,84,-258,-2081,74,103,4,-496,-744,248,620
,749,2023-10-27 11:54:18.06,75,-243,-2095,51,89,8,-372,-643,271,507
,750,2023-10-27 11:54:18.07,100,-233,-2100,27,61,4,-470,-732,262,601
,751,2023-10-27 11:54:18.08,96,-230,-2093,-2,49,-4,-347,-635,288,491
,752,2023-10-27 11:54:18.09,103,-231,-2074,-21,35,-11,-462,-741,279,601
,753,2023-10-27 11:54:18.10,107,-231,-2046,-26,30,-20,-337,-634,297,485
,754,2023-10-27 11:54:18.11,119,-218,-2012,-26,25,-32,-453,-734,281,593
,755,2023-10-27 11:54:18.12,117,-218,-2004,-20,30,-41,-329,-622,293,475
,756,2023-10-27 11:54:18.13,114,-231,-2012,-10,39,-56,-445,-723,278,584
,757,2023-10-27 11:54:18.14,113,-230,-2021,-6,56,-57,-322,-610,288,466
,758,2023-10-27 11:54:18.15,119,-245,-2033,0,55,-61,-446,-722,276,584
,759,2023-10-27 11:54:18.16,123,-265,-2040,11,55,-62,-320,-605,285,462
,760,2023-10-27 11:54:18.17,128,-260,-2063,16,51,-54,-445,-714,269,579
,761,2023-10-27 11:54:18.18,116,-269,-2065,26,37,-46,-308,-590,282,449
,762,2023-10-27 11:54:18.19,110,-272,-2060,32,16,-37,-425,-715,290,570
,763,2023-10-27 11:54:18.20,114,-286,-2055,36,12,-22,-302,-594,292,448
,764,2023-10-27 11:54:18.21,119,-285,-2050,39,11,-12,-440,-722,282,581
,765,2023-10-27 11:54:18.22,110,-305,-2040,33,20,-5,-314,-596,282,455
,766,2023-10-27 11:54:18.23,114,-296,-2048,31,22,5,-454,-713,259,583
,767,2023-10-27 11:54:18.24,110,-280,-2053,30,23,7,-333,-590,257,461
,768,2023-10-27 11:54:18.25,101,-264,-2079,30,12,6,-472,-729,257,600
,769,2023-10-27 11:54:18.26,107,-234,-2090,19,4,-1,-344,-603,259,473
,770,2023-10-27 11:54:18.27,108,-210,-2083,-1,22,-10,-489,-733,244,611
,771,2023-10-27 11:54:18.28,99,-216,-2077,-18,40,-16,-353,-602,249,477
,772,2023-10-27 11:54:18.29,102,-227,-2063,-26,42,-30,-486,-733,247,609
,773,2023-10-27 11:54:18.30,99,-233,-2055,-14,39,-35,-346,-597,251,471
,774,2023-10-27 11:54:18.31,104,-229,-2041,-3,35,-34,-466,-716,250,591
,775,2023-10-27 11:54:18.32,95,-231,-2027,6,41,-35,-332,-578,246,455
,776,2023-10-27 11:54:18.33,96,-237,-2032,12,45,-34,-466,-707,241,586
,777,2023-10-27 11:54:18.34,98,-230,-2029,12,53,-30,-336,-587,251,461
,778,2023-10-27 11:54:18.35,91,-233,-2031,12,60,-27,-465,-725,260,595
,779,2023-10-27 11:54:18.36,100,-236,-2033,16,42,-22,-330,-587,257,458
,780,2023-10-27 11:54:18.37,100,-235,-2043,22,24,-20,-466,-721,255,593
,781,2023-10-27 11:54:18.38,113,-229,-2049,20,8,-17,-334,-576,242,455
,782,2023-10-27 11:54:18.39,116,-228,-2045,9,22,-15,-475,-714,239,594
,783,2023-10-27 11:54:18.40,121,-239,-2048,-6,29,-17,-347,-582,235,464
,784,2023-10-27 11:54:18.41,113,-256,-2048,-3,21,-12,-480,-721,241,600
,785,2023-10-27 11:54:18.42,110,-269,-2057,5,2,-6,-344,-588,244,466
,786,2023-10-27 11:54:18.43,115,-276,-2037,10,0,-1,-489,-741,252,615
,787,2023-10-27 11:54:18.44,117,-277,-2032,11,4,4,-356,-600,244,478
,788,2023-10-27 11:54:18.45,121,-290,-2035,13,6,12,-497,-747,250,622
,789,2023-10-27 11:54:18.46,119,-277,-2040,18,12,18,-362,-604,242,483
,790,2023-10-27 11:54:18.47,123,-269,-2050,20,14,24,-498,-744,246,621
,791,2023-10-27 11:54:18.48,126,-251,-2055,22,12,24,-362,-591,229,476
,792,2023-10-27 11:54:18.49,117,-238,-2051,24,16,25,-495,-723,228,609
,793,2023-10-27 11:54:18.50,122,-242,-2042,22,9,17,-351,-578,227,464
,794,2023-10-27 11:54:18.51,131,-243,-2048,30,7,5,-481,-731,250,606
,795,2023-10-27 11:54:18.52,121,-238,-2040,39,4,-2,-351,-593,242,472
,796,2023-10-27 11:54:18.53,128,-238,-2038,46,5,-11,-485,-733,248,609
,797,2023-10-27 11:54:18.54,124,-246,-2042,49,6,-17,-358,-592,234,475
,798,2023-10-27 11:54:18.55,119,-255,-2043,52,14,-17,-491,-737,246,614
,799,2023-10-27 11:54:18.56,126,-252,-2032,51,13,-16,-361,-592,231,476
,800,2023-10-27 11:54:18.57,126,-262,-2033,45,12,-16,-495,-736,241,615
,801,2023-10-27 11:54:18.58,125,-264,-2036,37,19,-11,-368,-598,230,483
,802,2023-10-27 11:54:18.59,138,-260,-2038,27,12,-10,-487,-741,254,614
,803,2023-10-27 11:54:18.60,128,-266,-2046,14,9,-5,-361,-599,238,480
,804,2023-10-27 11:54:18.61,123,-258,-2057,2,1,0,-479,-735,256,607
,805,2023-10-27 11:54:18.62,115,-259,-2069,-12,-7,6,-353,-597,244,475
,806,2023-10-27 11:54:18.63,118,-254,-2064,-17,-20,11,-472,-742,270,607
,807,2023-10-27 11:54:18.64,119,-259,-2053,-18,-25,18,-350,-604,254,477
,808,2023-10-27 11:54:18.65,124,-256,-2048,-12,-32,17,-464,-735,271,599
,809,2023-10-27 11:54:18.66,104,-264,-2054,-3,-26,25,-351,-592,241,471
,810,2023-10-27 11:54:18.67,104,-256,-2043,6,-22,33,-462,-721,259,591
,811,2023-10-27 11:54:18.68,107,-256,-2032,14,-15,36,-344,-589,245,466
,812,2023-10-27 11:54:18.69,115,-247,-2032,20,0,36,-452,-727,275,589
,813,2023-10-27 11:54:18.70,117,-242,-2027,28,10,39,-341,-589,248,465
,814,2023-10-27 11:54:18.71,109,-245,-2033,30,18,36,-444,-706,262,575
,815,2023-10-27 11:54:18.72,121,-242,-2032,32,28,37,-337,-574,237,455
,816,2023-10-27 11:54:18.73,109,-244,-2043,30,26,34,-459,-717,258,588
,817,2023-10-27 11:54:18.74,114,-244,-2052,25,32,31,-359,-592,233,475
,818,2023-10-27 11:54:18.75,116,-247,-2061,21,24,29,-476,-728,252,602
,819,2023-10-27 11:54:18.76,125,-245,-2053,16,14,27,-373,-600,227,486
,820,2023-10-27 11:54:18.77,137,-246,-2045,11,6,21,-469,-726,257,597
,821,2023-10-27 11:54:18.78,114,-243,-2043,8,5,20,-374,-606,232,490
,822,2023-10-27 11:54:18.79,131,-237,-2038,5,-7,16,-476,-731,255,603
,823,2023-10-27 11:54:18.80,131,-242,-2041,5,-15,9,-389,-613,224,501
,824,2023-10-27 11:54:18.81,115,-251,-2044,8,-29,7,-491,-738,247,614
,825,2023-10-27 11:54:18.82,110,-253,-2047,10,-39,9,-395,-619,224,507
,826,2023-10-27 11:54:18.83,105,-265,-2057,13,-49,10,-485,-731,246,608
,827,2023-10-27 11:54:18.84,107,-267,-2052,16,-44,20,-403,-617,214,510
,828,2023-10-27 11:54:18.85,98,-270,-2052,18,-52,27,-491,-729,238,610
,829,2023-10-27 11:54:18.86,94,-263,-2037,26,-47,34,-411,-620,209,515
,830,2023-10-27 11:54:18.87,91,-259,-2025,31,-40,44,-489,-730,241,609
,831,2023-10-27 11:54:18.88,93,-259,-2022,33,-43,47,-403,-620,217,511
,832,2023-10-27 11:54:18.89,97,-254,-2016,32,-27,50,-470,-716,246,593
,833,2023-10-27 11:54:18.90,86,-246,-2018,29,-8,54,-397,-608,211,502
,834,2023-10-27 11:54:18.91,94,-238,-2037,18,1,48,-450,-700,250,575
,835,2023-10-27 11:54:18.92,96,-238,-2032,10,18,39,-379,-621,242,500
,836,2023-10-27 11:54:18.93,94,-230,-2037,2,31,34,-452,-737,285,594
,837,2023-10-27 11:54:18.94,105,-235,-2040,-1,29,24,-398,-647,249,522
,838,2023-10-27 11:54:18.95,111,-228,-2039,0,38,11,-464,-728,264,596
,839,2023-10-27 11:54:18.96,109,-231,-2045,2,29,-4,-416,-633,217,524
,840,2023-10-27 11:54:18.97,119,-232,-2042,9,19,-12,-467,-710,243,588
,841,2023-10-27 11:54:18.98,110,-240,-2040,19,18,-19,-420,-632,212,526
,842,2023-10-27 11:54:18.99,112,-251,-2050,26,12,-24,-478,-720,242,599
,843,2023-10-27 11:54:19.00,116,-252,-2050,29,6,-30,-433,-649,216,541
,844,2023-10-27 11:54:19.01,108,-269,-2054,33,11,-25,-474,-724,250,599
,845,2023-10-27 11:54:19.02,115,-271,-2063,34,13,-15,-437,-653,216,545
,846,2023-10-27 11:54:19.03,111,-275,-2057,33,2,-7,-474,-718,244,596
,847,2023-10-27 11:54:19.04,116,-280,-2043,31,3,3,-441,-649,208,545
,848,2023-10-27 11:54:19.05,116,-284,-2044,30,12,16,-472,-709,237,590
,849,2023-10-27 11:54:19.06,111,-274,-2034,28,11,21,-445,-648,203,546
,850,2023-10-27 11:54:19.07,129,-281,-2030,29,12,27,-473,-706,233,589
,851,2023-10-27 11:54:19.08,114,-276,-2031,33,17,35,-457,-663,206,560
,852,2023-10-27 11:54:19.09,127,-277,-2033,37,19,36,-485,-723,238,604
,853,2023-10-27 11:54:19.10,117,-268,-2036,38,21,36,-472,-666,194,569
,854,2023-10-27 11:54:19.11,114,-269,-2044,40,17,32,-484,-702,218,593
,855,2023-10-27 11:54:19.12,124,-271,-2045,43,11,29,-467,-661,194,564
,856,2023-10-27 11:54:19.13,111,-260,-2034,42,5,26,-464,-696,232,580
,857,2023-10-27 11:54:19.14,119,-265,-2044,37,-1,20,-464,-658,194,561
,858,2023-10-27 11:54:19.15,112,-259,-2040,29,-5,18,-462,-683,221,572
,859,2023-10-27 11:54:19.16,106,-264,-2034,23,-9,12,-469,-657,188,563
,860,2023-10-27 11:54:19.17,101,-257,-2035,9,-11,10,-459,-681,222,570
,861,2023-10-27 11:54:19.18,101,-243,-2025,-7,-11,6,-463,-652,189,557
,862,2023-10-27 11:54:19.19,104,-242,-2024,-23,-8,-1,-452,-682,230,567
,863,2023-10-27 11:54:19.20,112,-248,-2021,-34,-2,-6,-466,-661,195,563
,864,2023-10-27 11:54:19.21,100,-245,-2017,-40,6,-14,-456,-691,235,573
,865,2023-10-27 11:54:19.22,108,-250,-2024,-42,12,-13,-475,-680,205,577
,866,2023-10-27 11:54:19.23,106,-256,-2032,-33,14,-15,-451,-694,243,572
,867,2023-10-27 11:54:19.24,116,-251,-2036,-24,16,-15,-465,-674,209,569
,868,2023-10-27 11:54:19.25,104,-248,-2034,-11,20,-15,-424,-676,252,550
,869,2023-10-27 11:54:19.26,109,-261,-2035,5,21,-12,-451,-678,227,564
,870,2023-10-27 11:54:19.27,114,-258,-2033,17,27,-5,-411,-683,272,547
,871,2023-10-27 11:54:19.28,107,-263,-2037,31,27,-4,-448,-670,222,559
,872,2023-10-27 11:54:19.29,123,-271,-2045,42,28,1,-403,-653,250,528
,873,2023-10-27 11:54:19.30,113,-282,-2040,48,32,10,-451,-668,217,559
,874,2023-10-27 11:54:19.31,135,-282,-2050,50,37,13,-407,-666,259,536
,875,2023-10-27 11:54:19.32,130,-286,-2065,47,38,16,-464,-692,228,578
,876,2023-10-27 11:54:19.33,118,-277,-2059,44,38,22,-424,-682,258,553
,877,2023-10-27 11:54:19.34,118,-278,-2070,38,30,24,-478,-704,226,591
,878,2023-10-27 11:54:19.35,130,-274,-2065,33,20,27,-408,-678,270,543
,879,2023-10-27 11:54:19.36,129,-267,-2068,26,9,27,-450,-673,223,561
,880,2023-10-27 11:54:19.37,135,-277,-2066,22,-3,24,-360,-625,265,492
,881,2023-10-27 11:54:19.38,126,-267,-2073,19,-10,24,-406,-653,247,529
