// Data mode  : Full
// Data quality  : High
// Acceleration sensor's range  : 16g
// Gyroscope sensor's range  : 2000dps
//
//ARTIFACT,NUM,DATE,ACC_X,ACC_Y,ACC_Z,GYRO_X,GYRO_Y,GYRO_Z,EOG_L,EOG_R,EOG_H,EOG_V
,1,2023-10-27 12:00:29.94,-5,-233,-2045,20,-3,24,-146,-312,166,229
,2,2023-10-27 12:00:29.95,-11,-224,-2041,16,-2,26,-219,-395,176,307
,3,2023-10-27 12:00:29.96,-11,-215,-2035,14,-1,27,-152,-315,163,233
,4,2023-10-27 12:00:29.97,-4,-221,-2039,11,1,21,-215,-387,172,301
,5,2023-10-27 12:00:29.98,-4,-219,-2039,8,4,22,-145,-310,165,227
,6,2023-10-27 12:00:29.99,-3,-220,-2043,6,-2,17,-213,-388,175,300
,7,2023-10-27 12:00:30.00,-13,-220,-2047,5,1,16,-147,-313,166,230
,8,2023-10-27 12:00:30.01,-4,-217,-2046,6,0,17,-216,-392,176,304
,9,2023-10-27 12:00:30.02,-5,-218,-2051,3,-4,15,-150,-315,165,232
,10,2023-10-27 12:00:30.03,-13,-229,-2047,3,-8,16,-215,-390,175,302
,11,2023-10-27 12:00:30.04,-6,-223,-2045,4,1,16,-146,-312,166,229
,12,2023-10-27 12:00:30.05,-4,-218,-2042,2,-1,18,-210,-388,178,299
,13,2023-10-27 12:00:30.06,-6,-220,-2043,1,3,15,-144,-310,166,227
,14,2023-10-27 12:00:30.07,-18,-211,-2041,1,5,16,-212,-386,174,299
,15,2023-10-27 12:00:30.08,-6,-208,-2048,1,5,14,-145,-308,163,226
,16,2023-10-27 12:00:30.09,-13,-209,-2050,3,1,12,-209,-385,176,297
,17,2023-10-27 12:00:30.10,-5,-212,-2050,6,-2,12,-143,-308,165,225
,18,2023-10-27 12:00:30.11,-8,-217,-2042,10,-5,9,-209,-382,173,295
,19,2023-10-27 12:00:30.12,-3,-207,-2043,13,-5,11,-143,-309,166,226
,20,2023-10-27 12:00:30.13,-16,-219,-2043,14,0,9,-210,-385,175,297
,21,2023-10-27 12:00:30.14,-20,-218,-2053,16,1,10,-148,-311,163,229
,22,2023-10-27 12:00:30.15,-10,-219,-2048,17,0,12,-218,-388,170,303
,23,2023-10-27 12:00:30.16,-21,-217,-2051,18,0,13,-159,-322,163,240
,24,2023-10-27 12:00:30.17,-14,-222,-2044,18,2,15,-233,-401,168,317
,25,2023-10-27 12:00:30.18,2,-219,-2045,16,1,16,-170,-331,161,250
,26,2023-10-27 12:00:30.19,-4,-219,-2061,16,-3,19,-229,-397,168,313
,27,2023-10-27 12:00:30.20,-24,-221,-2063,16,-2,23,-160,-320,160,240
,28,2023-10-27 12:00:30.21,-8,-216,-2055,16,-6,27,-213,-382,169,297
,29,2023-10-27 12:00:30.22,-7,-223,-2041,16,-8,27,-156,-320,164,238
,30,2023-10-27 12:00:30.23,0,-214,-2043,17,-6,27,-210,-383,173,296
,31,2023-10-27 12:00:30.24,1,-213,-2034,17,-2,27,-152,-321,169,236
,32,2023-10-27 12:00:30.25,4,-215,-2029,14,3,25,-208,-381,173,294
,33,2023-10-27 12:00:30.26,-4,-215,-2031,15,11,24,-153,-315,162,234
,34,2023-10-27 12:00:30.27,-1,-213,-2034,11,16,19,-207,-378,171,292
,35,2023-10-27 12:00:30.28,-4,-212,-2042,8,16,15,-153,-317,164,235
,36,2023-10-27 12:00:30.29,-5,-212,-2047,4,10,12,-210,-378,168,294
,37,2023-10-27 12:00:30.30,-14,-220,-2053,3,7,11,-153,-316,163,234
,38,2023-10-27 12:00:30.31,-14,-216,-2049,1,3,8,-207,-377,170,292
,39,2023-10-27 12:00:30.32,-19,-220,-2047,1,-1,8,-153,-319,166,236
,40,2023-10-27 12:00:30.33,-11,-221,-2041,2,5,10,-209,-380,171,294
,41,2023-10-27 12:00:30.34,-11,-218,-2036,2,11,13,-160,-323,163,241
,42,2023-10-27 12:00:30.35,-17,-218,-2036,3,12,14,-215,-379,164,297
,43,2023-10-27 12:00:30.36,-13,-217,-2041,3,11,10,-166,-325,159,245
,44,2023-10-27 12:00:30.37,-2,-228,-2047,5,14,9,-218,-382,164,300
,45,2023-10-27 12:00:30.38,-3,-223,-2053,7,12,8,-166,-328,162,247
,46,2023-10-27 12:00:30.39,-2,-220,-2049,7,14,6,-215,-381,166,298
,47,2023-10-27 12:00:30.40,-4,-228,-2057,13,13,9,-168,-330,162,249
,48,2023-10-27 12:00:30.41,-8,-230,-2060,14,5,8,-219,-383,164,301
,49,2023-10-27 12:00:30.42,6,-226,-2047,13,5,11,-169,-335,166,252
,50,2023-10-27 12:00:30.43,-10,-218,-2040,14,6,13,-211,-379,168,295
,51,2023-10-27 12:00:30.44,-1,-211,-2047,10,15,13,-166,-331,165,248
,52,2023-10-27 12:00:30.45,-1,-219,-2047,5,11,11,-213,-381,168,297
,53,2023-10-27 12:00:30.46,5,-223,-2054,5,12,11,-171,-335,164,253
,54,2023-10-27 12:00:30.47,-4,-220,-2056,4,10,13,-209,-379,170,294
,55,2023-10-27 12:00:30.48,0,-223,-2049,3,9,14,-169,-334,165,251
,56,2023-10-27 12:00:30.49,5,-216,-2038,1,7,11,-208,-376,168,292
,57,2023-10-27 12:00:30.50,-9,-219,-2048,1,2,9,-174,-337,163,255
,58,2023-10-27 12:00:30.51,-3,-216,-2050,1,-1,9,-211,-376,165,293
,59,2023-10-27 12:00:30.52,0,-217,-2044,-2,-4,9,-174,-336,162,255
,60,2023-10-27 12:00:30.53,-7,-211,-2038,-1,-6,9,-206,-372,166,289
,61,2023-10-27 12:00:30.54,0,-212,-2048,0,-6,10,-172,-335,163,253
,62,2023-10-27 12:00:30.55,-8,-205,-2044,-1,3,11,-205,-371,166,288
,63,2023-10-27 12:00:30.56,-12,-211,-2049,-1,6,12,-178,-338,160,258
,64,2023-10-27 12:00:30.57,-9,-216,-2040,-2,8,13,-205,-368,163,286
,65,2023-10-27 12:00:30.58,-3,-217,-2045,0,7,11,-174,-338,164,256
,66,2023-10-27 12:00:30.59,-19,-217,-2045,3,6,13,-198,-365,167,281
,67,2023-10-27 12:00:30.60,-9,-214,-2040,10,3,11,-172,-340,168,256
,68,2023-10-27 12:00:30.61,-5,-218,-2044,14,4,16,-200,-365,165,282
,69,2023-10-27 12:00:30.62,-20,-213,-2042,18,4,16,-172,-334,162,253
,70,2023-10-27 12:00:30.63,-5,-213,-2040,22,2,15,-193,-362,169,277
,71,2023-10-27 12:00:30.64,-6,-213,-2053,26,6,13,-170,-339,169,254
,72,2023-10-27 12:00:30.65,-9,-210,-2054,26,10,11,-192,-362,170,277
,73,2023-10-27 12:00:30.66,-3,-209,-2045,28,10,7,-179,-343,164,261
,74,2023-10-27 12:00:30.67,-11,-214,-2045,28,12,1,-196,-361,165,278
,75,2023-10-27 12:00:30.68,-2,-215,-2043,28,10,-7,-184,-350,166,267
,76,2023-10-27 12:00:30.69,-5,-217,-2048,32,5,-16,-188,-361,173,274
,77,2023-10-27 12:00:30.70,-5,-223,-2056,36,3,-20,-171,-346,175,258
,78,2023-10-27 12:00:30.71,-11,-230,-2055,37,-7,-25,-180,-354,174,267
,79,2023-10-27 12:00:30.72,-6,-221,-2057,35,-11,-26,-173,-344,171,258
,80,2023-10-27 12:00:30.73,-20,-230,-2059,33,-13,-24,-182,-354,172,268
,81,2023-10-27 12:00:30.74,-12,-227,-2058,33,-12,-23,-175,-349,174,262
,82,2023-10-27 12:00:30.75,-25,-240,-2053,35,-17,-16,-184,-352,168,268
,83,2023-10-27 12:00:30.76,-16,-255,-2044,40,-13,-12,-180,-351,171,265
,84,2023-10-27 12:00:30.77,-11,-253,-2039,51,-7,-4,-183,-350,167,266
,85,2023-10-27 12:00:30.78,-2,-252,-2035,62,6,3,-183,-353,170,268
,86,2023-10-27 12:00:30.79,-10,-254,-2019,77,19,7,-186,-350,164,268
,87,2023-10-27 12:00:30.80,-9,-249,-2030,90,27,13,-189,-358,169,273
,88,2023-10-27 12:00:30.81,-12,-264,-2030,107,36,19,-190,-352,162,271
,89,2023-10-27 12:00:30.82,-7,-266,-2038,123,42,24,-197,-361,164,279
,90,2023-10-27 12:00:30.83,-4,-269,-2032,142,46,29,-190,-352,162,271
,91,2023-10-27 12:00:30.84,-8,-265,-2027,148,56,32,-196,-362,166,279
,92,2023-10-27 12:00:30.85,0,-254,-2020,148,55,27,-196,-352,156,274
,93,2023-10-27 12:00:30.86,12,-244,-2023,144,62,18,-211,-370,159,290
,94,2023-10-27 12:00:30.87,-3,-242,-2037,128,66,9,-191,-351,160,271
,95,2023-10-27 12:00:30.88,7,-237,-2049,103,74,-6,-192,-362,170,277
,96,2023-10-27 12:00:30.89,11,-231,-2046,74,80,-23,-174,-336,162,255
,97,2023-10-27 12:00:30.90,9,-236,-2048,45,85,-40,-201,-359,158,280
,98,2023-10-27 12:00:30.91,6,-235,-2043,16,94,-57,-187,-340,153,263
,99,2023-10-27 12:00:30.92,15,-231,-2042,-10,101,-72,-204,-358,154,281
,100,2023-10-27 12:00:30.93,2,-227,-2040,-36,104,-87,-172,-327,155,249
,101,2023-10-27 12:00:30.94,4,-226,-2048,-62,97,-100,-195,-354,159,274
,102,2023-10-27 12:00:30.95,3,-226,-2059,-81,81,-113,-178,-334,156,256
,103,2023-10-27 12:00:30.96,-6,-237,-2061,-92,65,-114,-204,-358,154,281
,104,2023-10-27 12:00:30.97,-8,-235,-2055,-108,49,-116,-166,-318,152,242
,105,2023-10-27 12:00:30.98,-6,-232,-2046,-121,31,-115,-191,-345,154,268
,106,2023-10-27 12:00:30.99,-1,-220,-2057,-125,16,-110,-170,-319,149,244
,107,2023-10-27 12:00:31.00,1,-217,-2045,-127,4,-106,-211,-358,147,284
,108,2023-10-27 12:00:31.01,8,-209,-2039,-122,1,-103,-179,-328,149,253
,109,2023-10-27 12:00:31.02,3,-207,-2037,-114,2,-98,-199,-354,155,276
,110,2023-10-27 12:00:31.03,14,-206,-2018,-102,20,-99,-154,-312,158,233
,111,2023-10-27 12:00:31.04,12,-207,-2020,-79,24,-100,-195,-352,157,273
,112,2023-10-27 12:00:31.05,17,-209,-2038,-55,44,-102,-169,-320,151,244
,113,2023-10-27 12:00:31.06,21,-214,-2031,-28,60,-101,-209,-365,156,287
,114,2023-10-27 12:00:31.07,29,-202,-2047,3,65,-104,-179,-328,149,253
,115,2023-10-27 12:00:31.08,39,-210,-2041,29,64,-106,-211,-368,157,289
,116,2023-10-27 12:00:31.09,39,-212,-2044,53,61,-103,-170,-328,158,249
,117,2023-10-27 12:00:31.10,58,-217,-2043,66,69,-103,-193,-359,166,276
,118,2023-10-27 12:00:31.11,54,-201,-2044,74,81,-102,-151,-312,161,231
,119,2023-10-27 12:00:31.12,56,-214,-2041,72,88,-103,-194,-360,166,277
,120,2023-10-27 12:00:31.13,61,-223,-2054,73,90,-102,-155,-316,161,235
,121,2023-10-27 12:00:31.14,59,-232,-2053,77,81,-104,-201,-366,165,283
,122,2023-10-27 12:00:31.15,60,-240,-2043,81,72,-98,-159,-315,156,237
,123,2023-10-27 12:00:31.16,74,-243,-2047,73,75,-99,-207,-364,157,285
,124,2023-10-27 12:00:31.17,74,-247,-2042,63,75,-99,-162,-313,151,237
,125,2023-10-27 12:00:31.18,68,-244,-2056,56,72,-99,-208,-367,159,287
,126,2023-10-27 12:00:31.19,73,-256,-2053,49,65,-92,-162,-312,150,237
,127,2023-10-27 12:00:31.20,65,-250,-2049,42,60,-91,-215,-371,156,293
,128,2023-10-27 12:00:31.21,64,-256,-2053,36,58,-86,-164,-314,150,239
,129,2023-10-27 12:00:31.22,81,-250,-2047,31,50,-81,-214,-373,159,293
,130,2023-10-27 12:00:31.23,73,-246,-2043,21,50,-79,-160,-309,149,234
,131,2023-10-27 12:00:31.24,85,-238,-2040,16,54,-77,-217,-371,154,294
,132,2023-10-27 12:00:31.25,78,-238,-2030,16,51,-80,-168,-312,144,240
,133,2023-10-27 12:00:31.26,78,-242,-2043,17,41,-82,-221,-369,148,295
,134,2023-10-27 12:00:31.27,82,-240,-2045,20,37,-83,-154,-299,145,226
,135,2023-10-27 12:00:31.28,73,-252,-2042,25,20,-83,-202,-358,156,280
,136,2023-10-27 12:00:31.29,76,-257,-2038,42,0,-80,-135,-284,149,209
,137,2023-10-27 12:00:31.30,73,-250,-2047,56,-23,-76,-189,-348,159,268
,138,2023-10-27 12:00:31.31,71,-255,-2055,62,-41,-71,-126,-281,155,203
,139,2023-10-27 12:00:31.32,55,-274,-2063,64,-46,-65,-182,-350,168,266
,140,2023-10-27 12:00:31.33,50,-279,-2057,64,-57,-56,-115,-279,164,197
,141,2023-10-27 12:00:31.34,52,-276,-2066,61,-57,-44,-177,-349,172,263
,142,2023-10-27 12:00:31.35,57,-285,-2057,55,-52,-29,-115,-280,165,197
,143,2023-10-27 12:00:31.36,59,-288,-2053,47,-56,-20,-179,-355,176,267
,144,2023-10-27 12:00:31.37,43,-280,-2048,36,-45,-14,-112,-285,173,198
,145,2023-10-27 12:00:31.38,53,-269,-2048,28,-43,-8,-178,-358,180,268
,146,2023-10-27 12:00:31.39,41,-265,-2050,19,-38,-5,-113,-284,171,198
,147,2023-10-27 12:00:31.40,54,-264,-2037,13,-40,-6,-150,-344,194,247
,148,2023-10-27 12:00:31.41,40,-255,-2045,6,-36,-7,-53,-256,203,154
,149,2023-10-27 12:00:31.42,46,-252,-2034,-7,-20,-7,-60,-306,246,183
,150,2023-10-27 12:00:31.43,44,-255,-2026,-15,-18,-15,35,-220,255,92
,151,2023-10-27 12:00:31.44,38,-265,-2027,-19,-8,-13,-32,-292,260,162
,152,2023-10-27 12:00:31.45,45,-271,-2023,-20,-5,-14,5,-234,239,114
,153,2023-10-27 12:00:31.46,39,-270,-2020,-18,-8,-12,-86,-316,230,201
,154,2023-10-27 12:00:31.47,41,-257,-2030,-24,-2,-8,-38,-250,212,144
,155,2023-10-27 12:00:31.48,38,-248,-2026,-38,12,-3,-128,-338,210,233
,156,2023-10-27 12:00:31.49,37,-249,-2029,-53,15,-1,-70,-270,200,170
,157,2023-10-27 12:00:31.50,38,-234,-2046,-65,11,-3,-154,-353,199,253
,158,2023-10-27 12:00:31.51,48,-239,-2040,-73,13,1,-86,-276,190,181
,159,2023-10-27 12:00:31.52,58,-227,-2040,-77,16,0,-170,-356,186,263
,160,2023-10-27 12:00:31.53,64,-222,-2031,-81,12,-3,-106,-282,176,194
,161,2023-10-27 12:00:31.54,54,-235,-2035,-77,15,-7,-189,-366,177,277
,162,2023-10-27 12:00:31.55,52,-223,-2035,-67,11,-13,-117,-292,175,204
,163,2023-10-27 12:00:31.56,64,-220,-2036,-54,14,-19,-200,-374,174,287
,164,2023-10-27 12:00:31.57,51,-221,-2045,-44,26,-20,-128,-298,170,213
,165,2023-10-27 12:00:31.58,69,-215,-2047,-38,42,-24,-209,-377,168,293
,166,2023-10-27 12:00:31.59,68,-210,-2053,-28,53,-30,-132,-296,164,214
,167,2023-10-27 12:00:31.60,63,-216,-2061,-28,55,-34,-211,-376,165,293
,168,2023-10-27 12:00:31.61,78,-214,-2058,-29,50,-35,-139,-300,161,219
,169,2023-10-27 12:00:31.62,71,-208,-2061,-34,55,-35,-221,-379,158,300
,170,2023-10-27 12:00:31.63,74,-208,-2055,-36,54,-37,-147,-298,151,222
,171,2023-10-27 12:00:31.64,91,-204,-2052,-42,49,-42,-227,-381,154,304
,172,2023-10-27 12:00:31.65,87,-207,-2051,-40,45,-44,-146,-296,150,221
,173,2023-10-27 12:00:31.66,78,-210,-2053,-39,34,-47,-227,-377,150,302
,174,2023-10-27 12:00:31.67,77,-212,-2048,-33,23,-47,-154,-300,146,227
,175,2023-10-27 12:00:31.68,87,-218,-2049,-26,8,-47,-235,-383,148,309
,176,2023-10-27 12:00:31.69,79,-222,-2043,-18,-7,-46,-160,-306,146,233
,177,2023-10-27 12:00:31.70,67,-230,-2037,-8,-17,-39,-242,-388,146,315
,178,2023-10-27 12:00:31.71,69,-227,-2048,-1,-21,-33,-169,-315,146,242
,179,2023-10-27 12:00:31.72,74,-228,-2045,5,-21,-26,-249,-396,147,322
,180,2023-10-27 12:00:31.73,68,-228,-2054,9,-21,-19,-171,-317,146,244
,181,2023-10-27 12:00:31.74,65,-225,-2051,14,-21,-14,-244,-391,147,317
,182,2023-10-27 12:00:31.75,65,-229,-2055,20,-28,-11,-163,-311,148,237
,183,2023-10-27 12:00:31.76,56,-222,-2050,26,-24,-4,-240,-387,147,313
,184,2023-10-27 12:00:31.77,52,-233,-2052,34,-28,-2,-163,-310,147,236
,185,2023-10-27 12:00:31.78,64,-223,-2050,41,-28,3,-238,-385,147,311
,186,2023-10-27 12:00:31.79,51,-220,-2042,48,-27,2,-161,-306,145,233
,187,2023-10-27 12:00:31.80,46,-231,-2041,54,-24,2,-231,-380,149,305
,188,2023-10-27 12:00:31.81,58,-230,-2035,58,-16,3,-154,-304,150,229
,189,2023-10-27 12:00:31.82,56,-230,-2041,54,-1,-1,-229,-377,148,303
,190,2023-10-27 12:00:31.83,57,-230,-2035,45,10,-3,-159,-305,146,232
,191,2023-10-27 12:00:31.84,61,-242,-2036,43,15,-7,-230,-380,150,305
,192,2023-10-27 12:00:31.85,61,-257,-2045,46,9,-4,-152,-298,146,225
,193,2023-10-27 12:00:31.86,63,-246,-2048,43,-1,-5,-224,-374,150,299
,194,2023-10-27 12:00:31.87,32,-239,-2045,39,1,-1,-159,-303,144,231
,195,2023-10-27 12:00:31.88,51,-236,-2055,27,2,-4,-219,-371,152,295
,196,2023-10-27 12:00:31.89,52,-225,-2059,17,2,-8,-148,-297,149,222
,197,2023-10-27 12:00:31.90,56,-237,-2059,8,-2,-13,-210,-362,152,286
,198,2023-10-27 12:00:31.91,58,-237,-2054,4,-10,-17,-137,-291,154,214
,199,2023-10-27 12:00:31.92,59,-228,-2050,5,-12,-18,-115,-325,210,220
,200,2023-10-27 12:00:31.93,64,-220,-2051,-3,-14,-26,-13,-240,227,126
,201,2023-10-27 12:00:31.94,61,-222,-2048,-6,-17,-36,-27,-281,254,154
,202,2023-10-27 12:00:31.95,60,-233,-2042,-5,-11,-35,12,-221,233,104
,203,2023-10-27 12:00:31.96,54,-239,-2044,1,-14,-34,-39,-280,241,159
,204,2023-10-27 12:00:31.97,47,-239,-2034,-2,-3,-35,-2,-224,222,113
,205,2023-10-27 12:00:31.98,55,-235,-2032,-2,-6,-34,-54,-287,233,170
,206,2023-10-27 12:00:31.99,43,-235,-2038,-6,2,-31,-23,-234,211,128
,207,2023-10-27 12:00:32.00,56,-234,-2032,-7,-2,-26,-83,-296,213,189
,208,2023-10-27 12:00:32.01,38,-224,-2037,-13,9,-24,-51,-247,196,149
,209,2023-10-27 12:00:32.02,52,-244,-2035,-15,3,-21,-113,-312,199,212
,210,2023-10-27 12:00:32.03,49,-230,-2047,-9,0,-19,-80,-262,182,171
,211,2023-10-27 12:00:32.04,48,-230,-2041,-6,2,-17,-139,-323,184,231
,212,2023-10-27 12:00:32.05,49,-220,-2040,-9,4,-15,-99,-270,171,184
,213,2023-10-27 12:00:32.06,55,-219,-2027,-11,21,-19,-146,-324,178,235
,214,2023-10-27 12:00:32.07,48,-224,-2032,-9,23,-23,-98,-270,172,184
,215,2023-10-27 12:00:32.08,47,-218,-2041,-2,21,-24,-150,-327,177,238
,216,2023-10-27 12:00:32.09,58,-220,-2032,-2,31,-27,-104,-273,169,188
,217,2023-10-27 12:00:32.10,60,-233,-2038,-1,24,-32,-155,-325,170,240
,218,2023-10-27 12:00:32.11,68,-242,-2042,6,24,-32,-111,-275,164,193
,219,2023-10-27 12:00:32.12,73,-239,-2040,18,18,-31,-163,-331,168,247
,220,2023-10-27 12:00:32.13,67,-238,-2051,16,32,-30,-123,-281,158,202
,221,2023-10-27 12:00:32.14,68,-251,-2051,11,38,-29,-174,-332,158,253
,222,2023-10-27 12:00:32.15,79,-237,-2055,16,22,-29,-132,-288,156,210
,223,2023-10-27 12:00:32.16,76,-232,-2054,14,33,-23,-182,-343,161,262
,224,2023-10-27 12:00:32.17,83,-221,-2061,5,25,-30,-143,-296,153,219
,225,2023-10-27 12:00:32.18,77,-217,-2063,-7,29,-30,-190,-346,156,268
,226,2023-10-27 12:00:32.19,75,-217,-2063,-11,24,-30,-154,-304,150,229
,227,2023-10-27 12:00:32.20,86,-219,-2059,-11,8,-32,-202,-353,151,277
,228,2023-10-27 12:00:32.21,84,-217,-2064,-19,9,-33,-162,-310,148,236
,229,2023-10-27 12:00:32.22,76,-218,-2054,-30,12,-33,-200,-352,152,276
,230,2023-10-27 12:00:32.23,83,-214,-2064,-32,-5,-31,-158,-308,150,233
,231,2023-10-27 12:00:32.24,78,-212,-2051,-30,-10,-26,-193,-346,153,269
,232,2023-10-27 12:00:32.25,82,-210,-2049,-28,-16,-24,-156,-309,153,232
,233,2023-10-27 12:00:32.26,75,-199,-2053,-32,-17,-20,-192,-342,150,267
,234,2023-10-27 12:00:32.27,76,-194,-2057,-36,-22,-19,-164,-313,149,238
,235,2023-10-27 12:00:32.28,71,-196,-2055,-40,-20,-17,-206,-350,144,278
,236,2023-10-27 12:00:32.29,63,-205,-2038,-41,-24,-18,-165,-315,150,240
,237,2023-10-27 12:00:32.30,64,-201,-2041,-31,-29,-18,-192,-338,146,265
,238,2023-10-27 12:00:32.31,63,-210,-2043,-14,-40,-14,-156,-303,147,229
,239,2023-10-27 12:00:32.32,57,-200,-2048,-7,-30,-10,-184,-331,147,257
,240,2023-10-27 12:00:32.33,52,-204,-2038,-3,-26,-7,-153,-303,150,228
,241,2023-10-27 12:00:32.34,46,-224,-2037,3,-21,-2,-186,-333,147,259
,242,2023-10-27 12:00:32.35,49,-227,-2027,15,-19,0,-172,-324,152,248
,243,2023-10-27 12:00:32.36,62,-224,-2027,22,-16,7,-194,-341,147,267
,244,2023-10-27 12:00:32.37,56,-218,-2033,28,-5,12,-173,-319,146,246
,245,2023-10-27 12:00:32.38,44,-217,-2049,27,1,12,-199,-343,144,271
,246,2023-10-27 12:00:32.39,46,-220,-2039,26,8,11,-179,-321,142,250
,247,2023-10-27 12:00:32.40,63,-219,-2046,33,9,15,-210,-345,135,277
,248,2023-10-27 12:00:32.41,54,-228,-2040,39,2,9,-193,-328,135,260
,249,2023-10-27 12:00:32.42,63,-217,-2032,41,12,5,-210,-345,135,277
,250,2023-10-27 12:00:32.43,73,-222,-2030,42,11,-1,-191,-330,139,260
,251,2023-10-27 12:00:32.44,69,-216,-2047,37,21,-6,-202,-344,142,273
,252,2023-10-27 12:00:32.45,67,-223,-2046,35,23,-7,-186,-328,142,257
,253,2023-10-27 12:00:32.46,58,-223,-2056,28,21,-11,-194,-340,146,267
,254,2023-10-27 12:00:32.47,73,-208,-2052,20,12,-15,-175,-326,151,250
,255,2023-10-27 12:00:32.48,73,-217,-2059,12,8,-20,-182,-333,151,257
,256,2023-10-27 12:00:32.49,78,-216,-2052,4,4,-23,-173,-327,154,250
,257,2023-10-27 12:00:32.50,71,-211,-2041,-2,0,-26,-180,-338,158,259
,258,2023-10-27 12:00:32.51,97,-201,-2039,-8,1,-28,-175,-334,159,254
,259,2023-10-27 12:00:32.52,87,-191,-2048,-17,-5,-31,-177,-336,159,256
,260,2023-10-27 12:00:32.53,72,-199,-2068,-27,-6,-34,-171,-330,159,250
,261,2023-10-27 12:00:32.54,78,-197,-2080,-34,-18,-37,-173,-326,153,249
,262,2023-10-27 12:00:32.55,80,-200,-2078,-40,-30,-36,-166,-323,157,244
,263,2023-10-27 12:00:32.56,65,-215,-2064,-41,-32,-34,-162,-320,158,241
,264,2023-10-27 12:00:32.57,62,-233,-2047,-38,-33,-33,-165,-324,159,244
,265,2023-10-27 12:00:32.58,79,-227,-2042,-19,-38,-23,-163,-317,154,240
,266,2023-10-27 12:00:32.59,69,-225,-2038,-2,-39,-14,-163,-320,157,241
,267,2023-10-27 12:00:32.60,63,-237,-2045,6,-30,-5,-157,-310,153,233
,268,2023-10-27 12:00:32.61,52,-242,-2049,14,-23,5,-171,-323,152,247
,269,2023-10-27 12:00:32.62,47,-245,-2053,17,-20,14,-171,-320,149,245
,270,2023-10-27 12:00:32.63,43,-246,-2049,20,-14,25,-193,-338,145,265
,271,2023-10-27 12:00:32.64,50,-256,-2042,24,-18,36,-192,-332,140,262
,272,2023-10-27 12:00:32.65,43,-255,-2025,37,-16,45,-205,-348,143,276
,273,2023-10-27 12:00:32.66,46,-239,-2016,49,-16,53,-191,-331,140,261
,274,2023-10-27 12:00:32.67,38,-237,-2011,44,-1,53,-200,-340,140,270
,275,2023-10-27 12:00:32.68,26,-242,-2025,46,12,50,-189,-327,138,258
,276,2023-10-27 12:00:32.69,35,-241,-2045,53,15,44,-204,-346,142,275
,277,2023-10-27 12:00:32.70,43,-232,-2050,56,14,40,-178,-321,143,249
,278,2023-10-27 12:00:32.71,53,-216,-2039,44,19,33,-194,-342,148,268
,279,2023-10-27 12:00:32.72,52,-210,-2033,36,30,16,-176,-318,142,247
,280,2023-10-27 12:00:32.73,56,-203,-2031,24,38,0,-199,-351,152,275
,281,2023-10-27 12:00:32.74,59,-202,-2025,14,40,-17,-173,-317,144,245
,282,2023-10-27 12:00:32.75,65,-202,-2025,6,46,-29,-192,-342,150,267
,283,2023-10-27 12:00:32.76,86,-205,-2052,-10,49,-41,-170,-318,148,244
,284,2023-10-27 12:00:32.77,70,-213,-2076,-21,46,-46,-181,-337,156,259
,285,2023-10-27 12:00:32.78,72,-225,-2096,-29,31,-44,-154,-301,147,227
,286,2023-10-27 12:00:32.79,59,-222,-2105,-43,13,-41,-179,-336,157,257
,287,2023-10-27 12:00:32.80,67,-219,-2095,-54,-3,-32,-145,-295,150,220
,288,2023-10-27 12:00:32.81,58,-212,-2074,-66,-23,-22,-174,-329,155,251
,289,2023-10-27 12:00:32.82,64,-210,-2061,-69,-29,-9,-148,-294,146,221
,290,2023-10-27 12:00:32.83,54,-211,-2045,-65,-35,-5,-184,-339,155,261
,291,2023-10-27 12:00:32.84,51,-215,-2044,-55,-46,6,-155,-300,145,227
,292,2023-10-27 12:00:32.85,40,-214,-2041,-36,-50,16,-196,-346,150,271
,293,2023-10-27 12:00:32.86,42,-213,-2038,-21,-49,24,-165,-304,139,234
,294,2023-10-27 12:00:32.87,52,-201,-2039,-3,-36,30,-223,-362,139,292
,295,2023-10-27 12:00:32.88,50,-210,-2031,3,-14,34,-189,-317,128,253
,296,2023-10-27 12:00:32.89,39,-214,-2021,16,9,32,-231,-336,105,283
,297,2023-10-27 12:00:32.90,45,-210,-2015,37,11,26,-179,-270,91,224
,298,2023-10-27 12:00:32.91,56,-216,-2021,60,16,19,-232,-320,88,276
,299,2023-10-27 12:00:32.92,40,-219,-2035,76,29,12,-181,-290,109,235
,300,2023-10-27 12:00:32.93,49,-220,-2037,80,40,0,-246,-377,131,311
,301,2023-10-27 12:00:32.94,42,-236,-2043,83,50,-6,-209,-361,152,285
,302,2023-10-27 12:00:32.95,43,-237,-2038,84,49,-11,-275,-458,183,366
,303,2023-10-27 12:00:32.96,57,-236,-2034,81,45,-13,-221,-430,209,325
,304,2023-10-27 12:00:32.97,50,-234,-2028,68,47,-19,-278,-511,233,394
,305,2023-10-27 12:00:32.98,76,-238,-2033,53,58,-19,-218,-465,247,341
,306,2023-10-27 12:00:32.99,67,-236,-2047,31,73,-18,-276,-528,252,402
,307,2023-10-27 12:00:33.00,57,-242,-2054,11,74,-16,-220,-464,244,342
,308,2023-10-27 12:00:33.01,71,-233,-2042,-2,74,-13,-279,-519,240,399
,309,2023-10-27 12:00:33.02,81,-221,-2047,-13,74,-14,-218,-446,228,332
,310,2023-10-27 12:00:33.03,87,-212,-2063,-36,80,-13,-276,-516,240,396
,311,2023-10-27 12:00:33.04,79,-215,-2073,-51,79,-13,-210,-456,246,333
,312,2023-10-27 12:00:33.05,81,-213,-2085,-61,70,-10,-275,-527,252,401
,313,2023-10-27 12:00:33.06,84,-203,-2077,-64,51,-8,-213,-449,236,331
,314,2023-10-27 12:00:33.07,76,-191,-2071,-65,35,-10,-283,-508,225,395
,315,2023-10-27 12:00:33.08,96,-192,-2064,-60,21,-11,-218,-424,206,321
,316,2023-10-27 12:00:33.09,95,-181,-2056,-57,14,-14,-280,-499,219,389
,317,2023-10-27 12:00:33.10,85,-197,-2055,-50,9,-18,-212,-432,220,322
,318,2023-10-27 12:00:33.11,76,-194,-2054,-42,4,-17,-284,-510,226,397
,319,2023-10-27 12:00:33.12,74,-203,-2051,-29,-5,-15,-218,-431,213,324
,320,2023-10-27 12:00:33.13,74,-209,-2049,-11,-11,-8,-286,-507,221,396
,321,2023-10-27 12:00:33.14,65,-213,-2042,2,-9,-3,-217,-443,226,330
,322,2023-10-27 12:00:33.15,68,-211,-2030,14,3,7,-287,-524,237,405
,323,2023-10-27 12:00:33.16,84,-221,-2019,25,15,14,-210,-443,233,326
,324,2023-10-27 12:00:33.17,82,-220,-2020,41,29,19,-277,-525,248,401
,325,2023-10-27 12:00:33.18,76,-223,-2028,52,37,21,-198,-463,265,330
,326,2023-10-27 12:00:33.19,86,-219,-2050,63,38,23,-273,-576,303,424
,327,2023-10-27 12:00:33.20,86,-209,-2028,65,44,25,-188,-514,326,351
,328,2023-10-27 12:00:33.21,87,-211,-2018,61,51,20,-238,-606,368,422
,329,2023-10-27 12:00:33.22,92,-212,-2043,56,62,15,-164,-514,350,339
,330,2023-10-27 12:00:33.23,91,-220,-2049,50,56,11,-232,-562,330,397
,331,2023-10-27 12:00:33.24,90,-217,-2053,42,49,8,-162,-452,290,307
,332,2023-10-27 12:00:33.25,82,-227,-2060,39,44,5,-234,-514,280,374
,333,2023-10-27 12:00:33.26,86,-228,-2078,29,26,6,-164,-421,257,292
,334,2023-10-27 12:00:33.27,98,-232,-2077,22,12,8,-232,-486,254,359
,335,2023-10-27 12:00:33.28,95,-232,-2068,10,5,12,-158,-392,234,275
,336,2023-10-27 12:00:33.29,91,-224,-2070,1,-3,18,-226,-458,232,342
,337,2023-10-27 12:00:33.30,87,-233,-2067,-5,-9,24,-152,-367,215,259
,338,2023-10-27 12:00:33.31,77,-229,-2050,-10,-17,25,-216,-434,218,325
,339,2023-10-27 12:00:33.32,77,-227,-2040,-4,-22,27,-148,-347,199,247
,340,2023-10-27 12:00:33.33,88,-221,-2028,2,-18,28,-217,-421,204,319
,341,2023-10-27 12:00:33.34,74,-222,-2030,7,-7,27,-150,-339,189,244
,342,2023-10-27 12:00:33.35,87,-217,-2035,12,-3,23,-221,-412,191,316
,343,2023-10-27 12:00:33.36,66,-223,-2026,15,9,22,-149,-328,179,238
,344,2023-10-27 12:00:33.37,73,-231,-2037,20,15,26,-215,-401,186,308
,345,2023-10-27 12:00:33.38,76,-241,-2032,25,27,31,-144,-318,174,231
,346,2023-10-27 12:00:33.39,67,-235,-2027,31,38,38,-214,-397,183,305
,347,2023-10-27 12:00:33.40,83,-240,-2030,40,39,44,-151,-320,169,235
,348,2023-10-27 12:00:33.41,79,-245,-2027,47,40,47,-228,-398,170,313
,349,2023-10-27 12:00:33.42,90,-232,-2041,52,38,52,-163,-321,158,242
,350,2023-10-27 12:00:33.43,83,-224,-2043,52,41,56,-236,-400,164,318
,351,2023-10-27 12:00:33.44,81,-226,-2059,48,40,60,-166,-318,152,242
,352,2023-10-27 12:00:33.45,92,-233,-2067,39,49,59,-234,-393,159,313
,353,2023-10-27 12:00:33.46,89,-234,-2065,35,49,66,-163,-312,149,237
,354,2023-10-27 12:00:33.47,84,-231,-2071,32,47,69,-229,-384,155,306
,355,2023-10-27 12:00:33.48,100,-217,-2058,29,39,66,-152,-302,150,227
,356,2023-10-27 12:00:33.49,95,-222,-2061,25,28,63,-229,-372,143,300
,357,2023-10-27 12:00:33.50,96,-218,-2067,24,19,65,-154,-287,133,220
,358,2023-10-27 12:00:33.51,97,-220,-2050,23,12,62,-242,-368,126,305
,359,2023-10-27 12:00:33.52,87,-211,-2032,17,12,58,-173,-293,120,233
,360,2023-10-27 12:00:33.53,105,-212,-2033,7,28,60,-265,-391,126,328
,361,2023-10-27 12:00:33.54,106,-208,-2036,4,33,55,-191,-315,124,253
,362,2023-10-27 12:00:33.55,106,-214,-2038,9,25,49,-268,-399,131,333
,363,2023-10-27 12:00:33.56,101,-210,-2018,17,24,43,-180,-307,127,243
,364,2023-10-27 12:00:33.57,119,-195,-2003,21,29,35,-246,-381,135,313
,365,2023-10-27 12:00:33.58,120,-202,-2023,24,36,26,-174,-299,125,236
,366,2023-10-27 12:00:33.59,108,-210,-2052,31,26,24,-260,-383,123,321
,367,2023-10-27 12:00:33.60,104,-211,-2080,31,20,27,-190,-318,128,254
,368,2023-10-27 12:00:33.61,90,-225,-2076,25,21,30,-276,-417,141,346
,369,2023-10-27 12:00:33.62,110,-243,-2079,19,4,37,-204,-338,134,271
,370,2023-10-27 12:00:33.63,113,-245,-2049,28,-13,51,-269,-402,133,335
,371,2023-10-27 12:00:33.64,116,-220,-2032,35,-22,58,-191,-325,134,258
,372,2023-10-27 12:00:33.65,92,-238,-2041,28,-8,66,-270,-413,143,341
,373,2023-10-27 12:00:33.66,97,-254,-2054,42,-10,72,-202,-339,137,270
,374,2023-10-27 12:00:33.67,85,-237,-2063,54,-17,76,-268,-410,142,339
,375,2023-10-27 12:00:33.68,76,-236,-2055,53,-15,81,-177,-319,142,248
,376,2023-10-27 12:00:33.69,63,-242,-2052,51,-3,85,-208,-362,154,285
,377,2023-10-27 12:00:33.70,75,-256,-2059,51,1,85,-137,-287,150,212
,378,2023-10-27 12:00:33.71,74,-254,-2067,63,-9,85,-202,-353,151,277
,379,2023-10-27 12:00:33.72,68,-245,-2058,75,-6,92,-144,-287,143,215
,380,2023-10-27 12:00:33.73,72,-243,-2038,76,-7,82,-213,-360,147,286
,381,2023-10-27 12:00:33.74,90,-234,-2042,71,6,76,-182,-321,139,251
,382,2023-10-27 12:00:33.75,100,-221,-2037,69,17,66,-285,-422,137,353
,383,2023-10-27 12:00:33.76,95,-230,-2039,60,27,53,-235,-368,133,301
,384,2023-10-27 12:00:33.77,84,-239,-2053,52,35,44,-304,-440,136,372
,385,2023-10-27 12:00:33.78,92,-249,-2067,51,24,37,-251,-384,133,317
,386,2023-10-27 12:00:33.79,78,-253,-2067,54,12,38,-342,-472,130,407
,387,2023-10-27 12:00:33.80,99,-247,-2056,50,0,41,-293,-422,129,357
,388,2023-10-27 12:00:33.81,75,-247,-2056,47,-4,39,-372,-503,131,437
,389,2023-10-27 12:00:33.82,89,-264,-2051,46,-17,41,-307,-439,132,373
,390,2023-10-27 12:00:33.83,88,-256,-2045,49,-12,43,-376,-510,134,443
,391,2023-10-27 12:00:33.84,85,-250,-2039,49,-8,45,-305,-441,136,373
,392,2023-10-27 12:00:33.85,93,-250,-2028,47,1,48,-367,-499,132,433
,393,2023-10-27 12:00:33.86,95,-253,-2031,45,13,42,-291,-428,137,359
,394,2023-10-27 12:00:33.87,91,-253,-2031,47,22,45,-344,-480,136,412
,395,2023-10-27 12:00:33.88,80,-259,-2033,45,30,43,-273,-409,136,341
,396,2023-10-27 12:00:33.89,93,-260,-2040,48,33,43,-330,-468,138,399
,397,2023-10-27 12:00:33.90,85,-264,-2048,46,26,44,-276,-407,131,341
,398,2023-10-27 12:00:33.91,106,-270,-2060,47,27,46,-327,-459,132,393
,399,2023-10-27 12:00:33.92,96,-272,-2077,46,30,47,-270,-403,133,336
,400,2023-10-27 12:00:33.93,99,-280,-2080,47,20,49,-328,-460,132,394
,401,2023-10-27 12:00:33.94,93,-296,-2084,54,11,56,-284,-410,126,347
,402,2023-10-27 12:00:33.95,109,-290,-2081,56,3,61,-347,-478,131,412
,403,2023-10-27 12:00:33.96,105,-297,-2076,58,10,69,-308,-435,127,371
,404,2023-10-27 12:00:33.97,98,-292,-2060,58,10,76,-378,-504,126,441
,405,2023-10-27 12:00:33.98,106,-299,-2050,61,17,77,-348,-463,115,405
,406,2023-10-27 12:00:33.99,89,-291,-2038,62,11,87,-427,-543,116,485
,407,2023-10-27 12:00:34.00,98,-278,-2028,56,18,92,-403,-505,102,454
,408,2023-10-27 12:00:34.01,99,-267,-2015,51,6,96,-482,-582,100,532
,409,2023-10-27 12:00:34.02,103,-257,-2006,41,5,97,-445,-536,91,490
,410,2023-10-27 12:00:34.03,102,-251,-2005,33,5,96,-507,-600,93,553
,411,2023-10-27 12:00:34.04,104,-244,-2012,21,10,93,-458,-544,86,501
,412,2023-10-27 12:00:34.05,97,-244,-2006,14,10,90,-505,-596,91,550
,413,2023-10-27 12:00:34.06,104,-258,-2009,17,10,93,-439,-529,90,484
,414,2023-10-27 12:00:34.07,100,-258,-2018,18,1,92,-454,-554,100,504
,415,2023-10-27 12:00:34.08,102,-259,-2009,16,3,97,-381,-482,101,431
,416,2023-10-27 12:00:34.09,95,-273,-2025,19,5,100,-383,-502,119,442
,417,2023-10-27 12:00:34.10,84,-288,-2049,22,0,103,-316,-434,118,375
,418,2023-10-27 12:00:34.11,89,-286,-2039,32,-13,110,-302,-440,138,371
,419,2023-10-27 12:00:34.12,83,-283,-2033,43,-16,113,-224,-365,141,294
,420,2023-10-27 12:00:34.13,92,-291,-2027,48,-1,116,-171,-333,162,252
,421,2023-10-27 12:00:34.14,83,-292,-2022,55,12,118,-65,-242,177,153
,422,2023-10-27 12:00:34.15,96,-282,-2007,62,22,115,16,-187,203,85
,423,2023-10-27 12:00:34.16,74,-281,-2002,74,24,113,72,-133,205,30
,424,2023-10-27 12:00:34.17,86,-260,-2007,80,38,108,105,-114,219,4
,425,2023-10-27 12:00:34.18,93,-254,-1998,71,51,100,116,-91,207,-12
,426,2023-10-27 12:00:34.19,88,-268,-1999,74,45,94,137,-78,215,-29
,427,2023-10-27 12:00:34.20,83,-269,-2019,73,35,88,140,-70,210,-35
,428,2023-10-27 12:00:34.21,94,-253,-2024,71,22,86,157,-61,218,-48
,429,2023-10-27 12:00:34.22,95,-259,-2020,58,12,80,172,-56,228,-58
,430,2023-10-27 12:00:34.23,95,-260,-2022,43,21,75,225,-37,262,-94
,431,2023-10-27 12:00:34.24,109,-257,-2022,37,12,72,234,-39,273,-97
,432,2023-10-27 12:00:34.25,101,-267,-2031,31,16,70,260,-27,287,-116
,433,2023-10-27 12:00:34.26,94,-286,-2051,34,9,65,214,-48,262,-83
,434,2023-10-27 12:00:34.27,101,-278,-2062,38,-2,70,181,-65,246,-58
,435,2023-10-27 12:00:34.28,99,-284,-2064,40,-11,73,133,-98,231,-17
,436,2023-10-27 12:00:34.29,102,-284,-2074,32,-1,78,112,-110,222,-1
,437,2023-10-27 12:00:34.30,98,-311,-2069,28,-1,82,81,-132,213,25
,438,2023-10-27 12:00:34.31,80,-321,-2075,38,-10,94,61,-138,199,38
,439,2023-10-27 12:00:34.32,82,-321,-2071,55,-23,100,43,-152,195,54
,440,2023-10-27 12:00:34.33,91,-315,-2054,60,-13,111,40,-149,189,54
,441,2023-10-27 12:00:34.34,79,-307,-2059,59,-6,115,22,-167,189,72
,442,2023-10-27 12:00:34.35,88,-311,-2055,60,6,119,14,-169,183,77
,443,2023-10-27 12:00:34.36,87,-322,-2051,63,4,120,-20,-196,176,108
,444,2023-10-27 12:00:34.37,86,-306,-2051,76,-19,121,-31,-202,171,116
,445,2023-10-27 12:00:34.38,81,-288,-2047,84,-34,117,-42,-222,180,132
,446,2023-10-27 12:00:34.39,86,-284,-2036,73,-24,113,-7,-207,200,107
,447,2023-10-27 12:00:34.40,89,-279,-2035,59,-15,102,22,-216,238,97
,448,2023-10-27 12:00:34.41,70,-288,-2033,55,-12,94,94,-188,282,47
,449,2023-10-27 12:00:34.42,82,-293,-2026,55,-18,89,100,-197,297,48
,450,2023-10-27 12:00:34.43,75,-292,-2020,50,-16,82,117,-169,286,26
,451,2023-10-27 12:00:34.44,76,-296,-2021,47,-10,79,83,-189,272,53
,452,2023-10-27 12:00:34.45,71,-295,-2008,33,1,75,97,-162,259,32
,453,2023-10-27 12:00:34.46,71,-304,-2004,25,11,75,58,-187,245,64
,454,2023-10-27 12:00:34.47,83,-313,-1982,25,15,73,69,-164,233,47
,455,2023-10-27 12:00:34.48,84,-312,-1990,30,23,74,36,-190,226,77
,456,2023-10-27 12:00:34.49,88,-293,-1997,32,29,74,51,-167,218,58
,457,2023-10-27 12:00:34.50,90,-280,-2012,26,35,68,7,-212,219,102
,458,2023-10-27 12:00:34.51,89,-294,-2030,21,31,63,8,-202,210,97
,459,2023-10-27 12:00:34.52,85,-299,-2046,12,21,62,-61,-259,198,160
,460,2023-10-27 12:00:34.53,65,-313,-2018,10,8,68,-64,-249,185,156
,461,2023-10-27 12:00:34.54,89,-330,-2015,27,-23,70,-113,-297,184,205
,462,2023-10-27 12:00:34.55,97,-338,-2012,59,-44,77,-99,-277,178,188
,463,2023-10-27 12:00:34.56,113,-334,-2007,91,-48,77,-151,-329,178,240
,464,2023-10-27 12:00:34.57,111,-334,-2024,117,-48,73,-138,-309,171,223
,465,2023-10-27 12:00:34.58,118,-353,-2042,131,-34,67,-187,-359,172,273
,466,2023-10-27 12:00:34.59,113,-361,-2051,144,-12,65,-160,-328,168,244
,467,2023-10-27 12:00:34.60,106,-377,-2075,147,7,65,-207,-374,167,290
,468,2023-10-27 12:00:34.61,116,-383,-2108,149,12,67,-185,-344,159,264
,469,2023-10-27 12:00:34.62,94,-369,-2119,138,9,68,-236,-396,160,316
,470,2023-10-27 12:00:34.63,82,-356,-2113,120,-1,72,-206,-359,153,282
,471,2023-10-27 12:00:34.64,85,-355,-2109,94,-6,74,-259,-413,154,336
,472,2023-10-27 12:00:34.65,81,-346,-2106,65,-19,74,-223,-371,148,297
,473,2023-10-27 12:00:34.66,66,-324,-2097,37,-46,72,-276,-423,147,349
,474,2023-10-27 12:00:34.67,60,-318,-2086,8,-74,65,-230,-371,141,300
,475,2023-10-27 12:00:34.68,54,-311,-2073,-23,-88,63,-285,-424,139,354
,476,2023-10-27 12:00:34.69,35,-311,-2038,-57,-85,61,-232,-366,134,299
,477,2023-10-27 12:00:34.70,31,-318,-2018,-82,-87,59,-286,-424,138,355
,478,2023-10-27 12:00:34.71,23,-313,-2004,-102,-66,63,-229,-364,135,296
,479,2023-10-27 12:00:34.72,28,-324,-1983,-103,-66,69,-291,-422,131,356
,480,2023-10-27 12:00:34.73,20,-319,-1963,-89,-69,72,-225,-353,128,289
,481,2023-10-27 12:00:34.74,19,-309,-1963,-72,-73,75,-285,-405,120,345
,482,2023-10-27 12:00:34.75,18,-298,-1969,-68,-48,80,-225,-340,115,282
,483,2023-10-27 12:00:34.76,27,-302,-1967,-60,-40,81,-280,-403,123,341
,484,2023-10-27 12:00:34.77,25,-303,-1983,-45,-30,85,-216,-340,124,278
,485,2023-10-27 12:00:34.78,29,-296,-2006,-25,-22,89,-280,-408,128,344
,486,2023-10-27 12:00:34.79,40,-294,-2015,-13,-8,88,-211,-335,124,273
,487,2023-10-27 12:00:34.80,36,-278,-2030,-11,17,82,-267,-394,127,330
,488,2023-10-27 12:00:34.81,59,-278,-2029,-10,45,75,-198,-323,125,260
,489,2023-10-27 12:00:34.82,52,-274,-2034,-10,68,64,-263,-391,128,327
,490,2023-10-27 12:00:34.83,57,-287,-2047,-2,75,51,-200,-322,122,261
,491,2023-10-27 12:00:34.84,61,-307,-2046,16,73,41,-267,-392,125,329
,492,2023-10-27 12:00:34.85,69,-303,-2052,36,62,30,-205,-324,119,264
,493,2023-10-27 12:00:34.86,70,-313,-2046,52,54,24,-273,-406,133,339
,494,2023-10-27 12:00:34.87,72,-316,-2043,67,42,15,-206,-338,132,272
,495,2023-10-27 12:00:34.88,76,-312,-2022,75,40,9,-264,-405,141,334
,496,2023-10-27 12:00:34.89,85,-320,-2023,76,41,3,-190,-331,141,260
,497,2023-10-27 12:00:34.90,91,-315,-2024,73,40,-2,-240,-393,153,316
,498,2023-10-27 12:00:34.91,80,-317,-2034,66,35,-4,-167,-314,147,240
,499,2023-10-27 12:00:34.92,99,-332,-2039,56,30,-5,-226,-382,156,304
,500,2023-10-27 12:00:34.93,79,-339,-2050,49,20,-2,-160,-306,146,233
,501,2023-10-27 12:00:34.94,79,-337,-2036,37,8,-1,-224,-372,148,298
,502,2023-10-27 12:00:34.95,90,-340,-2044,27,0,3,-157,-300,143,228
,503,2023-10-27 12:00:34.96,87,-335,-2030,20,-2,10,-236,-376,140,306
,504,2023-10-27 12:00:34.97,74,-347,-2021,13,5,15,-173,-307,134,240
,505,2023-10-27 12:00:34.98,97,-337,-2029,8,9,19,-248,-377,129,312
,506,2023-10-27 12:00:34.99,81,-336,-2040,6,12,20,-178,-302,124,240
,507,2023-10-27 12:00:35.00,70,-347,-2054,7,1,25,-247,-381,134,314
,508,2023-10-27 12:00:35.01,63,-351,-2060,15,-8,31,-171,-304,133,237
,509,2023-10-27 12:00:35.02,74,-351,-2043,21,-11,36,-236,-373,137,304
,510,2023-10-27 12:00:35.03,79,-335,-2036,26,-13,40,-161,-296,135,228
,511,2023-10-27 12:00:35.04,68,-336,-2029,30,-6,42,-231,-372,141,301
,512,2023-10-27 12:00:35.05,71,-327,-2039,30,0,37,-156,-297,141,226
,513,2023-10-27 12:00:35.06,77,-332,-2046,33,-2,34,-226,-375,149,300
,514,2023-10-27 12:00:35.07,71,-333,-2039,42,-3,34,-149,-294,145,221
,515,2023-10-27 12:00:35.08,69,-337,-2039,48,-21,28,-215,-358,143,286
,516,2023-10-27 12:00:35.09,61,-335,-2041,58,-27,23,-135,-277,142,206
,517,2023-10-27 12:00:35.10,66,-338,-2029,61,-33,23,-205,-347,142,276
,518,2023-10-27 12:00:35.11,57,-338,-2032,58,-34,18,-130,-275,145,202
,519,2023-10-27 12:00:35.12,58,-342,-2030,46,-25,17,-211,-354,143,282
,520,2023-10-27 12:00:35.13,44,-345,-2029,38,-27,10,-150,-290,140,220
,521,2023-10-27 12:00:35.14,67,-353,-2023,34,-27,8,-228,-371,143,299
,522,2023-10-27 12:00:35.15,63,-339,-2021,31,-33,7,-153,-295,142,224
,523,2023-10-27 12:00:35.16,54,-341,-2008,25,-29,5,-238,-372,134,305
,524,2023-10-27 12:00:35.17,43,-346,-2014,19,-22,-1,-159,-295,136,227
,525,2023-10-27 12:00:35.18,46,-343,-2018,15,-21,-4,-242,-379,137,310
,526,2023-10-27 12:00:35.19,58,-344,-2029,11,-13,-3,-165,-300,135,232
,527,2023-10-27 12:00:35.20,50,-347,-2020,7,-6,-6,-238,-373,135,305
,528,2023-10-27 12:00:35.21,56,-329,-2035,2,-4,-6,-153,-287,134,220
,529,2023-10-27 12:00:35.22,44,-341,-2028,3,-9,-8,-227,-366,139,296
,530,2023-10-27 12:00:35.23,37,-333,-2039,5,-9,-8,-150,-289,139,219
,531,2023-10-27 12:00:35.24,47,-331,-2046,-4,-8,-12,-236,-374,138,305
,532,2023-10-27 12:00:35.25,30,-327,-2033,-15,8,-11,-160,-293,133,226
,533,2023-10-27 12:00:35.26,30,-340,-2026,-18,4,-14,-235,-369,134,302
,534,2023-10-27 12:00:35.27,41,-342,-2030,-12,-7,-7,-155,-286,131,220
,535,2023-10-27 12:00:35.28,35,-332,-2020,-8,9,-2,-234,-372,138,303
,536,2023-10-27 12:00:35.29,39,-334,-2001,-14,19,0,-158,-291,133,224
,537,2023-10-27 12:00:35.30,49,-332,-1989,-19,31,0,-233,-374,141,303
,538,2023-10-27 12:00:35.31,55,-327,-2003,-9,27,0,-162,-295,133,228
,539,2023-10-27 12:00:35.32,57,-315,-2009,-2,28,-2,-242,-382,140,312
,540,2023-10-27 12:00:35.33,56,-311,-2013,-8,47,-7,-172,-304,132,238
,541,2023-10-27 12:00:35.34,66,-314,-2027,-16,66,-15,-253,-382,129,317
,542,2023-10-27 12:00:35.35,76,-310,-2033,-22,76,-25,-183,-307,124,245
,543,2023-10-27 12:00:35.36,70,-325,-2047,-15,77,-26,-262,-390,128,326
,544,2023-10-27 12:00:35.37,73,-320,-2049,-10,69,-35,-189,-316,127,252
,545,2023-10-27 12:00:35.38,83,-313,-2051,-6,64,-41,-264,-392,128,328
,546,2023-10-27 12:00:35.39,98,-315,-2049,-2,56,-46,-188,-316,128,252
,547,2023-10-27 12:00:35.40,94,-319,-2048,0,50,-52,-260,-392,132,326
,548,2023-10-27 12:00:35.41,84,-324,-2047,0,45,-57,-182,-316,134,249
,549,2023-10-27 12:00:35.42,82,-321,-2034,3,44,-59,-255,-388,133,321
,550,2023-10-27 12:00:35.43,95,-330,-2041,6,40,-61,-175,-312,137,243
,551,2023-10-27 12:00:35.44,102,-335,-2035,13,35,-59,-244,-378,134,311
,552,2023-10-27 12:00:35.45,97,-345,-2032,14,30,-55,-170,-307,137,238
,553,2023-10-27 12:00:35.46,93,-355,-2032,23,17,-49,-242,-379,137,310
,554,2023-10-27 12:00:35.47,81,-359,-2030,27,13,-38,-170,-309,139,239
,555,2023-10-27 12:00:35.48,87,-353,-2045,22,16,-28,-243,-387,144,315
,556,2023-10-27 12:00:35.49,81,-353,-2037,19,11,-19,-171,-318,147,244
,557,2023-10-27 12:00:35.50,86,-348,-2029,19,7,-10,-241,-391,150,316
,558,2023-10-27 12:00:35.51,80,-345,-2037,13,5,-4,-172,-320,148,246
,559,2023-10-27 12:00:35.52,76,-350,-2046,10,-1,3,-246,-388,142,317
,560,2023-10-27 12:00:35.53,59,-343,-2039,10,-6,10,-176,-316,140,246
,561,2023-10-27 12:00:35.54,70,-346,-2030,14,-1,19,-251,-391,140,321
,562,2023-10-27 12:00:35.55,71,-347,-2037,14,-6,18,-173,-315,142,244
,563,2023-10-27 12:00:35.56,76,-337,-2030,17,-6,22,-244,-386,142,315
,564,2023-10-27 12:00:35.57,83,-340,-2031,21,-8,25,-174,-315,141,244
,565,2023-10-27 12:00:35.58,77,-342,-2030,22,-3,28,-248,-386,138,317
,566,2023-10-27 12:00:35.59,72,-337,-2031,27,-3,26,-185,-322,137,253
,567,2023-10-27 12:00:35.60,75,-338,-2031,24,-1,24,-250,-389,139,319
,568,2023-10-27 12:00:35.61,68,-337,-2028,24,-7,18,-179,-317,138,248
,569,2023-10-27 12:00:35.62,70,-335,-2037,20,-6,19,-238,-375,137,306
,570,2023-10-27 12:00:35.63,75,-333,-2034,18,-8,17,-174,-309,135,241
,571,2023-10-27 12:00:35.64,73,-333,-2027,10,2,10,-230,-368,138,299
,572,2023-10-27 12:00:35.65,69,-326,-2022,6,0,3,-174,-310,136,242
,573,2023-10-27 12:00:35.66,75,-330,-2020,2,1,-4,-237,-373,136,305
,574,2023-10-27 12:00:35.67,57,-324,-2027,2,4,-11,-183,-318,135,250
,575,2023-10-27 12:00:35.68,75,-324,-2026,2,4,-19,-235,-377,142,306
,576,2023-10-27 12:00:35.69,78,-321,-2026,5,0,-24,-178,-319,141,248
,577,2023-10-27 12:00:35.70,69,-323,-2022,10,-5,-31,-223,-373,150,298
,578,2023-10-27 12:00:35.71,60,-326,-2036,18,-7,-36,-172,-319,147,245
,579,2023-10-27 12:00:35.72,82,-329,-2024,19,-10,-36,-219,-371,152,295
,580,2023-10-27 12:00:35.73,70,-335,-2024,23,-11,-36,-177,-326,149,251
,581,2023-10-27 12:00:35.74,87,-340,-2026,26,-13,-36,-232,-385,153,308
,582,2023-10-27 12:00:35.75,74,-337,-2032,22,-1,-28,-196,-345,149,270
,583,2023-10-27 12:00:35.76,82,-334,-2036,21,11,-24,-250,-399,149,324
,584,2023-10-27 12:00:35.77,79,-347,-2033,13,28,-17,-206,-355,149,280
,585,2023-10-27 12:00:35.78,75,-358,-2039,19,22,-15,-250,-401,151,325
,586,2023-10-27 12:00:35.79,73,-350,-2040,33,11,-6,-204,-355,151,279
,587,2023-10-27 12:00:35.80,79,-342,-2036,38,10,0,-250,-399,149,324
,588,2023-10-27 12:00:35.81,84,-331,-2037,32,13,2,-212,-361,149,286
,589,2023-10-27 12:00:35.82,75,-327,-2035,22,30,2,-255,-399,144,327
,590,2023-10-27 12:00:35.83,86,-345,-2035,21,29,5,-217,-361,144,289
,591,2023-10-27 12:00:35.84,81,-344,-2028,26,15,1,-254,-396,142,325
,592,2023-10-27 12:00:35.85,87,-331,-2026,29,13,4,-210,-356,146,283
,593,2023-10-27 12:00:35.86,78,-346,-2026,26,15,1,-240,-383,143,311
,594,2023-10-27 12:00:35.87,85,-333,-2027,18,18,-1,-195,-345,150,270
,595,2023-10-27 12:00:35.88,84,-338,-2022,13,17,0,-227,-371,144,299
,596,2023-10-27 12:00:35.89,90,-340,-2018,9,19,-1,-188,-337,149,262
,597,2023-10-27 12:00:35.90,87,-340,-2018,6,20,-3,-217,-361,144,289
,598,2023-10-27 12:00:35.91,87,-332,-2027,1,19,-3,-184,-329,145,256
,599,2023-10-27 12:00:35.92,93,-338,-2039,1,24,-4,-207,-350,143,278
,600,2023-10-27 12:00:35.93,84,-321,-2029,-4,16,-7,-181,-323,142,252
,601,2023-10-27 12:00:35.94,87,-333,-2024,-4,18,-10,-208,-346,138,277
,602,2023-10-27 12:00:35.95,91,-326,-2024,-4,21,-13,-183,-323,140,253
,603,2023-10-27 12:00:35.96,92,-329,-2018,1,25,-12,-188,-328,140,258
,604,2023-10-27 12:00:35.97,84,-335,-2014,4,30,-18,-154,-299,145,226
,605,2023-10-27 12:00:35.98,82,-327,-2020,9,34,-19,-137,-288,151,212
,606,2023-10-27 12:00:35.99,87,-317,-2013,10,44,-23,-78,-232,154,155
,607,2023-10-27 12:00:36.00,99,-333,-2012,15,47,-25,-79,-226,147,152
,608,2023-10-27 12:00:36.01,93,-327,-2017,17,51,-28,-77,-220,143,148
,609,2023-10-27 12:00:36.02,99,-327,-2031,21,43,-31,-93,-236,143,164
,610,2023-10-27 12:00:36.03,105,-332,-2034,25,31,-32,-94,-239,145,166
,611,2023-10-27 12:00:36.04,103,-329,-2039,25,23,-33,-116,-259,143,187
,612,2023-10-27 12:00:36.05,98,-335,-2048,25,13,-36,-127,-270,143,198
,613,2023-10-27 12:00:36.06,99,-337,-2049,23,3,-37,-156,-296,140,226
,614,2023-10-27 12:00:36.07,103,-346,-2035,25,2,-32,-172,-312,140,242
,615,2023-10-27 12:00:36.08,97,-348,-2016,28,0,-29,-195,-335,140,265
,616,2023-10-27 12:00:36.09,102,-353,-2013,36,-5,-26,-203,-344,141,273
,617,2023-10-27 12:00:36.10,90,-359,-2016,52,-15,-21,-217,-354,137,285
,618,2023-10-27 12:00:36.11,100,-358,-2019,66,-24,-16,-219,-353,134,286
,619,2023-10-27 12:00:36.12,98,-362,-2032,74,-24,-12,-225,-351,126,288
,620,2023-10-27 12:00:36.13,92,-368,-2045,76,-27,-7,-210,-345,135,277
,621,2023-10-27 12:00:36.14,94,-365,-2050,70,-28,-6,-199,-327,128,263
,622,2023-10-27 12:00:36.15,81,-370,-2051,65,-33,-4,-182,-323,141,252
,623,2023-10-27 12:00:36.16,89,-373,-2059,63,-32,0,-163,-302,139,232
,624,2023-10-27 12:00:36.17,84,-383,-2053,58,-30,1,-152,-301,149,226
,625,2023-10-27 12:00:36.18,78,-386,-2048,52,-24,7,-138,-282,144,210
,626,2023-10-27 12:00:36.19,76,-388,-2036,45,-17,7,-138,-291,153,214
,627,2023-10-27 12:00:36.20,62,-389,-2029,42,-3,12,-128,-274,146,201
,628,2023-10-27 12:00:36.21,69,-388,-2014,42,-2,10,-134,-289,155,211
,629,2023-10-27 12:00:36.22,74,-373,-2009,46,6,13,-126,-270,144,198
,630,2023-10-27 12:00:36.23,83,-367,-2005,43,16,8,-105,-283,178,194
,631,2023-10-27 12:00:36.24,78,-361,-2010,28,34,2,-40,-252,212,146
,632,2023-10-27 12:00:36.25,80,-365,-2004,21,38,-1,-11,-258,247,134
,633,2023-10-27 12:00:36.26,86,-377,-2027,24,25,-2,3,-239,242,118
,634,2023-10-27 12:00:36.27,74,-366,-2031,29,15,-1,-62,-285,223,173
,635,2023-10-27 12:00:36.28,75,-351,-2026,24,7,-3,-88,-287,199,187
,636,2023-10-27 12:00:36.29,77,-358,-2019,16,9,-10,-132,-326,194,229
,637,2023-10-27 12:00:36.30,87,-356,-2028,7,12,-13,-126,-310,184,218
,638,2023-10-27 12:00:36.31,98,-352,-2035,10,10,-14,-159,-340,181,249
,639,2023-10-27 12:00:36.32,90,-359,-2035,8,3,-19,-146,-317,171,231
,640,2023-10-27 12:00:36.33,96,-358,-2035,5,8,-17,-175,-347,172,261
,641,2023-10-27 12:00:36.34,92,-362,-2030,0,12,-20,-163,-327,164,245
,642,2023-10-27 12:00:36.35,98,-379,-2039,3,9,-16,-197,-359,162,278
,643,2023-10-27 12:00:36.36,106,-370,-2043,10,5,-16,-179,-336,157,257
,644,2023-10-27 12:00:36.37,108,-366,-2050,11,4,-9,-193,-353,160,273
,645,2023-10-27 12:00:36.38,97,-365,-2042,2,10,-4,-151,-306,155,228
,646,2023-10-27 12:00:36.39,111,-371,-2033,2,12,-2,-116,-316,200,216
,647,2023-10-27 12:00:36.40,100,-372,-2030,2,17,6,7,-257,264,125
,648,2023-10-27 12:00:36.41,103,-370,-2032,-1,17,9,38,-284,322,123
,649,2023-10-27 12:00:36.42,115,-369,-2030,2,14,12,80,-250,330,85
,650,2023-10-27 12:00:36.43,111,-364,-2024,0,17,15,26,-304,330,139
,651,2023-10-27 12:00:36.44,98,-367,-2031,3,11,18,38,-266,304,114
,652,2023-10-27 12:00:36.45,101,-365,-2035,-1,20,19,-20,-315,295,167
,653,2023-10-27 12:00:36.46,108,-363,-2026,-1,10,21,3,-270,273,133
,654,2023-10-27 12:00:36.47,97,-364,-2023,5,-2,21,-51,-323,272,187
,655,2023-10-27 12:00:36.48,99,-348,-2034,6,-7,22,-24,-274,250,149
,656,2023-10-27 12:00:36.49,92,-352,-2041,0,-7,24,-78,-324,246,201
,657,2023-10-27 12:00:36.50,92,-352,-2026,-11,-1,24,-48,-274,226,161
,658,2023-10-27 12:00:36.51,88,-346,-2017,-9,-7,24,-106,-329,223,217
,659,2023-10-27 12:00:36.52,86,-357,-2016,-2,-10,23,-77,-280,203,178
,660,2023-10-27 12:00:36.53,77,-351,-2018,2,-10,26,-136,-336,200,236
,661,2023-10-27 12:00:36.54,86,-361,-2032,2,3,25,-99,-288,189,193
,662,2023-10-27 12:00:36.55,90,-365,-2032,-2,17,24,-154,-345,191,249
,663,2023-10-27 12:00:36.56,98,-358,-2031,1,18,26,-110,-291,181,200
,664,2023-10-27 12:00:36.57,92,-362,-2032,8,13,27,-167,-348,181,257
,665,2023-10-27 12:00:36.58,93,-352,-2030,18,17,30,-122,-290,168,206
,666,2023-10-27 12:00:36.59,101,-354,-2041,19,24,29,-177,-346,169,261
,667,2023-10-27 12:00:36.60,93,-350,-2038,13,22,27,-125,-286,161,205
,668,2023-10-27 12:00:36.61,96,-350,-2039,4,19,27,-184,-341,157,262
,669,2023-10-27 12:00:36.62,91,-345,-2039,0,16,32,-132,-284,152,208
,670,2023-10-27 12:00:36.63,106,-353,-2028,-2,11,32,-204,-352,148,278
,671,2023-10-27 12:00:36.64,112,-360,-2009,1,-5,29,-154,-296,142,225
,672,2023-10-27 12:00:36.65,118,-347,-2014,11,-6,24,-216,-362,146,289
,673,2023-10-27 12:00:36.66,116,-348,-2011,14,14,20,-152,-294,142,223
,674,2023-10-27 12:00:36.67,114,-361,-2012,14,37,15,-218,-366,148,292
,675,2023-10-27 12:00:36.68,119,-381,-1996,22,42,8,-153,-298,145,225
,676,2023-10-27 12:00:36.69,117,-401,-2008,45,46,9,-219,-368,149,293
,677,2023-10-27 12:00:36.70,114,-395,-2008,67,54,15,-154,-295,141,224
,678,2023-10-27 12:00:36.71,124,-391,-2011,80,56,17,-226,-369,143,297
,679,2023-10-27 12:00:36.72,119,-392,-2021,79,66,14,-163,-297,134,230
,680,2023-10-27 12:00:36.73,91,-397,-2041,82,64,21,-232,-376,144,304
,681,2023-10-27 12:00:36.74,111,-392,-2059,81,42,24,-153,-297,144,225
,682,2023-10-27 12:00:36.75,102,-366,-2071,61,51,24,-233,-371,138,302
,683,2023-10-27 12:00:36.76,105,-362,-2084,26,52,23,-162,-292,130,227
,684,2023-10-27 12:00:36.77,95,-361,-2082,-4,38,21,-246,-381,135,313
,685,2023-10-27 12:00:36.78,83,-356,-2057,-24,20,17,-163,-294,131,228
,686,2023-10-27 12:00:36.79,90,-342,-2061,-37,7,17,-230,-370,140,300
,687,2023-10-27 12:00:36.80,88,-343,-2046,-48,-5,11,-158,-293,135,225
,688,2023-10-27 12:00:36.81,75,-344,-2038,-49,-20,5,-220,-374,154,297
,689,2023-10-27 12:00:36.82,80,-341,-2033,-44,-25,2,-146,-292,146,219
,690,2023-10-27 12:00:36.83,91,-340,-2038,-43,-26,-2,-217,-365,148,291
,691,2023-10-27 12:00:36.84,67,-340,-2036,-34,-33,-3,-148,-282,134,215
,692,2023-10-27 12:00:36.85,70,-338,-2025,-12,-38,-5,-224,-365,141,294
,693,2023-10-27 12:00:36.86,74,-334,-2027,2,-36,-7,-151,-286,135,218
,694,2023-10-27 12:00:36.87,87,-324,-2028,15,-22,-8,-228,-367,139,297
,695,2023-10-27 12:00:36.88,102,-327,-2015,13,14,-8,-154,-287,133,220
,696,2023-10-27 12:00:36.89,114,-339,-1984,23,28,-16,-213,-358,145,285
,697,2023-10-27 12:00:36.90,119,-342,-1986,44,55,-18,-133,-274,141,203
,698,2023-10-27 12:00:36.91,124,-353,-1968,73,86,-19,-202,-348,146,275
,699,2023-10-27 12:00:36.92,124,-390,-1969,113,105,-19,-134,-273,139,203
,700,2023-10-27 12:00:36.93,128,-387,-2000,142,122,-16,-214,-354,140,284
,701,2023-10-27 12:00:36.94,129,-409,-2014,165,114,-10,-146,-280,134,213
,702,2023-10-27 12:00:36.95,116,-423,-2018,187,124,3,-217,-359,142,288
,703,2023-10-27 12:00:36.96,119,-429,-2023,202,114,11,-140,-274,134,207
,704,2023-10-27 12:00:36.97,117,-408,-2024,199,94,19,-198,-339,141,268
,705,2023-10-27 12:00:36.98,140,-401,-1984,193,70,25,-118,-257,139,187
,706,2023-10-27 12:00:36.99,138,-367,-1981,184,56,20,-180,-332,152,256
,707,2023-10-27 12:00:37.00,167,-350,-1959,160,37,6,-110,-258,148,184
,708,2023-10-27 12:00:37.01,165,-340,-1960,129,61,-7,-192,-340,148,266
,709,2023-10-27 12:00:37.02,164,-329,-1972,101,75,-35,-132,-275,143,203
,710,2023-10-27 12:00:37.03,175,-332,-1997,69,81,-60,-226,-375,149,300
,711,2023-10-27 12:00:37.04,148,-322,-2029,26,95,-78,-164,-312,148,238
,712,2023-10-27 12:00:37.05,167,-360,-2031,4,71,-94,-254,-416,162,335
,713,2023-10-27 12:00:37.06,157,-352,-2037,-5,56,-103,-186,-356,170,271
,714,2023-10-27 12:00:37.07,157,-346,-2045,-9,34,-109,-273,-456,183,364
,715,2023-10-27 12:00:37.08,145,-360,-2061,-16,17,-113,-190,-378,188,284
,716,2023-10-27 12:00:37.09,138,-367,-2075,-21,3,-103,-248,-444,196,346
,717,2023-10-27 12:00:37.10,121,-378,-2115,-41,-4,-92,-160,-352,192,256
,718,2023-10-27 12:00:37.11,97,-362,-2135,-67,-17,-81,-236,-428,192,332
,719,2023-10-27 12:00:37.12,86,-346,-2147,-88,-50,-60,-170,-350,180,260
,720,2023-10-27 12:00:37.13,86,-335,-2148,-100,-101,-39,-264,-447,183,355
,721,2023-10-27 12:00:37.14,83,-323,-2153,-118,-139,-18,-197,-371,174,284
,722,2023-10-27 12:00:37.15,49,-332,-2164,-144,-141,7,-274,-449,175,361
,723,2023-10-27 12:00:37.16,33,-346,-2131,-155,-174,33,-204,-369,165,286
,724,2023-10-27 12:00:37.17,42,-366,-2106,-148,-185,69,-283,-447,164,365
,725,2023-10-27 12:00:37.18,22,-365,-2057,-127,-190,100,-213,-369,156,291
,726,2023-10-27 12:00:37.19,30,-361,-2020,-96,-189,130,-274,-432,158,353
,727,2023-10-27 12:00:37.20,46,-357,-1984,-75,-163,149,-193,-340,147,266
,728,2023-10-27 12:00:37.21,68,-348,-1933,-41,-133,163,-257,-403,146,330
,729,2023-10-27 12:00:37.22,59,-328,-1888,-6,-99,163,-169,-311,142,240
,730,2023-10-27 12:00:37.23,81,-317,-1861,26,-48,157,-220,-372,152,296
,731,2023-10-27 12:00:37.24,90,-327,-1860,62,-13,143,-136,-283,147,209
,732,2023-10-27 12:00:37.25,109,-318,-1884,90,25,124,-179,-331,152,255
,733,2023-10-27 12:00:37.26,117,-322,-1921,94,79,106,-98,-242,144,170
,734,2023-10-27 12:00:37.27,112,-361,-1948,87,113,85,-126,-273,147,199
,735,2023-10-27 12:00:37.28,113,-385,-1975,90,129,72,-55,-200,145,127
,736,2023-10-27 12:00:37.29,118,-409,-1995,100,115,61,-92,-251,159,171
,737,2023-10-27 12:00:37.30,118,-448,-2019,121,89,59,-46,-195,149,120
,738,2023-10-27 12:00:37.31,112,-447,-2039,125,66,57,-124,-275,151,199
,739,2023-10-27 12:00:37.32,120,-451,-2044,128,41,56,-86,-232,146,159
,740,2023-10-27 12:00:37.33,125,-450,-2047,125,16,56,-148,-300,152,224
,741,2023-10-27 12:00:37.34,131,-434,-2060,111,3,52,-89,-239,150,164
,742,2023-10-27 12:00:37.35,135,-422,-2058,88,-2,40,-131,-291,160,211
,743,2023-10-27 12:00:37.36,137,-436,-2041,71,5,36,-70,-226,156,148
,744,2023-10-27 12:00:37.37,139,-445,-2022,58,23,26,-118,-281,163,199
,745,2023-10-27 12:00:37.38,152,-453,-2004,56,40,18,-84,-245,161,164
,746,2023-10-27 12:00:37.39,148,-464,-2001,53,68,12,-186,-341,155,263
,747,2023-10-27 12:00:37.40,141,-460,-1992,52,95,5,-163,-314,151,238
,748,2023-10-27 12:00:37.41,140,-462,-1991,51,114,3,-255,-396,141,325
,749,2023-10-27 12:00:37.42,146,-470,-1996,52,126,4,-202,-339,137,270
,750,2023-10-27 12:00:37.43,144,-469,-2005,57,123,7,-268,-397,129,332
,751,2023-10-27 12:00:37.44,139,-476,-2009,57,116,8,-207,-329,122,268
,752,2023-10-27 12:00:37.45,147,-478,-2019,54,112,20,-263,-381,118,322
,753,2023-10-27 12:00:37.46,147,-473,-2030,43,98,25,-198,-307,109,252
,754,2023-10-27 12:00:37.47,141,-464,-2058,34,78,34,-254,-355,101,304
,755,2023-10-27 12:00:37.48,140,-450,-2054,24,60,44,-187,-280,93,233
,756,2023-10-27 12:00:37.49,136,-439,-2061,10,35,51,-230,-319,89,274
,757,2023-10-27 12:00:37.50,136,-434,-2057,-1,13,58,-169,-263,94,216
,758,2023-10-27 12:00:37.51,133,-420,-2050,-8,-10,59,-220,-324,104,272
,759,2023-10-27 12:00:37.52,139,-414,-2034,-13,-33,56,-165,-270,105,217
,760,2023-10-27 12:00:37.53,143,-407,-2024,-18,-41,56,-207,-316,109,261
,761,2023-10-27 12:00:37.54,141,-398,-2021,-22,-41,50,-163,-258,95,210
