// Data mode  : Full
// Data quality  : High
// Acceleration sensor's range  : 16g
// Gyroscope sensor's range  : 2000dps
//
//ARTIFACT,NUM,DATE,ACC_X,ACC_Y,ACC_Z,GYRO_X,GYRO_Y,GYRO_Z,EOG_L,EOG_R,EOG_H,EOG_V
,1,2023-10-27 12:21:58.78,68,-119,-2046,5,-41,16,-552,-77,-475,314
,2,2023-10-27 12:21:58.79,78,-113,-2042,4,-35,23,-618,27,-645,295
,3,2023-10-27 12:21:58.80,80,-112,-2047,7,-37,20,-628,-97,-531,362
,4,2023-10-27 12:21:58.81,85,-117,-2045,13,-39,22,-684,31,-715,326
,5,2023-10-27 12:21:58.82,76,-121,-2043,18,-41,24,-648,-69,-579,358
,6,2023-10-27 12:21:58.83,72,-123,-2052,18,-44,26,-713,49,-762,332
,7,2023-10-27 12:21:58.84,57,-116,-2046,23,-47,32,-667,-68,-599,367
,8,2023-10-27 12:21:58.85,80,-124,-2042,28,-39,40,-678,55,-733,311
,9,2023-10-27 12:21:58.86,65,-117,-2046,30,-36,43,-610,-58,-552,334
,10,2023-10-27 12:21:58.87,80,-124,-2044,33,-28,49,-657,68,-725,294
,11,2023-10-27 12:21:58.88,68,-116,-2049,32,-20,50,-610,-50,-560,330
,12,2023-10-27 12:21:58.89,71,-124,-2042,29,-21,51,-635,75,-710,280
,13,2023-10-27 12:21:58.90,81,-121,-2047,27,-9,54,-585,-44,-541,314
,14,2023-10-27 12:21:58.91,81,-123,-2046,26,-1,55,-707,58,-765,324
,15,2023-10-27 12:21:58.92,84,-116,-2048,28,3,61,-655,-45,-610,350
,16,2023-10-27 12:21:58.93,77,-118,-2051,25,5,61,-733,81,-814,326
,17,2023-10-27 12:21:58.94,86,-120,-2053,23,1,63,-650,-37,-613,343
,18,2023-10-27 12:21:58.95,79,-113,-2062,24,2,58,-700,75,-775,312
,19,2023-10-27 12:21:58.96,81,-106,-2061,24,1,60,-606,-44,-562,325
,20,2023-10-27 12:21:58.97,85,-112,-2071,26,11,65,-600,72,-672,264
,21,2023-10-27 12:21:58.98,74,-114,-2058,28,-4,62,-513,-37,-476,275
,22,2023-10-27 12:21:58.99,76,-118,-2062,32,-11,64,-573,67,-640,253
,23,2023-10-27 12:21:59.00,72,-114,-2055,34,-20,63,-510,-44,-466,277
,24,2023-10-27 12:21:59.01,81,-127,-2059,44,-21,67,-543,61,-604,241
,25,2023-10-27 12:21:59.02,69,-132,-2051,47,-27,68,-484,-51,-433,267
,26,2023-10-27 12:21:59.03,73,-129,-2041,50,-40,67,-591,48,-639,271
,27,2023-10-27 12:21:59.04,68,-128,-2044,55,-37,72,-544,-54,-490,299
,28,2023-10-27 12:21:59.05,64,-133,-2045,49,-26,77,-641,27,-668,307
,29,2023-10-27 12:21:59.06,75,-127,-2034,46,-22,83,-556,-74,-482,315
,30,2023-10-27 12:21:59.07,70,-147,-2045,45,-18,85,-659,8,-667,325
,31,2023-10-27 12:21:59.08,59,-140,-2049,48,-18,87,-576,-80,-496,328
,32,2023-10-27 12:21:59.09,86,-136,-2044,48,-25,89,-669,1,-670,334
,33,2023-10-27 12:21:59.10,69,-134,-2052,45,-8,90,-562,-79,-483,320
,34,2023-10-27 12:21:59.11,70,-125,-2057,40,-12,86,-626,8,-634,309
,35,2023-10-27 12:21:59.12,70,-118,-2039,37,-2,78,-527,-69,-458,298
,36,2023-10-27 12:21:59.13,83,-120,-2060,37,2,75,-632,13,-645,309
,37,2023-10-27 12:21:59.14,67,-117,-2047,32,6,78,-545,-60,-485,302
,38,2023-10-27 12:21:59.15,86,-123,-2046,20,2,74,-681,35,-716,323
,39,2023-10-27 12:21:59.16,83,-119,-2061,7,-4,68,-577,-41,-536,309
,40,2023-10-27 12:21:59.17,73,-115,-2065,-5,-2,63,-654,20,-674,317
,41,2023-10-27 12:21:59.18,69,-115,-2071,-12,-2,62,-510,-55,-455,282
,42,2023-10-27 12:21:59.19,78,-111,-2063,-15,-4,58,-550,24,-574,263
,43,2023-10-27 12:21:59.20,78,-122,-2057,-21,5,55,-470,-47,-423,258
,44,2023-10-27 12:21:59.21,73,-115,-2065,-24,-11,54,-637,11,-648,313
,45,2023-10-27 12:21:59.22,64,-124,-2072,-24,-16,52,-550,-45,-505,297
,46,2023-10-27 12:21:59.23,64,-119,-2066,-25,-25,48,-656,26,-682,315
,47,2023-10-27 12:21:59.24,62,-130,-2079,-25,-18,51,-516,-37,-479,276
,48,2023-10-27 12:21:59.25,47,-117,-2061,-28,-30,49,-611,24,-635,293
,49,2023-10-27 12:21:59.26,50,-113,-2065,-25,-32,49,-502,-38,-464,270
,50,2023-10-27 12:21:59.27,45,-112,-2059,-24,-50,44,-632,1,-633,315
,51,2023-10-27 12:21:59.28,60,-123,-2055,-23,-50,40,-496,-41,-455,268
,52,2023-10-27 12:21:59.29,45,-124,-2048,-19,-46,42,-577,19,-596,279
,53,2023-10-27 12:21:59.30,51,-123,-2035,-16,-39,45,-481,-35,-446,258
,54,2023-10-27 12:21:59.31,40,-126,-2042,-13,-27,46,-679,-40,-639,359
,55,2023-10-27 12:21:59.32,53,-132,-2042,-11,-33,44,-582,-75,-507,328
,56,2023-10-27 12:21:59.33,39,-129,-2045,-8,-37,41,-726,-6,-720,366
,57,2023-10-27 12:21:59.34,24,-139,-2048,-6,-24,36,-574,-24,-550,299
,58,2023-10-27 12:21:59.35,23,-144,-2058,0,-18,39,-692,-8,-684,350
,59,2023-10-27 12:21:59.36,16,-134,-2054,-3,-23,37,-571,-51,-520,311
,60,2023-10-27 12:21:59.37,30,-130,-2050,5,-9,40,-724,-26,-698,375
,61,2023-10-27 12:21:59.38,18,-131,-2048,4,-14,33,-573,-37,-536,305
,62,2023-10-27 12:21:59.39,34,-125,-2061,-2,-9,35,-674,-1,-673,337
,63,2023-10-27 12:21:59.40,7,-140,-2042,-4,3,38,-497,-15,-482,256
,64,2023-10-27 12:21:59.41,15,-124,-2032,-5,6,40,-602,-2,-600,302
,65,2023-10-27 12:21:59.42,30,-137,-2027,-6,12,39,-481,-30,-451,255
,66,2023-10-27 12:21:59.43,26,-132,-2034,-3,16,39,-642,-20,-622,331
,67,2023-10-27 12:21:59.44,25,-133,-2041,-1,19,31,-526,-31,-495,278
,68,2023-10-27 12:21:59.45,17,-142,-2037,3,25,36,-677,-20,-657,348
,69,2023-10-27 12:21:59.46,29,-140,-2038,6,30,33,-566,-17,-549,291
,70,2023-10-27 12:21:59.47,44,-131,-2035,7,48,40,-742,0,-742,371
,71,2023-10-27 12:21:59.48,48,-128,-2034,5,51,37,-598,3,-601,297
,72,2023-10-27 12:21:59.49,32,-129,-2044,2,60,39,-722,9,-731,356
,73,2023-10-27 12:21:59.50,39,-122,-2061,-4,62,32,-516,9,-525,253
,74,2023-10-27 12:21:59.51,43,-117,-2061,-11,76,35,-571,12,-583,279
,75,2023-10-27 12:21:59.52,37,-120,-2047,-16,76,31,-438,24,-462,207
,76,2023-10-27 12:21:59.53,61,-113,-2051,-16,72,34,-621,20,-641,300
,77,2023-10-27 12:21:59.54,51,-109,-2047,-20,77,29,-476,24,-500,226
,78,2023-10-27 12:21:59.55,46,-110,-2039,-29,78,26,-587,8,-595,289
,79,2023-10-27 12:21:59.56,64,-109,-2056,-30,90,22,-455,11,-466,222
,80,2023-10-27 12:21:59.57,69,-101,-2051,-30,101,28,-614,-10,-604,312
,81,2023-10-27 12:21:59.58,69,-114,-2043,-30,105,23,-481,17,-498,232
,82,2023-10-27 12:21:59.59,66,-105,-2058,-27,106,23,-618,4,-622,307
,83,2023-10-27 12:21:59.60,74,-109,-2051,-27,106,11,-479,29,-508,225
,84,2023-10-27 12:21:59.61,56,-115,-2045,-26,134,10,-625,-6,-619,315
,85,2023-10-27 12:21:59.62,74,-105,-2035,-24,134,10,-515,22,-537,246
,86,2023-10-27 12:21:59.63,81,-111,-2045,-18,142,11,-684,-10,-674,347
,87,2023-10-27 12:21:59.64,67,-116,-2025,-15,170,5,-399,40,-439,179
,88,2023-10-27 12:21:59.65,100,-114,-2024,-7,162,3,-424,6,-430,209
,89,2023-10-27 12:21:59.66,75,-125,-2020,6,154,5,-265,54,-319,105
,90,2023-10-27 12:21:59.67,81,-126,-2044,18,163,0,-451,25,-476,213
,91,2023-10-27 12:21:59.68,99,-124,-2045,26,169,12,-301,64,-365,118
,92,2023-10-27 12:21:59.69,94,-120,-2055,30,162,6,-423,13,-436,205
,93,2023-10-27 12:21:59.70,103,-119,-2044,33,159,3,-207,56,-263,75
,94,2023-10-27 12:21:59.71,95,-113,-2053,34,165,-4,-307,20,-327,143
,95,2023-10-27 12:21:59.72,101,-119,-2082,34,176,-2,-86,75,-161,5
,96,2023-10-27 12:21:59.73,90,-119,-2067,27,189,3,-180,36,-216,72
,97,2023-10-27 12:21:59.74,100,-120,-2086,26,165,8,-116,82,-198,17
,98,2023-10-27 12:21:59.75,93,-122,-2076,22,158,9,-358,28,-386,165
,99,2023-10-27 12:21:59.76,98,-119,-2075,19,144,10,-277,68,-345,104
,100,2023-10-27 12:21:59.77,114,-110,-2076,16,134,8,-434,-1,-433,217
,101,2023-10-27 12:21:59.78,111,-110,-2077,13,135,9,-302,52,-354,125
,102,2023-10-27 12:21:59.79,119,-109,-2072,22,133,10,-464,-9,-455,236
,103,2023-10-27 12:21:59.80,126,-115,-2076,25,118,4,-372,64,-436,154
,104,2023-10-27 12:21:59.81,125,-124,-2068,29,126,9,-547,4,-551,271
,105,2023-10-27 12:21:59.82,142,-124,-2060,43,109,9,-390,65,-455,162
,106,2023-10-27 12:21:59.83,139,-130,-2054,58,99,9,-509,-4,-505,256
,107,2023-10-27 12:21:59.84,143,-126,-2066,75,79,12,-420,63,-483,178
,108,2023-10-27 12:21:59.85,154,-132,-2050,90,86,16,-599,-14,-585,306
,109,2023-10-27 12:21:59.86,147,-142,-2066,108,75,20,-489,53,-542,218
,110,2023-10-27 12:21:59.87,143,-141,-2053,122,59,25,-619,-26,-593,322
,111,2023-10-27 12:21:59.88,151,-141,-2065,136,46,31,-458,48,-506,205
,112,2023-10-27 12:21:59.89,151,-141,-2069,144,36,39,-572,-33,-539,302
,113,2023-10-27 12:21:59.90,145,-137,-2063,150,31,44,-467,50,-517,208
,114,2023-10-27 12:21:59.91,144,-137,-2063,156,24,43,-609,-18,-591,313
,115,2023-10-27 12:21:59.92,147,-138,-2059,165,18,49,-467,62,-529,202
,116,2023-10-27 12:21:59.93,149,-149,-2059,167,7,52,-575,-27,-548,301
,117,2023-10-27 12:21:59.94,148,-156,-2074,167,-8,49,-506,53,-559,226
,118,2023-10-27 12:21:59.95,140,-155,-2070,161,-14,57,-667,-39,-628,353
,119,2023-10-27 12:21:59.96,144,-155,-2058,161,-24,61,-575,47,-622,264
,120,2023-10-27 12:21:59.97,133,-163,-2068,162,-29,63,-666,-40,-626,353
,121,2023-10-27 12:21:59.98,144,-158,-2053,165,-23,69,-537,51,-588,243
,122,2023-10-27 12:21:59.99,153,-163,-2044,162,-26,70,-632,-38,-594,335
,123,2023-10-27 12:22:00.00,139,-160,-2047,159,-25,72,-497,56,-553,220
,124,2023-10-27 12:22:00.01,143,-178,-2038,152,-27,71,-583,-36,-547,309
,125,2023-10-27 12:22:00.02,143,-183,-2042,152,-34,69,-517,61,-578,228
,126,2023-10-27 12:22:00.03,141,-176,-2033,149,-24,78,-639,-35,-604,337
,127,2023-10-27 12:22:00.04,154,-181,-2024,146,-29,76,-583,55,-638,264
,128,2023-10-27 12:22:00.05,154,-176,-2034,143,-8,78,-672,-41,-631,356
,129,2023-10-27 12:22:00.06,153,-177,-2045,137,-3,80,-582,45,-627,268
,130,2023-10-27 12:22:00.07,151,-183,-2046,130,8,86,-647,-56,-591,351
,131,2023-10-27 12:22:00.08,149,-183,-2050,127,-3,86,-514,63,-577,225
,132,2023-10-27 12:22:00.09,161,-177,-2051,117,11,88,-579,-29,-550,304
,133,2023-10-27 12:22:00.10,142,-175,-2052,107,13,94,-532,44,-576,244
,134,2023-10-27 12:22:00.11,153,-188,-2052,100,-4,98,-625,-75,-550,350
,135,2023-10-27 12:22:00.12,144,-195,-2050,93,-2,100,-561,6,-567,277
,136,2023-10-27 12:22:00.13,155,-197,-2048,87,-7,96,-627,-99,-528,363
,137,2023-10-27 12:22:00.14,141,-196,-2048,81,-9,93,-565,-22,-543,293
,138,2023-10-27 12:22:00.15,151,-204,-2058,77,-5,97,-628,-123,-505,375
,139,2023-10-27 12:22:00.16,137,-202,-2051,72,-9,90,-530,-12,-518,271
,140,2023-10-27 12:22:00.17,139,-203,-2056,70,-13,87,-570,-94,-476,332
,141,2023-10-27 12:22:00.18,128,-200,-2059,69,-23,82,-558,26,-584,266
,142,2023-10-27 12:22:00.19,133,-211,-2058,66,-24,79,-639,-79,-560,359
,143,2023-10-27 12:22:00.20,127,-198,-2045,62,-27,78,-609,22,-631,293
,144,2023-10-27 12:22:00.21,136,-210,-2029,61,-34,64,-649,-90,-559,369
,145,2023-10-27 12:22:00.22,134,-206,-2013,60,-25,65,-551,-2,-549,276
,146,2023-10-27 12:22:00.23,132,-219,-2008,57,-29,57,-569,-118,-451,343
,147,2023-10-27 12:22:00.24,142,-226,-2023,55,-6,58,-569,-16,-553,292
,148,2023-10-27 12:22:00.25,142,-222,-2033,54,-11,53,-637,-112,-525,374
,149,2023-10-27 12:22:00.26,136,-220,-2034,54,3,51,-612,14,-626,299
,150,2023-10-27 12:22:00.27,142,-215,-2039,47,-5,42,-624,-88,-536,356
,151,2023-10-27 12:22:00.28,149,-213,-2049,41,13,36,-554,25,-579,264
,152,2023-10-27 12:22:00.29,137,-211,-2061,39,17,31,-567,-91,-476,329
,153,2023-10-27 12:22:00.30,141,-212,-2045,36,23,25,-496,26,-522,235
,154,2023-10-27 12:22:00.31,143,-219,-2037,38,26,31,-525,-96,-429,310
,155,2023-10-27 12:22:00.32,142,-225,-2035,36,21,28,-463,37,-500,213
,156,2023-10-27 12:22:00.33,132,-232,-2026,36,24,38,-499,-80,-419,289
,157,2023-10-27 12:22:00.34,156,-229,-2039,39,16,35,-457,47,-504,205
,158,2023-10-27 12:22:00.35,139,-236,-2040,31,12,34,-490,-71,-419,280
,159,2023-10-27 12:22:00.36,148,-237,-2035,27,16,39,-412,65,-477,173
,160,2023-10-27 12:22:00.37,160,-231,-2039,22,21,38,-436,-56,-380,246
,161,2023-10-27 12:22:00.38,158,-225,-2025,19,30,41,-377,59,-436,159
,162,2023-10-27 12:22:00.39,160,-221,-2044,12,30,45,-420,-69,-351,244
,163,2023-10-27 12:22:00.40,156,-214,-2030,3,30,52,-428,43,-471,192
,164,2023-10-27 12:22:00.41,158,-215,-2041,-5,20,58,-475,-85,-390,280
,165,2023-10-27 12:22:00.42,144,-222,-2048,-11,22,59,-484,35,-519,224
,166,2023-10-27 12:22:00.43,162,-217,-2056,-17,15,63,-507,-84,-423,295
,167,2023-10-27 12:22:00.44,164,-218,-2055,-25,3,65,-527,35,-562,246
,168,2023-10-27 12:22:00.45,153,-219,-2063,-25,2,64,-539,-86,-453,312
,169,2023-10-27 12:22:00.46,154,-216,-2051,-20,-12,61,-614,35,-649,289
,170,2023-10-27 12:22:00.47,155,-209,-2047,-17,-6,61,-607,-84,-523,345
,171,2023-10-27 12:22:00.48,164,-217,-2047,-17,-14,61,-584,35,-619,274
,172,2023-10-27 12:22:00.49,150,-211,-2054,-24,-10,56,-532,-84,-448,308
,173,2023-10-27 12:22:00.50,139,-207,-2055,-26,-15,57,-544,23,-567,260
,174,2023-10-27 12:22:00.51,134,-203,-2056,-28,-14,48,-514,-93,-421,303
,175,2023-10-27 12:22:00.52,143,-209,-2057,-34,-21,46,-466,35,-501,215
,176,2023-10-27 12:22:00.53,140,-208,-2046,-37,-23,44,-434,-78,-356,256
,177,2023-10-27 12:22:00.54,138,-207,-2051,-35,-29,45,-436,35,-471,200
,178,2023-10-27 12:22:00.55,126,-205,-2036,-35,-41,36,-441,-92,-349,266
,179,2023-10-27 12:22:00.56,137,-209,-2034,-31,-32,39,-449,29,-478,210
,180,2023-10-27 12:22:00.57,139,-215,-2042,-31,-36,29,-427,-86,-341,256
,181,2023-10-27 12:22:00.58,146,-217,-2034,-31,-32,24,-378,29,-407,174
,182,2023-10-27 12:22:00.59,136,-219,-2031,-30,-19,26,-362,-83,-279,222
,183,2023-10-27 12:22:00.60,118,-220,-2038,-29,-22,18,-426,43,-469,191
,184,2023-10-27 12:22:00.61,129,-219,-2035,-25,-15,24,-434,-66,-368,250
,185,2023-10-27 12:22:00.62,111,-224,-2020,-24,-17,27,-471,24,-495,223
,186,2023-10-27 12:22:00.63,128,-215,-2022,-19,-7,31,-413,-95,-318,254
,187,2023-10-27 12:22:00.64,127,-219,-2029,-20,-5,37,-375,22,-397,176
,188,2023-10-27 12:22:00.65,136,-217,-2031,-27,1,35,-357,-85,-272,221
,189,2023-10-27 12:22:00.66,125,-214,-2039,-24,2,39,-388,38,-426,175
,190,2023-10-27 12:22:00.67,117,-211,-2054,-29,0,34,-377,-65,-312,221
,191,2023-10-27 12:22:00.68,125,-202,-2049,-33,3,32,-439,40,-479,199
,192,2023-10-27 12:22:00.69,115,-192,-2057,-37,-3,28,-412,-69,-343,240
,193,2023-10-27 12:22:00.70,130,-188,-2053,-43,-1,22,-475,41,-516,217
,194,2023-10-27 12:22:00.71,117,-184,-2052,-48,8,19,-429,-62,-367,245
,195,2023-10-27 12:22:00.72,127,-184,-2058,-51,7,12,-470,29,-499,220
,196,2023-10-27 12:22:00.73,119,-186,-2066,-55,7,2,-402,-74,-328,238
,197,2023-10-27 12:22:00.74,124,-186,-2067,-57,-1,-6,-450,17,-467,216
,198,2023-10-27 12:22:00.75,134,-178,-2056,-57,-5,-9,-403,-78,-325,240
,199,2023-10-27 12:22:00.76,115,-188,-2056,-53,-6,-17,-494,13,-507,240
,200,2023-10-27 12:22:00.77,113,-199,-2068,-50,-5,-26,-441,-68,-373,254
,201,2023-10-27 12:22:00.78,116,-194,-2073,-46,-17,-25,-540,25,-565,257
,202,2023-10-27 12:22:00.79,111,-203,-2060,-40,-25,-24,-472,-62,-410,267
,203,2023-10-27 12:22:00.80,108,-202,-2070,-32,-24,-20,-581,21,-602,280
,204,2023-10-27 12:22:00.81,105,-205,-2053,-27,-23,-19,-477,-63,-414,270
,205,2023-10-27 12:22:00.82,104,-206,-2051,-25,-21,-21,-539,18,-557,260
,206,2023-10-27 12:22:00.83,106,-213,-2033,-13,-17,-16,-458,-66,-392,262
,207,2023-10-27 12:22:00.84,111,-224,-2045,-3,-20,-13,-607,1,-608,303
,208,2023-10-27 12:22:00.85,115,-212,-2041,6,-21,-14,-505,-79,-426,292
,209,2023-10-27 12:22:00.86,117,-220,-2035,18,-18,-15,-559,-21,-538,290
,210,2023-10-27 12:22:00.87,107,-214,-2028,27,-10,-10,-421,-76,-345,248
,211,2023-10-27 12:22:00.88,120,-214,-2031,34,-2,-15,-501,-7,-494,254
,212,2023-10-27 12:22:00.89,96,-209,-2023,43,8,-16,-418,-61,-357,239
,213,2023-10-27 12:22:00.90,108,-215,-2022,48,7,-20,-540,2,-542,269
,214,2023-10-27 12:22:00.91,104,-215,-2031,55,17,-17,-438,-57,-381,247
,215,2023-10-27 12:22:00.92,100,-223,-2032,56,16,-22,-541,0,-541,270
,216,2023-10-27 12:22:00.93,115,-221,-2035,57,17,-21,-423,-58,-365,240
,217,2023-10-27 12:22:00.94,110,-218,-2037,50,17,-23,-522,-2,-520,262
,218,2023-10-27 12:22:00.95,118,-215,-2033,42,18,-26,-404,-56,-348,230
,219,2023-10-27 12:22:00.96,127,-226,-2041,35,21,-24,-520,-21,-499,270
,220,2023-10-27 12:22:00.97,111,-217,-2046,29,27,-23,-416,-48,-368,232
,221,2023-10-27 12:22:00.98,110,-217,-2047,19,29,-18,-570,-6,-564,288
,222,2023-10-27 12:22:00.99,113,-214,-2058,7,29,-19,-438,-46,-392,242
,223,2023-10-27 12:22:01.00,125,-217,-2063,-2,27,-16,-529,-9,-520,269
,224,2023-10-27 12:22:01.01,110,-216,-2064,-8,27,-14,-392,-41,-351,216
,225,2023-10-27 12:22:01.02,117,-212,-2057,-16,15,-14,-512,-5,-507,258
,226,2023-10-27 12:22:01.03,119,-208,-2052,-23,11,-10,-385,-38,-347,211
,227,2023-10-27 12:22:01.04,132,-215,-2048,-29,19,-7,-503,-17,-486,260
,228,2023-10-27 12:22:01.05,119,-205,-2046,-35,26,-7,-383,-39,-344,211
,229,2023-10-27 12:22:01.06,115,-197,-2046,-39,23,-2,-525,-8,-517,266
,230,2023-10-27 12:22:01.07,129,-207,-2057,-44,29,1,-410,-26,-384,218
,231,2023-10-27 12:22:01.08,124,-195,-2058,-48,18,4,-556,-13,-543,284
,232,2023-10-27 12:22:01.09,121,-195,-2066,-50,15,6,-416,-30,-386,223
,233,2023-10-27 12:22:01.10,116,-187,-2055,-53,9,12,-533,-20,-513,276
,234,2023-10-27 12:22:01.11,127,-176,-2047,-54,-2,7,-389,-24,-365,206
,235,2023-10-27 12:22:01.12,128,-185,-2065,-59,0,12,-533,-8,-525,270
,236,2023-10-27 12:22:01.13,136,-170,-2067,-63,-15,9,-392,-15,-377,203
,237,2023-10-27 12:22:01.14,130,-182,-2034,-62,-5,13,-525,-20,-505,272
,238,2023-10-27 12:22:01.15,146,-169,-2057,-51,-16,12,-382,-24,-358,203
,239,2023-10-27 12:22:01.16,143,-163,-2059,-48,-12,9,-504,-27,-477,265
,240,2023-10-27 12:22:01.17,149,-164,-2056,-43,-12,7,-361,-13,-348,187
,241,2023-10-27 12:22:01.18,137,-167,-2057,-39,-24,2,-513,-12,-501,262
,242,2023-10-27 12:22:01.19,136,-176,-2060,-28,-18,1,-376,5,-381,185
,243,2023-10-27 12:22:01.20,117,-179,-2056,-20,-26,0,-501,4,-505,248
,244,2023-10-27 12:22:01.21,124,-173,-2049,-11,-34,-5,-360,18,-378,171
,245,2023-10-27 12:22:01.22,122,-173,-2048,-4,-30,-9,-496,2,-498,247
,246,2023-10-27 12:22:01.23,131,-173,-2045,2,-33,-13,-290,17,-307,136
,247,2023-10-27 12:22:01.24,127,-171,-2046,9,-35,-13,-412,-7,-405,209
,248,2023-10-27 12:22:01.25,124,-167,-2037,17,-30,-16,-327,10,-337,158
,249,2023-10-27 12:22:01.26,126,-169,-2045,28,-38,-21,-549,-10,-539,279
,250,2023-10-27 12:22:01.27,121,-163,-2049,27,-35,-26,-456,11,-467,222
,251,2023-10-27 12:22:01.28,121,-169,-2055,31,-39,-26,-616,-21,-595,318
,252,2023-10-27 12:22:01.29,131,-174,-2060,39,-53,-31,-403,12,-415,195
,253,2023-10-27 12:22:01.30,121,-174,-2061,44,-62,-38,-502,-13,-489,257
,254,2023-10-27 12:22:01.31,126,-171,-2056,48,-72,-44,-342,18,-360,162
,255,2023-10-27 12:22:01.32,127,-170,-2047,48,-70,-43,-507,-32,-475,269
,256,2023-10-27 12:22:01.33,118,-184,-2060,50,-73,-46,-405,3,-408,201
,257,2023-10-27 12:22:01.34,106,-185,-2067,55,-80,-48,-591,-38,-553,314
,258,2023-10-27 12:22:01.35,109,-191,-2052,55,-87,-45,-450,13,-463,218
,259,2023-10-27 12:22:01.36,116,-192,-2048,58,-84,-45,-587,-19,-568,303
,260,2023-10-27 12:22:01.37,108,-185,-2046,56,-80,-40,-444,23,-467,210
,261,2023-10-27 12:22:01.38,112,-183,-2048,53,-88,-38,-588,-24,-564,306
,262,2023-10-27 12:22:01.39,103,-192,-2049,51,-78,-38,-424,18,-442,203
,263,2023-10-27 12:22:01.40,106,-184,-2039,49,-86,-40,-558,-41,-517,299
,264,2023-10-27 12:22:01.41,104,-182,-2032,51,-81,-39,-421,15,-436,203
,265,2023-10-27 12:22:01.42,98,-198,-2030,51,-84,-36,-578,-27,-551,302
,266,2023-10-27 12:22:01.43,99,-188,-2034,45,-66,-35,-448,29,-477,209
,267,2023-10-27 12:22:01.44,95,-200,-2039,43,-72,-23,-600,-30,-570,315
,268,2023-10-27 12:22:01.45,93,-200,-2047,39,-75,-29,-439,21,-460,209
,269,2023-10-27 12:22:01.46,105,-202,-2036,42,-85,-27,-561,-25,-536,293
,270,2023-10-27 12:22:01.47,100,-203,-2041,38,-68,-27,-405,39,-444,183
,271,2023-10-27 12:22:01.48,97,-199,-2045,29,-63,-22,-544,-22,-522,283
,272,2023-10-27 12:22:01.49,88,-188,-2034,15,-39,-21,-389,36,-425,176
,273,2023-10-27 12:22:01.50,104,-195,-2023,4,-29,-19,-521,-40,-481,280
,274,2023-10-27 12:22:01.51,98,-196,-2026,-8,-15,-14,-387,27,-414,180
,275,2023-10-27 12:22:01.52,94,-192,-2025,-27,-7,-7,-538,-41,-497,289
,276,2023-10-27 12:22:01.53,87,-198,-2030,-47,14,-2,-439,28,-467,205
,277,2023-10-27 12:22:01.54,101,-191,-2033,-60,21,4,-588,-47,-541,317
,278,2023-10-27 12:22:01.55,93,-178,-2036,-67,36,11,-446,24,-470,211
,279,2023-10-27 12:22:01.56,106,-168,-2036,-79,41,9,-562,-53,-509,307
,280,2023-10-27 12:22:01.57,94,-170,-2047,-89,57,17,-394,20,-414,187
,281,2023-10-27 12:22:01.58,111,-167,-2049,-95,57,15,-510,-64,-446,287
,282,2023-10-27 12:22:01.59,101,-163,-2056,-97,51,12,-344,24,-368,160
,283,2023-10-27 12:22:01.60,101,-158,-2057,-102,49,-1,-468,-48,-420,258
,284,2023-10-27 12:22:01.61,100,-153,-2051,-110,61,-1,-329,35,-364,147
,285,2023-10-27 12:22:01.62,101,-141,-2053,-110,60,-10,-468,-52,-416,260
,286,2023-10-27 12:22:01.63,114,-136,-2054,-114,60,-17,-376,27,-403,174
,287,2023-10-27 12:22:01.64,102,-141,-2060,-113,61,-23,-529,-62,-467,295
,288,2023-10-27 12:22:01.65,110,-139,-2052,-113,64,-31,-427,32,-459,197
,289,2023-10-27 12:22:01.66,109,-131,-2050,-111,64,-42,-551,-46,-505,298
,290,2023-10-27 12:22:01.67,99,-135,-2043,-112,64,-53,-358,53,-411,152
,291,2023-10-27 12:22:01.68,107,-132,-2045,-110,72,-63,-444,-40,-404,242
,292,2023-10-27 12:22:01.69,114,-131,-2052,-107,68,-73,-378,40,-418,169
,293,2023-10-27 12:22:01.70,103,-127,-2040,-106,73,-85,-533,-56,-477,294
,294,2023-10-27 12:22:01.71,106,-124,-2038,-105,81,-96,-392,39,-431,176
,295,2023-10-27 12:22:01.72,98,-139,-2044,-103,81,-107,-475,-56,-419,265
,296,2023-10-27 12:22:01.73,104,-140,-2047,-97,81,-110,-368,44,-412,162
,297,2023-10-27 12:22:01.74,115,-137,-2044,-89,77,-113,-493,-52,-441,272
,298,2023-10-27 12:22:01.75,115,-132,-2053,-79,87,-118,-456,44,-500,206
,299,2023-10-27 12:22:01.76,130,-134,-2047,-75,77,-125,-578,-56,-522,317
,300,2023-10-27 12:22:01.77,119,-127,-2046,-67,84,-128,-447,40,-487,203
,301,2023-10-27 12:22:01.78,115,-135,-2043,-62,88,-129,-508,-64,-444,286
,302,2023-10-27 12:22:01.79,116,-142,-2044,-54,90,-130,-329,44,-373,142
,303,2023-10-27 12:22:01.80,128,-140,-2028,-52,99,-127,-415,-59,-356,237
,304,2023-10-27 12:22:01.81,126,-142,-2034,-45,101,-125,-382,32,-414,175
,305,2023-10-27 12:22:01.82,135,-147,-2046,-39,110,-123,-519,-84,-435,301
,306,2023-10-27 12:22:01.83,127,-138,-2045,-34,110,-121,-413,13,-426,200
,307,2023-10-27 12:22:01.84,138,-141,-2047,-28,107,-118,-476,-88,-388,282
,308,2023-10-27 12:22:01.85,132,-141,-2049,-24,107,-109,-415,15,-430,200
,309,2023-10-27 12:22:01.86,135,-139,-2060,-22,107,-107,-512,-93,-419,302
,310,2023-10-27 12:22:01.87,146,-138,-2062,-15,110,-96,-487,27,-514,230
,311,2023-10-27 12:22:01.88,136,-136,-2054,-9,111,-86,-575,-81,-494,328
,312,2023-10-27 12:22:01.89,146,-136,-2049,-8,105,-77,-529,36,-565,246
,313,2023-10-27 12:22:01.90,159,-131,-2043,-10,105,-67,-579,-77,-502,328
,314,2023-10-27 12:22:01.91,153,-132,-2056,-15,107,-63,-521,21,-542,250
,315,2023-10-27 12:22:01.92,169,-123,-2059,-16,107,-50,-567,-91,-476,329
,316,2023-10-27 12:22:01.93,167,-132,-2061,-23,103,-41,-521,55,-576,233
,317,2023-10-27 12:22:01.94,146,-137,-2074,-28,92,-31,-555,-56,-499,305
,318,2023-10-27 12:22:01.95,163,-131,-2080,-31,80,-16,-532,-112,-420,322
,319,2023-10-27 12:22:01.96,168,-127,-2065,-29,80,1,-569,-257,-312,413
,320,2023-10-27 12:22:01.97,171,-129,-2072,-32,68,17,-444,-198,-246,321
,321,2023-10-27 12:22:01.98,175,-131,-2067,-36,71,34,-462,-247,-215,354
,322,2023-10-27 12:22:01.99,173,-132,-2060,-34,51,44,-410,-88,-322,249
,323,2023-10-27 12:22:02.00,186,-110,-2041,-32,55,58,-470,-147,-323,308
,324,2023-10-27 12:22:02.01,179,-113,-2028,-43,57,61,-374,2,-376,186
,325,2023-10-27 12:22:02.02,199,-99,-2010,-48,70,73,-423,-99,-324,261
,326,2023-10-27 12:22:02.03,194,-103,-2030,-59,79,73,-472,-28,-444,250
,327,2023-10-27 12:22:02.04,192,-107,-2044,-67,88,84,-544,-152,-392,348
,328,2023-10-27 12:22:02.05,195,-99,-2048,-73,86,85,-558,-47,-511,302
,329,2023-10-27 12:22:02.06,187,-90,-2057,-79,87,87,-565,-143,-422,354
,330,2023-10-27 12:22:02.07,209,-94,-2061,-78,84,98,-536,-57,-479,296
,331,2023-10-27 12:22:02.08,201,-98,-2049,-79,83,100,-545,-166,-379,355
,332,2023-10-27 12:22:02.09,220,-92,-2048,-80,91,103,-573,-151,-422,362
,333,2023-10-27 12:22:02.10,220,-79,-2040,-83,75,97,-589,-252,-337,420
,334,2023-10-27 12:22:02.11,199,-82,-2032,-91,85,101,-606,-202,-404,404
,335,2023-10-27 12:22:02.12,210,-79,-2044,-98,86,101,-587,-256,-331,421
,336,2023-10-27 12:22:02.13,209,-72,-2061,-103,91,103,-554,-142,-412,348
,337,2023-10-27 12:22:02.14,202,-80,-2070,-102,86,107,-528,-202,-326,365
,338,2023-10-27 12:22:02.15,197,-79,-2083,-106,83,109,-596,-80,-516,338
,339,2023-10-27 12:22:02.16,193,-87,-2086,-110,71,117,-601,-171,-430,386
,340,2023-10-27 12:22:02.17,188,-85,-2081,-107,33,122,-686,-148,-538,417
,341,2023-10-27 12:22:02.18,192,-74,-2080,-104,23,124,-652,-244,-408,448
,342,2023-10-27 12:22:02.19,188,-68,-2063,-101,16,122,-699,-230,-469,464
,343,2023-10-27 12:22:02.20,193,-62,-2047,-98,15,126,-635,-282,-353,458
,344,2023-10-27 12:22:02.21,181,-70,-2045,-90,19,127,-672,-216,-456,444
,345,2023-10-27 12:22:02.22,184,-75,-2036,-85,15,121,-600,-264,-336,432
,346,2023-10-27 12:22:02.23,188,-84,-2044,-79,24,116,-565,-197,-368,381
,347,2023-10-27 12:22:02.24,197,-90,-2033,-63,28,111,-501,-249,-252,375
,348,2023-10-27 12:22:02.25,196,-86,-2023,-44,32,108,-617,-172,-445,394
,349,2023-10-27 12:22:02.26,209,-91,-2027,-24,29,103,-599,-219,-380,409
,350,2023-10-27 12:22:02.27,204,-90,-2018,-7,36,97,-660,-89,-571,374
,351,2023-10-27 12:22:02.28,210,-82,-2022,9,42,92,-586,-159,-427,372
,352,2023-10-27 12:22:02.29,207,-82,-2005,19,49,86,-638,-107,-531,372
,353,2023-10-27 12:22:02.30,207,-76,-2017,28,75,80,-562,-196,-366,379
,354,2023-10-27 12:22:02.31,224,-79,-2043,32,66,76,-599,-151,-448,375
,355,2023-10-27 12:22:02.32,208,-64,-2027,41,72,75,-524,-225,-299,374
,356,2023-10-27 12:22:02.33,223,-54,-2031,47,60,63,-582,-206,-376,394
,357,2023-10-27 12:22:02.34,236,-40,-2048,38,70,59,-523,-253,-270,388
,358,2023-10-27 12:22:02.35,221,-56,-2055,22,65,48,-621,-126,-495,373
,359,2023-10-27 12:22:02.36,224,-58,-2086,18,61,44,-554,-157,-397,355
,360,2023-10-27 12:22:02.37,220,-56,-2101,21,39,41,-622,-78,-544,350
,361,2023-10-27 12:22:02.38,214,-71,-2079,20,20,38,-546,-169,-377,357
,362,2023-10-27 12:22:02.39,225,-74,-2094,20,6,40,-684,-162,-522,423
,363,2023-10-27 12:22:02.40,210,-80,-2091,24,-7,43,-594,-220,-374,407
,364,2023-10-27 12:22:02.41,216,-74,-2087,31,-20,41,-632,-162,-470,397
,365,2023-10-27 12:22:02.42,212,-76,-2074,35,-38,38,-509,-186,-323,347
,366,2023-10-27 12:22:02.43,219,-86,-2067,38,-42,38,-590,-59,-531,324
,367,2023-10-27 12:22:02.44,213,-74,-2069,40,-53,33,-510,-117,-393,313
,368,2023-10-27 12:22:02.45,204,-76,-2057,44,-60,29,-572,-64,-508,318
,369,2023-10-27 12:22:02.46,209,-69,-2058,44,-54,26,-480,-164,-316,322
,370,2023-10-27 12:22:02.47,200,-77,-2046,46,-66,19,-596,-190,-406,393
,371,2023-10-27 12:22:02.48,214,-76,-2050,49,-60,19,-530,-231,-299,380
,372,2023-10-27 12:22:02.49,211,-71,-2058,47,-67,19,-723,-130,-593,426
,373,2023-10-27 12:22:02.50,202,-67,-2049,44,-75,13,-616,-130,-486,373
,374,2023-10-27 12:22:02.51,204,-68,-2037,45,-79,6,-708,-29,-679,368
,375,2023-10-27 12:22:02.52,207,-64,-2032,48,-85,-1,-551,-89,-462,320
,376,2023-10-27 12:22:02.53,210,-48,-2034,42,-78,-6,-624,-53,-571,338
,377,2023-10-27 12:22:02.54,205,-71,-2051,33,-71,-11,-504,-121,-383,312
,378,2023-10-27 12:22:02.55,193,-73,-2078,38,-69,-14,-640,-81,-559,360
,379,2023-10-27 12:22:02.56,189,-89,-2084,43,-97,-13,-516,-111,-405,313
,380,2023-10-27 12:22:02.57,177,-90,-2088,44,-105,1,-603,-40,-563,321
,381,2023-10-27 12:22:02.58,174,-87,-2084,43,-128,6,-480,-93,-387,286
,382,2023-10-27 12:22:02.59,163,-96,-2076,40,-130,21,-590,-84,-506,337
,383,2023-10-27 12:22:02.60,169,-96,-2064,39,-141,27,-456,-138,-318,297
,384,2023-10-27 12:22:02.61,155,-105,-2057,42,-145,40,-502,-86,-416,294
,385,2023-10-27 12:22:02.62,143,-114,-2055,45,-149,42,-366,-94,-272,230
,386,2023-10-27 12:22:02.63,149,-114,-2045,48,-150,53,-477,-21,-456,249
,387,2023-10-27 12:22:02.64,139,-115,-2044,50,-147,56,-396,-63,-333,229
,388,2023-10-27 12:22:02.65,138,-108,-2056,55,-124,62,-520,-32,-488,276
,389,2023-10-27 12:22:02.66,133,-114,-2047,57,-123,66,-404,-78,-326,241
,390,2023-10-27 12:22:02.67,123,-110,-2052,61,-110,73,-506,-56,-450,281
,391,2023-10-27 12:22:02.68,112,-117,-2046,67,-111,75,-411,-83,-328,247
,392,2023-10-27 12:22:02.69,123,-103,-2045,68,-113,77,-579,-56,-523,317
,393,2023-10-27 12:22:02.70,127,-109,-2048,66,-111,83,-466,-68,-398,267
,394,2023-10-27 12:22:02.71,111,-119,-2037,61,-111,84,-589,-25,-564,307
,395,2023-10-27 12:22:02.72,120,-102,-2046,57,-93,87,-470,-81,-389,275
,396,2023-10-27 12:22:02.73,111,-109,-2044,55,-87,92,-616,-117,-499,366
,397,2023-10-27 12:22:02.74,111,-106,-2030,50,-79,89,-516,-156,-360,336
,398,2023-10-27 12:22:02.75,114,-105,-2044,49,-81,85,-693,-163,-530,428
,399,2023-10-27 12:22:02.76,115,-108,-2056,42,-77,88,-550,-128,-422,339
,400,2023-10-27 12:22:02.77,118,-110,-2051,38,-74,82,-678,-73,-605,375
,401,2023-10-27 12:22:02.78,118,-101,-2042,32,-67,76,-511,-60,-451,285
,402,2023-10-27 12:22:02.79,136,-105,-2034,31,-48,82,-623,-61,-562,342
,403,2023-10-27 12:22:02.80,118,-107,-2046,30,-41,78,-456,-85,-371,270
,404,2023-10-27 12:22:02.81,125,-108,-2057,30,-38,73,-575,-114,-461,344
,405,2023-10-27 12:22:02.82,116,-106,-2046,31,-42,74,-457,-134,-323,295
,406,2023-10-27 12:22:02.83,121,-100,-2047,32,-40,73,-617,-153,-464,385
,407,2023-10-27 12:22:02.84,113,-112,-2045,33,-44,68,-483,-133,-350,308
,408,2023-10-27 12:22:02.85,114,-118,-2046,37,-34,68,-611,-136,-475,373
,409,2023-10-27 12:22:02.86,117,-124,-2053,44,-42,71,-428,-94,-334,261
,410,2023-10-27 12:22:02.87,106,-118,-2054,47,-36,69,-535,-84,-451,309
,411,2023-10-27 12:22:02.88,116,-117,-2050,45,-36,67,-345,-62,-283,203
,412,2023-10-27 12:22:02.89,107,-127,-2043,41,-32,67,-414,-75,-339,244
,413,2023-10-27 12:22:02.90,88,-126,-2066,43,-36,61,-336,-84,-252,210
,414,2023-10-27 12:22:02.91,101,-125,-2055,46,-41,63,-552,-118,-434,335
,415,2023-10-27 12:22:02.92,102,-127,-2053,47,-36,60,-433,-128,-305,280
,416,2023-10-27 12:22:02.93,103,-128,-2067,44,-31,60,-533,-155,-378,344
,417,2023-10-27 12:22:02.94,104,-116,-2067,39,-17,59,-334,-121,-213,227
,418,2023-10-27 12:22:02.95,101,-114,-2051,27,-16,52,-433,-143,-290,288
,419,2023-10-27 12:22:02.96,97,-103,-2060,19,-1,48,-402,-167,-235,284
,420,2023-10-27 12:22:02.97,104,-105,-2053,8,2,38,-647,-236,-411,441
,421,2023-10-27 12:22:02.98,114,-104,-2056,4,4,32,-539,-219,-320,379
,422,2023-10-27 12:22:02.99,99,-114,-2054,3,3,26,-656,-249,-407,452
,423,2023-10-27 12:22:03.00,95,-106,-2043,-1,8,14,-465,-203,-262,334
,424,2023-10-27 12:22:03.01,103,-114,-2042,-4,7,7,-562,-236,-326,399
,425,2023-10-27 12:22:03.02,89,-111,-2049,5,13,-4,-439,-190,-249,314
,426,2023-10-27 12:22:03.03,81,-108,-2060,9,19,-8,-614,-213,-401,413
,427,2023-10-27 12:22:03.04,98,-118,-2055,8,10,-20,-496,-164,-332,330
,428,2023-10-27 12:22:03.05,108,-120,-2049,13,2,-20,-629,-190,-439,409
,429,2023-10-27 12:22:03.06,104,-111,-2077,18,-1,-25,-494,-125,-369,309
,430,2023-10-27 12:22:03.07,98,-120,-2063,19,-2,-24,-644,-157,-487,400
,431,2023-10-27 12:22:03.08,90,-120,-2072,32,-31,-23,-467,-202,-265,334
,432,2023-10-27 12:22:03.09,80,-115,-2079,36,-63,-30,-560,-320,-240,440
,433,2023-10-27 12:22:03.10,96,-104,-2071,35,-76,-32,-459,-268,-191,363
,434,2023-10-27 12:22:03.11,83,-118,-2072,31,-67,-37,-642,-274,-368,458
,435,2023-10-27 12:22:03.12,59,-124,-2083,33,-72,-41,-586,-200,-386,393
,436,2023-10-27 12:22:03.13,71,-131,-2079,28,-76,-39,-753,-226,-527,489
,437,2023-10-27 12:22:03.14,65,-134,-2055,40,-89,-36,-626,-181,-445,403
,438,2023-10-27 12:22:03.15,71,-141,-2058,51,-87,-35,-729,-231,-498,480
,439,2023-10-27 12:22:03.16,66,-140,-2047,54,-76,-34,-584,-176,-408,380
,440,2023-10-27 12:22:03.17,81,-135,-2043,53,-78,-32,-703,-228,-475,465
,441,2023-10-27 12:22:03.18,75,-151,-2037,52,-53,-30,-568,-202,-366,385
,442,2023-10-27 12:22:03.19,70,-146,-2044,58,-58,-22,-677,-262,-415,469
,443,2023-10-27 12:22:03.20,65,-154,-2047,61,-51,-16,-578,-162,-416,370
,444,2023-10-27 12:22:03.21,71,-153,-2021,57,-37,-6,-716,-178,-538,447
,445,2023-10-27 12:22:03.22,68,-149,-2043,53,-21,0,-610,-112,-498,361
,446,2023-10-27 12:22:03.23,65,-147,-2056,61,-33,6,-718,-179,-539,448
,447,2023-10-27 12:22:03.24,68,-138,-2035,66,-41,13,-559,-165,-394,362
,448,2023-10-27 12:22:03.25,80,-145,-2036,71,-50,14,-632,-236,-396,434
,449,2023-10-27 12:22:03.26,80,-133,-2037,65,-19,15,-478,-173,-305,325
,450,2023-10-27 12:22:03.27,93,-128,-2030,59,-6,8,-586,-221,-365,403
,451,2023-10-27 12:22:03.28,85,-135,-2034,57,5,11,-477,-159,-318,318
,452,2023-10-27 12:22:03.29,83,-152,-2031,50,10,9,-617,-227,-390,422
,453,2023-10-27 12:22:03.30,83,-139,-2029,56,9,17,-501,-171,-330,336
,454,2023-10-27 12:22:03.31,80,-151,-2003,52,19,13,-609,-236,-373,422
,455,2023-10-27 12:22:03.32,107,-136,-2027,59,18,16,-529,-192,-337,360
,456,2023-10-27 12:22:03.33,106,-134,-2009,49,26,14,-654,-259,-395,456
,457,2023-10-27 12:22:03.34,136,-128,-2023,49,29,7,-588,-185,-403,386
,458,2023-10-27 12:22:03.35,118,-124,-2013,44,36,2,-705,-241,-464,473
,459,2023-10-27 12:22:03.36,123,-124,-2046,45,45,4,-588,-125,-463,356
,460,2023-10-27 12:22:03.37,112,-133,-2073,35,53,-4,-657,-176,-481,416
,461,2023-10-27 12:22:03.38,131,-129,-2086,28,43,-7,-549,-109,-440,329
,462,2023-10-27 12:22:03.39,120,-135,-2110,29,42,-10,-628,-188,-440,408
,463,2023-10-27 12:22:03.40,124,-120,-2129,34,20,-12,-545,-180,-365,362
,464,2023-10-27 12:22:03.41,138,-119,-2117,45,-13,-12,-631,-267,-364,449
,465,2023-10-27 12:22:03.42,124,-122,-2095,51,-19,-12,-483,-173,-310,328
,466,2023-10-27 12:22:03.43,119,-139,-2081,50,-29,-20,-529,-208,-321,368
,467,2023-10-27 12:22:03.44,96,-149,-2084,64,-49,-18,-397,-139,-258,268
,468,2023-10-27 12:22:03.45,85,-158,-2088,78,-83,-16,-484,-217,-267,350
,469,2023-10-27 12:22:03.46,70,-162,-2080,96,-107,-12,-401,-208,-193,304
,470,2023-10-27 12:22:03.47,65,-169,-2056,103,-114,-12,-498,-295,-203,396
,471,2023-10-27 12:22:03.48,56,-178,-2063,112,-123,-15,-423,-313,-110,368
,472,2023-10-27 12:22:03.49,42,-186,-2043,124,-145,-16,-510,-380,-130,445
,473,2023-10-27 12:22:03.50,46,-189,-2010,145,-156,-20,-392,-228,-164,310
,474,2023-10-27 12:22:03.51,51,-203,-1983,161,-161,-24,-480,-240,-240,360
,475,2023-10-27 12:22:03.52,37,-215,-1977,172,-143,-30,-420,-165,-255,292
,476,2023-10-27 12:22:03.53,36,-215,-1972,178,-129,-40,-504,-243,-261,373
,477,2023-10-27 12:22:03.54,34,-228,-1969,186,-106,-41,-388,-123,-265,255
,478,2023-10-27 12:22:03.55,38,-214,-1972,185,-92,-47,-462,-191,-271,326
,479,2023-10-27 12:22:03.56,34,-244,-1954,176,-62,-60,-401,-281,-120,341
,480,2023-10-27 12:22:03.57,50,-243,-1991,181,-32,-59,-478,-391,-87,434
,481,2023-10-27 12:22:03.58,57,-238,-1997,173,-19,-59,-349,-312,-37,330
,482,2023-10-27 12:22:03.59,34,-271,-1959,172,10,-61,-420,-328,-92,374
,483,2023-10-27 12:22:03.60,48,-252,-2004,206,4,-53,-451,-343,-108,397
,484,2023-10-27 12:22:03.61,49,-231,-2065,223,-11,-50,-550,-407,-143,478
,485,2023-10-27 12:22:03.62,58,-219,-2064,205,-12,-40,-526,-380,-146,453
,486,2023-10-27 12:22:03.63,76,-202,-2060,158,7,-41,-558,-404,-154,481
,487,2023-10-27 12:22:03.64,54,-206,-2064,110,58,-49,-631,-327,-304,479
,488,2023-10-27 12:22:03.65,59,-203,-2079,89,54,-43,-691,-343,-348,517
,489,2023-10-27 12:22:03.66,54,-196,-2102,75,46,-42,-615,-311,-304,463
,490,2023-10-27 12:22:03.67,74,-215,-2082,50,31,-32,-580,-360,-220,470
,491,2023-10-27 12:22:03.68,85,-213,-2084,15,39,-31,-523,-348,-175,435
,492,2023-10-27 12:22:03.69,93,-193,-2087,-26,72,-21,-541,-386,-155,463
,493,2023-10-27 12:22:03.70,96,-171,-2087,-65,88,-21,-570,-321,-249,445
,494,2023-10-27 12:22:03.71,94,-164,-2082,-92,94,-24,-605,-348,-257,476
,495,2023-10-27 12:22:03.72,104,-161,-2084,-116,92,-23,-619,-315,-304,467
,496,2023-10-27 12:22:03.73,121,-160,-2089,-135,83,-19,-607,-352,-255,479
,497,2023-10-27 12:22:03.74,117,-158,-2053,-140,74,-21,-642,-290,-352,466
,498,2023-10-27 12:22:03.75,128,-161,-2042,-143,64,-22,-630,-313,-317,471
,499,2023-10-27 12:22:03.76,124,-154,-2038,-140,57,-21,-632,-277,-355,454
,500,2023-10-27 12:22:03.77,139,-157,-2030,-128,53,-20,-602,-323,-279,462
,501,2023-10-27 12:22:03.78,142,-169,-2032,-110,40,-11,-577,-279,-298,428
,502,2023-10-27 12:22:03.79,139,-165,-2034,-91,34,-4,-559,-328,-231,443
,503,2023-10-27 12:22:03.80,135,-169,-2028,-76,23,-1,-602,-370,-232,486
,504,2023-10-27 12:22:03.81,140,-170,-2022,-57,20,9,-588,-414,-174,501
,505,2023-10-27 12:22:03.82,130,-168,-2046,-38,-4,12,-529,-395,-134,462
,506,2023-10-27 12:22:03.83,133,-167,-2073,-26,-8,9,-474,-393,-81,433
,507,2023-10-27 12:22:03.84,113,-159,-2084,-20,-21,14,-406,-223,-183,314
,508,2023-10-27 12:22:03.85,121,-145,-2086,-14,-32,15,-396,-209,-187,302
,509,2023-10-27 12:22:03.86,120,-143,-2088,-13,-50,2,-280,-7,-273,143
,510,2023-10-27 12:22:03.87,108,-134,-2098,-11,-53,-5,-291,-72,-219,181
,511,2023-10-27 12:22:03.88,103,-142,-2100,-10,-61,-21,-265,0,-265,132
,512,2023-10-27 12:22:03.89,81,-153,-2089,-2,-69,-25,-315,-120,-195,217
,513,2023-10-27 12:22:03.90,65,-165,-2073,7,-86,-29,-313,-22,-291,167
,514,2023-10-27 12:22:03.91,70,-163,-2061,13,-94,-29,-342,-111,-231,226
,515,2023-10-27 12:22:03.92,58,-180,-2040,14,-104,-26,-342,11,-353,165
,516,2023-10-27 12:22:03.93,59,-182,-2005,15,-94,-32,-365,-95,-270,230
,517,2023-10-27 12:22:03.94,63,-193,-2010,20,-78,-34,-420,-37,-383,228
,518,2023-10-27 12:22:03.95,60,-202,-2016,20,-57,-34,-414,-130,-284,272
,519,2023-10-27 12:22:03.96,52,-202,-2002,24,-41,-30,-334,-20,-314,177
,520,2023-10-27 12:22:03.97,61,-193,-2022,31,-26,-27,-311,-100,-211,205
,521,2023-10-27 12:22:03.98,57,-194,-2014,30,-14,-24,-381,11,-392,185
,522,2023-10-27 12:22:03.99,51,-187,-2023,24,3,-14,-401,-89,-312,245
,523,2023-10-27 12:22:04.00,30,-194,-2036,21,7,-1,-471,-44,-427,257
,524,2023-10-27 12:22:04.01,38,-179,-2049,8,1,9,-421,-132,-289,276
,525,2023-10-27 12:22:04.02,30,-179,-2039,-5,-3,23,-370,-32,-338,201
,526,2023-10-27 12:22:04.03,41,-180,-2046,-21,-8,30,-297,-100,-197,198
,527,2023-10-27 12:22:04.04,36,-167,-2047,-39,4,39,-252,30,-282,111
,528,2023-10-27 12:22:04.05,43,-164,-2060,-60,10,45,-254,-54,-200,154
,529,2023-10-27 12:22:04.06,44,-166,-2058,-75,12,58,-312,21,-333,145
,530,2023-10-27 12:22:04.07,48,-161,-2066,-88,17,68,-366,-136,-230,251
,531,2023-10-27 12:22:04.08,48,-162,-2055,-100,20,74,-642,-287,-355,464
,532,2023-10-27 12:22:04.09,62,-154,-2061,-110,24,78,-622,-379,-243,500
,533,2023-10-27 12:22:04.10,53,-154,-2058,-118,41,81,-705,-408,-297,556
,534,2023-10-27 12:22:04.11,62,-162,-2066,-121,45,85,-588,-418,-170,503
,535,2023-10-27 12:22:04.12,65,-146,-2058,-112,49,90,-698,-484,-214,591
,536,2023-10-27 12:22:04.13,83,-147,-2046,-101,55,92,-597,-482,-115,539
,537,2023-10-27 12:22:04.14,79,-141,-2060,-93,63,88,-668,-501,-167,584
,538,2023-10-27 12:22:04.15,94,-136,-2059,-86,64,85,-566,-482,-84,524
,539,2023-10-27 12:22:04.16,94,-121,-2056,-67,67,76,-679,-516,-163,597
,540,2023-10-27 12:22:04.17,98,-109,-2054,-54,65,65,-578,-490,-88,534
,541,2023-10-27 12:22:04.18,93,-114,-2056,-45,63,54,-684,-530,-154,607
,542,2023-10-27 12:22:04.19,91,-114,-2046,-30,50,49,-576,-503,-73,539
,543,2023-10-27 12:22:04.20,91,-118,-2060,-6,33,42,-716,-529,-187,622
,544,2023-10-27 12:22:04.21,83,-125,-2049,9,27,38,-595,-480,-115,537
,545,2023-10-27 12:22:04.22,96,-130,-2049,33,9,28,-661,-444,-217,552
,546,2023-10-27 12:22:04.23,95,-135,-2045,45,9,25,-525,-411,-114,468
,547,2023-10-27 12:22:04.24,92,-140,-2055,55,3,23,-621,-453,-168,537
,548,2023-10-27 12:22:04.25,98,-152,-2061,67,-7,20,-509,-437,-72,473
,549,2023-10-27 12:22:04.26,103,-155,-2060,79,-9,16,-605,-434,-171,519
,550,2023-10-27 12:22:04.27,90,-170,-2052,88,-10,15,-469,-407,-62,438
,551,2023-10-27 12:22:04.28,100,-158,-2057,94,-12,13,-520,-454,-66,487
,552,2023-10-27 12:22:04.29,99,-166,-2056,99,-14,11,-427,-452,25,439
,553,2023-10-27 12:22:04.30,93,-172,-2054,98,-6,10,-599,-505,-94,552
,554,2023-10-27 12:22:04.31,74,-183,-2057,99,-11,11,-536,-474,-62,505
,555,2023-10-27 12:22:04.32,81,-191,-2054,99,-15,11,-739,-508,-231,623
,556,2023-10-27 12:22:04.33,77,-186,-2055,99,-15,16,-621,-457,-164,539
,557,2023-10-27 12:22:04.34,86,-184,-2034,98,-29,14,-743,-449,-294,596
,558,2023-10-27 12:22:04.35,60,-196,-2035,93,-17,22,-588,-415,-173,501
,559,2023-10-27 12:22:04.36,80,-196,-2048,82,-20,23,-699,-451,-248,575
,560,2023-10-27 12:22:04.37,75,-199,-2048,74,-12,33,-552,-425,-127,488
,561,2023-10-27 12:22:04.38,72,-203,-2038,70,-24,39,-666,-466,-200,566
,562,2023-10-27 12:22:04.39,61,-209,-2036,66,-15,50,-543,-429,-114,486
,563,2023-10-27 12:22:04.40,65,-199,-2032,60,-17,57,-703,-438,-265,570
,564,2023-10-27 12:22:04.41,64,-209,-2035,48,-10,60,-580,-402,-178,491
,565,2023-10-27 12:22:04.42,63,-216,-2048,44,-18,67,-723,-447,-276,585
,566,2023-10-27 12:22:04.43,64,-206,-2035,40,-14,69,-558,-441,-117,499
,567,2023-10-27 12:22:04.44,64,-212,-2031,39,-3,80,-636,-515,-121,575
,568,2023-10-27 12:22:04.45,78,-201,-2049,32,7,74,-469,-468,-1,468
,569,2023-10-27 12:22:04.46,89,-194,-2049,21,20,76,-576,-507,-69,541
,570,2023-10-27 12:22:04.47,80,-195,-2045,12,28,71,-450,-462,12,456
,571,2023-10-27 12:22:04.48,72,-184,-2045,6,36,69,-572,-504,-68,538
,572,2023-10-27 12:22:04.49,78,-176,-2037,-2,28,62,-469,-472,3,470
,573,2023-10-27 12:22:04.50,80,-170,-2032,-12,43,59,-642,-541,-101,591
,574,2023-10-27 12:22:04.51,84,-169,-2042,-23,44,56,-539,-472,-67,505
,575,2023-10-27 12:22:04.52,101,-160,-2044,-36,42,44,-707,-471,-236,589
,576,2023-10-27 12:22:04.53,92,-167,-2053,-42,42,38,-587,-416,-171,501
,577,2023-10-27 12:22:04.54,84,-169,-2059,-39,38,34,-761,-472,-289,616
,578,2023-10-27 12:22:04.55,96,-167,-2054,-40,38,27,-604,-453,-151,528
,579,2023-10-27 12:22:04.56,100,-170,-2053,-43,30,21,-725,-537,-188,631
,580,2023-10-27 12:22:04.57,90,-175,-2056,-40,14,11,-553,-477,-76,515
,581,2023-10-27 12:22:04.58,102,-163,-2062,-35,15,12,-674,-512,-162,593
,582,2023-10-27 12:22:04.59,99,-168,-2050,-34,9,7,-552,-477,-75,514
,583,2023-10-27 12:22:04.60,102,-161,-2049,-29,16,-1,-725,-555,-170,640
,584,2023-10-27 12:22:04.61,102,-160,-2042,-26,11,-4,-570,-498,-72,534
,585,2023-10-27 12:22:04.62,110,-153,-2043,-25,12,-6,-677,-520,-157,598
,586,2023-10-27 12:22:04.63,113,-163,-2057,-20,18,-4,-530,-473,-57,501
,587,2023-10-27 12:22:04.64,107,-169,-2055,-22,6,-12,-674,-543,-131,608
,588,2023-10-27 12:22:04.65,113,-157,-2046,-16,7,-11,-554,-490,-64,522
,589,2023-10-27 12:22:04.66,99,-156,-2049,-15,-2,-15,-712,-526,-186,619
,590,2023-10-27 12:22:04.67,100,-150,-2061,-22,3,-16,-571,-473,-98,522
,591,2023-10-27 12:22:04.68,105,-146,-2045,-34,-6,-16,-697,-525,-172,611
,592,2023-10-27 12:22:04.69,112,-157,-2061,-38,-3,-17,-556,-500,-56,528
,593,2023-10-27 12:22:04.70,103,-133,-2075,-43,-6,-13,-698,-573,-125,635
,594,2023-10-27 12:22:04.71,100,-143,-2057,-56,-8,-18,-563,-527,-36,545
,595,2023-10-27 12:22:04.72,103,-139,-2072,-63,4,-14,-697,-568,-129,632
,596,2023-10-27 12:22:04.73,92,-138,-2063,-72,-7,-16,-559,-502,-57,530
,597,2023-10-27 12:22:04.74,105,-140,-2069,-73,-9,-16,-688,-535,-153,611
,598,2023-10-27 12:22:04.75,101,-141,-2081,-79,-3,-17,-579,-495,-84,537
,599,2023-10-27 12:22:04.76,97,-143,-2070,-87,-9,-14,-739,-543,-196,641
,600,2023-10-27 12:22:04.77,97,-150,-2048,-86,-4,-13,-623,-508,-115,565
,601,2023-10-27 12:22:04.78,102,-147,-2069,-81,-4,-13,-758,-561,-197,659
,602,2023-10-27 12:22:04.79,98,-150,-2054,-88,6,-14,-616,-563,-53,589
,603,2023-10-27 12:22:04.80,111,-159,-2052,-87,14,-19,-730,-637,-93,683
,604,2023-10-27 12:22:04.81,118,-157,-2060,-76,16,-23,-568,-579,11,573
,605,2023-10-27 12:22:04.82,115,-140,-2050,-66,20,-20,-675,-593,-82,634
,606,2023-10-27 12:22:04.83,115,-151,-2023,-62,25,-24,-554,-599,45,576
,607,2023-10-27 12:22:04.84,105,-155,-2039,-58,14,-24,-697,-700,3,698
,608,2023-10-27 12:22:04.85,86,-145,-2030,-54,12,-25,-615,-710,95,662
,609,2023-10-27 12:22:04.86,100,-144,-2039,-49,3,-27,-761,-763,2,762
,610,2023-10-27 12:22:04.87,99,-144,-2011,-48,5,-36,-619,-710,91,664
,611,2023-10-27 12:22:04.88,116,-149,-2039,-48,4,-40,-711,-738,27,724
,612,2023-10-27 12:22:04.89,115,-149,-2047,-40,-2,-44,-604,-684,80,644
,613,2023-10-27 12:22:04.90,99,-147,-2053,-33,3,-41,-739,-707,-32,723
,614,2023-10-27 12:22:04.91,94,-145,-2053,-31,-13,-44,-645,-629,-16,637
,615,2023-10-27 12:22:04.92,81,-143,-2056,-34,-21,-44,-761,-630,-131,695
,616,2023-10-27 12:22:04.93,87,-145,-2072,-31,-38,-44,-593,-516,-77,554
,617,2023-10-27 12:22:04.94,86,-147,-2091,-29,-49,-46,-644,-485,-159,564
,618,2023-10-27 12:22:04.95,81,-145,-2080,-28,-63,-45,-532,-424,-108,478
,619,2023-10-27 12:22:04.96,77,-144,-2072,-25,-64,-51,-647,-451,-196,549
,620,2023-10-27 12:22:04.97,69,-150,-2055,-20,-66,-51,-574,-447,-127,510
,621,2023-10-27 12:22:04.98,61,-157,-2050,-19,-70,-54,-686,-490,-196,588
,622,2023-10-27 12:22:04.99,68,-166,-2049,-15,-71,-53,-605,-495,-110,550
,623,2023-10-27 12:22:05.00,67,-156,-2048,-17,-77,-57,-698,-543,-155,620
,624,2023-10-27 12:22:05.01,56,-134,-2015,-15,-70,-53,-599,-467,-132,533
,625,2023-10-27 12:22:05.02,54,-147,-2013,-20,-69,-55,-683,-452,-231,567
,626,2023-10-27 12:22:05.03,29,-151,-2054,-29,-86,-48,-591,-427,-164,509
,627,2023-10-27 12:22:05.04,25,-133,-2048,-35,-105,-48,-663,-473,-190,568
,628,2023-10-27 12:22:05.05,46,-137,-2040,-29,-103,-39,-565,-431,-134,498
,629,2023-10-27 12:22:05.06,29,-129,-2037,-31,-104,-35,-647,-452,-195,549
,630,2023-10-27 12:22:05.07,18,-126,-2030,-41,-107,-34,-537,-450,-87,493
,631,2023-10-27 12:22:05.08,31,-124,-2036,-43,-112,-29,-596,-486,-110,541
,632,2023-10-27 12:22:05.09,26,-131,-2034,-41,-114,-27,-591,-531,-60,561
,633,2023-10-27 12:22:05.10,20,-130,-2050,-43,-117,-20,-719,-586,-133,652
,634,2023-10-27 12:22:05.11,14,-143,-2074,-48,-114,-11,-651,-552,-99,601
,635,2023-10-27 12:22:05.12,27,-116,-2065,-51,-124,-1,-688,-547,-141,617
,636,2023-10-27 12:22:05.13,22,-122,-2041,-50,-110,10,-570,-526,-44,548
,637,2023-10-27 12:22:05.14,26,-119,-2040,-60,-96,14,-609,-547,-62,578
,638,2023-10-27 12:22:05.15,23,-117,-2039,-66,-68,28,-579,-557,-22,568
,639,2023-10-27 12:22:05.16,2,-126,-2046,-63,-62,35,-665,-573,-92,619
,640,2023-10-27 12:22:05.17,12,-102,-2047,-65,-40,42,-557,-525,-32,541
,641,2023-10-27 12:22:05.18,2,-109,-2065,-84,-28,51,-576,-517,-59,546
,642,2023-10-27 12:22:05.19,-13,-87,-2090,-99,-35,55,-506,-492,-14,499
,643,2023-10-27 12:22:05.20,-4,-81,-2090,-106,-41,56,-570,-503,-67,536
,644,2023-10-27 12:22:05.21,-10,-59,-2083,-114,-48,56,-484,-465,-19,474
,645,2023-10-27 12:22:05.22,-12,-48,-2043,-122,-48,53,-523,-472,-51,497
,646,2023-10-27 12:22:05.23,-17,-61,-2022,-129,-41,47,-490,-438,-52,464
,647,2023-10-27 12:22:05.24,-5,-57,-2023,-130,-41,43,-562,-453,-109,507
,648,2023-10-27 12:22:05.25,-19,-64,-2011,-128,-27,42,-595,-457,-138,526
,649,2023-10-27 12:22:05.26,-16,-66,-2003,-128,-11,35,-662,-489,-173,575
,650,2023-10-27 12:22:05.27,-15,-71,-2029,-125,4,32,-605,-458,-147,531
,651,2023-10-27 12:22:05.28,-5,-60,-2056,-120,-2,31,-604,-460,-144,532
,652,2023-10-27 12:22:05.29,-8,-53,-2065,-107,7,24,-637,-452,-185,544
,653,2023-10-27 12:22:05.30,4,-42,-2070,-98,11,21,-692,-471,-221,581
,654,2023-10-27 12:22:05.31,14,-48,-2057,-85,23,15,-672,-424,-248,548
,655,2023-10-27 12:22:05.32,19,-64,-2040,-65,30,5,-668,-441,-227,554
,656,2023-10-27 12:22:05.33,42,-74,-2038,-47,48,-1,-675,-559,-116,617
,657,2023-10-27 12:22:05.34,36,-85,-2033,-30,61,-8,-684,-614,-70,649
,658,2023-10-27 12:22:05.35,46,-88,-2042,-9,92,-9,-690,-571,-119,630
,659,2023-10-27 12:22:05.36,39,-86,-2046,6,97,-12,-696,-530,-166,613
,660,2023-10-27 12:22:05.37,45,-87,-2061,22,97,-15,-626,-483,-143,554
,661,2023-10-27 12:22:05.38,31,-83,-2084,31,102,-11,-596,-488,-108,542
,662,2023-10-27 12:22:05.39,34,-77,-2087,34,79,-12,-527,-534,7,530
,663,2023-10-27 12:22:05.40,25,-70,-2073,30,71,-10,-520,-551,31,535
,664,2023-10-27 12:22:05.41,41,-69,-2063,33,55,-3,-526,-586,60,556
,665,2023-10-27 12:22:05.42,42,-73,-2059,34,48,-1,-534,-569,35,551
,666,2023-10-27 12:22:05.43,39,-83,-2054,35,45,6,-524,-556,32,540
,667,2023-10-27 12:22:05.44,39,-98,-2050,35,27,10,-528,-538,10,533
,668,2023-10-27 12:22:05.45,40,-95,-2053,41,21,19,-567,-573,6,570
,669,2023-10-27 12:22:05.46,38,-109,-2058,48,17,28,-577,-572,-5,574
,670,2023-10-27 12:22:05.47,40,-114,-2077,52,9,40,-607,-602,-5,604
,671,2023-10-27 12:22:05.48,40,-112,-2087,53,7,49,-589,-578,-11,583
,672,2023-10-27 12:22:05.49,49,-103,-2088,54,-8,61,-656,-614,-42,635
,673,2023-10-27 12:22:05.50,35,-106,-2081,52,-4,64,-637,-591,-46,614
,674,2023-10-27 12:22:05.51,31,-103,-2073,46,10,76,-639,-654,15,646
,675,2023-10-27 12:22:05.52,33,-118,-2049,45,5,79,-583,-632,49,607
,676,2023-10-27 12:22:05.53,30,-112,-2037,46,3,79,-598,-715,117,656
,677,2023-10-27 12:22:05.54,36,-125,-2034,50,13,93,-564,-681,117,622
,678,2023-10-27 12:22:05.55,39,-113,-2032,46,12,90,-602,-716,114,659
,679,2023-10-27 12:22:05.56,41,-105,-2036,44,24,93,-562,-655,93,608
,680,2023-10-27 12:22:05.57,35,-94,-2049,39,27,95,-573,-683,110,628
,681,2023-10-27 12:22:05.58,39,-87,-2059,29,25,81,-535,-636,101,585
,682,2023-10-27 12:22:05.59,41,-78,-2066,18,37,74,-617,-705,88,661
,683,2023-10-27 12:22:05.60,52,-71,-2074,9,26,65,-588,-667,79,627
,684,2023-10-27 12:22:05.61,47,-61,-2074,-2,19,57,-678,-763,85,720
,685,2023-10-27 12:22:05.62,43,-52,-2062,-14,13,46,-628,-718,90,673
,686,2023-10-27 12:22:05.63,45,-61,-2069,-29,11,37,-692,-778,86,735
,687,2023-10-27 12:22:05.64,38,-54,-2067,-48,14,29,-620,-709,89,664
,688,2023-10-27 12:22:05.65,43,-59,-2065,-63,16,24,-701,-750,49,725
,689,2023-10-27 12:22:05.66,34,-52,-2065,-77,26,24,-629,-679,50,654
,690,2023-10-27 12:22:05.67,44,-43,-2055,-82,25,21,-664,-717,53,690
,691,2023-10-27 12:22:05.68,35,-54,-2068,-91,18,16,-581,-654,73,617
,692,2023-10-27 12:22:05.69,38,-41,-2080,-95,15,18,-680,-680,0,680
,693,2023-10-27 12:22:05.70,47,-36,-2070,-96,5,17,-622,-615,-7,618
,694,2023-10-27 12:22:05.71,42,-32,-2081,-98,1,14,-744,-631,-113,687
,695,2023-10-27 12:22:05.72,48,-26,-2078,-101,-4,6,-658,-582,-76,620
,696,2023-10-27 12:22:05.73,42,-25,-2071,-104,-7,2,-710,-646,-64,678
,697,2023-10-27 12:22:05.74,47,-19,-2065,-100,0,3,-590,-606,16,598
,698,2023-10-27 12:22:05.75,39,-21,-2051,-98,-1,3,-633,-653,20,643
,699,2023-10-27 12:22:05.76,39,-29,-2042,-97,-4,6,-540,-598,58,569
,700,2023-10-27 12:22:05.77,48,-23,-2050,-92,2,9,-664,-676,12,670
,701,2023-10-27 12:22:05.78,41,-36,-2038,-90,2,6,-587,-625,38,606
,702,2023-10-27 12:22:05.79,37,-23,-2028,-85,13,10,-664,-647,-17,655
,703,2023-10-27 12:22:05.80,43,-18,-2042,-76,12,11,-557,-583,26,570
,704,2023-10-27 12:22:05.81,38,-7,-2048,-76,18,10,-627,-683,56,655
,705,2023-10-27 12:22:05.82,37,-3,-2042,-78,18,18,-539,-656,117,597
,706,2023-10-27 12:22:05.83,42,-10,-2035,-73,18,18,-640,-765,125,702
,707,2023-10-27 12:22:05.84,31,-7,-2036,-66,25,22,-548,-699,151,623
,708,2023-10-27 12:22:05.85,51,-21,-2052,-64,25,28,-618,-745,127,681
,709,2023-10-27 12:22:05.86,39,-4,-2048,-64,40,33,-516,-667,151,591
,710,2023-10-27 12:22:05.87,53,3,-2040,-50,43,42,-609,-787,178,698
,711,2023-10-27 12:22:05.88,47,-28,-2031,-48,47,43,-510,-727,217,618
,712,2023-10-27 12:22:05.89,45,-7,-2055,-47,51,46,-595,-803,208,699
,713,2023-10-27 12:22:05.90,52,-16,-2056,-47,60,56,-472,-712,240,592
,714,2023-10-27 12:22:05.91,55,3,-2055,-45,68,58,-483,-772,289,627
,715,2023-10-27 12:22:05.92,45,-16,-2059,-37,75,63,-392,-700,308,546
,716,2023-10-27 12:22:05.93,53,-10,-2066,-30,81,68,-520,-826,306,673
,717,2023-10-27 12:22:05.94,37,-14,-2074,-26,76,72,-450,-753,303,601
,718,2023-10-27 12:22:05.95,44,-24,-2059,-22,85,79,-543,-821,278,682
,719,2023-10-27 12:22:05.96,45,-25,-2057,-21,93,83,-458,-722,264,590
,720,2023-10-27 12:22:05.97,58,-18,-2041,-12,100,90,-603,-819,216,711
,721,2023-10-27 12:22:05.98,55,-16,-2026,-6,96,88,-499,-740,241,619
,722,2023-10-27 12:22:05.99,68,-16,-2029,2,117,92,-590,-845,255,717
,723,2023-10-27 12:22:06.00,74,-21,-2037,6,123,92,-468,-754,286,611
,724,2023-10-27 12:22:06.01,85,-16,-2046,9,136,90,-577,-821,244,699
,725,2023-10-27 12:22:06.02,77,-21,-2053,14,134,93,-483,-720,237,601
,726,2023-10-27 12:22:06.03,79,-13,-2067,17,136,93,-644,-786,142,715
,727,2023-10-27 12:22:06.04,81,-15,-2045,21,135,93,-526,-702,176,614
,728,2023-10-27 12:22:06.05,94,-15,-2041,29,122,87,-607,-801,194,704
,729,2023-10-27 12:22:06.06,82,-21,-2045,34,128,85,-478,-717,239,597
,730,2023-10-27 12:22:06.07,85,-2,-2050,39,124,80,-612,-794,182,703
,731,2023-10-27 12:22:06.08,105,-4,-2047,44,125,77,-494,-714,220,604
,732,2023-10-27 12:22:06.09,101,-11,-2045,50,119,64,-585,-832,247,708
,733,2023-10-27 12:22:06.10,101,-11,-2051,58,120,58,-448,-758,310,603
,734,2023-10-27 12:22:06.11,103,-9,-2059,61,121,50,-553,-862,309,707
,735,2023-10-27 12:22:06.12,121,-11,-2064,62,116,39,-466,-768,302,617
,736,2023-10-27 12:22:06.13,114,-18,-2055,66,106,28,-665,-864,199,764
,737,2023-10-27 12:22:06.14,107,-23,-2063,76,88,18,-549,-769,220,659
,738,2023-10-27 12:22:06.15,125,-33,-2056,88,91,14,-658,-868,210,763
,739,2023-10-27 12:22:06.16,122,-35,-2063,97,78,7,-516,-775,259,645
,740,2023-10-27 12:22:06.17,124,-42,-2066,106,73,-2,-647,-864,217,755
,741,2023-10-27 12:22:06.18,122,-42,-2074,115,67,-5,-517,-776,259,646
,742,2023-10-27 12:22:06.19,120,-47,-2075,118,61,-5,-633,-872,239,752
,743,2023-10-27 12:22:06.20,127,-47,-2066,123,61,-7,-501,-787,286,644
,744,2023-10-27 12:22:06.21,125,-49,-2065,126,60,-6,-619,-869,250,744
,745,2023-10-27 12:22:06.22,132,-64,-2062,129,60,-2,-505,-778,273,641
,746,2023-10-27 12:22:06.23,132,-63,-2064,129,55,0,-676,-880,204,778
,747,2023-10-27 12:22:06.24,126,-79,-2058,128,58,1,-552,-778,226,665
,748,2023-10-27 12:22:06.25,131,-80,-2057,126,55,6,-700,-848,148,774
,749,2023-10-27 12:22:06.26,136,-87,-2057,126,61,10,-571,-750,179,660
,750,2023-10-27 12:22:06.27,127,-84,-2038,128,71,18,-726,-817,91,771
,751,2023-10-27 12:22:06.28,137,-88,-2044,129,71,19,-592,-732,140,662
,752,2023-10-27 12:22:06.29,131,-97,-2048,131,68,20,-732,-811,79,771
,753,2023-10-27 12:22:06.30,134,-91,-2059,134,70,23,-572,-747,175,659
,754,2023-10-27 12:22:06.31,145,-99,-2066,139,69,30,-669,-853,184,761
,755,2023-10-27 12:22:06.32,145,-88,-2054,139,66,27,-540,-776,236,658
,756,2023-10-27 12:22:06.33,153,-77,-2060,135,61,20,-711,-854,143,782
,757,2023-10-27 12:22:06.34,157,-82,-2056,133,75,18,-573,-766,193,669
,758,2023-10-27 12:22:06.35,145,-84,-2046,130,72,13,-692,-843,151,767
,759,2023-10-27 12:22:06.36,143,-92,-2045,134,80,13,-524,-768,244,646
,760,2023-10-27 12:22:06.37,152,-100,-2045,130,65,9,-628,-851,223,739
,761,2023-10-27 12:22:06.38,145,-109,-2046,128,54,8,-471,-772,301,621
,762,2023-10-27 12:22:06.39,159,-99,-2047,127,67,17,-583,-830,247,706
,763,2023-10-27 12:22:06.40,148,-107,-2052,126,58,17,-478,-770,292,624
,764,2023-10-27 12:22:06.41,154,-112,-2058,122,62,16,-646,-874,228,760
,765,2023-10-27 12:22:06.42,151,-105,-2059,113,52,15,-555,-802,247,678
,766,2023-10-27 12:22:06.43,158,-103,-2051,110,46,9,-713,-853,140,783
,767,2023-10-27 12:22:06.44,150,-112,-2058,107,50,18,-541,-769,228,655
,768,2023-10-27 12:22:06.45,144,-126,-2061,105,41,17,-616,-836,220,726
,769,2023-10-27 12:22:06.46,155,-121,-2051,103,38,21,-460,-753,293,606
,770,2023-10-27 12:22:06.47,155,-117,-2051,103,32,24,-585,-786,201,685
,771,2023-10-27 12:22:06.48,152,-119,-2054,101,38,26,-474,-726,252,600
,772,2023-10-27 12:22:06.49,166,-115,-2059,99,33,25,-607,-793,186,700
,773,2023-10-27 12:22:06.50,168,-114,-2053,98,30,23,-478,-736,258,607
,774,2023-10-27 12:22:06.51,154,-125,-2057,98,32,21,-602,-786,184,694
,775,2023-10-27 12:22:06.52,171,-126,-2051,96,27,19,-464,-732,268,598
,776,2023-10-27 12:22:06.53,168,-130,-2056,100,32,23,-566,-786,220,676
,777,2023-10-27 12:22:06.54,166,-133,-2062,102,30,22,-462,-755,293,608
,778,2023-10-27 12:22:06.55,165,-128,-2058,105,23,21,-602,-828,226,715
,779,2023-10-27 12:22:06.56,156,-129,-2052,106,27,23,-462,-773,311,617
,780,2023-10-27 12:22:06.57,171,-136,-2046,107,33,19,-554,-810,256,682
,781,2023-10-27 12:22:06.58,158,-136,-2046,111,27,16,-450,-744,294,597
,782,2023-10-27 12:22:06.59,157,-145,-2042,117,22,12,-603,-784,181,693
,783,2023-10-27 12:22:06.60,169,-145,-2032,124,28,8,-491,-738,247,614
,784,2023-10-27 12:22:06.61,166,-161,-2043,131,34,7,-599,-784,185,691
,785,2023-10-27 12:22:06.62,177,-159,-2044,136,31,1,-457,-752,295,604
,786,2023-10-27 12:22:06.63,174,-166,-2040,147,42,7,-555,-806,251,680
,787,2023-10-27 12:22:06.64,175,-170,-2047,158,39,12,-473,-790,317,631
,788,2023-10-27 12:22:06.65,163,-175,-2049,162,54,16,-608,-840,232,724
,789,2023-10-27 12:22:06.66,171,-181,-2036,167,55,25,-526,-792,266,659
,790,2023-10-27 12:22:06.67,162,-181,-2036,169,58,32,-642,-810,168,726
,791,2023-10-27 12:22:06.68,172,-193,-2025,171,71,42,-478,-760,282,619
,792,2023-10-27 12:22:06.69,168,-197,-2037,174,71,51,-530,-777,247,653
,793,2023-10-27 12:22:06.70,166,-206,-2028,175,84,66,-398,-688,290,543
,794,2023-10-27 12:22:06.71,160,-222,-2046,179,86,80,-506,-672,166,589
,795,2023-10-27 12:22:06.72,162,-229,-2053,179,83,96,-459,-631,172,545
,796,2023-10-27 12:22:06.73,155,-235,-2064,182,87,124,-582,-655,73,618
,797,2023-10-27 12:22:06.74,165,-233,-2054,177,85,143,-526,-586,60,556
,798,2023-10-27 12:22:06.75,172,-231,-2045,173,81,164,-621,-573,-48,597
,799,2023-10-27 12:22:06.76,172,-247,-2051,168,82,191,-474,-572,98,523
,800,2023-10-27 12:22:06.77,167,-246,-2040,155,98,213,-517,-626,109,571
,801,2023-10-27 12:22:06.78,175,-244,-2026,146,110,240,-450,-610,160,530
,802,2023-10-27 12:22:06.79,177,-248,-2031,138,114,259,-561,-620,59,590
,803,2023-10-27 12:22:06.80,173,-249,-2032,131,120,275,-530,-589,59,559
,804,2023-10-27 12:22:06.81,179,-252,-2039,122,132,296,-628,-604,-24,616
,805,2023-10-27 12:22:06.82,171,-243,-2046,109,130,312,-540,-606,66,573
,806,2023-10-27 12:22:06.83,178,-236,-2043,98,131,326,-596,-637,41,616
,807,2023-10-27 12:22:06.84,180,-237,-2038,83,126,330,-483,-656,173,569
,808,2023-10-27 12:22:06.85,186,-240,-2046,72,129,341,-530,-675,145,602
,809,2023-10-27 12:22:06.86,183,-233,-2044,60,125,347,-445,-642,197,543
,810,2023-10-27 12:22:06.87,194,-238,-2048,48,128,352,-510,-625,115,567
,811,2023-10-27 12:22:06.88,200,-242,-2040,42,126,363,-444,-642,198,543
,812,2023-10-27 12:22:06.89,198,-246,-2029,37,126,365,-516,-672,156,594
,813,2023-10-27 12:22:06.90,208,-241,-2032,30,126,372,-363,-661,298,512
,814,2023-10-27 12:22:06.91,199,-249,-2021,19,123,375,-397,-644,247,520
,815,2023-10-27 12:22:06.92,211,-259,-2042,16,126,390,-358,-646,288,502
,816,2023-10-27 12:22:06.93,222,-256,-2032,14,121,398,-462,-651,189,556
,817,2023-10-27 12:22:06.94,214,-252,-2046,17,118,408,-420,-663,243,541
,818,2023-10-27 12:22:06.95,225,-237,-2047,15,108,415,-483,-661,178,572
,819,2023-10-27 12:22:06.96,230,-228,-2051,8,119,417,-462,-638,176,550
,820,2023-10-27 12:22:06.97,234,-226,-2037,1,110,415,-528,-615,87,571
,821,2023-10-27 12:22:06.98,224,-223,-2039,-5,124,419,-436,-654,218,545
,822,2023-10-27 12:22:06.99,229,-216,-2036,-15,121,416,-448,-663,215,555
,823,2023-10-27 12:22:07.00,225,-219,-2045,-21,110,412,-316,-679,363,497
,824,2023-10-27 12:22:07.01,234,-220,-2044,-17,94,408,-357,-655,298,506
,825,2023-10-27 12:22:07.02,237,-218,-2038,-17,84,404,-320,-657,337,488
,826,2023-10-27 12:22:07.03,248,-215,-2041,-16,77,400,-397,-631,234,514
,827,2023-10-27 12:22:07.04,253,-224,-2049,-17,78,386,-397,-642,245,519
,828,2023-10-27 12:22:07.05,237,-225,-2052,-20,77,385,-459,-630,171,544
,829,2023-10-27 12:22:07.06,225,-223,-2051,-17,68,379,-381,-651,270,516
,830,2023-10-27 12:22:07.07,243,-222,-2042,-14,79,375,-406,-636,230,521
,831,2023-10-27 12:22:07.08,256,-230,-2037,-8,71,374,-378,-636,258,507
,832,2023-10-27 12:22:07.09,233,-233,-2051,-1,62,369,-426,-605,179,515
,833,2023-10-27 12:22:07.10,229,-232,-2054,4,59,376,-409,-633,224,521
,834,2023-10-27 12:22:07.11,245,-241,-2042,4,62,376,-441,-623,182,532
,835,2023-10-27 12:22:07.12,252,-237,-2046,5,67,379,-378,-617,239,497
,836,2023-10-27 12:22:07.13,254,-230,-2034,6,66,381,-393,-591,198,492
,837,2023-10-27 12:22:07.14,246,-232,-2038,17,66,381,-338,-646,308,492
,838,2023-10-27 12:22:07.15,255,-239,-2043,23,61,385,-364,-646,282,505
,839,2023-10-27 12:22:07.16,241,-240,-2043,22,59,386,-253,-702,449,477
,840,2023-10-27 12:22:07.17,245,-239,-2049,18,61,394,-283,-673,390,478
,841,2023-10-27 12:22:07.18,239,-235,-2041,18,64,397,-277,-675,398,476
,842,2023-10-27 12:22:07.19,244,-233,-2042,24,45,398,-344,-630,286,487
,843,2023-10-27 12:22:07.20,230,-229,-2055,26,33,398,-314,-653,339,483
,844,2023-10-27 12:22:07.21,241,-237,-2037,24,28,402,-346,-625,279,485
,845,2023-10-27 12:22:07.22,242,-233,-2036,23,28,399,-308,-632,324,470
,846,2023-10-27 12:22:07.23,236,-243,-2046,22,31,398,-332,-595,263,463
,847,2023-10-27 12:22:07.24,239,-132,-2033,29,17,395,-315,-607,292,461
,848,2023-10-27 12:22:07.25,237,-243,-2033,27,25,387,-343,-579,236,461
,849,2023-10-27 12:22:07.26,233,-230,-2048,23,11,382,-358,-578,220,468
,850,2023-10-27 12:22:07.27,236,-232,-2045,28,4,376,-377,-554,177,465
,851,2023-10-27 12:22:07.28,224,-235,-2048,34,-10,367,-360,-604,244,482
,852,2023-10-27 12:22:07.29,229,-219,-2043,33,-18,358,-354,-590,236,472
,853,2023-10-27 12:22:07.30,233,-222,-2030,28,-16,348,-299,-602,303,450
,854,2023-10-27 12:22:07.31,225,-223,-2024,23,-17,334,-309,-562,253,435
,855,2023-10-27 12:22:07.32,228,-232,-2023,23,-10,320,-323,-543,220,433
,856,2023-10-27 12:22:07.33,227,-233,-2024,27,-14,305,-344,-515,171,429
