// Data mode  : Full
// Data quality  : High
// Acceleration sensor's range  : 16g
// Gyroscope sensor's range  : 2000dps
//
//ARTIFACT,NUM,DATE,ACC_X,ACC_Y,ACC_Z,GYRO_X,GYRO_Y,GYRO_Z,EOG_L,EOG_R,EOG_H,EOG_V
,1,2023-10-20 13:53:26.45,267,-297,-2020,66,-9,18,-482,-474,-8,478
,2,2023-10-20 13:53:26.46,251,-304,-2044,66,-4,18,-452,-377,-75,414
,3,2023-10-20 13:53:26.47,262,-314,-2013,73,0,23,-486,-460,-26,473
,4,2023-10-20 13:53:26.48,253,-283,-2089,67,-3,27,-454,-336,-118,395
,5,2023-10-20 13:53:26.49,260,-289,-2031,62,-3,32,-495,-420,-75,457
,6,2023-10-20 13:53:26.50,280,-319,-2003,63,3,30,-438,-328,-110,383
,7,2023-10-20 13:53:26.51,272,-325,-2016,61,7,32,-488,-443,-45,465
,8,2023-10-20 13:53:26.52,264,-315,-2006,66,14,32,-431,-366,-65,398
,9,2023-10-20 13:53:26.53,263,-323,-2034,68,20,45,-498,-471,-27,484
,10,2023-10-20 13:53:26.54,298,-318,-2017,68,16,58,-421,-389,-32,405
,11,2023-10-20 13:53:26.55,249,-322,-2068,85,22,61,-487,-450,-37,468
,12,2023-10-20 13:53:26.56,278,-308,-2032,113,26,56,-419,-350,-69,384
,13,2023-10-20 13:53:26.57,263,-278,-1993,161,24,35,-514,-399,-115,456
,14,2023-10-20 13:53:26.58,258,-272,-2001,171,8,2,-422,-331,-91,376
,15,2023-10-20 13:53:26.59,273,-301,-2023,122,-4,-7,-519,-425,-94,472
,16,2023-10-20 13:53:26.60,259,-295,-2036,84,-5,-28,-411,-388,-23,399
,17,2023-10-20 13:53:26.61,263,-333,-2029,79,-17,-43,-527,-424,-103,475
,18,2023-10-20 13:53:26.62,276,-358,-2015,78,-6,-44,-416,-346,-70,381
,19,2023-10-20 13:53:26.63,272,-360,-2002,88,0,-42,-537,-397,-140,467
,20,2023-10-20 13:53:26.64,268,-348,-2011,92,11,-39,-407,-360,-47,383
,21,2023-10-20 13:53:26.65,292,-330,-2019,89,15,-33,-537,-406,-131,471
,22,2023-10-20 13:53:26.66,273,-304,-2037,73,16,-33,-408,-366,-42,387
,23,2023-10-20 13:53:26.67,281,-311,-2040,42,17,-34,-552,-362,-190,457
,24,2023-10-20 13:53:26.68,282,-317,-2033,12,12,-33,-407,-319,-88,363
,25,2023-10-20 13:53:26.69,294,-327,-2040,-9,9,-34,-552,-353,-199,452
,26,2023-10-20 13:53:26.70,292,-331,-2032,-23,8,-26,-393,-354,-39,373
,27,2023-10-20 13:53:26.71,299,-339,-2034,-30,7,-14,-552,-369,-183,460
,28,2023-10-20 13:53:26.72,293,-314,-2046,-28,1,-8,-396,-348,-48,372
,29,2023-10-20 13:53:26.73,293,-311,-2037,-26,-16,-14,-558,-311,-247,434
,30,2023-10-20 13:53:26.74,291,-324,-2036,-31,-29,-10,-379,-297,-82,338
,31,2023-10-20 13:53:26.75,276,-312,-2044,-31,-35,-4,-560,-318,-242,439
,32,2023-10-20 13:53:26.76,287,-315,-2037,-25,-48,-2,-376,-347,-29,361
,33,2023-10-20 13:53:26.77,285,-308,-2031,-27,-56,4,-569,-379,-190,474
,34,2023-10-20 13:53:26.78,270,-322,-2037,-43,-66,21,-380,-404,24,392
,35,2023-10-20 13:53:26.79,276,-348,-2033,-62,-69,48,-576,-368,-208,472
,36,2023-10-20 13:53:26.80,279,-370,-2031,-68,-67,78,-378,-364,-14,371
,37,2023-10-20 13:53:26.81,262,-364,-2025,-45,-59,98,-579,-330,-249,454
,38,2023-10-20 13:53:26.82,263,-346,-2027,-15,-46,120,-375,-357,-18,366
,39,2023-10-20 13:53:26.83,246,-310,-2035,22,-42,138,-580,-336,-244,458
,40,2023-10-20 13:53:26.84,235,-277,-2045,56,-49,141,-360,-365,5,362
,41,2023-10-20 13:53:26.85,245,-238,-2081,46,-58,134,-585,-293,-292,439
,42,2023-10-20 13:53:26.86,233,-287,-2015,14,-58,122,-368,-323,-45,345
,43,2023-10-20 13:53:26.87,245,-291,-2020,2,-49,115,-597,-312,-285,454
,44,2023-10-20 13:53:26.88,238,-338,-1994,4,-50,111,-355,-381,26,368
,45,2023-10-20 13:53:26.89,211,-348,-2004,8,-50,113,-569,-333,-236,451
,46,2023-10-20 13:53:26.90,232,-337,-2009,12,-49,124,-338,-368,30,353
,47,2023-10-20 13:53:26.91,225,-344,-2019,12,-35,142,-581,-301,-280,441
,48,2023-10-20 13:53:26.92,232,-351,-2018,13,-28,161,-349,-367,18,358
,49,2023-10-20 13:53:26.93,242,-350,-2005,11,-24,174,-592,-326,-266,459
,50,2023-10-20 13:53:26.94,225,-356,-2016,10,-17,188,-341,-404,63,372
,51,2023-10-20 13:53:26.95,217,-359,-2035,4,-15,205,-583,-341,-242,462
,52,2023-10-20 13:53:26.96,223,-353,-2028,3,-9,225,-336,-400,64,368
,53,2023-10-20 13:53:26.97,209,-334,-2021,4,-7,232,-597,-309,-288,453
,54,2023-10-20 13:53:26.98,201,-338,-2015,5,-14,234,-351,-381,30,366
,55,2023-10-20 13:53:26.99,214,-337,-2009,7,-10,240,-606,-317,-289,461
,56,2023-10-20 13:53:27.00,207,-335,-2019,4,-11,242,-350,-414,64,382
,57,2023-10-20 13:53:27.01,217,-337,-2001,-4,-4,246,-604,-326,-278,465
,58,2023-10-20 13:53:27.02,217,-331,-2017,-17,-1,246,-335,-409,74,372
,59,2023-10-20 13:53:27.03,220,-322,-2018,-32,11,245,-600,-296,-304,448
,60,2023-10-20 13:53:27.04,210,-320,-2021,-46,17,249,-333,-380,47,356
,61,2023-10-20 13:53:27.05,228,-324,-2009,-57,23,249,-601,-286,-315,443
,62,2023-10-20 13:53:27.06,212,-328,-2004,-60,30,253,-330,-394,64,362
,63,2023-10-20 13:53:27.07,234,-316,-2024,-61,28,256,-597,-304,-293,450
,64,2023-10-20 13:53:27.08,237,-297,-2028,-73,30,254,-334,-410,76,372
,65,2023-10-20 13:53:27.09,232,-282,-2027,-83,29,251,-608,-292,-316,450
,66,2023-10-20 13:53:27.10,237,-280,-2016,-91,27,243,-327,-394,67,360
,67,2023-10-20 13:53:27.11,230,-275,-2021,-102,33,237,-596,-279,-317,437
,68,2023-10-20 13:53:27.12,233,-270,-2027,-108,32,224,-320,-401,81,360
,69,2023-10-20 13:53:27.13,225,-271,-2031,-109,40,204,-610,-309,-301,459
,70,2023-10-20 13:53:27.14,234,-269,-2031,-108,42,190,-336,-428,92,382
,71,2023-10-20 13:53:27.15,233,-259,-2032,-105,41,175,-608,-317,-291,462
,72,2023-10-20 13:53:27.16,224,-253,-2032,-102,42,163,-335,-432,97,383
,73,2023-10-20 13:53:27.17,230,-259,-2036,-102,44,149,-596,-279,-317,437
,74,2023-10-20 13:53:27.18,231,-265,-2045,-104,40,136,-326,-396,70,361
,75,2023-10-20 13:53:27.19,239,-257,-2045,-101,36,126,-599,-274,-325,436
,76,2023-10-20 13:53:27.20,222,-253,-2036,-103,35,115,-326,-423,97,374
,77,2023-10-20 13:53:27.21,230,-263,-2022,-103,40,108,-593,-298,-295,445
,78,2023-10-20 13:53:27.22,229,-251,-2006,-83,33,94,-303,-440,137,371
,79,2023-10-20 13:53:27.23,232,-263,-1997,-68,29,86,-566,-305,-261,435
,80,2023-10-20 13:53:27.24,225,-302,-2036,-91,33,101,-290,-441,151,365
,81,2023-10-20 13:53:27.25,233,-308,-2034,-98,35,116,-560,-296,-264,428
,82,2023-10-20 13:53:27.26,234,-288,-2042,-84,32,124,-288,-435,147,361
,83,2023-10-20 13:53:27.27,229,-312,-2030,-90,28,146,-560,-288,-272,424
,84,2023-10-20 13:53:27.28,227,-294,-2046,-107,38,169,-292,-441,149,366
,85,2023-10-20 13:53:27.29,234,-286,-2032,-115,40,184,-556,-291,-265,423
,86,2023-10-20 13:53:27.30,226,-259,-2061,-120,49,220,-285,-439,154,362
,87,2023-10-20 13:53:27.31,220,-255,-2051,-128,45,235,-551,-279,-272,415
,88,2023-10-20 13:53:27.32,232,-230,-2051,-127,37,236,-292,-431,139,361
,89,2023-10-20 13:53:27.33,210,-254,-2079,-150,20,252,-553,-286,-267,419
,90,2023-10-20 13:53:27.34,204,-212,-2081,-164,11,252,-288,-441,153,364
,91,2023-10-20 13:53:27.35,210,-190,-2106,-164,-15,243,-542,-274,-268,408
,92,2023-10-20 13:53:27.36,241,-185,-2069,-176,-27,227,-288,-425,137,356
,93,2023-10-20 13:53:27.37,243,-212,-2009,-205,-14,213,-538,-264,-274,401
,94,2023-10-20 13:53:27.38,224,-224,-2045,-214,3,215,-278,-425,147,351
,95,2023-10-20 13:53:27.39,200,-177,-2094,-237,-7,240,-524,-254,-270,389
,96,2023-10-20 13:53:27.40,217,-178,-2095,-279,-21,263,-290,-419,129,354
,97,2023-10-20 13:53:27.41,242,-169,-2036,-290,-35,260,-539,-269,-270,404
,98,2023-10-20 13:53:27.42,222,-160,-2021,-283,-31,258,-308,-425,117,366
,99,2023-10-20 13:53:27.43,226,-187,-2013,-267,-28,275,-541,-252,-289,396
,100,2023-10-20 13:53:27.44,225,-188,-2014,-240,-13,281,-307,-406,99,356
,101,2023-10-20 13:53:27.45,218,-180,-2044,-189,-23,278,-527,-235,-292,381
,102,2023-10-20 13:53:27.46,218,-183,-2046,-167,-19,283,-304,-407,103,355
,103,2023-10-20 13:53:27.47,208,-177,-2034,-139,-20,290,-520,-247,-273,383
,104,2023-10-20 13:53:27.48,193,-137,-2073,-121,-28,293,-305,-416,111,360
,105,2023-10-20 13:53:27.49,213,-152,-2055,-112,-46,290,-523,-247,-276,385
,106,2023-10-20 13:53:27.50,186,-140,-2049,-100,-49,272,-313,-394,81,353
,107,2023-10-20 13:53:27.51,191,-137,-2059,-98,-33,264,-506,-213,-293,359
,108,2023-10-20 13:53:27.52,199,-134,-2052,-102,-23,258,-302,-385,83,343
,109,2023-10-20 13:53:27.53,196,-113,-2041,-87,-27,235,-495,-230,-265,362
,110,2023-10-20 13:53:27.54,200,-122,-2059,-70,-26,213,-321,-419,98,370
,111,2023-10-20 13:53:27.55,200,-149,-2061,-59,-25,208,-502,-252,-250,377
,112,2023-10-20 13:53:27.56,194,-131,-2056,-31,-22,194,-322,-404,82,363
,113,2023-10-20 13:53:27.57,196,-106,-2058,-6,-16,173,-499,-219,-280,359
,114,2023-10-20 13:53:27.58,204,-133,-2039,7,-3,157,-318,-380,62,349
,115,2023-10-20 13:53:27.59,196,-137,-2045,16,23,139,-479,-229,-250,354
,116,2023-10-20 13:53:27.60,206,-140,-2036,33,31,121,-321,-392,71,356
,117,2023-10-20 13:53:27.61,208,-142,-2053,60,27,110,-480,-224,-256,352
,118,2023-10-20 13:53:27.62,201,-149,-2029,77,29,91,-333,-400,67,366
,119,2023-10-20 13:53:27.63,212,-171,-2026,92,36,78,-485,-256,-229,370
,120,2023-10-20 13:53:27.64,201,-182,-2048,98,41,69,-335,-405,70,370
,121,2023-10-20 13:53:27.65,197,-182,-2066,102,35,65,-468,-226,-242,347
,122,2023-10-20 13:53:27.66,194,-157,-2065,114,20,51,-346,-380,34,363
,123,2023-10-20 13:53:27.67,191,-136,-2055,137,2,24,-471,-231,-240,351
,124,2023-10-20 13:53:27.68,185,-136,-2052,152,-13,-8,-354,-393,39,373
,125,2023-10-20 13:53:27.69,200,-150,-2027,155,-11,-51,-469,-242,-227,355
,126,2023-10-20 13:53:27.70,196,-137,-2020,152,3,-100,-357,-400,43,378
,127,2023-10-20 13:53:27.71,214,-168,-2024,152,11,-134,-461,-252,-209,356
,128,2023-10-20 13:53:27.72,214,-180,-2011,146,23,-164,-367,-399,32,383
,129,2023-10-20 13:53:27.73,208,-206,-2025,143,38,-187,-465,-252,-213,358
,130,2023-10-20 13:53:27.74,205,-217,-2048,142,49,-199,-374,-400,26,387
,131,2023-10-20 13:53:27.75,219,-218,-2055,139,53,-202,-443,-260,-183,351
,132,2023-10-20 13:53:27.76,215,-222,-2048,144,43,-211,-363,-432,69,397
,133,2023-10-20 13:53:27.77,214,-224,-2046,144,42,-212,-438,-310,-128,374
,134,2023-10-20 13:53:27.78,221,-238,-2059,127,40,-196,-378,-434,56,406
,135,2023-10-20 13:53:27.79,206,-232,-2059,122,33,-191,-439,-269,-170,354
,136,2023-10-20 13:53:27.80,225,-240,-2047,127,26,-186,-376,-389,13,382
,137,2023-10-20 13:53:27.81,232,-243,-2040,121,26,-179,-423,-257,-166,340
,138,2023-10-20 13:53:27.82,219,-242,-2033,121,25,-175,-380,-404,24,392
,139,2023-10-20 13:53:27.83,230,-243,-2022,124,24,-174,-415,-294,-121,354
,140,2023-10-20 13:53:27.84,222,-243,-2020,133,28,-181,-393,-424,31,408
,141,2023-10-20 13:53:27.85,228,-268,-2041,132,37,-169,-414,-299,-115,356
,142,2023-10-20 13:53:27.86,233,-267,-2040,130,41,-154,-403,-424,21,413
,143,2023-10-20 13:53:27.87,231,-247,-2041,142,45,-152,-414,-305,-109,359
,144,2023-10-20 13:53:27.88,235,-249,-2047,141,52,-136,-404,-418,14,411
,145,2023-10-20 13:53:27.89,227,-244,-2033,130,64,-121,-408,-301,-107,354
,146,2023-10-20 13:53:27.90,223,-233,-2041,129,72,-104,-432,-431,-1,431
,147,2023-10-20 13:53:27.91,221,-240,-2037,122,70,-92,-425,-341,-84,383
,148,2023-10-20 13:53:27.92,223,-246,-2040,112,68,-91,-427,-429,2,428
,149,2023-10-20 13:53:27.93,237,-233,-2030,98,68,-86,-398,-315,-83,356
,150,2023-10-20 13:53:27.94,249,-242,-2024,97,75,-86,-432,-427,-5,429
,151,2023-10-20 13:53:27.95,254,-248,-2036,98,83,-77,-402,-353,-49,377
,152,2023-10-20 13:53:27.96,242,-250,-2039,98,82,-71,-448,-467,19,457
,153,2023-10-20 13:53:27.97,255,-249,-2044,98,77,-73,-403,-384,-19,393
,154,2023-10-20 13:53:27.98,257,-255,-2047,98,73,-70,-453,-446,-7,449
,155,2023-10-20 13:53:27.99,250,-256,-2054,99,66,-69,-394,-337,-57,365
,156,2023-10-20 13:53:28.00,250,-244,-2043,102,59,-67,-454,-387,-67,420
,157,2023-10-20 13:53:28.01,257,-248,-2036,105,51,-71,-375,-305,-70,340
,158,2023-10-20 13:53:28.02,240,-244,-2037,103,48,-72,-458,-384,-74,421
,159,2023-10-20 13:53:28.03,248,-248,-2040,99,41,-78,-368,-319,-49,343
,160,2023-10-20 13:53:28.04,242,-247,-2028,100,36,-79,-462,-366,-96,414
,161,2023-10-20 13:53:28.05,249,-258,-2037,101,37,-87,-367,-287,-80,327
,162,2023-10-20 13:53:28.06,254,-268,-2035,99,37,-87,-468,-351,-117,409
,163,2023-10-20 13:53:28.07,245,-275,-2037,92,38,-82,-365,-313,-52,339
,164,2023-10-20 13:53:28.08,257,-262,-2035,87,44,-76,-470,-368,-102,419
,165,2023-10-20 13:53:28.09,249,-268,-2031,81,46,-73,-353,-319,-34,336
,166,2023-10-20 13:53:28.10,261,-278,-2026,75,49,-66,-484,-373,-111,428
,167,2023-10-20 13:53:28.11,253,-280,-2032,70,49,-61,-360,-340,-20,350
,168,2023-10-20 13:53:28.12,267,-277,-2035,64,50,-50,-495,-386,-109,440
,169,2023-10-20 13:53:28.13,285,-278,-2004,57,50,-44,-354,-353,-1,353
,170,2023-10-20 13:53:28.14,281,-309,-2024,54,63,-31,-498,-393,-105,445
,171,2023-10-20 13:53:28.15,287,-304,-2027,64,76,-23,-348,-373,25,360
,172,2023-10-20 13:53:28.16,265,-346,-2044,73,91,-7,-496,-378,-118,437
,173,2023-10-20 13:53:28.17,264,-330,-2046,98,99,6,-330,-343,13,336
,174,2023-10-20 13:53:28.18,264,-238,-2046,153,90,-13,-499,-344,-155,421
,175,2023-10-20 13:53:28.19,289,-252,-2017,169,86,-39,-343,-334,-9,338
,176,2023-10-20 13:53:28.20,269,-274,-2039,162,85,-51,-522,-380,-142,451
,177,2023-10-20 13:53:28.21,252,-267,-2048,165,58,-67,-340,-402,62,371
,178,2023-10-20 13:53:28.22,264,-236,-2031,191,24,-119,-514,-397,-117,455
,179,2023-10-20 13:53:28.23,306,-270,-2022,219,8,-166,-327,-381,54,354
,180,2023-10-20 13:53:28.24,291,-297,-2010,252,18,-194,-515,-333,-182,424
,181,2023-10-20 13:53:28.25,282,-312,-2023,276,26,-207,-322,-330,8,326
,182,2023-10-20 13:53:28.26,282,-305,-2032,292,27,-216,-530,-343,-187,436
,183,2023-10-20 13:53:28.27,291,-317,-2041,290,16,-222,-327,-388,61,357
,184,2023-10-20 13:53:28.28,300,-336,-2039,286,0,-223,-536,-382,-154,459
,185,2023-10-20 13:53:28.29,296,-337,-2024,281,-10,-225,-323,-400,77,361
,186,2023-10-20 13:53:28.30,301,-357,-2042,272,-15,-210,-529,-341,-188,435
,187,2023-10-20 13:53:28.31,294,-355,-2022,273,-23,-205,-310,-358,48,334
,188,2023-10-20 13:53:28.32,290,-354,-2006,265,-28,-207,-530,-317,-213,423
,189,2023-10-20 13:53:28.33,309,-366,-2016,239,-24,-190,-301,-360,59,330
,190,2023-10-20 13:53:28.34,302,-365,-2021,212,-25,-177,-544,-324,-220,434
,191,2023-10-20 13:53:28.35,281,-359,-2027,189,-28,-169,-312,-373,61,342
,192,2023-10-20 13:53:28.36,298,-357,-2015,170,-38,-165,-560,-329,-231,444
,193,2023-10-20 13:53:28.37,287,-365,-2012,140,-43,-159,-315,-371,56,343
,194,2023-10-20 13:53:28.38,284,-359,-2007,111,-37,-150,-553,-306,-247,429
,195,2023-10-20 13:53:28.39,296,-360,-2002,87,-35,-145,-318,-369,51,343
,196,2023-10-20 13:53:28.40,306,-358,-1997,69,-37,-146,-565,-289,-276,427
,197,2023-10-20 13:53:28.41,306,-380,-1981,35,-31,-139,-319,-357,38,338
,198,2023-10-20 13:53:28.42,294,-393,-1996,-3,-18,-112,-576,-283,-293,429
,199,2023-10-20 13:53:28.43,294,-415,-2001,-38,-7,-93,-320,-358,38,339
,200,2023-10-20 13:53:28.44,309,-420,-1993,-68,3,-70,-569,-284,-285,426
,201,2023-10-20 13:53:28.45,313,-393,-2002,-71,24,-61,-310,-375,65,342
,202,2023-10-20 13:53:28.46,274,-348,-2038,-37,44,-71,-566,-308,-258,437
,203,2023-10-20 13:53:28.47,270,-262,-2055,31,63,-108,-310,-401,91,355
,204,2023-10-20 13:53:28.48,261,-213,-2009,103,68,-162,-579,-304,-275,441
,205,2023-10-20 13:53:28.49,283,-224,-1996,125,60,-212,-318,-398,80,358
,206,2023-10-20 13:53:28.50,304,-232,-2002,108,36,-252,-582,-309,-273,445
,207,2023-10-20 13:53:28.51,293,-288,-2007,87,20,-300,-314,-424,110,369
,208,2023-10-20 13:53:28.52,307,-344,-2006,65,20,-318,-586,-361,-225,473
,209,2023-10-20 13:53:28.53,302,-389,-1993,53,44,-303,-320,-492,172,406
,210,2023-10-20 13:53:28.54,306,-405,-2007,61,61,-275,-589,-418,-171,503
,211,2023-10-20 13:53:28.55,305,-388,-2028,69,66,-243,-322,-537,215,429
,212,2023-10-20 13:53:28.56,301,-381,-2034,70,55,-225,-594,-423,-171,508
,213,2023-10-20 13:53:28.57,310,-344,-2030,69,36,-210,-321,-522,201,421
,214,2023-10-20 13:53:28.58,312,-331,-2023,75,27,-208,-593,-388,-205,490
,215,2023-10-20 13:53:28.59,305,-328,-2025,79,25,-215,-318,-491,173,404
,216,2023-10-20 13:53:28.60,300,-325,-2018,74,16,-223,-592,-371,-221,481
,217,2023-10-20 13:53:28.61,326,-295,-2020,54,7,-228,-310,-482,172,396
,218,2023-10-20 13:53:28.62,312,-383,-2055,36,-18,-226,-580,-329,-251,454
,219,2023-10-20 13:53:28.63,309,-331,-1994,65,-20,-260,-308,-445,137,376
,220,2023-10-20 13:53:28.64,327,-380,-1994,79,-14,-256,-586,-318,-268,452
,221,2023-10-20 13:53:28.65,317,-389,-1994,76,7,-233,-309,-468,159,388
,222,2023-10-20 13:53:28.66,305,-367,-1995,92,18,-226,-582,-363,-219,472
,223,2023-10-20 13:53:28.67,304,-373,-1988,102,14,-221,-308,-494,186,401
,224,2023-10-20 13:53:28.68,330,-386,-2012,107,7,-213,-580,-327,-253,453
,225,2023-10-20 13:53:28.69,307,-386,-2012,110,8,-202,-313,-436,123,374
,226,2023-10-20 13:53:28.70,317,-399,-2019,116,11,-187,-579,-277,-302,428
,227,2023-10-20 13:53:28.71,318,-401,-2017,117,20,-171,-311,-435,124,373
,228,2023-10-20 13:53:28.72,321,-413,-2014,118,27,-151,-584,-319,-265,451
,229,2023-10-20 13:53:28.73,324,-415,-2015,117,33,-130,-322,-480,158,401
,230,2023-10-20 13:53:28.74,334,-419,-2014,114,35,-112,-580,-324,-256,452
,231,2023-10-20 13:53:28.75,319,-415,-2018,120,40,-100,-321,-480,159,400
,232,2023-10-20 13:53:28.76,327,-403,-2013,129,51,-94,-579,-340,-239,459
,233,2023-10-20 13:53:28.77,320,-396,-2005,131,66,-83,-332,-520,188,426
,234,2023-10-20 13:53:28.78,323,-407,-1992,119,76,-72,-582,-384,-198,483
,235,2023-10-20 13:53:28.79,333,-409,-1969,112,82,-65,-331,-551,220,441
,236,2023-10-20 13:53:28.80,325,-398,-1997,108,86,-65,-587,-392,-195,489
,237,2023-10-20 13:53:28.81,333,-412,-1996,92,91,-57,-326,-521,195,423
,238,2023-10-20 13:53:28.82,331,-416,-1985,82,99,-49,-570,-336,-234,453
,239,2023-10-20 13:53:28.83,333,-389,-2012,72,99,-51,-319,-484,165,401
,240,2023-10-20 13:53:28.84,356,-376,-2006,60,101,-52,-563,-334,-229,448
,241,2023-10-20 13:53:28.85,348,-381,-2006,56,98,-61,-332,-513,181,422
,242,2023-10-20 13:53:28.86,347,-385,-2006,48,94,-69,-565,-368,-197,466
,243,2023-10-20 13:53:28.87,349,-369,-2012,40,83,-79,-323,-531,208,427
,244,2023-10-20 13:53:28.88,348,-373,-2012,40,77,-88,-551,-352,-199,451
,245,2023-10-20 13:53:28.89,352,-385,-2014,36,75,-94,-322,-491,169,406
,246,2023-10-20 13:53:28.90,353,-383,-2013,34,73,-100,-552,-303,-249,427
,247,2023-10-20 13:53:28.91,362,-369,-2018,35,67,-106,-336,-467,131,401
,248,2023-10-20 13:53:28.92,359,-379,-2009,32,57,-109,-549,-318,-231,433
,249,2023-10-20 13:53:28.93,372,-388,-2014,28,52,-110,-329,-478,149,403
,250,2023-10-20 13:53:28.94,371,-394,-2007,25,44,-108,-534,-294,-240,414
,251,2023-10-20 13:53:28.95,368,-392,-2014,27,39,-106,-346,-468,122,407
,252,2023-10-20 13:53:28.96,378,-388,-2009,31,40,-101,-551,-322,-229,436
,253,2023-10-20 13:53:28.97,379,-387,-1998,34,41,-94,-366,-500,134,433
,254,2023-10-20 13:53:28.98,382,-389,-2002,38,40,-90,-556,-338,-218,447
,255,2023-10-20 13:53:28.99,392,-376,-2003,40,42,-85,-352,-488,136,420
,256,2023-10-20 13:53:29.00,395,-390,-2003,40,37,-78,-523,-302,-221,412
,257,2023-10-20 13:53:29.01,396,-393,-2002,46,32,-68,-357,-469,112,413
,258,2023-10-20 13:53:29.02,379,-393,-2012,50,30,-61,-534,-312,-222,423
,259,2023-10-20 13:53:29.03,390,-401,-2008,55,32,-51,-364,-489,125,426
,260,2023-10-20 13:53:29.04,391,-407,-2007,63,31,-41,-527,-332,-195,429
,261,2023-10-20 13:53:29.05,401,-396,-1995,71,34,-35,-368,-490,122,429
,262,2023-10-20 13:53:29.06,396,-400,-2003,76,37,-31,-519,-317,-202,418
,263,2023-10-20 13:53:29.07,404,-397,-1994,77,47,-30,-366,-483,117,424
,264,2023-10-20 13:53:29.08,395,-398,-2000,71,51,-22,-506,-334,-172,420
,265,2023-10-20 13:53:29.09,399,-399,-2004,68,49,-19,-366,-504,138,435
,266,2023-10-20 13:53:29.10,404,-407,-2006,73,38,-15,-506,-335,-171,420
,267,2023-10-20 13:53:29.11,409,-402,-2005,74,27,-5,-381,-489,108,435
,268,2023-10-20 13:53:29.12,412,-395,-2013,70,19,13,-506,-327,-179,416
,269,2023-10-20 13:53:29.13,418,-396,-2037,68,13,27,-390,-477,87,433
,270,2023-10-20 13:53:29.14,415,-384,-2062,66,18,38,-496,-318,-178,407
,271,2023-10-20 13:53:29.15,430,-365,-2022,57,23,50,-379,-456,77,417
,272,2023-10-20 13:53:29.16,438,-350,-1993,60,21,48,-487,-303,-184,395
,273,2023-10-20 13:53:29.17,420,-358,-1917,64,25,45,-388,-459,71,423
,274,2023-10-20 13:53:29.18,433,-397,-1942,86,33,59,-489,-321,-168,405
,275,2023-10-20 13:53:29.19,427,-367,-1969,146,41,46,-395,-446,51,420
,276,2023-10-20 13:53:29.20,422,-426,-1974,193,60,46,-478,-288,-190,383
,277,2023-10-20 13:53:29.21,421,-392,-1987,223,80,40,-408,-438,30,423
,278,2023-10-20 13:53:29.22,419,-420,-1994,245,91,41,-477,-302,-175,389
,279,2023-10-20 13:53:29.23,402,-417,-2019,262,106,31,-424,-476,52,450
,280,2023-10-20 13:53:29.24,393,-448,-1998,263,102,27,-475,-359,-116,417
,281,2023-10-20 13:53:29.25,379,-486,-1986,256,106,28,-419,-500,81,459
,282,2023-10-20 13:53:29.26,390,-463,-1973,276,108,18,-468,-356,-112,412
,283,2023-10-20 13:53:29.27,395,-488,-1979,277,107,14,-440,-495,55,467
,284,2023-10-20 13:53:29.28,380,-465,-1981,262,110,1,-471,-378,-93,424
,285,2023-10-20 13:53:29.29,385,-452,-1982,241,95,-17,-454,-511,57,482
,286,2023-10-20 13:53:29.30,375,-465,-1975,218,85,-35,-468,-377,-91,422
,287,2023-10-20 13:53:29.31,391,-471,-1978,181,80,-57,-455,-502,47,478
,288,2023-10-20 13:53:29.32,396,-488,-1973,160,71,-70,-461,-378,-83,419
,289,2023-10-20 13:53:29.33,393,-491,-2011,129,69,-69,-465,-500,35,482
,290,2023-10-20 13:53:29.34,405,-467,-2019,111,59,-68,-463,-383,-80,423
,291,2023-10-20 13:53:29.35,400,-466,-2008,101,43,-86,-470,-502,32,486
,292,2023-10-20 13:53:29.36,400,-483,-2002,98,33,-97,-453,-400,-53,426
,293,2023-10-20 13:53:29.37,409,-485,-2006,89,0,-104,-486,-516,30,501
,294,2023-10-20 13:53:29.38,417,-498,-1997,83,-13,-104,-451,-414,-37,432
,295,2023-10-20 13:53:29.39,414,-491,-1972,92,-24,-107,-487,-499,12,493
,296,2023-10-20 13:53:29.40,415,-487,-1966,103,-36,-107,-452,-379,-73,415
,297,2023-10-20 13:53:29.41,418,-515,-1988,116,-45,-99,-512,-491,-21,501
,298,2023-10-20 13:53:29.42,428,-518,-1976,143,-60,-98,-455,-427,-28,441
,299,2023-10-20 13:53:29.43,418,-581,-1983,143,-73,-80,-514,-549,35,531
,300,2023-10-20 13:53:29.44,422,-623,-1998,148,-75,-41,-444,-479,35,461
,301,2023-10-20 13:53:29.45,422,-593,-1957,180,-65,-14,-520,-572,52,546
,302,2023-10-20 13:53:29.46,419,-600,-1956,218,-52,7,-446,-485,39,465
,303,2023-10-20 13:53:29.47,402,-557,-1946,237,-30,24,-529,-529,0,529
,304,2023-10-20 13:53:29.48,403,-538,-1985,263,-33,25,-439,-431,-8,435
,305,2023-10-20 13:53:29.49,390,-500,-2016,273,-56,18,-535,-510,-25,522
,306,2023-10-20 13:53:29.50,377,-482,-2002,292,-89,-20,-434,-463,29,448
,307,2023-10-20 13:53:29.51,378,-490,-2022,309,-117,-73,-544,-509,-35,526
,308,2023-10-20 13:53:29.52,406,-524,-1990,291,-143,-96,-437,-427,-10,432
,309,2023-10-20 13:53:29.53,432,-569,-1933,270,-160,-116,-559,-491,-68,525
,310,2023-10-20 13:53:29.54,442,-627,-1951,260,-141,-123,-437,-461,24,449
,311,2023-10-20 13:53:29.55,439,-657,-1952,275,-112,-101,-564,-513,-51,538
,312,2023-10-20 13:53:29.56,439,-651,-1955,320,-94,-68,-424,-448,24,436
,313,2023-10-20 13:53:29.57,448,-608,-1963,364,-91,-26,-567,-470,-97,518
,314,2023-10-20 13:53:29.58,449,-624,-1932,382,-77,-8,-432,-424,-8,428
,315,2023-10-20 13:53:29.59,442,-593,-1932,407,-66,-18,-588,-459,-129,523
,316,2023-10-20 13:53:29.60,456,-612,-1927,440,-79,-25,-436,-429,-7,432
,317,2023-10-20 13:53:29.61,480,-650,-1907,485,-99,-22,-599,-489,-110,544
,318,2023-10-20 13:53:29.62,482,-678,-1892,557,-101,-39,-438,-506,68,472
,319,2023-10-20 13:53:29.63,496,-734,-1809,638,-76,-37,-592,-512,-80,552
,320,2023-10-20 13:53:29.64,508,-766,-1811,717,-10,-9,-424,-475,51,449
,321,2023-10-20 13:53:29.65,505,-770,-1814,791,43,32,-602,-481,-121,541
,322,2023-10-20 13:53:29.66,476,-786,-1792,869,101,59,-429,-485,56,457
,323,2023-10-20 13:53:29.67,474,-805,-1763,931,156,95,-614,-519,-95,566
,324,2023-10-20 13:53:29.68,481,-815,-1767,992,195,124,-427,-543,116,485
,325,2023-10-20 13:53:29.69,482,-810,-1754,1048,224,155,-612,-530,-82,571
,326,2023-10-20 13:53:29.70,488,-824,-1750,1078,246,193,-420,-521,101,470
,327,2023-10-20 13:53:29.71,510,-819,-1736,1078,289,217,-617,-480,-137,548
,328,2023-10-20 13:53:29.72,486,-812,-1760,1074,296,233,-415,-480,65,447
,329,2023-10-20 13:53:29.73,475,-853,-1794,1054,290,251,-616,-437,-179,526
,330,2023-10-20 13:53:29.74,468,-916,-1821,1034,263,271,-404,-453,49,428
,331,2023-10-20 13:53:29.75,474,-904,-1813,1009,236,292,-616,-411,-205,513
,332,2023-10-20 13:53:29.76,485,-908,-1798,977,210,299,-398,-438,40,418
,333,2023-10-20 13:53:29.77,484,-933,-1773,948,197,293,-618,-402,-216,510
,334,2023-10-20 13:53:29.78,480,-973,-1759,922,181,297,-403,-443,40,423
,335,2023-10-20 13:53:29.79,464,-945,-1748,903,171,294,-627,-389,-238,508
,336,2023-10-20 13:53:29.80,453,-971,-1733,899,171,290,-397,-437,40,417
,337,2023-10-20 13:53:29.81,444,-1004,-1732,889,169,282,-625,-373,-252,499
,338,2023-10-20 13:53:29.82,437,-1050,-1732,848,191,296,-390,-416,26,403
,339,2023-10-20 13:53:29.83,423,-1090,-1698,790,215,334,-632,-330,-302,481
,340,2023-10-20 13:53:29.84,380,-1128,-1746,727,237,375,-393,-383,-10,388
,341,2023-10-20 13:53:29.85,374,-1138,-1791,659,237,429,-631,-308,-323,469
,342,2023-10-20 13:53:29.86,391,-1095,-1792,604,246,463,-392,-401,9,396
,343,2023-10-20 13:53:29.87,385,-1107,-1810,515,270,491,-644,-346,-298,495
,344,2023-10-20 13:53:29.88,384,-1092,-1817,400,306,522,-408,-443,35,425
,345,2023-10-20 13:53:29.89,374,-1092,-1787,301,335,518,-664,-351,-313,507
,346,2023-10-20 13:53:29.90,383,-1111,-1833,210,352,511,-409,-430,21,419
,347,2023-10-20 13:53:29.91,396,-1085,-1846,129,356,510,-660,-317,-343,488
,348,2023-10-20 13:53:29.92,393,-1087,-1833,72,343,506,-416,-416,0,416
,349,2023-10-20 13:53:29.93,365,-1106,-1834,23,329,503,-673,-309,-364,491
,350,2023-10-20 13:53:29.94,390,-1068,-1840,-43,326,508,-418,-421,3,419
,351,2023-10-20 13:53:29.95,392,-1015,-1864,-103,315,499,-677,-306,-371,491
,352,2023-10-20 13:53:29.96,402,-992,-1868,-138,294,466,-438,-421,-17,429
,353,2023-10-20 13:53:29.97,378,-985,-1838,-162,263,425,-699,-303,-396,501
,354,2023-10-20 13:53:29.98,403,-992,-1783,-173,213,385,-472,-452,-20,462
,355,2023-10-20 13:53:29.99,395,-1001,-1775,-177,164,341,-731,-379,-352,555
,356,2023-10-20 13:53:30.00,390,-992,-1783,-184,123,317,-482,-542,60,512
,357,2023-10-20 13:53:30.01,391,-975,-1777,-187,94,299,-730,-434,-296,582
,358,2023-10-20 13:53:30.02,409,-977,-1798,-189,68,296,-499,-571,72,535
,359,2023-10-20 13:53:30.03,405,-961,-1802,-183,55,287,-760,-451,-309,605
,360,2023-10-20 13:53:30.04,389,-970,-1789,-176,46,278,-522,-572,50,547
,361,2023-10-20 13:53:30.05,396,-955,-1776,-188,52,281,-766,-454,-312,610
,362,2023-10-20 13:53:30.06,413,-956,-1767,-192,62,277,-520,-606,86,563
,363,2023-10-20 13:53:30.07,427,-946,-1755,-199,67,267,-760,-537,-223,648
,364,2023-10-20 13:53:30.08,430,-952,-1772,-207,73,255,-517,-684,167,600
,365,2023-10-20 13:53:30.09,424,-956,-1774,-224,82,242,-755,-561,-194,658
,366,2023-10-20 13:53:30.10,417,-932,-1808,-248,86,230,-520,-701,181,610
,367,2023-10-20 13:53:30.11,421,-918,-1816,-283,77,216,-765,-729,-36,747
,368,2023-10-20 13:53:30.12,442,-917,-1838,-305,55,198,-532,-889,357,710
,369,2023-10-20 13:53:30.13,440,-875,-1833,-327,25,176,-766,-842,76,804
,370,2023-10-20 13:53:30.14,417,-882,-1859,-370,-18,163,-541,-939,398,740
,371,2023-10-20 13:53:30.15,410,-865,-1883,-406,-74,142,-772,-843,71,807
,372,2023-10-20 13:53:30.16,417,-846,-1891,-425,-135,98,-542,-930,388,736
,373,2023-10-20 13:53:30.17,418,-831,-1880,-436,-190,50,-765,-838,73,801
,374,2023-10-20 13:53:30.18,404,-848,-1870,-439,-243,8,-526,-931,405,728
,375,2023-10-20 13:53:30.19,400,-842,-1866,-441,-302,-35,-746,-847,101,796
,376,2023-10-20 13:53:30.20,390,-855,-1863,-452,-320,-76,-533,-960,427,746
,377,2023-10-20 13:53:30.21,386,-874,-1869,-445,-351,-119,-754,-871,117,812
,378,2023-10-20 13:53:30.22,347,-879,-1871,-432,-380,-150,-542,-972,430,757
,379,2023-10-20 13:53:30.23,345,-881,-1879,-431,-399,-169,-753,-878,125,815
,380,2023-10-20 13:53:30.24,328,-877,-1880,-422,-407,-190,-536,-988,452,762
,381,2023-10-20 13:53:30.25,320,-875,-1861,-423,-411,-210,-744,-883,139,813
,382,2023-10-20 13:53:30.26,308,-871,-1861,-421,-415,-217,-537,-979,442,758
,383,2023-10-20 13:53:30.27,287,-878,-1872,-429,-413,-218,-740,-873,133,806
,384,2023-10-20 13:53:30.28,261,-880,-1865,-444,-400,-214,-544,-964,420,754
,385,2023-10-20 13:53:30.29,259,-874,-1842,-457,-391,-209,-737,-871,134,804
,386,2023-10-20 13:53:30.30,250,-871,-1834,-465,-385,-197,-549,-994,445,771
,387,2023-10-20 13:53:30.31,246,-872,-1842,-470,-374,-182,-737,-922,185,829
,388,2023-10-20 13:53:30.32,214,-874,-1849,-480,-352,-168,-549,-1061,512,805
,389,2023-10-20 13:53:30.33,238,-860,-1864,-484,-333,-155,-733,-943,210,838
,390,2023-10-20 13:53:30.34,220,-855,-1854,-496,-317,-143,-553,-1020,467,786
,391,2023-10-20 13:53:30.35,221,-844,-1846,-503,-301,-125,-729,-925,196,827
,392,2023-10-20 13:53:30.36,225,-833,-1868,-516,-281,-105,-560,-1048,488,804
,393,2023-10-20 13:53:30.37,230,-824,-1868,-522,-267,-87,-720,-951,231,835
,394,2023-10-20 13:53:30.38,228,-809,-1873,-514,-245,-74,-552,-1046,494,799
,395,2023-10-20 13:53:30.39,233,-792,-1876,-498,-226,-62,-715,-937,222,826
,396,2023-10-20 13:53:30.40,224,-774,-1876,-483,-208,-51,-553,-1035,482,794
,397,2023-10-20 13:53:30.41,235,-769,-1895,-474,-189,-41,-705,-933,228,819
,398,2023-10-20 13:53:30.42,223,-760,-1909,-457,-179,-30,-562,-1036,474,799
,399,2023-10-20 13:53:30.43,237,-739,-1906,-440,-177,-30,-706,-931,225,818
,400,2023-10-20 13:53:30.44,236,-736,-1907,-426,-161,-29,-571,-1032,461,801
,401,2023-10-20 13:53:30.45,239,-741,-1904,-404,-151,-27,-703,-916,213,809
,402,2023-10-20 13:53:30.46,254,-723,-1907,-389,-141,-13,-567,-997,430,782
,403,2023-10-20 13:53:30.47,232,-726,-1931,-373,-127,-7,-687,-895,208,791
,404,2023-10-20 13:53:30.48,241,-708,-1905,-350,-114,-12,-567,-993,426,780
,405,2023-10-20 13:53:30.49,253,-712,-1915,-336,-94,-7,-685,-895,210,790
,406,2023-10-20 13:53:30.50,240,-692,-1915,-333,-71,2,-571,-984,413,777
,407,2023-10-20 13:53:30.51,253,-692,-1935,-335,-44,17,-682,-879,197,780
,408,2023-10-20 13:53:30.52,248,-680,-1941,-332,-22,26,-577,-964,387,770
,409,2023-10-20 13:53:30.53,263,-663,-1919,-330,3,29,-676,-865,189,770
,410,2023-10-20 13:53:30.54,240,-666,-1926,-328,28,33,-576,-941,365,758
,411,2023-10-20 13:53:30.55,237,-648,-1913,-315,47,30,-663,-858,195,760
,412,2023-10-20 13:53:30.56,248,-651,-1908,-302,63,28,-582,-949,367,765
,413,2023-10-20 13:53:30.57,250,-645,-1911,-291,74,30,-664,-854,190,759
,414,2023-10-20 13:53:30.58,260,-639,-1917,-283,81,30,-587,-922,335,754
,415,2023-10-20 13:53:30.59,257,-604,-1937,-300,100,36,-657,-829,172,743
,416,2023-10-20 13:53:30.60,275,-657,-1881,-327,140,49,-585,-903,318,744
,417,2023-10-20 13:53:30.61,251,-653,-1878,-322,170,67,-649,-819,170,734
,418,2023-10-20 13:53:30.62,241,-659,-1882,-287,183,88,-597,-885,288,741
,419,2023-10-20 13:53:30.63,238,-657,-1946,-245,180,102,-649,-782,133,715
,420,2023-10-20 13:53:30.64,246,-670,-1902,-183,188,97,-601,-830,229,715
,421,2023-10-20 13:53:30.65,259,-581,-1945,-137,191,101,-639,-741,102,690
,422,2023-10-20 13:53:30.66,249,-609,-1852,-124,228,111,-596,-803,207,699
,423,2023-10-20 13:53:30.67,246,-607,-1907,-120,263,142,-628,-735,107,681
,424,2023-10-20 13:53:30.68,244,-651,-1920,-116,270,159,-596,-798,202,697
,425,2023-10-20 13:53:30.69,237,-619,-1951,-106,250,179,-620,-742,122,681
,426,2023-10-20 13:53:30.70,239,-649,-1996,-115,231,207,-605,-812,207,708
,427,2023-10-20 13:53:30.71,273,-644,-1955,-123,244,220,-617,-713,96,665
,428,2023-10-20 13:53:30.72,277,-617,-1981,-135,240,250,-604,-738,134,671
,429,2023-10-20 13:53:30.73,265,-637,-1978,-147,242,272,-614,-663,49,638
,430,2023-10-20 13:53:30.74,287,-575,-2009,-152,224,277,-615,-725,110,670
,431,2023-10-20 13:53:30.75,274,-597,-1980,-153,203,271,-606,-704,98,655
,432,2023-10-20 13:53:30.76,293,-548,-1995,-153,186,263,-612,-772,160,692
,433,2023-10-20 13:53:30.77,263,-556,-2009,-164,191,260,-595,-687,92,641
,434,2023-10-20 13:53:30.78,258,-516,-2043,-165,166,249,-621,-712,91,666
,435,2023-10-20 13:53:30.79,260,-523,-2012,-170,138,235,-597,-635,38,616
,436,2023-10-20 13:53:30.80,259,-518,-2012,-173,108,212,-633,-691,58,662
,437,2023-10-20 13:53:30.81,276,-538,-2039,-163,62,176,-597,-629,32,613
,438,2023-10-20 13:53:30.82,297,-536,-2003,-124,32,124,-634,-673,39,653
,439,2023-10-20 13:53:30.83,294,-541,-1954,-73,22,82,-585,-642,57,613
,440,2023-10-20 13:53:30.84,305,-530,-1935,-40,33,72,-634,-703,69,668
,441,2023-10-20 13:53:30.85,309,-541,-1952,-35,46,94,-585,-642,57,613
,442,2023-10-20 13:53:30.86,301,-548,-1960,-54,51,122,-647,-681,34,664
,443,2023-10-20 13:53:30.87,278,-576,-2008,-80,49,156,-590,-630,40,610
,444,2023-10-20 13:53:30.88,294,-598,-2013,-94,50,184,-656,-676,20,666
,445,2023-10-20 13:53:30.89,295,-572,-2021,-89,38,205,-583,-620,37,601
,446,2023-10-20 13:53:30.90,312,-544,-1996,-81,25,214,-656,-653,-3,654
,447,2023-10-20 13:53:30.91,314,-541,-1969,-85,20,214,-569,-589,20,579
,448,2023-10-20 13:53:30.92,318,-508,-1949,-82,24,205,-656,-621,-35,638
,449,2023-10-20 13:53:30.93,331,-517,-1937,-83,41,200,-568,-569,1,568
,450,2023-10-20 13:53:30.94,333,-515,-1959,-85,64,191,-665,-606,-59,635
,451,2023-10-20 13:53:30.95,350,-497,-1957,-91,84,167,-564,-552,-12,558
,452,2023-10-20 13:53:30.96,353,-530,-1951,-92,97,149,-665,-585,-80,625
,453,2023-10-20 13:53:30.97,349,-526,-1976,-85,110,138,-553,-540,-13,546
,454,2023-10-20 13:53:30.98,345,-537,-1998,-79,122,145,-669,-581,-88,625
,455,2023-10-20 13:53:30.99,347,-520,-1984,-82,122,147,-549,-541,-8,545
,456,2023-10-20 13:53:31.00,355,-505,-1978,-81,121,145,-670,-573,-97,621
,457,2023-10-20 13:53:31.01,374,-489,-1966,-76,113,137,-547,-524,-23,535
,458,2023-10-20 13:53:31.02,375,-483,-1974,-72,109,131,-677,-551,-126,614
,459,2023-10-20 13:53:31.03,386,-483,-1952,-68,114,122,-542,-512,-30,527
,460,2023-10-20 13:53:31.04,397,-488,-1943,-71,123,118,-685,-545,-140,615
,461,2023-10-20 13:53:31.05,399,-495,-1944,-74,135,123,-540,-519,-21,529
,462,2023-10-20 13:53:31.06,407,-510,-1961,-72,138,125,-683,-553,-130,618
,463,2023-10-20 13:53:31.07,400,-529,-1945,-68,147,131,-534,-518,-16,526
,464,2023-10-20 13:53:31.08,405,-508,-1965,-69,144,146,-687,-539,-148,613
,465,2023-10-20 13:53:31.09,400,-521,-1974,-73,143,165,-529,-517,-12,523
,466,2023-10-20 13:53:31.10,392,-507,-1983,-75,141,179,-692,-547,-145,619
,467,2023-10-20 13:53:31.11,416,-486,-1966,-93,143,194,-528,-532,4,530
,468,2023-10-20 13:53:31.12,435,-468,-1964,-125,142,214,-699,-551,-148,625
,469,2023-10-20 13:53:31.13,444,-442,-1944,-173,155,228,-528,-548,20,538
,470,2023-10-20 13:53:31.14,454,-448,-1954,-225,164,253,-700,-561,-139,630
,471,2023-10-20 13:53:31.15,470,-487,-1931,-255,198,262,-519,-542,23,530
,472,2023-10-20 13:53:31.16,410,-514,-2009,-273,217,293,-704,-545,-159,624
,473,2023-10-20 13:53:31.17,415,-499,-2027,-236,212,315,-520,-516,-4,518
,474,2023-10-20 13:53:31.18,410,-339,-2009,-154,173,298,-709,-518,-191,613
,475,2023-10-20 13:53:31.19,437,-353,-1964,-159,153,282,-521,-523,2,522
,476,2023-10-20 13:53:31.20,409,-373,-1980,-202,135,264,-712,-533,-179,622
,477,2023-10-20 13:53:31.21,414,-396,-2000,-206,130,224,-523,-526,3,524
,478,2023-10-20 13:53:31.22,394,-425,-1982,-157,109,200,-727,-526,-201,626
,479,2023-10-20 13:53:31.23,389,-503,-1905,-110,96,203,-523,-551,28,537
,480,2023-10-20 13:53:31.24,364,-508,-1960,-51,117,223,-729,-567,-162,648
,481,2023-10-20 13:53:31.25,368,-461,-2018,6,94,251,-520,-607,87,563
,482,2023-10-20 13:53:31.26,384,-399,-2033,16,69,265,-736,-611,-125,673
,483,2023-10-20 13:53:31.27,382,-370,-2046,-24,52,258,-527,-612,85,569
,484,2023-10-20 13:53:31.28,389,-348,-2051,-78,55,233,-746,-602,-144,674
,485,2023-10-20 13:53:31.29,379,-365,-1997,-122,50,209,-529,-677,148,603
,486,2023-10-20 13:53:31.30,365,-409,-2009,-130,46,194,-752,-685,-67,718
,487,2023-10-20 13:53:31.31,359,-436,-2000,-115,29,189,-535,-757,222,646
,488,2023-10-20 13:53:31.32,335,-463,-2035,-79,28,182,-762,-747,-15,754
,489,2023-10-20 13:53:31.33,345,-448,-2015,-47,3,193,-542,-864,322,703
,490,2023-10-20 13:53:31.34,323,-418,-2026,-31,-44,202,-770,-851,81,810
,491,2023-10-20 13:53:31.35,341,-367,-2044,-25,-82,194,-544,-950,406,747
,492,2023-10-20 13:53:31.36,328,-355,-2043,-43,-116,175,-774,-902,128,838
,493,2023-10-20 13:53:31.37,331,-359,-2012,-63,-139,159,-540,-993,453,766
,494,2023-10-20 13:53:31.38,292,-385,-2038,-67,-149,151,-776,-943,167,859
,495,2023-10-20 13:53:31.39,287,-387,-2043,-52,-161,137,-538,-1025,487,781
,496,2023-10-20 13:53:31.40,302,-384,-2013,-32,-182,117,-775,-967,192,871
,497,2023-10-20 13:53:31.41,287,-436,-1973,-22,-199,102,-531,-1036,505,783
,498,2023-10-20 13:53:31.42,269,-457,-1975,-6,-204,92,-767,-949,182,858
,499,2023-10-20 13:53:31.43,265,-477,-1956,2,-208,95,-519,-958,439,738
,500,2023-10-20 13:53:31.44,277,-497,-1915,18,-206,102,-759,-860,101,809
,501,2023-10-20 13:53:31.45,257,-475,-1981,55,-203,106,-463,-872,409,667
,502,2023-10-20 13:53:31.46,268,-494,-1969,48,-134,101,-694,-744,50,719
,503,2023-10-20 13:53:31.47,242,-500,-1987,53,-97,90,-420,-764,344,592
,504,2023-10-20 13:53:31.48,249,-509,-2008,85,-95,90,-678,-624,-54,651
,505,2023-10-20 13:53:31.49,235,-503,-2016,102,-95,103,-414,-652,238,533
,506,2023-10-20 13:53:31.50,255,-491,-2034,91,-73,121,-675,-414,-261,544
,507,2023-10-20 13:53:31.51,260,-480,-1989,67,-43,111,-405,-467,62,436
,508,2023-10-20 13:53:31.52,267,-507,-1952,54,-21,100,-667,-329,-338,498
,509,2023-10-20 13:53:31.53,284,-517,-1951,58,-17,98,-388,-450,62,419
,510,2023-10-20 13:53:31.54,308,-529,-1953,46,-1,114,-648,-302,-346,475
,511,2023-10-20 13:53:31.55,308,-517,-1947,25,28,124,-376,-406,30,391
,512,2023-10-20 13:53:31.56,322,-472,-1962,-14,74,124,-640,-255,-385,447
,513,2023-10-20 13:53:31.57,299,-461,-1991,-70,122,125,-363,-392,29,377
,514,2023-10-20 13:53:31.58,317,-427,-1996,-118,133,119,-630,-256,-374,443
,515,2023-10-20 13:53:31.59,332,-415,-1989,-162,126,103,-348,-397,49,372
,516,2023-10-20 13:53:31.60,338,-431,-1959,-209,137,71,-607,-256,-351,431
,517,2023-10-20 13:53:31.61,341,-433,-2003,-250,151,47,-320,-388,68,354
,518,2023-10-20 13:53:31.62,359,-425,-2027,-298,167,33,-604,-234,-370,419
,519,2023-10-20 13:53:31.63,352,-412,-2026,-328,164,31,-292,-406,114,349
,520,2023-10-20 13:53:31.64,345,-395,-2039,-334,157,25,-549,-288,-261,418
,521,2023-10-20 13:53:31.65,357,-396,-2030,-331,124,24,-234,-469,235,351
,522,2023-10-20 13:53:31.66,339,-405,-2026,-321,102,18,-496,-342,-154,419
,523,2023-10-20 13:53:31.67,316,-396,-2050,-303,67,25,-180,-525,345,352
,524,2023-10-20 13:53:31.68,349,-372,-2018,-284,27,46,-447,-446,-1,446
,525,2023-10-20 13:53:31.69,355,-379,-2032,-258,-20,58,-158,-587,429,372
,526,2023-10-20 13:53:31.70,335,-360,-2038,-248,-41,73,-441,-405,-36,423
,527,2023-10-20 13:53:31.71,344,-355,-2029,-249,-53,92,-135,-510,375,322
,528,2023-10-20 13:53:31.72,347,-363,-1971,-241,-61,103,-407,-356,-51,381
,529,2023-10-20 13:53:31.73,345,-453,-2039,-216,-51,125,-110,-487,377,298
,530,2023-10-20 13:53:31.74,318,-402,-2015,-138,-34,112,-387,-330,-57,358
,531,2023-10-20 13:53:31.75,312,-313,-1988,-22,-38,105,-101,-450,349,275
,532,2023-10-20 13:53:31.76,324,-320,-1960,48,-71,104,-372,-292,-80,332
,533,2023-10-20 13:53:31.77,316,-357,-1965,54,-94,111,-95,-426,331,260
,534,2023-10-20 13:53:31.78,310,-358,-2000,59,-110,95,-365,-270,-95,317
,535,2023-10-20 13:53:31.79,305,-377,-2017,94,-116,80,-94,-426,332,260
,536,2023-10-20 13:53:31.80,287,-408,-2003,118,-100,83,-362,-275,-87,318
,537,2023-10-20 13:53:31.81,297,-433,-1998,123,-62,104,-93,-437,344,265
,538,2023-10-20 13:53:31.82,281,-420,-2009,118,-23,121,-356,-285,-71,320
,539,2023-10-20 13:53:31.83,274,-401,-2019,100,3,143,-82,-449,367,265
,540,2023-10-20 13:53:31.84,267,-400,-2030,72,18,156,-338,-290,-48,314
,541,2023-10-20 13:53:31.85,290,-386,-2007,43,27,158,-71,-462,391,266
,542,2023-10-20 13:53:31.86,296,-378,-1995,1,46,159,-323,-313,-10,318
,543,2023-10-20 13:53:31.87,312,-370,-1997,-35,73,150,-59,-466,407,262
,544,2023-10-20 13:53:31.88,325,-349,-1985,-61,97,137,-311,-290,-21,300
,545,2023-10-20 13:53:31.89,328,-329,-1994,-85,109,117,-86,-415,329,250
,546,2023-10-20 13:53:31.90,328,-344,-1982,-93,113,91,-341,-213,-128,277
,547,2023-10-20 13:53:31.91,337,-344,-1985,-92,112,59,-118,-371,253,244
,548,2023-10-20 13:53:31.92,326,-330,-2010,-102,104,45,-365,-200,-165,282
,549,2023-10-20 13:53:31.93,336,-331,-2010,-105,88,30,-131,-366,235,248
,550,2023-10-20 13:53:31.94,323,-314,-2018,-98,72,-3,-354,-195,-159,274
,551,2023-10-20 13:53:31.95,341,-305,-2040,-99,50,-36,-135,-374,239,254
,552,2023-10-20 13:53:31.96,344,-302,-2013,-97,47,-78,-355,-213,-142,284
,553,2023-10-20 13:53:31.97,324,-289,-2002,-87,53,-117,-138,-398,260,268
,554,2023-10-20 13:53:31.98,337,-296,-1984,-78,50,-137,-352,-238,-114,295
,555,2023-10-20 13:53:31.99,330,-323,-2001,-74,40,-147,-137,-405,268,271
,556,2023-10-20 13:53:32.00,327,-334,-1993,-74,27,-153,-336,-230,-106,283
,557,2023-10-20 13:53:32.01,335,-332,-2002,-86,14,-151,-144,-403,259,273
,558,2023-10-20 13:53:32.02,319,-352,-2018,-103,13,-141,-334,-230,-104,282
,559,2023-10-20 13:53:32.03,313,-347,-2024,-111,13,-129,-136,-406,270,271
,560,2023-10-20 13:53:32.04,316,-347,-2052,-115,9,-110,-326,-231,-95,278
,561,2023-10-20 13:53:32.05,314,-319,-2014,-102,0,-100,-136,-390,254,263
,562,2023-10-20 13:53:32.06,322,-322,-2019,-95,-12,-80,-309,-221,-88,265
,563,2023-10-20 13:53:32.07,317,-332,-2025,-101,-14,-59,-128,-382,254,255
,564,2023-10-20 13:53:32.08,325,-304,-2004,-87,-14,-59,-303,-230,-73,266
,565,2023-10-20 13:53:32.09,318,-284,-2020,-95,-4,-55,-361,-598,237,479
,566,2023-10-20 13:53:32.10,301,-269,-2027,-120,6,-47,-559,-756,197,657
,567,2023-10-20 13:53:32.11,300,-274,-2013,-140,10,-50,-502,-1019,517,760
,568,2023-10-20 13:53:32.12,322,-274,-2008,-149,14,-53,-556,-935,379,745
,569,2023-10-20 13:53:32.13,320,-277,-2020,-152,13,-49,-474,-1032,558,753
,570,2023-10-20 13:53:32.14,313,-283,-2008,-149,22,-47,-543,-906,363,724
,571,2023-10-20 13:53:32.15,303,-284,-2029,-150,35,-39,-494,-1027,533,760
,572,2023-10-20 13:53:32.16,306,-283,-2034,-147,32,-26,-551,-944,393,747
,573,2023-10-20 13:53:32.17,294,-259,-2077,-143,31,-14,-491,-1071,580,781
,574,2023-10-20 13:53:32.18,292,-265,-2079,-150,22,3,-536,-965,429,750
,575,2023-10-20 13:53:32.19,292,-252,-2069,-165,17,22,-485,-1068,583,776
,576,2023-10-20 13:53:32.20,288,-248,-2057,-190,12,60,-521,-958,437,739
,577,2023-10-20 13:53:32.21,307,-263,-2030,-196,14,88,-486,-1070,584,778
,578,2023-10-20 13:53:32.22,304,-269,-2003,-174,23,119,-515,-990,475,752
,579,2023-10-20 13:53:32.23,327,-302,-2023,-140,36,149,-488,-1107,619,797
,580,2023-10-20 13:53:32.24,267,-347,-2041,-107,65,183,-506,-1006,500,756
,581,2023-10-20 13:53:32.25,274,-334,-2048,-42,79,199,-483,-1102,619,792
,582,2023-10-20 13:53:32.26,278,-260,-2023,62,103,174,-483,-988,505,735
,583,2023-10-20 13:53:32.27,296,-240,-1994,144,115,155,-407,-1104,697,755
,584,2023-10-20 13:53:32.28,308,-242,-1981,154,130,158,-407,-1031,624,719
,585,2023-10-20 13:53:32.29,309,-240,-1998,140,140,143,-322,-1150,828,736
,586,2023-10-20 13:53:32.30,308,-247,-1976,153,131,87,-351,-1074,723,712
,587,2023-10-20 13:53:32.31,324,-282,-1986,153,154,36,-273,-1218,945,745
,588,2023-10-20 13:53:32.32,323,-324,-1993,148,191,21,-282,-1160,878,721
,589,2023-10-20 13:53:32.33,310,-344,-2019,157,221,26,-62,-1288,1226,675
,590,2023-10-20 13:53:32.34,306,-348,-2022,171,240,35,-83,-1107,1024,595
,591,2023-10-20 13:53:32.35,343,-354,-2046,171,236,52,24,-1173,1197,574
,592,2023-10-20 13:53:32.36,317,-391,-2026,157,240,64,-54,-967,913,510
,593,2023-10-20 13:53:32.37,321,-408,-2042,144,247,92,78,-1066,1144,494
,594,2023-10-20 13:53:32.38,311,-397,-2053,128,242,144,12,-879,891,433
,595,2023-10-20 13:53:32.39,316,-381,-2088,115,226,200,124,-1000,1124,438
,596,2023-10-20 13:53:32.40,316,-362,-2072,108,198,239,51,-821,872,385
,597,2023-10-20 13:53:32.41,340,-344,-2047,116,163,269,115,-957,1072,421
,598,2023-10-20 13:53:32.42,377,-313,-2027,113,139,285,53,-781,834,364
,599,2023-10-20 13:53:32.43,406,-317,-2015,114,124,294,145,-921,1066,388
,600,2023-10-20 13:53:32.44,422,-309,-2011,129,113,279,88,-749,837,330
,601,2023-10-20 13:53:32.45,463,-325,-2004,160,107,254,145,-895,1040,375
,602,2023-10-20 13:53:32.46,477,-298,-2004,195,107,226,110,-727,837,308
,603,2023-10-20 13:53:32.47,480,-325,-1999,217,114,201,131,-880,1011,374
,604,2023-10-20 13:53:32.48,486,-371,-2052,234,118,185,96,-711,807,307
,605,2023-10-20 13:53:32.49,504,-362,-2034,271,89,168,118,-865,983,373
,606,2023-10-20 13:53:32.50,525,-391,-2012,320,55,156,120,-696,816,288
,607,2023-10-20 13:53:32.51,527,-417,-2043,390,36,143,168,-850,1018,341
,608,2023-10-20 13:53:32.52,506,-316,-2030,504,20,96,167,-697,864,265
,609,2023-10-20 13:53:32.53,532,-347,-2028,579,-1,70,170,-851,1021,340
,610,2023-10-20 13:53:32.54,543,-368,-2014,610,4,39,170,-693,863,261
,611,2023-10-20 13:53:32.55,537,-386,-2004,616,4,10,166,-842,1008,338
,612,2023-10-20 13:53:32.56,536,-447,-1992,611,4,-5,176,-683,859,253
,613,2023-10-20 13:53:32.57,523,-487,-1967,599,26,9,171,-822,993,325
,614,2023-10-20 13:53:32.58,521,-506,-1995,608,36,38,195,-673,868,239
,615,2023-10-20 13:53:32.59,514,-498,-1983,623,31,71,133,-796,929,331
,616,2023-10-20 13:53:32.60,520,-525,-1961,632,36,111,151,-634,785,241
,617,2023-10-20 13:53:32.61,494,-525,-1925,644,36,138,8,-663,671,327
,618,2023-10-20 13:53:32.62,501,-512,-1910,649,51,154,98,-535,633,218
,619,2023-10-20 13:53:32.63,488,-501,-1916,653,54,165,110,-763,873,326
,620,2023-10-20 13:53:32.64,494,-519,-1929,647,46,174,232,-747,979,257
,621,2023-10-20 13:53:32.65,481,-533,-1940,638,47,182,201,-909,1110,354
,622,2023-10-20 13:53:32.66,467,-543,-1940,638,47,178,267,-773,1040,253
,623,2023-10-20 13:53:32.67,449,-514,-1943,624,47,156,162,-857,1019,347
,624,2023-10-20 13:53:32.68,438,-555,-1955,591,48,145,240,-711,951,235
,625,2023-10-20 13:53:32.69,447,-538,-1971,558,52,137,140,-807,947,333
,626,2023-10-20 13:53:32.70,429,-537,-1949,536,45,109,225,-729,954,252
,627,2023-10-20 13:53:32.71,430,-549,-1978,519,13,87,37,-747,784,355
,628,2023-10-20 13:53:32.72,418,-558,-1949,508,-12,57,172,-590,762,209
,629,2023-10-20 13:53:32.73,421,-578,-1947,492,-33,24,85,-696,781,305
,630,2023-10-20 13:53:32.74,399,-597,-1957,477,-61,-2,238,-647,885,204
,631,2023-10-20 13:53:32.75,393,-595,-1949,458,-84,-24,66,-726,792,330
,632,2023-10-20 13:53:32.76,378,-609,-1936,435,-101,-38,176,-664,840,244
,633,2023-10-20 13:53:32.77,372,-614,-1941,417,-129,-52,-55,-610,555,332
,634,2023-10-20 13:53:32.78,364,-593,-1915,382,-149,-66,96,-534,630,219
,635,2023-10-20 13:53:32.79,371,-549,-1905,360,-173,-85,-128,-502,374,315
,636,2023-10-20 13:53:32.80,398,-579,-1882,332,-188,-116,42,-494,536,226
,637,2023-10-20 13:53:32.81,382,-578,-1881,293,-176,-155,-196,-463,267,329
,638,2023-10-20 13:53:32.82,400,-569,-1883,254,-169,-173,-20,-459,439,239
,639,2023-10-20 13:53:32.83,432,-618,-1872,220,-156,-192,-290,-367,77,328
,640,2023-10-20 13:53:32.84,395,-705,-1916,213,-130,-198,-81,-383,302,232
,641,2023-10-20 13:53:32.85,380,-604,-1912,260,-105,-223,-310,-287,-23,298
,642,2023-10-20 13:53:32.86,408,-549,-1920,301,-138,-248,-71,-337,266,204
,643,2023-10-20 13:53:32.87,430,-603,-1952,244,-171,-258,-322,-234,-88,278
,644,2023-10-20 13:53:32.88,429,-622,-1926,177,-196,-299,-102,-310,208,206
,645,2023-10-20 13:53:32.89,440,-687,-1959,139,-194,-324,-386,-210,-176,298
,646,2023-10-20 13:53:32.90,453,-729,-1973,120,-183,-311,-155,-306,151,230
,647,2023-10-20 13:53:32.91,427,-787,-1970,122,-198,-280,-424,-207,-217,315
,648,2023-10-20 13:53:32.92,403,-779,-2085,85,-237,-221,-240,-335,95,287
,649,2023-10-20 13:53:32.93,412,-817,-2087,29,-310,-145,-579,-283,-296,431
,650,2023-10-20 13:53:32.94,402,-802,-2059,2,-380,-100,-360,-446,86,403
,651,2023-10-20 13:53:32.95,409,-800,-2106,-50,-461,-57,-643,-395,-248,519
,652,2023-10-20 13:53:32.96,414,-851,-2017,-118,-517,1,-382,-528,146,455
,653,2023-10-20 13:53:32.97,374,-847,-2081,-180,-562,69,-642,-436,-206,539
,654,2023-10-20 13:53:32.98,348,-887,-2029,-227,-633,148,-378,-576,198,477
,655,2023-10-20 13:53:32.99,320,-859,-1983,-256,-684,211,-642,-574,-68,608
,656,2023-10-20 13:53:33.00,313,-847,-1945,-276,-754,270,-379,-706,327,542
,657,2023-10-20 13:53:33.01,271,-839,-1848,-288,-791,307,-647,-676,29,661
,658,2023-10-20 13:53:33.02,240,-836,-1813,-300,-815,334,-382,-770,388,576
,659,2023-10-20 13:53:33.03,210,-796,-1816,-329,-802,356,-644,-765,121,704
,660,2023-10-20 13:53:33.04,207,-767,-1806,-363,-752,370,-380,-878,498,629
,661,2023-10-20 13:53:33.05,167,-754,-1789,-390,-687,368,-643,-812,169,727
,662,2023-10-20 13:53:33.06,156,-712,-1787,-402,-632,357,-374,-871,497,622
,663,2023-10-20 13:53:33.07,126,-673,-1752,-424,-556,333,-642,-814,172,728
,664,2023-10-20 13:53:33.08,114,-642,-1808,-444,-486,298,-373,-907,534,640
,665,2023-10-20 13:53:33.09,119,-616,-1835,-495,-415,256,-639,-866,227,752
,666,2023-10-20 13:53:33.10,108,-655,-1838,-532,-334,212,-358,-934,576,646
,667,2023-10-20 13:53:33.11,95,-659,-1876,-541,-241,192,-621,-888,267,754
,668,2023-10-20 13:53:33.12,95,-623,-1857,-549,-150,203,-373,-965,592,669
,669,2023-10-20 13:53:33.13,76,-617,-1874,-563,-61,230,-635,-859,224,747
,670,2023-10-20 13:53:33.14,84,-610,-1893,-574,7,254,-359,-924,565,641
,671,2023-10-20 13:53:33.15,77,-563,-1907,-572,37,260,-617,-803,186,710
,672,2023-10-20 13:53:33.16,91,-520,-1930,-573,62,249,-261,-839,578,550
,673,2023-10-20 13:53:33.17,109,-492,-1927,-566,84,224,-497,-666,169,581
,674,2023-10-20 13:53:33.18,122,-443,-1917,-537,116,180,-147,-745,598,446
,675,2023-10-20 13:53:33.19,125,-431,-1925,-507,156,137,-384,-679,295,531
,676,2023-10-20 13:53:33.20,137,-427,-1941,-482,197,95,2,-790,792,394
,677,2023-10-20 13:53:33.21,141,-449,-1926,-431,232,54,-233,-702,469,467
,678,2023-10-20 13:53:33.22,156,-447,-1936,-369,257,24,-10,-759,749,384
,679,2023-10-20 13:53:33.23,164,-448,-1964,-323,292,14,-375,-586,211,480
,680,2023-10-20 13:53:33.24,170,-421,-1991,-285,327,-3,-145,-605,460,375
,681,2023-10-20 13:53:33.25,186,-405,-2003,-256,344,-19,-452,-356,-96,404
,682,2023-10-20 13:53:33.26,186,-401,-2007,-229,355,-35,-160,-488,328,324
,683,2023-10-20 13:53:33.27,192,-386,-2028,-205,347,-47,-417,-389,-28,403
,684,2023-10-20 13:53:33.28,199,-373,-2044,-194,338,-62,-117,-591,474,354
,685,2023-10-20 13:53:33.29,236,-375,-2013,-183,337,-87,-396,-477,81,436
,686,2023-10-20 13:53:33.30,245,-364,-1990,-154,325,-114,-122,-616,494,369
,687,2023-10-20 13:53:33.31,255,-367,-1960,-139,326,-133,-395,-476,81,435
,688,2023-10-20 13:53:33.32,287,-351,-1962,-137,338,-152,-124,-596,472,360
,689,2023-10-20 13:53:33.33,288,-355,-1987,-134,352,-183,-384,-439,55,411
,690,2023-10-20 13:53:33.34,289,-385,-1990,-138,365,-209,-114,-594,480,354
,691,2023-10-20 13:53:33.35,281,-393,-2014,-132,371,-217,-368,-467,99,417
,692,2023-10-20 13:53:33.36,287,-395,-2043,-125,366,-214,-86,-620,534,353
,693,2023-10-20 13:53:33.37,294,-414,-2030,-124,354,-211,-338,-472,134,405
,694,2023-10-20 13:53:33.38,291,-411,-2056,-134,350,-206,-72,-632,560,352
,695,2023-10-20 13:53:33.39,297,-397,-2044,-146,340,-195,-314,-483,169,398
,696,2023-10-20 13:53:33.40,298,-371,-2032,-165,325,-186,-93,-549,456,321
,697,2023-10-20 13:53:33.41,307,-371,-2005,-190,318,-181,-348,-305,-43,326
,698,2023-10-20 13:53:33.42,314,-349,-2007,-220,304,-180,-105,-424,319,264
,699,2023-10-20 13:53:33.43,311,-396,-1943,-242,292,-182,-329,-266,-63,297
,700,2023-10-20 13:53:33.44,303,-354,-1979,-235,281,-170,-110,-428,318,269
,701,2023-10-20 13:53:33.45,264,-365,-2020,-254,239,-147,-342,-259,-83,300
,702,2023-10-20 13:53:33.46,257,-361,-2056,-294,215,-130,-135,-411,276,273
,703,2023-10-20 13:53:33.47,269,-357,-2026,-335,186,-112,-350,-241,-109,295
,704,2023-10-20 13:53:33.48,288,-329,-2028,-368,167,-99,-157,-424,267,290
,705,2023-10-20 13:53:33.49,328,-303,-1993,-401,140,-91,-373,-285,-88,329
,706,2023-10-20 13:53:33.50,362,-279,-1969,-436,139,-92,-191,-452,261,321
,707,2023-10-20 13:53:33.51,387,-254,-1927,-463,141,-106,-387,-284,-103,335
,708,2023-10-20 13:53:33.52,415,-250,-1945,-471,148,-120,-221,-430,209,325
,709,2023-10-20 13:53:33.53,442,-274,-2005,-507,161,-128,-400,-256,-144,328
,710,2023-10-20 13:53:33.54,446,-241,-2041,-517,156,-137,-211,-402,191,306
,711,2023-10-20 13:53:33.55,460,-240,-2025,-508,139,-141,-376,-227,-149,301
,712,2023-10-20 13:53:33.56,490,-239,-2040,-512,145,-135,-221,-402,181,311
,713,2023-10-20 13:53:33.57,521,-219,-2010,-517,167,-142,-388,-265,-123,326
,714,2023-10-20 13:53:33.58,543,-197,-1948,-493,179,-169,-222,-455,233,338
,715,2023-10-20 13:53:33.59,587,-150,-1962,-452,205,-198,-367,-306,-61,336
,716,2023-10-20 13:53:33.60,577,-159,-1974,-408,231,-227,-211,-457,246,334
,717,2023-10-20 13:53:33.61,589,-136,-2004,-366,265,-259,-348,-279,-69,313
,718,2023-10-20 13:53:33.62,604,-168,-1984,-331,300,-292,-198,-437,239,317
,719,2023-10-20 13:53:33.63,594,-202,-2010,-282,343,-328,-321,-295,-26,308
,720,2023-10-20 13:53:33.64,560,-208,-2085,-234,365,-386,-190,-460,270,325
,721,2023-10-20 13:53:33.65,585,-256,-2109,-204,377,-397,-320,-299,-21,309
,722,2023-10-20 13:53:33.66,584,-290,-2151,-121,358,-383,-189,-461,272,325
,723,2023-10-20 13:53:33.67,585,-267,-2131,-24,323,-370,-291,-295,4,293
,724,2023-10-20 13:53:33.68,597,-286,-2079,60,294,-361,-143,-445,302,294
,725,2023-10-20 13:53:33.69,604,-323,-2022,150,260,-345,-245,-275,30,260
,726,2023-10-20 13:53:33.70,584,-320,-2049,227,238,-323,-102,-413,311,257
,727,2023-10-20 13:53:33.71,555,-315,-2097,304,211,-289,-198,-253,55,225
,728,2023-10-20 13:53:33.72,482,-364,-2090,379,133,-263,-14,-409,395,211
,729,2023-10-20 13:53:33.73,473,-376,-2087,420,97,-225,-104,-258,154,181
,730,2023-10-20 13:53:33.74,408,-387,-2087,460,65,-188,111,-453,564,171
,731,2023-10-20 13:53:33.75,393,-398,-2096,501,27,-142,-20,-323,303,171
,732,2023-10-20 13:53:33.76,412,-393,-2076,537,-22,-93,179,-531,710,176
,733,2023-10-20 13:53:33.77,402,-363,-2066,558,-75,-55,39,-402,441,181
,734,2023-10-20 13:53:33.78,394,-380,-1991,556,-136,-51,229,-641,870,206
,735,2023-10-20 13:53:33.79,441,-308,-1891,560,-158,-54,79,-520,599,220
,736,2023-10-20 13:53:33.80,499,-334,-1973,584,-185,-54,251,-731,982,240
,737,2023-10-20 13:53:33.81,417,-416,-2150,621,-239,-90,105,-580,685,237
,738,2023-10-20 13:53:33.82,494,-476,-2241,620,-285,-101,248,-732,980,242
,739,2023-10-20 13:53:33.83,366,-512,-2215,627,-273,-106,112,-548,660,218
,740,2023-10-20 13:53:33.84,343,-303,-2179,627,-252,-43,236,-694,930,229
,741,2023-10-20 13:53:33.85,308,-419,-2121,534,-302,57,114,-517,631,201
,742,2023-10-20 13:53:33.86,254,-407,-2188,414,-377,99,222,-657,879,217
,743,2023-10-20 13:53:33.87,274,-334,-2071,349,-521,79,114,-489,603,187
,744,2023-10-20 13:53:33.88,328,-330,-1907,344,-615,33,208,-625,833,208
,745,2023-10-20 13:53:33.89,325,-421,-1827,301,-615,26,120,-478,598,179
,746,2023-10-20 13:53:33.90,302,-421,-1874,237,-560,51,183,-611,794,214
,747,2023-10-20 13:53:33.91,296,-417,-1943,197,-545,84,100,-467,567,183
,748,2023-10-20 13:53:33.92,287,-348,-2040,172,-542,106,130,-564,694,217
,749,2023-10-20 13:53:33.93,245,-373,-2045,105,-561,113,66,-420,486,177
,750,2023-10-20 13:53:33.94,231,-392,-2065,32,-565,100,36,-449,485,206
,751,2023-10-20 13:53:33.95,220,-384,-2046,-15,-580,88,-24,-320,296,172
,752,2023-10-20 13:53:33.96,273,-382,-1952,-58,-550,73,-194,-370,176,282
,753,2023-10-20 13:53:33.97,264,-359,-1881,-101,-494,58,-189,-277,88,233
,754,2023-10-20 13:53:33.98,295,-347,-1870,-143,-440,38,-296,-341,45,318
,755,2023-10-20 13:53:33.99,273,-335,-1881,-194,-371,12,-232,-277,45,254
,756,2023-10-20 13:53:34.00,272,-337,-1928,-253,-313,-13,-341,-360,19,350
,757,2023-10-20 13:53:34.01,261,-311,-1963,-323,-256,-47,-261,-320,59,290
,758,2023-10-20 13:53:34.02,235,-326,-1974,-389,-217,-59,-391,-405,14,398
,759,2023-10-20 13:53:34.03,232,-315,-1972,-443,-167,-68,-304,-371,67,337
,760,2023-10-20 13:53:34.04,217,-309,-1995,-482,-139,-74,-465,-428,-37,446
,761,2023-10-20 13:53:34.05,197,-309,-2030,-532,-144,-70,-359,-362,3,360
,762,2023-10-20 13:53:34.06,179,-278,-2023,-588,-153,-70,-516,-419,-97,467
,763,2023-10-20 13:53:34.07,197,-297,-2042,-630,-160,-66,-384,-394,10,389
,764,2023-10-20 13:53:34.08,163,-287,-2061,-654,-173,-59,-536,-472,-64,504
,765,2023-10-20 13:53:34.09,190,-263,-2042,-674,-182,-47,-386,-465,79,425
,766,2023-10-20 13:53:34.10,189,-260,-2034,-686,-170,-34,-548,-690,142,619
,767,2023-10-20 13:53:34.11,175,-260,-2053,-678,-157,-23,-390,-726,336,558
,768,2023-10-20 13:53:34.12,175,-237,-2037,-641,-150,-6,-558,-840,282,699
,769,2023-10-20 13:53:34.13,173,-219,-2004,-579,-134,7,-390,-787,397,588
,770,2023-10-20 13:53:34.14,179,-183,-2007,-510,-119,18,-564,-809,245,686
,771,2023-10-20 13:53:34.15,173,-153,-2007,-447,-94,13,-383,-719,336,551
,772,2023-10-20 13:53:34.16,173,-127,-1980,-390,-69,2,-566,-778,212,672
,773,2023-10-20 13:53:34.17,176,-116,-1998,-339,-42,-12,-383,-747,364,565
,774,2023-10-20 13:53:34.18,178,-90,-2033,-296,-20,-32,-579,-813,234,696
,775,2023-10-20 13:53:34.19,155,-70,-2043,-269,0,-50,-385,-806,421,595
,776,2023-10-20 13:53:34.20,168,-53,-2057,-259,17,-60,-586,-844,258,715
,777,2023-10-20 13:53:34.21,158,-44,-2065,-256,20,-72,-385,-826,441,605
,778,2023-10-20 13:53:34.22,153,-26,-2069,-249,20,-97,-589,-839,250,714
,779,2023-10-20 13:53:34.23,167,-38,-2070,-246,19,-114,-382,-835,453,608
,780,2023-10-20 13:53:34.24,160,-30,-2057,-242,22,-118,-591,-834,243,712
,781,2023-10-20 13:53:34.25,175,-42,-2054,-234,29,-124,-388,-853,465,620
,782,2023-10-20 13:53:34.26,200,-49,-2042,-212,41,-131,-613,-845,232,729
,783,2023-10-20 13:53:34.27,198,-31,-2036,-192,51,-130,-392,-904,512,648
,784,2023-10-20 13:53:34.28,185,-50,-2059,-169,63,-116,-611,-886,275,748
,785,2023-10-20 13:53:34.29,213,-64,-2036,-143,60,-105,-385,-903,518,644
,786,2023-10-20 13:53:34.30,182,-143,-2128,-102,75,-87,-608,-865,257,736
,787,2023-10-20 13:53:34.31,171,-75,-2103,-34,86,-104,-389,-912,523,650
,788,2023-10-20 13:53:34.32,152,15,-2075,64,85,-121,-619,-870,251,744
,789,2023-10-20 13:53:34.33,189,5,-2028,111,53,-107,-383,-904,521,643
,790,2023-10-20 13:53:34.34,195,-20,-2030,84,20,-92,-611,-844,233,727
,791,2023-10-20 13:53:34.35,185,-2,-2040,33,5,-121,-372,-887,515,629
,792,2023-10-20 13:53:34.36,178,-20,-2043,1,8,-174,-612,-833,221,722
,793,2023-10-20 13:53:34.37,213,-49,-2051,0,23,-191,-375,-880,505,627
,794,2023-10-20 13:53:34.38,219,-68,-2038,23,47,-169,-622,-818,196,720
,795,2023-10-20 13:53:34.39,200,-60,-2045,46,69,-147,-381,-878,497,629
,796,2023-10-20 13:53:34.40,201,-55,-2053,56,75,-140,-624,-823,199,723
,797,2023-10-20 13:53:34.41,205,-47,-2050,52,78,-137,-391,-885,494,638
,798,2023-10-20 13:53:34.42,213,-58,-2056,39,77,-125,-640,-817,177,728
,799,2023-10-20 13:53:34.43,209,-61,-2040,33,87,-111,-391,-892,501,641
,800,2023-10-20 13:53:34.44,218,-82,-2023,43,95,-93,-636,-821,185,728
,801,2023-10-20 13:53:34.45,221,-87,-2023,48,108,-72,-390,-883,493,636
,802,2023-10-20 13:53:34.46,229,-70,-2022,60,118,-53,-646,-804,158,725
,803,2023-10-20 13:53:34.47,231,-55,-2023,68,124,-40,-411,-869,458,640
,804,2023-10-20 13:53:34.48,240,-57,-2019,60,125,-33,-670,-794,124,732
,805,2023-10-20 13:53:34.49,223,-68,-2026,54,136,-31,-400,-868,468,634
,806,2023-10-20 13:53:34.50,234,-76,-2036,47,144,-26,-641,-791,150,716
,807,2023-10-20 13:53:34.51,223,-48,-2048,39,154,-17,-402,-866,464,634
,808,2023-10-20 13:53:34.52,233,-39,-2033,46,157,-23,-668,-802,134,735
,809,2023-10-20 13:53:34.53,224,-47,-2010,66,156,-43,-415,-896,481,655
,810,2023-10-20 13:53:34.54,237,-40,-1996,76,166,-65,-659,-824,165,741
,811,2023-10-20 13:53:34.55,227,-17,-2017,90,181,-96,-404,-918,514,661
,812,2023-10-20 13:53:34.56,230,-10,-1995,98,194,-141,-656,-832,176,744
,813,2023-10-20 13:53:34.57,260,-12,-1962,106,212,-202,-406,-914,508,660
,814,2023-10-20 13:53:34.58,295,-52,-1959,129,231,-282,-659,-834,175,746
,815,2023-10-20 13:53:34.59,267,-88,-1977,179,288,-378,-416,-959,543,687
,816,2023-10-20 13:53:34.60,306,-120,-1943,243,362,-437,-665,-885,220,775
,817,2023-10-20 13:53:34.61,346,-134,-1924,284,455,-443,-391,-993,602,692
,818,2023-10-20 13:53:34.62,374,-168,-1912,317,536,-449,-633,-893,260,763
,819,2023-10-20 13:53:34.63,388,-182,-1936,355,589,-465,-379,-974,595,676
,820,2023-10-20 13:53:34.64,415,-170,-1953,386,629,-488,-635,-868,233,751
,821,2023-10-20 13:53:34.65,441,-207,-1978,410,649,-493,-384,-959,575,671
,822,2023-10-20 13:53:34.66,480,-232,-1978,461,661,-505,-631,-856,225,743
,823,2023-10-20 13:53:34.67,508,-233,-1976,521,681,-522,-386,-962,576,674
,824,2023-10-20 13:53:34.68,541,-206,-1996,574,712,-537,-633,-869,236,751
,825,2023-10-20 13:53:34.69,592,-199,-1996,595,750,-535,-388,-975,587,681
,826,2023-10-20 13:53:34.70,609,-218,-2061,606,759,-521,-629,-872,243,750
,827,2023-10-20 13:53:34.71,630,-228,-2088,633,718,-517,-383,-980,597,681
,828,2023-10-20 13:53:34.72,635,-241,-2128,647,660,-499,-621,-869,248,745
,829,2023-10-20 13:53:34.73,662,-272,-2173,624,599,-449,-382,-973,591,677
,830,2023-10-20 13:53:34.74,647,-304,-2168,595,518,-392,-618,-850,232,734
,831,2023-10-20 13:53:34.75,655,-361,-2177,580,428,-327,-384,-937,553,660
,832,2023-10-20 13:53:34.76,648,-364,-2165,587,326,-257,-613,-808,195,710
,833,2023-10-20 13:53:34.77,664,-363,-2128,586,231,-179,-385,-905,520,645
,834,2023-10-20 13:53:34.78,664,-367,-2088,581,152,-100,-610,-783,173,696
,835,2023-10-20 13:53:34.79,637,-351,-2073,563,84,-28,-391,-882,491,636
,836,2023-10-20 13:53:34.80,633,-372,-2053,529,19,45,-615,-777,162,696
,837,2023-10-20 13:53:34.81,616,-366,-2055,497,-31,104,-400,-921,521,660
,838,2023-10-20 13:53:34.82,585,-378,-2051,469,-78,162,-614,-829,215,721
,839,2023-10-20 13:53:34.83,571,-371,-2019,445,-132,199,-400,-956,556,678
,840,2023-10-20 13:53:34.84,559,-340,-1987,408,-182,219,-609,-846,237,727
,841,2023-10-20 13:53:34.85,528,-375,-1993,348,-210,237,-410,-968,558,689
,842,2023-10-20 13:53:34.86,494,-359,-2012,305,-231,250,-611,-830,219,720
,843,2023-10-20 13:53:34.87,465,-350,-1977,277,-257,261,-412,-935,523,673
,844,2023-10-20 13:53:34.88,463,-379,-1966,226,-262,290,-605,-795,190,700
,845,2023-10-20 13:53:34.89,420,-377,-2038,169,-262,307,-418,-922,504,670
,846,2023-10-20 13:53:34.90,435,-367,-1993,144,-277,300,-610,-798,188,704
,847,2023-10-20 13:53:34.91,412,-403,-2002,117,-288,307,-418,-894,476,656
,848,2023-10-20 13:53:34.92,399,-390,-2011,97,-288,305,-593,-694,101,643
,849,2023-10-20 13:53:34.93,382,-372,-2029,77,-291,299,-410,-766,356,588
,850,2023-10-20 13:53:34.94,380,-377,-2008,54,-291,287,-588,-567,-21,577
,851,2023-10-20 13:53:34.95,366,-364,-1999,27,-297,268,-408,-652,244,530
,852,2023-10-20 13:53:34.96,373,-367,-1994,-9,-293,258,-575,-420,-155,497
,853,2023-10-20 13:53:34.97,364,-372,-1985,-45,-290,253,-373,-515,142,444
,854,2023-10-20 13:53:34.98,357,-360,-1996,-76,-293,246,-528,-307,-221,417
,855,2023-10-20 13:53:34.99,343,-364,-1993,-97,-289,232,-312,-445,133,378
,856,2023-10-20 13:53:35.00,347,-359,-1983,-114,-286,209,-474,-266,-208,370
,857,2023-10-20 13:53:35.01,356,-365,-1990,-119,-285,177,-306,-470,164,388
,858,2023-10-20 13:53:35.02,335,-357,-2000,-113,-289,136,-492,-357,-135,424
,859,2023-10-20 13:53:35.03,355,-345,-1974,-103,-294,99,-295,-570,275,432
,860,2023-10-20 13:53:35.04,356,-351,-1960,-115,-287,88,-445,-432,-13,438
,861,2023-10-20 13:53:35.05,366,-352,-1959,-131,-274,96,-254,-604,350,429
,862,2023-10-20 13:53:35.06,339,-355,-1975,-160,-257,110,-416,-446,30,431
,863,2023-10-20 13:53:35.07,329,-375,-2013,-177,-246,135,-249,-651,402,450
,864,2023-10-20 13:53:35.08,306,-364,-2018,-176,-254,157,-414,-548,134,481
,865,2023-10-20 13:53:35.09,309,-348,-2030,-165,-282,170,-267,-722,455,494
,866,2023-10-20 13:53:35.10,303,-321,-2043,-155,-309,178,-424,-559,135,491
,867,2023-10-20 13:53:35.11,299,-310,-2019,-154,-322,167,-248,-782,534,515
,868,2023-10-20 13:53:35.12,302,-311,-2017,-145,-331,154,-372,-694,322,533
,869,2023-10-20 13:53:35.13,287,-309,-2026,-134,-340,150,-205,-808,603,506
,870,2023-10-20 13:53:35.14,289,-297,-2042,-144,-334,143,-342,-581,239,461
,871,2023-10-20 13:53:35.15,267,-289,-2017,-157,-326,143,-192,-680,488,436
,872,2023-10-20 13:53:35.16,277,-300,-2012,-161,-332,163,-329,-499,170,414
,873,2023-10-20 13:53:35.17,272,-289,-2051,-158,-353,164,-134,-650,516,392
,874,2023-10-20 13:53:35.18,240,-280,-2027,-168,-357,155,-233,-487,254,360
,875,2023-10-20 13:53:35.19,247,-270,-2005,-171,-339,146,13,-635,648,311
,876,2023-10-20 13:53:35.20,254,-281,-1999,-172,-322,149,-120,-467,347,293
,877,2023-10-20 13:53:35.21,236,-240,-2007,-160,-300,139,81,-620,701,269
,878,2023-10-20 13:53:35.22,215,-227,-2024,-160,-281,128,-89,-459,370,274
,879,2023-10-20 13:53:35.23,230,-219,-1999,-172,-250,126,-102,-562,460,332
,880,2023-10-20 13:53:35.24,217,-237,-1985,-162,-223,113,-289,-368,79,328
,881,2023-10-20 13:53:35.25,214,-234,-2005,-146,-204,106,-282,-580,298,431
,882,2023-10-20 13:53:35.26,199,-229,-2020,-140,-183,107,-363,-505,142,434
,883,2023-10-20 13:53:35.27,189,-223,-2028,-132,-161,103,-282,-620,338,451
,884,2023-10-20 13:53:35.28,185,-225,-2031,-127,-142,108,-330,-428,98,379
,885,2023-10-20 13:53:35.29,184,-229,-2023,-115,-127,110,-290,-513,223,401
,886,2023-10-20 13:53:35.30,194,-231,-2014,-96,-109,113,-347,-383,36,365
,887,2023-10-20 13:53:35.31,187,-225,-2007,-79,-92,110,-316,-523,207,419
,888,2023-10-20 13:53:35.32,185,-229,-2013,-56,-74,101,-358,-422,64,390
,889,2023-10-20 13:53:35.33,192,-235,-1997,-34,-63,93,-355,-615,260,485
,890,2023-10-20 13:53:35.34,197,-241,-2013,-18,-43,84,-374,-548,174,461
,891,2023-10-20 13:53:35.35,187,-251,-2016,3,-25,72,-403,-652,249,527
,892,2023-10-20 13:53:35.36,195,-254,-2015,25,-11,58,-409,-524,115,466
,893,2023-10-20 13:53:35.37,211,-262,-2012,47,-3,44,-442,-702,260,572
,894,2023-10-20 13:53:35.38,200,-271,-2010,58,9,34,-414,-665,251,539
,895,2023-10-20 13:53:35.39,208,-263,-2024,70,20,17,-457,-814,357,635
,896,2023-10-20 13:53:35.40,216,-275,-2019,75,29,1,-424,-759,335,591
,897,2023-10-20 13:53:35.41,218,-280,-2021,72,34,-7,-488,-857,369,672
,898,2023-10-20 13:53:35.42,208,-274,-2029,72,44,-22,-437,-816,379,626
,899,2023-10-20 13:53:35.43,207,-255,-2018,78,42,-43,-501,-898,397,699
,900,2023-10-20 13:53:35.44,197,-280,-2023,71,40,-61,-438,-866,428,652
,901,2023-10-20 13:53:35.45,212,-282,-2025,56,42,-77,-523,-929,406,726
,902,2023-10-20 13:53:35.46,200,-297,-2016,40,45,-99,-447,-865,418,656
,903,2023-10-20 13:53:35.47,214,-314,-2025,17,57,-100,-535,-898,363,716
,904,2023-10-20 13:53:35.48,226,-307,-2008,1,64,-101,-444,-850,406,647
,905,2023-10-20 13:53:35.49,225,-313,-2000,-12,75,-108,-544,-894,350,719
,906,2023-10-20 13:53:35.50,193,-353,-2064,-23,87,-104,-450,-870,420,660
,907,2023-10-20 13:53:35.51,227,-316,-2021,6,91,-120,-555,-909,354,732
,908,2023-10-20 13:53:35.52,227,-322,-1997,51,93,-151,-446,-924,478,685
,909,2023-10-20 13:53:35.53,221,-284,-1984,86,119,-175,-561,-954,393,757
,910,2023-10-20 13:53:35.54,219,-258,-1986,94,136,-179,-441,-952,511,696
,911,2023-10-20 13:53:35.55,220,-269,-2021,59,143,-186,-566,-956,390,761
,912,2023-10-20 13:53:35.56,226,-270,-2032,20,135,-225,-438,-960,522,699
,913,2023-10-20 13:53:35.57,246,-300,-2003,-2,137,-258,-573,-958,385,765
,914,2023-10-20 13:53:35.58,252,-305,-2014,1,147,-277,-442,-962,520,702
,915,2023-10-20 13:53:35.59,246,-319,-2013,23,162,-285,-588,-943,355,765
,916,2023-10-20 13:53:35.60,250,-315,-2021,46,175,-283,-441,-950,509,695
,917,2023-10-20 13:53:35.61,257,-299,-2021,61,183,-280,-595,-928,333,761
,918,2023-10-20 13:53:35.62,271,-296,-2037,62,181,-276,-444,-938,494,691
,919,2023-10-20 13:53:35.63,279,-293,-2052,54,174,-265,-613,-910,297,761
,920,2023-10-20 13:53:35.64,286,-296,-2054,48,160,-252,-444,-930,486,687
,921,2023-10-20 13:53:35.65,281,-295,-2056,47,150,-232,-610,-908,298,759
,922,2023-10-20 13:53:35.66,294,-302,-2044,44,143,-218,-437,-955,518,696
,923,2023-10-20 13:53:35.67,295,-291,-2051,53,130,-197,-614,-927,313,770
,924,2023-10-20 13:53:35.68,305,-304,-2046,56,125,-186,-435,-961,526,698
,925,2023-10-20 13:53:35.69,299,-305,-2048,60,121,-170,-625,-921,296,773
,926,2023-10-20 13:53:35.70,313,-313,-2030,67,117,-154,-442,-956,514,699
,927,2023-10-20 13:53:35.71,312,-317,-2026,78,121,-131,-639,-922,283,780
,928,2023-10-20 13:53:35.72,319,-308,-2028,88,128,-112,-438,-962,524,700
,929,2023-10-20 13:53:35.73,309,-275,-2029,91,134,-97,-628,-921,293,774
,930,2023-10-20 13:53:35.74,314,-267,-2040,83,123,-82,-418,-968,550,693
,931,2023-10-20 13:53:35.75,340,-270,-2044,78,104,-77,-624,-929,305,776
,932,2023-10-20 13:53:35.76,343,-285,-2035,75,91,-84,-424,-968,544,696
,933,2023-10-20 13:53:35.77,334,-299,-2032,72,83,-80,-638,-920,282,779
,934,2023-10-20 13:53:35.78,350,-319,-2034,58,84,-59,-418,-989,571,703
,935,2023-10-20 13:53:35.79,349,-311,-2026,55,90,-48,-625,-942,317,783
,936,2023-10-20 13:53:35.80,350,-303,-2024,56,88,-28,-402,-994,592,698
,937,2023-10-20 13:53:35.81,343,-307,-2021,56,88,-3,-618,-920,302,769
,938,2023-10-20 13:53:35.82,334,-285,-2026,54,83,11,-398,-982,584,690
,939,2023-10-20 13:53:35.83,345,-284,-2040,37,63,33,-622,-919,297,770
,940,2023-10-20 13:53:35.84,346,-309,-2047,15,39,48,-394,-975,581,684
,941,2023-10-20 13:53:35.85,343,-318,-2043,-5,19,55,-621,-905,284,763
,942,2023-10-20 13:53:35.86,354,-330,-2038,-24,13,72,-393,-981,588,687
,943,2023-10-20 13:53:35.87,345,-326,-2043,-29,7,95,-625,-916,291,770
,944,2023-10-20 13:53:35.88,354,-298,-2043,-13,-2,101,-387,-969,582,678
,945,2023-10-20 13:53:35.89,337,-270,-2046,13,-15,92,-627,-894,267,760
,946,2023-10-20 13:53:35.90,339,-250,-2013,33,-26,62,-380,-956,576,668
,947,2023-10-20 13:53:35.91,332,-250,-2001,45,-26,31,-623,-909,286,766
,948,2023-10-20 13:53:35.92,337,-265,-2007,58,-15,6,-368,-961,593,664
,949,2023-10-20 13:53:35.93,340,-287,-2014,72,-8,-9,-622,-920,298,771
,950,2023-10-20 13:53:35.94,331,-284,-1994,88,-6,-29,-321,-946,625,633
,951,2023-10-20 13:53:35.95,321,-309,-2005,94,4,-37,-547,-910,363,728
,952,2023-10-20 13:53:35.96,321,-309,-1998,111,21,-36,-244,-908,664,576
,953,2023-10-20 13:53:35.97,316,-320,-1986,133,38,-25,-498,-878,380,688
,954,2023-10-20 13:53:35.98,321,-317,-2003,142,45,-12,-172,-857,685,514
,955,2023-10-20 13:53:35.99,313,-311,-2011,142,42,-6,-372,-863,491,617
,956,2023-10-20 13:53:36.00,332,-311,-2021,139,38,2,-36,-858,822,447
,957,2023-10-20 13:53:36.01,315,-322,-2024,124,32,7,-252,-849,597,550
,958,2023-10-20 13:53:36.02,324,-318,-2036,107,28,7,57,-838,895,390
,959,2023-10-20 13:53:36.03,325,-331,-2044,89,24,11,-196,-819,623,507
,960,2023-10-20 13:53:36.04,315,-320,-2033,72,19,12,70,-815,885,372
,961,2023-10-20 13:53:36.05,321,-329,-2022,59,15,9,-219,-757,538,488
,962,2023-10-20 13:53:36.06,328,-333,-2025,44,8,14,62,-746,808,342
,963,2023-10-20 13:53:36.07,325,-345,-2024,34,5,18,-219,-646,427,432
,964,2023-10-20 13:53:36.08,333,-339,-2023,22,-2,23,70,-650,720,290
,965,2023-10-20 13:53:36.09,350,-338,-2023,10,-4,30,-211,-530,319,370
,966,2023-10-20 13:53:36.10,341,-324,-2017,-2,-4,30,67,-559,626,246
,967,2023-10-20 13:53:36.11,339,-321,-2023,-12,2,29,-232,-422,190,327
,968,2023-10-20 13:53:36.12,334,-333,-2015,-19,1,33,60,-494,554,217
,969,2023-10-20 13:53:36.13,333,-323,-2025,-26,1,37,-224,-356,132,290
,970,2023-10-20 13:53:36.14,314,-313,-2017,-11,6,29,122,-469,591,173
,971,2023-10-20 13:53:36.15,337,-319,-1995,-5,5,31,-149,-373,224,261
,972,2023-10-20 13:53:36.16,338,-307,-1998,-11,21,39,124,-458,582,167
,973,2023-10-20 13:53:36.17,343,-306,-1993,-9,24,49,-209,-303,94,256
,974,2023-10-20 13:53:36.18,332,-329,-1988,-14,36,57,99,-404,503,152
,975,2023-10-20 13:53:36.19,296,-328,-2070,-4,44,72,-192,-285,93,238
,976,2023-10-20 13:53:36.20,301,-230,-2056,45,36,56,109,-409,518,150
,977,2023-10-20 13:53:36.21,321,-216,-2021,92,15,13,-210,-279,69,244
,978,2023-10-20 13:53:36.22,345,-230,-1981,113,15,-54,76,-392,468,158
,979,2023-10-20 13:53:36.23,331,-254,-1964,124,21,-112,-240,-261,21,250
,980,2023-10-20 13:53:36.24,333,-296,-1944,121,31,-143,52,-410,462,179
,981,2023-10-20 13:53:36.25,334,-324,-1981,97,51,-150,-259,-302,43,280
,982,2023-10-20 13:53:36.26,342,-349,-2012,65,64,-146,13,-466,479,226
,983,2023-10-20 13:53:36.27,338,-367,-2027,45,76,-135,-313,-360,47,336
,984,2023-10-20 13:53:36.28,350,-362,-2029,38,87,-110,-53,-510,457,281
,985,2023-10-20 13:53:36.29,367,-357,-2013,29,97,-86,-360,-359,-1,359
,986,2023-10-20 13:53:36.30,360,-345,-1997,14,114,-69,-72,-500,428,286
,987,2023-10-20 13:53:36.31,353,-356,-1981,10,123,-51,-361,-355,-6,358
,988,2023-10-20 13:53:36.32,353,-361,-1983,6,135,-36,-99,-500,401,299
,989,2023-10-20 13:53:36.33,361,-345,-2009,-3,136,-20,-396,-329,-67,362
,990,2023-10-20 13:53:36.34,352,-318,-2009,-14,123,-14,-111,-469,358,290
,991,2023-10-20 13:53:36.35,364,-328,-2024,-43,116,-17,-379,-322,-57,350
,992,2023-10-20 13:53:36.36,357,-340,-2010,-49,119,-36,-69,-479,410,274
,993,2023-10-20 13:53:36.37,376,-356,-1980,-37,122,-44,-332,-306,-26,319
,994,2023-10-20 13:53:36.38,369,-358,-1970,-29,147,-41,-42,-441,399,241
,995,2023-10-20 13:53:36.39,379,-335,-1991,-29,163,-38,-321,-204,-117,262
,996,2023-10-20 13:53:36.40,372,-349,-2006,-39,164,-33,-221,-292,71,256
,997,2023-10-20 13:53:36.41,382,-369,-2002,-35,180,-24,-502,-441,-61,471
,998,2023-10-20 13:53:36.42,370,-343,-2011,-11,190,-18,-356,-767,411,561
,999,2023-10-20 13:53:36.43,376,-345,-2004,-5,203,2,-531,-725,194,628
,1000,2023-10-20 13:53:36.44,398,-354,-2014,-4,208,26,-344,-809,465,576
,1001,2023-10-20 13:53:36.45,400,-347,-1988,9,213,33,-513,-681,168,597
,1002,2023-10-20 13:53:36.46,389,-362,-2001,30,225,51,-361,-802,441,581
,1003,2023-10-20 13:53:36.47,381,-376,-2010,69,239,72,-524,-727,203,625
,1004,2023-10-20 13:53:36.48,382,-335,-2061,123,236,89,-370,-874,504,622
,1005,2023-10-20 13:53:36.49,386,-302,-2074,170,198,91,-521,-760,239,640
,1006,2023-10-20 13:53:36.50,397,-264,-2096,192,147,63,-379,-855,476,617
,1007,2023-10-20 13:53:36.51,426,-248,-2050,186,101,21,-532,-776,244,654
,1008,2023-10-20 13:53:36.52,432,-292,-2011,172,84,-15,-407,-952,545,679
,1009,2023-10-20 13:53:36.53,443,-364,-1994,172,65,-38,-549,-863,314,706
,1010,2023-10-20 13:53:36.54,434,-398,-2019,186,50,-37,-427,-974,547,700
,1011,2023-10-20 13:53:36.55,428,-414,-2035,200,26,-19,-547,-867,320,707
,1012,2023-10-20 13:53:36.56,429,-410,-2028,207,11,2,-432,-1008,576,720
,1013,2023-10-20 13:53:36.57,434,-434,-2014,217,-4,28,-539,-910,371,724
,1014,2023-10-20 13:53:36.58,432,-435,-2005,215,-22,53,-417,-1037,620,727
,1015,2023-10-20 13:53:36.59,427,-439,-2001,209,-38,77,-531,-925,394,728
,1016,2023-10-20 13:53:36.60,439,-443,-1993,210,-50,96,-383,-1039,656,711
,1017,2023-10-20 13:53:36.61,433,-449,-1988,211,-56,125,-478,-926,448,702
,1018,2023-10-20 13:53:36.62,418,-468,-1995,213,-71,149,-366,-1052,686,709
,1019,2023-10-20 13:53:36.63,417,-482,-2021,215,-88,172,-474,-938,464,706
,1020,2023-10-20 13:53:36.64,409,-474,-2024,216,-107,192,-390,-1055,665,722
,1021,2023-10-20 13:53:36.65,410,-472,-2012,211,-123,218,-478,-928,450,703
,1022,2023-10-20 13:53:36.66,394,-477,-1996,209,-137,242,-404,-1037,633,720
,1023,2023-10-20 13:53:36.67,403,-445,-2005,188,-149,266,-482,-942,460,712
,1024,2023-10-20 13:53:36.68,391,-405,-2026,156,-162,284,-424,-1080,656,752
,1025,2023-10-20 13:53:36.69,384,-414,-1990,108,-160,291,-485,-976,491,730
,1026,2023-10-20 13:53:36.70,386,-421,-2012,57,-159,301,-446,-1070,624,758
,1027,2023-10-20 13:53:36.71,374,-430,-2017,20,-169,319,-496,-951,455,723
,1028,2023-10-20 13:53:36.72,399,-418,-2010,-7,-173,336,-468,-1050,582,759
,1029,2023-10-20 13:53:36.73,376,-417,-1961,-32,-184,341,-499,-964,465,731
,1030,2023-10-20 13:53:36.74,418,-433,-1965,-68,-175,358,-458,-1088,630,773
,1031,2023-10-20 13:53:36.75,362,-426,-1929,-101,-151,366,-482,-998,516,740
,1032,2023-10-20 13:53:36.76,338,-467,-1980,-114,-116,393,-453,-1095,642,774
,1033,2023-10-20 13:53:36.77,325,-384,-1987,-77,-121,396,-474,-991,517,732
,1034,2023-10-20 13:53:36.78,327,-364,-1982,-53,-136,379,-468,-1078,610,773
,1035,2023-10-20 13:53:36.79,339,-316,-1991,-29,-159,319,-474,-990,516,732
,1036,2023-10-20 13:53:36.80,346,-305,-1980,-37,-152,249,-465,-1086,621,775
,1037,2023-10-20 13:53:36.81,359,-291,-1952,-69,-106,200,-457,-1000,543,728
,1038,2023-10-20 13:53:36.82,329,-290,-1970,-96,-64,172,-457,-1081,624,769
,1039,2023-10-20 13:53:36.83,337,-288,-1988,-120,-40,146,-450,-995,545,722
,1040,2023-10-20 13:53:36.84,328,-317,-1954,-138,-29,111,-471,-1077,606,774
,1041,2023-10-20 13:53:36.85,363,-352,-1954,-156,-5,92,-452,-992,540,722
,1042,2023-10-20 13:53:36.86,361,-363,-1956,-160,26,91,-475,-1065,590,770
,1043,2023-10-20 13:53:36.87,371,-406,-1986,-169,61,113,-438,-991,553,714
,1044,2023-10-20 13:53:36.88,372,-418,-2016,-169,97,148,-459,-1066,607,762
,1045,2023-10-20 13:53:36.89,366,-395,-2017,-131,98,164,-420,-999,579,709
,1046,2023-10-20 13:53:36.90,362,-361,-2005,-102,79,160,-452,-1065,613,758
,1047,2023-10-20 13:53:36.91,376,-309,-2014,-102,60,143,-409,-981,572,695
,1048,2023-10-20 13:53:36.92,374,-290,-2022,-99,52,109,-480,-1037,557,758
,1049,2023-10-20 13:53:36.93,385,-304,-2001,-94,38,75,-423,-982,559,702
,1050,2023-10-20 13:53:36.94,372,-327,-2000,-96,53,47,-481,-1054,573,767
,1051,2023-10-20 13:53:36.95,379,-351,-1972,-75,57,26,-400,-995,595,697
,1052,2023-10-20 13:53:36.96,374,-372,-1981,-56,66,21,-457,-1050,593,753
,1053,2023-10-20 13:53:36.97,361,-398,-1995,-50,69,31,-386,-990,604,688
,1054,2023-10-20 13:53:36.98,374,-400,-2005,-39,64,42,-444,-1026,582,735
,1055,2023-10-20 13:53:36.99,370,-406,-1997,-28,52,42,-362,-979,617,670
,1056,2023-10-20 13:53:37.00,368,-404,-2016,-14,51,41,-427,-1031,604,729
,1057,2023-10-20 13:53:37.01,350,-385,-2036,18,47,35,-344,-999,655,671
,1058,2023-10-20 13:53:37.02,346,-359,-2068,60,30,19,-428,-1044,616,736
,1059,2023-10-20 13:53:37.03,331,-329,-2044,112,1,-18,-336,-1001,665,668
,1060,2023-10-20 13:53:37.04,337,-330,-2018,147,-15,-65,-431,-1037,606,734
,1061,2023-10-20 13:53:37.05,343,-354,-1990,150,-17,-101,-331,-1008,677,669
,1062,2023-10-20 13:53:37.06,344,-385,-1979,150,-2,-124,-384,-1078,694,731
,1063,2023-10-20 13:53:37.07,350,-418,-1983,137,16,-123,-248,-996,748,622
,1064,2023-10-20 13:53:37.08,353,-444,-1981,114,38,-108,-250,-1030,780,640
,1065,2023-10-20 13:53:37.09,367,-443,-1983,101,56,-88,-140,-884,744,512
,1066,2023-10-20 13:53:37.10,367,-437,-2007,89,63,-63,-218,-910,692,564
,1067,2023-10-20 13:53:37.11,351,-439,-2029,75,60,-30,-134,-778,644,456
,1068,2023-10-20 13:53:37.12,378,-432,-2017,62,42,-2,-243,-878,635,560
,1069,2023-10-20 13:53:37.13,368,-434,-2010,54,20,15,-135,-775,640,455
,1070,2023-10-20 13:53:37.14,366,-423,-1997,54,10,29,-158,-901,743,529
,1071,2023-10-20 13:53:37.15,379,-412,-1991,65,-2,38,-19,-789,770,404
,1072,2023-10-20 13:53:37.16,374,-398,-1985,77,-11,44,-67,-883,816,475
,1073,2023-10-20 13:53:37.17,378,-408,-1988,77,-15,41,52,-755,807,351
,1074,2023-10-20 13:53:37.18,381,-423,-1985,100,-15,32,-6,-856,850,431
,1075,2023-10-20 13:53:37.19,376,-421,-1993,138,-13,30,100,-738,838,319
,1076,2023-10-20 13:53:37.20,377,-424,-2007,178,-11,41,15,-833,848,409
,1077,2023-10-20 13:53:37.21,374,-405,-2004,195,-1,42,122,-713,835,295
,1078,2023-10-20 13:53:37.22,374,-403,-2007,206,11,43,32,-806,838,387
,1079,2023-10-20 13:53:37.23,361,-401,-1987,230,17,36,152,-689,841,268
,1080,2023-10-20 13:53:37.24,364,-417,-1988,255,20,37,57,-790,847,366
,1081,2023-10-20 13:53:37.25,355,-423,-1969,263,34,43,192,-684,876,246
,1082,2023-10-20 13:53:37.26,360,-436,-1963,284,44,43,92,-779,871,343
,1083,2023-10-20 13:53:37.27,349,-446,-1949,298,66,43,229,-668,897,219
,1084,2023-10-20 13:53:37.28,356,-434,-1956,318,79,51,87,-756,843,334
,1085,2023-10-20 13:53:37.29,357,-459,-1960,321,91,61,221,-669,890,224
,1086,2023-10-20 13:53:37.30,353,-462,-1954,321,113,69,77,-761,838,342
,1087,2023-10-20 13:53:37.31,373,-457,-1980,318,133,82,221,-668,889,223
,1088,2023-10-20 13:53:37.32,361,-468,-1960,305,141,91,82,-736,818,327
,1089,2023-10-20 13:53:37.33,351,-460,-1973,288,168,96,240,-644,884,202
,1090,2023-10-20 13:53:37.34,377,-447,-1974,278,164,106,80,-717,797,318
,1091,2023-10-20 13:53:37.35,353,-441,-1968,254,182,100,229,-647,876,209
,1092,2023-10-20 13:53:37.36,376,-456,-1970,247,178,95,66,-722,788,328
,1093,2023-10-20 13:53:37.37,370,-464,-1933,240,184,87,256,-651,907,197
,1094,2023-10-20 13:53:37.38,379,-488,-1964,208,200,93,75,-719,794,322
,1095,2023-10-20 13:53:37.39,379,-497,-1972,201,196,95,278,-652,930,187
,1096,2023-10-20 13:53:37.40,380,-478,-1988,187,209,92,83,-696,779,306
,1097,2023-10-20 13:53:37.41,394,-482,-1984,177,196,94,280,-637,917,178
,1098,2023-10-20 13:53:37.42,373,-477,-1986,160,197,84,72,-682,754,305
,1099,2023-10-20 13:53:37.43,418,-464,-1979,154,185,77,276,-621,897,172
,1100,2023-10-20 13:53:37.44,401,-502,-1948,139,181,68,22,-584,606,281
,1101,2023-10-20 13:53:37.45,390,-508,-1939,113,176,61,213,-558,771,172
,1102,2023-10-20 13:53:37.46,444,-496,-1958,104,167,56,-72,-527,455,299
,1103,2023-10-20 13:53:37.47,443,-527,-1956,101,169,52,122,-536,658,207
,1104,2023-10-20 13:53:37.48,434,-524,-1990,95,171,59,-165,-592,427,378
,1105,2023-10-20 13:53:37.49,451,-513,-1977,75,173,71,48,-706,754,329
,1106,2023-10-20 13:53:37.50,433,-517,-1969,64,183,68,-247,-731,484,489
,1107,2023-10-20 13:53:37.51,444,-494,-1990,41,178,73,-18,-784,766,401
,1108,2023-10-20 13:53:37.52,452,-489,-1982,16,159,68,-316,-756,440,536
,1109,2023-10-20 13:53:37.53,462,-500,-1961,-7,151,64,-47,-810,763,428
,1110,2023-10-20 13:53:37.54,457,-521,-1948,-25,140,65,-310,-782,472,546
,1111,2023-10-20 13:53:37.55,457,-505,-1948,-30,145,67,-15,-854,839,434
,1112,2023-10-20 13:53:37.56,470,-502,-1949,-28,143,62,-285,-808,523,546
,1113,2023-10-20 13:53:37.57,452,-506,-1974,-34,148,66,-14,-873,859,443
,1114,2023-10-20 13:53:37.58,468,-500,-1946,-19,148,56,-304,-821,517,562
,1115,2023-10-20 13:53:37.59,480,-506,-1921,-2,149,51,-21,-902,881,461
,1116,2023-10-20 13:53:37.60,493,-518,-1941,1,168,51,-300,-829,529,564
,1117,2023-10-20 13:53:37.61,478,-501,-1930,19,167,48,-18,-886,868,452
,1118,2023-10-20 13:53:37.62,480,-482,-1950,27,176,44,-315,-801,486,558
,1119,2023-10-20 13:53:37.63,478,-467,-1961,6,181,32,-50,-853,803,451
,1120,2023-10-20 13:53:37.64,491,-472,-1957,-14,176,20,-357,-761,404,559
,1121,2023-10-20 13:53:37.65,489,-484,-1956,-19,179,-3,21,-855,876,417
,1122,2023-10-20 13:53:37.66,485,-507,-1966,-30,190,-13,-229,-860,631,544
,1123,2023-10-20 13:53:37.67,487,-511,-1950,-38,199,-17,111,-890,1001,389
,1124,2023-10-20 13:53:37.68,488,-517,-1961,-32,198,-23,-149,-772,623,460
,1125,2023-10-20 13:53:37.69,500,-516,-1957,-53,175,-22,89,-820,909,365
,1126,2023-10-20 13:53:37.70,512,-528,-1951,-63,172,-17,-267,-723,456,495
,1127,2023-10-20 13:53:37.71,511,-543,-1927,-45,164,-23,-44,-811,767,427
,1128,2023-10-20 13:53:37.72,519,-529,-1913,-26,156,-21,-371,-731,360,551
,1129,2023-10-20 13:53:37.73,525,-527,-1952,-50,161,-11,-15,-867,852,441
,1130,2023-10-20 13:53:37.74,531,-530,-1960,-77,173,-11,-301,-882,581,591
,1131,2023-10-20 13:53:37.75,523,-527,-1942,-67,175,-13,80,-1008,1088,464
,1132,2023-10-20 13:53:37.76,516,-529,-1959,-54,184,-10,-191,-921,730,556
,1133,2023-10-20 13:53:37.77,500,-485,-1981,-45,186,-10,165,-954,1119,394
,1134,2023-10-20 13:53:37.78,497,-466,-1984,-40,182,-17,-155,-836,681,495
,1135,2023-10-20 13:53:37.79,501,-480,-1953,-16,160,-39,185,-889,1074,352
,1136,2023-10-20 13:53:37.80,513,-471,-1937,4,144,-62,-118,-789,671,453
,1137,2023-10-20 13:53:37.81,529,-490,-1932,1,141,-86,222,-855,1077,316
,1138,2023-10-20 13:53:37.82,534,-509,-1924,11,147,-87,-106,-749,643,427
,1139,2023-10-20 13:53:37.83,546,-533,-1952,24,152,-73,228,-814,1042,293
,1140,2023-10-20 13:53:37.84,550,-546,-1953,43,137,-54,-95,-692,597,393
,1141,2023-10-20 13:53:37.85,532,-530,-1963,57,126,-37,247,-772,1019,262
,1142,2023-10-20 13:53:37.86,551,-526,-1965,65,110,-24,-58,-651,593,354
,1143,2023-10-20 13:53:37.87,549,-512,-1974,66,105,-12,272,-742,1014,235
,1144,2023-10-20 13:53:37.88,555,-518,-1970,65,94,3,-53,-614,561,333
,1145,2023-10-20 13:53:37.89,545,-523,-1970,69,81,13,268,-710,978,221
,1146,2023-10-20 13:53:37.90,567,-520,-1965,76,68,18,-60,-578,518,319
,1147,2023-10-20 13:53:37.91,560,-528,-1958,81,54,25,279,-689,968,205
,1148,2023-10-20 13:53:37.92,561,-526,-1960,81,38,35,-36,-552,516,294
,1149,2023-10-20 13:53:37.93,567,-520,-1947,82,25,41,288,-669,957,190
,1150,2023-10-20 13:53:37.94,568,-526,-1944,79,17,48,-35,-531,496,283
,1151,2023-10-20 13:53:37.95,556,-517,-1937,73,6,54,288,-658,946,185
,1152,2023-10-20 13:53:37.96,554,-523,-1932,66,3,61,-33,-517,484,275
,1153,2023-10-20 13:53:37.97,565,-527,-1928,60,-3,73,276,-648,924,186
,1154,2023-10-20 13:53:37.98,553,-530,-1918,56,-1,76,-42,-501,459,271
,1155,2023-10-20 13:53:37.99,565,-528,-1925,52,0,80,275,-632,907,178
,1156,2023-10-20 13:53:38.00,556,-533,-1922,46,2,84,-28,-476,448,252
,1157,2023-10-20 13:53:38.01,572,-540,-1929,48,9,83,274,-612,886,169
,1158,2023-10-20 13:53:38.02,564,-534,-1936,50,16,85,-37,-456,419,246
,1159,2023-10-20 13:53:38.03,574,-536,-1940,43,18,88,261,-601,862,170
,1160,2023-10-20 13:53:38.04,557,-526,-1931,38,16,91,-39,-442,403,240
,1161,2023-10-20 13:53:38.05,533,-548,-1990,51,25,94,264,-588,852,162
,1162,2023-10-20 13:53:38.06,531,-493,-1958,122,9,65,-24,-428,404,226
,1163,2023-10-20 13:53:38.07,551,-477,-1922,183,-16,32,299,-588,887,144
,1164,2023-10-20 13:53:38.08,552,-446,-1905,180,-51,-10,13,-434,447,210
,1165,2023-10-20 13:53:38.09,585,-485,-1928,80,-69,-26,281,-593,874,156
,1166,2023-10-20 13:53:38.10,579,-560,-1924,-4,-62,-29,-21,-430,409,225
,1167,2023-10-20 13:53:38.11,593,-589,-1896,-17,-36,-23,247,-586,833,169
,1168,2023-10-20 13:53:38.12,593,-633,-1891,-4,-10,15,-29,-417,388,223
,1169,2023-10-20 13:53:38.13,571,-621,-1896,1,18,55,273,-581,854,154
,1170,2023-10-20 13:53:38.14,571,-560,-1926,19,26,78,28,-415,443,193
,1171,2023-10-20 13:53:38.15,576,-543,-1951,8,10,91,266,-584,850,159
,1172,2023-10-20 13:53:38.16,577,-551,-1922,-18,-4,98,-10,-414,404,212
,1173,2023-10-20 13:53:38.17,580,-556,-1919,-30,-16,107,222,-586,808,182
,1174,2023-10-20 13:53:38.18,577,-536,-1954,-41,-28,119,-17,-407,390,212
,1175,2023-10-20 13:53:38.19,571,-507,-1965,-62,-30,125,240,-576,816,168
,1176,2023-10-20 13:53:38.20,581,-491,-1928,-65,-39,111,2,-405,407,201
,1177,2023-10-20 13:53:38.21,584,-512,-1919,-59,-52,93,253,-573,826,160
,1178,2023-10-20 13:53:38.22,594,-563,-1917,-65,-46,94,23,-405,428,191
,1179,2023-10-20 13:53:38.23,574,-559,-1922,-52,-30,106,228,-578,806,175
,1180,2023-10-20 13:53:38.24,562,-543,-1946,-40,-24,128,2,-404,406,201
,1181,2023-10-20 13:53:38.25,551,-514,-1946,-26,-41,129,218,-571,789,176
,1182,2023-10-20 13:53:38.26,553,-498,-1922,-18,-62,113,14,-404,418,195
,1183,2023-10-20 13:53:38.27,559,-511,-1931,-9,-80,101,242,-568,810,163
,1184,2023-10-20 13:53:38.28,545,-531,-1950,-4,-90,96,43,-399,442,178
,1185,2023-10-20 13:53:38.29,549,-525,-1967,4,-95,98,212,-565,777,176
,1186,2023-10-20 13:53:38.30,530,-535,-1961,16,-108,108,13,-395,408,191
,1187,2023-10-20 13:53:38.31,532,-526,-1975,6,-119,115,196,-562,758,183
,1188,2023-10-20 13:53:38.32,525,-544,-1978,-6,-130,121,25,-400,425,187
,1189,2023-10-20 13:53:38.33,525,-545,-1961,-15,-136,128,207,-567,774,180
,1190,2023-10-20 13:53:38.34,527,-563,-1922,-16,-146,132,43,-401,444,179
,1191,2023-10-20 13:53:38.35,531,-552,-1933,-20,-146,134,198,-558,756,180
,1192,2023-10-20 13:53:38.36,525,-547,-1915,-37,-142,141,44,-392,436,174
,1193,2023-10-20 13:53:38.37,518,-537,-1907,-53,-127,150,172,-552,724,190
,1194,2023-10-20 13:53:38.38,524,-528,-1920,-62,-113,154,37,-391,428,177
,1195,2023-10-20 13:53:38.39,514,-541,-1928,-83,-110,172,186,-552,738,183
,1196,2023-10-20 13:53:38.40,495,-556,-1965,-112,-95,193,69,-398,467,164
,1197,2023-10-20 13:53:38.41,487,-563,-1960,-123,-88,214,194,-552,746,179
,1198,2023-10-20 13:53:38.42,479,-554,-1961,-116,-103,226,74,-393,467,159
,1199,2023-10-20 13:53:38.43,489,-509,-1963,-112,-128,221,155,-546,701,195
,1200,2023-10-20 13:53:38.44,489,-505,-1967,-110,-152,209,55,-391,446,168
,1201,2023-10-20 13:53:38.45,484,-488,-1958,-99,-168,188,164,-540,704,188
,1202,2023-10-20 13:53:38.46,484,-480,-1950,-104,-170,168,84,-394,478,155
,1203,2023-10-20 13:53:38.47,466,-475,-1931,-123,-160,144,171,-544,715,186
,1204,2023-10-20 13:53:38.48,459,-505,-1955,-133,-154,133,100,-398,498,149
,1205,2023-10-20 13:53:38.49,462,-518,-1941,-143,-143,131,144,-536,680,196
,1206,2023-10-20 13:53:38.50,445,-508,-1943,-139,-138,127,79,-391,470,156
,1207,2023-10-20 13:53:38.51,435,-501,-1979,-140,-139,135,131,-534,665,201
,1208,2023-10-20 13:53:38.52,419,-482,-1967,-144,-136,131,96,-400,496,152
,1209,2023-10-20 13:53:38.53,428,-477,-1952,-130,-143,118,127,-533,660,203
,1210,2023-10-20 13:53:38.54,433,-472,-1964,-118,-149,96,102,-398,500,148
,1211,2023-10-20 13:53:38.55,461,-473,-1937,-99,-147,72,146,-525,671,189
,1212,2023-10-20 13:53:38.56,447,-465,-1967,-68,-142,39,126,-404,530,139
,1213,2023-10-20 13:53:38.57,471,-431,-1934,-58,-144,9,141,-535,676,197
,1214,2023-10-20 13:53:38.58,480,-480,-1934,-92,-137,10,118,-428,546,155
,1215,2023-10-20 13:53:38.59,466,-516,-1952,-121,-106,31,109,-541,650,216
,1216,2023-10-20 13:53:38.60,458,-512,-1958,-115,-77,44,116,-420,536,152
,1217,2023-10-20 13:53:38.61,446,-531,-1971,-101,-72,71,100,-518,618,209
,1218,2023-10-20 13:53:38.62,445,-508,-1952,-88,-73,95,134,-401,535,133
,1219,2023-10-20 13:53:38.63,457,-469,-1969,-73,-78,111,110,-509,619,199
,1220,2023-10-20 13:53:38.64,439,-473,-1969,-48,-78,107,134,-419,553,142
,1221,2023-10-20 13:53:38.65,434,-460,-1947,-43,-79,109,85,-512,597,213
,1222,2023-10-20 13:53:38.66,419,-466,-1993,-41,-73,121,136,-415,551,139
,1223,2023-10-20 13:53:38.67,446,-473,-1987,-56,-75,134,62,-504,566,221
,1224,2023-10-20 13:53:38.68,428,-491,-1958,-54,-74,125,137,-418,555,140
,1225,2023-10-20 13:53:38.69,425,-499,-1959,-47,-66,125,75,-501,576,213
,1226,2023-10-20 13:53:38.70,423,-457,-1987,-37,-61,129,161,-417,578,128
,1227,2023-10-20 13:53:38.71,412,-434,-1981,-33,-67,121,70,-491,561,210
,1228,2023-10-20 13:53:38.72,411,-412,-1996,-39,-73,101,160,-415,575,127
,1229,2023-10-20 13:53:38.73,403,-412,-2002,-42,-82,85,49,-487,536,219
,1230,2023-10-20 13:53:38.74,406,-409,-2000,-51,-90,63,159,-419,578,130
,1231,2023-10-20 13:53:38.75,409,-430,-1972,-52,-96,44,32,-482,514,225
,1232,2023-10-20 13:53:38.76,402,-434,-1993,-57,-91,27,157,-422,579,132
,1233,2023-10-20 13:53:38.77,394,-445,-1985,-54,-77,16,32,-480,512,224
,1234,2023-10-20 13:53:38.78,397,-452,-1974,-36,-76,9,170,-426,596,128
,1235,2023-10-20 13:53:38.79,399,-452,-1976,-22,-79,3,32,-473,505,220
,1236,2023-10-20 13:53:38.80,385,-461,-1987,-17,-88,-2,181,-426,607,122
,1237,2023-10-20 13:53:38.81,384,-468,-1972,-27,-89,-5,25,-468,493,221
,1238,2023-10-20 13:53:38.82,389,-478,-1971,-33,-80,7,182,-436,618,127
,1239,2023-10-20 13:53:38.83,387,-479,-1967,-25,-66,24,19,-466,485,223
,1240,2023-10-20 13:53:38.84,378,-476,-1971,-16,-58,37,189,-432,621,121
,1241,2023-10-20 13:53:38.85,385,-475,-1983,-8,-64,43,12,-456,468,222
,1242,2023-10-20 13:53:38.86,387,-445,-1991,2,-65,38,190,-430,620,120
,1243,2023-10-20 13:53:38.87,380,-446,-1985,4,-62,35,-4,-445,441,224
,1244,2023-10-20 13:53:38.88,373,-426,-1981,2,-53,24,188,-432,620,122
,1245,2023-10-20 13:53:38.89,366,-423,-1981,-8,-51,13,-16,-441,425,228
,1246,2023-10-20 13:53:38.90,374,-427,-1984,-17,-51,6,193,-436,629,121
,1247,2023-10-20 13:53:38.91,373,-444,-1983,-21,-52,1,-18,-436,418,227
,1248,2023-10-20 13:53:38.92,372,-436,-1979,-23,-57,-8,202,-433,635,115
,1249,2023-10-20 13:53:38.93,384,-429,-1986,-26,-61,-14,-18,-429,411,223
,1250,2023-10-20 13:53:38.94,375,-425,-1991,-28,-64,-22,210,-440,650,115
,1251,2023-10-20 13:53:38.95,373,-435,-1990,-35,-62,-32,-27,-430,403,228
,1252,2023-10-20 13:53:38.96,374,-440,-1992,-34,-62,-42,213,-435,648,111
,1253,2023-10-20 13:53:38.97,375,-444,-1994,-35,-57,-42,-42,-422,380,232
,1254,2023-10-20 13:53:38.98,371,-432,-1992,-38,-52,-41,207,-447,654,120
,1255,2023-10-20 13:53:38.99,375,-440,-1990,-39,-52,-38,-48,-435,387,241
,1256,2023-10-20 13:53:39.00,361,-440,-2003,-37,-54,-38,216,-463,679,123
,1257,2023-10-20 13:53:39.01,376,-445,-1980,-41,-53,-33,-40,-433,393,236
,1258,2023-10-20 13:53:39.02,395,-444,-1963,-45,-44,-18,220,-474,694,127
,1259,2023-10-20 13:53:39.03,364,-459,-1966,-50,-23,-10,-37,-431,394,234
,1260,2023-10-20 13:53:39.04,348,-484,-2010,-52,-7,22,229,-475,704,123
,1261,2023-10-20 13:53:39.05,329,-415,-2011,-17,1,31,-48,-428,380,238
,1262,2023-10-20 13:53:39.06,356,-386,-1992,30,-16,16,226,-478,704,126
,1263,2023-10-20 13:53:39.07,340,-342,-1996,68,-28,-45,-56,-427,371,241
,1264,2023-10-20 13:53:39.08,350,-347,-2006,105,-44,-108,235,-485,720,125
,1265,2023-10-20 13:53:39.09,348,-336,-1993,114,-62,-157,-50,-423,373,236
,1266,2023-10-20 13:53:39.10,389,-367,-1971,100,-80,-208,239,-487,726,124
,1267,2023-10-20 13:53:39.11,386,-416,-1953,77,-84,-254,-62,-419,357,240
,1268,2023-10-20 13:53:39.12,404,-460,-1987,52,-74,-250,227,-489,716,131
,1269,2023-10-20 13:53:39.13,375,-559,-1996,11,-24,-180,-75,-409,334,242
,1270,2023-10-20 13:53:39.14,362,-565,-2011,6,18,-95,232,-482,714,125
,1271,2023-10-20 13:53:39.15,363,-552,-2002,28,32,-27,-71,-397,326,234
,1272,2023-10-20 13:53:39.16,369,-496,-1982,76,19,16,244,-479,723,117
,1273,2023-10-20 13:53:39.17,389,-455,-1971,112,5,38,-63,-383,320,223
,1274,2023-10-20 13:53:39.18,384,-406,-1993,122,1,42,241,-468,709,113
,1275,2023-10-20 13:53:39.19,390,-382,-1996,106,-1,34,-91,-367,276,229
,1276,2023-10-20 13:53:39.20,374,-388,-2013,89,-10,21,221,-466,687,122
,1277,2023-10-20 13:53:39.21,357,-414,-2012,73,-27,0,-90,-362,272,226
,1278,2023-10-20 13:53:39.22,371,-432,-2001,53,-49,-10,234,-459,693,112
,1279,2023-10-20 13:53:39.23,370,-455,-2009,42,-56,-9,-84,-347,263,215
,1280,2023-10-20 13:53:39.24,373,-447,-2001,48,-66,-15,237,-449,686,106
,1281,2023-10-20 13:53:39.25,363,-443,-1996,64,-83,-22,-86,-341,255,213
,1282,2023-10-20 13:53:39.26,385,-438,-1986,78,-91,-37,241,-452,693,105
,1283,2023-10-20 13:53:39.27,360,-460,-1987,77,-92,-49,-88,-335,247,211
,1284,2023-10-20 13:53:39.28,351,-467,-1986,62,-81,-38,234,-456,690,111
,1285,2023-10-20 13:53:39.29,346,-460,-2001,49,-81,-26,-101,-340,239,220
,1286,2023-10-20 13:53:39.30,342,-456,-2008,45,-98,-25,225,-467,692,121
,1287,2023-10-20 13:53:39.31,339,-454,-2014,31,-126,-36,-105,-346,241,225
,1288,2023-10-20 13:53:39.32,367,-458,-2003,14,-145,-41,239,-477,716,119
,1289,2023-10-20 13:53:39.33,365,-485,-1974,0,-131,-42,-73,-350,277,211
,1290,2023-10-20 13:53:39.34,358,-493,-1967,-3,-110,-35,259,-481,740,111
,1291,2023-10-20 13:53:39.35,343,-523,-1967,-1,-88,-7,-74,-353,279,213
,1292,2023-10-20 13:53:39.36,322,-503,-1984,16,-79,10,244,-490,734,123
,1293,2023-10-20 13:53:39.37,308,-490,-1998,35,-86,30,-80,-348,268,214
,1294,2023-10-20 13:53:39.38,315,-476,-2019,38,-97,41,245,-496,741,125
,1295,2023-10-20 13:53:39.39,300,-445,-2015,32,-106,30,-78,-359,281,218
,1296,2023-10-20 13:53:39.40,321,-438,-2004,0,-111,31,242,-510,752,134
,1297,2023-10-20 13:53:39.41,297,-456,-1983,-4,-102,16,-78,-360,282,219
,1298,2023-10-20 13:53:39.42,318,-459,-1978,-3,-90,5,252,-504,756,126
,1299,2023-10-20 13:53:39.43,320,-448,-1972,-10,-68,4,-76,-362,286,219
,1300,2023-10-20 13:53:39.44,302,-486,-1949,-9,-53,9,247,-508,755,130
,1301,2023-10-20 13:53:39.45,304,-493,-1955,-8,-38,23,-81,-356,275,218
,1302,2023-10-20 13:53:39.46,293,-501,-1951,-11,-27,38,247,-504,751,128
,1303,2023-10-20 13:53:39.47,272,-468,-1984,-7,-24,51,-69,-348,279,208
,1304,2023-10-20 13:53:39.48,302,-451,-1999,-4,-25,54,239,-504,743,132
,1305,2023-10-20 13:53:39.49,282,-413,-2003,-23,-18,54,-81,-347,266,214
,1306,2023-10-20 13:53:39.50,290,-422,-1996,-38,-15,44,238,-504,742,133
,1307,2023-10-20 13:53:39.51,290,-441,-1987,-51,-8,38,-64,-348,284,206
,1308,2023-10-20 13:53:39.52,301,-436,-1986,-59,-11,32,238,-506,744,134
,1309,2023-10-20 13:53:39.53,297,-428,-1998,-65,-6,24,-78,-344,266,211
,1310,2023-10-20 13:53:39.54,305,-434,-2009,-78,-2,25,222,-501,723,139
,1311,2023-10-20 13:53:39.55,299,-427,-1993,-84,3,28,-78,-329,251,203
,1312,2023-10-20 13:53:39.56,311,-434,-1992,-91,3,24,221,-486,707,132
,1313,2023-10-20 13:53:39.57,306,-416,-2003,-97,11,23,-77,-320,243,198
,1314,2023-10-20 13:53:39.58,301,-433,-1995,-98,19,22,211,-482,693,135
,1315,2023-10-20 13:53:39.59,307,-436,-1989,-105,21,31,-80,-321,241,200
,1316,2023-10-20 13:53:39.60,327,-423,-1990,-98,20,36,205,-489,694,142
,1317,2023-10-20 13:53:39.61,311,-417,-1991,-99,20,35,-70,-319,249,194
,1318,2023-10-20 13:53:39.62,300,-407,-1993,-84,17,35,235,-488,723,126
,1319,2023-10-20 13:53:39.63,317,-413,-2004,-80,14,37,-34,-327,293,180
,1320,2023-10-20 13:53:39.64,312,-390,-2004,-90,21,40,222,-498,720,138
,1321,2023-10-20 13:53:39.65,347,-400,-2002,-92,25,37,-56,-334,278,195
,1322,2023-10-20 13:53:39.66,324,-406,-1987,-98,34,45,211,-503,714,146
,1323,2023-10-20 13:53:39.67,325,-418,-2001,-93,41,53,-51,-337,286,194
,1324,2023-10-20 13:53:39.68,318,-416,-2003,-77,38,52,199,-503,702,152
,1325,2023-10-20 13:53:39.69,311,-408,-2035,-64,31,58,-48,-334,286,191
,1326,2023-10-20 13:53:39.70,309,-375,-2035,-40,24,41,204,-504,708,150
,1327,2023-10-20 13:53:39.71,317,-360,-2016,-2,12,6,-42,-331,289,186
,1328,2023-10-20 13:53:39.72,310,-383,-1987,26,12,-31,194,-496,690,151
,1329,2023-10-20 13:53:39.73,314,-388,-1987,30,19,-60,-37,-326,289,181
,1330,2023-10-20 13:53:39.74,330,-393,-2001,4,13,-65,193,-498,691,152
,1331,2023-10-20 13:53:39.75,346,-403,-1994,-53,17,-64,-28,-328,300,178
,1332,2023-10-20 13:53:39.76,329,-486,-2009,-95,27,-39,179,-498,677,159
,1333,2023-10-20 13:53:39.77,351,-495,-1983,-45,58,36,-37,-335,298,186
,1334,2023-10-20 13:53:39.78,345,-467,-1973,-9,57,65,178,-496,674,159
,1335,2023-10-20 13:53:39.79,337,-451,-2006,2,62,89,-28,-327,299,177
,1336,2023-10-20 13:53:39.80,326,-412,-2042,-4,64,102,173,-494,667,160
,1337,2023-10-20 13:53:39.81,332,-387,-2023,-17,49,106,-11,-341,330,176
,1338,2023-10-20 13:53:39.82,318,-373,-2003,-38,29,96,180,-506,686,163
,1339,2023-10-20 13:53:39.83,329,-392,-2010,-58,21,84,6,-344,350,169
,1340,2023-10-20 13:53:39.84,344,-383,-2007,-60,16,68,181,-509,690,164
,1341,2023-10-20 13:53:39.85,342,-372,-1995,-55,21,57,20,-356,376,168
,1342,2023-10-20 13:53:39.86,348,-390,-1988,-59,25,48,174,-520,694,173
,1343,2023-10-20 13:53:39.87,330,-410,-2018,-60,30,45,5,-368,373,181
,1344,2023-10-20 13:53:39.88,327,-400,-2022,-53,32,48,155,-513,668,179
,1345,2023-10-20 13:53:39.89,330,-367,-2016,-37,33,45,17,-357,374,170
,1346,2023-10-20 13:53:39.90,331,-352,-2010,-29,21,33,152,-509,661,178
,1347,2023-10-20 13:53:39.91,325,-344,-2015,-41,15,22,32,-351,383,159
,1348,2023-10-20 13:53:39.92,332,-365,-2005,-58,19,9,156,-505,661,174
,1349,2023-10-20 13:53:39.93,342,-377,-2004,-61,22,7,40,-355,395,157
,1350,2023-10-20 13:53:39.94,340,-379,-2007,-57,27,4,148,-509,657,180
,1351,2023-10-20 13:53:39.95,342,-372,-2008,-55,31,0,54,-364,418,155
,1352,2023-10-20 13:53:39.96,331,-360,-2018,-53,29,1,150,-520,670,185
,1353,2023-10-20 13:53:39.97,338,-349,-2007,-56,23,-6,59,-382,441,161
,1354,2023-10-20 13:53:39.98,346,-365,-1990,-69,20,-13,128,-524,652,198
,1355,2023-10-20 13:53:39.99,337,-367,-1988,-79,27,-18,58,-380,438,161
,1356,2023-10-20 13:53:40.00,333,-383,-2005,-83,32,-13,136,-521,657,192
,1357,2023-10-20 13:53:40.01,341,-376,-2014,-88,31,-6,74,-378,452,152
,1358,2023-10-20 13:53:40.02,343,-384,-2003,-90,33,-5,136,-510,646,187
,1359,2023-10-20 13:53:40.03,339,-374,-2012,-84,32,-2,88,-374,462,143
,1360,2023-10-20 13:53:40.04,345,-377,-2008,-80,28,0,108,-510,618,201
,1361,2023-10-20 13:53:40.05,319,-361,-2002,-76,24,0,77,-378,455,150
,1362,2023-10-20 13:53:40.06,336,-368,-2016,-71,25,-2,117,-507,624,195
,1363,2023-10-20 13:53:40.07,332,-366,-2028,-73,18,2,101,-383,484,141
,1364,2023-10-20 13:53:40.08,329,-366,-2020,-65,14,-4,119,-511,630,196
,1365,2023-10-20 13:53:40.09,333,-362,-2020,-56,12,-4,115,-390,505,137
,1366,2023-10-20 13:53:40.10,328,-373,-2016,-46,18,3,105,-510,615,202
,1367,2023-10-20 13:53:40.11,338,-349,-2016,-20,14,7,113,-393,506,140
,1368,2023-10-20 13:53:40.12,334,-352,-2008,-3,10,9,108,-512,620,202
,1369,2023-10-20 13:53:40.13,329,-355,-1999,12,8,9,134,-400,534,133
,1370,2023-10-20 13:53:40.14,321,-371,-1995,30,8,11,118,-507,625,194
,1371,2023-10-20 13:53:40.15,314,-369,-2008,40,6,14,148,-398,546,125
,1372,2023-10-20 13:53:40.16,320,-370,-2009,51,8,27,93,-505,598,206
,1373,2023-10-20 13:53:40.17,321,-377,-2014,63,10,35,137,-406,543,134
,1374,2023-10-20 13:53:40.18,327,-366,-1994,67,16,37,71,-506,577,217
,1375,2023-10-20 13:53:40.19,333,-362,-1997,66,23,35,141,-404,545,131
,1376,2023-10-20 13:53:40.20,333,-358,-1997,55,33,32,85,-502,587,208
,1377,2023-10-20 13:53:40.21,341,-355,-2005,47,38,24,166,-415,581,124
,1378,2023-10-20 13:53:40.22,334,-369,-2013,37,42,18,81,-507,588,213
,1379,2023-10-20 13:53:40.23,339,-375,-2015,27,43,13,167,-422,589,127
,1380,2023-10-20 13:53:40.24,342,-369,-2020,19,42,13,68,-504,572,218
,1381,2023-10-20 13:53:40.25,337,-361,-2014,12,39,13,171,-433,604,131
,1382,2023-10-20 13:53:40.26,346,-368,-2017,4,31,12,67,-501,568,217
,1383,2023-10-20 13:53:40.27,333,-363,-2017,1,23,9,183,-431,614,124
,1384,2023-10-20 13:53:40.28,342,-363,-2021,-5,18,5,68,-501,569,216
,1385,2023-10-20 13:53:40.29,347,-364,-2013,-9,17,2,202,-434,636,116
,1386,2023-10-20 13:53:40.30,351,-355,-2007,-9,14,1,55,-493,548,219
,1387,2023-10-20 13:53:40.31,341,-362,-2008,-16,11,1,182,-440,622,129
,1388,2023-10-20 13:53:40.32,347,-361,-2011,-21,13,1,22,-492,514,235
,1389,2023-10-20 13:53:40.33,342,-352,-1995,-22,13,-1,182,-441,623,129
,1390,2023-10-20 13:53:40.34,351,-351,-1995,-27,16,-2,41,-477,518,218
,1391,2023-10-20 13:53:40.35,344,-354,-2007,-32,16,-1,207,-437,644,115
,1392,2023-10-20 13:53:40.36,349,-353,-2011,-29,21,6,38,-466,504,214
,1393,2023-10-20 13:53:40.37,347,-345,-2009,-21,20,11,204,-430,634,113
,1394,2023-10-20 13:53:40.38,337,-340,-2022,-7,25,16,7,-448,455,220
,1395,2023-10-20 13:53:40.39,338,-328,-2008,29,26,0,189,-424,613,117
,1396,2023-10-20 13:53:40.40,330,-311,-2005,63,28,-27,-3,-447,444,225
,1397,2023-10-20 13:53:40.41,341,-298,-1992,72,16,-54,205,-436,641,115
,1398,2023-10-20 13:53:40.42,344,-338,-2007,35,-4,-63,7,-452,459,222
,1399,2023-10-20 13:53:40.43,332,-373,-2037,-20,-12,-57,216,-442,658,113
,1400,2023-10-20 13:53:40.44,358,-400,-2007,-44,-5,-46,-2,-445,443,223
,1401,2023-10-20 13:53:40.45,361,-435,-1989,-41,22,-11,217,-448,665,115
,1402,2023-10-20 13:53:40.46,367,-397,-2016,-25,48,32,-14,-447,433,230
,1403,2023-10-20 13:53:40.47,357,-363,-2004,2,52,48,222,-456,678,117
,1404,2023-10-20 13:53:40.48,372,-359,-2015,12,44,45,-8,-442,434,225
,1405,2023-10-20 13:53:40.49,370,-349,-2010,6,37,46,237,-458,695,110
,1406,2023-10-20 13:53:40.50,363,-323,-2022,1,23,41,-6,-437,431,221
,1407,2023-10-20 13:53:40.51,370,-330,-2017,-8,13,36,241,-458,699,108
,1408,2023-10-20 13:53:40.52,367,-318,-2010,-10,5,19,-18,-431,413,224
,1409,2023-10-20 13:53:40.53,371,-326,-2001,-12,3,5,235,-463,698,114
,1410,2023-10-20 13:53:40.54,358,-349,-2010,-13,7,1,-24,-432,408,228
,1411,2023-10-20 13:53:40.55,364,-343,-2016,0,2,-7,239,-471,710,116
,1412,2023-10-20 13:53:40.56,361,-338,-2001,12,-2,-18,-29,-429,400,229
,1413,2023-10-20 13:53:40.57,353,-352,-2000,15,2,-19,243,-471,714,114
,1414,2023-10-20 13:53:40.58,352,-341,-2015,21,7,-15,-31,-423,392,227
,1415,2023-10-20 13:53:40.59,346,-349,-2011,28,6,-19,246,-478,724,116
,1416,2023-10-20 13:53:40.60,339,-352,-2007,27,6,-15,-39,-416,377,227
,1417,2023-10-20 13:53:40.61,336,-340,-2015,34,8,-13,240,-478,718,119
,1418,2023-10-20 13:53:40.62,331,-339,-2013,42,4,-16,-48,-412,364,230
,1419,2023-10-20 13:53:40.63,347,-320,-1996,53,7,-27,247,-484,731,118
,1420,2023-10-20 13:53:40.64,362,-316,-2006,66,8,-46,-55,-410,355,232
,1421,2023-10-20 13:53:40.65,337,-316,-2010,73,12,-69,249,-481,730,116
,1422,2023-10-20 13:53:40.66,343,-323,-2018,75,12,-90,-51,-404,353,227
,1423,2023-10-20 13:53:40.67,342,-305,-2017,83,-2,-123,248,-484,732,118
,1424,2023-10-20 13:53:40.68,364,-326,-2017,83,-23,-153,-64,-396,332,230
,1425,2023-10-20 13:53:40.69,383,-348,-2012,86,-31,-185,227,-489,716,131
,1426,2023-10-20 13:53:40.70,370,-350,-2000,81,-20,-195,-80,-384,304,232
,1427,2023-10-20 13:53:40.71,363,-387,-1988,63,-4,-190,234,-471,705,118
,1428,2023-10-20 13:53:40.72,373,-403,-1982,60,11,-179,-90,-368,278,229
,1429,2023-10-20 13:53:40.73,386,-409,-1988,53,17,-159,219,-467,686,124
,1430,2023-10-20 13:53:40.74,399,-391,-1963,54,16,-142,-106,-354,248,230
,1431,2023-10-20 13:53:40.75,377,-365,-2004,56,19,-127,214,-460,674,123
,1432,2023-10-20 13:53:40.76,358,-355,-2051,57,20,-120,-115,-352,237,233
,1433,2023-10-20 13:53:40.77,342,-304,-2054,88,0,-135,201,-463,664,131
,1434,2023-10-20 13:53:40.78,384,-214,-2130,75,-26,-170,-124,-354,230,239
,1435,2023-10-20 13:53:40.79,384,-238,-2080,40,-60,-236,202,-475,677,136
,1436,2023-10-20 13:53:40.80,389,-228,-2036,29,-89,-322,-133,-360,227,246
,1437,2023-10-20 13:53:40.81,408,-266,-1988,16,-118,-413,171,-491,662,160
,1438,2023-10-20 13:53:40.82,362,-292,-1977,8,-135,-493,-163,-390,227,276
,1439,2023-10-20 13:53:40.83,369,-293,-2034,-3,-143,-557,152,-546,698,197
,1440,2023-10-20 13:53:40.84,371,-291,-2044,-18,-159,-611,-179,-443,264,311
,1441,2023-10-20 13:53:40.85,387,-264,-2081,-39,-187,-663,137,-590,727,226
,1442,2023-10-20 13:53:40.86,387,-278,-2025,-64,-208,-722,-192,-474,282,333
,1443,2023-10-20 13:53:40.87,405,-304,-2029,-92,-232,-785,102,-618,720,258
,1444,2023-10-20 13:53:40.88,374,-289,-2016,-87,-259,-834,-220,-493,273,356
,1445,2023-10-20 13:53:40.89,387,-273,-2080,-96,-292,-866,68,-632,700,282
,1446,2023-10-20 13:53:40.90,389,-300,-2076,-126,-317,-897,-248,-517,269,382
,1447,2023-10-20 13:53:40.91,366,-299,-2080,-160,-329,-933,1,-665,666,332
,1448,2023-10-20 13:53:40.92,374,-374,-1972,-158,-353,-959,-308,-518,210,413
,1449,2023-10-20 13:53:40.93,370,-338,-2074,-148,-353,-959,19,-667,686,324
,1450,2023-10-20 13:53:40.94,360,-397,-2014,-164,-386,-959,-248,-576,328,412
,1451,2023-10-20 13:53:40.95,352,-392,-2017,-148,-403,-962,84,-721,805,318
,1452,2023-10-20 13:53:40.96,355,-395,-2041,-134,-433,-947,-200,-540,340,370
,1453,2023-10-20 13:53:40.97,349,-382,-2049,-152,-446,-921,112,-654,766,271
,1454,2023-10-20 13:53:40.98,339,-356,-2017,-175,-440,-904,-188,-492,304,340
,1455,2023-10-20 13:53:40.99,325,-372,-2011,-188,-432,-886,107,-647,754,270
,1456,2023-10-20 13:53:41.00,310,-366,-2039,-194,-435,-854,-194,-511,317,352
,1457,2023-10-20 13:53:41.01,323,-366,-1999,-216,-453,-810,125,-662,787,268
,1458,2023-10-20 13:53:41.02,317,-336,-1992,-241,-451,-778,-160,-499,339,329
,1459,2023-10-20 13:53:41.03,305,-317,-1957,-272,-439,-746,139,-634,773,247
,1460,2023-10-20 13:53:41.04,302,-290,-1983,-300,-418,-719,-161,-468,307,314
,1461,2023-10-20 13:53:41.05,282,-328,-1959,-317,-396,-701,119,-608,727,244
,1462,2023-10-20 13:53:41.06,272,-316,-1983,-318,-383,-675,-167,-446,279,306
,1463,2023-10-20 13:53:41.07,249,-316,-2012,-311,-371,-650,111,-608,719,248
,1464,2023-10-20 13:53:41.08,219,-332,-2048,-318,-356,-613,-159,-437,278,298
,1465,2023-10-20 13:53:41.09,185,-316,-2052,-327,-349,-573,115,-578,693,231
,1466,2023-10-20 13:53:41.10,179,-300,-2062,-335,-355,-528,-152,-391,239,271
,1467,2023-10-20 13:53:41.11,174,-338,-2034,-345,-357,-492,115,-547,662,216
,1468,2023-10-20 13:53:41.12,166,-311,-2043,-358,-364,-444,-147,-390,243,268
,1469,2023-10-20 13:53:41.13,161,-290,-2009,-377,-369,-401,113,-568,681,227
,1470,2023-10-20 13:53:41.14,162,-265,-2002,-394,-354,-354,-140,-422,282,281
,1471,2023-10-20 13:53:41.15,129,-216,-1968,-428,-322,-321,100,-597,697,248
,1472,2023-10-20 13:53:41.16,150,-184,-1980,-470,-277,-292,-147,-437,290,292
,1473,2023-10-20 13:53:41.17,111,-191,-1986,-498,-237,-279,111,-604,715,246
,1474,2023-10-20 13:53:41.18,96,-152,-1995,-521,-207,-282,-122,-456,334,289
,1475,2023-10-20 13:53:41.19,88,-174,-2034,-568,-166,-254,112,-607,719,247
,1476,2023-10-20 13:53:41.20,77,-142,-2042,-628,-123,-223,-120,-409,289,264
,1477,2023-10-20 13:53:41.21,70,-121,-2030,-672,-87,-172,77,-559,636,241
,1478,2023-10-20 13:53:41.22,89,-100,-2047,-719,-41,-123,-148,-410,262,279
,1479,2023-10-20 13:53:41.23,67,-61,-2007,-778,32,-97,80,-586,666,253
,1480,2023-10-20 13:53:41.24,77,-66,-1972,-780,76,-96,-111,-431,320,271
,1481,2023-10-20 13:53:41.25,71,-29,-1997,-752,101,-87,97,-594,691,248
,1482,2023-10-20 13:53:41.26,112,-12,-2044,-739,114,-73,-104,-439,335,271
,1483,2023-10-20 13:53:41.27,110,24,-2034,-747,158,-60,70,-602,672,266
,1484,2023-10-20 13:53:41.28,145,46,-1995,-745,198,-47,-116,-449,333,282
,1485,2023-10-20 13:53:41.29,120,40,-1998,-715,240,-42,56,-609,665,276
,1486,2023-10-20 13:53:41.30,149,54,-2006,-676,273,-20,-113,-452,339,282
,1487,2023-10-20 13:53:41.31,146,92,-2035,-629,302,6,65,-606,671,270
,1488,2023-10-20 13:53:41.32,160,110,-2035,-576,306,40,-90,-444,354,267
,1489,2023-10-20 13:53:41.33,144,191,-2016,-513,325,56,55,-582,637,263
,1490,2023-10-20 13:53:41.34,158,219,-2035,-473,306,78,-95,-418,323,256
,1491,2023-10-20 13:53:41.35,170,237,-2026,-468,286,90,38,-561,599,261
,1492,2023-10-20 13:53:41.36,160,279,-2051,-455,247,73,-93,-404,311,248
,1493,2023-10-20 13:53:41.37,185,297,-2054,-445,215,40,60,-559,619,249
,1494,2023-10-20 13:53:41.38,199,308,-2075,-437,199,24,-59,-430,371,244
,1495,2023-10-20 13:53:41.39,207,298,-2095,-411,193,20,36,-590,626,277
,1496,2023-10-20 13:53:41.40,219,295,-2104,-369,178,22,-80,-458,378,269
,1497,2023-10-20 13:53:41.41,207,288,-2100,-312,161,17,33,-613,646,290
,1498,2023-10-20 13:53:41.42,232,333,-2073,-248,130,4,-56,-477,421,266
,1499,2023-10-20 13:53:41.43,257,320,-2041,-211,106,-21,4,-615,619,305
,1500,2023-10-20 13:53:41.44,264,306,-2057,-197,101,-50,-76,-465,389,270
,1501,2023-10-20 13:53:41.45,263,297,-2055,-197,100,-53,9,-585,594,288
,1502,2023-10-20 13:53:41.46,239,288,-2084,-202,96,-37,-50,-433,383,241
,1503,2023-10-20 13:53:41.47,236,262,-2041,-202,84,-6,5,-549,554,272
,1504,2023-10-20 13:53:41.48,239,237,-2032,-201,75,30,-59,-424,365,241
,1505,2023-10-20 13:53:41.49,249,262,-2005,-184,65,76,-10,-566,556,288
,1506,2023-10-20 13:53:41.50,228,283,-2015,-162,66,113,-42,-470,428,256
,1507,2023-10-20 13:53:41.51,220,303,-2048,-141,57,150,-4,-604,600,304
,1508,2023-10-20 13:53:41.52,232,319,-2042,-131,47,182,-32,-478,446,255
,1509,2023-10-20 13:53:41.53,231,323,-2033,-113,37,206,-42,-591,549,316
,1510,2023-10-20 13:53:41.54,241,340,-2004,-85,14,212,-50,-482,432,266
,1511,2023-10-20 13:53:41.55,239,338,-2045,-74,17,212,-34,-600,566,317
,1512,2023-10-20 13:53:41.56,262,309,-2011,-83,21,222,-17,-494,477,255
,1513,2023-10-20 13:53:41.57,269,312,-2027,-75,34,239,-9,-595,586,302
,1514,2023-10-20 13:53:41.58,261,311,-2022,-62,55,271,6,-484,490,239
,1515,2023-10-20 13:53:41.59,266,268,-2012,-40,80,306,-16,-585,569,300
,1516,2023-10-20 13:53:41.60,279,278,-2010,-5,91,344,11,-489,500,239
,1517,2023-10-20 13:53:41.61,266,262,-2027,20,84,373,-39,-574,535,306
,1518,2023-10-20 13:53:41.62,295,271,-2004,20,77,408,-3,-457,454,230
,1519,2023-10-20 13:53:41.63,305,257,-2009,2,77,440,-62,-546,484,304
,1520,2023-10-20 13:53:41.64,315,260,-2028,-21,84,470,6,-471,477,232
,1521,2023-10-20 13:53:41.65,326,221,-2031,-32,92,503,-69,-569,500,319
,1522,2023-10-20 13:53:41.66,319,269,-2048,-16,99,526,10,-494,504,242
,1523,2023-10-20 13:53:41.67,296,270,-2046,-3,80,551,-61,-578,517,319
,1524,2023-10-20 13:53:41.68,317,226,-2026,-5,74,577,24,-515,539,245
,1525,2023-10-20 13:53:41.69,319,267,-2010,-5,70,591,-86,-580,494,333
,1526,2023-10-20 13:53:41.70,313,299,-2005,1,66,591,15,-497,512,241
,1527,2023-10-20 13:53:41.71,332,272,-1972,10,61,589,-91,-571,480,331
,1528,2023-10-20 13:53:41.72,317,285,-2001,31,76,582,24,-525,549,250
,1529,2023-10-20 13:53:41.73,324,285,-2007,31,87,587,-98,-580,482,339
,1530,2023-10-20 13:53:41.74,315,284,-2010,37,99,598,32,-517,549,242
,1531,2023-10-20 13:53:41.75,324,263,-2018,51,118,614,-92,-568,476,330
,1532,2023-10-20 13:53:41.76,325,235,-2004,72,127,626,48,-525,573,238
,1533,2023-10-20 13:53:41.77,305,242,-2031,87,124,644,-98,-567,469,332
,1534,2023-10-20 13:53:41.78,326,262,-2040,106,109,656,54,-523,577,234
,1535,2023-10-20 13:53:41.79,307,319,-2058,146,89,649,-100,-554,454,327
,1536,2023-10-20 13:53:41.80,325,357,-2105,198,57,630,64,-511,575,223
,1537,2023-10-20 13:53:41.81,354,418,-2063,246,20,586,-98,-529,431,313
,1538,2023-10-20 13:53:41.82,370,397,-2011,279,2,519,70,-498,568,214
,1539,2023-10-20 13:53:41.83,387,367,-2003,279,19,466,-104,-523,419,313
,1540,2023-10-20 13:53:41.84,400,338,-2019,254,49,446,74,-515,589,220
,1541,2023-10-20 13:53:41.85,378,298,-2060,237,71,448,-99,-530,431,314
,1542,2023-10-20 13:53:41.86,400,237,-2076,195,63,500,94,-510,604,208
,1543,2023-10-20 13:53:41.87,390,215,-2037,186,51,515,-96,-504,408,300
,1544,2023-10-20 13:53:41.88,391,241,-2053,200,19,518,103,-487,590,192
,1545,2023-10-20 13:53:41.89,398,267,-2061,209,-4,513,-108,-473,365,290
,1546,2023-10-20 13:53:41.90,409,262,-2039,229,-47,492,96,-464,560,184
,1547,2023-10-20 13:53:41.91,403,235,-2026,249,-82,476,-125,-475,350,300
,1548,2023-10-20 13:53:41.92,414,220,-2022,282,-118,457,92,-508,600,208
,1549,2023-10-20 13:53:41.93,378,205,-2053,325,-142,434,-118,-497,379,307
,1550,2023-10-20 13:53:41.94,383,173,-2060,371,-168,413,96,-511,607,207
,1551,2023-10-20 13:53:41.95,366,190,-2104,404,-191,391,-169,-492,323,330
,1552,2023-10-20 13:53:41.96,357,167,-2087,408,-194,359,77,-514,591,218
,1553,2023-10-20 13:53:41.97,364,141,-2067,407,-192,318,-147,-479,332,313
,1554,2023-10-20 13:53:41.98,363,103,-2063,402,-182,281,119,-498,617,189
,1555,2023-10-20 13:53:41.99,338,59,-2088,396,-170,268,-123,-476,353,299
,1556,2023-10-20 13:53:42.00,354,47,-2060,388,-174,263,121,-534,655,206
,1557,2023-10-20 13:53:42.01,333,36,-2043,381,-177,254,-161,-509,348,335
,1558,2023-10-20 13:53:42.02,369,23,-2028,377,-183,245,100,-554,654,227
,1559,2023-10-20 13:53:42.03,333,-11,-2027,371,-179,239,-163,-492,329,327
,1560,2023-10-20 13:53:42.04,341,-22,-2000,360,-146,241,107,-529,636,211
,1561,2023-10-20 13:53:42.05,327,-36,-2040,362,-110,262,-166,-480,314,323
,1562,2023-10-20 13:53:42.06,304,-34,-2035,363,-96,285,115,-542,657,213
,1563,2023-10-20 13:53:42.07,293,-21,-2027,385,-99,285,-168,-487,319,327
,1564,2023-10-20 13:53:42.08,284,20,-2051,410,-108,268,102,-548,650,223
,1565,2023-10-20 13:53:42.09,290,28,-2038,422,-133,249,-197,-492,295,344
,1566,2023-10-20 13:53:42.10,282,44,-2054,415,-148,212,88,-573,661,242
,1567,2023-10-20 13:53:42.11,289,36,-2036,393,-161,177,-208,-508,300,358
,1568,2023-10-20 13:53:42.12,289,21,-2047,368,-150,145,87,-576,663,244
,1569,2023-10-20 13:53:42.13,286,-1,-2032,355,-134,131,-208,-480,272,344
,1570,2023-10-20 13:53:42.14,289,-22,-2034,342,-121,120,99,-551,650,226
,1571,2023-10-20 13:53:42.15,281,-58,-2045,335,-129,117,-199,-469,270,334
,1572,2023-10-20 13:53:42.16,279,-88,-2069,319,-139,119,116,-554,670,219
,1573,2023-10-20 13:53:42.17,257,-86,-2082,311,-142,128,-179,-457,278,318
,1574,2023-10-20 13:53:42.18,260,-80,-2077,315,-165,145,134,-535,669,200
,1575,2023-10-20 13:53:42.19,258,-70,-2072,305,-182,156,-173,-432,259,302
,1576,2023-10-20 13:53:42.20,267,-72,-2056,286,-195,157,140,-526,666,193
,1577,2023-10-20 13:53:42.21,265,-72,-2041,258,-191,162,-177,-443,266,310
,1578,2023-10-20 13:53:42.22,240,-72,-2047,237,-192,173,138,-547,685,204
,1579,2023-10-20 13:53:42.23,232,-94,-2051,220,-201,185,-170,-425,255,297
,1580,2023-10-20 13:53:42.24,231,-110,-2050,199,-213,199,164,-509,673,172
,1581,2023-10-20 13:53:42.25,227,-106,-2045,186,-230,213,-159,-397,238,278
,1582,2023-10-20 13:53:42.26,212,-100,-2055,173,-245,228,156,-509,665,176
,1583,2023-10-20 13:53:42.27,210,-112,-2067,157,-253,246,-170,-401,231,285
,1584,2023-10-20 13:53:42.28,219,-119,-2063,134,-261,273,145,-527,672,191
,1585,2023-10-20 13:53:42.29,202,-138,-2056,122,-265,298,-178,-415,237,296
,1586,2023-10-20 13:53:42.30,205,-146,-2056,118,-279,324,173,-537,710,182
,1587,2023-10-20 13:53:42.31,206,-140,-2025,108,-275,347,-135,-399,264,267
,1588,2023-10-20 13:53:42.32,212,-153,-2020,102,-269,366,180,-516,696,168
,1589,2023-10-20 13:53:42.33,208,-157,-2032,94,-256,382,-170,-405,235,287
,1590,2023-10-20 13:53:42.34,179,-177,-2044,92,-238,402,169,-541,710,186
,1591,2023-10-20 13:53:42.35,143,-159,-2070,109,-224,428,-150,-414,264,282
,1592,2023-10-20 13:53:42.36,134,-101,-2099,152,-227,435,196,-538,734,171
,1593,2023-10-20 13:53:42.37,116,-50,-2079,189,-246,405,-119,-386,267,252
,1594,2023-10-20 13:53:42.38,130,-30,-2054,210,-270,348,210,-516,726,153
,1595,2023-10-20 13:53:42.39,142,-36,-2032,193,-276,280,-127,-364,237,245
,1596,2023-10-20 13:53:42.40,165,-94,-2024,159,-271,232,204,-501,705,148
,1597,2023-10-20 13:53:42.41,157,-121,-2016,131,-248,200,-119,-355,236,237
,1598,2023-10-20 13:53:42.42,151,-173,-1995,101,-222,205,214,-503,717,144
,1599,2023-10-20 13:53:42.43,142,-247,-1975,84,-181,245,-110,-351,241,230
,1600,2023-10-20 13:53:42.44,113,-246,-2010,101,-141,288,207,-493,700,143
,1601,2023-10-20 13:53:42.45,86,-226,-2016,145,-128,316,-124,-341,217,232
,1602,2023-10-20 13:53:42.46,95,-169,-2045,170,-141,344,203,-494,697,145
,1603,2023-10-20 13:53:42.47,72,-124,-2029,166,-147,353,-108,-349,241,228
,1604,2023-10-20 13:53:42.48,69,-88,-2029,140,-140,352,214,-516,730,151
,1605,2023-10-20 13:53:42.49,46,-85,-2035,99,-148,345,-112,-375,263,243
,1606,2023-10-20 13:53:42.50,52,-77,-2016,42,-150,333,192,-536,728,172
,1607,2023-10-20 13:53:42.51,46,-78,-1994,13,-141,296,-128,-379,251,253
,1608,2023-10-20 13:53:42.52,48,-90,-2009,10,-127,249,180,-537,717,178
,1609,2023-10-20 13:53:42.53,45,-118,-2004,15,-115,203,-127,-370,243,248
,1610,2023-10-20 13:53:42.54,43,-115,-2045,30,-98,159,167,-524,691,178
,1611,2023-10-20 13:53:42.55,34,-130,-2037,50,-93,111,-132,-369,237,250
,1612,2023-10-20 13:53:42.56,32,-160,-2050,63,-89,70,160,-543,703,191
,1613,2023-10-20 13:53:42.57,44,-184,-2092,63,-84,42,-133,-389,256,261
,1614,2023-10-20 13:53:42.58,47,-186,-2112,59,-79,21,153,-549,702,198
,1615,2023-10-20 13:53:42.59,33,-177,-2100,49,-81,6,-129,-386,257,257
,1616,2023-10-20 13:53:42.60,40,-164,-2078,21,-87,-8,107,-554,661,223
,1617,2023-10-20 13:53:42.61,15,-158,-2078,0,-86,-17,-180,-401,221,290
,1618,2023-10-20 13:53:42.62,11,-156,-2066,-29,-96,-25,87,-579,666,246
,1619,2023-10-20 13:53:42.63,13,-142,-2055,-64,-108,-25,-159,-437,278,298
,1620,2023-10-20 13:53:42.64,1,-131,-2038,-104,-122,-29,74,-600,674,263
,1621,2023-10-20 13:53:42.65,13,-142,-2016,-132,-139,-37,-179,-414,235,296
,1622,2023-10-20 13:53:42.66,29,-166,-1998,-133,-154,-58,72,-576,648,252
,1623,2023-10-20 13:53:42.67,25,-170,-2002,-128,-151,-72,-157,-425,268,291
,1624,2023-10-20 13:53:42.68,-4,-154,-2015,-110,-127,-74,75,-598,673,261
,1625,2023-10-20 13:53:42.69,-7,-129,-2044,-83,-106,-57,-157,-432,275,294
,1626,2023-10-20 13:53:42.70,7,-115,-2040,-61,-103,-41,77,-592,669,257
,1627,2023-10-20 13:53:42.71,8,-148,-2054,-57,-114,-38,-138,-427,289,282
,1628,2023-10-20 13:53:42.72,24,-169,-2074,-71,-141,-36,98,-578,676,240
,1629,2023-10-20 13:53:42.73,35,-196,-2090,-97,-151,-33,-113,-403,290,258
,1630,2023-10-20 13:53:42.74,50,-209,-2074,-115,-144,-26,75,-562,637,243
,1631,2023-10-20 13:53:42.75,56,-218,-2061,-125,-115,-8,-124,-387,263,255
,1632,2023-10-20 13:53:42.76,43,-238,-2054,-123,-60,19,114,-549,663,217
,1633,2023-10-20 13:53:42.77,33,-236,-2058,-102,-15,60,-71,-397,326,234
,1634,2023-10-20 13:53:42.78,20,-237,-2042,-68,-2,87,125,-564,689,219
,1635,2023-10-20 13:53:42.79,26,-204,-2039,-36,-11,110,-73,-404,331,238
,1636,2023-10-20 13:53:42.80,29,-173,-2022,-12,-24,109,83,-573,656,245
,1637,2023-10-20 13:53:42.81,43,-157,-2022,-8,-24,103,-100,-417,317,258
,1638,2023-10-20 13:53:42.82,53,-161,-2012,-14,4,84,93,-570,663,238
,1639,2023-10-20 13:53:42.83,39,-166,-2020,-19,41,77,-59,-399,340,229
,1640,2023-10-20 13:53:42.84,45,-180,-2026,-21,77,74,128,-544,672,208
,1641,2023-10-20 13:53:42.85,41,-182,-2021,-13,97,74,-32,-378,346,205
,1642,2023-10-20 13:53:42.86,34,-180,-2033,-11,117,67,125,-532,657,203
,1643,2023-10-20 13:53:42.87,40,-164,-2040,-17,132,65,-28,-377,349,202
,1644,2023-10-20 13:53:42.88,48,-140,-2052,-30,140,62,111,-528,639,208
,1645,2023-10-20 13:53:42.89,42,-161,-2026,-38,147,51,-21,-367,346,194
,1646,2023-10-20 13:53:42.90,49,-165,-2012,-39,156,40,117,-511,628,197
,1647,2023-10-20 13:53:42.91,61,-154,-2049,-44,158,25,-8,-365,357,186
,1648,2023-10-20 13:53:42.92,77,-128,-2039,-58,160,19,106,-506,612,200
,1649,2023-10-20 13:53:42.93,67,-123,-2044,-69,185,9,-2,-356,354,179
,1650,2023-10-20 13:53:42.94,85,-135,-2044,-75,200,1,104,-502,606,199
,1651,2023-10-20 13:53:42.95,100,-139,-2052,-84,208,-10,8,-364,372,178
,1652,2023-10-20 13:53:42.96,102,-131,-2056,-82,217,-21,98,-502,600,202
,1653,2023-10-20 13:53:42.97,112,-129,-2063,-75,218,-24,15,-360,375,172
,1654,2023-10-20 13:53:42.98,101,-119,-2066,-68,215,-27,82,-499,581,208
,1655,2023-10-20 13:53:42.99,130,-95,-2051,-67,213,-40,14,-370,384,178
,1656,2023-10-20 13:53:43.00,123,-90,-2055,-67,217,-47,69,-500,569,215
