// Data mode  : Full
// Data quality  : High
// Acceleration sensor's range  : 16g
// Gyroscope sensor's range  : 2000dps
//
//ARTIFACT,NUM,DATE,ACC_X,ACC_Y,ACC_Z,GYRO_X,GYRO_Y,GYRO_Z,EOG_L,EOG_R,EOG_H,EOG_V
,1,2023-10-27 12:28:44.26,117,-146,-2057,3,-12,34,-317,318,-635,0
,2,2023-10-27 12:28:44.27,132,-159,-2058,6,-22,33,-422,556,-978,-67
,3,2023-10-27 12:28:44.28,124,-153,-2051,9,-18,32,-312,318,-630,-3
,4,2023-10-27 12:28:44.29,130,-162,-2062,10,-27,33,-420,556,-976,-68
,5,2023-10-27 12:28:44.30,120,-169,-2059,8,-33,31,-311,319,-630,-4
,6,2023-10-27 12:28:44.31,118,-166,-2065,9,-34,36,-429,549,-978,-60
,7,2023-10-27 12:28:44.32,99,-170,-2066,9,-39,36,-302,329,-631,-13
,8,2023-10-27 12:28:44.33,113,-168,-2061,11,-36,42,-429,555,-984,-63
,9,2023-10-27 12:28:44.34,105,-170,-2063,11,-47,41,-304,327,-631,-11
,10,2023-10-27 12:28:44.35,104,-166,-2062,7,-45,48,-434,553,-987,-59
,11,2023-10-27 12:28:44.36,99,-166,-2051,7,-46,50,-303,334,-637,-15
,12,2023-10-27 12:28:44.37,98,-170,-2049,6,-38,50,-439,553,-992,-57
,13,2023-10-27 12:28:44.38,103,-166,-2054,-4,-41,47,-294,334,-628,-20
,14,2023-10-27 12:28:44.39,110,-158,-2046,-10,-26,50,-433,567,-1000,-67
,15,2023-10-27 12:28:44.40,97,-156,-2045,-14,-23,47,-296,339,-635,-21
,16,2023-10-27 12:28:44.41,99,-158,-2049,-21,-18,41,-443,543,-986,-50
,17,2023-10-27 12:28:44.42,106,-151,-2037,-22,-13,43,-293,328,-621,-17
,18,2023-10-27 12:28:44.43,116,-157,-2042,-26,-8,38,-440,547,-987,-53
,19,2023-10-27 12:28:44.44,108,-157,-2045,-30,6,42,-282,340,-622,-29
,20,2023-10-27 12:28:44.45,116,-153,-2041,-29,0,36,-447,538,-985,-45
,21,2023-10-27 12:28:44.46,126,-149,-2043,-29,16,39,-281,343,-624,-31
,22,2023-10-27 12:28:44.47,120,-152,-2037,-28,11,40,-442,553,-995,-55
,23,2023-10-27 12:28:44.48,125,-156,-2054,-18,11,44,-296,352,-648,-28
,24,2023-10-27 12:28:44.49,119,-156,-2067,-10,9,48,-460,554,-1014,-47
,25,2023-10-27 12:28:44.50,126,-155,-2059,0,1,46,-292,362,-654,-35
,26,2023-10-27 12:28:44.51,138,-148,-2055,8,4,49,-453,545,-998,-46
,27,2023-10-27 12:28:44.52,128,-153,-2057,13,4,40,-276,365,-641,-44
,28,2023-10-27 12:28:44.53,121,-153,-2058,18,13,45,-452,540,-992,-44
,29,2023-10-27 12:28:44.54,113,-144,-2047,26,0,40,-274,366,-640,-46
,30,2023-10-27 12:28:44.55,127,-152,-2044,30,5,44,-454,530,-984,-38
,31,2023-10-27 12:28:44.56,121,-156,-2040,32,-1,42,-264,371,-635,-53
,32,2023-10-27 12:28:44.57,117,-151,-2052,30,2,41,-455,527,-982,-36
,33,2023-10-27 12:28:44.58,124,-146,-2048,32,-7,40,-261,369,-630,-54
,34,2023-10-27 12:28:44.59,120,-149,-2050,25,-7,36,-458,528,-986,-35
,35,2023-10-27 12:28:44.60,116,-146,-2055,20,-4,36,-264,379,-643,-57
,36,2023-10-27 12:28:44.61,115,-153,-2065,11,-7,34,-465,519,-984,-27
,37,2023-10-27 12:28:44.62,110,-146,-2060,5,-7,36,-261,379,-640,-59
,38,2023-10-27 12:28:44.63,111,-151,-2062,-4,-7,34,-467,520,-987,-26
,39,2023-10-27 12:28:44.64,108,-145,-2061,-9,-10,32,-260,386,-646,-63
,40,2023-10-27 12:28:44.65,104,-149,-2065,-14,-19,31,-469,513,-982,-22
,41,2023-10-27 12:28:44.66,111,-143,-2056,-20,-21,34,-257,394,-651,-68
,42,2023-10-27 12:28:44.67,110,-147,-2057,-23,-28,29,-470,506,-976,-18
,43,2023-10-27 12:28:44.68,116,-152,-2049,-22,-29,28,-254,392,-646,-69
,44,2023-10-27 12:28:44.69,126,-148,-2052,-21,-25,32,-468,505,-973,-18
,45,2023-10-27 12:28:44.70,114,-146,-2046,-24,-25,26,-253,399,-652,-73
,46,2023-10-27 12:28:44.71,111,-148,-2048,-25,-22,26,-472,494,-966,-11
,47,2023-10-27 12:28:44.72,126,-137,-2044,-24,-20,29,-250,402,-652,-76
,48,2023-10-27 12:28:44.73,111,-142,-2056,-22,-18,26,-476,492,-968,-8
,49,2023-10-27 12:28:44.74,109,-137,-2043,-21,-24,25,-249,406,-655,-78
,50,2023-10-27 12:28:44.75,111,-140,-2045,-21,-18,27,-479,484,-963,-2
,51,2023-10-27 12:28:44.76,118,-137,-2052,-21,-22,27,-253,416,-669,-81
,52,2023-10-27 12:28:44.77,114,-134,-2049,-20,-24,28,-484,482,-966,1
,53,2023-10-27 12:28:44.78,120,-136,-2051,-14,-22,26,-253,418,-671,-82
,54,2023-10-27 12:28:44.79,118,-132,-2052,-15,-20,23,-483,479,-962,2
,55,2023-10-27 12:28:44.80,127,-134,-2051,-11,-19,21,-244,434,-678,-95
,56,2023-10-27 12:28:44.81,122,-137,-2052,-3,-15,22,-486,470,-956,8
,57,2023-10-27 12:28:44.82,124,-136,-2044,3,-10,23,-248,425,-673,-88
,58,2023-10-27 12:28:44.83,133,-145,-2045,8,-9,18,-491,457,-948,17
,59,2023-10-27 12:28:44.84,130,-141,-2047,18,-2,21,-250,435,-685,-92
,60,2023-10-27 12:28:44.85,127,-143,-2052,25,-6,19,-491,466,-957,12
,61,2023-10-27 12:28:44.86,112,-150,-2053,31,-12,20,-250,448,-698,-99
,62,2023-10-27 12:28:44.87,124,-142,-2057,34,-13,20,-489,463,-952,13
,63,2023-10-27 12:28:44.88,116,-145,-2060,36,-19,24,-249,443,-692,-97
,64,2023-10-27 12:28:44.89,117,-136,-2060,34,-22,23,-493,443,-936,25
,65,2023-10-27 12:28:44.90,127,-151,-2047,34,-28,27,-248,452,-700,-102
,66,2023-10-27 12:28:44.91,112,-143,-2046,35,-42,23,-491,446,-937,22
,67,2023-10-27 12:28:44.92,124,-138,-2047,29,-35,24,-249,450,-699,-100
,68,2023-10-27 12:28:44.93,119,-141,-2051,24,-24,24,-489,439,-928,25
,69,2023-10-27 12:28:44.94,129,-145,-2045,21,-27,24,-251,457,-708,-103
,70,2023-10-27 12:28:44.95,123,-144,-2056,18,-24,23,-496,432,-928,32
,71,2023-10-27 12:28:44.96,116,-146,-2076,13,-24,22,-251,468,-719,-108
,72,2023-10-27 12:28:44.97,113,-146,-2069,12,-31,25,-490,433,-923,28
,73,2023-10-27 12:28:44.98,108,-144,-2064,14,-43,27,-251,467,-718,-108
,74,2023-10-27 12:28:44.99,106,-141,-2054,10,-47,31,-489,436,-925,26
,75,2023-10-27 12:28:45.00,94,-140,-2056,4,-52,29,-255,485,-740,-115
,76,2023-10-27 12:28:45.01,105,-143,-2042,3,-49,25,-502,410,-912,46
,77,2023-10-27 12:28:45.02,98,-150,-2042,1,-49,30,-261,460,-721,-99
,78,2023-10-27 12:28:45.03,93,-146,-2054,-1,-46,31,-490,416,-906,37
,79,2023-10-27 12:28:45.04,97,-140,-2049,-6,-46,29,-248,488,-736,-120
,80,2023-10-27 12:28:45.05,95,-146,-2063,-12,-52,28,-469,436,-905,16
,81,2023-10-27 12:28:45.06,89,-149,-2067,-16,-54,31,-232,513,-745,-140
,82,2023-10-27 12:28:45.07,98,-143,-2068,-18,-59,35,-478,408,-886,35
,83,2023-10-27 12:28:45.08,86,-142,-2050,-18,-64,36,-255,478,-733,-111
,84,2023-10-27 12:28:45.09,92,-140,-2061,-20,-63,41,-486,396,-882,45
,85,2023-10-27 12:28:45.10,78,-139,-2068,-26,-65,39,-260,496,-756,-118
,86,2023-10-27 12:28:45.11,84,-134,-2069,-27,-62,48,-490,396,-886,47
,87,2023-10-27 12:28:45.12,71,-142,-2064,-25,-73,48,-263,497,-760,-117
,88,2023-10-27 12:28:45.13,63,-140,-2048,-23,-74,53,-487,397,-884,45
,89,2023-10-27 12:28:45.14,73,-149,-2049,-26,-72,57,-262,508,-770,-123
,90,2023-10-27 12:28:45.15,57,-147,-2039,-21,-66,58,-485,388,-873,48
,91,2023-10-27 12:28:45.16,63,-143,-2026,-20,-71,55,-262,512,-774,-125
,92,2023-10-27 12:28:45.17,77,-156,-2034,-15,-54,56,-479,392,-871,43
,93,2023-10-27 12:28:45.18,59,-147,-2044,-11,-45,59,-262,519,-781,-128
,94,2023-10-27 12:28:45.19,59,-147,-2036,-3,-44,54,-475,394,-869,40
,95,2023-10-27 12:28:45.20,74,-147,-2041,2,-28,55,-268,526,-794,-129
,96,2023-10-27 12:28:45.21,67,-144,-2044,0,-24,53,-466,393,-859,36
,97,2023-10-27 12:28:45.22,58,-143,-2056,3,-5,52,-263,524,-787,-130
,98,2023-10-27 12:28:45.23,60,-138,-2050,3,-11,49,-470,381,-851,44
,99,2023-10-27 12:28:45.24,51,-138,-2046,3,-4,45,-275,517,-792,-121
,100,2023-10-27 12:28:45.25,50,-147,-2049,0,-10,50,-471,374,-845,48
,101,2023-10-27 12:28:45.26,49,-148,-2054,-3,-8,50,-275,536,-811,-130
,102,2023-10-27 12:28:45.27,46,-143,-2056,-1,-10,56,-465,378,-843,43
,103,2023-10-27 12:28:45.28,57,-145,-2061,-7,-14,55,-275,542,-817,-133
,104,2023-10-27 12:28:45.29,43,-141,-2056,-14,-11,60,-458,379,-837,39
,105,2023-10-27 12:28:45.30,31,-138,-2065,-20,-15,62,-272,548,-820,-138
,106,2023-10-27 12:28:45.31,46,-134,-2056,-28,-10,64,-454,376,-830,39
,107,2023-10-27 12:28:45.32,42,-133,-2046,-35,-16,65,-269,553,-822,-142
,108,2023-10-27 12:28:45.33,45,-136,-2056,-43,-9,63,-450,368,-818,41
,109,2023-10-27 12:28:45.34,57,-124,-2052,-46,-9,65,-278,552,-830,-137
,110,2023-10-27 12:28:45.35,46,-115,-2041,-53,-4,60,-447,366,-813,40
,111,2023-10-27 12:28:45.36,42,-114,-2052,-61,0,59,-282,560,-842,-139
,112,2023-10-27 12:28:45.37,46,-112,-2072,-71,2,54,-444,364,-808,40
,113,2023-10-27 12:28:45.38,49,-117,-2061,-76,9,57,-287,556,-843,-134
,114,2023-10-27 12:28:45.39,36,-105,-2048,-84,12,56,-438,357,-795,40
,115,2023-10-27 12:28:45.40,38,-101,-2057,-88,12,60,-286,562,-848,-138
,116,2023-10-27 12:28:45.41,42,-101,-2065,-98,3,57,-434,353,-787,40
,117,2023-10-27 12:28:45.42,48,-94,-2055,-106,14,65,-285,569,-854,-142
,118,2023-10-27 12:28:45.43,50,-87,-2062,-112,5,62,-430,361,-791,34
,119,2023-10-27 12:28:45.44,40,-95,-2043,-115,3,63,-298,569,-867,-135
,120,2023-10-27 12:28:45.45,65,-97,-2050,-109,8,67,-427,348,-775,39
,121,2023-10-27 12:28:45.46,58,-98,-2049,-108,6,68,-300,570,-870,-135
,122,2023-10-27 12:28:45.47,76,-100,-2045,-100,6,72,-422,347,-769,37
,123,2023-10-27 12:28:45.48,61,-110,-2051,-87,2,74,-299,567,-866,-134
,124,2023-10-27 12:28:45.49,53,-105,-2054,-77,10,79,-418,345,-763,36
,125,2023-10-27 12:28:45.50,68,-100,-2062,-67,5,81,-307,572,-879,-132
,126,2023-10-27 12:28:45.51,68,-101,-2058,-60,12,83,-413,340,-753,36
,127,2023-10-27 12:28:45.52,44,-94,-2068,-50,9,83,-308,579,-887,-135
,128,2023-10-27 12:28:45.53,58,-103,-2058,-42,7,88,-410,343,-753,33
,129,2023-10-27 12:28:45.54,58,-104,-2054,-31,8,93,-316,572,-888,-128
,130,2023-10-27 12:28:45.55,49,-103,-2057,-19,-3,92,-405,337,-742,34
,131,2023-10-27 12:28:45.56,61,-106,-2044,-11,0,94,-322,574,-896,-126
,132,2023-10-27 12:28:45.57,56,-104,-2050,-1,1,99,-405,330,-735,37
,133,2023-10-27 12:28:45.58,62,-95,-2049,11,-2,96,-325,577,-902,-126
,134,2023-10-27 12:28:45.59,67,-100,-2046,22,3,97,-398,330,-728,34
,135,2023-10-27 12:28:45.60,67,-91,-2041,26,0,93,-331,574,-905,-121
,136,2023-10-27 12:28:45.61,68,-97,-2046,21,15,87,-392,330,-722,31
,137,2023-10-27 12:28:45.62,58,-99,-2053,23,19,81,-323,592,-915,-134
,138,2023-10-27 12:28:45.63,55,-99,-2058,28,21,77,-384,331,-715,26
,139,2023-10-27 12:28:45.64,51,-102,-2059,37,8,75,-331,576,-907,-122
,140,2023-10-27 12:28:45.65,50,-93,-2056,39,0,66,-389,315,-704,37
,141,2023-10-27 12:28:45.66,53,-101,-2061,33,-5,63,-340,584,-924,-122
,142,2023-10-27 12:28:45.67,51,-101,-2063,31,2,61,-377,329,-706,24
,143,2023-10-27 12:28:45.68,52,-107,-2053,27,0,53,-345,583,-928,-119
,144,2023-10-27 12:28:45.69,62,-113,-2056,33,-3,49,-374,336,-710,19
,145,2023-10-27 12:28:45.70,56,-100,-2054,37,-7,45,-349,587,-936,-119
,146,2023-10-27 12:28:45.71,64,-102,-2054,38,-7,40,-365,333,-698,16
,147,2023-10-27 12:28:45.72,55,-102,-2052,28,3,33,-348,592,-940,-122
,148,2023-10-27 12:28:45.73,76,-103,-2055,24,14,28,-361,331,-692,15
,149,2023-10-27 12:28:45.74,61,-111,-2061,23,9,23,-354,595,-949,-120
,150,2023-10-27 12:28:45.75,59,-108,-2063,27,2,20,-358,338,-696,10
,151,2023-10-27 12:28:45.76,65,-109,-2061,23,-5,20,-359,597,-956,-119
,152,2023-10-27 12:28:45.77,58,-101,-2067,16,-4,18,-351,337,-688,7
,153,2023-10-27 12:28:45.78,52,-103,-2059,12,-12,17,-359,594,-953,-117
,154,2023-10-27 12:28:45.79,58,-104,-2062,8,-12,16,-352,332,-684,10
,155,2023-10-27 12:28:45.80,59,-105,-2065,6,-20,11,-368,595,-963,-113
,156,2023-10-27 12:28:45.81,53,-101,-2058,5,-25,10,-347,330,-677,8
,157,2023-10-27 12:28:45.82,65,-98,-2054,3,-19,11,-368,586,-954,-109
,158,2023-10-27 12:28:45.83,61,-95,-2054,-2,-18,12,-339,330,-669,4
,159,2023-10-27 12:28:45.84,58,-101,-2040,-3,-19,9,-371,585,-956,-107
,160,2023-10-27 12:28:45.85,71,-112,-2052,-4,-15,8,-342,321,-663,10
,161,2023-10-27 12:28:45.86,53,-111,-2058,-2,-16,8,-374,581,-955,-103
,162,2023-10-27 12:28:45.87,71,-106,-2077,9,-26,8,-334,322,-656,6
,163,2023-10-27 12:28:45.88,65,-100,-2070,12,-17,14,-378,572,-950,-97
,164,2023-10-27 12:28:45.89,68,-97,-2052,8,-13,12,-331,320,-651,5
,165,2023-10-27 12:28:45.90,62,-92,-2059,3,-10,9,-388,573,-961,-92
,166,2023-10-27 12:28:45.91,66,-93,-2052,9,-9,10,-331,321,-652,5
,167,2023-10-27 12:28:45.92,46,-104,-2047,18,-14,11,-388,573,-961,-92
,168,2023-10-27 12:28:45.93,36,-105,-2051,21,-15,11,-318,330,-648,-6
,169,2023-10-27 12:28:45.94,44,-105,-2057,24,-21,16,-390,577,-967,-93
,170,2023-10-27 12:28:45.95,42,-103,-2054,28,-28,19,-317,326,-643,-4
,171,2023-10-27 12:28:45.96,38,-97,-2060,28,-29,20,-396,571,-967,-87
,172,2023-10-27 12:28:45.97,41,-99,-2053,25,-28,22,-313,327,-640,-7
,173,2023-10-27 12:28:45.98,40,-93,-2057,17,-27,21,-402,565,-967,-81
,174,2023-10-27 12:28:45.99,34,-100,-2057,14,-26,23,-306,329,-635,-11
,175,2023-10-27 12:28:46.00,42,-91,-2049,7,-25,18,-400,564,-964,-82
,176,2023-10-27 12:28:46.01,36,-94,-2037,4,-8,20,-301,326,-627,-12
,177,2023-10-27 12:28:46.02,29,-100,-2054,-5,-10,16,-404,562,-966,-79
,178,2023-10-27 12:28:46.03,41,-93,-2052,-6,-6,14,-286,350,-636,-32
,179,2023-10-27 12:28:46.04,38,-95,-2050,-10,-1,9,-408,566,-974,-79
,180,2023-10-27 12:28:46.05,31,-86,-2053,-11,6,8,-293,338,-631,-22
,181,2023-10-27 12:28:46.06,29,-95,-2053,-7,7,2,-416,547,-963,-65
,182,2023-10-27 12:28:46.07,42,-92,-2056,-4,6,1,-284,345,-629,-30
,183,2023-10-27 12:28:46.08,57,-87,-2046,-4,16,3,-414,563,-977,-74
,184,2023-10-27 12:28:46.09,37,-93,-2055,-14,30,1,-286,340,-626,-27
,185,2023-10-27 12:28:46.10,45,-91,-2060,-15,26,1,-416,568,-984,-76
,186,2023-10-27 12:28:46.11,55,-87,-2047,-6,26,3,-278,353,-631,-37
,187,2023-10-27 12:28:46.12,62,-87,-2035,-5,22,2,-420,564,-984,-72
,188,2023-10-27 12:28:46.13,40,-95,-2055,-9,29,-1,-274,358,-632,-42
,189,2023-10-27 12:28:46.14,46,-95,-2054,-8,32,-2,-425,562,-987,-68
,190,2023-10-27 12:28:46.15,60,-86,-2047,0,27,1,-266,356,-622,-45
,191,2023-10-27 12:28:46.16,65,-89,-2043,2,33,0,-423,552,-975,-64
,192,2023-10-27 12:28:46.17,68,-87,-2061,2,41,2,-271,357,-628,-43
,193,2023-10-27 12:28:46.18,53,-89,-2073,5,36,-3,-433,554,-987,-60
,194,2023-10-27 12:28:46.19,63,-89,-2060,9,32,-2,-266,364,-630,-49
,195,2023-10-27 12:28:46.20,57,-96,-2069,10,33,-3,-433,550,-983,-58
,196,2023-10-27 12:28:46.21,50,-109,-2067,12,42,-1,-262,363,-625,-50
,197,2023-10-27 12:28:46.22,43,-109,-2069,21,25,0,-436,533,-969,-48
,198,2023-10-27 12:28:46.23,60,-108,-2049,32,17,5,-259,364,-623,-52
,199,2023-10-27 12:28:46.24,56,-105,-2036,36,6,2,-442,532,-974,-45
,200,2023-10-27 12:28:46.25,63,-104,-2033,38,26,6,-259,368,-627,-54
,201,2023-10-27 12:28:46.26,60,-106,-2034,40,28,-3,-440,533,-973,-46
,202,2023-10-27 12:28:46.27,65,-110,-2023,41,34,-4,-255,376,-631,-60
,203,2023-10-27 12:28:46.28,68,-112,-2045,48,39,-5,-447,531,-978,-42
,204,2023-10-27 12:28:46.29,71,-115,-2036,49,43,-18,-252,379,-631,-63
,205,2023-10-27 12:28:46.30,70,-102,-2056,46,46,-21,-452,525,-977,-36
,206,2023-10-27 12:28:46.31,68,-94,-2053,42,42,-30,-252,382,-634,-65
,207,2023-10-27 12:28:46.32,82,-100,-2046,40,54,-37,-450,520,-970,-35
,208,2023-10-27 12:28:46.33,62,-96,-2050,34,48,-45,-247,393,-640,-73
,209,2023-10-27 12:28:46.34,73,-103,-2049,32,44,-56,-453,516,-969,-31
,210,2023-10-27 12:28:46.35,73,-99,-2067,30,38,-57,-246,388,-634,-71
,211,2023-10-27 12:28:46.36,63,-104,-2056,19,40,-66,-452,517,-969,-32
,212,2023-10-27 12:28:46.37,75,-108,-2057,15,51,-70,-240,401,-641,-80
,213,2023-10-27 12:28:46.38,64,-115,-2069,14,46,-66,-453,514,-967,-30
,214,2023-10-27 12:28:46.39,70,-119,-2069,21,29,-71,-235,413,-648,-89
,215,2023-10-27 12:28:46.40,68,-107,-2064,20,8,-64,-453,508,-961,-27
,216,2023-10-27 12:28:46.41,69,-108,-2052,2,18,-67,-236,404,-640,-84
,217,2023-10-27 12:28:46.42,66,-99,-2064,-17,55,-65,-457,503,-960,-23
,218,2023-10-27 12:28:46.43,71,-105,-2075,-19,36,-65,-237,416,-653,-89
,219,2023-10-27 12:28:46.44,62,-104,-2069,-16,44,-60,-456,512,-968,-28
,220,2023-10-27 12:28:46.45,50,-112,-2072,-12,26,-52,-231,422,-653,-95
,221,2023-10-27 12:28:46.46,65,-107,-2062,-14,18,-46,-462,492,-954,-15
,222,2023-10-27 12:28:46.47,72,-106,-2059,-10,15,-39,-239,410,-649,-85
,223,2023-10-27 12:28:46.48,59,-108,-2044,-14,18,-35,-464,484,-948,-10
,224,2023-10-27 12:28:46.49,69,-110,-2037,-8,30,-27,-234,430,-664,-98
,225,2023-10-27 12:28:46.50,86,-115,-2050,-3,12,-26,-470,481,-951,-5
,226,2023-10-27 12:28:46.51,75,-111,-2054,7,3,-21,-232,435,-667,-101
,227,2023-10-27 12:28:46.52,83,-122,-2042,10,9,-15,-467,484,-951,-8
,228,2023-10-27 12:28:46.53,102,-109,-2048,19,22,-7,-233,441,-674,-104
,229,2023-10-27 12:28:46.54,98,-108,-2039,18,25,-5,-472,475,-947,-1
,230,2023-10-27 12:28:46.55,90,-111,-2042,22,36,-3,-232,448,-680,-108
,231,2023-10-27 12:28:46.56,88,-109,-2043,28,40,2,-470,473,-943,-1
,232,2023-10-27 12:28:46.57,92,-112,-2043,27,46,9,-233,446,-679,-106
,233,2023-10-27 12:28:46.58,87,-110,-2056,26,37,8,-468,465,-933,1
,234,2023-10-27 12:28:46.59,75,-102,-2066,26,25,11,-229,458,-687,-114
,235,2023-10-27 12:28:46.60,87,-102,-2064,29,15,18,-473,460,-933,6
,236,2023-10-27 12:28:46.61,108,-87,-2073,27,5,13,-232,459,-691,-113
,237,2023-10-27 12:28:46.62,81,-95,-2066,17,9,14,-472,454,-926,9
,238,2023-10-27 12:28:46.63,92,-103,-2071,12,6,13,-231,463,-694,-116
,239,2023-10-27 12:28:46.64,82,-93,-2081,15,-1,14,-473,450,-923,11
,240,2023-10-27 12:28:46.65,80,-105,-2069,20,-13,15,-231,475,-706,-122
,241,2023-10-27 12:28:46.66,75,-103,-2068,22,-27,10,-475,451,-926,12
,242,2023-10-27 12:28:46.67,71,-105,-2063,21,-20,14,-236,476,-712,-120
,243,2023-10-27 12:28:46.68,73,-115,-2070,22,-24,11,-472,446,-918,13
,244,2023-10-27 12:28:46.69,71,-108,-2065,25,-34,13,-231,488,-719,-128
,245,2023-10-27 12:28:46.70,70,-116,-2065,32,-43,11,-475,443,-918,16
,246,2023-10-27 12:28:46.71,66,-115,-2063,38,-44,17,-235,493,-728,-129
,247,2023-10-27 12:28:46.72,61,-117,-2065,35,-48,17,-474,443,-917,15
,248,2023-10-27 12:28:46.73,51,-119,-2060,33,-49,21,-239,497,-736,-129
,249,2023-10-27 12:28:46.74,44,-115,-2058,35,-55,25,-473,435,-908,19
,250,2023-10-27 12:28:46.75,56,-113,-2051,33,-61,22,-236,505,-741,-134
,251,2023-10-27 12:28:46.76,37,-116,-2042,36,-64,28,-472,432,-904,20
,252,2023-10-27 12:28:46.77,35,-115,-2040,41,-65,27,-236,504,-740,-134
,253,2023-10-27 12:28:46.78,49,-123,-2045,44,-71,28,-468,422,-890,23
,254,2023-10-27 12:28:46.79,43,-121,-2039,48,-75,28,-239,509,-748,-135
,255,2023-10-27 12:28:46.80,30,-126,-2049,51,-74,28,-471,421,-892,25
,256,2023-10-27 12:28:46.81,24,-127,-2064,53,-75,28,-241,516,-757,-137
,257,2023-10-27 12:28:46.82,17,-131,-2065,55,-77,27,-471,421,-892,25
,258,2023-10-27 12:28:46.83,24,-135,-2070,55,-83,29,-244,519,-763,-137
,259,2023-10-27 12:28:46.84,29,-120,-2067,51,-82,26,-463,412,-875,25
,260,2023-10-27 12:28:46.85,19,-116,-2075,45,-77,26,-229,536,-765,-153
,261,2023-10-27 12:28:46.86,17,-107,-2052,34,-75,25,-462,404,-866,29
,262,2023-10-27 12:28:46.87,13,-104,-2039,31,-66,16,-242,522,-764,-140
,263,2023-10-27 12:28:46.88,11,-126,-2040,38,-64,15,-461,394,-855,33
,264,2023-10-27 12:28:46.89,-2,-128,-2046,48,-80,12,-244,528,-772,-142
,265,2023-10-27 12:28:46.90,-3,-144,-2051,52,-95,13,-461,397,-858,32
,266,2023-10-27 12:28:46.91,-2,-143,-2057,50,-89,19,-245,540,-785,-147
,267,2023-10-27 12:28:46.92,-17,-148,-2054,48,-85,25,-457,393,-850,32
,268,2023-10-27 12:28:46.93,0,-148,-2054,42,-80,26,-249,536,-785,-143
,269,2023-10-27 12:28:46.94,-4,-151,-2038,46,-76,25,-448,393,-841,27
,270,2023-10-27 12:28:46.95,11,-147,-2044,53,-75,28,-245,542,-787,-148
,271,2023-10-27 12:28:46.96,8,-161,-2033,56,-63,29,-446,377,-823,34
,272,2023-10-27 12:28:46.97,16,-154,-2047,57,-55,33,-248,534,-782,-143
,273,2023-10-27 12:28:46.98,2,-166,-2046,55,-48,33,-445,372,-817,36
,274,2023-10-27 12:28:46.99,6,-178,-2048,58,-35,38,-250,535,-785,-142
,275,2023-10-27 12:28:47.00,-5,-183,-2044,58,-31,46,-442,359,-801,41
,276,2023-10-27 12:28:47.01,3,-161,-2061,63,-52,53,-254,539,-793,-142
,277,2023-10-27 12:28:47.02,-7,-169,-2057,61,-50,58,-442,355,-797,43
,278,2023-10-27 12:28:47.03,-7,-165,-2050,54,-42,68,-260,535,-795,-137
,279,2023-10-27 12:28:47.04,10,-160,-2052,46,-43,70,-438,360,-798,39
,280,2023-10-27 12:28:47.05,11,-160,-2049,39,-42,75,-265,546,-811,-140
,281,2023-10-27 12:28:47.06,18,-153,-2054,40,-47,80,-434,354,-788,40
,282,2023-10-27 12:28:47.07,34,-142,-2022,35,-43,81,-257,547,-804,-145
,283,2023-10-27 12:28:47.08,19,-161,-2039,38,-51,83,-427,349,-776,39
,284,2023-10-27 12:28:47.09,17,-148,-2048,31,-48,83,-266,547,-813,-140
,285,2023-10-27 12:28:47.10,19,-152,-2045,33,-51,90,-431,345,-776,43
,286,2023-10-27 12:28:47.11,28,-149,-2055,27,-46,90,-278,544,-822,-133
,287,2023-10-27 12:28:47.12,31,-155,-2054,26,-49,94,-434,311,-745,61
,288,2023-10-27 12:28:47.13,25,-148,-2042,26,-57,92,-276,522,-798,-123
,289,2023-10-27 12:28:47.14,26,-158,-2038,25,-58,90,-415,330,-745,42
,290,2023-10-27 12:28:47.15,34,-166,-2045,28,-61,94,-269,556,-825,-143
,291,2023-10-27 12:28:47.16,12,-163,-2047,38,-63,95,-411,338,-749,36
,292,2023-10-27 12:28:47.17,26,-150,-2056,42,-67,95,-271,565,-836,-147
,293,2023-10-27 12:28:47.18,28,-147,-2036,35,-43,95,-387,358,-745,14
,294,2023-10-27 12:28:47.19,30,-146,-2029,25,-32,90,-261,568,-829,-153
,295,2023-10-27 12:28:47.20,16,-143,-2031,18,-5,85,-388,320,-708,34
,296,2023-10-27 12:28:47.21,1,-148,-2028,17,-10,77,-278,539,-817,-130
,297,2023-10-27 12:28:47.22,6,-144,-2036,19,-11,74,-392,304,-696,44
,298,2023-10-27 12:28:47.23,15,-145,-2039,13,-9,74,-276,536,-812,-130
,299,2023-10-27 12:28:47.24,13,-137,-2043,3,-1,70,-380,311,-691,34
,300,2023-10-27 12:28:47.25,6,-142,-2047,-4,0,68,-277,545,-822,-134
,301,2023-10-27 12:28:47.26,30,-124,-2052,-12,-4,65,-371,313,-684,29
,302,2023-10-27 12:28:47.27,31,-125,-2040,-19,-1,64,-280,548,-828,-134
,303,2023-10-27 12:28:47.28,12,-125,-2044,-30,7,54,-372,309,-681,31
,304,2023-10-27 12:28:47.29,36,-117,-2034,-41,18,53,-288,541,-829,-126
,305,2023-10-27 12:28:47.30,42,-116,-2012,-48,20,43,-370,299,-669,35
,306,2023-10-27 12:28:47.31,39,-108,-2045,-46,29,45,-293,550,-843,-128
,307,2023-10-27 12:28:47.32,21,-109,-2044,-62,35,44,-368,304,-672,32
,308,2023-10-27 12:28:47.33,36,-111,-2050,-76,43,40,-293,554,-847,-130
,309,2023-10-27 12:28:47.34,39,-106,-2059,-91,53,42,-359,310,-669,24
,310,2023-10-27 12:28:47.35,48,-101,-2066,-101,61,37,-298,555,-853,-128
,311,2023-10-27 12:28:47.36,43,-95,-2065,-102,62,33,-349,305,-654,22
,312,2023-10-27 12:28:47.37,50,-86,-2078,-103,56,36,-297,552,-849,-127
,313,2023-10-27 12:28:47.38,55,-75,-2084,-117,55,29,-348,297,-645,25
,314,2023-10-27 12:28:47.39,59,-76,-2077,-133,62,27,-305,544,-849,-119
,315,2023-10-27 12:28:47.40,58,-63,-2067,-139,56,17,-345,294,-639,25
,316,2023-10-27 12:28:47.41,65,-71,-2069,-138,62,15,-313,547,-860,-117
,317,2023-10-27 12:28:47.42,62,-73,-2077,-128,40,9,-341,290,-631,25
,318,2023-10-27 12:28:47.43,52,-69,-2073,-122,31,13,-312,542,-854,-115
,319,2023-10-27 12:28:47.44,64,-75,-2071,-119,22,14,-335,294,-629,20
,320,2023-10-27 12:28:47.45,57,-70,-2068,-116,19,7,-324,544,-868,-110
,321,2023-10-27 12:28:47.46,52,-71,-2068,-110,18,10,-336,299,-635,18
,322,2023-10-27 12:28:47.47,54,-67,-2063,-99,4,9,-330,583,-913,-126
,323,2023-10-27 12:28:47.48,59,-73,-2057,-84,2,9,-330,336,-666,-3
,324,2023-10-27 12:28:47.49,59,-69,-2062,-71,-1,12,-328,566,-894,-119
,325,2023-10-27 12:28:47.50,57,-71,-2049,-61,-2,16,-320,285,-605,17
,326,2023-10-27 12:28:47.51,52,-62,-2052,-49,-4,19,-324,527,-851,-101
,327,2023-10-27 12:28:47.52,55,-74,-2026,-41,-4,18,-306,283,-589,11
,328,2023-10-27 12:28:47.53,60,-65,-2009,-25,-6,19,-331,537,-868,-103
,329,2023-10-27 12:28:47.54,68,-65,-2029,-6,-5,18,-310,285,-595,12
,330,2023-10-27 12:28:47.55,66,-73,-2015,9,2,18,-340,535,-875,-97
,331,2023-10-27 12:28:47.56,68,-73,-2043,14,12,14,-306,291,-597,7
,332,2023-10-27 12:28:47.57,78,-68,-2048,16,18,12,-345,539,-884,-97
,333,2023-10-27 12:28:47.58,63,-74,-2041,22,32,14,-298,291,-589,3
,334,2023-10-27 12:28:47.59,58,-64,-2042,29,30,8,-346,537,-883,-95
,335,2023-10-27 12:28:47.60,64,-74,-2048,33,40,6,-298,292,-590,3
,336,2023-10-27 12:28:47.61,55,-63,-2063,37,35,4,-357,538,-895,-90
,337,2023-10-27 12:28:47.62,58,-79,-2064,35,30,4,-292,296,-588,-2
,338,2023-10-27 12:28:47.63,58,-81,-2060,36,26,2,-358,546,-904,-94
,339,2023-10-27 12:28:47.64,53,-74,-2060,32,28,0,-291,302,-593,-5
,340,2023-10-27 12:28:47.65,60,-70,-2069,25,31,0,-366,537,-903,-85
,341,2023-10-27 12:28:47.66,59,-73,-2057,19,32,-4,-289,300,-589,-5
,342,2023-10-27 12:28:47.67,43,-72,-2058,19,38,-6,-374,545,-919,-85
,343,2023-10-27 12:28:47.68,44,-72,-2053,18,26,-12,-294,298,-592,-2
,344,2023-10-27 12:28:47.69,34,-81,-2061,16,27,-16,-384,533,-917,-74
,345,2023-10-27 12:28:47.70,33,-85,-2059,11,30,-15,-288,299,-587,-5
,346,2023-10-27 12:28:47.71,32,-82,-2054,8,32,-17,-386,529,-915,-71
,347,2023-10-27 12:28:47.72,33,-77,-2062,6,31,-19,-276,307,-583,-15
,348,2023-10-27 12:28:47.73,30,-78,-2054,6,24,-23,-388,531,-919,-71
,349,2023-10-27 12:28:47.74,14,-85,-2059,8,21,-30,-271,316,-587,-22
,350,2023-10-27 12:28:47.75,22,-87,-2055,8,19,-26,-383,546,-929,-81
,351,2023-10-27 12:28:47.76,20,-93,-2056,9,15,-32,-266,330,-596,-32
,352,2023-10-27 12:28:47.77,12,-85,-2046,6,18,-31,-388,548,-936,-80
,353,2023-10-27 12:28:47.78,17,-88,-2029,7,16,-37,-261,325,-586,-32
,354,2023-10-27 12:28:47.79,1,-95,-2045,7,17,-38,-387,546,-933,-79
,355,2023-10-27 12:28:47.80,18,-97,-2054,6,14,-42,-256,332,-588,-38
,356,2023-10-27 12:28:47.81,16,-97,-2051,6,20,-42,-390,542,-932,-76
,357,2023-10-27 12:28:47.82,33,-94,-2048,11,21,-47,-248,338,-586,-45
,358,2023-10-27 12:28:47.83,28,-86,-2051,9,35,-56,-392,538,-930,-73
,359,2023-10-27 12:28:47.84,30,-90,-2054,8,48,-60,-247,335,-582,-44
,360,2023-10-27 12:28:47.85,36,-89,-2039,1,60,-66,-392,539,-931,-73
,361,2023-10-27 12:28:47.86,28,-82,-2039,-1,71,-72,-243,345,-588,-51
,362,2023-10-27 12:28:47.87,36,-86,-2039,-5,75,-75,-400,535,-935,-67
,363,2023-10-27 12:28:47.88,32,-92,-2047,-8,79,-76,-240,340,-580,-50
,364,2023-10-27 12:28:47.89,37,-98,-2052,-13,78,-77,-402,533,-935,-65
,365,2023-10-27 12:28:47.90,21,-99,-2057,-14,78,-75,-236,353,-589,-58
,366,2023-10-27 12:28:47.91,29,-96,-2058,-13,69,-68,-402,531,-933,-64
,367,2023-10-27 12:28:47.92,25,-95,-2062,-10,71,-71,-236,357,-593,-60
,368,2023-10-27 12:28:47.93,34,-93,-2059,-12,67,-70,-409,530,-939,-60
,369,2023-10-27 12:28:47.94,36,-103,-2066,-8,61,-66,-231,356,-587,-62
,370,2023-10-27 12:28:47.95,23,-92,-2066,-7,57,-63,-410,528,-938,-59
,371,2023-10-27 12:28:47.96,48,-93,-2061,2,52,-58,-231,364,-595,-66
,372,2023-10-27 12:28:47.97,43,-87,-2061,5,51,-58,-419,523,-942,-52
,373,2023-10-27 12:28:47.98,41,-89,-2060,3,50,-56,-231,372,-603,-70
,374,2023-10-27 12:28:47.99,57,-84,-2072,5,51,-55,-422,522,-944,-50
,375,2023-10-27 12:28:48.00,43,-84,-2069,7,53,-54,-228,375,-603,-73
,376,2023-10-27 12:28:48.01,57,-87,-2064,9,43,-55,-420,521,-941,-50
,377,2023-10-27 12:28:48.02,62,-82,-2059,13,39,-51,-224,379,-603,-77
,378,2023-10-27 12:28:48.03,52,-78,-2062,21,36,-52,-426,515,-941,-44
,379,2023-10-27 12:28:48.04,57,-80,-2055,20,35,-48,-221,386,-607,-82
,380,2023-10-27 12:28:48.05,68,-77,-2041,12,42,-48,-428,512,-940,-42
,381,2023-10-27 12:28:48.06,64,-88,-2055,16,41,-46,-221,387,-608,-83
,382,2023-10-27 12:28:48.07,52,-83,-2070,18,45,-43,-427,507,-934,-40
,383,2023-10-27 12:28:48.08,54,-74,-2049,15,36,-40,-215,400,-615,-92
,384,2023-10-27 12:28:48.09,68,-73,-2064,12,33,-44,-432,509,-941,-38
,385,2023-10-27 12:28:48.10,58,-61,-2069,8,31,-43,-213,402,-615,-94
,386,2023-10-27 12:28:48.11,64,-64,-2057,-3,36,-44,-432,503,-935,-35
,387,2023-10-27 12:28:48.12,71,-54,-2065,-10,39,-49,-217,403,-620,-93
,388,2023-10-27 12:28:48.13,65,-55,-2059,-20,40,-51,-438,491,-929,-26
,389,2023-10-27 12:28:48.14,60,-72,-2051,-22,40,-55,-218,402,-620,-92
,390,2023-10-27 12:28:48.15,55,-62,-2067,-21,31,-53,-438,489,-927,-25
,391,2023-10-27 12:28:48.16,43,-84,-2088,-22,14,-50,-211,410,-621,-99
,392,2023-10-27 12:28:48.17,38,-83,-2070,-20,-3,-46,-436,485,-921,-24
,393,2023-10-27 12:28:48.18,40,-80,-2057,-8,-16,-39,-206,418,-624,-106
,394,2023-10-27 12:28:48.19,59,-77,-2040,0,-35,-34,-437,475,-912,-19
,395,2023-10-27 12:28:48.20,43,-90,-2041,4,-34,-36,-206,428,-634,-111
,396,2023-10-27 12:28:48.21,42,-95,-2053,5,-40,-29,-441,482,-923,-20
,397,2023-10-27 12:28:48.22,37,-102,-2061,11,-37,-23,-202,435,-637,-116
,398,2023-10-27 12:28:48.23,37,-100,-2052,15,-30,-19,-439,475,-914,-18
,399,2023-10-27 12:28:48.24,36,-108,-2060,20,-30,-14,-210,442,-652,-116
,400,2023-10-27 12:28:48.25,20,-108,-2072,19,-27,-4,-452,482,-934,-15
,401,2023-10-27 12:28:48.26,15,-106,-2069,17,-29,5,-206,442,-648,-118
,402,2023-10-27 12:28:48.27,12,-98,-2058,21,-26,11,-451,454,-905,-1
,403,2023-10-27 12:28:48.28,9,-113,-2059,25,-21,19,-217,438,-655,-110
,404,2023-10-27 12:28:48.29,11,-107,-2059,19,-31,21,-457,419,-876,19
,405,2023-10-27 12:28:48.30,17,-103,-2057,19,-18,28,-204,413,-617,-104
,406,2023-10-27 12:28:48.31,33,-99,-2048,22,-9,25,-443,422,-865,10
,407,2023-10-27 12:28:48.32,18,-99,-2047,28,0,27,-202,437,-639,-117
,408,2023-10-27 12:28:48.33,16,-102,-2041,34,4,22,-441,431,-872,5
,409,2023-10-27 12:28:48.34,32,-102,-2037,40,13,24,-194,450,-644,-128
,410,2023-10-27 12:28:48.35,30,-117,-2052,51,5,20,-440,428,-868,6
,411,2023-10-27 12:28:48.36,30,-114,-2059,58,24,18,-196,450,-646,-127
,412,2023-10-27 12:28:48.37,32,-115,-2060,61,21,19,-442,423,-865,9
,413,2023-10-27 12:28:48.38,47,-117,-2053,62,27,19,-197,457,-654,-130
,414,2023-10-27 12:28:48.39,41,-121,-2044,62,46,20,-440,427,-867,6
,415,2023-10-27 12:28:48.40,54,-122,-2048,58,55,19,-190,474,-664,-142
,416,2023-10-27 12:28:48.41,36,-124,-2042,53,61,23,-437,437,-874,0
,417,2023-10-27 12:28:48.42,52,-122,-2046,54,56,17,-194,486,-680,-146
,418,2023-10-27 12:28:48.43,48,-121,-2059,56,64,25,-434,435,-869,0
,419,2023-10-27 12:28:48.44,62,-124,-2074,47,57,24,-192,500,-692,-154
,420,2023-10-27 12:28:48.45,63,-121,-2071,39,55,25,-436,438,-874,-1
,421,2023-10-27 12:28:48.46,81,-116,-2074,37,66,28,-192,506,-698,-157
,422,2023-10-27 12:28:48.47,83,-102,-2073,33,58,21,-435,437,-872,-1
,423,2023-10-27 12:28:48.48,107,-93,-2056,28,68,22,-197,508,-705,-155
,424,2023-10-27 12:28:48.49,110,-99,-2059,16,66,12,-431,435,-866,-2
,425,2023-10-27 12:28:48.50,103,-98,-2049,14,76,11,-191,518,-709,-163
,426,2023-10-27 12:28:48.51,104,-102,-2040,12,65,10,-432,430,-862,1
,427,2023-10-27 12:28:48.52,102,-115,-2052,16,58,8,-190,522,-712,-166
,428,2023-10-27 12:28:48.53,91,-116,-2048,17,51,16,-431,424,-855,3
,429,2023-10-27 12:28:48.54,99,-113,-2055,20,30,16,-200,523,-723,-161
,430,2023-10-27 12:28:48.55,92,-124,-2053,25,28,22,-434,409,-843,12
,431,2023-10-27 12:28:48.56,90,-117,-2052,24,18,27,-198,525,-723,-163
,432,2023-10-27 12:28:48.57,95,-115,-2046,24,7,32,-429,417,-846,6
,433,2023-10-27 12:28:48.58,80,-115,-2052,28,7,37,-200,537,-737,-168
,434,2023-10-27 12:28:48.59,87,-114,-2058,23,-6,33,-424,415,-839,4
,435,2023-10-27 12:28:48.60,90,-118,-2061,23,-9,41,-202,542,-744,-170
,436,2023-10-27 12:28:48.61,91,-113,-2052,20,-11,39,-427,407,-834,10
,437,2023-10-27 12:28:48.62,90,-117,-2059,18,-9,40,-202,538,-740,-168
,438,2023-10-27 12:28:48.63,88,-113,-2055,12,-17,32,-425,404,-829,10
,439,2023-10-27 12:28:48.64,100,-105,-2060,10,-11,26,-211,544,-755,-166
,440,2023-10-27 12:28:48.65,86,-112,-2064,7,-17,26,-422,400,-822,11
,441,2023-10-27 12:28:48.66,95,-103,-2072,-2,-17,19,-211,553,-764,-171
,442,2023-10-27 12:28:48.67,87,-102,-2078,-11,-4,15,-420,398,-818,11
,443,2023-10-27 12:28:48.68,93,-98,-2088,-13,-21,17,-209,555,-764,-173
,444,2023-10-27 12:28:48.69,86,-90,-2048,-21,-6,16,-408,401,-809,3
,445,2023-10-27 12:28:48.70,91,-117,-2064,-35,2,6,-205,567,-772,-181
,446,2023-10-27 12:28:48.71,75,-112,-2102,-47,-9,4,-397,412,-809,-7
,447,2023-10-27 12:28:48.72,105,-135,-2093,-48,-12,5,-200,586,-786,-193
,448,2023-10-27 12:28:48.73,91,-124,-2086,-39,-2,8,-394,412,-806,-9
,449,2023-10-27 12:28:48.74,96,-129,-2044,-16,-11,5,-201,595,-796,-197
,450,2023-10-27 12:28:48.75,77,-156,-2044,6,-1,7,-387,412,-799,-12
,451,2023-10-27 12:28:48.76,77,-171,-2054,26,-17,15,-212,592,-804,-190
,452,2023-10-27 12:28:48.77,77,-177,-2040,38,-11,14,-392,403,-795,-5
,453,2023-10-27 12:28:48.78,78,-174,-2055,53,-7,23,-224,596,-820,-186
,454,2023-10-27 12:28:48.79,79,-157,-2043,58,-16,22,-404,394,-798,5
,455,2023-10-27 12:28:48.80,69,-154,-2043,65,-13,18,-235,583,-818,-174
,456,2023-10-27 12:28:48.81,72,-142,-2035,62,-23,17,-404,375,-779,14
,457,2023-10-27 12:28:48.82,68,-129,-2007,54,-14,17,-244,581,-825,-168
,458,2023-10-27 12:28:48.83,63,-137,-2022,43,-16,11,-408,372,-780,18
,459,2023-10-27 12:28:48.84,54,-135,-2016,25,-12,10,-251,570,-821,-159
,460,2023-10-27 12:28:48.85,61,-140,-1998,15,-26,11,-401,354,-755,23
,461,2023-10-27 12:28:48.86,44,-147,-2013,1,-16,11,-245,562,-807,-158
,462,2023-10-27 12:28:48.87,47,-142,-2023,-17,-22,15,-383,344,-727,19
,463,2023-10-27 12:28:48.88,57,-140,-2019,-35,-23,13,-243,565,-808,-161
,464,2023-10-27 12:28:48.89,61,-151,-2067,-44,-18,17,-383,334,-717,24
,465,2023-10-27 12:28:48.90,70,-136,-2070,-52,-21,18,-245,566,-811,-160
,466,2023-10-27 12:28:48.91,53,-132,-2067,-58,-18,17,-384,325,-709,29
,467,2023-10-27 12:28:48.92,60,-130,-2072,-65,-9,15,-263,544,-807,-140
,468,2023-10-27 12:28:48.93,74,-128,-2094,-72,-9,13,-385,306,-691,39
,469,2023-10-27 12:28:48.94,61,-122,-2081,-81,-1,14,-268,547,-815,-139
,470,2023-10-27 12:28:48.95,87,-116,-2085,-90,13,10,-382,299,-681,41
,471,2023-10-27 12:28:48.96,83,-107,-2106,-99,26,9,-272,545,-817,-136
,472,2023-10-27 12:28:48.97,82,-89,-2089,-109,35,12,-381,300,-681,40
,473,2023-10-27 12:28:48.98,98,-70,-2020,-115,43,9,-285,534,-819,-124
,474,2023-10-27 12:28:48.99,92,-64,-2012,-126,56,6,-380,285,-665,47
,475,2023-10-27 12:28:49.00,93,-78,-2007,-138,53,8,-287,530,-817,-121
,476,2023-10-27 12:28:49.01,84,-89,-2012,-134,43,10,-386,287,-673,49
,477,2023-10-27 12:28:49.02,85,-92,-2026,-117,37,13,-296,539,-835,-121
,478,2023-10-27 12:28:49.03,85,-53,-2035,-108,30,16,-412,294,-706,59
,479,2023-10-27 12:28:49.04,83,-47,-2004,-106,23,8,-300,517,-817,-108
,480,2023-10-27 12:28:49.05,84,-65,-2027,-105,28,-3,-308,308,-616,0
,481,2023-10-27 12:28:49.06,82,-80,-2064,-93,19,-8,-192,611,-803,-209
,482,2023-10-27 12:28:49.07,100,-89,-2069,-78,5,-12,-264,387,-651,-61
,483,2023-10-27 12:28:49.08,99,-75,-2056,-56,10,-16,-234,634,-868,-200
,484,2023-10-27 12:28:49.09,106,-75,-2088,-53,21,-21,-246,360,-606,-57
,485,2023-10-27 12:28:49.10,98,-49,-2116,-67,19,-26,-218,571,-789,-176
,486,2023-10-27 12:28:49.11,86,-20,-2110,-85,25,-28,-310,315,-625,-2
,487,2023-10-27 12:28:49.12,86,-25,-2092,-99,36,-36,-278,598,-876,-160
,488,2023-10-27 12:28:49.13,73,0,-2083,-122,30,-36,-307,376,-683,-34
,489,2023-10-27 12:28:49.14,71,-10,-2081,-155,24,-33,-266,629,-895,-181
,490,2023-10-27 12:28:49.15,60,7,-2080,-178,-7,-29,-289,372,-661,-41
,491,2023-10-27 12:28:49.16,50,10,-2071,-191,-25,-27,-274,635,-909,-180
,492,2023-10-27 12:28:49.17,69,24,-2066,-204,-43,-24,-301,379,-680,-39
,493,2023-10-27 12:28:49.18,38,25,-2048,-213,-57,-25,-289,632,-921,-171
,494,2023-10-27 12:28:49.19,45,40,-2094,-219,-74,-22,-302,379,-681,-38
,495,2023-10-27 12:28:49.20,43,50,-2085,-224,-111,-20,-301,628,-929,-163
,496,2023-10-27 12:28:49.21,43,44,-2068,-221,-116,-19,-300,372,-672,-36
,497,2023-10-27 12:28:49.22,59,66,-2046,-213,-121,-14,-308,628,-936,-160
,498,2023-10-27 12:28:49.23,45,62,-2030,-207,-112,-18,-300,372,-672,-36
,499,2023-10-27 12:28:49.24,41,57,-2026,-193,-109,-15,-312,615,-927,-151
,500,2023-10-27 12:28:49.25,45,49,-2023,-169,-104,-19,-295,360,-655,-32
,501,2023-10-27 12:28:49.26,32,48,-2037,-146,-86,-16,-324,615,-939,-145
,502,2023-10-27 12:28:49.27,56,38,-2035,-127,-84,-12,-294,360,-654,-33
,503,2023-10-27 12:28:49.28,42,35,-2037,-103,-67,-11,-335,614,-949,-139
,504,2023-10-27 12:28:49.29,34,36,-2042,-76,-48,-6,-304,347,-651,-21
,505,2023-10-27 12:28:49.30,46,33,-2039,-51,-42,-2,-348,588,-936,-120
,506,2023-10-27 12:28:49.31,37,34,-2048,-31,-43,-4,-299,339,-638,-20
,507,2023-10-27 12:28:49.32,45,27,-2034,-10,-43,0,-354,584,-938,-115
,508,2023-10-27 12:28:49.33,46,18,-2043,14,-22,2,-293,338,-631,-22
,509,2023-10-27 12:28:49.34,39,10,-2065,29,-24,3,-353,584,-937,-115
,510,2023-10-27 12:28:49.35,34,22,-2060,45,-24,3,-293,332,-625,-19
,511,2023-10-27 12:28:49.36,53,11,-2046,62,-18,3,-355,579,-934,-112
,512,2023-10-27 12:28:49.37,45,20,-2050,66,-19,-2,-280,341,-621,-30
,513,2023-10-27 12:28:49.38,40,12,-2062,65,-8,-11,-352,582,-934,-115
,514,2023-10-27 12:28:49.39,34,19,-2071,70,-2,-11,-265,349,-614,-42
,515,2023-10-27 12:28:49.40,51,27,-2055,68,-10,-16,-348,585,-933,-118
,516,2023-10-27 12:28:49.41,47,20,-2046,62,-2,-21,-262,343,-605,-40
,517,2023-10-27 12:28:49.42,48,33,-2050,51,18,-25,-352,580,-932,-114
,518,2023-10-27 12:28:49.43,44,24,-2037,42,15,-30,-258,347,-605,-44
,519,2023-10-27 12:28:49.44,52,21,-2035,36,27,-30,-360,569,-929,-104
,520,2023-10-27 12:28:49.45,54,17,-2043,28,27,-32,-253,343,-596,-45
,521,2023-10-27 12:28:49.46,52,10,-2044,23,26,-29,-365,570,-935,-102
,522,2023-10-27 12:28:49.47,63,10,-2045,20,28,-33,-252,346,-598,-47
,523,2023-10-27 12:28:49.48,42,6,-2049,22,29,-27,-367,572,-939,-102
,524,2023-10-27 12:28:49.49,49,7,-2047,21,21,-19,-249,345,-594,-48
,525,2023-10-27 12:28:49.50,53,5,-2059,17,13,-14,-371,560,-931,-94
,526,2023-10-27 12:28:49.51,41,-2,-2054,17,20,-1,-241,349,-590,-54
,527,2023-10-27 12:28:49.52,59,-1,-2059,18,21,7,-373,557,-930,-92
,528,2023-10-27 12:28:49.53,52,-1,-2056,17,10,13,-238,347,-585,-54
,529,2023-10-27 12:28:49.54,52,4,-2052,14,18,20,-376,550,-926,-87
,530,2023-10-27 12:28:49.55,56,8,-2065,10,24,27,-236,341,-577,-52
,531,2023-10-27 12:28:49.56,63,11,-2071,5,22,34,-378,551,-929,-86
,532,2023-10-27 12:28:49.57,63,14,-2068,4,22,34,-230,361,-591,-65
,533,2023-10-27 12:28:49.58,47,13,-2068,3,25,43,-382,551,-933,-84
,534,2023-10-27 12:28:49.59,66,28,-2066,3,11,42,-227,360,-587,-66
,535,2023-10-27 12:28:49.60,49,31,-2067,6,18,40,-381,549,-930,-84
,536,2023-10-27 12:28:49.61,53,40,-2076,3,13,38,-220,363,-583,-71
,537,2023-10-27 12:28:49.62,58,36,-2074,3,2,29,-381,541,-922,-80
,538,2023-10-27 12:28:49.63,59,28,-2083,5,1,27,-214,366,-580,-76
,539,2023-10-27 12:28:49.64,56,30,-2076,10,-8,25,-387,536,-923,-74
,540,2023-10-27 12:28:49.65,56,32,-2064,19,-17,21,-214,370,-584,-78
,541,2023-10-27 12:28:49.66,56,20,-2041,29,-4,16,-392,542,-934,-75
,542,2023-10-27 12:28:49.67,56,11,-2046,32,-8,11,-216,377,-593,-80
,543,2023-10-27 12:28:49.68,52,3,-2057,40,-5,7,-396,536,-932,-70
,544,2023-10-27 12:28:49.69,41,-3,-2067,56,-3,7,-210,384,-594,-87
,545,2023-10-27 12:28:49.70,47,-2,-2074,67,-19,7,-399,533,-932,-67
,546,2023-10-27 12:28:49.71,46,-6,-2070,71,-11,10,-204,394,-598,-95
,547,2023-10-27 12:28:49.72,31,6,-2076,66,-22,11,-398,550,-948,-76
,548,2023-10-27 12:28:49.73,33,26,-2060,63,-20,9,-204,403,-607,-99
,549,2023-10-27 12:28:49.74,36,29,-2044,58,-17,10,-400,539,-939,-69
,550,2023-10-27 12:28:49.75,30,24,-2030,44,-13,5,-198,410,-608,-106
,551,2023-10-27 12:28:49.76,36,26,-2021,30,-2,6,-400,535,-935,-67
,552,2023-10-27 12:28:49.77,42,23,-2022,27,5,5,-191,419,-610,-114
,553,2023-10-27 12:28:49.78,43,13,-2029,21,8,5,-399,534,-933,-67
,554,2023-10-27 12:28:49.79,46,17,-2031,18,17,7,-191,424,-615,-116
,555,2023-10-27 12:28:49.80,45,7,-2043,16,14,8,-402,537,-939,-67
,556,2023-10-27 12:28:49.81,43,13,-2056,17,16,11,-191,431,-622,-120
,557,2023-10-27 12:28:49.82,46,6,-2075,23,19,17,-415,524,-939,-54
,558,2023-10-27 12:28:49.83,47,16,-2067,20,15,17,-198,420,-618,-111
,559,2023-10-27 12:28:49.84,62,16,-2062,22,26,22,-417,514,-931,-48
,560,2023-10-27 12:28:49.85,54,5,-2061,27,34,23,-195,425,-620,-115
,561,2023-10-27 12:28:49.86,60,-11,-2067,32,38,25,-417,504,-921,-43
,562,2023-10-27 12:28:49.87,65,-6,-2068,41,40,27,-195,430,-625,-117
,563,2023-10-27 12:28:49.88,62,-15,-2073,48,45,30,-424,500,-924,-38
,564,2023-10-27 12:28:49.89,57,-11,-2078,56,38,34,-192,432,-624,-120
,565,2023-10-27 12:28:49.90,58,-16,-2072,64,39,38,-421,500,-921,-39
,566,2023-10-27 12:28:49.91,78,-13,-2055,71,35,42,-193,438,-631,-122
,567,2023-10-27 12:28:49.92,63,-11,-2060,72,30,43,-424,492,-916,-34
,568,2023-10-27 12:28:49.93,69,-4,-2067,76,27,43,-192,447,-639,-127
,569,2023-10-27 12:28:49.94,69,-10,-2046,81,20,41,-426,493,-919,-33
,570,2023-10-27 12:28:49.95,54,-26,-2050,88,17,39,-185,458,-643,-136
,571,2023-10-27 12:28:49.96,60,-33,-2054,90,8,39,-422,491,-913,-34
,572,2023-10-27 12:28:49.97,63,-33,-2047,102,-6,39,-186,461,-647,-137
,573,2023-10-27 12:28:49.98,69,-38,-2048,111,-14,37,-422,481,-903,-29
,574,2023-10-27 12:28:49.99,67,-42,-2056,115,-18,36,-186,468,-654,-141
,575,2023-10-27 12:28:50.00,60,-38,-2053,113,-14,34,-429,483,-912,-27
,576,2023-10-27 12:28:50.01,73,-43,-2050,108,-14,29,-188,477,-665,-144
,577,2023-10-27 12:28:50.02,53,-44,-2043,103,-10,27,-432,466,-898,-17
,578,2023-10-27 12:28:50.03,60,-46,-2059,103,-9,30,-189,470,-659,-140
,579,2023-10-27 12:28:50.04,60,-55,-2052,100,-12,28,-432,466,-898,-17
,580,2023-10-27 12:28:50.05,58,-61,-2052,104,-11,32,-194,476,-670,-141
,581,2023-10-27 12:28:50.06,51,-57,-2049,102,-13,33,-437,457,-894,-10
,582,2023-10-27 12:28:50.07,66,-49,-2042,97,-20,33,-192,483,-675,-145
,583,2023-10-27 12:28:50.08,67,-51,-2043,93,-16,33,-436,453,-889,-8
,584,2023-10-27 12:28:50.09,67,-64,-2042,88,-6,35,-192,484,-676,-146
,585,2023-10-27 12:28:50.10,63,-59,-2067,86,-7,32,-432,446,-878,-7
,586,2023-10-27 12:28:50.11,49,-72,-2077,80,0,34,-194,482,-676,-144
,587,2023-10-27 12:28:50.12,53,-64,-2066,79,-4,33,-437,440,-877,-1
,588,2023-10-27 12:28:50.13,44,-69,-2060,80,-8,36,-196,499,-695,-151
,589,2023-10-27 12:28:50.14,48,-72,-2061,77,-8,40,-438,436,-874,1
,590,2023-10-27 12:28:50.15,37,-85,-2051,79,-12,43,-197,494,-691,-148
,591,2023-10-27 12:28:50.16,51,-72,-2047,78,-18,45,-431,434,-865,-1
,592,2023-10-27 12:28:50.17,55,-78,-2045,79,-15,48,-195,497,-692,-151
,593,2023-10-27 12:28:50.18,38,-88,-2047,77,-10,52,-432,422,-854,5
,594,2023-10-27 12:28:50.19,43,-91,-2057,80,-15,56,-194,504,-698,-155
,595,2023-10-27 12:28:50.20,45,-98,-2059,84,-11,57,-431,422,-853,4
,596,2023-10-27 12:28:50.21,40,-99,-2071,87,-24,60,-194,515,-709,-160
,597,2023-10-27 12:28:50.22,34,-85,-2071,93,-29,66,-430,421,-851,4
,598,2023-10-27 12:28:50.23,39,-85,-2068,89,-28,68,-198,514,-712,-158
,599,2023-10-27 12:28:50.24,29,-85,-2066,83,-31,67,-428,407,-835,10
,600,2023-10-27 12:28:50.25,33,-91,-2057,79,-26,69,-196,515,-711,-159
,601,2023-10-27 12:28:50.26,26,-80,-2051,73,-23,71,-426,400,-826,13
,602,2023-10-27 12:28:50.27,22,-84,-2045,68,-27,74,-194,521,-715,-163
,603,2023-10-27 12:28:50.28,35,-91,-2040,62,-20,72,-424,403,-827,10
,604,2023-10-27 12:28:50.29,27,-79,-2025,53,-8,74,-201,527,-728,-163
,605,2023-10-27 12:28:50.30,29,-92,-2026,48,-7,71,-423,399,-822,12
,606,2023-10-27 12:28:50.31,27,-83,-2051,39,8,68,-200,535,-735,-167
,607,2023-10-27 12:28:50.32,29,-77,-2057,32,10,71,-423,392,-815,15
,608,2023-10-27 12:28:50.33,37,-69,-2060,26,3,65,-201,532,-733,-165
,609,2023-10-27 12:28:50.34,29,-62,-2073,18,13,63,-418,392,-810,13
,610,2023-10-27 12:28:50.35,37,-64,-2075,10,14,60,-206,539,-745,-166
,611,2023-10-27 12:28:50.36,40,-62,-2069,2,8,55,-415,388,-803,13
,612,2023-10-27 12:28:50.37,30,-60,-2062,-2,13,55,-206,547,-753,-170
,613,2023-10-27 12:28:50.38,51,-71,-2049,-3,16,51,-417,382,-799,17
,614,2023-10-27 12:28:50.39,40,-68,-2051,-9,13,44,-210,540,-750,-165
,615,2023-10-27 12:28:50.40,38,-63,-2048,-13,19,43,-414,380,-794,17
,616,2023-10-27 12:28:50.41,41,-67,-2049,-14,21,38,-216,549,-765,-166
,617,2023-10-27 12:28:50.42,42,-65,-2059,-20,20,29,-410,374,-784,18
,618,2023-10-27 12:28:50.43,49,-65,-2069,-22,26,27,-217,557,-774,-170
,619,2023-10-27 12:28:50.44,43,-48,-2066,-27,21,25,-411,371,-782,20
,620,2023-10-27 12:28:50.45,56,-53,-2066,-31,20,20,-219,551,-770,-166
,621,2023-10-27 12:28:50.46,47,-38,-2066,-43,31,18,-406,367,-773,19
,622,2023-10-27 12:28:50.47,48,-35,-2059,-55,23,14,-226,557,-783,-165
,623,2023-10-27 12:28:50.48,51,-33,-2050,-62,20,9,-402,361,-763,20
,624,2023-10-27 12:28:50.49,60,-36,-2039,-64,28,10,-230,558,-788,-164
,625,2023-10-27 12:28:50.50,51,-44,-2057,-65,24,7,-404,354,-758,25
,626,2023-10-27 12:28:50.51,65,-33,-2066,-64,26,7,-231,561,-792,-165
,627,2023-10-27 12:28:50.52,59,-42,-2067,-55,17,8,-401,348,-749,26
,628,2023-10-27 12:28:50.53,55,-38,-2063,-43,17,12,-241,554,-795,-156
,629,2023-10-27 12:28:50.54,70,-38,-2063,-37,9,9,-402,339,-741,31
,630,2023-10-27 12:28:50.55,55,-42,-2063,-24,6,14,-244,549,-793,-152
,631,2023-10-27 12:28:50.56,56,-46,-2066,-18,8,15,-397,329,-726,34
,632,2023-10-27 12:28:50.57,54,-39,-2055,-9,-2,20,-242,559,-801,-158
,633,2023-10-27 12:28:50.58,63,-53,-2061,0,4,18,-393,331,-724,31
,634,2023-10-27 12:28:50.59,57,-54,-2067,8,8,24,-254,556,-810,-151
,635,2023-10-27 12:28:50.60,60,-54,-2052,18,-8,28,-391,323,-714,34
,636,2023-10-27 12:28:50.61,71,-56,-2046,32,-1,31,-258,554,-812,-148
,637,2023-10-27 12:28:50.62,61,-49,-2058,39,-5,33,-387,324,-711,31
,638,2023-10-27 12:28:50.63,57,-59,-2075,45,-6,33,-254,547,-801,-146
,639,2023-10-27 12:28:50.64,50,-48,-2073,55,0,35,-379,291,-670,44
,640,2023-10-27 12:28:50.65,44,-54,-2066,62,-10,37,-264,530,-794,-133
,641,2023-10-27 12:28:50.66,44,-56,-2065,61,-19,31,-370,300,-670,35
,642,2023-10-27 12:28:50.67,50,-62,-2048,64,-20,28,-261,546,-807,-142
,643,2023-10-27 12:28:50.68,40,-60,-2048,65,-12,25,-363,306,-669,28
,644,2023-10-27 12:28:50.69,35,-80,-2059,63,-11,20,-262,548,-810,-143
,645,2023-10-27 12:28:50.70,49,-68,-2049,63,-12,17,-358,309,-667,24
,646,2023-10-27 12:28:50.71,35,-73,-2044,63,-12,13,-271,550,-821,-139
,647,2023-10-27 12:28:50.72,44,-75,-2044,63,-10,11,-355,304,-659,25
,648,2023-10-27 12:28:50.73,39,-81,-2049,62,-6,7,-266,557,-823,-145
,649,2023-10-27 12:28:50.74,37,-80,-2053,67,-12,6,-346,307,-653,19
,650,2023-10-27 12:28:50.75,25,-84,-2065,71,-11,3,-272,557,-829,-142
,651,2023-10-27 12:28:50.76,29,-88,-2063,73,-20,3,-337,313,-650,12
,652,2023-10-27 12:28:50.77,30,-84,-2055,79,-21,6,-273,560,-833,-143
,653,2023-10-27 12:28:50.78,39,-97,-2062,82,-27,10,-334,309,-643,12
,654,2023-10-27 12:28:50.79,39,-98,-2063,83,-29,10,-272,566,-838,-147
,655,2023-10-27 12:28:50.80,47,-96,-2056,88,-29,13,-328,313,-641,7
,656,2023-10-27 12:28:50.81,30,-100,-2054,90,-29,9,-280,563,-843,-141
,657,2023-10-27 12:28:50.82,36,-103,-2059,94,-39,9,-318,313,-631,2
,658,2023-10-27 12:28:50.83,44,-111,-2049,98,-34,15,-279,567,-846,-144
,659,2023-10-27 12:28:50.84,39,-104,-2059,100,-39,18,-313,305,-618,4
,660,2023-10-27 12:28:50.85,33,-97,-2048,97,-36,16,-190,445,-635,-127
,661,2023-10-27 12:28:50.86,48,-91,-2065,92,-39,17,-190,251,-441,-30
,662,2023-10-27 12:28:50.87,37,-97,-2057,87,-35,13,-221,582,-803,-180
,663,2023-10-27 12:28:50.88,32,-92,-2049,76,-33,14,-292,354,-646,-31
,664,2023-10-27 12:28:50.89,31,-95,-2054,66,-32,8,-306,601,-907,-147
,665,2023-10-27 12:28:50.90,33,-89,-2055,56,-28,8,-312,316,-628,-2
,666,2023-10-27 12:28:50.91,51,-94,-2039,56,-28,10,-313,563,-876,-125
,667,2023-10-27 12:28:50.92,45,-109,-2045,53,-22,6,-313,304,-617,4
,668,2023-10-27 12:28:50.93,48,-117,-2041,53,-22,7,-333,552,-885,-109
,669,2023-10-27 12:28:50.94,46,-120,-2030,67,-24,8,-328,279,-607,24
,670,2023-10-27 12:28:50.95,40,-134,-2028,87,-20,7,-347,524,-871,-88
,671,2023-10-27 12:28:50.96,46,-150,-2067,101,-21,7,-315,268,-583,23
,672,2023-10-27 12:28:50.97,40,-168,-2090,110,-23,6,-333,517,-850,-92
,673,2023-10-27 12:28:50.98,59,-163,-2093,124,-21,11,-295,275,-570,10
,674,2023-10-27 12:28:50.99,69,-135,-2063,137,-24,5,-329,521,-850,-96
,675,2023-10-27 12:28:51.00,57,-126,-2055,134,3,-4,-287,274,-561,6
,676,2023-10-27 12:28:51.01,62,-118,-2068,125,23,-11,-320,521,-841,-100
,677,2023-10-27 12:28:51.02,36,-130,-2077,114,25,-17,-268,276,-544,-4
,678,2023-10-27 12:28:51.03,40,-133,-2055,114,8,-19,-310,525,-835,-107
,679,2023-10-27 12:28:51.04,33,-143,-2039,113,-2,-13,-254,287,-541,-16
,680,2023-10-27 12:28:51.05,21,-146,-2034,106,-12,-12,-308,533,-841,-112
,681,2023-10-27 12:28:51.06,38,-143,-2027,96,-28,-3,-252,286,-538,-17
,682,2023-10-27 12:28:51.07,26,-163,-2029,92,-48,3,-308,539,-847,-115
,683,2023-10-27 12:28:51.08,22,-156,-2027,89,-60,7,-247,296,-543,-24
,684,2023-10-27 12:28:51.09,14,-156,-2043,94,-64,12,-309,540,-849,-115
,685,2023-10-27 12:28:51.10,23,-157,-2040,99,-88,13,-234,306,-540,-36
,686,2023-10-27 12:28:51.11,20,-167,-2038,109,-92,13,-304,547,-851,-121
,687,2023-10-27 12:28:51.12,19,-174,-2045,113,-91,14,-227,306,-533,-39
,688,2023-10-27 12:28:51.13,13,-162,-2057,115,-87,12,-303,546,-849,-121
,689,2023-10-27 12:28:51.14,1,-175,-2049,114,-76,8,-222,307,-529,-42
,690,2023-10-27 12:28:51.15,32,-167,-2062,115,-64,4,-308,542,-850,-117
,691,2023-10-27 12:28:51.16,29,-171,-2066,108,-45,0,-212,315,-527,-51
,692,2023-10-27 12:28:51.17,21,-169,-2044,102,-28,-3,-308,544,-852,-118
,693,2023-10-27 12:28:51.18,13,-165,-2048,97,-21,-6,-206,311,-517,-52
,694,2023-10-27 12:28:51.19,20,-166,-2039,83,-17,-6,-292,543,-835,-125
,695,2023-10-27 12:28:51.20,19,-168,-2051,71,-13,-11,-195,315,-510,-60
,696,2023-10-27 12:28:51.21,24,-160,-2068,61,-7,-15,-297,533,-830,-118
,697,2023-10-27 12:28:51.22,9,-157,-2051,55,0,-21,-191,318,-509,-63
,698,2023-10-27 12:28:51.23,-10,-162,-2062,43,-14,-33,-297,544,-841,-123
,699,2023-10-27 12:28:51.24,5,-167,-2067,35,-27,-29,-178,329,-507,-75
,700,2023-10-27 12:28:51.25,-7,-162,-2052,33,-34,-28,-304,493,-797,-94
,701,2023-10-27 12:28:51.26,2,-172,-2066,31,-34,-33,-179,279,-458,-50
,702,2023-10-27 12:28:51.27,-7,-148,-2048,34,-43,-33,-301,516,-817,-107
,703,2023-10-27 12:28:51.28,-5,-151,-2009,37,-43,-37,-164,335,-499,-85
,704,2023-10-27 12:28:51.29,-13,-162,-2020,36,-35,-43,-304,538,-842,-117
,705,2023-10-27 12:28:51.30,-10,-188,-2031,39,-36,-48,-174,328,-502,-77
,706,2023-10-27 12:28:51.31,-13,-209,-2047,57,-45,-43,-312,522,-834,-105
,707,2023-10-27 12:28:51.32,-12,-208,-2061,74,-53,-32,-164,343,-507,-89
,708,2023-10-27 12:28:51.33,13,-200,-2025,83,-50,-23,-308,530,-838,-111
,709,2023-10-27 12:28:51.34,-23,-200,-2025,87,-37,-21,-155,340,-495,-92
,710,2023-10-27 12:28:51.35,-10,-201,-2019,78,-20,-15,-310,521,-831,-105
,711,2023-10-27 12:28:51.36,-18,-196,-2021,69,-3,-13,-161,331,-492,-85
,712,2023-10-27 12:28:51.37,-21,-193,-2029,61,20,-2,-312,512,-824,-100
,713,2023-10-27 12:28:51.38,-10,-184,-2027,53,32,1,-147,347,-494,-100
,714,2023-10-27 12:28:51.39,-7,-197,-2025,39,46,3,-316,518,-834,-101
,715,2023-10-27 12:28:51.40,-7,-196,-2031,28,63,11,-143,350,-493,-103
,716,2023-10-27 12:28:51.41,-5,-197,-2033,20,70,18,-320,515,-835,-97
,717,2023-10-27 12:28:51.42,2,-197,-2037,11,70,28,-142,352,-494,-105
,718,2023-10-27 12:28:51.43,9,-198,-2034,6,86,39,-322,510,-832,-94
,719,2023-10-27 12:28:51.44,10,-199,-2041,-2,92,44,-137,366,-503,-114
,720,2023-10-27 12:28:51.45,13,-188,-2040,-8,92,46,-325,507,-832,-91
,721,2023-10-27 12:28:51.46,20,-195,-2044,-9,104,51,-128,375,-503,-123
,722,2023-10-27 12:28:51.47,30,-192,-2053,-7,99,50,-322,512,-834,-95
,723,2023-10-27 12:28:51.48,15,-192,-2043,-7,103,52,-126,383,-509,-128
,724,2023-10-27 12:28:51.49,35,-188,-2052,4,107,54,-324,516,-840,-96
,725,2023-10-27 12:28:51.50,32,-185,-2066,7,97,50,-123,396,-519,-136
,726,2023-10-27 12:28:51.51,28,-183,-2059,17,94,50,-333,507,-840,-87
,727,2023-10-27 12:28:51.52,37,-182,-2059,20,90,48,-123,398,-521,-137
,728,2023-10-27 12:28:51.53,47,-182,-2060,21,96,42,-336,505,-841,-84
,729,2023-10-27 12:28:51.54,37,-178,-2055,24,99,44,-123,402,-525,-139
,730,2023-10-27 12:28:51.55,50,-183,-2049,18,89,42,-339,507,-846,-84
