// Data mode  : Full
// Data quality  : High
// Acceleration sensor's range  : 16g
// Gyroscope sensor's range  : 2000dps
//
//ARTIFACT,NUM,DATE,ACC_X,ACC_Y,ACC_Z,GYRO_X,GYRO_Y,GYRO_Z,EOG_L,EOG_R,EOG_H,EOG_V
,1,2023-10-27 11:10:20.53,341,-409,-1988,53,35,19,-205,97,-302,54
,2,2023-10-27 11:10:20.54,340,-411,-1994,56,43,15,-112,278,-390,-83
,3,2023-10-27 11:10:20.55,337,-418,-1995,56,46,12,-208,92,-300,58
,4,2023-10-27 11:10:20.56,339,-418,-1998,58,49,7,-113,278,-391,-82
,5,2023-10-27 11:10:20.57,352,-412,-2003,62,48,3,-205,101,-306,52
,6,2023-10-27 11:10:20.58,347,-419,-2006,66,42,3,-105,284,-389,-89
,7,2023-10-27 11:10:20.59,355,-425,-2005,67,33,4,-206,97,-303,54
,8,2023-10-27 11:10:20.60,335,-425,-2009,69,23,5,-103,273,-376,-85
,9,2023-10-27 11:10:20.61,345,-430,-2010,79,12,8,-208,93,-301,57
,10,2023-10-27 11:10:20.62,344,-428,-2003,81,-3,8,-96,282,-378,-93
,11,2023-10-27 11:10:20.63,335,-428,-1999,86,-13,9,-216,85,-301,65
,12,2023-10-27 11:10:20.64,346,-427,-1993,85,-19,10,-97,282,-379,-92
,13,2023-10-27 11:10:20.65,358,-429,-1990,89,-22,10,-214,98,-312,58
,14,2023-10-27 11:10:20.66,350,-415,-1984,88,-14,6,-94,287,-381,-96
,15,2023-10-27 11:10:20.67,354,-431,-1984,80,-13,5,-214,97,-311,58
,16,2023-10-27 11:10:20.68,351,-429,-1988,76,-13,3,-95,277,-372,-91
,17,2023-10-27 11:10:20.69,338,-440,-1995,77,-4,1,-225,84,-309,70
,18,2023-10-27 11:10:20.70,331,-455,-1992,79,-9,3,-98,274,-372,-88
,19,2023-10-27 11:10:20.71,335,-456,-1994,82,-15,10,-229,89,-318,70
,20,2023-10-27 11:10:20.72,336,-454,-2003,83,-17,15,-104,273,-377,-84
,21,2023-10-27 11:10:20.73,331,-454,-2012,78,-13,19,-240,83,-323,78
,22,2023-10-27 11:10:20.74,328,-461,-2005,70,0,25,-110,262,-372,-76
,23,2023-10-27 11:10:20.75,323,-457,-2005,71,-9,27,-248,79,-327,84
,24,2023-10-27 11:10:20.76,326,-461,-2002,68,-20,34,-120,259,-379,-69
,25,2023-10-27 11:10:20.77,345,-453,-1999,60,-3,34,-252,77,-329,87
,26,2023-10-27 11:10:20.78,327,-464,-1992,56,-10,37,-106,257,-363,-75
,27,2023-10-27 11:10:20.79,355,-461,-1989,55,-13,42,-246,75,-321,85
,28,2023-10-27 11:10:20.80,317,-461,-1998,53,-10,39,-105,254,-359,-74
,29,2023-10-27 11:10:20.81,341,-467,-1990,52,-11,40,-244,81,-325,81
,30,2023-10-27 11:10:20.82,319,-455,-1993,49,-9,36,-96,263,-359,-83
,31,2023-10-27 11:10:20.83,339,-452,-1988,46,-6,35,-239,89,-328,75
,32,2023-10-27 11:10:20.84,318,-455,-1994,42,-11,33,-93,262,-355,-84
,33,2023-10-27 11:10:20.85,323,-457,-1988,41,-11,30,-240,85,-325,77
,34,2023-10-27 11:10:20.86,335,-457,-1974,37,0,28,-87,264,-351,-88
,35,2023-10-27 11:10:20.87,327,-456,-1975,35,-6,24,-234,96,-330,69
,36,2023-10-27 11:10:20.88,330,-467,-1986,32,-5,23,-80,268,-348,-94
,37,2023-10-27 11:10:20.89,339,-461,-1989,26,4,20,-233,94,-327,69
,38,2023-10-27 11:10:20.90,333,-456,-1990,25,6,18,-82,260,-342,-89
,39,2023-10-27 11:10:20.91,338,-452,-1977,24,9,14,-232,100,-332,66
,40,2023-10-27 11:10:20.92,334,-452,-1979,19,18,9,-74,268,-342,-97
,41,2023-10-27 11:10:20.93,332,-454,-1987,14,24,3,-229,107,-336,61
,42,2023-10-27 11:10:20.94,327,-452,-1990,8,26,0,-71,269,-340,-99
,43,2023-10-27 11:10:20.95,322,-459,-2000,4,25,0,-225,110,-335,57
,44,2023-10-27 11:10:20.96,320,-454,-1987,4,20,3,-65,262,-327,-98
,45,2023-10-27 11:10:20.97,334,-457,-1984,0,19,3,-223,110,-333,56
,46,2023-10-27 11:10:20.98,323,-452,-1988,-8,21,5,-65,273,-338,-104
,47,2023-10-27 11:10:20.99,343,-445,-1983,-14,24,9,-230,112,-342,59
,48,2023-10-27 11:10:21.00,342,-448,-1982,-19,26,4,-72,259,-331,-93
,49,2023-10-27 11:10:21.01,346,-447,-1979,-21,32,5,-228,109,-337,59
,50,2023-10-27 11:10:21.02,340,-449,-1987,-24,37,3,-70,256,-326,-93
,51,2023-10-27 11:10:21.03,340,-451,-1990,-27,37,2,-229,110,-339,59
,52,2023-10-27 11:10:21.04,343,-457,-1990,-28,40,2,-78,240,-318,-81
,53,2023-10-27 11:10:21.05,348,-460,-1992,-20,41,3,-231,113,-344,59
,54,2023-10-27 11:10:21.06,348,-457,-1991,-14,41,-1,-68,248,-316,-90
,55,2023-10-27 11:10:21.07,347,-452,-1988,-8,43,-3,-227,116,-343,55
,56,2023-10-27 11:10:21.08,355,-448,-1989,-6,49,-5,-74,243,-317,-84
,57,2023-10-27 11:10:21.09,345,-453,-1997,1,49,-10,-231,116,-347,57
,58,2023-10-27 11:10:21.10,339,-452,-2006,5,47,-12,-74,240,-314,-83
,59,2023-10-27 11:10:21.11,345,-455,-1999,12,45,-11,-230,122,-352,54
,60,2023-10-27 11:10:21.12,357,-446,-2002,18,41,-9,-78,238,-316,-80
,61,2023-10-27 11:10:21.13,341,-450,-1993,18,37,-9,-238,117,-355,60
,62,2023-10-27 11:10:21.14,366,-455,-1994,22,37,-9,-83,232,-315,-74
,63,2023-10-27 11:10:21.15,349,-453,-1981,25,36,-9,-234,121,-355,56
,64,2023-10-27 11:10:21.16,356,-460,-1991,28,33,-11,-70,229,-299,-79
,65,2023-10-27 11:10:21.17,348,-473,-1990,37,28,-5,-219,122,-341,48
,66,2023-10-27 11:10:21.18,349,-459,-1994,46,22,-5,-57,222,-279,-82
,67,2023-10-27 11:10:21.19,368,-458,-1988,48,21,0,-214,118,-332,48
,68,2023-10-27 11:10:21.20,367,-446,-1974,46,22,4,-65,216,-281,-75
,69,2023-10-27 11:10:21.21,375,-451,-1968,43,30,3,-223,120,-343,51
,70,2023-10-27 11:10:21.22,360,-443,-1976,34,42,2,-70,213,-283,-71
,71,2023-10-27 11:10:21.23,374,-454,-1991,16,56,5,-218,131,-349,43
,72,2023-10-27 11:10:21.24,365,-447,-1985,8,53,10,-69,217,-286,-74
,73,2023-10-27 11:10:21.25,381,-444,-1990,2,40,15,-216,138,-354,39
,74,2023-10-27 11:10:21.26,366,-448,-2000,-13,39,22,-69,218,-287,-74
,75,2023-10-27 11:10:21.27,365,-439,-2007,-21,29,26,-206,152,-358,27
,76,2023-10-27 11:10:21.28,383,-439,-2012,-31,29,30,-50,225,-275,-87
,77,2023-10-27 11:10:21.29,370,-439,-2007,-42,42,30,-191,158,-349,16
,78,2023-10-27 11:10:21.30,359,-434,-2003,-45,23,35,-42,226,-268,-92
,79,2023-10-27 11:10:21.31,373,-426,-2008,-47,15,34,-178,163,-341,7
,80,2023-10-27 11:10:21.32,355,-429,-2012,-56,26,33,-33,226,-259,-96
,81,2023-10-27 11:10:21.33,364,-422,-2010,-56,14,30,-174,168,-342,3
,82,2023-10-27 11:10:21.34,370,-431,-2002,-51,11,30,-41,213,-254,-86
,83,2023-10-27 11:10:21.35,358,-425,-2003,-46,10,23,-183,161,-344,11
,84,2023-10-27 11:10:21.36,351,-425,-2003,-43,0,19,-52,206,-258,-77
,85,2023-10-27 11:10:21.37,353,-434,-1999,-35,-18,19,-186,156,-342,15
,86,2023-10-27 11:10:21.38,343,-434,-2006,-19,-34,20,-54,196,-250,-71
,87,2023-10-27 11:10:21.39,345,-451,-2010,1,-50,20,-178,164,-342,7
,88,2023-10-27 11:10:21.40,339,-443,-2002,16,-62,20,-59,188,-247,-64
,89,2023-10-27 11:10:21.41,340,-457,-2004,30,-73,21,-192,155,-347,18
,90,2023-10-27 11:10:21.42,326,-456,-2003,46,-75,20,-72,174,-246,-51
,91,2023-10-27 11:10:21.43,330,-453,-2000,60,-81,20,-198,157,-355,20
,92,2023-10-27 11:10:21.44,334,-454,-2004,74,-88,18,-72,178,-250,-53
,93,2023-10-27 11:10:21.45,325,-465,-1990,87,-93,14,-192,154,-346,19
,94,2023-10-27 11:10:21.46,318,-455,-2006,105,-90,10,-77,166,-243,-44
,95,2023-10-27 11:10:21.47,335,-460,-2015,111,-97,5,-196,158,-354,19
,96,2023-10-27 11:10:21.48,362,-468,-2029,108,-67,2,-84,169,-253,-42
,97,2023-10-27 11:10:21.49,299,-462,-2005,90,-47,-9,-198,167,-365,15
,98,2023-10-27 11:10:21.50,325,-461,-1975,95,-48,-13,-80,168,-248,-44
,99,2023-10-27 11:10:21.51,323,-465,-1957,105,-59,-18,-190,169,-359,10
,100,2023-10-27 11:10:21.52,340,-464,-1937,114,-49,-25,-85,164,-249,-39
,101,2023-10-27 11:10:21.53,348,-455,-1917,122,-36,-35,-192,166,-358,13
,102,2023-10-27 11:10:21.54,347,-469,-1924,118,-1,-47,-72,153,-225,-40
,103,2023-10-27 11:10:21.55,369,-470,-1924,115,29,-55,-142,189,-331,-23
,104,2023-10-27 11:10:21.56,374,-480,-1937,108,68,-65,-36,175,-211,-69
,105,2023-10-27 11:10:21.57,374,-478,-1952,99,95,-72,-148,188,-336,-20
,106,2023-10-27 11:10:21.58,362,-489,-1950,86,115,-74,-65,155,-220,-45
,107,2023-10-27 11:10:21.59,371,-493,-1959,76,133,-73,-172,169,-341,1
,108,2023-10-27 11:10:21.60,361,-487,-1975,67,138,-73,-88,136,-224,-24
,109,2023-10-27 11:10:21.61,365,-475,-1968,60,129,-61,-143,202,-345,-29
,110,2023-10-27 11:10:21.62,384,-475,-1970,58,107,-54,-40,177,-217,-68
,111,2023-10-27 11:10:21.63,386,-475,-1995,48,96,-47,-117,223,-340,-53
,112,2023-10-27 11:10:21.64,385,-483,-2002,31,98,-42,-58,167,-225,-54
,113,2023-10-27 11:10:21.65,400,-478,-2010,11,104,-34,-139,218,-357,-39
,114,2023-10-27 11:10:21.66,361,-478,-2001,-2,93,-30,-63,166,-229,-51
,115,2023-10-27 11:10:21.67,388,-472,-1997,-12,68,-17,-122,233,-355,-55
,116,2023-10-27 11:10:21.68,394,-477,-2005,-22,53,-9,-57,167,-224,-55
,117,2023-10-27 11:10:21.69,383,-465,-2005,-36,64,-4,-127,226,-353,-49
,118,2023-10-27 11:10:21.70,382,-459,-2005,-44,32,1,-76,155,-231,-39
,119,2023-10-27 11:10:21.71,395,-464,-2006,-50,16,7,-138,228,-366,-45
,120,2023-10-27 11:10:21.72,386,-461,-2014,-59,20,9,-89,157,-246,-34
,121,2023-10-27 11:10:21.73,351,-471,-2010,-66,11,10,-138,236,-374,-49
,122,2023-10-27 11:10:21.74,367,-474,-2012,-65,-10,16,-88,148,-236,-30
,123,2023-10-27 11:10:21.75,361,-478,-2016,-63,-35,25,-143,222,-365,-39
,124,2023-10-27 11:10:21.76,365,-473,-2006,-53,-59,33,-110,132,-242,-11
,125,2023-10-27 11:10:21.77,358,-478,-2003,-44,-78,38,-162,215,-377,-26
,126,2023-10-27 11:10:21.78,358,-473,-2001,-39,-85,46,-121,124,-245,-1
,127,2023-10-27 11:10:21.79,348,-478,-1999,-40,-84,49,-160,218,-378,-29
,128,2023-10-27 11:10:21.80,344,-475,-1988,-38,-88,52,-119,135,-254,-8
,129,2023-10-27 11:10:21.81,362,-482,-1995,-25,-91,54,-164,217,-381,-26
,130,2023-10-27 11:10:21.82,340,-475,-1983,-15,-97,53,-136,112,-248,12
,131,2023-10-27 11:10:21.83,361,-492,-1983,-8,-86,55,-172,209,-381,-18
,132,2023-10-27 11:10:21.84,338,-492,-1970,10,-82,49,-149,111,-260,19
,133,2023-10-27 11:10:21.85,345,-468,-2032,15,-62,47,-176,217,-393,-20
,134,2023-10-27 11:10:21.86,345,-480,-1988,-10,-34,42,-154,110,-264,22
,135,2023-10-27 11:10:21.87,314,-486,-1970,-10,-23,41,-174,214,-388,-20
,136,2023-10-27 11:10:21.88,333,-473,-1964,8,-46,43,-161,98,-259,31
,137,2023-10-27 11:10:21.89,334,-477,-1956,16,-40,42,-171,221,-392,-25
,138,2023-10-27 11:10:21.90,346,-482,-1952,25,-34,38,-159,101,-260,29
,139,2023-10-27 11:10:21.91,342,-484,-1958,34,-35,33,-162,226,-388,-32
,140,2023-10-27 11:10:21.92,350,-478,-1968,40,-17,29,-156,98,-254,29
,141,2023-10-27 11:10:21.93,353,-484,-1966,46,-7,22,-165,223,-388,-29
,142,2023-10-27 11:10:21.94,338,-479,-1972,51,1,17,-168,91,-259,38
,143,2023-10-27 11:10:21.95,343,-480,-1973,51,14,12,-160,227,-387,-33
,144,2023-10-27 11:10:21.96,357,-471,-1981,46,24,7,-163,92,-255,35
,145,2023-10-27 11:10:21.97,332,-470,-1983,40,31,2,-154,228,-382,-37
,146,2023-10-27 11:10:21.98,345,-464,-1984,37,34,-3,-170,86,-256,42
,147,2023-10-27 11:10:21.99,341,-467,-1987,31,37,-13,-152,231,-383,-39
,148,2023-10-27 11:10:22.00,351,-457,-1982,21,38,-17,-170,87,-257,41
,149,2023-10-27 11:10:22.01,366,-469,-1985,11,44,-25,-147,232,-379,-42
,150,2023-10-27 11:10:22.02,337,-461,-1997,7,45,-29,-178,80,-258,49
,151,2023-10-27 11:10:22.03,350,-472,-1997,-2,41,-33,-155,227,-382,-36
,152,2023-10-27 11:10:22.04,350,-459,-1994,-9,32,-37,-183,77,-260,53
,153,2023-10-27 11:10:22.05,347,-466,-1987,-14,28,-38,-144,234,-378,-45
,154,2023-10-27 11:10:22.06,363,-464,-1979,-18,24,-41,-184,79,-263,52
,155,2023-10-27 11:10:22.07,357,-461,-1986,-24,24,-40,-149,237,-386,-44
,156,2023-10-27 11:10:22.08,356,-465,-1981,-30,23,-41,-188,76,-264,56
,157,2023-10-27 11:10:22.09,364,-470,-1982,-34,25,-40,-142,238,-380,-48
,158,2023-10-27 11:10:22.10,362,-472,-1991,-37,25,-36,-189,73,-262,58
,159,2023-10-27 11:10:22.11,369,-466,-1980,-41,24,-31,-142,240,-382,-49
,160,2023-10-27 11:10:22.12,360,-476,-1979,-47,23,-27,-199,69,-268,65
,161,2023-10-27 11:10:22.13,365,-472,-1977,-49,27,-20,-141,244,-385,-51
,162,2023-10-27 11:10:22.14,360,-467,-1987,-54,25,-13,-195,77,-272,59
,163,2023-10-27 11:10:22.15,363,-462,-1982,-56,24,-5,-128,252,-380,-62
,164,2023-10-27 11:10:22.16,361,-467,-1998,-60,23,4,-192,73,-265,59
,165,2023-10-27 11:10:22.17,362,-471,-2004,-62,21,11,-126,253,-379,-63
,166,2023-10-27 11:10:22.18,366,-465,-2002,-64,17,18,-197,75,-272,61
,167,2023-10-27 11:10:22.19,367,-458,-1996,-63,15,24,-126,251,-377,-62
,168,2023-10-27 11:10:22.20,366,-454,-1991,-63,13,25,-199,74,-273,62
,169,2023-10-27 11:10:22.21,365,-453,-1991,-61,14,28,-111,271,-382,-80
,170,2023-10-27 11:10:22.22,358,-443,-1983,-59,13,28,-191,84,-275,53
,171,2023-10-27 11:10:22.23,376,-440,-1977,-52,14,27,-108,267,-375,-79
,172,2023-10-27 11:10:22.24,386,-452,-1979,-47,16,23,-193,71,-264,61
,173,2023-10-27 11:10:22.25,379,-448,-1991,-40,18,16,-110,259,-369,-74
,174,2023-10-27 11:10:22.26,371,-439,-1983,-29,9,13,-198,76,-274,61
,175,2023-10-27 11:10:22.27,370,-435,-1984,-15,-14,14,-112,257,-369,-72
,176,2023-10-27 11:10:22.28,371,-448,-2000,-10,-6,7,-204,75,-279,64
,177,2023-10-27 11:10:22.29,392,-435,-2002,-6,-11,4,-104,266,-370,-81
,178,2023-10-27 11:10:22.30,366,-436,-2001,-5,-8,-2,-202,74,-276,64
,179,2023-10-27 11:10:22.31,376,-428,-1995,1,-16,-8,-101,261,-362,-80
,180,2023-10-27 11:10:22.32,374,-431,-2006,1,-24,-11,-207,72,-279,67
,181,2023-10-27 11:10:22.33,355,-442,-2018,0,-37,-15,-104,260,-364,-78
,182,2023-10-27 11:10:22.34,351,-440,-2026,4,-55,-11,-208,74,-282,67
,183,2023-10-27 11:10:22.35,356,-443,-2014,6,-68,-10,-96,264,-360,-84
,184,2023-10-27 11:10:22.36,348,-436,-1998,6,-77,-6,-212,68,-280,72
,185,2023-10-27 11:10:22.37,349,-442,-1992,1,-78,-4,-99,259,-358,-80
,186,2023-10-27 11:10:22.38,350,-433,-1985,-3,-75,0,-220,69,-289,75
,187,2023-10-27 11:10:22.39,354,-444,-1983,-7,-73,-2,-104,262,-366,-79
,188,2023-10-27 11:10:22.40,351,-441,-1988,-8,-72,0,-225,73,-298,76
,189,2023-10-27 11:10:22.41,345,-443,-1993,-10,-73,2,-102,265,-367,-81
,190,2023-10-27 11:10:22.42,333,-447,-2010,-10,-74,8,-221,74,-295,73
,191,2023-10-27 11:10:22.43,323,-443,-2010,-9,-77,13,-100,260,-360,-80
,192,2023-10-27 11:10:22.44,334,-453,-2012,-8,-81,18,-233,74,-307,79
,193,2023-10-27 11:10:22.45,337,-450,-2006,-10,-79,25,-104,265,-369,-80
,194,2023-10-27 11:10:22.46,343,-443,-2001,-20,-64,25,-241,75,-316,83
,195,2023-10-27 11:10:22.47,329,-440,-1987,-30,-43,22,-115,257,-372,-71
,196,2023-10-27 11:10:22.48,339,-437,-1986,-36,-34,24,-252,75,-327,88
,197,2023-10-27 11:10:22.49,342,-430,-1985,-38,-30,23,-118,257,-375,-69
,198,2023-10-27 11:10:22.50,331,-436,-1979,-35,-36,26,-250,77,-327,86
,199,2023-10-27 11:10:22.51,335,-440,-1983,-34,-34,26,-111,261,-372,-75
,200,2023-10-27 11:10:22.52,334,-435,-1979,-35,-25,29,-250,82,-332,84
,201,2023-10-27 11:10:22.53,333,-430,-1985,-39,-21,29,-104,265,-369,-80
,202,2023-10-27 11:10:22.54,341,-425,-1991,-46,-6,30,-240,89,-329,75
,203,2023-10-27 11:10:22.55,346,-430,-2007,-49,-5,31,-95,267,-362,-86
,204,2023-10-27 11:10:22.56,330,-449,-2020,-48,-9,37,-246,86,-332,80
,205,2023-10-27 11:10:22.57,331,-439,-2006,-50,-17,44,-100,262,-362,-81
,206,2023-10-27 11:10:22.58,343,-426,-2001,-54,-19,49,-245,92,-337,76
,207,2023-10-27 11:10:22.59,317,-421,-2009,-57,-16,52,-93,268,-361,-87
,208,2023-10-27 11:10:22.60,313,-425,-1999,-61,-21,57,-244,102,-346,71
,209,2023-10-27 11:10:22.61,316,-430,-2013,-64,-20,61,-98,271,-369,-86
,210,2023-10-27 11:10:22.62,329,-416,-2015,-69,-15,60,-257,104,-361,76
,211,2023-10-27 11:10:22.63,325,-418,-2005,-68,-12,61,-118,264,-382,-73
,212,2023-10-27 11:10:22.64,320,-413,-2003,-69,-11,61,-268,108,-376,80
,213,2023-10-27 11:10:22.65,317,-409,-2005,-67,-13,61,-109,271,-380,-81
,214,2023-10-27 11:10:22.66,324,-404,-2004,-67,-12,59,-255,112,-367,71
,215,2023-10-27 11:10:22.67,330,-394,-2006,-63,-11,53,-93,268,-361,-87
,216,2023-10-27 11:10:22.68,325,-388,-1995,-60,-12,51,-251,105,-356,73
,217,2023-10-27 11:10:22.69,313,-397,-2000,-56,-15,41,-95,267,-362,-86
,218,2023-10-27 11:10:22.70,328,-396,-1999,-54,-13,36,-248,116,-364,66
,219,2023-10-27 11:10:22.71,325,-390,-2001,-51,-18,29,-87,269,-356,-91
,220,2023-10-27 11:10:22.72,334,-393,-1998,-46,-17,23,-243,117,-360,63
,221,2023-10-27 11:10:22.73,313,-394,-2001,-43,-12,19,-84,265,-349,-90
,222,2023-10-27 11:10:22.74,322,-394,-1996,-40,-15,17,-240,124,-364,58
,223,2023-10-27 11:10:22.75,305,-399,-2007,-40,-12,12,-78,269,-347,-95
,224,2023-10-27 11:10:22.76,310,-400,-2012,-37,-10,11,-238,126,-364,56
,225,2023-10-27 11:10:22.77,318,-396,-2010,-37,-7,10,-75,265,-340,-95
,226,2023-10-27 11:10:22.78,311,-398,-2009,-32,-13,11,-232,128,-360,52
,227,2023-10-27 11:10:22.79,320,-407,-2011,-28,-17,11,-73,263,-336,-95
,228,2023-10-27 11:10:22.80,327,-400,-2008,-31,-18,13,-232,124,-356,54
,229,2023-10-27 11:10:22.81,321,-401,-2002,-27,-22,13,-76,251,-327,-87
,230,2023-10-27 11:10:22.82,321,-398,-1999,-28,-14,12,-229,123,-352,53
,231,2023-10-27 11:10:22.83,324,-393,-2009,-27,-6,9,-73,251,-324,-89
,232,2023-10-27 11:10:22.84,308,-397,-2000,-28,-6,6,-227,132,-359,47
,233,2023-10-27 11:10:22.85,324,-391,-2015,-24,-8,5,-68,248,-316,-90
,234,2023-10-27 11:10:22.86,311,-391,-2012,-26,-4,6,-220,127,-347,46
,235,2023-10-27 11:10:22.87,318,-396,-2012,-22,-8,6,-69,235,-304,-83
,236,2023-10-27 11:10:22.88,313,-398,-2016,-22,-10,8,-233,123,-356,55
,237,2023-10-27 11:10:22.89,305,-395,-2018,-21,-12,9,-87,230,-317,-71
,238,2023-10-27 11:10:22.90,304,-393,-2012,-22,-13,12,-243,122,-365,60
,239,2023-10-27 11:10:22.91,312,-391,-2013,-25,-3,13,-95,220,-315,-62
,240,2023-10-27 11:10:22.92,312,-376,-2009,-26,-6,11,-250,118,-368,66
,241,2023-10-27 11:10:22.93,322,-382,-2009,-24,-15,6,-95,213,-308,-59
,242,2023-10-27 11:10:22.94,327,-389,-1996,-19,-2,6,-239,123,-362,58
,243,2023-10-27 11:10:22.95,322,-393,-1997,-11,-2,3,-90,213,-303,-61
,244,2023-10-27 11:10:22.96,324,-395,-1984,-2,-3,-1,-234,129,-363,52
,245,2023-10-27 11:10:22.97,331,-397,-2001,1,2,-5,-86,218,-304,-66
,246,2023-10-27 11:10:22.98,326,-380,-1992,8,3,-4,-233,139,-372,47
,247,2023-10-27 11:10:22.99,327,-380,-1998,13,15,-10,-87,218,-305,-65
,248,2023-10-27 11:10:23.00,329,-378,-1988,18,14,-12,-240,136,-376,52
,249,2023-10-27 11:10:23.01,339,-385,-2004,17,14,-14,-102,205,-307,-51
,250,2023-10-27 11:10:23.02,327,-390,-2009,16,22,-16,-239,134,-373,52
,251,2023-10-27 11:10:23.03,330,-388,-2021,16,22,-15,-93,205,-298,-56
,252,2023-10-27 11:10:23.04,317,-387,-2019,12,16,-12,-242,135,-377,53
,253,2023-10-27 11:10:23.05,320,-388,-2017,10,13,-7,-105,196,-301,-45
,254,2023-10-27 11:10:23.06,319,-392,-2013,4,7,-1,-243,137,-380,53
,255,2023-10-27 11:10:23.07,322,-385,-2016,-3,2,5,-110,192,-302,-41
,256,2023-10-27 11:10:23.08,323,-389,-2018,-9,-4,12,-250,138,-388,56
,257,2023-10-27 11:10:23.09,325,-374,-2012,-14,-8,14,-122,177,-299,-27
,258,2023-10-27 11:10:23.10,325,-380,-2014,-20,-12,15,-249,139,-388,55
,259,2023-10-27 11:10:23.11,326,-382,-2014,-21,-13,17,-112,183,-295,-35
,260,2023-10-27 11:10:23.12,325,-386,-2011,-23,-17,17,-240,148,-388,46
,261,2023-10-27 11:10:23.13,339,-385,-2015,-25,-7,20,-118,178,-296,-30
,262,2023-10-27 11:10:23.14,297,-385,-2013,-25,-4,18,-242,139,-381,51
,263,2023-10-27 11:10:23.15,337,-386,-2000,-19,-23,16,-117,171,-288,-27
,264,2023-10-27 11:10:23.16,331,-374,-2007,-18,-23,16,-236,147,-383,44
,265,2023-10-27 11:10:23.17,325,-373,-2005,-14,-17,11,-113,175,-288,-31
,266,2023-10-27 11:10:23.18,317,-378,-2005,-15,-14,10,-235,160,-395,37
,267,2023-10-27 11:10:23.19,321,-372,-2007,-12,-14,8,-118,176,-294,-29
,268,2023-10-27 11:10:23.20,323,-378,-2016,-12,-15,6,-234,158,-392,38
,269,2023-10-27 11:10:23.21,319,-372,-2019,-8,-15,5,-120,164,-284,-22
,270,2023-10-27 11:10:23.22,317,-379,-2018,-4,-15,3,-235,158,-393,38
,271,2023-10-27 11:10:23.23,316,-377,-2009,-5,-15,0,-126,160,-286,-17
,272,2023-10-27 11:10:23.24,319,-361,-2014,-4,-16,-2,-229,167,-396,31
,273,2023-10-27 11:10:23.25,319,-369,-2015,-6,-18,-4,-121,162,-283,-20
,274,2023-10-27 11:10:23.26,317,-387,-2027,-5,-18,-6,-229,165,-394,32
,275,2023-10-27 11:10:23.27,313,-384,-2041,-7,-18,-6,-130,149,-279,-9
,276,2023-10-27 11:10:23.28,302,-389,-2027,-8,-10,-4,-231,165,-396,33
,277,2023-10-27 11:10:23.29,297,-385,-2033,-1,-28,-2,-134,146,-280,-6
,278,2023-10-27 11:10:23.30,302,-382,-2024,2,-36,3,-226,169,-395,28
,279,2023-10-27 11:10:23.31,312,-378,-2025,2,-31,2,-133,145,-278,-6
,280,2023-10-27 11:10:23.32,313,-368,-2023,5,-38,5,-219,174,-393,22
,281,2023-10-27 11:10:23.33,285,-384,-2012,3,-34,5,-125,146,-271,-10
,282,2023-10-27 11:10:23.34,292,-376,-2009,9,-39,7,-210,178,-388,16
,283,2023-10-27 11:10:23.35,302,-379,-2002,12,-44,5,-134,137,-271,-1
,284,2023-10-27 11:10:23.36,295,-370,-2005,14,-43,3,-226,174,-400,26
,285,2023-10-27 11:10:23.37,298,-368,-2001,16,-33,0,-153,128,-281,12
,286,2023-10-27 11:10:23.38,300,-380,-1997,20,-27,-4,-231,175,-406,28
,287,2023-10-27 11:10:23.39,300,-376,-1998,24,-19,-10,-146,130,-276,8
,288,2023-10-27 11:10:23.40,306,-383,-2002,21,-7,-14,-217,181,-398,18
,289,2023-10-27 11:10:23.41,302,-391,-2003,23,0,-16,-141,124,-265,8
,290,2023-10-27 11:10:23.42,289,-393,-2012,24,2,-16,-202,194,-396,4
,291,2023-10-27 11:10:23.43,291,-398,-2023,28,-1,-11,-126,132,-258,-3
,292,2023-10-27 11:10:23.44,291,-395,-2022,31,-6,-9,-182,210,-392,-14
,293,2023-10-27 11:10:23.45,299,-382,-2015,35,-10,-7,-112,136,-248,-12
,294,2023-10-27 11:10:23.46,296,-386,-2012,34,-8,-6,-175,207,-382,-16
,295,2023-10-27 11:10:23.47,282,-389,-2024,29,-6,-7,-124,130,-254,-3
,296,2023-10-27 11:10:23.48,286,-389,-2033,25,-6,-6,-195,196,-391,0
,297,2023-10-27 11:10:23.49,288,-384,-2025,24,-12,-4,-151,114,-265,18
,298,2023-10-27 11:10:23.50,303,-380,-2013,19,-6,-3,-194,202,-396,-4
,299,2023-10-27 11:10:23.51,293,-379,-2009,13,1,-4,-128,123,-251,2
,300,2023-10-27 11:10:23.52,314,-370,-2007,6,11,-8,-159,216,-375,-28
,301,2023-10-27 11:10:23.53,313,-375,-2007,0,25,-16,-119,117,-236,1
,302,2023-10-27 11:10:23.54,316,-369,-2012,-6,36,-23,-172,205,-377,-16
,303,2023-10-27 11:10:23.55,310,-371,-2019,-7,39,-29,-124,104,-228,10
,304,2023-10-27 11:10:23.56,306,-382,-2013,-7,39,-34,-136,219,-355,-41
,305,2023-10-27 11:10:23.57,309,-385,-2009,-1,34,-33,-100,112,-212,-6
,306,2023-10-27 11:10:23.58,296,-401,-1993,8,22,-30,-142,210,-352,-34
,307,2023-10-27 11:10:23.59,292,-405,-2000,18,-5,-24,-129,91,-220,19
,308,2023-10-27 11:10:23.60,315,-402,-2018,24,-2,-19,-139,217,-356,-39
,309,2023-10-27 11:10:23.61,288,-388,-2020,24,8,-19,-122,104,-226,9
,310,2023-10-27 11:10:23.62,306,-380,-2022,24,-13,-17,-149,219,-368,-35
,311,2023-10-27 11:10:23.63,296,-373,-2025,14,-16,-18,-155,93,-248,31
,312,2023-10-27 11:10:23.64,314,-368,-2015,7,-24,-16,-161,220,-381,-29
,313,2023-10-27 11:10:23.65,312,-373,-2004,-5,-26,-17,-149,99,-248,25
,314,2023-10-27 11:10:23.66,324,-379,-1995,-13,-15,-20,-150,226,-376,-38
,315,2023-10-27 11:10:23.67,313,-377,-1985,-16,-10,-24,-157,92,-249,32
,316,2023-10-27 11:10:23.68,311,-372,-1979,-20,-6,-27,-153,231,-384,-39
,317,2023-10-27 11:10:23.69,304,-379,-1999,-32,11,-27,-158,100,-258,29
,318,2023-10-27 11:10:23.70,320,-375,-2005,-46,12,-28,-150,236,-386,-43
,319,2023-10-27 11:10:23.71,303,-381,-2029,-54,12,-26,-161,104,-265,28
,320,2023-10-27 11:10:23.72,288,-373,-2022,-57,7,-23,-146,250,-396,-52
,321,2023-10-27 11:10:23.73,312,-362,-2026,-64,-9,-22,-159,108,-267,25
,322,2023-10-27 11:10:23.74,304,-374,-2028,-72,-3,-17,-120,264,-384,-72
,323,2023-10-27 11:10:23.75,311,-377,-2002,-65,-2,-19,-139,115,-254,12
,324,2023-10-27 11:10:23.76,320,-386,-1985,-49,9,-18,-98,276,-374,-89
,325,2023-10-27 11:10:23.77,312,-378,-2007,-44,13,-17,-119,134,-253,-7
,326,2023-10-27 11:10:23.78,319,-350,-2013,-47,11,-13,-64,316,-380,-126
,327,2023-10-27 11:10:23.79,306,-351,-2015,-39,8,-5,-98,159,-257,-30
,328,2023-10-27 11:10:23.80,312,-336,-2019,-27,13,-13,-43,331,-374,-144
,329,2023-10-27 11:10:23.81,309,-346,-2020,-37,5,-9,-96,162,-258,-33
,330,2023-10-27 11:10:23.82,312,-325,-2021,-47,4,-5,-52,326,-378,-137
,331,2023-10-27 11:10:23.83,308,-335,-2021,-43,5,-8,-120,142,-262,-11
,332,2023-10-27 11:10:23.84,325,-338,-2010,-39,14,-9,-76,305,-381,-114
,333,2023-10-27 11:10:23.85,315,-336,-2001,-31,24,-17,-146,123,-269,11
,334,2023-10-27 11:10:23.86,331,-345,-2011,-19,21,-18,-92,288,-380,-98
,335,2023-10-27 11:10:23.87,319,-335,-2011,-6,21,-24,-177,93,-270,42
,336,2023-10-27 11:10:23.88,305,-337,-2013,13,-6,-24,-144,241,-385,-48
,337,2023-10-27 11:10:23.89,359,-340,-2014,23,-11,-16,-233,46,-279,93
,338,2023-10-27 11:10:23.90,320,-341,-1993,31,34,-23,-176,208,-384,-16
,339,2023-10-27 11:10:23.91,307,-370,-2016,41,37,-24,-244,35,-279,104
,340,2023-10-27 11:10:23.92,330,-355,-2013,47,16,-12,-171,218,-389,-23
,341,2023-10-27 11:10:23.93,315,-351,-2031,44,35,-6,-245,46,-291,99
,342,2023-10-27 11:10:23.94,308,-356,-2020,49,35,2,-171,220,-391,-24
,343,2023-10-27 11:10:23.95,317,-357,-2001,52,28,8,-246,47,-293,99
,344,2023-10-27 11:10:23.96,337,-352,-1991,51,47,11,-162,222,-384,-30
,345,2023-10-27 11:10:23.97,317,-345,-1986,50,52,12,-240,45,-285,97
,346,2023-10-27 11:10:23.98,332,-356,-1990,50,43,15,-150,227,-377,-38
,347,2023-10-27 11:10:23.99,349,-370,-1992,51,57,18,-241,48,-289,96
,348,2023-10-27 11:10:24.00,338,-374,-2006,59,72,22,-155,228,-383,-36
,349,2023-10-27 11:10:24.01,326,-376,-1998,69,73,25,-249,43,-292,103
,350,2023-10-27 11:10:24.02,352,-376,-1992,83,62,29,-153,218,-371,-32
,351,2023-10-27 11:10:24.03,349,-384,-2002,84,84,32,-248,39,-287,104
,352,2023-10-27 11:10:24.04,342,-397,-2025,91,79,37,-155,222,-377,-33
,353,2023-10-27 11:10:24.05,338,-393,-2025,99,60,49,-264,41,-305,111
,354,2023-10-27 11:10:24.06,321,-386,-2028,107,39,58,-157,227,-384,-35
,355,2023-10-27 11:10:24.07,346,-386,-2013,113,25,63,-252,41,-293,105
,356,2023-10-27 11:10:24.08,330,-391,-2017,115,14,68,-140,225,-365,-42
,357,2023-10-27 11:10:24.09,327,-377,-2021,105,8,70,-247,41,-288,103
,358,2023-10-27 11:10:24.10,343,-371,-2028,99,0,67,-139,227,-366,-44
,359,2023-10-27 11:10:24.11,345,-369,-2012,94,-9,68,-263,38,-301,112
,360,2023-10-27 11:10:24.12,346,-374,-2018,92,-18,58,-153,221,-374,-34
,361,2023-10-27 11:10:24.13,346,-373,-2011,86,-17,48,-268,40,-308,114
,362,2023-10-27 11:10:24.14,338,-375,-2010,70,0,32,-134,235,-369,-50
,363,2023-10-27 11:10:24.15,313,-384,-2015,63,-4,21,-240,49,-289,95
,364,2023-10-27 11:10:24.16,320,-387,-2030,64,-26,17,-111,241,-352,-65
,365,2023-10-27 11:10:24.17,348,-394,-2034,73,-38,16,-232,57,-289,87
,366,2023-10-27 11:10:24.18,341,-390,-2019,70,-32,7,-105,246,-351,-70
,367,2023-10-27 11:10:24.19,326,-387,-2002,61,-24,-3,-233,62,-295,85
,368,2023-10-27 11:10:24.20,323,-389,-2005,50,-24,-9,-88,258,-346,-85
,369,2023-10-27 11:10:24.21,333,-408,-2012,41,-20,-15,-187,87,-274,50
,370,2023-10-27 11:10:24.22,324,-411,-2010,44,-29,-12,-37,282,-319,-122
,371,2023-10-27 11:10:24.23,331,-420,-1999,48,-40,-7,-174,91,-265,41
,372,2023-10-27 11:10:24.24,316,-432,-2002,49,-33,-8,-43,266,-309,-111
,373,2023-10-27 11:10:24.25,313,-417,-1995,39,-20,-8,-191,79,-270,56
,374,2023-10-27 11:10:24.26,303,-416,-1996,39,-38,-1,-58,257,-315,-99
,375,2023-10-27 11:10:24.27,306,-423,-2004,25,-26,-1,-196,76,-272,60
,376,2023-10-27 11:10:24.28,316,-411,-2002,22,-37,7,-51,254,-305,-101
,377,2023-10-27 11:10:24.29,291,-401,-2006,8,-35,8,-187,85,-272,51
,378,2023-10-27 11:10:24.30,332,-397,-2001,-6,-37,14,-56,256,-312,-100
,379,2023-10-27 11:10:24.31,323,-395,-1988,-18,-28,13,-207,78,-285,64
,380,2023-10-27 11:10:24.32,322,-398,-1981,-23,-28,10,-50,262,-312,-106
,381,2023-10-27 11:10:24.33,348,-398,-1984,-27,-24,8,-169,109,-278,30
,382,2023-10-27 11:10:24.34,332,-391,-1977,-36,-11,4,-7,289,-296,-141
,383,2023-10-27 11:10:24.35,343,-373,-1987,-39,-3,1,-158,118,-276,20
,384,2023-10-27 11:10:24.36,336,-373,-1986,-49,13,-5,-19,279,-298,-130
,385,2023-10-27 11:10:24.37,343,-369,-1990,-60,32,-14,-184,106,-290,39
,386,2023-10-27 11:10:24.38,333,-373,-2011,-69,41,-22,-37,266,-303,-114
,387,2023-10-27 11:10:24.39,326,-369,-2024,-72,35,-32,-186,105,-291,40
,388,2023-10-27 11:10:24.40,336,-358,-2023,-68,19,-37,-29,263,-292,-117
,389,2023-10-27 11:10:24.41,341,-348,-2026,-60,3,-51,-184,100,-284,42
,390,2023-10-27 11:10:24.42,339,-328,-2028,-47,-15,-71,-33,257,-290,-112
,391,2023-10-27 11:10:24.43,349,-317,-2041,-40,-34,-95,-203,97,-300,53
,392,2023-10-27 11:10:24.44,330,-311,-2049,-40,-61,-118,-54,246,-300,-96
,393,2023-10-27 11:10:24.45,322,-313,-2069,-36,-83,-140,-219,83,-302,68
,394,2023-10-27 11:10:24.46,321,-306,-2074,-31,-105,-170,-69,223,-292,-77
,395,2023-10-27 11:10:24.47,343,-332,-2021,-14,-119,-207,-239,69,-308,85
,396,2023-10-27 11:10:24.48,326,-292,-2080,-1,-114,-245,-85,209,-294,-62
,397,2023-10-27 11:10:24.49,322,-292,-2103,-10,-129,-280,-257,60,-317,98
,398,2023-10-27 11:10:24.50,312,-315,-2064,-22,-142,-316,-106,193,-299,-43
,399,2023-10-27 11:10:24.51,296,-327,-2067,-20,-149,-349,-270,50,-320,110
,400,2023-10-27 11:10:24.52,281,-350,-2073,-2,-186,-370,-113,190,-303,-38
,401,2023-10-27 11:10:24.53,275,-362,-2054,10,-205,-387,-276,56,-332,110
,402,2023-10-27 11:10:24.54,255,-396,-2038,19,-221,-390,-118,180,-298,-31
,403,2023-10-27 11:10:24.55,234,-454,-2038,26,-232,-374,-279,45,-324,117
,404,2023-10-27 11:10:24.56,236,-506,-2026,36,-230,-335,-126,176,-302,-25
,405,2023-10-27 11:10:24.57,227,-554,-1990,58,-245,-273,-284,57,-341,113
,406,2023-10-27 11:10:24.58,235,-543,-1950,92,-251,-200,-120,185,-305,-32
,407,2023-10-27 11:10:24.59,263,-529,-1904,116,-235,-131,-265,68,-333,98
,408,2023-10-27 11:10:24.60,259,-517,-1882,119,-194,-62,-105,190,-295,-42
,409,2023-10-27 11:10:24.61,265,-489,-1879,112,-143,1,-263,80,-343,91
,410,2023-10-27 11:10:24.62,287,-492,-1903,93,-75,68,-113,190,-303,-38
,411,2023-10-27 11:10:24.63,256,-497,-1923,71,-17,131,-268,84,-352,92
,412,2023-10-27 11:10:24.64,266,-516,-1958,44,41,198,-101,196,-297,-47
,413,2023-10-27 11:10:24.65,262,-525,-1966,19,94,257,-246,103,-349,71
,414,2023-10-27 11:10:24.66,271,-506,-1975,8,137,310,-89,205,-294,-58
,415,2023-10-27 11:10:24.67,266,-476,-1991,4,164,356,-240,113,-353,63
,416,2023-10-27 11:10:24.68,276,-449,-1984,3,175,389,-79,206,-285,-63
,417,2023-10-27 11:10:24.69,256,-418,-1978,17,166,414,-229,121,-350,54
,418,2023-10-27 11:10:24.70,277,-398,-1993,32,157,428,-74,215,-289,-70
,419,2023-10-27 11:10:24.71,279,-375,-2012,46,130,427,-220,135,-355,42
,420,2023-10-27 11:10:24.72,296,-333,-2030,39,140,409,-69,218,-287,-74
,421,2023-10-27 11:10:24.73,281,-310,-2042,31,134,379,-216,140,-356,38
,422,2023-10-27 11:10:24.74,293,-304,-2059,21,131,339,-80,213,-293,-66
,423,2023-10-27 11:10:24.75,278,-286,-2074,10,125,291,-225,145,-370,40
,424,2023-10-27 11:10:24.76,285,-291,-2071,14,85,239,-76,214,-290,-69
,425,2023-10-27 11:10:24.77,280,-285,-2076,20,48,186,-217,150,-367,33
,426,2023-10-27 11:10:24.78,279,-294,-2063,32,10,131,-82,208,-290,-63
,427,2023-10-27 11:10:24.79,283,-300,-2049,44,-28,78,-228,148,-376,40
,428,2023-10-27 11:10:24.80,276,-307,-2036,63,-57,25,-89,194,-283,-52
,429,2023-10-27 11:10:24.81,274,-314,-2027,84,-81,-26,-229,139,-368,45
,430,2023-10-27 11:10:24.82,291,-328,-2014,107,-100,-72,-101,185,-286,-42
,431,2023-10-27 11:10:24.83,278,-343,-1998,128,-111,-114,-242,144,-386,49
,432,2023-10-27 11:10:24.84,279,-365,-1999,142,-110,-152,-114,184,-298,-35
,433,2023-10-27 11:10:24.85,263,-382,-2008,151,-109,-182,-247,140,-387,53
,434,2023-10-27 11:10:24.86,281,-381,-2014,147,-93,-204,-116,174,-290,-29
,435,2023-10-27 11:10:24.87,261,-386,-2028,132,-92,-220,-249,137,-386,56
,436,2023-10-27 11:10:24.88,251,-400,-2046,110,-87,-228,-129,161,-290,-16
,437,2023-10-27 11:10:24.89,250,-426,-2041,80,-85,-224,-260,126,-386,67
,438,2023-10-27 11:10:24.90,259,-452,-2033,55,-68,-216,-140,146,-286,-3
,439,2023-10-27 11:10:24.91,236,-479,-2004,47,-66,-198,-262,131,-393,65
,440,2023-10-27 11:10:24.92,237,-477,-1982,42,-65,-176,-147,150,-297,-1
,441,2023-10-27 11:10:24.93,244,-478,-1969,42,-77,-149,-259,132,-391,63
,442,2023-10-27 11:10:24.94,243,-476,-1975,35,-63,-124,-138,138,-276,0
,443,2023-10-27 11:10:24.95,265,-469,-1975,25,-48,-100,-243,135,-378,54
,444,2023-10-27 11:10:24.96,265,-478,-1976,12,-25,-73,-123,141,-264,-9
,445,2023-10-27 11:10:24.97,266,-479,-1976,4,5,-49,-232,144,-376,44
,446,2023-10-27 11:10:24.98,261,-492,-1963,-3,30,-24,-128,141,-269,-6
,447,2023-10-27 11:10:24.99,272,-490,-1972,-6,61,3,-226,152,-378,37
,448,2023-10-27 11:10:25.00,277,-485,-1968,-17,91,29,-120,142,-262,-11
,449,2023-10-27 11:10:25.01,279,-460,-1984,-31,120,52,-223,156,-379,33
,450,2023-10-27 11:10:25.02,287,-451,-1994,-52,141,70,-130,130,-260,0
,451,2023-10-27 11:10:25.03,278,-445,-2004,-64,139,93,-230,147,-377,41
,452,2023-10-27 11:10:25.04,277,-440,-2010,-70,137,114,-144,128,-272,8
,453,2023-10-27 11:10:25.05,274,-435,-1996,-67,128,130,-233,168,-401,32
,454,2023-10-27 11:10:25.06,255,-438,-1980,-60,95,148,-150,135,-285,7
,455,2023-10-27 11:10:25.07,288,-441,-2009,-46,53,168,-225,170,-395,27
,456,2023-10-27 11:10:25.08,275,-437,-2028,-51,69,176,-140,128,-268,6
,457,2023-10-27 11:10:25.09,296,-425,-2028,-60,75,186,-212,172,-384,20
,458,2023-10-27 11:10:25.10,295,-431,-2024,-65,68,198,-132,132,-264,0
,459,2023-10-27 11:10:25.11,305,-429,-2026,-70,66,204,-216,177,-393,19
,460,2023-10-27 11:10:25.12,298,-423,-2021,-72,58,211,-153,115,-268,19
,461,2023-10-27 11:10:25.13,290,-411,-2024,-64,32,215,-224,173,-397,25
,462,2023-10-27 11:10:25.14,319,-402,-2021,-66,42,210,-159,118,-277,20
,463,2023-10-27 11:10:25.15,275,-393,-2031,-66,39,205,-228,181,-409,23
,464,2023-10-27 11:10:25.16,279,-391,-2032,-66,25,193,-165,115,-280,25
,465,2023-10-27 11:10:25.17,280,-393,-2047,-55,2,185,-228,187,-415,20
,466,2023-10-27 11:10:25.18,274,-394,-2043,-39,-28,171,-161,117,-278,22
,467,2023-10-27 11:10:25.19,280,-377,-2030,-23,-54,160,-217,187,-404,15
,468,2023-10-27 11:10:25.20,289,-372,-1998,-14,-60,143,-162,116,-278,23
,469,2023-10-27 11:10:25.21,293,-378,-1993,-12,-44,118,-231,191,-422,20
,470,2023-10-27 11:10:25.22,285,-375,-1969,-15,-21,91,-190,109,-299,40
,471,2023-10-27 11:10:25.23,312,-381,-1965,-7,-3,64,-232,198,-430,17
,472,2023-10-27 11:10:25.24,276,-368,-1962,3,13,39,-181,110,-291,35
,473,2023-10-27 11:10:25.25,294,-355,-1970,4,16,15,-230,191,-421,19
,474,2023-10-27 11:10:25.26,282,-375,-2001,-6,31,-6,-198,94,-292,52
,475,2023-10-27 11:10:25.27,263,-373,-2016,-13,35,-20,-236,196,-432,20
,476,2023-10-27 11:10:25.28,275,-377,-2015,-23,38,-30,-196,102,-298,47
,477,2023-10-27 11:10:25.29,278,-371,-2021,-42,45,-35,-210,211,-421,0
,478,2023-10-27 11:10:25.30,278,-370,-2018,-65,52,-42,-177,105,-282,36
,479,2023-10-27 11:10:25.31,287,-376,-2020,-81,50,-43,-205,211,-416,-3
,480,2023-10-27 11:10:25.32,295,-381,-2015,-91,42,-40,-186,98,-284,44
,481,2023-10-27 11:10:25.33,288,-406,-2015,-90,33,-32,-201,208,-409,-3
,482,2023-10-27 11:10:25.34,293,-419,-2022,-84,21,-29,-189,89,-278,50
,483,2023-10-27 11:10:25.35,301,-409,-2012,-68,20,-21,-199,207,-406,-4
,484,2023-10-27 11:10:25.36,296,-419,-2002,-56,22,-8,-185,86,-271,49
,485,2023-10-27 11:10:25.37,297,-414,-2001,-40,23,3,-199,208,-407,-4
,486,2023-10-27 11:10:25.38,292,-404,-2014,-27,26,8,-196,82,-278,57
,487,2023-10-27 11:10:25.39,293,-394,-2029,-20,26,19,-193,207,-400,-7
,488,2023-10-27 11:10:25.40,276,-379,-2048,-25,6,48,-196,74,-270,61
,489,2023-10-27 11:10:25.41,282,-368,-2022,-30,-7,60,-201,203,-404,-1
,490,2023-10-27 11:10:25.42,271,-382,-2007,-35,-13,69,-213,67,-280,73
,491,2023-10-27 11:10:25.43,275,-382,-1996,-37,-8,78,-200,201,-401,0
,492,2023-10-27 11:10:25.44,284,-382,-2002,-34,-5,85,-205,65,-270,70
,493,2023-10-27 11:10:25.45,284,-376,-2013,-29,-3,87,-188,208,-396,-10
,494,2023-10-27 11:10:25.46,282,-376,-2017,-26,-8,95,-210,72,-282,69
,495,2023-10-27 11:10:25.47,278,-361,-2018,-27,-13,98,-206,212,-418,-3
,496,2023-10-27 11:10:25.48,272,-364,-2034,-24,-18,98,-232,66,-298,83
,497,2023-10-27 11:10:25.49,269,-358,-2033,-26,-29,100,-213,195,-408,9
,498,2023-10-27 11:10:25.50,260,-341,-2040,-28,-36,98,-236,50,-286,93
,499,2023-10-27 11:10:25.51,260,-335,-2049,-37,-51,88,-208,205,-413,1
,500,2023-10-27 11:10:25.52,271,-320,-2048,-48,-64,85,-237,65,-302,86
,501,2023-10-27 11:10:25.53,269,-321,-2045,-51,-79,74,-199,214,-413,-7
,502,2023-10-27 11:10:25.54,265,-322,-2035,-49,-86,60,-238,59,-297,89
,503,2023-10-27 11:10:25.55,259,-329,-2038,-43,-100,45,-200,219,-419,-9
,504,2023-10-27 11:10:25.56,273,-341,-2029,-40,-102,31,-244,64,-308,90
,505,2023-10-27 11:10:25.57,263,-335,-2024,-38,-96,15,-192,225,-417,-16
,506,2023-10-27 11:10:25.58,277,-344,-2022,-27,-93,3,-248,57,-305,95
,507,2023-10-27 11:10:25.59,273,-348,-2020,-15,-78,-16,-200,217,-417,-8
,508,2023-10-27 11:10:25.60,255,-350,-2003,-6,-75,-26,-250,47,-297,101
,509,2023-10-27 11:10:25.61,251,-356,-2010,-5,-59,-35,-190,209,-399,-9
,510,2023-10-27 11:10:25.62,235,-362,-2030,3,-57,-41,-262,19,-281,121
,511,2023-10-27 11:10:25.63,248,-351,-2016,22,-74,-41,-220,161,-381,29
,512,2023-10-27 11:10:25.64,252,-364,-2007,25,-60,-42,-289,-18,-271,153
,513,2023-10-27 11:10:25.65,259,-376,-2007,30,-45,-41,-226,142,-368,42
,514,2023-10-27 11:10:25.66,249,-380,-1997,35,-22,-44,-287,-20,-267,153
,515,2023-10-27 11:10:25.67,252,-379,-1987,49,-15,-45,-199,157,-356,21
,516,2023-10-27 11:10:25.68,258,-374,-1991,62,-12,-40,-270,3,-273,133
,517,2023-10-27 11:10:25.69,243,-390,-2004,68,5,-38,-186,185,-371,0
,518,2023-10-27 11:10:25.70,264,-397,-1988,71,22,-34,-266,14,-280,126
,519,2023-10-27 11:10:25.71,267,-392,-1990,71,43,-27,-181,193,-374,-6
,520,2023-10-27 11:10:25.72,269,-384,-1989,70,68,-26,-261,21,-282,120
,521,2023-10-27 11:10:25.73,275,-393,-1987,65,87,-21,-162,205,-367,-21
,522,2023-10-27 11:10:25.74,281,-379,-1990,58,107,-20,-246,35,-281,105
,523,2023-10-27 11:10:25.75,259,-387,-2006,45,121,-14,-155,223,-378,-34
,524,2023-10-27 11:10:25.76,269,-368,-2012,32,121,-8,-252,41,-293,105
,525,2023-10-27 11:10:25.77,264,-362,-2026,17,127,-1,-152,219,-371,-33
,526,2023-10-27 11:10:25.78,272,-351,-2024,3,114,1,-261,37,-298,112
,527,2023-10-27 11:10:25.79,264,-346,-2017,-6,94,5,-162,224,-386,-31
,528,2023-10-27 11:10:25.80,280,-346,-2021,1,53,9,-266,46,-312,110
,529,2023-10-27 11:10:25.81,289,-346,-2026,-6,51,11,-162,232,-394,-35
,530,2023-10-27 11:10:25.82,297,-365,-2038,-11,53,7,-273,47,-320,113
,531,2023-10-27 11:10:25.83,265,-375,-2038,-18,56,5,-160,224,-384,-32
,532,2023-10-27 11:10:25.84,279,-381,-2031,-13,35,10,-273,42,-315,115
,533,2023-10-27 11:10:25.85,298,-377,-2023,8,17,16,-157,230,-387,-36
,534,2023-10-27 11:10:25.86,275,-377,-2018,20,18,17,-267,51,-318,108
,535,2023-10-27 11:10:25.87,270,-380,-2025,26,10,20,-133,242,-375,-54
,536,2023-10-27 11:10:25.88,267,-375,-2033,23,2,25,-261,52,-313,104
,537,2023-10-27 11:10:25.89,270,-363,-2043,24,-11,31,-140,238,-378,-49
,538,2023-10-27 11:10:25.90,281,-369,-2026,26,-20,39,-282,40,-322,121
,539,2023-10-27 11:10:25.91,285,-366,-2010,24,-12,37,-153,218,-371,-32
,540,2023-10-27 11:10:25.92,281,-375,-2011,25,-2,38,-274,36,-310,119
,541,2023-10-27 11:10:25.93,280,-375,-2005,21,7,36,-131,229,-360,-49
,542,2023-10-27 11:10:25.94,282,-365,-2006,12,13,34,-269,45,-314,112
,543,2023-10-27 11:10:25.95,291,-362,-2012,5,15,36,-136,223,-359,-43
,544,2023-10-27 11:10:25.96,273,-361,-2032,3,19,35,-276,39,-315,118
,545,2023-10-27 11:10:25.97,271,-366,-2038,-7,13,32,-140,224,-364,-42
,546,2023-10-27 11:10:25.98,270,-369,-2048,-16,4,32,-282,52,-334,115
,547,2023-10-27 11:10:25.99,274,-365,-2043,-23,-5,37,-141,233,-374,-46
,548,2023-10-27 11:10:26.00,258,-356,-2034,-27,-10,38,-286,54,-340,116
,549,2023-10-27 11:10:26.01,264,-363,-2026,-40,-12,34,-148,232,-380,-42
,550,2023-10-27 11:10:26.02,263,-357,-2027,-49,-17,33,-290,50,-340,120
,551,2023-10-27 11:10:26.03,263,-358,-2029,-54,-26,34,-139,221,-360,-41
,552,2023-10-27 11:10:26.04,268,-364,-2022,-56,-37,32,-283,60,-343,111
,553,2023-10-27 11:10:26.05,271,-374,-2015,-44,-40,32,-142,239,-381,-48
,554,2023-10-27 11:10:26.06,269,-377,-1988,-31,-37,32,-292,64,-356,114
,555,2023-10-27 11:10:26.07,267,-370,-2002,-22,-26,27,-148,219,-367,-35
,556,2023-10-27 11:10:26.08,277,-370,-1996,-19,-22,26,-295,58,-353,118
,557,2023-10-27 11:10:26.09,268,-373,-1998,-13,-13,25,-144,225,-369,-40
,558,2023-10-27 11:10:26.10,267,-372,-2006,4,-4,25,-291,71,-362,110
,559,2023-10-27 11:10:26.11,269,-387,-2004,16,-1,25,-141,229,-370,-44
,560,2023-10-27 11:10:26.12,269,-390,-2013,26,4,24,-296,65,-361,115
,561,2023-10-27 11:10:26.13,277,-375,-2009,38,14,24,-146,218,-364,-36
,562,2023-10-27 11:10:26.14,284,-369,-2011,45,23,21,-297,69,-366,114
,563,2023-10-27 11:10:26.15,272,-363,-2031,48,32,18,-138,227,-365,-44
,564,2023-10-27 11:10:26.16,284,-360,-2025,44,38,12,-284,82,-366,101
,565,2023-10-27 11:10:26.17,276,-372,-2020,40,42,14,-123,232,-355,-54
,566,2023-10-27 11:10:26.18,286,-386,-2003,43,56,14,-282,81,-363,100
,567,2023-10-27 11:10:26.19,291,-397,-1992,42,74,17,-140,218,-358,-39
,568,2023-10-27 11:10:26.20,289,-398,-1990,40,86,18,-301,75,-376,113
,569,2023-10-27 11:10:26.21,282,-382,-1981,43,84,22,-141,216,-357,-37
,570,2023-10-27 11:10:26.22,280,-366,-1990,53,61,26,-294,77,-371,108
,571,2023-10-27 11:10:26.23,286,-380,-2004,61,41,32,-140,211,-351,-35
,572,2023-10-27 11:10:26.24,285,-372,-2013,59,43,33,-293,78,-371,107
,573,2023-10-27 11:10:26.25,281,-380,-2018,52,60,37,-149,204,-353,-27
,574,2023-10-27 11:10:26.26,260,-382,-2026,46,45,40,-301,78,-379,111
,575,2023-10-27 11:10:26.27,285,-386,-2030,45,27,48,-139,206,-345,-33
,576,2023-10-27 11:10:26.28,269,-383,-2014,44,48,48,-286,97,-383,94
,577,2023-10-27 11:10:26.29,277,-409,-2012,50,34,56,-137,220,-357,-41
,578,2023-10-27 11:10:26.30,277,-422,-2012,51,38,60,-287,96,-383,95
,579,2023-10-27 11:10:26.31,288,-412,-2013,56,49,65,-143,192,-335,-24
,580,2023-10-27 11:10:26.32,274,-415,-2018,71,38,70,-292,94,-386,99
,581,2023-10-27 11:10:26.33,292,-397,-2017,83,35,75,-132,211,-343,-39
,582,2023-10-27 11:10:26.34,278,-392,-2021,86,36,71,-272,112,-384,80
,583,2023-10-27 11:10:26.35,279,-385,-2031,84,37,72,-115,213,-328,-49
,584,2023-10-27 11:10:26.36,272,-380,-2026,73,30,67,-265,119,-384,73
,585,2023-10-27 11:10:26.37,274,-358,-2037,62,19,64,-110,223,-333,-56
,586,2023-10-27 11:10:26.38,277,-360,-2036,48,4,53,-251,127,-378,62
,587,2023-10-27 11:10:26.39,305,-373,-2041,28,18,44,-102,209,-311,-53
,588,2023-10-27 11:10:26.40,307,-369,-2020,14,34,33,-264,108,-372,78
,589,2023-10-27 11:10:26.41,297,-370,-2004,3,42,21,-125,191,-316,-33
,590,2023-10-27 11:10:26.42,310,-364,-2015,-2,37,3,-287,92,-379,97
,591,2023-10-27 11:10:26.43,289,-367,-2010,-10,35,-8,-153,162,-315,-4
,592,2023-10-27 11:10:26.44,308,-370,-2026,-13,35,-15,-310,60,-370,125
,593,2023-10-27 11:10:26.45,318,-376,-2017,-16,25,-19,-178,118,-296,30
,594,2023-10-27 11:10:26.46,311,-372,-2009,-16,11,-25,-355,16,-371,169
,595,2023-10-27 11:10:26.47,336,-372,-1994,-23,22,-32,-223,85,-308,69
,596,2023-10-27 11:10:26.48,311,-377,-1987,-32,42,-42,-363,26,-389,168
,597,2023-10-27 11:10:26.49,307,-375,-1991,-30,20,-43,-201,113,-314,44
,598,2023-10-27 11:10:26.50,338,-383,-1993,-35,29,-46,-327,77,-404,125
,599,2023-10-27 11:10:26.51,324,-369,-1995,-35,24,-46,-170,156,-326,7
,600,2023-10-27 11:10:26.52,322,-370,-1996,-31,5,-46,-299,117,-416,91
,601,2023-10-27 11:10:26.53,371,-371,-1997,-39,23,-45,-146,182,-328,-18
,602,2023-10-27 11:10:26.54,317,-376,-1991,-40,15,-46,-252,154,-406,49
,603,2023-10-27 11:10:26.55,325,-394,-1988,-44,20,-44,-105,206,-311,-50
,604,2023-10-27 11:10:26.56,344,-393,-1998,-40,22,-40,-233,174,-407,29
,605,2023-10-27 11:10:26.57,321,-397,-2004,-28,25,-36,-100,215,-315,-57
,606,2023-10-27 11:10:26.58,314,-404,-2003,-8,17,-31,-220,180,-400,20
,607,2023-10-27 11:10:26.59,327,-411,-2013,-3,12,-19,-91,206,-297,-57
,608,2023-10-27 11:10:26.60,291,-404,-2027,2,-4,-8,-206,186,-392,10
,609,2023-10-27 11:10:26.61,298,-413,-2019,25,-43,9,-85,212,-297,-63
,610,2023-10-27 11:10:26.62,290,-417,-2031,48,-63,21,-216,186,-402,15
,611,2023-10-27 11:10:26.63,281,-417,-2020,65,-85,34,-102,194,-296,-46
,612,2023-10-27 11:10:26.64,299,-408,-2023,74,-93,48,-215,178,-393,18
,613,2023-10-27 11:10:26.65,291,-401,-2029,70,-88,50,-105,192,-297,-43
,614,2023-10-27 11:10:26.66,277,-393,-2019,65,-93,56,-218,184,-402,17
,615,2023-10-27 11:10:26.67,275,-387,-2028,60,-95,62,-112,189,-301,-38
,616,2023-10-27 11:10:26.68,296,-374,-2012,53,-88,61,-225,185,-410,20
,617,2023-10-27 11:10:26.69,281,-383,-2015,43,-74,57,-118,180,-298,-31
,618,2023-10-27 11:10:26.70,301,-377,-2021,30,-56,52,-240,171,-411,34
,619,2023-10-27 11:10:26.71,283,-377,-2028,15,-32,45,-132,166,-298,-17
,620,2023-10-27 11:10:26.72,254,-379,-2027,4,-35,43,-243,168,-411,37
,621,2023-10-27 11:10:26.73,266,-369,-2027,-1,-40,42,-146,158,-304,-6
,622,2023-10-27 11:10:26.74,261,-388,-2041,-7,-28,42,-247,181,-428,33
,623,2023-10-27 11:10:26.75,240,-389,-2059,-20,-30,44,-142,165,-307,-11
,624,2023-10-27 11:10:26.76,255,-379,-2028,-25,-42,51,-235,189,-424,23
,625,2023-10-27 11:10:26.77,251,-375,-2011,-30,-46,49,-139,155,-294,-8
,626,2023-10-27 11:10:26.78,244,-372,-1999,-32,-50,52,-244,169,-413,37
,627,2023-10-27 11:10:26.79,259,-371,-1981,-39,-50,54,-166,134,-300,16
,628,2023-10-27 11:10:26.80,261,-360,-1967,-47,-29,46,-260,176,-436,42
,629,2023-10-27 11:10:26.81,238,-365,-1983,-41,-33,42,-163,140,-303,11
,630,2023-10-27 11:10:26.82,273,-374,-1992,-42,-15,39,-241,169,-410,36
,631,2023-10-27 11:10:26.83,232,-391,-2000,-41,-10,32,-174,115,-289,29
,632,2023-10-27 11:10:26.84,226,-378,-2003,-21,-37,33,-268,156,-424,56
,633,2023-10-27 11:10:26.85,251,-362,-2016,-13,-40,30,-192,101,-293,45
,634,2023-10-27 11:10:26.86,244,-364,-2027,-12,-47,30,-267,142,-409,62
,635,2023-10-27 11:10:26.87,251,-381,-2046,-11,-44,26,-199,87,-286,56
,636,2023-10-27 11:10:26.88,246,-397,-2060,-18,-29,25,-270,149,-419,60
,637,2023-10-27 11:10:26.89,224,-395,-2057,-25,-31,31,-196,96,-292,50
,638,2023-10-27 11:10:26.90,256,-386,-2060,-24,-26,39,-257,154,-411,51
,639,2023-10-27 11:10:26.91,246,-389,-2060,-24,-25,39,-200,83,-283,58
,640,2023-10-27 11:10:26.92,233,-391,-2062,-30,-16,49,-276,150,-426,63
,641,2023-10-27 11:10:26.93,256,-387,-2046,-35,-19,57,-216,81,-297,67
,642,2023-10-27 11:10:26.94,246,-385,-2012,-39,-7,66,-263,151,-414,56
,643,2023-10-27 11:10:26.95,261,-388,-1998,-38,8,68,-204,76,-280,64
,644,2023-10-27 11:10:26.96,259,-376,-1961,-30,18,72,-255,165,-420,45
,645,2023-10-27 11:10:26.97,278,-372,-1945,-25,47,74,-199,89,-288,55
,646,2023-10-27 11:10:26.98,310,-360,-1942,-24,78,63,-227,183,-410,22
,647,2023-10-27 11:10:26.99,302,-344,-1952,-17,103,50,-185,94,-279,45
,648,2023-10-27 11:10:27.00,297,-332,-1967,-12,123,35,-223,186,-409,18
,649,2023-10-27 11:10:27.01,286,-322,-1991,-9,128,23,-190,89,-279,50
,650,2023-10-27 11:10:27.02,282,-346,-2011,-7,127,18,-219,189,-408,15
,651,2023-10-27 11:10:27.03,271,-378,-2013,2,113,15,-191,89,-280,51
,652,2023-10-27 11:10:27.04,266,-379,-2020,21,99,21,-224,192,-416,16
,653,2023-10-27 11:10:27.05,271,-365,-2017,31,81,19,-212,82,-294,65
,654,2023-10-27 11:10:27.06,282,-365,-2016,37,62,20,-243,177,-420,33
,655,2023-10-27 11:10:27.07,294,-368,-2036,49,34,22,-230,62,-292,84
,656,2023-10-27 11:10:27.08,294,-366,-2056,57,23,20,-246,171,-417,37
,657,2023-10-27 11:10:27.09,288,-339,-2049,55,14,18,-231,52,-283,89
,658,2023-10-27 11:10:27.10,302,-337,-2047,35,31,13,-236,167,-403,34
,659,2023-10-27 11:10:27.11,292,-342,-2036,27,15,8,-247,34,-281,106
,660,2023-10-27 11:10:27.12,291,-351,-2023,17,15,5,-264,152,-416,56
,661,2023-10-27 11:10:27.13,288,-340,-2026,14,0,1,-271,22,-293,124
,662,2023-10-27 11:10:27.14,303,-345,-1999,6,11,-1,-248,176,-424,36
,663,2023-10-27 11:10:27.15,292,-365,-2011,6,6,-1,-229,66,-295,81
,664,2023-10-27 11:10:27.16,313,-366,-2027,10,-3,1,-208,224,-432,-8
,665,2023-10-27 11:10:27.17,291,-365,-2025,8,13,1,-210,88,-298,61
,666,2023-10-27 11:10:27.18,297,-353,-2019,-1,33,-1,-196,228,-424,-16
,667,2023-10-27 11:10:27.19,302,-355,-2006,-7,42,2,-215,82,-297,66
,668,2023-10-27 11:10:27.20,311,-369,-2029,-2,47,2,-186,237,-423,-25
,669,2023-10-27 11:10:27.21,288,-391,-2030,1,64,5,-200,92,-292,54
,670,2023-10-27 11:10:27.22,292,-376,-2015,6,52,10,-166,248,-414,-41
,671,2023-10-27 11:10:27.23,290,-381,-2011,23,19,21,-194,89,-283,52
,672,2023-10-27 11:10:27.24,263,-381,-1997,37,7,24,-167,234,-401,-33
,673,2023-10-27 11:10:27.25,262,-385,-1985,67,-27,32,-212,68,-280,72
,674,2023-10-27 11:10:27.26,272,-386,-1991,86,-44,36,-187,223,-410,-18
,675,2023-10-27 11:10:27.27,274,-383,-2012,96,-47,34,-233,60,-293,86
,676,2023-10-27 11:10:27.28,254,-389,-2016,99,-61,35,-208,209,-417,0
,677,2023-10-27 11:10:27.29,245,-376,-2025,103,-77,40,-260,43,-303,108
,678,2023-10-27 11:10:27.30,301,-371,-2068,92,-62,40,-222,194,-416,14
,679,2023-10-27 11:10:27.31,266,-391,-2060,54,-20,25,-263,38,-301,112
,680,2023-10-27 11:10:27.32,227,-380,-2039,23,5,21,-209,208,-417,0
,681,2023-10-27 11:10:27.33,249,-389,-2042,17,-18,22,-257,46,-303,105
,682,2023-10-27 11:10:27.34,247,-391,-2038,9,-18,23,-191,215,-406,-12
,683,2023-10-27 11:10:27.35,262,-391,-2017,5,-23,22,-245,45,-290,100
,684,2023-10-27 11:10:27.36,255,-391,-2004,-1,-25,23,-186,217,-403,-15
,685,2023-10-27 11:10:27.37,267,-392,-1998,-5,-12,23,-254,50,-304,102
,686,2023-10-27 11:10:27.38,266,-385,-1981,-11,6,17,-196,224,-420,-14
,687,2023-10-27 11:10:27.39,263,-388,-1977,-9,19,14,-269,46,-315,111
,688,2023-10-27 11:10:27.40,279,-398,-1979,-6,31,11,-200,217,-417,-8
,689,2023-10-27 11:10:27.41,291,-393,-1983,-4,51,9,-273,40,-313,116
,690,2023-10-27 11:10:27.42,286,-394,-2008,0,63,6,-197,220,-417,-11
,691,2023-10-27 11:10:27.43,297,-381,-1993,2,73,4,-270,52,-322,109
,692,2023-10-27 11:10:27.44,296,-387,-2004,-2,84,2,-175,240,-415,-32
,693,2023-10-27 11:10:27.45,288,-380,-2008,1,84,1,-235,60,-295,87
,694,2023-10-27 11:10:27.46,290,-389,-2006,1,81,3,-139,242,-381,-51
,695,2023-10-27 11:10:27.47,281,-387,-2018,9,67,13,-227,56,-283,85
,696,2023-10-27 11:10:27.48,296,-386,-2007,10,53,16,-145,239,-384,-47
,697,2023-10-27 11:10:27.49,293,-390,-2005,12,47,21,-242,56,-298,93
,698,2023-10-27 11:10:27.50,301,-392,-2004,15,45,24,-145,240,-385,-47
,699,2023-10-27 11:10:27.51,307,-374,-1995,19,43,25,-241,61,-302,90
,700,2023-10-27 11:10:27.52,306,-391,-2007,18,55,25,-148,236,-384,-44
,701,2023-10-27 11:10:27.53,320,-367,-1994,21,59,24,-244,55,-299,94
,702,2023-10-27 11:10:27.54,324,-381,-2006,19,67,20,-146,233,-379,-43
,703,2023-10-27 11:10:27.55,320,-385,-2011,20,76,19,-244,55,-299,94
,704,2023-10-27 11:10:27.56,314,-398,-2020,21,77,17,-144,234,-378,-45
,705,2023-10-27 11:10:27.57,323,-403,-2035,25,70,12,-262,51,-313,105
,706,2023-10-27 11:10:27.58,313,-386,-2029,26,62,15,-152,240,-392,-44
,707,2023-10-27 11:10:27.59,331,-379,-2020,29,60,9,-263,57,-320,103
,708,2023-10-27 11:10:27.60,330,-375,-2021,28,58,3,-149,242,-391,-46
,709,2023-10-27 11:10:27.61,317,-375,-2018,25,48,1,-252,56,-308,98
,710,2023-10-27 11:10:27.62,317,-384,-2011,22,33,-3,-118,246,-364,-64
,711,2023-10-27 11:10:27.63,323,-399,-2009,24,17,4,-233,53,-286,90
,712,2023-10-27 11:10:27.64,316,-398,-1995,27,1,8,-108,245,-353,-68
,713,2023-10-27 11:10:27.65,330,-388,-1987,27,-3,10,-234,52,-286,91
,714,2023-10-27 11:10:27.66,339,-400,-1983,28,0,12,-111,240,-351,-64
,715,2023-10-27 11:10:27.67,339,-388,-1973,24,5,11,-251,48,-299,101
,716,2023-10-27 11:10:27.68,340,-395,-1983,23,17,8,-131,228,-359,-48
,717,2023-10-27 11:10:27.69,329,-393,-1996,24,15,9,-261,47,-308,107
,718,2023-10-27 11:10:27.70,347,-390,-2002,25,17,10,-123,234,-357,-55
,719,2023-10-27 11:10:27.71,320,-397,-2028,23,9,12,-243,50,-293,96
,720,2023-10-27 11:10:27.72,337,-403,-2037,15,11,17,-95,236,-331,-70
,721,2023-10-27 11:10:27.73,329,-393,-2050,2,18,21,-230,54,-284,88
,722,2023-10-27 11:10:27.74,307,-388,-2044,-13,13,25,-96,236,-332,-70
,723,2023-10-27 11:10:27.75,321,-387,-2051,-21,5,30,-236,62,-298,87
,724,2023-10-27 11:10:27.76,314,-382,-2050,-27,1,39,-86,243,-329,-78
,725,2023-10-27 11:10:27.77,328,-381,-2029,-29,-12,44,-228,64,-292,82
,726,2023-10-27 11:10:27.78,345,-382,-2023,-36,-4,44,-88,240,-328,-76
,727,2023-10-27 11:10:27.79,337,-384,-2011,-43,5,46,-233,72,-305,80
,728,2023-10-27 11:10:27.80,336,-383,-1997,-41,8,49,-68,256,-324,-94
,729,2023-10-27 11:10:27.81,330,-393,-1991,-36,10,50,-162,104,-266,29
,730,2023-10-27 11:10:27.82,332,-404,-2006,-25,-2,55,10,289,-279,-149
,731,2023-10-27 11:10:27.83,319,-408,-2003,-12,-19,64,-161,105,-266,28
,732,2023-10-27 11:10:27.84,321,-391,-1995,-3,-29,71,-38,258,-296,-110
,733,2023-10-27 11:10:27.85,325,-382,-1999,10,-38,74,-207,79,-286,64
,734,2023-10-27 11:10:27.86,334,-377,-1998,15,-39,76,-59,241,-300,-91
,735,2023-10-27 11:10:27.87,322,-378,-2005,12,-26,73,-214,72,-286,71
,736,2023-10-27 11:10:27.88,323,-378,-2016,9,-24,70,-79,219,-298,-70
,737,2023-10-27 11:10:27.89,297,-388,-2014,4,-15,68,-230,68,-298,81
,738,2023-10-27 11:10:27.90,304,-377,-2005,7,-31,75,-61,239,-300,-89
,739,2023-10-27 11:10:27.91,306,-387,-2011,8,-37,71,-214,92,-306,61
,740,2023-10-27 11:10:27.92,289,-389,-2003,6,-41,72,-61,244,-305,-91
,741,2023-10-27 11:10:27.93,295,-382,-2008,2,-41,71,-240,72,-312,84
,742,2023-10-27 11:10:27.94,309,-379,-2003,-2,-30,67,-104,209,-313,-52
,743,2023-10-27 11:10:27.95,305,-388,-2004,-4,-35,65,-276,56,-332,110
,744,2023-10-27 11:10:27.96,296,-382,-2010,2,-45,62,-112,213,-325,-50
,745,2023-10-27 11:10:27.97,300,-392,-2015,2,-34,58,-270,71,-341,99
,746,2023-10-27 11:10:27.98,309,-391,-2014,-1,-26,56,-118,206,-324,-44
,747,2023-10-27 11:10:27.99,284,-394,-2012,3,-39,53,-296,58,-354,119
,748,2023-10-27 11:10:28.00,285,-396,-2028,6,-39,52,-152,184,-336,-16
,749,2023-10-27 11:10:28.01,302,-382,-2039,4,-28,53,-322,42,-364,140
,750,2023-10-27 11:10:28.02,275,-386,-2030,-1,-27,48,-157,179,-336,-11
,751,2023-10-27 11:10:28.03,283,-387,-2037,-4,-36,51,-318,50,-368,134
,752,2023-10-27 11:10:28.04,295,-385,-2025,-6,-43,50,-171,172,-343,0
,753,2023-10-27 11:10:28.05,291,-379,-2019,-9,-31,49,-321,58,-379,131
,754,2023-10-27 11:10:28.06,291,-378,-2010,-15,-32,46,-160,176,-336,-8
,755,2023-10-27 11:10:28.07,295,-383,-2021,-24,-13,46,-316,51,-367,132
,756,2023-10-27 11:10:28.08,297,-380,-2018,-31,3,45,-174,157,-331,8
,757,2023-10-27 11:10:28.09,292,-387,-2016,-40,15,45,-346,24,-370,161
,758,2023-10-27 11:10:28.10,295,-382,-2016,-43,22,45,-212,113,-325,49
,759,2023-10-27 11:10:28.11,278,-385,-2019,-40,14,48,-396,-32,-364,214
,760,2023-10-27 11:10:28.12,280,-383,-2022,-35,-2,52,-275,52,-327,111
,761,2023-10-27 11:10:28.13,292,-387,-2024,-31,-12,57,-457,-67,-390,262
,762,2023-10-27 11:10:28.14,278,-377,-2025,-28,-22,60,-321,29,-350,146
,763,2023-10-27 11:10:28.15,294,-377,-2005,-24,-31,64,-471,-63,-408,267
,764,2023-10-27 11:10:28.16,280,-379,-1995,-23,-38,63,-307,40,-347,133
,765,2023-10-27 11:10:28.17,299,-366,-1971,-15,-43,64,-437,-31,-406,234
,766,2023-10-27 11:10:28.18,302,-363,-1967,-10,-34,61,-264,75,-339,94
,767,2023-10-27 11:10:28.19,295,-373,-1981,-3,-29,54,-393,12,-405,190
,768,2023-10-27 11:10:28.20,269,-385,-1989,4,-32,49,-224,114,-338,55
,769,2023-10-27 11:10:28.21,281,-366,-2003,20,-62,51,-339,73,-412,133
,770,2023-10-27 11:10:28.22,304,-361,-2019,25,-52,49,-163,186,-349,-11
,771,2023-10-27 11:10:28.23,274,-367,-2019,23,-49,45,-265,155,-420,55
,772,2023-10-27 11:10:28.24,283,-360,-2020,20,-53,39,-101,229,-330,-64
,773,2023-10-27 11:10:28.25,282,-359,-2011,12,-45,33,-228,166,-394,31
,774,2023-10-27 11:10:28.26,291,-357,-2025,12,-49,24,-92,216,-308,-62
,775,2023-10-27 11:10:28.27,263,-364,-2045,5,-45,20,-223,162,-385,30
,776,2023-10-27 11:10:28.28,259,-374,-2059,-4,-63,20,-84,216,-300,-66
,777,2023-10-27 11:10:28.29,267,-373,-2060,-6,-83,27,-204,176,-380,14
,778,2023-10-27 11:10:28.30,249,-378,-2050,-5,-103,37,-59,224,-283,-82
,779,2023-10-27 11:10:28.31,245,-375,-2031,-7,-133,47,-181,188,-369,-3
,780,2023-10-27 11:10:28.32,240,-377,-2023,-20,-135,55,-52,230,-282,-89
,781,2023-10-27 11:10:28.33,236,-380,-2017,-26,-136,64,-161,207,-368,-23
,782,2023-10-27 11:10:28.34,243,-375,-2016,-26,-136,69,-47,227,-274,-90
,783,2023-10-27 11:10:28.35,244,-367,-2013,-26,-134,67,-167,203,-370,-18
,784,2023-10-27 11:10:28.36,257,-370,-2011,-28,-120,68,-58,214,-272,-78
,785,2023-10-27 11:10:28.37,290,-376,-2023,-43,-59,56,-165,203,-368,-19
,786,2023-10-27 11:10:28.38,195,-375,-2000,-54,-21,45,-55,213,-268,-79
,787,2023-10-27 11:10:28.39,229,-388,-2011,-41,-54,47,-173,198,-371,-12
,788,2023-10-27 11:10:28.40,243,-376,-2031,-25,-60,46,-73,197,-270,-62
,789,2023-10-27 11:10:28.41,200,-373,-2031,-15,-62,51,-194,177,-371,8
,790,2023-10-27 11:10:28.42,226,-369,-2009,-7,-76,51,-96,176,-272,-40
,791,2023-10-27 11:10:28.43,231,-363,-2004,-10,-60,48,-205,170,-375,17
,792,2023-10-27 11:10:28.44,236,-372,-2008,-17,-46,50,-103,166,-269,-31
,793,2023-10-27 11:10:28.45,222,-376,-2009,-13,-54,52,-218,158,-376,30
,794,2023-10-27 11:10:28.46,214,-389,-2017,-5,-62,59,-119,152,-271,-16
,795,2023-10-27 11:10:28.47,209,-399,-2016,4,-62,65,-226,146,-372,40
,796,2023-10-27 11:10:28.48,204,-388,-2023,10,-71,71,-129,133,-262,-2
,797,2023-10-27 11:10:28.49,240,-365,-2014,13,-64,74,-237,143,-380,47
,798,2023-10-27 11:10:28.50,228,-363,-2015,7,-41,73,-144,131,-275,6
,799,2023-10-27 11:10:28.51,229,-356,-2024,9,-54,72,-249,149,-398,50
,800,2023-10-27 11:10:28.52,236,-342,-2021,7,-44,64,-154,128,-282,13
,801,2023-10-27 11:10:28.53,235,-336,-2020,2,-25,57,-250,143,-393,53
,802,2023-10-27 11:10:28.54,238,-341,-2020,0,-15,49,-162,115,-277,23
,803,2023-10-27 11:10:28.55,233,-336,-2026,-4,-7,37,-255,139,-394,58
,804,2023-10-27 11:10:28.56,231,-341,-2029,-3,-3,28,-166,106,-272,30
,805,2023-10-27 11:10:28.57,226,-337,-2037,3,-10,18,-253,139,-392,57
,806,2023-10-27 11:10:28.58,225,-341,-2037,9,-22,9,-172,102,-274,35
,807,2023-10-27 11:10:28.59,222,-350,-2046,16,-33,4,-261,141,-402,60
,808,2023-10-27 11:10:28.60,221,-348,-2045,19,-44,-2,-187,97,-284,45
,809,2023-10-27 11:10:28.61,224,-342,-2044,26,-55,-10,-262,139,-401,61
,810,2023-10-27 11:10:28.62,232,-348,-2050,37,-67,-12,-184,91,-275,46
,811,2023-10-27 11:10:28.63,224,-346,-2067,45,-76,-20,-250,149,-399,50
,812,2023-10-27 11:10:28.64,291,-349,-2102,13,1,-36,-176,100,-276,38
,813,2023-10-27 11:10:28.65,175,-318,-2049,-12,3,-52,-238,171,-409,33
,814,2023-10-27 11:10:28.66,238,-346,-2055,-11,-28,-50,-167,112,-279,27
,815,2023-10-27 11:10:28.67,233,-370,-2069,-4,-36,-53,-224,181,-405,21
,816,2023-10-27 11:10:28.68,197,-371,-2061,2,-46,-56,-177,107,-284,35
,817,2023-10-27 11:10:28.69,228,-367,-2065,15,-87,-54,-244,164,-408,40
,818,2023-10-27 11:10:28.70,238,-330,-2062,10,-58,-58,-190,88,-278,51
,819,2023-10-27 11:10:28.71,226,-310,-2011,0,-52,-67,-236,180,-416,28
,820,2023-10-27 11:10:28.72,210,-331,-1998,-5,-65,-73,-176,110,-286,33
,821,2023-10-27 11:10:28.73,224,-336,-1984,-8,-81,-74,-216,206,-422,5
,822,2023-10-27 11:10:28.74,233,-330,-1969,-6,-77,-80,-160,130,-290,15
,823,2023-10-27 11:10:28.75,228,-324,-1954,-9,-59,-88,-205,201,-406,2
,824,2023-10-27 11:10:28.76,226,-321,-1957,-20,-42,-95,-177,90,-267,43
,825,2023-10-27 11:10:28.77,208,-329,-1968,-31,-37,-97,-242,151,-393,45
,826,2023-10-27 11:10:28.78,212,-325,-1976,-34,-42,-96,-218,60,-278,79
,827,2023-10-27 11:10:28.79,206,-332,-1961,-30,-56,-91,-262,147,-409,57
,828,2023-10-27 11:10:28.80,212,-334,-1958,-29,-65,-80,-239,44,-283,97
,829,2023-10-27 11:10:28.81,197,-340,-1964,-29,-72,-76,-268,143,-411,62
,830,2023-10-27 11:10:28.82,195,-336,-1956,-26,-79,-64,-247,39,-286,104
,831,2023-10-27 11:10:28.83,190,-358,-1982,-22,-83,-55,-274,142,-416,66
,832,2023-10-27 11:10:28.84,210,-357,-2003,-14,-103,-44,-253,38,-291,107
,833,2023-10-27 11:10:28.85,194,-369,-2010,1,-122,-27,-273,142,-415,65
,834,2023-10-27 11:10:28.86,190,-373,-2031,18,-137,-7,-262,26,-288,118
,835,2023-10-27 11:10:28.87,200,-387,-2050,37,-139,11,-288,122,-410,83
,836,2023-10-27 11:10:28.88,223,-396,-2014,66,-108,19,-289,0,-289,144
,837,2023-10-27 11:10:28.89,176,-396,-2112,69,-75,33,-307,112,-419,97
,838,2023-10-27 11:10:28.90,182,-406,-2159,51,-94,52,-298,0,-298,149
,839,2023-10-27 11:10:28.91,190,-411,-2060,43,-79,64,-294,131,-425,81
,840,2023-10-27 11:10:28.92,152,-412,-2076,75,-96,81,-278,20,-298,129
,841,2023-10-27 11:10:28.93,176,-428,-2072,94,-117,96,-267,160,-427,53
,842,2023-10-27 11:10:28.94,158,-427,-2088,102,-110,110,-266,38,-304,114
,843,2023-10-27 11:10:28.95,161,-416,-2054,110,-100,120,-252,180,-432,36
,844,2023-10-27 11:10:28.96,152,-414,-2062,121,-112,133,-258,43,-301,107
,845,2023-10-27 11:10:28.97,154,-406,-2056,123,-102,141,-236,185,-421,25
,846,2023-10-27 11:10:28.98,125,-400,-2063,130,-110,140,-251,44,-295,103
,847,2023-10-27 11:10:28.99,163,-394,-2054,129,-108,141,-228,197,-425,15
,848,2023-10-27 11:10:29.00,143,-384,-2057,125,-98,137,-249,51,-300,99
,849,2023-10-27 11:10:29.01,145,-385,-2047,121,-101,132,-215,211,-426,2
,850,2023-10-27 11:10:29.02,125,-379,-2034,116,-100,123,-239,63,-302,88
,851,2023-10-27 11:10:29.03,147,-377,-2012,114,-111,115,-215,214,-429,0
,852,2023-10-27 11:10:29.04,128,-374,-2016,109,-111,101,-248,53,-301,97
,853,2023-10-27 11:10:29.05,127,-378,-2022,101,-114,85,-206,200,-406,3
,854,2023-10-27 11:10:29.06,126,-369,-2036,86,-95,68,-245,38,-283,103
,855,2023-10-27 11:10:29.07,110,-367,-2053,77,-105,52,-200,220,-420,-10
,856,2023-10-27 11:10:29.08,121,-363,-2032,63,-99,37,-233,75,-308,79
,857,2023-10-27 11:10:29.09,110,-389,-2026,53,-101,24,-178,238,-416,-30
,858,2023-10-27 11:10:29.10,133,-407,-2048,49,-111,13,-237,52,-289,92
,859,2023-10-27 11:10:29.11,108,-411,-2083,46,-120,2,-198,196,-394,1
,860,2023-10-27 11:10:29.12,132,-406,-2028,48,-122,-5,-266,19,-285,123
,861,2023-10-27 11:10:29.13,97,-400,-2063,79,-115,-11,-224,170,-394,27
,862,2023-10-27 11:10:29.14,115,-406,-2108,91,-129,-15,-302,-14,-288,158
,863,2023-10-27 11:10:29.15,88,-421,-2105,67,-133,-16,-260,124,-384,68
,864,2023-10-27 11:10:29.16,118,-445,-2068,38,-123,-16,-356,-70,-286,213
,865,2023-10-27 11:10:29.17,82,-458,-1998,38,-113,-18,-314,60,-374,127
,866,2023-10-27 11:10:29.18,89,-446,-1988,57,-103,-18,-405,-117,-288,261
,867,2023-10-27 11:10:29.19,92,-439,-1974,77,-112,-17,-351,41,-392,155
,868,2023-10-27 11:10:29.20,116,-427,-1970,90,-112,-15,-424,-117,-307,270
,869,2023-10-27 11:10:29.21,90,-414,-1954,93,-94,-21,-373,24,-397,174
,870,2023-10-27 11:10:29.22,91,-413,-1942,84,-82,-24,-442,-122,-320,282
,871,2023-10-27 11:10:29.23,80,-401,-1939,71,-80,-22,-352,68,-420,142
,872,2023-10-27 11:10:29.24,113,-395,-1963,53,-70,-22,-394,-59,-335,226
,873,2023-10-27 11:10:29.25,72,-395,-1957,13,-26,-24,-279,144,-423,67
,874,2023-10-27 11:10:29.26,60,-401,-1965,-3,-60,-16,-332,-3,-329,167
,875,2023-10-27 11:10:29.27,83,-411,-1978,-16,-72,-5,-227,177,-404,25
,876,2023-10-27 11:10:29.28,38,-415,-1976,-26,-78,4,-308,3,-311,152
,877,2023-10-27 11:10:29.29,39,-436,-1951,-29,-94,15,-208,179,-387,14
,878,2023-10-27 11:10:29.30,72,-427,-1957,-30,-99,25,-303,2,-305,150
,879,2023-10-27 11:10:29.31,71,-426,-1956,-29,-92,31,-205,174,-379,15
,880,2023-10-27 11:10:29.32,82,-428,-1962,-23,-87,33,-320,-15,-305,167
,881,2023-10-27 11:10:29.33,85,-426,-1947,-2,-67,33,-236,133,-369,51
,882,2023-10-27 11:10:29.34,57,-427,-2021,9,-46,35,-358,-56,-302,207
,883,2023-10-27 11:10:29.35,61,-459,-2019,11,-63,42,-250,116,-366,67
,884,2023-10-27 11:10:29.36,53,-474,-2031,30,-60,54,-350,-41,-309,195
,885,2023-10-27 11:10:29.37,63,-479,-2041,48,-57,63,-234,143,-377,45
,886,2023-10-27 11:10:29.38,59,-473,-2086,43,-37,69,-340,-20,-320,180
,887,2023-10-27 11:10:29.39,47,-476,-2044,34,-40,74,-220,162,-382,29
,888,2023-10-27 11:10:29.40,37,-463,-2052,48,-41,87,-326,-9,-317,167
,889,2023-10-27 11:10:29.41,55,-461,-2052,64,-46,93,-201,160,-361,20
,890,2023-10-27 11:10:29.42,51,-456,-2032,70,-43,99,-328,-17,-311,172
,891,2023-10-27 11:10:29.43,67,-450,-2026,64,-25,97,-211,151,-362,30
,892,2023-10-27 11:10:29.44,36,-453,-2026,54,-19,100,-339,-26,-313,182
,893,2023-10-27 11:10:29.45,49,-444,-2021,45,-6,99,-219,138,-357,40
,894,2023-10-27 11:10:29.46,37,-439,-2006,38,0,99,-349,-34,-315,191
,895,2023-10-27 11:10:29.47,52,-439,-2004,27,14,99,-222,136,-358,43
,896,2023-10-27 11:10:29.48,65,-424,-1977,7,43,93,-346,-28,-318,187
,897,2023-10-27 11:10:29.49,64,-406,-1976,-16,75,81,-213,143,-356,35
,898,2023-10-27 11:10:29.50,55,-402,-1968,-39,92,65,-338,-16,-322,177
,899,2023-10-27 11:10:29.51,69,-395,-1977,-49,99,55,-196,156,-352,20
,900,2023-10-27 11:10:29.52,66,-399,-1982,-53,91,43,-323,-4,-319,163
,901,2023-10-27 11:10:29.53,22,-376,-1934,-50,69,35,-176,169,-345,3
,902,2023-10-27 11:10:29.54,68,-381,-1978,-36,23,33,-301,20,-321,140
,903,2023-10-27 11:10:29.55,68,-391,-2026,-55,60,5,-146,206,-352,-30
,904,2023-10-27 11:10:29.56,92,-389,-2010,-63,52,-7,-257,71,-328,93
,905,2023-10-27 11:10:29.57,86,-381,-2004,-63,44,-18,-92,242,-334,-75
,906,2023-10-27 11:10:29.58,94,-390,-2014,-57,29,-23,-198,100,-298,49
,907,2023-10-27 11:10:29.59,83,-396,-2016,-52,26,-30,-37,275,-312,-119
,908,2023-10-27 11:10:29.60,73,-412,-2015,-54,28,-33,-155,145,-300,5
,909,2023-10-27 11:10:29.61,64,-420,-2033,-51,14,-30,2,312,-310,-157
,910,2023-10-27 11:10:29.62,65,-429,-2036,-47,3,-24,-126,171,-297,-22
,911,2023-10-27 11:10:29.63,65,-427,-2016,-42,-3,-11,30,332,-302,-181
,912,2023-10-27 11:10:29.64,61,-434,-2016,-42,-8,1,-94,194,-288,-50
,913,2023-10-27 11:10:29.65,56,-429,-2020,-40,-16,10,54,341,-287,-197
,914,2023-10-27 11:10:29.66,83,-421,-2007,-38,-15,19,-71,218,-289,-73
,915,2023-10-27 11:10:29.67,66,-414,-2003,-38,-6,25,78,371,-293,-224
,916,2023-10-27 11:10:29.68,71,-407,-2002,-42,7,29,-52,234,-286,-91
,917,2023-10-27 11:10:29.69,74,-418,-1991,-48,21,30,91,368,-277,-229
,918,2023-10-27 11:10:29.70,73,-411,-1993,-48,29,33,-63,211,-274,-74
,919,2023-10-27 11:10:29.71,68,-422,-2015,-46,34,34,69,332,-263,-200
,920,2023-10-27 11:10:29.72,69,-405,-2029,-44,36,37,-95,180,-275,-42
,921,2023-10-27 11:10:29.73,75,-396,-2031,-44,41,38,36,301,-265,-168
,922,2023-10-27 11:10:29.74,74,-397,-2041,-49,43,37,-120,161,-281,-20
,923,2023-10-27 11:10:29.75,59,-390,-2037,-54,36,44,19,280,-261,-149
,924,2023-10-27 11:10:29.76,71,-379,-2027,-66,31,47,-131,165,-296,-17
,925,2023-10-27 11:10:29.77,75,-378,-2031,-74,25,48,52,331,-279,-191
,926,2023-10-27 11:10:29.78,64,-378,-2037,-84,16,53,-2,284,-286,-141
,927,2023-10-27 11:10:29.79,67,-380,-2040,-94,12,55,147,404,-257,-275
,928,2023-10-27 11:10:29.80,56,-378,-2039,-96,4,63,-57,219,-276,-81
,929,2023-10-27 11:10:29.81,63,-393,-2037,-97,-1,68,26,260,-234,-143
,930,2023-10-27 11:10:29.82,80,-389,-2039,-93,-5,73,-166,96,-262,35
,931,2023-10-27 11:10:29.83,65,-405,-2056,-84,-2,77,-47,183,-230,-68
,932,2023-10-27 11:10:29.84,81,-398,-2057,-77,7,84,-221,61,-282,80
,933,2023-10-27 11:10:29.85,84,-375,-2026,-70,21,81,-92,157,-249,-32
,934,2023-10-27 11:10:29.86,84,-380,-2035,-60,36,80,-259,39,-298,110
,935,2023-10-27 11:10:29.87,89,-377,-2012,-59,41,81,-126,135,-261,-4
,936,2023-10-27 11:10:29.88,89,-377,-2014,-54,44,78,-282,33,-315,124
,937,2023-10-27 11:10:29.89,79,-374,-2014,-44,50,74,-137,127,-264,5
,938,2023-10-27 11:10:29.90,84,-359,-2003,-42,50,71,-285,26,-311,129
,939,2023-10-27 11:10:29.91,90,-345,-2005,-41,48,70,-142,120,-262,11
,940,2023-10-27 11:10:29.92,73,-354,-2012,-43,51,64,-293,28,-321,132
,941,2023-10-27 11:10:29.93,90,-346,-2002,-44,47,59,-149,116,-265,16
,942,2023-10-27 11:10:29.94,80,-340,-1989,-51,48,51,-294,28,-322,133
,943,2023-10-27 11:10:29.95,81,-335,-2009,-59,47,44,-149,115,-264,17
,944,2023-10-27 11:10:29.96,70,-323,-2014,-70,46,33,-286,42,-328,122
,945,2023-10-27 11:10:29.97,69,-318,-2011,-80,40,25,-132,132,-264,0
,946,2023-10-27 11:10:29.98,74,-321,-2013,-87,39,13,-279,51,-330,114
,947,2023-10-27 11:10:29.99,75,-326,-2013,-94,33,7,-135,127,-262,4
,948,2023-10-27 11:10:30.00,84,-326,-2023,-99,28,-2,-278,45,-323,116
,949,2023-10-27 11:10:30.01,91,-325,-2031,-101,20,-9,-139,115,-254,12
,950,2023-10-27 11:10:30.02,94,-333,-2060,-93,6,-15,-284,38,-322,123
,951,2023-10-27 11:10:30.03,111,-329,-2073,-89,-15,-21,-151,96,-247,27
,952,2023-10-27 11:10:30.04,108,-315,-2075,-97,9,-28,-293,33,-326,130
,953,2023-10-27 11:10:30.05,82,-324,-2084,-105,15,-33,-163,89,-252,37
,954,2023-10-27 11:10:30.06,113,-330,-2078,-108,8,-36,-309,23,-332,143
,955,2023-10-27 11:10:30.07,98,-334,-2080,-109,11,-39,-166,84,-250,41
,956,2023-10-27 11:10:30.08,98,-335,-2088,-101,6,-36,-294,43,-337,125
,957,2023-10-27 11:10:30.09,93,-338,-2075,-97,1,-34,-158,93,-251,32
,958,2023-10-27 11:10:30.10,108,-325,-2070,-91,-2,-29,-284,56,-340,114
,959,2023-10-27 11:10:30.11,111,-339,-2060,-86,-1,-24,-153,95,-248,29
,960,2023-10-27 11:10:30.12,101,-332,-2057,-79,-4,-15,-271,67,-338,102
,961,2023-10-27 11:10:30.13,101,-341,-2044,-70,-2,-10,-142,102,-244,20
,962,2023-10-27 11:10:30.14,107,-345,-2027,-61,5,-5,-264,77,-341,93
,963,2023-10-27 11:10:30.15,114,-347,-2026,-47,13,3,-142,102,-244,20
,964,2023-10-27 11:10:30.16,116,-326,-2001,-35,27,7,-257,85,-342,86
,965,2023-10-27 11:10:30.17,117,-345,-1991,-24,42,14,-134,104,-238,15
,966,2023-10-27 11:10:30.18,113,-338,-1997,-15,53,16,-253,93,-346,80
,967,2023-10-27 11:10:30.19,117,-326,-2002,-7,70,17,-141,106,-247,17
,968,2023-10-27 11:10:30.20,113,-327,-1997,8,76,23,-257,93,-350,82
,969,2023-10-27 11:10:30.21,123,-331,-2011,15,78,27,-143,99,-242,22
,970,2023-10-27 11:10:30.22,97,-324,-2011,27,62,29,-249,99,-348,75
,971,2023-10-27 11:10:30.23,112,-324,-2027,42,39,34,-141,99,-240,21
,972,2023-10-27 11:10:30.24,143,-321,-2035,46,49,34,-248,106,-354,71
,973,2023-10-27 11:10:30.25,119,-313,-2044,45,63,29,-144,96,-240,24
,974,2023-10-27 11:10:30.26,100,-321,-2050,45,45,25,-249,110,-359,69
,975,2023-10-27 11:10:30.27,128,-316,-2056,38,55,23,-148,95,-243,26
,976,2023-10-27 11:10:30.28,102,-324,-2053,38,55,21,-244,108,-352,68
,977,2023-10-27 11:10:30.29,102,-325,-2043,44,22,22,-146,86,-232,30
,978,2023-10-27 11:10:30.30,120,-315,-2046,44,16,22,-247,107,-354,70
,979,2023-10-27 11:10:30.31,103,-312,-2048,30,26,17,-155,81,-236,37
,980,2023-10-27 11:10:30.32,109,-310,-2053,22,21,16,-248,111,-359,68
,981,2023-10-27 11:10:30.33,108,-304,-2055,16,6,13,-158,83,-241,37
,982,2023-10-27 11:10:30.34,114,-311,-2053,12,-1,13,-245,119,-364,63
,983,2023-10-27 11:10:30.35,103,-315,-2044,10,-9,13,-159,81,-240,39
,984,2023-10-27 11:10:30.36,97,-318,-2043,2,-12,11,-244,122,-366,61
,985,2023-10-27 11:10:30.37,107,-318,-2041,0,-17,13,-166,76,-242,45
,986,2023-10-27 11:10:30.38,108,-319,-2034,-2,-19,12,-240,129,-369,55
,987,2023-10-27 11:10:30.39,112,-322,-2040,1,-18,14,-174,65,-239,54
,988,2023-10-27 11:10:30.40,102,-315,-2034,-2,-15,14,-252,113,-365,69
,989,2023-10-27 11:10:30.41,100,-304,-2033,-4,-11,13,-187,47,-234,70
,990,2023-10-27 11:10:30.42,99,-311,-2031,-7,-6,12,-255,107,-362,74
,991,2023-10-27 11:10:30.43,110,-312,-2027,-7,-4,12,-186,50,-236,68
,992,2023-10-27 11:10:30.44,108,-316,-2029,-9,-1,10,-256,117,-373,69
,993,2023-10-27 11:10:30.45,111,-317,-2026,-8,6,8,-189,54,-243,67
,994,2023-10-27 11:10:30.46,109,-312,-2033,-11,13,8,-256,122,-378,67
,995,2023-10-27 11:10:30.47,116,-312,-2031,-8,20,5,-204,40,-244,82
,996,2023-10-27 11:10:30.48,110,-310,-2023,-9,24,8,-248,130,-378,59
,997,2023-10-27 11:10:30.49,110,-334,-2037,-3,28,7,-197,51,-248,73
,998,2023-10-27 11:10:30.50,110,-322,-2025,2,26,10,-248,139,-387,54
,999,2023-10-27 11:10:30.51,110,-326,-2019,10,29,11,-201,59,-260,71
,1000,2023-10-27 11:10:30.52,116,-334,-2025,17,32,16,-236,152,-388,42
,1001,2023-10-27 11:10:30.53,109,-335,-2019,22,30,15,-191,65,-256,63
,1002,2023-10-27 11:10:30.54,109,-330,-2029,31,26,17,-230,166,-396,32
,1003,2023-10-27 11:10:30.55,111,-337,-2031,40,24,23,-191,73,-264,59
,1004,2023-10-27 11:10:30.56,98,-341,-2038,44,17,28,-226,178,-404,24
,1005,2023-10-27 11:10:30.57,120,-344,-2038,50,10,35,-200,76,-276,62
,1006,2023-10-27 11:10:30.58,105,-340,-2031,54,4,41,-238,185,-423,26
,1007,2023-10-27 11:10:30.59,111,-342,-2036,53,-4,48,-212,83,-295,64
,1008,2023-10-27 11:10:30.60,109,-341,-2041,58,-14,53,-232,208,-440,12
,1009,2023-10-27 11:10:30.61,112,-349,-2033,61,-20,60,-205,97,-302,54
,1010,2023-10-27 11:10:30.62,107,-340,-2038,65,-22,62,-223,215,-438,4
,1011,2023-10-27 11:10:30.63,116,-335,-2032,64,-18,66,-202,95,-297,53
,1012,2023-10-27 11:10:30.64,106,-336,-2037,59,-8,66,-206,218,-424,-6
,1013,2023-10-27 11:10:30.65,107,-338,-2046,61,-8,65,-192,96,-288,48
,1014,2023-10-27 11:10:30.66,103,-336,-2041,59,-6,66,-190,221,-411,-15
,1015,2023-10-27 11:10:30.67,102,-339,-2041,61,-9,65,-188,87,-275,50
,1016,2023-10-27 11:10:30.68,101,-335,-2038,57,-9,63,-192,217,-409,-12
,1017,2023-10-27 11:10:30.69,110,-335,-2032,58,-13,60,-197,80,-277,58
,1018,2023-10-27 11:10:30.70,104,-327,-2033,56,-13,56,-192,215,-407,-11
,1019,2023-10-27 11:10:30.71,93,-327,-2035,50,-13,51,-202,72,-274,65
,1020,2023-10-27 11:10:30.72,97,-324,-2036,46,-19,48,-189,208,-397,-9
,1021,2023-10-27 11:10:30.73,102,-320,-2028,40,-15,42,-202,64,-266,69
,1022,2023-10-27 11:10:30.74,103,-327,-2030,28,-5,35,-190,201,-391,-5
,1023,2023-10-27 11:10:30.75,91,-325,-2025,15,12,27,-210,58,-268,76
,1024,2023-10-27 11:10:30.76,81,-331,-2023,7,8,23,-190,204,-394,-7
,1025,2023-10-27 11:10:30.77,85,-338,-2030,6,1,22,-207,54,-261,76
,1026,2023-10-27 11:10:30.78,97,-325,-2026,10,-4,22,-178,203,-381,-12
,1027,2023-10-27 11:10:30.79,97,-329,-2025,5,1,16,-202,56,-258,73
,1028,2023-10-27 11:10:30.80,102,-333,-2032,-2,18,13,-184,203,-387,-9
,1029,2023-10-27 11:10:30.81,94,-337,-2028,-10,31,6,-218,43,-261,87
,1030,2023-10-27 11:10:30.82,108,-343,-2032,-7,21,10,-176,196,-372,-10
,1031,2023-10-27 11:10:30.83,103,-346,-2030,-1,13,12,-215,43,-258,86
,1032,2023-10-27 11:10:30.84,96,-353,-2039,5,20,17,-181,202,-383,-10
,1033,2023-10-27 11:10:30.85,99,-352,-2029,4,26,16,-233,30,-263,101
,1034,2023-10-27 11:10:30.86,100,-362,-2040,4,31,21,-181,204,-385,-11
,1035,2023-10-27 11:10:30.87,106,-365,-2043,11,24,25,-229,43,-272,93
,1036,2023-10-27 11:10:30.88,110,-351,-2032,18,13,31,-184,205,-389,-10
,1037,2023-10-27 11:10:30.89,113,-347,-2025,27,9,34,-243,30,-273,106
,1038,2023-10-27 11:10:30.90,119,-340,-2030,25,11,37,-184,198,-382,-7
,1039,2023-10-27 11:10:30.91,123,-345,-2028,17,31,38,-230,35,-265,97
,1040,2023-10-27 11:10:30.92,112,-351,-2047,19,29,42,-171,202,-373,-15
,1041,2023-10-27 11:10:30.93,97,-353,-2031,20,25,50,-247,25,-272,111
,1042,2023-10-27 11:10:30.94,101,-355,-2036,23,8,58,-204,187,-391,8
,1043,2023-10-27 11:10:30.95,93,-374,-2031,19,7,71,-280,16,-296,132
,1044,2023-10-27 11:10:30.96,97,-376,-2024,16,-5,91,-212,190,-402,11
,1045,2023-10-27 11:10:30.97,112,-376,-2017,15,-8,109,-278,14,-292,132
,1046,2023-10-27 11:10:30.98,104,-366,-2015,13,-10,125,-204,185,-389,9
,1047,2023-10-27 11:10:30.99,86,-384,-2012,2,0,149,-280,15,-295,132
,1048,2023-10-27 11:10:31.00,83,-391,-2030,-6,8,169,-197,192,-389,2
,1049,2023-10-27 11:10:31.01,95,-394,-2039,-14,-3,199,-278,19,-297,129
,1050,2023-10-27 11:10:31.02,94,-390,-2038,-18,-1,226,-194,197,-391,-1
,1051,2023-10-27 11:10:31.03,90,-377,-2044,-22,-9,257,-281,11,-292,135
,1052,2023-10-27 11:10:31.04,101,-392,-2042,-34,-2,284,-188,187,-375,0
,1053,2023-10-27 11:10:31.05,78,-385,-2058,-50,-4,312,-277,6,-283,135
,1054,2023-10-27 11:10:31.06,102,-384,-2048,-64,-1,340,-193,182,-375,5
,1055,2023-10-27 11:10:31.07,77,-384,-2044,-72,-7,372,-288,3,-291,142
,1056,2023-10-27 11:10:31.08,97,-376,-2048,-78,-10,394,-188,179,-367,4
,1057,2023-10-27 11:10:31.09,93,-366,-2049,-91,-8,421,-284,-2,-282,143
,1058,2023-10-27 11:10:31.10,91,-359,-2051,-106,2,441,-191,177,-368,7
,1059,2023-10-27 11:10:31.11,79,-354,-2049,-114,5,457,-284,5,-289,139
,1060,2023-10-27 11:10:31.12,83,-347,-2039,-123,6,472,-175,182,-357,-3
,1061,2023-10-27 11:10:31.13,80,-339,-2051,-134,8,487,-282,5,-287,138
,1062,2023-10-27 11:10:31.14,70,-328,-2036,-146,11,500,-190,181,-371,4
,1063,2023-10-27 11:10:31.15,61,-336,-2041,-154,10,513,-302,8,-310,147
,1064,2023-10-27 11:10:31.16,71,-340,-2042,-161,9,526,-186,183,-369,1
,1065,2023-10-27 11:10:31.17,70,-332,-2041,-160,-8,543,-292,17,-309,137
,1066,2023-10-27 11:10:31.18,82,-325,-2022,-160,-13,557,-169,203,-372,-17
,1067,2023-10-27 11:10:31.19,81,-312,-2033,-157,-16,564,-282,35,-317,123
,1068,2023-10-27 11:10:31.20,76,-299,-2027,-164,-10,568,-155,218,-373,-31
,1069,2023-10-27 11:10:31.21,88,-300,-2023,-172,1,569,-276,31,-307,122
,1070,2023-10-27 11:10:31.22,77,-295,-2033,-176,-3,573,-150,205,-355,-27
,1071,2023-10-27 11:10:31.23,88,-289,-2035,-177,0,577,-272,34,-306,119
,1072,2023-10-27 11:10:31.24,60,-282,-2034,-176,3,578,-153,210,-363,-28
,1073,2023-10-27 11:10:31.25,68,-281,-2035,-173,-7,579,-286,35,-321,125
,1074,2023-10-27 11:10:31.26,74,-274,-2039,-172,-20,582,-162,201,-363,-19
,1075,2023-10-27 11:10:31.27,64,-268,-2053,-170,-28,580,-286,36,-322,125
,1076,2023-10-27 11:10:31.28,55,-250,-2057,-171,-24,582,-158,199,-357,-20
,1077,2023-10-27 11:10:31.29,54,-243,-2052,-170,-31,574,-311,16,-327,147
,1078,2023-10-27 11:10:31.30,73,-238,-2049,-175,-30,568,-201,166,-367,17
,1079,2023-10-27 11:10:31.31,51,-229,-2052,-176,-40,558,-355,-7,-348,181
,1080,2023-10-27 11:10:31.32,75,-214,-2054,-173,-45,541,-248,136,-384,56
,1081,2023-10-27 11:10:31.33,68,-212,-2048,-168,-48,523,-402,-57,-345,229
,1082,2023-10-27 11:10:31.34,69,-202,-2060,-164,-51,501,-282,69,-351,106
,1083,2023-10-27 11:10:31.35,50,-187,-2072,-160,-57,474,-431,-93,-338,262
,1084,2023-10-27 11:10:31.36,58,-182,-2082,-156,-65,450,-287,62,-349,112
,1085,2023-10-27 11:10:31.37,51,-173,-2082,-155,-76,428,-414,-92,-322,253
,1086,2023-10-27 11:10:31.38,49,-191,-2089,-148,-87,408,-261,79,-340,91
,1087,2023-10-27 11:10:31.39,15,-191,-2085,-141,-103,388,-369,-43,-326,206
,1088,2023-10-27 11:10:31.40,22,-175,-2099,-135,-118,369,-193,127,-320,33
,1089,2023-10-27 11:10:31.41,22,-175,-2092,-126,-141,348,-314,-13,-301,163
,1090,2023-10-27 11:10:31.42,47,-124,-2061,-110,-153,318,-139,150,-289,-5
,1091,2023-10-27 11:10:31.43,36,-91,-2037,-96,-141,273,-235,38,-273,98
,1092,2023-10-27 11:10:31.44,28,-52,-2049,-110,-133,224,-54,206,-260,-76
,1093,2023-10-27 11:10:31.45,22,-57,-2064,-135,-144,177,-175,66,-241,54
,1094,2023-10-27 11:10:31.46,7,-55,-2084,-152,-147,127,-4,212,-216,-104
,1095,2023-10-27 11:10:31.47,-2,-93,-2081,-138,-161,82,-112,62,-174,25
,1096,2023-10-27 11:10:31.48,-11,-117,-2077,-118,-179,45,22,184,-162,-103
,1097,2023-10-27 11:10:31.49,-35,-155,-2064,-98,-197,19,-178,-7,-171,92
,1098,2023-10-27 11:10:31.50,-38,-204,-2090,-76,-214,13,-68,145,-213,-38
,1099,2023-10-27 11:10:31.51,-42,-188,-2045,-31,-214,9,-208,-4,-204,106
,1100,2023-10-27 11:10:31.52,-70,-190,-2038,0,-215,17,-49,110,-159,-30
,1101,2023-10-27 11:10:31.53,-76,-208,-2061,1,-230,47,-216,-30,-186,123
,1102,2023-10-27 11:10:31.54,-61,-194,-2053,2,-232,72,-77,86,-163,-4
,1103,2023-10-27 11:10:31.55,-68,-189,-2061,12,-218,102,-210,-2,-208,106
,1104,2023-10-27 11:10:31.56,-87,-203,-2075,18,-217,140,-64,117,-181,-26
,1105,2023-10-27 11:10:31.57,-87,-187,-2056,12,-213,183,-181,-26,-155,103
,1106,2023-10-27 11:10:31.58,-86,-163,-2029,-1,-192,225,-40,88,-128,-24
,1107,2023-10-27 11:10:31.59,-91,-172,-2008,-17,-173,265,-156,13,-169,71
,1108,2023-10-27 11:10:31.60,-93,-177,-2009,-31,-146,304,-1,147,-148,-73
,1109,2023-10-27 11:10:31.61,-114,-144,-2021,-46,-118,332,-99,61,-160,19
,1110,2023-10-27 11:10:31.62,-118,-125,-2033,-69,-97,359,22,162,-140,-92
,1111,2023-10-27 11:10:31.63,-132,-94,-2028,-103,-75,397,-102,85,-187,8
,1112,2023-10-27 11:10:31.64,-142,-83,-2009,-106,-67,404,29,182,-153,-105
,1113,2023-10-27 11:10:31.65,-129,-75,-2001,-115,-43,397,-60,122,-182,-31
,1114,2023-10-27 11:10:31.66,-167,-66,-1995,-120,-28,397,81,234,-153,-157
,1115,2023-10-27 11:10:31.67,-160,-63,-1988,-118,-25,385,10,142,-132,-76
,1116,2023-10-27 11:10:31.68,-141,-61,-2002,-100,-31,376,128,238,-110,-183
,1117,2023-10-27 11:10:31.69,-133,-72,-1995,-87,-23,363,26,157,-131,-91
,1118,2023-10-27 11:10:31.70,-147,-64,-1983,-76,-11,347,86,242,-156,-164
,1119,2023-10-27 11:10:31.71,-154,-38,-1983,-72,8,321,8,171,-163,-89
,1120,2023-10-27 11:10:31.72,-152,-51,-2000,-78,35,296,115,234,-119,-174
,1121,2023-10-27 11:10:31.73,-155,-67,-2001,-76,50,275,16,182,-166,-99
,1122,2023-10-27 11:10:31.74,-130,-93,-1996,-61,54,254,82,243,-161,-162
,1123,2023-10-27 11:10:31.75,-127,-171,-1979,-38,65,226,12,156,-144,-84
,1124,2023-10-27 11:10:31.76,-121,-94,-1991,-14,72,216,50,193,-143,-121
,1125,2023-10-27 11:10:31.77,-92,-112,-1981,18,83,194,-73,99,-172,-13
,1126,2023-10-27 11:10:31.78,-87,-144,-1993,56,104,170,1,172,-171,-86
,1127,2023-10-27 11:10:31.79,-65,-123,-2020,74,146,139,-67,140,-207,-36
,1128,2023-10-27 11:10:31.80,-91,-112,-2040,77,184,102,40,203,-163,-121
,1129,2023-10-27 11:10:31.81,-81,-81,-2061,80,198,68,-8,176,-184,-84
,1130,2023-10-27 11:10:31.82,-96,-87,-2020,83,198,37,60,255,-195,-157
,1131,2023-10-27 11:10:31.83,-70,-142,-2022,92,192,16,-44,226,-270,-91
,1132,2023-10-27 11:10:31.84,-64,-173,-2033,101,183,-5,27,253,-226,-140
,1133,2023-10-27 11:10:31.85,-23,-177,-2054,123,171,-22,-51,234,-285,-91
,1134,2023-10-27 11:10:31.86,-49,-193,-2045,148,178,-40,35,271,-236,-153
,1135,2023-10-27 11:10:31.87,-26,-207,-2052,155,181,-50,9,212,-203,-110
,1136,2023-10-27 11:10:31.88,-50,-199,-2085,136,178,-53,56,231,-175,-143
,1137,2023-10-27 11:10:31.89,-26,-219,-2092,133,174,-57,76,225,-149,-150
,1138,2023-10-27 11:10:31.90,-14,-261,-2097,137,159,-50,127,240,-113,-183
,1139,2023-10-27 11:10:31.91,-14,-263,-2072,146,143,-43,102,259,-157,-180
,1140,2023-10-27 11:10:31.92,9,-266,-2054,157,133,-38,129,281,-152,-205
,1141,2023-10-27 11:10:31.93,17,-250,-2040,160,145,-37,120,244,-124,-182
,1142,2023-10-27 11:10:31.94,32,-243,-2043,155,153,-37,164,221,-57,-192
,1143,2023-10-27 11:10:31.95,39,-250,-2048,146,161,-39,152,221,-69,-186
,1144,2023-10-27 11:10:31.96,51,-236,-2056,137,167,-40,130,198,-68,-164
,1145,2023-10-27 11:10:31.97,49,-240,-2033,132,167,-46,100,187,-87,-143
,1146,2023-10-27 11:10:31.98,55,-244,-2029,114,182,-50,119,174,-55,-146
,1147,2023-10-27 11:10:31.99,58,-241,-2032,98,197,-56,110,161,-51,-135
,1148,2023-10-27 11:10:32.00,37,-266,-2022,89,200,-64,96,147,-51,-121
,1149,2023-10-27 11:10:32.01,72,-268,-2042,64,186,-54,100,138,-38,-119
,1150,2023-10-27 11:10:32.02,35,-281,-2022,75,172,-42,118,128,-10,-123
,1151,2023-10-27 11:10:32.03,41,-263,-2044,76,154,-46,92,165,-73,-128
,1152,2023-10-27 11:10:32.04,64,-256,-2055,51,136,-47,108,154,-46,-131
,1153,2023-10-27 11:10:32.05,85,-250,-2029,51,111,-51,134,149,-15,-141
,1154,2023-10-27 11:10:32.06,101,-247,-2006,45,109,-61,122,90,32,-106
,1155,2023-10-27 11:10:32.07,98,-249,-2019,31,124,-80,119,135,-16,-127
,1156,2023-10-27 11:10:32.08,80,-259,-2061,25,119,-100,68,94,-26,-81
,1157,2023-10-27 11:10:32.09,90,-283,-2078,37,126,-118,53,75,-22,-64
,1158,2023-10-27 11:10:32.10,85,-303,-2085,69,126,-135,44,50,-6,-47
,1159,2023-10-27 11:10:32.11,97,-337,-2092,101,114,-149,69,87,-18,-78
,1160,2023-10-27 11:10:32.12,66,-345,-2083,134,109,-155,73,73,0,-73
,1161,2023-10-27 11:10:32.13,56,-381,-2112,180,94,-157,117,154,-37,-135
,1162,2023-10-27 11:10:32.14,56,-399,-2106,218,88,-153,108,106,2,-107
,1163,2023-10-27 11:10:32.15,49,-403,-2104,269,60,-144,148,187,-39,-167
,1164,2023-10-27 11:10:32.16,88,-396,-2076,314,47,-136,160,150,10,-155
,1165,2023-10-27 11:10:32.17,78,-378,-2033,346,47,-130,227,277,-50,-252
,1166,2023-10-27 11:10:32.18,75,-355,-2011,364,42,-123,213,200,13,-206
,1167,2023-10-27 11:10:32.19,66,-352,-2009,358,58,-122,315,272,43,-293
,1168,2023-10-27 11:10:32.20,68,-349,-2019,342,70,-122,268,204,64,-236
,1169,2023-10-27 11:10:32.21,53,-342,-1992,322,67,-114,355,280,75,-317
,1170,2023-10-27 11:10:32.22,59,-337,-2013,301,54,-104,296,203,93,-249
,1171,2023-10-27 11:10:32.23,64,-332,-1996,268,57,-95,377,333,44,-355
,1172,2023-10-27 11:10:32.24,46,-318,-2010,231,56,-91,333,267,66,-300
,1173,2023-10-27 11:10:32.25,65,-324,-2025,187,51,-83,442,371,71,-406
,1174,2023-10-27 11:10:32.26,78,-289,-1994,137,53,-77,347,243,104,-295
,1175,2023-10-27 11:10:32.27,91,-287,-1985,95,51,-74,434,374,60,-404
,1176,2023-10-27 11:10:32.28,97,-270,-1993,46,56,-76,347,261,86,-304
,1177,2023-10-27 11:10:32.29,126,-246,-1988,-8,71,-80,470,349,121,-409
,1178,2023-10-27 11:10:32.30,133,-238,-2001,-63,83,-85,367,234,133,-300
,1179,2023-10-27 11:10:32.31,169,-214,-1995,-118,108,-94,439,384,55,-411
,1180,2023-10-27 11:10:32.32,162,-224,-1998,-183,146,-98,351,231,120,-291
,1181,2023-10-27 11:10:32.33,168,-239,-2019,-245,178,-102,449,346,103,-397
,1182,2023-10-27 11:10:32.34,167,-259,-2029,-289,197,-91,340,242,98,-291
,1183,2023-10-27 11:10:32.35,158,-270,-2029,-320,211,-80,420,390,30,-405
,1184,2023-10-27 11:10:32.36,173,-282,-2050,-345,210,-63,293,233,60,-263
,1185,2023-10-27 11:10:32.37,193,-301,-2073,-355,207,-45,408,359,49,-383
,1186,2023-10-27 11:10:32.38,210,-317,-2065,-330,209,-31,319,203,116,-261
,1187,2023-10-27 11:10:32.39,213,-297,-2043,-294,217,-22,444,316,128,-380
,1188,2023-10-27 11:10:32.40,208,-301,-2038,-257,226,-16,291,169,122,-230
,1189,2023-10-27 11:10:32.41,211,-297,-2041,-212,230,-16,374,305,69,-339
,1190,2023-10-27 11:10:32.42,195,-297,-2049,-163,241,-19,267,158,109,-212
,1191,2023-10-27 11:10:32.43,205,-280,-2072,-109,239,-25,360,276,84,-318
,1192,2023-10-27 11:10:32.44,201,-261,-2072,-60,219,-32,222,120,102,-171
,1193,2023-10-27 11:10:32.45,214,-228,-2071,-14,205,-46,294,251,43,-272
,1194,2023-10-27 11:10:32.46,182,-200,-2087,15,196,-68,184,113,71,-148
,1195,2023-10-27 11:10:32.47,180,-203,-2115,21,187,-96,288,266,22,-277
,1196,2023-10-27 11:10:32.48,157,-190,-2135,17,165,-120,158,117,41,-137
,1197,2023-10-27 11:10:32.49,154,-195,-2142,18,134,-142,226,254,-28,-240
,1198,2023-10-27 11:10:32.50,123,-197,-2128,34,82,-164,140,97,43,-118
,1199,2023-10-27 11:10:32.51,118,-190,-2130,42,25,-190,282,252,30,-267
,1200,2023-10-27 11:10:32.52,134,-158,-2099,50,-38,-214,193,88,105,-140
,1201,2023-10-27 11:10:32.53,126,-176,-2090,60,-80,-240,310,257,53,-283
,1202,2023-10-27 11:10:32.54,128,-157,-2078,70,-115,-269,221,106,115,-163
,1203,2023-10-27 11:10:32.55,142,-167,-2083,65,-137,-298,360,259,101,-309
,1204,2023-10-27 11:10:32.56,167,-125,-2071,18,-104,-345,241,78,163,-159
,1205,2023-10-27 11:10:32.57,128,-113,-2031,-24,-72,-394,389,222,167,-305
,1206,2023-10-27 11:10:32.58,126,-128,-2034,-42,-83,-437,310,84,226,-197
,1207,2023-10-27 11:10:32.59,139,-120,-2008,-55,-100,-470,474,274,200,-374
,1208,2023-10-27 11:10:32.60,135,-141,-2004,-66,-115,-506,356,98,258,-227
,1209,2023-10-27 11:10:32.61,141,-153,-2036,-84,-91,-535,490,235,255,-362
,1210,2023-10-27 11:10:32.62,118,-164,-2011,-107,-66,-563,346,77,269,-211
,1211,2023-10-27 11:10:32.63,95,-188,-2054,-123,-70,-570,478,262,216,-370
,1212,2023-10-27 11:10:32.64,87,-209,-2042,-135,-78,-567,342,102,240,-222
,1213,2023-10-27 11:10:32.65,95,-215,-2040,-139,-87,-555,474,276,198,-375
,1214,2023-10-27 11:10:32.66,98,-226,-2035,-145,-91,-537,306,102,204,-204
,1215,2023-10-27 11:10:32.67,107,-219,-2041,-158,-83,-513,402,276,126,-339
,1216,2023-10-27 11:10:32.68,96,-210,-2034,-180,-65,-490,268,103,165,-185
