// Data mode  : Full
// Data quality  : High
// Acceleration sensor's range  : 16g
// Gyroscope sensor's range  : 2000dps
//
//ARTIFACT,NUM,DATE,ACC_X,ACC_Y,ACC_Z,GYRO_X,GYRO_Y,GYRO_Z,EOG_L,EOG_R,EOG_H,EOG_V
,1,2023-10-27 11:21:25.59,141,-245,-2047,16,88,-14,-347,-364,17,355
,2,2023-10-27 11:21:25.60,156,-231,-2037,10,93,-15,-528,-506,-22,517
,3,2023-10-27 11:21:25.61,165,-219,-2029,2,102,-21,-341,-355,14,348
,4,2023-10-27 11:21:25.62,160,-219,-2048,-5,118,-27,-520,-495,-25,507
,5,2023-10-27 11:21:25.63,168,-202,-2054,-13,119,-33,-313,-328,15,320
,6,2023-10-27 11:21:25.64,187,-201,-2051,-20,124,-42,-489,-455,-34,472
,7,2023-10-27 11:21:25.65,155,-223,-2055,-30,132,-47,-289,-289,0,289
,8,2023-10-27 11:21:25.66,152,-249,-2087,-38,123,-45,-468,-418,-50,443
,9,2023-10-27 11:21:25.67,153,-249,-2083,-42,114,-37,-262,-252,-10,257
,10,2023-10-27 11:21:25.68,158,-238,-2054,-43,106,-28,-436,-373,-63,404
,11,2023-10-27 11:21:25.69,135,-246,-2034,-38,94,-23,-234,-212,-22,223
,12,2023-10-27 11:21:25.70,155,-246,-2031,-34,82,-15,-401,-328,-73,364
,13,2023-10-27 11:21:25.71,163,-247,-1995,-30,79,-13,-202,-173,-29,187
,14,2023-10-27 11:21:25.72,162,-257,-1984,-16,72,-10,-390,-314,-76,352
,15,2023-10-27 11:21:25.73,151,-277,-2004,5,64,-3,-215,-191,-24,203
,16,2023-10-27 11:21:25.74,150,-279,-2007,29,46,7,-396,-328,-68,362
,17,2023-10-27 11:21:25.75,153,-268,-1986,52,44,10,-224,-199,-25,211
,18,2023-10-27 11:21:25.76,184,-254,-1981,72,46,10,-393,-343,-50,368
,19,2023-10-27 11:21:25.77,165,-254,-1972,80,51,8,-210,-225,15,217
,20,2023-10-27 11:21:25.78,175,-240,-1981,87,62,2,-401,-366,-35,383
,21,2023-10-27 11:21:25.79,189,-233,-1996,92,70,-10,-250,-260,10,255
,22,2023-10-27 11:21:25.80,183,-228,-2023,91,73,-22,-437,-387,-50,412
,23,2023-10-27 11:21:25.81,174,-222,-2043,85,71,-36,-291,-293,2,292
,24,2023-10-27 11:21:25.82,172,-204,-2067,72,66,-48,-470,-432,-38,451
,25,2023-10-27 11:21:25.83,179,-207,-2082,52,55,-61,-326,-349,23,337
,26,2023-10-27 11:21:25.84,173,-205,-2089,29,47,-72,-507,-485,-22,496
,27,2023-10-27 11:21:25.85,193,-205,-2109,6,40,-83,-363,-396,33,379
,28,2023-10-27 11:21:25.86,188,-215,-2102,-18,34,-91,-532,-512,-20,522
,29,2023-10-27 11:21:25.87,191,-235,-2088,-35,35,-100,-386,-413,27,399
,30,2023-10-27 11:21:25.88,180,-263,-2096,-41,36,-103,-538,-504,-34,521
,31,2023-10-27 11:21:25.89,180,-285,-2107,-36,25,-96,-388,-408,20,398
,32,2023-10-27 11:21:25.90,210,-277,-2101,-30,23,-90,-532,-501,-31,516
,33,2023-10-27 11:21:25.91,203,-269,-2094,-25,34,-87,-374,-401,27,387
,34,2023-10-27 11:21:25.92,195,-265,-2082,-17,40,-78,-502,-468,-34,485
,35,2023-10-27 11:21:25.93,223,-260,-2090,-7,47,-74,-341,-355,14,348
,36,2023-10-27 11:21:25.94,216,-261,-2078,1,52,-67,-470,-416,-54,443
,37,2023-10-27 11:21:25.95,218,-244,-2063,0,63,-63,-324,-323,-1,323
,38,2023-10-27 11:21:25.96,220,-230,-2042,-2,76,-58,-454,-388,-66,421
,39,2023-10-27 11:21:25.97,211,-249,-2031,-5,91,-52,-318,-314,-4,316
,40,2023-10-27 11:21:25.98,206,-271,-2039,-3,84,-41,-437,-373,-64,405
,41,2023-10-27 11:21:25.99,203,-261,-2047,2,82,-26,-302,-306,4,304
,42,2023-10-27 11:21:26.00,214,-256,-2030,11,73,-14,-422,-360,-62,391
,43,2023-10-27 11:21:26.01,220,-244,-2016,17,68,-1,-297,-298,1,297
,44,2023-10-27 11:21:26.02,223,-246,-2010,17,66,7,-411,-345,-66,378
,45,2023-10-27 11:21:26.03,219,-239,-2020,15,75,13,-304,-294,-10,299
,46,2023-10-27 11:21:26.04,232,-242,-2017,17,73,22,-407,-338,-69,372
,47,2023-10-27 11:21:26.05,227,-237,-2005,17,75,28,-301,-294,-7,297
,48,2023-10-27 11:21:26.06,235,-238,-2011,17,88,31,-404,-338,-66,371
,49,2023-10-27 11:21:26.07,233,-242,-2028,14,91,35,-302,-296,-6,299
,50,2023-10-27 11:21:26.08,245,-243,-2038,16,88,39,-407,-331,-76,369
,51,2023-10-27 11:21:26.09,233,-236,-2035,17,88,42,-326,-309,-17,317
,52,2023-10-27 11:21:26.10,230,-252,-2037,14,92,44,-420,-341,-79,380
,53,2023-10-27 11:21:26.11,231,-240,-2040,17,85,48,-337,-320,-17,328
,54,2023-10-27 11:21:26.12,240,-236,-2033,29,67,55,-427,-348,-79,387
,55,2023-10-27 11:21:26.13,245,-238,-2037,43,48,61,-357,-340,-17,348
,56,2023-10-27 11:21:26.14,218,-246,-2023,55,33,59,-447,-368,-79,407
,57,2023-10-27 11:21:26.15,224,-251,-2031,67,21,61,-384,-369,-15,376
,58,2023-10-27 11:21:26.16,204,-260,-2049,83,4,62,-450,-374,-76,412
,59,2023-10-27 11:21:26.17,221,-259,-2056,99,-18,65,-377,-362,-15,369
,60,2023-10-27 11:21:26.18,201,-268,-2055,117,-35,63,-435,-359,-76,397
,61,2023-10-27 11:21:26.19,210,-262,-2066,123,-41,62,-375,-358,-17,366
,62,2023-10-27 11:21:26.20,204,-278,-2071,119,-32,52,-435,-361,-74,398
,63,2023-10-27 11:21:26.21,219,-265,-2082,113,-30,41,-382,-366,-16,374
,64,2023-10-27 11:21:26.22,174,-254,-2071,110,-45,32,-434,-360,-74,397
,65,2023-10-27 11:21:26.23,181,-259,-2055,103,-52,29,-386,-370,-16,378
,66,2023-10-27 11:21:26.24,181,-296,-2000,105,-76,26,-437,-360,-77,398
,67,2023-10-27 11:21:26.25,176,-270,-1988,128,-77,22,-405,-388,-17,396
,68,2023-10-27 11:21:26.26,175,-254,-2070,134,-74,24,-450,-372,-78,411
,69,2023-10-27 11:21:26.27,174,-281,-2101,100,-69,22,-419,-399,-20,409
,70,2023-10-27 11:21:26.28,184,-285,-2077,65,-62,28,-451,-378,-73,414
,71,2023-10-27 11:21:26.29,196,-284,-2046,41,-48,26,-426,-409,-17,417
,72,2023-10-27 11:21:26.30,183,-296,-2046,25,-32,28,-446,-379,-67,412
,73,2023-10-27 11:21:26.31,195,-290,-2045,5,-24,32,-431,-415,-16,423
,74,2023-10-27 11:21:26.32,189,-289,-2026,-5,-25,37,-445,-376,-69,410
,75,2023-10-27 11:21:26.33,193,-295,-2023,-4,-24,42,-436,-420,-16,428
,76,2023-10-27 11:21:26.34,194,-295,-2009,0,-22,47,-442,-379,-63,410
,77,2023-10-27 11:21:26.35,204,-295,-2001,3,-14,50,-445,-429,-16,437
,78,2023-10-27 11:21:26.36,205,-290,-2002,-6,22,47,-448,-379,-69,413
,79,2023-10-27 11:21:26.37,172,-309,-1989,2,13,52,-460,-438,-22,449
,80,2023-10-27 11:21:26.38,188,-303,-2014,21,1,60,-444,-381,-63,412
,81,2023-10-27 11:21:26.39,217,-300,-2020,29,14,64,-458,-444,-14,451
,82,2023-10-27 11:21:26.40,189,-301,-2030,32,12,67,-438,-380,-58,409
,83,2023-10-27 11:21:26.41,196,-293,-2043,30,20,70,-464,-450,-14,457
,84,2023-10-27 11:21:26.42,192,-282,-2035,29,27,67,-441,-381,-60,411
,85,2023-10-27 11:21:26.43,207,-280,-2035,37,14,69,-468,-455,-13,461
,86,2023-10-27 11:21:26.44,220,-279,-2034,30,26,60,-434,-378,-56,406
,87,2023-10-27 11:21:26.45,186,-278,-2031,29,27,56,-468,-455,-13,461
,88,2023-10-27 11:21:26.46,189,-282,-2041,30,11,54,-432,-377,-55,404
,89,2023-10-27 11:21:26.47,209,-282,-2053,32,9,53,-471,-456,-15,463
,90,2023-10-27 11:21:26.48,186,-292,-2038,29,11,47,-425,-368,-57,396
,91,2023-10-27 11:21:26.49,203,-280,-2028,29,8,45,-478,-458,-20,468
,92,2023-10-27 11:21:26.50,204,-285,-2034,22,16,41,-422,-367,-55,394
,93,2023-10-27 11:21:26.51,197,-292,-2021,21,15,35,-480,-460,-20,470
,94,2023-10-27 11:21:26.52,185,-290,-2022,22,7,35,-418,-364,-54,391
,95,2023-10-27 11:21:26.53,204,-292,-2013,23,14,33,-483,-461,-22,472
,96,2023-10-27 11:21:26.54,178,-305,-2019,21,17,30,-412,-358,-54,385
,97,2023-10-27 11:21:26.55,183,-309,-2040,28,-1,33,-488,-464,-24,476
,98,2023-10-27 11:21:26.56,195,-301,-2056,34,-7,36,-409,-356,-53,382
,99,2023-10-27 11:21:26.57,183,-304,-2055,32,4,36,-491,-463,-28,477
,100,2023-10-27 11:21:26.58,168,-291,-2038,28,-4,37,-407,-349,-58,378
,101,2023-10-27 11:21:26.59,194,-296,-2056,27,-20,37,-492,-463,-29,477
,102,2023-10-27 11:21:26.60,185,-291,-2041,16,6,32,-400,-345,-55,372
,103,2023-10-27 11:21:26.61,163,-285,-2039,13,-9,30,-491,-462,-29,476
,104,2023-10-27 11:21:26.62,195,-299,-2054,11,-23,34,-397,-338,-59,367
,105,2023-10-27 11:21:26.63,163,-304,-2057,2,-16,32,-496,-467,-29,481
,106,2023-10-27 11:21:26.64,193,-299,-2061,-2,-28,34,-394,-340,-54,367
,107,2023-10-27 11:21:26.65,154,-302,-2055,-4,-32,34,-503,-470,-33,486
,108,2023-10-27 11:21:26.66,204,-301,-2053,-6,-39,35,-394,-342,-52,368
,109,2023-10-27 11:21:26.67,193,-295,-2044,-11,-31,36,-509,-476,-33,492
,110,2023-10-27 11:21:26.68,195,-284,-2021,-20,-22,34,-399,-347,-52,373
,111,2023-10-27 11:21:26.69,195,-297,-2025,-27,-10,27,-517,-483,-34,500
,112,2023-10-27 11:21:26.70,204,-301,-2036,-35,7,28,-400,-354,-46,377
,113,2023-10-27 11:21:26.71,200,-300,-2037,-40,18,25,-524,-493,-31,508
,114,2023-10-27 11:21:26.72,210,-301,-2042,-38,26,25,-393,-354,-39,373
,115,2023-10-27 11:21:26.73,202,-292,-2034,-38,33,25,-518,-491,-27,504
,116,2023-10-27 11:21:26.74,198,-290,-2034,-41,46,23,-384,-344,-40,364
,117,2023-10-27 11:21:26.75,205,-284,-2025,-43,52,19,-517,-488,-29,502
,118,2023-10-27 11:21:26.76,216,-273,-2014,-42,54,18,-381,-344,-37,362
,119,2023-10-27 11:21:26.77,215,-281,-2014,-41,54,16,-518,-488,-30,503
,120,2023-10-27 11:21:26.78,222,-274,-2017,-39,56,13,-382,-336,-46,359
,121,2023-10-27 11:21:26.79,222,-274,-2026,-39,59,9,-518,-483,-35,500
,122,2023-10-27 11:21:26.80,215,-267,-2021,-36,57,7,-372,-333,-39,352
,123,2023-10-27 11:21:26.81,195,-270,-2006,-23,37,7,-520,-482,-38,501
,124,2023-10-27 11:21:26.82,228,-271,-2038,-17,38,7,-372,-331,-41,351
,125,2023-10-27 11:21:26.83,198,-278,-2036,-11,34,3,-525,-484,-41,504
,126,2023-10-27 11:21:26.84,215,-282,-2043,0,13,4,-375,-333,-42,354
,127,2023-10-27 11:21:26.85,215,-274,-2035,9,-2,2,-529,-486,-43,507
,128,2023-10-27 11:21:26.86,212,-280,-2048,14,-13,5,-371,-330,-41,350
,129,2023-10-27 11:21:26.87,213,-273,-2047,13,-24,7,-535,-494,-41,514
,130,2023-10-27 11:21:26.88,222,-270,-2037,13,-32,9,-369,-330,-39,349
,131,2023-10-27 11:21:26.89,218,-271,-2041,13,-37,11,-534,-489,-45,511
,132,2023-10-27 11:21:26.90,203,-287,-2039,9,-38,13,-369,-332,-37,350
,133,2023-10-27 11:21:26.91,211,-283,-2039,5,-38,15,-534,-488,-46,511
,134,2023-10-27 11:21:26.92,208,-298,-2051,0,-37,21,-364,-325,-39,344
,135,2023-10-27 11:21:26.93,202,-290,-2047,-3,-39,26,-532,-486,-46,509
,136,2023-10-27 11:21:26.94,206,-289,-2059,-3,-38,32,-365,-326,-39,345
,137,2023-10-27 11:21:26.95,213,-300,-2058,-11,-32,41,-534,-487,-47,510
,138,2023-10-27 11:21:26.96,194,-296,-2048,-19,-28,40,-356,-323,-33,339
,139,2023-10-27 11:21:26.97,183,-289,-2031,-14,-39,51,-532,-486,-46,509
,140,2023-10-27 11:21:26.98,206,-293,-2039,-12,-39,60,-359,-325,-34,342
,141,2023-10-27 11:21:26.99,186,-302,-2041,-15,-43,69,-538,-485,-53,511
,142,2023-10-27 11:21:27.00,195,-294,-2050,-19,-41,77,-358,-325,-33,341
,143,2023-10-27 11:21:27.01,187,-292,-2049,-25,-32,77,-536,-485,-51,510
,144,2023-10-27 11:21:27.02,189,-279,-2035,-30,-24,78,-356,-324,-32,340
,145,2023-10-27 11:21:27.03,174,-282,-2031,-30,-32,77,-538,-482,-56,510
,146,2023-10-27 11:21:27.04,185,-272,-2030,-24,-52,85,-354,-323,-31,338
,147,2023-10-27 11:21:27.05,193,-268,-2043,-26,-46,80,-536,-483,-53,509
,148,2023-10-27 11:21:27.06,175,-264,-2042,-28,-38,73,-352,-326,-26,339
,149,2023-10-27 11:21:27.07,193,-258,-2033,-33,-42,68,-538,-483,-55,510
,150,2023-10-27 11:21:27.08,187,-256,-2038,-39,-35,63,-356,-328,-28,342
,151,2023-10-27 11:21:27.09,173,-258,-2029,-39,-42,55,-537,-483,-54,510
,152,2023-10-27 11:21:27.10,184,-254,-2030,-38,-47,46,-356,-326,-30,341
,153,2023-10-27 11:21:27.11,168,-254,-2030,-37,-45,41,-540,-481,-59,510
,154,2023-10-27 11:21:27.12,174,-258,-2041,-39,-45,35,-358,-332,-26,345
,155,2023-10-27 11:21:27.13,167,-257,-2044,-47,-28,21,-543,-482,-61,512
,156,2023-10-27 11:21:27.14,164,-261,-2026,-45,-28,18,-355,-329,-26,342
,157,2023-10-27 11:21:27.15,181,-260,-2034,-39,-36,14,-535,-475,-60,505
,158,2023-10-27 11:21:27.16,171,-263,-2018,-37,-35,12,-345,-329,-16,337
,159,2023-10-27 11:21:27.17,164,-265,-2027,-36,-33,11,-532,-475,-57,503
,160,2023-10-27 11:21:27.18,164,-262,-2019,-40,-24,9,-349,-330,-19,339
,161,2023-10-27 11:21:27.19,177,-263,-2034,-37,-20,9,-536,-473,-63,504
,162,2023-10-27 11:21:27.20,146,-276,-2033,-36,-20,10,-350,-330,-20,340
,163,2023-10-27 11:21:27.21,178,-273,-2037,-32,-18,15,-535,-473,-62,504
,164,2023-10-27 11:21:27.22,169,-275,-2063,-34,-11,18,-351,-329,-22,340
,165,2023-10-27 11:21:27.23,162,-257,-2044,-38,-4,21,-535,-470,-65,502
,166,2023-10-27 11:21:27.24,171,-249,-2040,-34,-5,22,-351,-330,-21,340
,167,2023-10-27 11:21:27.25,169,-260,-2048,-30,-5,19,-529,-464,-65,496
,168,2023-10-27 11:21:27.26,181,-267,-2002,-20,-5,16,-345,-326,-19,335
,169,2023-10-27 11:21:27.27,159,-254,-2075,-11,11,16,-522,-460,-62,491
,170,2023-10-27 11:21:27.28,169,-258,-2074,-22,-3,19,-343,-330,-13,336
,171,2023-10-27 11:21:27.29,169,-256,-2031,-21,-14,19,-523,-463,-60,493
,172,2023-10-27 11:21:27.30,185,-250,-2055,-17,-3,16,-352,-340,-12,346
,173,2023-10-27 11:21:27.31,146,-253,-2054,-23,-11,16,-525,-458,-67,491
,174,2023-10-27 11:21:27.32,178,-247,-2022,-28,-20,20,-350,-334,-16,342
,175,2023-10-27 11:21:27.33,177,-247,-2023,-27,-19,17,-522,-454,-68,488
,176,2023-10-27 11:21:27.34,163,-245,-2039,-31,-12,17,-359,-341,-18,350
,177,2023-10-27 11:21:27.35,185,-245,-2060,-45,0,16,-528,-457,-71,492
,178,2023-10-27 11:21:27.36,161,-249,-2034,-56,3,15,-362,-346,-16,354
,179,2023-10-27 11:21:27.37,167,-252,-2029,-51,-8,23,-526,-456,-70,491
,180,2023-10-27 11:21:27.38,159,-257,-2033,-48,-28,27,-365,-349,-16,357
,181,2023-10-27 11:21:27.39,166,-247,-2032,-48,-24,28,-524,-455,-69,489
,182,2023-10-27 11:21:27.40,165,-246,-2038,-51,-18,31,-366,-354,-12,360
,183,2023-10-27 11:21:27.41,160,-246,-2055,-51,-20,35,-524,-456,-68,490
,184,2023-10-27 11:21:27.42,185,-243,-2052,-53,-11,35,-371,-360,-11,365
,185,2023-10-27 11:21:27.43,146,-248,-2052,-58,-7,37,-526,-456,-70,491
,186,2023-10-27 11:21:27.44,167,-240,-2050,-58,-18,41,-382,-370,-12,376
,187,2023-10-27 11:21:27.45,174,-228,-2051,-59,-18,39,-533,-464,-69,498
,188,2023-10-27 11:21:27.46,169,-227,-2044,-62,-7,39,-385,-378,-7,381
,189,2023-10-27 11:21:27.47,158,-234,-2052,-61,-10,40,-527,-459,-68,493
,190,2023-10-27 11:21:27.48,172,-234,-2048,-61,-10,41,-383,-377,-6,380
,191,2023-10-27 11:21:27.49,178,-219,-2046,-60,-6,37,-521,-455,-66,488
,192,2023-10-27 11:21:27.50,153,-221,-2045,-58,-5,33,-390,-381,-9,385
,193,2023-10-27 11:21:27.51,171,-227,-2049,-55,-6,31,-524,-454,-70,489
,194,2023-10-27 11:21:27.52,168,-221,-2038,-50,-9,32,-396,-386,-10,391
,195,2023-10-27 11:21:27.53,182,-223,-2035,-45,-10,29,-522,-451,-71,486
,196,2023-10-27 11:21:27.54,174,-218,-2031,-48,4,25,-395,-387,-8,391
,197,2023-10-27 11:21:27.55,157,-214,-2032,-46,-2,24,-517,-448,-69,482
,198,2023-10-27 11:21:27.56,173,-213,-2046,-43,1,18,-398,-390,-8,394
,199,2023-10-27 11:21:27.57,175,-214,-2046,-44,-1,20,-510,-442,-68,476
,200,2023-10-27 11:21:27.58,172,-214,-2045,-42,-8,18,-399,-392,-7,395
,201,2023-10-27 11:21:27.59,168,-209,-2051,-39,-14,22,-509,-442,-67,475
,202,2023-10-27 11:21:27.60,162,-219,-2044,-35,-21,25,-407,-398,-9,402
,203,2023-10-27 11:21:27.61,159,-230,-2057,-32,-23,28,-507,-439,-68,473
,204,2023-10-27 11:21:27.62,179,-223,-2069,-35,-5,32,-408,-400,-8,404
,205,2023-10-27 11:21:27.63,151,-209,-2057,-32,-11,34,-501,-432,-69,466
,206,2023-10-27 11:21:27.64,184,-208,-2045,-23,-22,38,-407,-402,-5,404
,207,2023-10-27 11:21:27.65,160,-223,-2044,-26,-15,39,-497,-432,-65,464
,208,2023-10-27 11:21:27.66,158,-214,-2046,-18,-31,44,-415,-409,-6,412
,209,2023-10-27 11:21:27.67,171,-225,-2047,-15,-26,47,-495,-429,-66,462
,210,2023-10-27 11:21:27.68,163,-220,-2065,-10,-23,50,-413,-405,-8,409
,211,2023-10-27 11:21:27.69,168,-203,-2070,-11,-12,52,-486,-421,-65,453
,212,2023-10-27 11:21:27.70,155,-198,-2037,-13,-25,55,-415,-407,-8,411
,213,2023-10-27 11:21:27.71,164,-215,-2054,-12,-26,58,-490,-417,-73,453
,214,2023-10-27 11:21:27.72,147,-211,-2060,-13,-32,58,-424,-408,-16,416
,215,2023-10-27 11:21:27.73,151,-205,-2051,-16,-30,60,-488,-410,-78,449
,216,2023-10-27 11:21:27.74,144,-195,-2047,-15,-31,60,-429,-411,-18,420
,217,2023-10-27 11:21:27.75,141,-196,-2052,-16,-40,62,-484,-409,-75,446
,218,2023-10-27 11:21:27.76,159,-199,-2053,-20,-32,60,-432,-415,-17,423
,219,2023-10-27 11:21:27.77,134,-200,-2049,-20,-41,63,-482,-408,-74,445
,220,2023-10-27 11:21:27.78,152,-197,-2055,-20,-44,62,-436,-422,-14,429
,221,2023-10-27 11:21:27.79,144,-196,-2033,-23,-27,58,-476,-404,-72,440
,222,2023-10-27 11:21:27.80,124,-197,-2039,-17,-43,59,-441,-425,-16,433
,223,2023-10-27 11:21:27.81,174,-213,-2056,-18,-39,61,-473,-401,-72,437
,224,2023-10-27 11:21:27.82,119,-196,-2045,-22,-25,57,-445,-428,-17,436
,225,2023-10-27 11:21:27.83,152,-195,-2053,-17,-25,59,-470,-400,-70,435
,226,2023-10-27 11:21:27.84,140,-193,-2049,-16,-25,55,-448,-430,-18,439
,227,2023-10-27 11:21:27.85,130,-204,-2053,-15,-21,53,-464,-394,-70,429
,228,2023-10-27 11:21:27.86,137,-202,-2055,-11,-20,52,-448,-428,-20,438
,229,2023-10-27 11:21:27.87,139,-199,-2063,-7,-23,51,-459,-384,-75,421
,230,2023-10-27 11:21:27.88,124,-204,-2074,-3,-17,48,-453,-427,-26,440
,231,2023-10-27 11:21:27.89,134,-201,-2063,5,-29,50,-454,-382,-72,418
,232,2023-10-27 11:21:27.90,141,-198,-2057,10,-25,47,-453,-432,-21,442
,233,2023-10-27 11:21:27.91,120,-209,-2039,11,-21,48,-445,-377,-68,411
,234,2023-10-27 11:21:27.92,145,-215,-2046,11,-14,49,-456,-435,-21,445
,235,2023-10-27 11:21:27.93,111,-219,-2033,19,-29,49,-444,-376,-68,410
,236,2023-10-27 11:21:27.94,120,-220,-2035,28,-32,49,-460,-440,-20,450
,237,2023-10-27 11:21:27.95,133,-223,-2023,36,-31,52,-440,-377,-63,408
,238,2023-10-27 11:21:27.96,111,-213,-2017,37,-26,54,-468,-450,-18,459
,239,2023-10-27 11:21:27.97,135,-215,-2019,40,-26,54,-441,-378,-63,409
,240,2023-10-27 11:21:27.98,122,-205,-2013,35,-21,54,-473,-453,-20,463
,241,2023-10-27 11:21:27.99,124,-206,-2025,33,-16,54,-435,-377,-58,406
,242,2023-10-27 11:21:28.00,118,-200,-2035,28,-14,53,-477,-459,-18,468
,243,2023-10-27 11:21:28.01,124,-204,-2045,17,-12,50,-440,-381,-59,410
,244,2023-10-27 11:21:28.02,120,-198,-2041,4,0,44,-479,-459,-20,469
,245,2023-10-27 11:21:28.03,109,-198,-2048,-1,-7,42,-426,-368,-58,397
,246,2023-10-27 11:21:28.04,141,-200,-2050,-6,-4,40,-478,-456,-22,467
,247,2023-10-27 11:21:28.05,132,-182,-2039,-12,12,31,-423,-365,-58,394
,248,2023-10-27 11:21:28.06,149,-200,-2051,-14,17,22,-487,-463,-24,475
,249,2023-10-27 11:21:28.07,141,-199,-2062,-18,26,13,-421,-363,-58,392
,250,2023-10-27 11:21:28.08,130,-198,-2066,-21,32,4,-487,-463,-24,475
,251,2023-10-27 11:21:28.09,133,-207,-2063,-15,32,0,-416,-357,-59,386
,252,2023-10-27 11:21:28.10,132,-207,-2067,-18,33,-7,-490,-461,-29,475
,253,2023-10-27 11:21:28.11,141,-215,-2065,-19,33,-11,-412,-354,-58,383
,254,2023-10-27 11:21:28.12,139,-203,-2051,-19,33,-10,-502,-464,-38,483
,255,2023-10-27 11:21:28.13,126,-200,-2047,-17,30,-10,-398,-323,-75,360
,256,2023-10-27 11:21:28.14,126,-198,-2045,-17,24,-8,-466,-421,-45,443
,257,2023-10-27 11:21:28.15,128,-202,-2044,-15,18,-4,-353,-291,-62,322
,258,2023-10-27 11:21:28.16,135,-210,-2051,-13,9,1,-456,-424,-32,440
,259,2023-10-27 11:21:28.17,128,-210,-2061,-13,1,7,-362,-308,-54,335
,260,2023-10-27 11:21:28.18,131,-209,-2059,-9,-7,18,-474,-439,-35,456
,261,2023-10-27 11:21:28.19,155,-210,-2060,-5,-9,23,-367,-313,-54,340
,262,2023-10-27 11:21:28.20,174,-203,-2091,-17,23,24,-483,-447,-36,465
,263,2023-10-27 11:21:28.21,104,-209,-2052,-19,14,23,-374,-318,-56,346
,264,2023-10-27 11:21:28.22,152,-216,-2052,-4,11,30,-496,-460,-36,478
,265,2023-10-27 11:21:28.23,166,-221,-2058,14,19,31,-387,-338,-49,362
,266,2023-10-27 11:21:28.24,137,-217,-2015,27,21,30,-516,-487,-29,501
,267,2023-10-27 11:21:28.25,168,-216,-2026,38,27,27,-393,-350,-43,371
,268,2023-10-27 11:21:28.26,150,-207,-2045,41,51,19,-520,-489,-31,504
,269,2023-10-27 11:21:28.27,154,-198,-2045,45,55,12,-395,-350,-45,372
,270,2023-10-27 11:21:28.28,147,-204,-2064,49,56,6,-520,-488,-32,504
,271,2023-10-27 11:21:28.29,137,-199,-2047,38,44,0,-387,-342,-45,364
,272,2023-10-27 11:21:28.30,144,-211,-2049,32,33,1,-522,-493,-29,507
,273,2023-10-27 11:21:28.31,135,-216,-2052,24,23,3,-392,-364,-28,378
,274,2023-10-27 11:21:28.32,141,-217,-2063,24,15,6,-552,-536,-16,544
,275,2023-10-27 11:21:28.33,135,-205,-2070,19,2,8,-426,-405,-21,415
,276,2023-10-27 11:21:28.34,143,-212,-2059,14,-1,12,-572,-552,-20,562
,277,2023-10-27 11:21:28.35,143,-216,-2046,11,4,14,-422,-398,-24,410
,278,2023-10-27 11:21:28.36,140,-223,-2060,6,13,15,-563,-535,-28,549
,279,2023-10-27 11:21:28.37,163,-205,-2045,-1,19,15,-407,-380,-27,393
,280,2023-10-27 11:21:28.38,154,-201,-2045,-3,26,8,-551,-524,-27,537
,281,2023-10-27 11:21:28.39,151,-203,-2033,-7,29,4,-380,-361,-19,370
,282,2023-10-27 11:21:28.40,146,-202,-2017,-12,38,-1,-539,-513,-26,526
,283,2023-10-27 11:21:28.41,157,-207,-2021,-15,42,-3,-377,-356,-21,366
,284,2023-10-27 11:21:28.42,142,-203,-2028,-18,41,-9,-554,-523,-31,538
,285,2023-10-27 11:21:28.43,141,-193,-2050,-15,44,-17,-388,-368,-20,378
,286,2023-10-27 11:21:28.44,159,-173,-2014,-17,45,-27,-556,-527,-29,541
,287,2023-10-27 11:21:28.45,155,-176,-2011,-21,51,-35,-384,-370,-14,377
,288,2023-10-27 11:21:28.46,163,-168,-2016,-34,49,-50,-554,-537,-17,545
,289,2023-10-27 11:21:28.47,144,-162,-2014,-50,60,-66,-395,-389,-6,392
,290,2023-10-27 11:21:28.48,147,-175,-2031,-52,50,-75,-564,-549,-15,556
,291,2023-10-27 11:21:28.49,182,-167,-2042,-56,56,-80,-380,-378,-2,379
,292,2023-10-27 11:21:28.50,159,-188,-2042,-69,71,-90,-543,-523,-20,533
,293,2023-10-27 11:21:28.51,146,-190,-2038,-65,55,-92,-360,-349,-11,354
,294,2023-10-27 11:21:28.52,207,-181,-2022,-70,62,-92,-521,-480,-41,500
,295,2023-10-27 11:21:28.53,168,-205,-2035,-71,88,-94,-323,-296,-27,309
,296,2023-10-27 11:21:28.54,156,-207,-2042,-60,63,-84,-490,-434,-56,462
,297,2023-10-27 11:21:28.55,180,-218,-2057,-49,57,-69,-294,-257,-37,275
,298,2023-10-27 11:21:28.56,164,-219,-2044,-43,73,-57,-464,-402,-62,433
,299,2023-10-27 11:21:28.57,156,-213,-2024,-35,66,-38,-263,-223,-40,243
,300,2023-10-27 11:21:28.58,165,-206,-2032,-32,53,-22,-445,-377,-68,411
,301,2023-10-27 11:21:28.59,171,-202,-2041,-32,41,-5,-263,-223,-40,243
,302,2023-10-27 11:21:28.60,181,-190,-2063,-30,42,9,-458,-390,-68,424
,303,2023-10-27 11:21:28.61,187,-187,-2052,-29,44,23,-272,-236,-36,254
,304,2023-10-27 11:21:28.62,171,-188,-2042,-29,33,38,-467,-401,-66,434
,305,2023-10-27 11:21:28.63,169,-197,-2039,-30,21,52,-291,-259,-32,275
,306,2023-10-27 11:21:28.64,161,-203,-2035,-23,8,69,-494,-435,-59,464
,307,2023-10-27 11:21:28.65,181,-206,-2037,-15,-2,79,-322,-301,-21,311
,308,2023-10-27 11:21:28.66,176,-208,-2051,-4,-8,94,-521,-469,-52,495
,309,2023-10-27 11:21:28.67,171,-201,-2057,4,-14,101,-338,-319,-19,328
,310,2023-10-27 11:21:28.68,167,-191,-2066,9,-16,107,-544,-477,-67,510
,311,2023-10-27 11:21:28.69,174,-182,-2087,9,-16,108,-342,-283,-59,312
,312,2023-10-27 11:21:28.70,172,-167,-2093,9,-21,107,-458,-354,-104,406
,313,2023-10-27 11:21:28.71,191,-155,-2099,7,-26,103,-241,-197,-44,219
,314,2023-10-27 11:21:28.72,170,-152,-2087,5,-29,90,-454,-391,-63,422
,315,2023-10-27 11:21:28.73,197,-155,-2081,7,-31,74,-310,-296,-14,303
,316,2023-10-27 11:21:28.74,189,-139,-2083,3,-27,54,-520,-466,-54,493
,317,2023-10-27 11:21:28.75,205,-142,-2058,-5,-10,32,-349,-334,-15,341
,318,2023-10-27 11:21:28.76,193,-140,-2056,-13,5,12,-535,-483,-52,509
,319,2023-10-27 11:21:28.77,187,-148,-2050,-21,15,-10,-360,-347,-13,353
,320,2023-10-27 11:21:28.78,182,-140,-2032,-28,20,-25,-545,-487,-58,516
,321,2023-10-27 11:21:28.79,180,-145,-2032,-34,22,-35,-364,-350,-14,357
,322,2023-10-27 11:21:28.80,154,-158,-2029,-38,8,-38,-538,-479,-59,508
,323,2023-10-27 11:21:28.81,159,-152,-2015,-38,-13,-35,-363,-350,-13,356
,324,2023-10-27 11:21:28.82,166,-149,-2000,-39,-17,-29,-533,-474,-59,503
,325,2023-10-27 11:21:28.83,166,-160,-1997,-48,-20,-24,-363,-351,-12,357
,326,2023-10-27 11:21:28.84,167,-157,-1998,-61,-20,-18,-520,-465,-55,492
,327,2023-10-27 11:21:28.85,176,-152,-1993,-71,-21,-8,-346,-338,-8,342
,328,2023-10-27 11:21:28.86,155,-155,-2006,-80,-24,-1,-511,-458,-53,484
,329,2023-10-27 11:21:28.87,145,-155,-2011,-85,-31,12,-341,-340,-1,340
,330,2023-10-27 11:21:28.88,158,-157,-2006,-91,-38,28,-515,-462,-53,488
,331,2023-10-27 11:21:28.89,140,-155,-2021,-97,-44,42,-352,-350,-2,351
,332,2023-10-27 11:21:28.90,154,-158,-2037,-95,-48,56,-516,-458,-58,487
,333,2023-10-27 11:21:28.91,217,-149,-2072,-111,-14,61,-351,-347,-4,349
,334,2023-10-27 11:21:28.92,153,-148,-2057,-128,-1,59,-516,-459,-57,487
,335,2023-10-27 11:21:28.93,161,-143,-2072,-133,-1,72,-355,-352,-3,353
,336,2023-10-27 11:21:28.94,167,-150,-2102,-135,3,79,-516,-461,-55,488
,337,2023-10-27 11:21:28.95,143,-145,-2109,-135,6,84,-360,-362,2,361
,338,2023-10-27 11:21:28.96,160,-144,-2113,-122,-12,94,-514,-460,-54,487
,339,2023-10-27 11:21:28.97,152,-144,-2136,-118,-6,101,-365,-366,1,365
,340,2023-10-27 11:21:28.98,144,-143,-2130,-112,-3,101,-520,-467,-53,493
,341,2023-10-27 11:21:28.99,162,-143,-2144,-104,-7,102,-373,-381,8,377
,342,2023-10-27 11:21:29.00,148,-137,-2147,-90,-12,98,-525,-472,-53,498
,343,2023-10-27 11:21:29.01,153,-136,-2128,-66,-19,95,-379,-385,6,382
,344,2023-10-27 11:21:29.02,163,-134,-2114,-37,-29,95,-520,-467,-53,493
,345,2023-10-27 11:21:29.03,189,-139,-2107,-27,-8,85,-382,-388,6,385
,346,2023-10-27 11:21:29.04,169,-123,-2090,-29,10,70,-522,-469,-53,495
,347,2023-10-27 11:21:29.05,173,-118,-2091,-25,28,58,-393,-399,6,396
,348,2023-10-27 11:21:29.06,159,-119,-2089,-18,36,46,-525,-473,-52,499
,349,2023-10-27 11:21:29.07,151,-108,-2066,-16,30,37,-394,-401,7,397
,350,2023-10-27 11:21:29.08,148,-95,-2030,-14,21,31,-519,-470,-49,494
,351,2023-10-27 11:21:29.09,159,-109,-2025,-12,10,21,-397,-406,9,401
,352,2023-10-27 11:21:29.10,155,-111,-2018,-14,2,15,-516,-467,-49,491
,353,2023-10-27 11:21:29.11,152,-100,-2006,-14,-5,8,-395,-413,18,404
,354,2023-10-27 11:21:29.12,145,-97,-1984,-11,-9,0,-509,-466,-43,487
,355,2023-10-27 11:21:29.13,157,-82,-1982,-12,-14,-9,-401,-415,14,408
,356,2023-10-27 11:21:29.14,172,-104,-1968,-14,-20,-14,-509,-463,-46,486
,357,2023-10-27 11:21:29.15,153,-99,-1978,-9,-25,-17,-403,-415,12,409
,358,2023-10-27 11:21:29.16,165,-119,-1986,-7,-26,-20,-502,-458,-44,480
,359,2023-10-27 11:21:29.17,145,-118,-2003,-8,-26,-20,-403,-416,13,409
,360,2023-10-27 11:21:29.18,159,-106,-2005,-4,-34,-20,-498,-453,-45,475
,361,2023-10-27 11:21:29.19,162,-118,-2019,-2,-37,-14,-404,-419,15,411
,362,2023-10-27 11:21:29.20,160,-117,-2028,2,-38,-10,-491,-447,-44,469
,363,2023-10-27 11:21:29.21,160,-119,-2039,0,-36,-3,-394,-411,17,402
,364,2023-10-27 11:21:29.22,156,-125,-2055,0,-30,4,-482,-434,-48,458
,365,2023-10-27 11:21:29.23,157,-130,-2066,-3,-18,8,-406,-414,8,410
,366,2023-10-27 11:21:29.24,168,-131,-2082,-4,-5,13,-489,-443,-46,466
,367,2023-10-27 11:21:29.25,158,-139,-2083,-10,6,18,-410,-421,11,415
,368,2023-10-27 11:21:29.26,165,-129,-2093,-19,23,20,-477,-432,-45,454
,369,2023-10-27 11:21:29.27,152,-133,-2083,-26,33,27,-405,-418,13,411
,370,2023-10-27 11:21:29.28,164,-119,-2090,-28,35,33,-472,-424,-48,448
,371,2023-10-27 11:21:29.29,155,-117,-2081,-33,37,37,-416,-425,9,420
,372,2023-10-27 11:21:29.30,159,-118,-2086,-39,42,39,-472,-427,-45,449
,373,2023-10-27 11:21:29.31,159,-105,-2079,-47,47,38,-422,-435,13,428
,374,2023-10-27 11:21:29.32,159,-95,-2058,-51,45,37,-472,-428,-44,450
,375,2023-10-27 11:21:29.33,170,-96,-2056,-51,42,34,-433,-443,10,438
,376,2023-10-27 11:21:29.34,159,-87,-2053,-51,35,30,-476,-430,-46,453
,377,2023-10-27 11:21:29.35,170,-87,-2048,-46,23,24,-439,-446,7,442
,378,2023-10-27 11:21:29.36,158,-81,-2039,-42,18,15,-473,-426,-47,449
,379,2023-10-27 11:21:29.37,171,-84,-2045,-33,10,6,-442,-452,10,447
,380,2023-10-27 11:21:29.38,162,-78,-2042,-26,2,-1,-467,-426,-41,446
,381,2023-10-27 11:21:29.39,167,-82,-2027,-20,-7,-5,-443,-454,11,448
,382,2023-10-27 11:21:29.40,160,-83,-2047,-14,-12,-11,-456,-414,-42,435
,383,2023-10-27 11:21:29.41,150,-105,-2064,-13,-22,-12,-438,-448,10,443
,384,2023-10-27 11:21:29.42,143,-97,-2069,-9,-38,-12,-444,-406,-38,425
,385,2023-10-27 11:21:29.43,146,-92,-2057,-1,-47,-8,-445,-454,9,449
,386,2023-10-27 11:21:29.44,148,-99,-2054,4,-56,-7,-447,-409,-38,428
,387,2023-10-27 11:21:29.45,144,-99,-2050,0,-58,-4,-451,-459,8,455
,388,2023-10-27 11:21:29.46,142,-106,-2065,-5,-59,1,-441,-404,-37,422
,389,2023-10-27 11:21:29.47,145,-109,-2075,0,-62,5,-450,-457,7,453
,390,2023-10-27 11:21:29.48,138,-104,-2078,1,-65,10,-434,-397,-37,415
,391,2023-10-27 11:21:29.49,148,-111,-2074,6,-66,16,-454,-462,8,458
,392,2023-10-27 11:21:29.50,149,-111,-2073,6,-55,20,-433,-398,-35,415
,393,2023-10-27 11:21:29.51,159,-113,-2060,4,-46,24,-459,-463,4,461
,394,2023-10-27 11:21:29.52,178,-112,-2006,27,-26,19,-429,-391,-38,410
,395,2023-10-27 11:21:29.53,128,-88,-2124,28,1,19,-465,-467,2,466
,396,2023-10-27 11:21:29.54,142,-127,-2064,6,-18,25,-428,-392,-36,410
,397,2023-10-27 11:21:29.55,153,-106,-2045,11,2,26,-472,-474,2,473
,398,2023-10-27 11:21:29.56,141,-120,-2072,24,2,25,-427,-390,-37,408
,399,2023-10-27 11:21:29.57,149,-99,-2062,24,4,27,-474,-474,0,474
,400,2023-10-27 11:21:29.58,166,-76,-2046,25,18,24,-422,-389,-33,405
,401,2023-10-27 11:21:29.59,155,-100,-2054,27,24,15,-479,-482,3,480
,402,2023-10-27 11:21:29.60,158,-103,-2054,30,23,12,-420,-388,-32,404
,403,2023-10-27 11:21:29.61,163,-102,-2053,28,21,10,-486,-485,-1,485
,404,2023-10-27 11:21:29.62,144,-111,-2049,30,26,8,-416,-381,-35,398
,405,2023-10-27 11:21:29.63,149,-115,-2055,32,28,10,-494,-488,-6,491
,406,2023-10-27 11:21:29.64,148,-117,-2052,33,23,8,-416,-382,-34,399
,407,2023-10-27 11:21:29.65,153,-110,-2047,32,21,11,-498,-496,-2,497
,408,2023-10-27 11:21:29.66,139,-107,-2036,29,22,13,-411,-377,-34,394
,409,2023-10-27 11:21:29.67,150,-108,-2038,28,27,13,-488,-485,-3,486
,410,2023-10-27 11:21:29.68,143,-106,-2045,24,28,13,-400,-368,-32,384
,411,2023-10-27 11:21:29.69,155,-107,-2046,23,27,16,-488,-483,-5,485
,412,2023-10-27 11:21:29.70,153,-115,-2045,18,28,19,-400,-363,-37,381
,413,2023-10-27 11:21:29.71,147,-114,-2049,17,26,20,-500,-485,-15,492
,414,2023-10-27 11:21:29.72,139,-111,-2051,17,22,23,-395,-355,-40,375
,415,2023-10-27 11:21:29.73,157,-105,-2053,17,19,24,-498,-480,-18,489
,416,2023-10-27 11:21:29.74,153,-104,-2060,18,14,27,-390,-354,-36,372
,417,2023-10-27 11:21:29.75,150,-108,-2056,16,10,26,-500,-483,-17,491
,418,2023-10-27 11:21:29.76,154,-104,-2071,17,3,25,-388,-354,-34,371
,419,2023-10-27 11:21:29.77,158,-102,-2071,18,-5,27,-505,-488,-17,496
,420,2023-10-27 11:21:29.78,149,-108,-2061,21,-11,24,-382,-352,-30,367
,421,2023-10-27 11:21:29.79,163,-109,-2059,22,-14,24,-507,-486,-21,496
,422,2023-10-27 11:21:29.80,156,-107,-2062,21,-12,21,-380,-348,-32,364
,423,2023-10-27 11:21:29.81,159,-112,-2063,22,-12,20,-510,-487,-23,498
,424,2023-10-27 11:21:29.82,153,-107,-2057,20,-9,15,-379,-349,-30,364
,425,2023-10-27 11:21:29.83,159,-115,-2060,23,-5,10,-510,-489,-21,499
,426,2023-10-27 11:21:29.84,141,-123,-2073,26,-9,13,-377,-346,-31,361
,427,2023-10-27 11:21:29.85,153,-116,-2054,26,-12,15,-513,-490,-23,501
,428,2023-10-27 11:21:29.86,152,-115,-2054,29,-9,13,-372,-345,-27,358
,429,2023-10-27 11:21:29.87,141,-121,-2049,30,-6,12,-519,-495,-24,507
,430,2023-10-27 11:21:29.88,153,-116,-2041,29,-6,16,-376,-347,-29,361
,431,2023-10-27 11:21:29.89,150,-126,-2045,28,-8,16,-526,-498,-28,512
,432,2023-10-27 11:21:29.90,140,-119,-2052,30,-12,22,-377,-348,-29,362
,433,2023-10-27 11:21:29.91,146,-119,-2036,31,-15,21,-526,-499,-27,512
,434,2023-10-27 11:21:29.92,149,-123,-2050,30,-13,25,-371,-346,-25,358
,435,2023-10-27 11:21:29.93,139,-119,-2050,25,-13,28,-525,-503,-22,514
,436,2023-10-27 11:21:29.94,144,-116,-2046,23,-14,27,-362,-346,-16,354
,437,2023-10-27 11:21:29.95,142,-122,-2045,19,-14,28,-521,-502,-19,511
,438,2023-10-27 11:21:29.96,158,-116,-2058,17,-8,28,-356,-345,-11,350
,439,2023-10-27 11:21:29.97,148,-117,-2052,-3,23,23,-517,-499,-18,508
,440,2023-10-27 11:21:29.98,124,-114,-2039,-1,6,22,-352,-342,-10,347
,441,2023-10-27 11:21:29.99,147,-123,-2055,2,3,24,-520,-502,-18,511
,442,2023-10-27 11:21:30.00,151,-114,-2057,-6,21,20,-352,-344,-8,348
,443,2023-10-27 11:21:30.01,116,-122,-2053,-3,10,20,-520,-503,-17,511
,444,2023-10-27 11:21:30.02,151,-125,-2060,-2,8,22,-347,-344,-3,345
,445,2023-10-27 11:21:30.03,155,-117,-2066,-2,15,18,-515,-492,-23,503
,446,2023-10-27 11:21:30.04,123,-113,-2047,-2,12,16,-345,-334,-11,339
,447,2023-10-27 11:21:30.05,151,-112,-2050,0,12,18,-523,-494,-29,508
,448,2023-10-27 11:21:30.06,153,-116,-2054,-2,10,16,-357,-351,-6,354
,449,2023-10-27 11:21:30.07,149,-112,-2065,-4,16,15,-528,-502,-26,515
,450,2023-10-27 11:21:30.08,139,-110,-2057,-3,14,8,-350,-343,-7,346
,451,2023-10-27 11:21:30.09,150,-118,-2048,4,8,9,-531,-500,-31,515
,452,2023-10-27 11:21:30.10,140,-121,-2056,6,4,8,-341,-334,-7,337
,453,2023-10-27 11:21:30.11,146,-117,-2059,6,3,6,-526,-497,-29,511
,454,2023-10-27 11:21:30.12,148,-112,-2059,6,1,5,-349,-346,-3,347
,455,2023-10-27 11:21:30.13,147,-116,-2054,5,0,7,-533,-504,-29,518
,456,2023-10-27 11:21:30.14,158,-107,-2047,1,4,5,-347,-344,-3,345
,457,2023-10-27 11:21:30.15,141,-109,-2047,2,-5,9,-525,-499,-26,512
,458,2023-10-27 11:21:30.16,144,-109,-2051,2,-8,10,-340,-344,4,342
,459,2023-10-27 11:21:30.17,142,-112,-2065,-2,3,11,-529,-500,-29,514
,460,2023-10-27 11:21:30.18,134,-113,-2048,-2,-1,15,-347,-343,-4,345
,461,2023-10-27 11:21:30.19,140,-113,-2055,2,-10,20,-529,-497,-32,513
,462,2023-10-27 11:21:30.20,146,-114,-2053,-2,-1,18,-339,-338,-1,338
,463,2023-10-27 11:21:30.21,132,-103,-2053,-1,-4,18,-524,-490,-34,507
,464,2023-10-27 11:21:30.22,158,-111,-2044,-2,-5,21,-337,-336,-1,336
,465,2023-10-27 11:21:30.23,152,-118,-2048,-1,10,19,-526,-488,-38,507
,466,2023-10-27 11:21:30.24,137,-118,-2057,1,4,20,-344,-340,-4,342
,467,2023-10-27 11:21:30.25,156,-109,-2048,4,1,22,-527,-487,-40,507
,468,2023-10-27 11:21:30.26,154,-111,-2054,6,10,21,-341,-339,-2,340
,469,2023-10-27 11:21:30.27,144,-123,-2058,4,7,22,-525,-487,-38,506
,470,2023-10-27 11:21:30.28,154,-108,-2060,8,3,20,-343,-345,2,344
,471,2023-10-27 11:21:30.29,163,-101,-2052,10,11,20,-524,-486,-38,505
,472,2023-10-27 11:21:30.30,153,-98,-2044,12,15,17,-339,-342,3,340
,473,2023-10-27 11:21:30.31,156,-101,-2055,10,16,11,-522,-483,-39,502
,474,2023-10-27 11:21:30.32,142,-106,-2059,10,15,5,-345,-345,0,345
,475,2023-10-27 11:21:30.33,144,-107,-2070,10,12,6,-520,-481,-39,500
,476,2023-10-27 11:21:30.34,143,-112,-2057,17,5,6,-338,-344,6,341
,477,2023-10-27 11:21:30.35,145,-108,-2051,16,3,6,-519,-482,-37,500
,478,2023-10-27 11:21:30.36,143,-115,-2045,9,6,5,-343,-348,5,345
,479,2023-10-27 11:21:30.37,150,-112,-2043,0,14,5,-519,-480,-39,499
,480,2023-10-27 11:21:30.38,146,-106,-2037,-2,14,7,-339,-350,11,344
,481,2023-10-27 11:21:30.39,147,-105,-2038,-10,17,4,-517,-479,-38,498
,482,2023-10-27 11:21:30.40,146,-110,-2049,-15,20,6,-344,-355,11,349
,483,2023-10-27 11:21:30.41,140,-111,-2075,-18,20,7,-514,-478,-36,496
,484,2023-10-27 11:21:30.42,139,-113,-2075,-16,7,11,-342,-356,14,349
,485,2023-10-27 11:21:30.43,143,-95,-2067,-15,0,14,-508,-470,-38,489
,486,2023-10-27 11:21:30.44,137,-114,-2065,-10,-7,13,-331,-348,17,339
,487,2023-10-27 11:21:30.45,138,-109,-2063,-14,-10,16,-503,-465,-38,484
,488,2023-10-27 11:21:30.46,130,-108,-2065,-10,-14,19,-334,-348,14,341
,489,2023-10-27 11:21:30.47,159,-109,-2068,-3,-12,17,-506,-467,-39,486
,490,2023-10-27 11:21:30.48,163,-115,-2065,5,-9,19,-338,-354,16,346
,491,2023-10-27 11:21:30.49,163,-108,-2066,8,-2,18,-498,-462,-36,480
,492,2023-10-27 11:21:30.50,167,-113,-2067,4,24,14,-341,-359,18,350
,493,2023-10-27 11:21:30.51,144,-113,-2057,13,9,14,-508,-463,-45,485
,494,2023-10-27 11:21:30.52,164,-115,-2056,20,13,16,-364,-367,3,365
,495,2023-10-27 11:21:30.53,154,-110,-2049,27,16,14,-526,-468,-58,497
,496,2023-10-27 11:21:30.54,163,-111,-2028,27,19,14,-372,-368,-4,370
,497,2023-10-27 11:21:30.55,146,-116,-2045,28,21,17,-523,-458,-65,490
,498,2023-10-27 11:21:30.56,133,-112,-2054,32,15,19,-380,-370,-10,375
,499,2023-10-27 11:21:30.57,144,-102,-2050,34,6,22,-520,-446,-74,483
,500,2023-10-27 11:21:30.58,149,-111,-2054,37,0,23,-382,-364,-18,373
,501,2023-10-27 11:21:30.59,152,-110,-2044,37,-2,22,-517,-442,-75,479
,502,2023-10-27 11:21:30.60,163,-108,-2045,35,-1,21,-380,-368,-12,374
,503,2023-10-27 11:21:30.61,154,-114,-2048,34,-2,19,-511,-446,-65,478
,504,2023-10-27 11:21:30.62,144,-122,-2042,36,-2,19,-377,-380,3,378
,505,2023-10-27 11:21:30.63,149,-123,-2050,36,-4,21,-505,-453,-52,479
,506,2023-10-27 11:21:30.64,134,-122,-2044,31,-4,22,-381,-391,10,386
,507,2023-10-27 11:21:30.65,144,-121,-2038,30,-4,24,-502,-449,-53,475
,508,2023-10-27 11:21:30.66,146,-118,-2035,25,-3,27,-384,-390,6,387
,509,2023-10-27 11:21:30.67,141,-113,-2038,22,-3,27,-500,-445,-55,472
,510,2023-10-27 11:21:30.68,146,-113,-2046,12,-3,29,-385,-390,5,387
,511,2023-10-27 11:21:30.69,141,-116,-2043,6,1,33,-491,-436,-55,463
,512,2023-10-27 11:21:30.70,146,-114,-2049,1,-2,31,-380,-387,7,383
,513,2023-10-27 11:21:30.71,143,-124,-2049,-4,-5,34,-483,-428,-55,455
,514,2023-10-27 11:21:30.72,136,-118,-2055,-6,-11,36,-378,-383,5,380
,515,2023-10-27 11:21:30.73,130,-114,-2050,-11,-15,38,-474,-419,-55,446
,516,2023-10-27 11:21:30.74,136,-118,-2067,-12,-19,39,-380,-387,7,383
,517,2023-10-27 11:21:30.75,133,-114,-2064,-11,-23,35,-471,-420,-51,445
,518,2023-10-27 11:21:30.76,133,-115,-2069,-6,-28,35,-381,-391,10,386
,519,2023-10-27 11:21:30.77,127,-112,-2084,-6,-28,32,-470,-413,-57,441
,520,2023-10-27 11:21:30.78,150,-120,-2087,-20,13,21,-394,-390,-4,392
,521,2023-10-27 11:21:30.79,97,-105,-2052,-9,-17,18,-471,-402,-69,436
,522,2023-10-27 11:21:30.80,162,-122,-2060,3,-23,15,-390,-380,-10,385
,523,2023-10-27 11:21:30.81,141,-125,-2066,3,-6,11,-452,-385,-67,418
,524,2023-10-27 11:21:30.82,149,-115,-2065,6,-10,6,-386,-381,-5,383
,525,2023-10-27 11:21:30.83,142,-111,-2073,8,-1,1,-454,-393,-61,423
,526,2023-10-27 11:21:30.84,132,-108,-2072,8,2,-1,-403,-399,-4,401
,527,2023-10-27 11:21:30.85,143,-107,-2064,11,4,-5,-459,-396,-63,427
,528,2023-10-27 11:21:30.86,141,-113,-2059,5,9,-6,-418,-414,-4,416
,529,2023-10-27 11:21:30.87,143,-110,-2057,-1,15,-9,-465,-413,-52,439
,530,2023-10-27 11:21:30.88,153,-109,-2046,-5,22,-12,-425,-433,8,429
,531,2023-10-27 11:21:30.89,148,-108,-2049,-7,26,-11,-461,-417,-44,439
,532,2023-10-27 11:21:30.90,153,-109,-2043,-13,25,-8,-427,-437,10,432
,533,2023-10-27 11:21:30.91,150,-106,-2034,-13,26,-10,-467,-421,-46,444
,534,2023-10-27 11:21:30.92,145,-106,-2030,-11,26,-8,-441,-449,8,445
,535,2023-10-27 11:21:30.93,141,-107,-2032,-6,28,-7,-465,-423,-42,444
,536,2023-10-27 11:21:30.94,152,-109,-2025,-2,27,-9,-446,-452,6,449
,537,2023-10-27 11:21:30.95,159,-112,-2024,6,33,-8,-456,-417,-39,436
,538,2023-10-27 11:21:30.96,165,-119,-2043,14,38,-10,-440,-447,7,443
,539,2023-10-27 11:21:30.97,155,-124,-2038,23,30,-8,-446,-412,-34,429
,540,2023-10-27 11:21:30.98,156,-120,-2033,34,24,-3,-436,-449,13,442
,541,2023-10-27 11:21:30.99,145,-130,-2048,46,19,1,-442,-408,-34,425
,542,2023-10-27 11:21:31.00,160,-123,-2059,51,10,3,-446,-459,13,452
,543,2023-10-27 11:21:31.01,159,-104,-2060,50,9,3,-446,-411,-35,428
,544,2023-10-27 11:21:31.02,148,-89,-2059,51,7,-3,-451,-460,9,455
,545,2023-10-27 11:21:31.03,148,-105,-2065,48,-3,-4,-442,-406,-36,424
,546,2023-10-27 11:21:31.04,129,-114,-2072,48,-9,-8,-459,-468,9,463
,547,2023-10-27 11:21:31.05,142,-119,-2067,44,-19,-8,-447,-414,-33,430
,548,2023-10-27 11:21:31.06,198,-115,-2124,47,-10,-10,-476,-487,11,481
,549,2023-10-27 11:21:31.07,145,-108,-2056,17,33,-41,-467,-448,-19,457
,550,2023-10-27 11:21:31.08,135,-82,-2067,19,21,-52,-503,-535,32,519
,551,2023-10-27 11:21:31.09,162,-103,-2074,33,1,-63,-478,-494,16,486
,552,2023-10-27 11:21:31.10,164,-75,-2053,44,0,-83,-514,-567,53,540
,553,2023-10-27 11:21:31.11,177,-56,-2028,55,-21,-111,-469,-498,29,483
,554,2023-10-27 11:21:31.12,196,-38,-2005,56,-18,-143,-502,-559,57,530
,555,2023-10-27 11:21:31.13,216,-26,-2035,55,0,-180,-446,-489,43,467
,556,2023-10-27 11:21:31.14,200,-31,-2015,55,1,-226,-489,-560,71,524
,557,2023-10-27 11:21:31.15,224,-44,-2017,59,19,-259,-422,-460,38,441
,558,2023-10-27 11:21:31.16,230,-98,-1959,57,38,-294,-470,-521,51,495
,559,2023-10-27 11:21:31.17,202,-102,-2012,72,80,-323,-404,-422,18,413
,560,2023-10-27 11:21:31.18,171,-134,-2109,75,82,-336,-475,-514,39,494
,561,2023-10-27 11:21:31.19,194,-173,-2110,72,68,-334,-393,-403,10,398
,562,2023-10-27 11:21:31.20,174,-170,-2073,94,56,-328,-465,-492,27,478
,563,2023-10-27 11:21:31.21,174,-184,-2066,123,34,-318,-387,-386,-1,386
,564,2023-10-27 11:21:31.22,171,-191,-2050,138,18,-305,-479,-500,21,489
,565,2023-10-27 11:21:31.23,170,-194,-2046,138,29,-290,-408,-412,4,410
,566,2023-10-27 11:21:31.24,154,-208,-2054,143,21,-270,-506,-536,30,521
,567,2023-10-27 11:21:31.25,165,-221,-2057,151,12,-246,-422,-436,14,429
,568,2023-10-27 11:21:31.26,141,-234,-2085,160,-2,-220,-516,-542,26,529
,569,2023-10-27 11:21:31.27,138,-219,-2090,166,-23,-194,-439,-450,11,444
,570,2023-10-27 11:21:31.28,138,-200,-2079,167,-38,-171,-552,-579,27,565
,571,2023-10-27 11:21:31.29,144,-197,-2090,157,-44,-147,-476,-492,16,484
,572,2023-10-27 11:21:31.30,115,-198,-2099,140,-53,-129,-577,-601,24,589
,573,2023-10-27 11:21:31.31,128,-189,-2057,123,-71,-105,-474,-481,7,477
,574,2023-10-27 11:21:31.32,103,-212,-2063,107,-70,-87,-575,-587,12,581
,575,2023-10-27 11:21:31.33,90,-248,-2068,95,-87,-65,-471,-470,-1,470
,576,2023-10-27 11:21:31.34,68,-255,-2050,90,-103,-37,-581,-590,9,585
,577,2023-10-27 11:21:31.35,54,-248,-2042,104,-131,-7,-463,-459,-4,461
,578,2023-10-27 11:21:31.36,23,-260,-2033,124,-166,24,-561,-568,7,564
,579,2023-10-27 11:21:31.37,48,-257,-2057,140,-208,59,-432,-427,-5,429
,580,2023-10-27 11:21:31.38,57,-226,-2058,147,-234,87,-552,-555,3,553
,581,2023-10-27 11:21:31.39,53,-196,-2046,140,-231,97,-419,-422,3,420
,582,2023-10-27 11:21:31.40,43,-159,-2053,115,-220,102,-548,-554,6,551
,583,2023-10-27 11:21:31.41,33,-148,-2049,83,-215,100,-401,-404,3,402
,584,2023-10-27 11:21:31.42,44,-128,-2068,45,-219,98,-528,-525,-3,526
,585,2023-10-27 11:21:31.43,42,-129,-2060,10,-199,92,-359,-349,-10,354
,586,2023-10-27 11:21:31.44,42,-133,-2067,-24,-186,83,-484,-467,-17,475
,587,2023-10-27 11:21:31.45,53,-117,-2059,-70,-160,72,-309,-288,-21,298
,588,2023-10-27 11:21:31.46,60,-111,-2052,-112,-127,58,-447,-424,-23,435
,589,2023-10-27 11:21:31.47,73,-100,-2057,-149,-96,46,-274,-250,-24,262
,590,2023-10-27 11:21:31.48,68,-103,-2055,-180,-69,29,-427,-398,-29,412
,591,2023-10-27 11:21:31.49,58,-87,-2046,-202,-55,20,-250,-219,-31,234
,592,2023-10-27 11:21:31.50,87,-87,-2045,-223,-36,13,-416,-378,-38,397
,593,2023-10-27 11:21:31.51,99,-63,-2021,-249,5,-6,-241,-204,-37,222
,594,2023-10-27 11:21:31.52,106,-60,-2022,-262,43,-23,-414,-367,-47,390
,595,2023-10-27 11:21:31.53,125,-69,-2013,-275,75,-37,-242,-206,-36,224
,596,2023-10-27 11:21:31.54,120,-54,-2003,-286,92,-50,-422,-378,-44,400
,597,2023-10-27 11:21:31.55,134,-53,-1994,-284,111,-58,-249,-218,-31,233
,598,2023-10-27 11:21:31.56,144,-55,-1993,-283,140,-68,-435,-393,-42,414
,599,2023-10-27 11:21:31.57,114,-71,-1996,-270,140,-71,-261,-232,-29,246
,600,2023-10-27 11:21:31.58,119,-93,-1997,-250,136,-63,-448,-406,-42,427
,601,2023-10-27 11:21:31.59,151,-94,-2058,-211,110,-50,-272,-242,-30,257
,602,2023-10-27 11:21:31.60,177,-96,-2059,-177,108,-37,-460,-412,-48,436
,603,2023-10-27 11:21:31.61,158,-86,-2043,-149,114,-32,-274,-247,-27,260
,604,2023-10-27 11:21:31.62,169,-84,-2046,-124,106,-23,-460,-412,-48,436
,605,2023-10-27 11:21:31.63,207,-89,-2052,-106,118,-14,-278,-249,-29,263
,606,2023-10-27 11:21:31.64,185,-97,-2044,-79,133,-12,-469,-419,-50,444
,607,2023-10-27 11:21:31.65,186,-96,-2051,-50,138,-5,-284,-254,-30,269
,608,2023-10-27 11:21:31.66,193,-88,-2057,-23,134,-2,-471,-422,-49,446
,609,2023-10-27 11:21:31.67,192,-83,-2049,0,139,2,-280,-251,-29,265
,610,2023-10-27 11:21:31.68,190,-91,-2067,23,148,2,-481,-430,-51,455
,611,2023-10-27 11:21:31.69,192,-100,-2063,46,151,3,-294,-269,-25,281
,612,2023-10-27 11:21:31.70,198,-114,-2065,66,149,6,-489,-445,-44,467
,613,2023-10-27 11:21:31.71,197,-113,-2065,88,146,8,-295,-277,-18,286
,614,2023-10-27 11:21:31.72,184,-119,-2074,111,131,10,-487,-444,-43,465
,615,2023-10-27 11:21:31.73,188,-129,-2075,128,121,14,-304,-290,-14,297
,616,2023-10-27 11:21:31.74,209,-120,-2070,148,114,15,-488,-448,-40,468
,617,2023-10-27 11:21:31.75,198,-126,-2047,159,117,15,-300,-288,-12,294
,618,2023-10-27 11:21:31.76,191,-151,-2068,171,109,14,-494,-450,-44,472
,619,2023-10-27 11:21:31.77,185,-158,-2084,178,99,18,-312,-296,-16,304
,620,2023-10-27 11:21:31.78,182,-158,-2074,185,87,20,-506,-460,-46,483
,621,2023-10-27 11:21:31.79,173,-166,-2069,192,73,25,-321,-308,-13,314
,622,2023-10-27 11:21:31.80,190,-166,-2072,192,58,29,-517,-468,-49,492
,623,2023-10-27 11:21:31.81,184,-166,-2068,189,46,39,-333,-320,-13,326
,624,2023-10-27 11:21:31.82,176,-162,-2070,178,40,41,-520,-472,-48,496
,625,2023-10-27 11:21:31.83,184,-155,-2056,170,33,47,-330,-324,-6,327
,626,2023-10-27 11:21:31.84,181,-160,-2043,156,32,52,-515,-474,-41,494
,627,2023-10-27 11:21:31.85,184,-172,-2051,141,34,55,-326,-326,0,326
,628,2023-10-27 11:21:31.86,166,-176,-2060,130,25,60,-511,-473,-38,492
,629,2023-10-27 11:21:31.87,172,-187,-2063,119,22,63,-321,-328,7,324
,630,2023-10-27 11:21:31.88,157,-191,-2062,115,7,73,-509,-472,-37,490
,631,2023-10-27 11:21:31.89,181,-187,-2060,105,-1,80,-327,-333,6,330
,632,2023-10-27 11:21:31.90,169,-190,-2058,97,-7,88,-514,-477,-37,495
,633,2023-10-27 11:21:31.91,189,-181,-2051,84,-12,96,-334,-340,6,337
,634,2023-10-27 11:21:31.92,186,-168,-2051,69,-5,100,-512,-480,-32,496
,635,2023-10-27 11:21:31.93,150,-168,-2050,56,-14,103,-331,-346,15,338
,636,2023-10-27 11:21:31.94,184,-175,-2043,43,-21,111,-516,-481,-35,498
,637,2023-10-27 11:21:31.95,168,-189,-2045,29,-16,122,-342,-344,2,343
,638,2023-10-27 11:21:31.96,162,-197,-2050,18,-25,132,-520,-472,-48,496
,639,2023-10-27 11:21:31.97,167,-194,-2052,4,-22,145,-344,-343,-1,343
,640,2023-10-27 11:21:31.98,168,-177,-2050,-8,-17,158,-518,-465,-53,491
,641,2023-10-27 11:21:31.99,164,-173,-2050,-20,-18,165,-343,-338,-5,340
,642,2023-10-27 11:21:32.00,168,-158,-2041,-31,-20,172,-517,-457,-60,487
,643,2023-10-27 11:21:32.01,170,-161,-2032,-39,-13,171,-352,-339,-13,345
,644,2023-10-27 11:21:32.02,165,-172,-2057,-47,-10,171,-520,-457,-63,488
,645,2023-10-27 11:21:32.03,173,-144,-2049,-53,-17,170,-347,-341,-6,344
,646,2023-10-27 11:21:32.04,162,-143,-2042,-49,-23,166,-508,-454,-54,481
,647,2023-10-27 11:21:32.05,159,-142,-2064,-43,-32,160,-343,-344,1,343
,648,2023-10-27 11:21:32.06,159,-136,-2063,-43,-24,148,-500,-450,-50,475
,649,2023-10-27 11:21:32.07,178,-144,-2064,-52,-7,133,-336,-343,7,339
,650,2023-10-27 11:21:32.08,150,-136,-2067,-53,-15,127,-486,-436,-50,461
,651,2023-10-27 11:21:32.09,170,-130,-2055,-46,-20,117,-336,-344,8,340
,652,2023-10-27 11:21:32.10,164,-134,-2061,-31,-33,106,-486,-441,-45,463
,653,2023-10-27 11:21:32.11,152,-141,-2049,-36,-22,93,-336,-351,15,343
,654,2023-10-27 11:21:32.12,164,-132,-2063,-36,-10,82,-480,-433,-47,456
,655,2023-10-27 11:21:32.13,159,-134,-2044,-29,-17,73,-334,-342,8,338
,656,2023-10-27 11:21:32.14,160,-139,-2047,-13,-21,65,-482,-437,-45,459
,657,2023-10-27 11:21:32.15,169,-141,-2044,-2,-26,56,-334,-350,16,342
,658,2023-10-27 11:21:32.16,164,-148,-2035,4,-19,46,-472,-426,-46,449
,659,2023-10-27 11:21:32.17,160,-152,-2038,8,-6,37,-337,-346,9,341
,660,2023-10-27 11:21:32.18,165,-150,-2036,17,-1,34,-467,-419,-48,443
,661,2023-10-27 11:21:32.19,158,-147,-2030,28,0,27,-338,-347,9,342
,662,2023-10-27 11:21:32.20,161,-152,-2036,29,11,23,-461,-414,-47,437
,663,2023-10-27 11:21:32.21,147,-160,-2036,34,16,18,-339,-350,11,344
,664,2023-10-27 11:21:32.22,165,-147,-2030,32,23,11,-461,-416,-45,438
,665,2023-10-27 11:21:32.23,165,-159,-2042,34,27,9,-342,-355,13,348
,666,2023-10-27 11:21:32.24,143,-169,-2030,32,30,8,-463,-421,-42,442
,667,2023-10-27 11:21:32.25,170,-160,-2042,32,35,9,-354,-371,17,362
,668,2023-10-27 11:21:32.26,152,-163,-2053,31,31,7,-466,-424,-42,445
,669,2023-10-27 11:21:32.27,144,-179,-2059,31,30,13,-358,-374,16,366
,670,2023-10-27 11:21:32.28,172,-175,-2054,26,41,16,-464,-426,-38,445
,671,2023-10-27 11:21:32.29,161,-174,-2055,26,32,23,-366,-388,22,377
,672,2023-10-27 11:21:32.30,184,-179,-2059,30,24,27,-464,-430,-34,447
,673,2023-10-27 11:21:32.31,158,-179,-2046,24,46,30,-365,-390,25,377
,674,2023-10-27 11:21:32.32,165,-173,-2042,22,39,36,-459,-422,-37,440
,675,2023-10-27 11:21:32.33,176,-172,-2052,24,30,39,-369,-392,23,380
,676,2023-10-27 11:21:32.34,178,-169,-2042,17,50,35,-459,-422,-37,440
,677,2023-10-27 11:21:32.35,156,-172,-2047,11,56,33,-380,-405,25,392
