// Data mode  : Full
// Data quality  : High
// Acceleration sensor's range  : 16g
// Gyroscope sensor's range  : 2000dps
//
//ARTIFACT,NUM,DATE,ACC_X,ACC_Y,ACC_Z,GYRO_X,GYRO_Y,GYRO_Z,EOG_L,EOG_R,EOG_H,EOG_V
,1,2023-10-27 10:44:05.91,101,-275,-2048,-47,-9,61,-579,675,-1254,-48
,2,2023-10-27 10:44:05.92,81,-281,-2058,-50,-7,63,-388,452,-840,-32
,3,2023-10-27 10:44:05.93,84,-297,-2054,-45,-10,63,-584,675,-1259,-45
,4,2023-10-27 10:44:05.94,91,-284,-2047,-45,-9,60,-389,449,-838,-30
,5,2023-10-27 10:44:05.95,80,-298,-2043,-32,-12,60,-578,662,-1240,-42
,6,2023-10-27 10:44:05.96,92,-294,-2037,-29,-6,62,-388,438,-826,-25
,7,2023-10-27 10:44:05.97,84,-279,-2036,-23,-1,61,-573,662,-1235,-44
,8,2023-10-27 10:44:05.98,93,-278,-2039,-15,-1,59,-390,440,-830,-25
,9,2023-10-27 10:44:05.99,100,-268,-2039,-19,4,49,-575,664,-1239,-44
,10,2023-10-27 10:44:06.00,104,-263,-2034,-16,8,48,-388,454,-842,-33
,11,2023-10-27 10:44:06.01,106,-280,-2044,-7,3,46,-569,675,-1244,-53
,12,2023-10-27 10:44:06.02,113,-278,-2052,-12,9,42,-394,454,-848,-30
,13,2023-10-27 10:44:06.03,103,-267,-2044,-21,8,42,-570,672,-1242,-51
,14,2023-10-27 10:44:06.04,107,-267,-2051,-22,4,39,-383,454,-837,-35
,15,2023-10-27 10:44:06.05,103,-266,-2066,-24,-2,43,-565,658,-1223,-46
,16,2023-10-27 10:44:06.06,118,-257,-2047,-21,-10,38,-391,445,-836,-27
,17,2023-10-27 10:44:06.07,106,-276,-2049,-22,-12,43,-558,656,-1214,-49
,18,2023-10-27 10:44:06.08,114,-264,-2052,-18,-18,42,-388,456,-844,-34
,19,2023-10-27 10:44:06.09,115,-259,-2053,-17,-23,34,-556,666,-1222,-55
,20,2023-10-27 10:44:06.10,97,-260,-2060,-20,-22,37,-393,446,-839,-26
,21,2023-10-27 10:44:06.11,100,-271,-2064,-27,-21,34,-562,656,-1218,-47
,22,2023-10-27 10:44:06.12,99,-263,-2058,-33,-23,39,-401,452,-853,-25
,23,2023-10-27 10:44:06.13,79,-272,-2040,-30,-32,39,-568,637,-1205,-34
,24,2023-10-27 10:44:06.14,84,-261,-2044,-34,-30,41,-406,448,-854,-21
,25,2023-10-27 10:44:06.15,72,-274,-2054,-35,-45,42,-560,649,-1209,-44
,26,2023-10-27 10:44:06.16,76,-263,-2043,-40,-45,40,-405,460,-865,-27
,27,2023-10-27 10:44:06.17,78,-249,-2058,-44,-47,39,-562,666,-1228,-52
,28,2023-10-27 10:44:06.18,87,-277,-2017,-53,-36,42,-415,478,-893,-31
,29,2023-10-27 10:44:06.19,54,-222,-2066,-49,-38,39,-560,663,-1223,-51
,30,2023-10-27 10:44:06.20,68,-280,-2031,-49,-31,35,-418,469,-887,-25
,31,2023-10-27 10:44:06.21,57,-262,-2045,-63,-23,41,-549,652,-1201,-51
,32,2023-10-27 10:44:06.22,50,-250,-2059,-71,-20,38,-412,460,-872,-24
,33,2023-10-27 10:44:06.23,86,-260,-2026,-66,-18,34,-537,647,-1184,-55
,34,2023-10-27 10:44:06.24,71,-269,-2045,-64,-17,38,-407,475,-882,-34
,35,2023-10-27 10:44:06.25,69,-257,-2025,-66,-21,37,-536,647,-1183,-55
,36,2023-10-27 10:44:06.26,77,-258,-2034,-66,-8,36,-416,467,-883,-25
,37,2023-10-27 10:44:06.27,80,-233,-2034,-59,-8,34,-534,639,-1173,-52
,38,2023-10-27 10:44:06.28,81,-249,-2034,-55,4,25,-418,467,-885,-24
,39,2023-10-27 10:44:06.29,84,-249,-2051,-63,0,19,-530,635,-1165,-52
,40,2023-10-27 10:44:06.30,87,-258,-2071,-75,15,16,-420,474,-894,-27
,41,2023-10-27 10:44:06.31,67,-236,-2070,-72,16,23,-530,632,-1162,-51
,42,2023-10-27 10:44:06.32,90,-232,-2069,-77,8,23,-426,480,-906,-27
,43,2023-10-27 10:44:06.33,87,-237,-2055,-82,6,26,-527,642,-1169,-57
,44,2023-10-27 10:44:06.34,80,-225,-2056,-88,13,26,-431,498,-929,-33
,45,2023-10-27 10:44:06.35,106,-226,-2066,-90,5,27,-524,641,-1165,-58
,46,2023-10-27 10:44:06.36,77,-224,-2073,-93,1,30,-432,492,-924,-30
,47,2023-10-27 10:44:06.37,80,-224,-2073,-90,-4,33,-515,628,-1143,-56
,48,2023-10-27 10:44:06.38,81,-214,-2060,-93,-9,33,-438,492,-930,-27
,49,2023-10-27 10:44:06.39,81,-217,-2060,-86,-15,37,-514,629,-1143,-57
,50,2023-10-27 10:44:06.40,88,-220,-2059,-80,-24,37,-440,497,-937,-28
,51,2023-10-27 10:44:06.41,76,-194,-2054,-78,-21,35,-510,620,-1130,-55
,52,2023-10-27 10:44:06.42,73,-219,-2046,-69,-25,29,-444,505,-949,-30
,53,2023-10-27 10:44:06.43,74,-204,-2054,-71,-17,28,-507,624,-1131,-58
,54,2023-10-27 10:44:06.44,74,-189,-2043,-63,-26,29,-452,506,-958,-27
,55,2023-10-27 10:44:06.45,79,-193,-2050,-57,-25,25,-499,622,-1121,-61
,56,2023-10-27 10:44:06.46,61,-197,-2056,-52,-23,22,-452,505,-957,-26
,57,2023-10-27 10:44:06.47,57,-201,-2051,-49,-23,13,-500,606,-1106,-53
,58,2023-10-27 10:44:06.48,57,-172,-2034,-55,-11,9,-456,513,-969,-28
,59,2023-10-27 10:44:06.49,77,-200,-2037,-51,-17,4,-493,615,-1108,-61
,60,2023-10-27 10:44:06.50,67,-171,-2045,-54,-4,-7,-460,514,-974,-27
,61,2023-10-27 10:44:06.51,75,-197,-2054,-54,3,-13,-495,590,-1085,-47
,62,2023-10-27 10:44:06.52,71,-184,-2054,-52,4,-14,-465,511,-976,-23
,63,2023-10-27 10:44:06.53,71,-193,-2062,-43,1,-16,-489,592,-1081,-51
,64,2023-10-27 10:44:06.54,76,-186,-2055,-43,4,-15,-468,523,-991,-27
,65,2023-10-27 10:44:06.55,73,-194,-2055,-38,8,-25,-481,589,-1070,-54
,66,2023-10-27 10:44:06.56,77,-204,-2067,-37,7,-21,-472,515,-987,-21
,67,2023-10-27 10:44:06.57,68,-179,-2062,-38,8,-19,-476,583,-1059,-53
,68,2023-10-27 10:44:06.58,87,-192,-2063,-40,7,-14,-476,530,-1006,-27
,69,2023-10-27 10:44:06.59,79,-189,-2071,-39,6,-10,-475,576,-1051,-50
,70,2023-10-27 10:44:06.60,78,-189,-2079,-34,1,-4,-481,532,-1013,-25
,71,2023-10-27 10:44:06.61,71,-198,-2065,-27,-3,-1,-465,576,-1041,-55
,72,2023-10-27 10:44:06.62,74,-183,-2080,-27,-7,5,-478,533,-1011,-27
,73,2023-10-27 10:44:06.63,72,-184,-2059,-34,-3,14,-460,572,-1032,-56
,74,2023-10-27 10:44:06.64,78,-151,-2047,-31,-10,17,-482,543,-1025,-30
,75,2023-10-27 10:44:06.65,80,-196,-2060,-32,2,13,-458,572,-1030,-57
,76,2023-10-27 10:44:06.66,67,-175,-2042,-34,-2,23,-490,559,-1049,-34
,77,2023-10-27 10:44:06.67,67,-159,-2067,-37,4,25,-454,577,-1031,-61
,78,2023-10-27 10:44:06.68,84,-211,-2048,-24,1,23,-489,553,-1042,-32
,79,2023-10-27 10:44:06.69,68,-175,-2054,-20,0,33,-446,563,-1009,-58
,80,2023-10-27 10:44:06.70,80,-173,-2045,-11,-13,36,-490,565,-1055,-37
,81,2023-10-27 10:44:06.71,78,-167,-2070,-12,-1,41,-444,564,-1008,-60
,82,2023-10-27 10:44:06.72,62,-165,-2064,-11,0,39,-498,566,-1064,-34
,83,2023-10-27 10:44:06.73,74,-171,-2055,-5,-1,43,-444,552,-996,-54
,84,2023-10-27 10:44:06.74,77,-156,-2040,8,-5,42,-507,562,-1069,-27
,85,2023-10-27 10:44:06.75,75,-160,-2047,9,2,42,-440,548,-988,-54
,86,2023-10-27 10:44:06.76,93,-162,-2044,13,2,41,-502,577,-1079,-37
,87,2023-10-27 10:44:06.77,89,-168,-2035,27,3,39,-433,553,-986,-60
,88,2023-10-27 10:44:06.78,79,-177,-2057,39,9,41,-506,579,-1085,-36
,89,2023-10-27 10:44:06.79,76,-175,-2055,50,5,43,-432,537,-969,-52
,90,2023-10-27 10:44:06.80,79,-170,-2040,62,10,40,-516,583,-1099,-33
,91,2023-10-27 10:44:06.81,76,-181,-2042,70,11,42,-420,543,-963,-61
,92,2023-10-27 10:44:06.82,83,-196,-2059,72,12,41,-505,589,-1094,-42
,93,2023-10-27 10:44:06.83,86,-190,-2052,80,13,40,-417,535,-952,-59
,94,2023-10-27 10:44:06.84,79,-190,-2049,90,6,36,-517,586,-1103,-34
,95,2023-10-27 10:44:06.85,82,-204,-2058,91,14,35,-419,523,-942,-52
,96,2023-10-27 10:44:06.86,84,-199,-2066,93,15,30,-527,593,-1120,-33
,97,2023-10-27 10:44:06.87,77,-192,-2072,88,16,26,-423,520,-943,-48
,98,2023-10-27 10:44:06.88,77,-205,-2069,81,14,20,-528,589,-1117,-30
,99,2023-10-27 10:44:06.89,89,-200,-2052,74,8,16,-417,517,-934,-50
,100,2023-10-27 10:44:06.90,90,-204,-2057,75,3,12,-535,598,-1133,-31
,101,2023-10-27 10:44:06.91,91,-198,-2053,71,-2,11,-414,510,-924,-48
,102,2023-10-27 10:44:06.92,82,-202,-2053,60,-7,7,-538,588,-1126,-25
,103,2023-10-27 10:44:06.93,78,-206,-2054,51,-11,1,-410,503,-913,-46
,104,2023-10-27 10:44:06.94,86,-200,-2058,47,-14,2,-535,595,-1130,-30
,105,2023-10-27 10:44:06.95,85,-213,-2049,42,-17,-1,-403,499,-902,-48
,106,2023-10-27 10:44:06.96,79,-219,-2048,38,-18,-2,-539,608,-1147,-34
,107,2023-10-27 10:44:06.97,86,-224,-2049,34,-16,-2,-400,499,-899,-49
,108,2023-10-27 10:44:06.98,73,-227,-2053,40,-16,-1,-537,605,-1142,-34
,109,2023-10-27 10:44:06.99,80,-225,-2055,41,-21,0,-396,491,-887,-47
,110,2023-10-27 10:44:07.00,81,-226,-2051,40,-24,3,-538,610,-1148,-36
,111,2023-10-27 10:44:07.01,84,-221,-2049,39,-25,4,-398,490,-888,-46
,112,2023-10-27 10:44:07.02,75,-226,-2051,36,-19,5,-546,620,-1166,-37
,113,2023-10-27 10:44:07.03,80,-224,-2048,34,-19,6,-393,496,-889,-51
,114,2023-10-27 10:44:07.04,74,-232,-2047,35,-16,11,-547,627,-1174,-40
,115,2023-10-27 10:44:07.05,75,-232,-2051,33,-14,11,-390,487,-877,-48
,116,2023-10-27 10:44:07.06,70,-233,-2051,36,-13,17,-547,625,-1172,-39
,117,2023-10-27 10:44:07.07,69,-231,-2055,36,-13,19,-391,484,-875,-46
,118,2023-10-27 10:44:07.08,70,-234,-2050,35,-16,26,-553,629,-1182,-38
,119,2023-10-27 10:44:07.09,71,-228,-2049,39,-16,25,-385,478,-863,-46
,120,2023-10-27 10:44:07.10,66,-230,-2041,37,-12,27,-549,633,-1182,-42
,121,2023-10-27 10:44:07.11,69,-233,-2053,33,-9,29,-382,480,-862,-49
,122,2023-10-27 10:44:07.12,74,-228,-2058,33,-8,30,-554,631,-1185,-38
,123,2023-10-27 10:44:07.13,68,-234,-2059,37,-10,29,-380,469,-849,-44
,124,2023-10-27 10:44:07.14,64,-237,-2057,36,-11,30,-557,628,-1185,-35
,125,2023-10-27 10:44:07.15,67,-229,-2058,35,-14,33,-381,463,-844,-41
,126,2023-10-27 10:44:07.16,50,-234,-2045,31,-16,32,-556,637,-1193,-40
,127,2023-10-27 10:44:07.17,62,-232,-2042,32,-17,33,-377,466,-843,-44
,128,2023-10-27 10:44:07.18,59,-233,-2040,31,-19,34,-558,635,-1193,-38
,129,2023-10-27 10:44:07.19,68,-233,-2044,30,-18,33,-374,455,-829,-40
,130,2023-10-27 10:44:07.20,57,-232,-2032,30,-17,33,-562,625,-1187,-31
,131,2023-10-27 10:44:07.21,66,-235,-2034,29,-11,28,-381,448,-829,-33
,132,2023-10-27 10:44:07.22,55,-230,-2044,24,-6,24,-562,642,-1204,-40
,133,2023-10-27 10:44:07.23,52,-225,-2046,21,-2,18,-370,450,-820,-40
,134,2023-10-27 10:44:07.24,56,-229,-2042,21,-1,17,-560,635,-1195,-37
,135,2023-10-27 10:44:07.25,57,-239,-2055,17,1,14,-371,449,-820,-39
,136,2023-10-27 10:44:07.26,56,-237,-2065,17,-3,14,-562,637,-1199,-37
,137,2023-10-27 10:44:07.27,51,-235,-2053,15,-8,12,-375,453,-828,-39
,138,2023-10-27 10:44:07.28,59,-236,-2056,11,-10,13,-564,657,-1221,-46
,139,2023-10-27 10:44:07.29,69,-221,-2052,5,-6,13,-371,451,-822,-40
,140,2023-10-27 10:44:07.30,65,-231,-2054,-2,-2,14,-568,650,-1218,-41
,141,2023-10-27 10:44:07.31,56,-232,-2050,-2,-5,16,-371,448,-819,-38
,142,2023-10-27 10:44:07.32,59,-228,-2046,-4,-7,16,-567,650,-1217,-41
,143,2023-10-27 10:44:07.33,53,-231,-2046,-6,-4,18,-377,444,-821,-33
,144,2023-10-27 10:44:07.34,55,-230,-2047,-4,-7,19,-572,651,-1223,-39
,145,2023-10-27 10:44:07.35,46,-227,-2050,-5,-1,21,-368,441,-809,-36
,146,2023-10-27 10:44:07.36,46,-226,-2054,-6,-2,24,-575,638,-1213,-31
,147,2023-10-27 10:44:07.37,59,-228,-2047,-4,-1,26,-368,446,-814,-39
,148,2023-10-27 10:44:07.38,56,-221,-2045,-3,-1,30,-566,649,-1215,-41
,149,2023-10-27 10:44:07.39,37,-219,-2044,-8,-1,28,-364,449,-813,-42
,150,2023-10-27 10:44:07.40,53,-223,-2047,-7,1,32,-568,665,-1233,-48
,151,2023-10-27 10:44:07.41,56,-221,-2053,-9,7,32,-367,449,-816,-41
,152,2023-10-27 10:44:07.42,60,-218,-2047,-12,13,36,-568,672,-1240,-52
,153,2023-10-27 10:44:07.43,56,-228,-2059,-13,11,40,-365,452,-817,-43
,154,2023-10-27 10:44:07.44,59,-221,-2055,-12,14,40,-568,667,-1235,-49
,155,2023-10-27 10:44:07.45,63,-216,-2056,-11,14,47,-372,450,-822,-39
,156,2023-10-27 10:44:07.46,59,-220,-2057,-15,9,50,-573,675,-1248,-51
,157,2023-10-27 10:44:07.47,59,-202,-2067,-13,12,51,-369,445,-814,-38
,158,2023-10-27 10:44:07.48,52,-201,-2063,-12,10,53,-572,658,-1230,-43
,159,2023-10-27 10:44:07.49,61,-202,-2062,-10,2,52,-370,431,-801,-30
,160,2023-10-27 10:44:07.50,50,-205,-2068,-4,-2,51,-568,651,-1219,-41
,161,2023-10-27 10:44:07.51,53,-203,-2056,-2,-4,49,-373,434,-807,-30
,162,2023-10-27 10:44:07.52,49,-212,-2059,0,-1,48,-570,661,-1231,-45
,163,2023-10-27 10:44:07.53,56,-217,-2060,7,-5,44,-369,437,-806,-34
,164,2023-10-27 10:44:07.54,55,-202,-2052,17,-4,40,-567,660,-1227,-46
,165,2023-10-27 10:44:07.55,63,-201,-2052,16,-4,36,-371,440,-811,-34
,166,2023-10-27 10:44:07.56,43,-204,-2056,18,4,39,-565,665,-1230,-50
,167,2023-10-27 10:44:07.57,52,-199,-2044,20,2,33,-371,445,-816,-37
,168,2023-10-27 10:44:07.58,48,-203,-2041,18,2,33,-568,670,-1238,-51
,169,2023-10-27 10:44:07.59,55,-215,-2057,14,14,30,-374,451,-825,-38
,170,2023-10-27 10:44:07.60,48,-217,-2057,17,15,27,-564,673,-1237,-54
,171,2023-10-27 10:44:07.61,62,-218,-2045,20,10,20,-377,450,-827,-36
,172,2023-10-27 10:44:07.62,59,-224,-2046,27,20,18,-568,666,-1234,-49
,173,2023-10-27 10:44:07.63,63,-210,-2042,41,18,11,-380,428,-808,-24
,174,2023-10-27 10:44:07.64,61,-216,-2057,39,23,2,-572,645,-1217,-36
,175,2023-10-27 10:44:07.65,65,-202,-2068,37,18,-5,-386,437,-823,-25
,176,2023-10-27 10:44:07.66,62,-222,-2066,33,8,-10,-567,660,-1227,-46
,177,2023-10-27 10:44:07.67,72,-215,-2062,37,-5,-16,-383,442,-825,-29
,178,2023-10-27 10:44:07.68,57,-214,-2057,28,-8,-18,-572,656,-1228,-42
,179,2023-10-27 10:44:07.69,63,-222,-2053,26,-21,-19,-386,450,-836,-32
,180,2023-10-27 10:44:07.70,65,-213,-2055,22,-21,-21,-564,670,-1234,-53
,181,2023-10-27 10:44:07.71,66,-215,-2041,11,-19,-17,-385,454,-839,-34
,182,2023-10-27 10:44:07.72,62,-232,-2043,7,-16,-15,-560,658,-1218,-49
,183,2023-10-27 10:44:07.73,61,-238,-2040,6,-15,-13,-388,450,-838,-31
,184,2023-10-27 10:44:07.74,61,-236,-2050,8,-19,-5,-554,657,-1211,-51
,185,2023-10-27 10:44:07.75,54,-224,-2057,8,-16,1,-383,451,-834,-34
,186,2023-10-27 10:44:07.76,50,-233,-2045,4,-12,2,-547,658,-1205,-55
,187,2023-10-27 10:44:07.77,52,-240,-2040,5,-14,7,-392,440,-832,-24
,188,2023-10-27 10:44:07.78,33,-233,-2053,10,-9,13,-550,659,-1209,-54
,189,2023-10-27 10:44:07.79,55,-231,-2055,5,-10,17,-391,457,-848,-33
,190,2023-10-27 10:44:07.80,52,-219,-2049,8,-1,20,-543,660,-1203,-58
,191,2023-10-27 10:44:07.81,46,-224,-2056,9,2,20,-397,466,-863,-34
,192,2023-10-27 10:44:07.82,53,-226,-2055,11,-2,24,-544,667,-1211,-61
,193,2023-10-27 10:44:07.83,52,-227,-2045,10,-3,24,-396,470,-866,-37
,194,2023-10-27 10:44:07.84,58,-215,-2050,10,-6,28,-545,662,-1207,-58
,195,2023-10-27 10:44:07.85,48,-227,-2044,3,1,28,-404,466,-870,-31
,196,2023-10-27 10:44:07.86,56,-229,-2052,5,-1,30,-541,646,-1187,-52
,197,2023-10-27 10:44:07.87,61,-223,-2040,13,-5,31,-405,465,-870,-30
,198,2023-10-27 10:44:07.88,59,-212,-2045,10,-4,30,-540,651,-1191,-55
,199,2023-10-27 10:44:07.89,50,-215,-2045,5,4,27,-411,472,-883,-30
,200,2023-10-27 10:44:07.90,43,-212,-2053,2,5,26,-535,648,-1183,-56
,201,2023-10-27 10:44:07.91,50,-212,-2059,-2,5,26,-411,464,-875,-26
,202,2023-10-27 10:44:07.92,46,-214,-2050,-4,2,23,-530,641,-1171,-55
,203,2023-10-27 10:44:07.93,50,-212,-2060,-8,1,24,-415,473,-888,-29
,204,2023-10-27 10:44:07.94,41,-204,-2048,-5,-2,25,-530,638,-1168,-54
,205,2023-10-27 10:44:07.95,42,-219,-2054,1,-6,25,-418,483,-901,-32
,206,2023-10-27 10:44:07.96,50,-211,-2041,8,-7,23,-525,645,-1170,-60
,207,2023-10-27 10:44:07.97,53,-209,-2038,9,-1,21,-423,478,-901,-27
,208,2023-10-27 10:44:07.98,49,-215,-2046,4,4,19,-516,632,-1148,-58
,209,2023-10-27 10:44:07.99,50,-219,-2054,7,3,17,-418,484,-902,-33
,210,2023-10-27 10:44:08.00,56,-196,-2056,11,5,16,-511,637,-1148,-63
,211,2023-10-27 10:44:08.01,54,-205,-2048,13,4,16,-425,492,-917,-33
,212,2023-10-27 10:44:08.02,57,-215,-2055,12,7,16,-509,626,-1135,-58
,213,2023-10-27 10:44:08.03,61,-206,-2054,9,4,15,-430,492,-922,-31
,214,2023-10-27 10:44:08.04,64,-230,-2058,7,3,17,-503,627,-1130,-62
,215,2023-10-27 10:44:08.05,50,-226,-2058,17,5,22,-430,506,-936,-38
,216,2023-10-27 10:44:08.06,45,-228,-2052,23,-2,27,-501,630,-1131,-64
,217,2023-10-27 10:44:08.07,44,-226,-2049,26,-7,29,-437,500,-937,-31
,218,2023-10-27 10:44:08.08,52,-225,-2054,26,-3,36,-492,617,-1109,-62
,219,2023-10-27 10:44:08.09,56,-214,-2057,27,-3,38,-442,498,-940,-28
,220,2023-10-27 10:44:08.10,51,-218,-2047,25,-2,38,-491,616,-1107,-62
,221,2023-10-27 10:44:08.11,51,-218,-2043,20,0,41,-444,513,-957,-34
,222,2023-10-27 10:44:08.12,55,-216,-2051,17,4,40,-484,616,-1100,-66
,223,2023-10-27 10:44:08.13,48,-217,-2058,15,6,39,-449,516,-965,-33
,224,2023-10-27 10:44:08.14,50,-217,-2055,16,3,40,-487,608,-1095,-60
,225,2023-10-27 10:44:08.15,55,-219,-2059,17,2,36,-458,507,-965,-24
,226,2023-10-27 10:44:08.16,49,-225,-2043,20,0,36,-483,591,-1074,-54
,227,2023-10-27 10:44:08.17,55,-225,-2054,23,-5,34,-455,521,-976,-33
,228,2023-10-27 10:44:08.18,41,-235,-2054,25,-7,31,-475,595,-1070,-60
,229,2023-10-27 10:44:08.19,54,-232,-2050,27,-7,31,-458,536,-994,-39
,230,2023-10-27 10:44:08.20,44,-231,-2047,30,-9,31,-471,602,-1073,-65
,231,2023-10-27 10:44:08.21,51,-229,-2044,31,-8,28,-462,524,-986,-31
,232,2023-10-27 10:44:08.22,52,-237,-2051,30,-7,28,-469,570,-1039,-50
,233,2023-10-27 10:44:08.23,60,-233,-2058,28,-3,27,-466,522,-988,-28
,234,2023-10-27 10:44:08.24,51,-231,-2052,23,-2,27,-457,580,-1037,-61
,235,2023-10-27 10:44:08.25,54,-237,-2055,18,5,23,-468,527,-995,-29
,236,2023-10-27 10:44:08.26,58,-230,-2048,14,7,24,-453,573,-1026,-60
,237,2023-10-27 10:44:08.27,44,-229,-2057,10,5,24,-468,538,-1006,-35
,238,2023-10-27 10:44:08.28,53,-236,-2052,7,5,21,-451,571,-1022,-60
,239,2023-10-27 10:44:08.29,48,-227,-2068,8,0,19,-476,543,-1019,-33
,240,2023-10-27 10:44:08.30,51,-221,-2058,4,0,21,-445,576,-1021,-65
,241,2023-10-27 10:44:08.31,46,-226,-2056,4,0,20,-478,557,-1035,-39
,242,2023-10-27 10:44:08.32,57,-239,-2050,0,3,21,-441,578,-1019,-68
,243,2023-10-27 10:44:08.33,34,-225,-2050,-1,5,22,-481,560,-1041,-39
,244,2023-10-27 10:44:08.34,50,-220,-2045,-7,10,13,-434,565,-999,-65
,245,2023-10-27 10:44:08.35,54,-275,-2042,-14,20,25,-484,576,-1060,-46
,246,2023-10-27 10:44:08.36,52,-228,-2045,-3,20,35,-434,577,-1011,-71
,247,2023-10-27 10:44:08.37,50,-235,-2030,10,12,37,-492,576,-1068,-42
,248,2023-10-27 10:44:08.38,56,-197,-2022,7,18,44,-433,560,-993,-63
,249,2023-10-27 10:44:08.39,69,-244,-2048,-3,25,41,-491,569,-1060,-39
,250,2023-10-27 10:44:08.40,65,-220,-2054,-10,26,45,-420,552,-972,-66
,251,2023-10-27 10:44:08.41,60,-211,-2056,-4,21,42,-492,578,-1070,-43
,252,2023-10-27 10:44:08.42,46,-209,-2053,-1,21,39,-420,553,-973,-66
,253,2023-10-27 10:44:08.43,61,-240,-2080,-1,19,39,-499,582,-1081,-41
,254,2023-10-27 10:44:08.44,42,-215,-2068,0,5,43,-420,542,-962,-61
,255,2023-10-27 10:44:08.45,52,-218,-2074,11,-9,43,-505,581,-1086,-38
,256,2023-10-27 10:44:08.46,60,-223,-2056,15,-13,44,-418,539,-957,-60
,257,2023-10-27 10:44:08.47,52,-214,-2056,18,-18,47,-508,591,-1099,-41
,258,2023-10-27 10:44:08.48,49,-209,-2038,22,-21,46,-415,537,-952,-61
,259,2023-10-27 10:44:08.49,45,-204,-2038,21,-21,42,-510,597,-1107,-43
,260,2023-10-27 10:44:08.50,39,-195,-2042,15,-18,37,-420,530,-950,-55
,261,2023-10-27 10:44:08.51,39,-198,-2057,11,-16,33,-518,593,-1111,-37
,262,2023-10-27 10:44:08.52,46,-199,-2055,5,-16,25,-405,521,-926,-58
,263,2023-10-27 10:44:08.53,29,-204,-2062,-1,-16,21,-500,575,-1075,-37
,264,2023-10-27 10:44:08.54,31,-204,-2059,-3,-10,15,-392,479,-871,-43
,265,2023-10-27 10:44:08.55,23,-215,-2050,-2,-15,9,-516,571,-1087,-27
,266,2023-10-27 10:44:08.56,35,-215,-2052,-2,-9,1,-404,495,-899,-45
,267,2023-10-27 10:44:08.57,32,-210,-2055,1,0,0,-526,598,-1124,-36
,268,2023-10-27 10:44:08.58,40,-214,-2045,5,6,-4,-397,510,-907,-56
,269,2023-10-27 10:44:08.59,54,-219,-2042,16,5,-7,-523,617,-1140,-47
,270,2023-10-27 10:44:08.60,39,-212,-2056,23,9,-8,-394,508,-902,-57
,271,2023-10-27 10:44:08.61,32,-217,-2054,27,16,-9,-534,605,-1139,-35
,272,2023-10-27 10:44:08.62,42,-225,-2054,29,15,-10,-400,497,-897,-48
,273,2023-10-27 10:44:08.63,38,-231,-2055,27,17,-7,-538,607,-1145,-34
,274,2023-10-27 10:44:08.64,64,-225,-2057,27,17,-4,-394,493,-887,-49
,275,2023-10-27 10:44:08.65,44,-225,-2057,28,20,-1,-536,619,-1155,-41
,276,2023-10-27 10:44:08.66,58,-228,-2044,30,16,0,-386,498,-884,-56
,277,2023-10-27 10:44:08.67,52,-226,-2046,32,19,-1,-539,627,-1166,-44
,278,2023-10-27 10:44:08.68,58,-236,-2060,36,22,1,-383,501,-884,-59
,279,2023-10-27 10:44:08.69,64,-231,-2053,37,19,-1,-539,628,-1167,-44
,280,2023-10-27 10:44:08.70,59,-233,-2059,38,12,-2,-384,478,-862,-47
,281,2023-10-27 10:44:08.71,65,-237,-2056,40,11,0,-547,624,-1171,-38
,282,2023-10-27 10:44:08.72,54,-241,-2060,41,8,2,-382,483,-865,-50
,283,2023-10-27 10:44:08.73,53,-243,-2060,40,1,8,-543,628,-1171,-42
,284,2023-10-27 10:44:08.74,77,-243,-2046,34,2,11,-377,477,-854,-50
,285,2023-10-27 10:44:08.75,62,-255,-2033,31,6,18,-545,632,-1177,-43
,286,2023-10-27 10:44:08.76,59,-246,-2042,33,2,23,-376,475,-851,-49
,287,2023-10-27 10:44:08.77,70,-248,-2043,32,-1,31,-550,626,-1176,-38
,288,2023-10-27 10:44:08.78,56,-257,-2047,24,3,38,-371,467,-838,-48
,289,2023-10-27 10:44:08.79,61,-256,-2043,19,10,44,-545,630,-1175,-42
,290,2023-10-27 10:44:08.80,58,-250,-2055,20,6,49,-367,464,-831,-48
,291,2023-10-27 10:44:08.81,55,-236,-2053,21,3,52,-552,643,-1195,-45
,292,2023-10-27 10:44:08.82,49,-235,-2050,15,0,51,-369,471,-840,-51
,293,2023-10-27 10:44:08.83,54,-226,-2057,9,3,45,-550,642,-1192,-46
,294,2023-10-27 10:44:08.84,44,-227,-2057,10,-3,41,-368,462,-830,-47
,295,2023-10-27 10:44:08.85,46,-231,-2051,13,-8,36,-554,643,-1197,-44
,296,2023-10-27 10:44:08.86,51,-224,-2047,8,-1,26,-364,464,-828,-50
,297,2023-10-27 10:44:08.87,55,-229,-2057,3,3,16,-554,655,-1209,-50
,298,2023-10-27 10:44:08.88,41,-234,-2053,2,-2,12,-360,473,-833,-56
,299,2023-10-27 10:44:08.89,46,-222,-2050,5,0,7,-555,654,-1209,-49
,300,2023-10-27 10:44:08.90,50,-231,-2056,-2,9,0,-361,455,-816,-47
,301,2023-10-27 10:44:08.91,42,-241,-2044,-4,4,3,-564,648,-1212,-42
,302,2023-10-27 10:44:08.92,48,-238,-2040,-6,3,3,-362,465,-827,-51
,303,2023-10-27 10:44:08.93,44,-242,-2047,-5,4,8,-558,664,-1222,-53
,304,2023-10-27 10:44:08.94,43,-236,-2051,-5,5,9,-357,473,-830,-58
,305,2023-10-27 10:44:08.95,60,-231,-2047,-8,7,13,-560,676,-1236,-58
,306,2023-10-27 10:44:08.96,54,-230,-2049,-10,9,14,-361,463,-824,-51
,307,2023-10-27 10:44:08.97,53,-235,-2051,-13,7,16,-568,662,-1230,-47
,308,2023-10-27 10:44:08.98,58,-226,-2047,-13,6,17,-364,451,-815,-43
,309,2023-10-27 10:44:08.99,55,-225,-2057,-11,6,19,-563,654,-1217,-45
,310,2023-10-27 10:44:09.00,58,-220,-2052,-7,-1,18,-361,450,-811,-44
,311,2023-10-27 10:44:09.01,60,-226,-2052,-6,-5,18,-562,667,-1229,-52
,312,2023-10-27 10:44:09.02,52,-221,-2061,-5,-9,15,-358,452,-810,-47
,313,2023-10-27 10:44:09.03,57,-225,-2045,2,-11,17,-566,660,-1226,-47
,314,2023-10-27 10:44:09.04,44,-239,-2054,5,-11,20,-362,448,-810,-43
,315,2023-10-27 10:44:09.05,45,-225,-2053,6,-10,20,-562,671,-1233,-54
,316,2023-10-27 10:44:09.06,45,-239,-2050,7,-13,23,-360,450,-810,-45
,317,2023-10-27 10:44:09.07,37,-229,-2065,7,-7,24,-564,667,-1231,-51
,318,2023-10-27 10:44:09.08,47,-240,-2050,13,-13,30,-361,448,-809,-43
,319,2023-10-27 10:44:09.09,39,-219,-2039,15,-9,30,-564,671,-1235,-53
,320,2023-10-27 10:44:09.10,40,-226,-2051,8,-4,30,-362,447,-809,-42
,321,2023-10-27 10:44:09.11,42,-232,-2053,3,7,33,-562,675,-1237,-56
,322,2023-10-27 10:44:09.12,41,-234,-2050,9,9,34,-357,451,-808,-47
,323,2023-10-27 10:44:09.13,33,-225,-2037,12,1,32,-562,671,-1233,-54
,324,2023-10-27 10:44:09.14,67,-241,-2047,9,2,27,-363,445,-808,-41
,325,2023-10-27 10:44:09.15,40,-216,-2056,10,9,27,-563,668,-1231,-52
,326,2023-10-27 10:44:09.16,46,-220,-2051,16,10,16,-366,440,-806,-37
,327,2023-10-27 10:44:09.17,53,-238,-2043,18,5,14,-563,669,-1232,-53
,328,2023-10-27 10:44:09.18,53,-220,-2048,16,11,6,-363,448,-811,-42
,329,2023-10-27 10:44:09.19,54,-230,-2058,9,13,3,-565,669,-1234,-52
,330,2023-10-27 10:44:09.20,45,-229,-2054,9,4,1,-368,443,-811,-37
,331,2023-10-27 10:44:09.21,48,-219,-2048,11,-4,2,-566,672,-1238,-53
,332,2023-10-27 10:44:09.22,47,-234,-2063,13,-1,3,-375,450,-825,-37
,333,2023-10-27 10:44:09.23,68,-223,-2045,10,-10,3,-569,682,-1251,-56
,334,2023-10-27 10:44:09.24,47,-231,-2046,3,-15,3,-370,448,-818,-39
,335,2023-10-27 10:44:09.25,55,-216,-2041,0,-12,2,-565,664,-1229,-49
,336,2023-10-27 10:44:09.26,65,-206,-2040,-5,-3,2,-378,437,-815,-29
,337,2023-10-27 10:44:09.27,62,-232,-2028,-15,-9,-2,-571,665,-1236,-47
,338,2023-10-27 10:44:09.28,43,-246,-2046,-17,-13,-1,-382,443,-825,-30
,339,2023-10-27 10:44:09.29,49,-206,-2040,-17,-18,0,-567,674,-1241,-53
,340,2023-10-27 10:44:09.30,29,-235,-2040,-12,-23,3,-383,448,-831,-32
,341,2023-10-27 10:44:09.31,37,-236,-2047,-7,-31,6,-564,670,-1234,-53
,342,2023-10-27 10:44:09.32,35,-250,-2051,-6,-31,10,-390,436,-826,-23
,343,2023-10-27 10:44:09.33,38,-226,-2037,0,-34,12,-558,669,-1227,-55
,344,2023-10-27 10:44:09.34,16,-241,-2036,10,-43,9,-377,457,-834,-40
,345,2023-10-27 10:44:09.35,37,-225,-2029,9,-30,12,-558,682,-1240,-62
,346,2023-10-27 10:44:09.36,47,-233,-2048,19,-39,13,-387,451,-838,-32
,347,2023-10-27 10:44:09.37,36,-213,-2056,22,-39,8,-558,664,-1222,-53
,348,2023-10-27 10:44:09.38,28,-221,-2056,11,-35,6,-386,445,-831,-29
,349,2023-10-27 10:44:09.39,38,-218,-2054,11,-39,0,-558,672,-1230,-57
,350,2023-10-27 10:44:09.40,18,-222,-2056,22,-48,0,-392,470,-862,-39
,351,2023-10-27 10:44:09.41,26,-243,-2051,21,-51,0,-555,680,-1235,-62
,352,2023-10-27 10:44:09.42,16,-244,-2037,34,-54,-1,-390,455,-845,-32
,353,2023-10-27 10:44:09.43,26,-247,-2037,39,-44,-3,-545,659,-1204,-57
,354,2023-10-27 10:44:09.44,40,-246,-2038,44,-45,-2,-388,452,-840,-32
,355,2023-10-27 10:44:09.45,25,-255,-2028,40,-42,1,-547,669,-1216,-61
,356,2023-10-27 10:44:09.46,14,-249,-2049,46,-36,6,-395,482,-877,-43
,357,2023-10-27 10:44:09.47,29,-274,-2039,48,-41,11,-547,679,-1226,-66
,358,2023-10-27 10:44:09.48,26,-280,-2042,46,-33,14,-400,469,-869,-34
,359,2023-10-27 10:44:09.49,22,-292,-2036,54,-28,25,-544,652,-1196,-54
,360,2023-10-27 10:44:09.50,21,-305,-2041,67,-25,33,-398,450,-848,-26
,361,2023-10-27 10:44:09.51,30,-319,-2063,91,-30,49,-542,638,-1180,-48
,362,2023-10-27 10:44:09.52,25,-289,-2072,108,-22,49,-409,453,-862,-22
,363,2023-10-27 10:44:09.53,35,-314,-2066,109,-14,51,-540,645,-1185,-52
,364,2023-10-27 10:44:09.54,16,-299,-2060,99,0,53,-411,461,-872,-25
,365,2023-10-27 10:44:09.55,31,-333,-2062,109,17,51,-537,646,-1183,-54
,366,2023-10-27 10:44:09.56,12,-276,-2025,120,10,54,-412,468,-880,-28
,367,2023-10-27 10:44:09.57,11,-305,-2045,130,14,52,-533,641,-1174,-54
,368,2023-10-27 10:44:09.58,4,-312,-2029,125,12,67,-415,474,-889,-29
,369,2023-10-27 10:44:09.59,14,-325,-2033,136,8,71,-528,652,-1180,-62
,370,2023-10-27 10:44:09.60,18,-337,-2008,149,7,71,-419,489,-908,-35
,371,2023-10-27 10:44:09.61,6,-333,-1994,154,20,88,-531,650,-1181,-59
,372,2023-10-27 10:44:09.62,11,-330,-1978,163,26,90,-429,482,-911,-26
,373,2023-10-27 10:44:09.63,29,-354,-1972,178,33,100,-524,628,-1152,-52
,374,2023-10-27 10:44:09.64,27,-350,-1994,201,44,90,-428,470,-898,-21
,375,2023-10-27 10:44:09.65,35,-365,-1981,220,52,100,-521,627,-1148,-53
,376,2023-10-27 10:44:09.66,50,-371,-1964,239,57,93,-430,481,-911,-25
,377,2023-10-27 10:44:09.67,85,-385,-1967,258,78,86,-515,625,-1140,-55
,378,2023-10-27 10:44:09.68,53,-383,-1966,276,105,78,-432,492,-924,-30
,379,2023-10-27 10:44:09.69,56,-291,-2011,327,130,52,-507,637,-1144,-65
,380,2023-10-27 10:44:09.70,105,-360,-2001,333,138,25,-430,489,-919,-29
,381,2023-10-27 10:44:09.71,107,-426,-1990,296,130,36,-509,616,-1125,-53
,382,2023-10-27 10:44:09.72,89,-372,-2021,326,149,12,-444,486,-930,-21
,383,2023-10-27 10:44:09.73,101,-343,-2061,335,181,-4,-511,593,-1104,-41
,384,2023-10-27 10:44:09.74,129,-332,-2064,330,176,-31,-443,485,-928,-21
,385,2023-10-27 10:44:09.75,127,-378,-2047,294,157,-33,-494,612,-1106,-59
,386,2023-10-27 10:44:09.76,134,-341,-2101,255,152,-47,-441,502,-943,-30
,387,2023-10-27 10:44:09.77,111,-318,-2130,226,151,-70,-487,601,-1088,-57
,388,2023-10-27 10:44:09.78,132,-314,-2127,175,134,-106,-449,505,-954,-28
,389,2023-10-27 10:44:09.79,150,-305,-2148,94,107,-128,-487,603,-1090,-58
,390,2023-10-27 10:44:09.80,151,-297,-2122,20,69,-149,-452,509,-961,-28
,391,2023-10-27 10:44:09.81,145,-288,-2180,-19,14,-173,-479,619,-1098,-70
,392,2023-10-27 10:44:09.82,124,-294,-2195,-59,-37,-195,-452,538,-990,-43
,393,2023-10-27 10:44:09.83,149,-301,-2232,-105,-109,-221,-464,637,-1101,-86
,394,2023-10-27 10:44:09.84,134,-303,-2262,-179,-180,-233,-446,561,-1007,-57
,395,2023-10-27 10:44:09.85,108,-291,-2298,-241,-227,-252,-452,628,-1080,-88
,396,2023-10-27 10:44:09.86,116,-273,-2317,-285,-288,-277,-444,552,-996,-54
,397,2023-10-27 10:44:09.87,106,-268,-2249,-312,-389,-295,-444,596,-1040,-76
,398,2023-10-27 10:44:09.88,101,-303,-2196,-363,-458,-299,-453,530,-983,-38
,399,2023-10-27 10:44:09.89,45,-270,-2227,-388,-514,-297,-446,605,-1051,-79
,400,2023-10-27 10:44:09.90,37,-292,-2264,-368,-612,-299,-460,557,-1017,-48
,401,2023-10-27 10:44:09.91,-9,-312,-2204,-386,-691,-304,-432,570,-1002,-69
,402,2023-10-27 10:44:09.92,-11,-324,-2124,-420,-762,-300,-439,514,-953,-37
,403,2023-10-27 10:44:09.93,-57,-329,-2107,-460,-828,-290,-424,566,-990,-71
,404,2023-10-27 10:44:09.94,-106,-320,-2070,-483,-863,-284,-469,553,-1022,-42
,405,2023-10-27 10:44:09.95,-151,-336,-2049,-471,-945,-298,-435,570,-1005,-67
,406,2023-10-27 10:44:09.96,-138,-360,-2055,-503,-1002,-272,-470,518,-988,-24
,407,2023-10-27 10:44:09.97,-192,-339,-2031,-538,-1031,-248,-430,516,-946,-43
,408,2023-10-27 10:44:09.98,-297,-305,-2046,-517,-1070,-247,-476,504,-980,-14
,409,2023-10-27 10:44:09.99,-278,-299,-2023,-514,-1141,-214,-426,523,-949,-48
,410,2023-10-27 10:44:10.00,-271,-267,-2028,-553,-1177,-192,-485,522,-1007,-18
,411,2023-10-27 10:44:10.01,-436,-284,-2064,-589,-1206,-152,-426,532,-958,-53
,412,2023-10-27 10:44:10.02,-429,-225,-2034,-617,-1230,-138,-489,537,-1026,-24
,413,2023-10-27 10:44:10.03,-410,-346,-1895,-654,-1243,-94,-436,503,-939,-33
,414,2023-10-27 10:44:10.04,-488,-236,-1887,-686,-1246,-66,-500,490,-990,5
,415,2023-10-27 10:44:10.05,-466,-217,-1766,-721,-1223,-32,-429,449,-878,-10
,416,2023-10-27 10:44:10.06,-529,-151,-1737,-753,-1154,-8,-501,458,-959,21
,417,2023-10-27 10:44:10.07,-564,-115,-1695,-811,-1043,-4,-418,433,-851,-7
,418,2023-10-27 10:44:10.08,-614,-38,-1667,-876,-884,-9,-499,455,-954,22
,419,2023-10-27 10:44:10.09,-588,-83,-1698,-927,-698,-11,-416,411,-827,2
,420,2023-10-27 10:44:10.10,-594,-29,-1704,-930,-518,-7,-506,426,-932,40
,421,2023-10-27 10:44:10.11,-588,-42,-1679,-919,-379,-7,-402,392,-794,5
,422,2023-10-27 10:44:10.12,-633,29,-1661,-918,-212,-25,-502,420,-922,41
,423,2023-10-27 10:44:10.13,-598,81,-1669,-922,-60,-48,-401,384,-785,8
,424,2023-10-27 10:44:10.14,-555,96,-1699,-922,100,-59,-511,423,-934,44
,425,2023-10-27 10:44:10.15,-561,187,-1735,-923,243,-104,-392,396,-788,-2
,426,2023-10-27 10:44:10.16,-487,278,-1792,-927,358,-129,-503,449,-952,27
,427,2023-10-27 10:44:10.17,-517,355,-1921,-943,474,-178,-380,413,-793,-16
,428,2023-10-27 10:44:10.18,-430,454,-1970,-970,553,-228,-500,483,-983,8
,429,2023-10-27 10:44:10.19,-388,412,-1963,-1026,688,-270,-375,431,-806,-28
,430,2023-10-27 10:44:10.20,-357,438,-2030,-1060,719,-348,-498,514,-1012,-8
,431,2023-10-27 10:44:10.21,-294,524,-2012,-1110,739,-379,-362,456,-818,-47
,432,2023-10-27 10:44:10.22,-206,468,-1918,-1154,853,-415,-497,542,-1039,-22
,433,2023-10-27 10:44:10.23,-224,438,-1929,-1196,942,-456,-366,458,-824,-46
,434,2023-10-27 10:44:10.24,-186,603,-2120,-1233,870,-523,-500,552,-1052,-26
,435,2023-10-27 10:44:10.25,-107,592,-2033,-1273,982,-582,-357,457,-814,-50
,436,2023-10-27 10:44:10.26,-109,441,-2014,-1281,872,-586,-497,570,-1067,-36
,437,2023-10-27 10:44:10.27,-110,659,-2059,-1321,918,-646,-353,453,-806,-50
,438,2023-10-27 10:44:10.28,-73,683,-2038,-1318,883,-684,-501,532,-1033,-15
,439,2023-10-27 10:44:10.29,-109,656,-2094,-1325,903,-721,-352,419,-771,-33
,440,2023-10-27 10:44:10.30,14,536,-2004,-1308,847,-744,-508,534,-1042,-13
,441,2023-10-27 10:44:10.31,-28,582,-1984,-1289,888,-758,-355,411,-766,-28
,442,2023-10-27 10:44:10.32,2,572,-2118,-1267,824,-787,-516,530,-1046,-7
,443,2023-10-27 10:44:10.33,-19,625,-1997,-1189,775,-778,-350,404,-754,-27
,444,2023-10-27 10:44:10.34,-29,582,-2042,-1110,665,-779,-510,541,-1051,-15
,445,2023-10-27 10:44:10.35,-6,626,-2091,-1067,572,-760,-338,413,-751,-37
,446,2023-10-27 10:44:10.36,0,677,-2127,-1030,485,-745,-510,562,-1072,-26
,447,2023-10-27 10:44:10.37,-24,665,-2066,-979,436,-724,-337,424,-761,-43
,448,2023-10-27 10:44:10.38,20,687,-2030,-883,321,-699,-511,576,-1087,-32
,449,2023-10-27 10:44:10.39,-35,679,-2048,-804,246,-680,-327,432,-759,-52
,450,2023-10-27 10:44:10.40,15,653,-2053,-721,186,-652,-506,608,-1114,-51
,451,2023-10-27 10:44:10.41,-23,698,-2062,-652,143,-633,-313,441,-754,-64
,452,2023-10-27 10:44:10.42,-32,664,-2066,-594,67,-604,-496,589,-1085,-46
,453,2023-10-27 10:44:10.43,-128,818,-2079,-536,6,-570,-305,418,-723,-56
,454,2023-10-27 10:44:10.44,-142,691,-2085,-470,-133,-518,-490,611,-1101,-60
,455,2023-10-27 10:44:10.45,-103,494,-2106,-420,-81,-474,-293,443,-736,-75
,456,2023-10-27 10:44:10.46,-63,561,-2032,-318,-214,-393,-482,656,-1138,-87
,457,2023-10-27 10:44:10.47,-132,667,-2009,-228,-245,-338,-290,460,-750,-85
,458,2023-10-27 10:44:10.48,-115,643,-1967,-153,-336,-281,-484,647,-1131,-81
,459,2023-10-27 10:44:10.49,32,595,-1893,-102,-302,-221,-282,442,-724,-80
,460,2023-10-27 10:44:10.50,-394,645,-2004,-33,-365,-175,-480,656,-1136,-88
,461,2023-10-27 10:44:10.51,-24,666,-1865,2,-311,-114,-283,443,-726,-80
,462,2023-10-27 10:44:10.52,-181,583,-1829,42,-293,-76,-476,656,-1132,-90
,463,2023-10-27 10:44:10.53,-164,613,-1799,77,-251,-31,-280,424,-704,-72
,464,2023-10-27 10:44:10.54,-175,580,-1791,119,-186,-2,-476,644,-1120,-84
,465,2023-10-27 10:44:10.55,-187,615,-1805,138,-129,25,-283,409,-692,-63
,466,2023-10-27 10:44:10.56,-200,604,-1818,127,-78,55,-477,644,-1121,-83
,467,2023-10-27 10:44:10.57,-185,589,-1832,115,-26,85,-273,429,-702,-78
,468,2023-10-27 10:44:10.58,-204,608,-1876,110,25,103,-480,653,-1133,-86
,469,2023-10-27 10:44:10.59,-185,607,-1855,94,55,133,-275,422,-697,-73
,470,2023-10-27 10:44:10.60,-205,603,-1900,83,94,157,-474,647,-1121,-86
,471,2023-10-27 10:44:10.61,-176,601,-1862,62,108,180,-271,392,-663,-60
,472,2023-10-27 10:44:10.62,-160,624,-1893,42,131,199,-478,617,-1095,-69
,473,2023-10-27 10:44:10.63,-137,583,-1927,11,140,209,-274,374,-648,-50
,474,2023-10-27 10:44:10.64,-143,684,-1900,-17,124,220,-480,595,-1075,-57
,475,2023-10-27 10:44:10.65,-143,706,-1904,-46,151,207,-282,345,-627,-31
,476,2023-10-27 10:44:10.66,-120,688,-1927,-75,168,181,-486,581,-1067,-47
,477,2023-10-27 10:44:10.67,-132,743,-1932,-102,169,144,-281,349,-630,-34
,478,2023-10-27 10:44:10.68,-123,770,-1984,-97,131,103,-484,579,-1063,-47
,479,2023-10-27 10:44:10.69,-154,712,-1991,-90,95,63,-281,330,-611,-24
,480,2023-10-27 10:44:10.70,-170,695,-2055,-74,42,24,-486,562,-1048,-38
,481,2023-10-27 10:44:10.71,-160,627,-2034,-60,-3,0,-282,329,-611,-23
,482,2023-10-27 10:44:10.72,-164,655,-2077,-49,-113,-26,-490,573,-1063,-41
,483,2023-10-27 10:44:10.73,-174,711,-2023,-31,-184,-44,-290,339,-629,-24
,484,2023-10-27 10:44:10.74,-185,698,-2000,-31,-225,-66,-490,580,-1070,-45
,485,2023-10-27 10:44:10.75,-168,681,-2017,-52,-257,-80,-288,344,-632,-28
,486,2023-10-27 10:44:10.76,-183,695,-2010,-54,-290,-90,-492,585,-1077,-46
,487,2023-10-27 10:44:10.77,-210,653,-1984,-49,-304,-89,-293,341,-634,-24
,488,2023-10-27 10:44:10.78,-230,657,-1948,-22,-330,-88,-493,577,-1070,-42
,489,2023-10-27 10:44:10.79,-234,635,-1922,4,-331,-89,-290,350,-640,-30
,490,2023-10-27 10:44:10.80,-245,663,-1947,12,-322,-87,-486,601,-1087,-57
,491,2023-10-27 10:44:10.81,-286,602,-1968,28,-296,-84,-290,358,-648,-34
,492,2023-10-27 10:44:10.82,-276,617,-1937,44,-292,-81,-480,595,-1075,-57
,493,2023-10-27 10:44:10.83,-291,623,-1899,71,-272,-69,-280,370,-650,-45
,494,2023-10-27 10:44:10.84,-300,620,-1919,87,-252,-70,-472,615,-1087,-71
,495,2023-10-27 10:44:10.85,-312,564,-1908,99,-231,-78,-285,386,-671,-50
,496,2023-10-27 10:44:10.86,-295,590,-1885,124,-212,-70,-472,623,-1095,-75
,497,2023-10-27 10:44:10.87,-307,642,-1843,131,-176,-72,-280,391,-671,-55
,498,2023-10-27 10:44:10.88,-309,619,-1854,116,-144,-68,-468,618,-1086,-75
,499,2023-10-27 10:44:10.89,-296,616,-1849,94,-107,-75,-286,387,-673,-50
,500,2023-10-27 10:44:10.90,-299,594,-1874,71,-64,-63,-471,619,-1090,-74
,501,2023-10-27 10:44:10.91,-273,615,-1866,47,-33,-56,-292,393,-685,-50
,502,2023-10-27 10:44:10.92,-275,613,-1870,18,-7,-47,-467,626,-1093,-79
,503,2023-10-27 10:44:10.93,-248,638,-1865,-5,20,-40,-277,413,-690,-68
,504,2023-10-27 10:44:10.94,-232,600,-1847,-30,43,-21,-463,631,-1094,-84
,505,2023-10-27 10:44:10.95,-243,626,-1876,-52,68,-1,-287,409,-696,-61
,506,2023-10-27 10:44:10.96,-212,661,-1875,-64,81,10,-463,618,-1081,-77
,507,2023-10-27 10:44:10.97,-222,646,-1872,-72,98,3,-285,410,-695,-62
,508,2023-10-27 10:44:10.98,-187,627,-1890,-85,109,2,-451,633,-1084,-91
,509,2023-10-27 10:44:10.99,-209,664,-1889,-77,99,2,-292,406,-698,-57
,510,2023-10-27 10:44:11.00,-236,646,-1930,-89,122,6,-451,620,-1071,-84
,511,2023-10-27 10:44:11.01,-263,645,-1918,-92,113,1,-294,409,-703,-57
,512,2023-10-27 10:44:11.02,-282,563,-1940,-76,103,5,-442,631,-1073,-94
,513,2023-10-27 10:44:11.03,-262,548,-2001,-44,35,18,-283,426,-709,-71
,514,2023-10-27 10:44:11.04,-297,556,-2020,-6,2,36,-439,644,-1083,-102
,515,2023-10-27 10:44:11.05,-300,604,-2018,49,-62,56,-293,442,-735,-74
,516,2023-10-27 10:44:11.06,-299,614,-1964,78,-106,67,-428,640,-1068,-106
,517,2023-10-27 10:44:11.07,-301,651,-1978,86,-137,70,-285,433,-718,-74
,518,2023-10-27 10:44:11.08,-294,648,-1962,90,-180,77,-422,630,-1052,-104
,519,2023-10-27 10:44:11.09,-326,663,-1984,67,-166,77,-291,432,-723,-70
,520,2023-10-27 10:44:11.10,-330,681,-1963,36,-178,61,-421,628,-1049,-103
,521,2023-10-27 10:44:11.11,-343,654,-1968,12,-165,44,-291,438,-729,-73
,522,2023-10-27 10:44:11.12,-358,662,-1982,-4,-172,24,-407,638,-1045,-115
,523,2023-10-27 10:44:11.13,-353,636,-2005,-8,-164,-4,-289,441,-730,-76
,524,2023-10-27 10:44:11.14,-371,679,-1997,-19,-173,-37,-407,632,-1039,-112
,525,2023-10-27 10:44:11.15,-377,660,-1960,-33,-174,-76,-294,444,-738,-75
,526,2023-10-27 10:44:11.16,-367,660,-1990,-32,-159,-123,-402,627,-1029,-112
,527,2023-10-27 10:44:11.17,-374,642,-1965,-45,-155,-168,-292,454,-746,-81
,528,2023-10-27 10:44:11.18,-397,666,-1892,-64,-133,-213,-393,651,-1044,-129
,529,2023-10-27 10:44:11.19,-370,595,-1992,-85,-117,-263,-294,460,-754,-83
,530,2023-10-27 10:44:11.20,-394,567,-1959,-79,-118,-280,-397,628,-1025,-115
,531,2023-10-27 10:44:11.21,-389,551,-1908,-69,-120,-294,-305,456,-761,-75
,532,2023-10-27 10:44:11.22,-380,510,-1895,-68,-116,-305,-396,625,-1021,-114
,533,2023-10-27 10:44:11.23,-381,497,-1889,-73,-107,-288,-311,463,-774,-76
,534,2023-10-27 10:44:11.24,-381,513,-1889,-85,-77,-267,-396,622,-1018,-113
,535,2023-10-27 10:44:11.25,-355,476,-1863,-50,-89,-238,-317,464,-781,-73
,536,2023-10-27 10:44:11.26,-360,440,-1872,-40,-82,-178,-388,608,-996,-110
,537,2023-10-27 10:44:11.27,-373,456,-1854,-31,-78,-134,-312,458,-770,-73
,538,2023-10-27 10:44:11.28,-360,455,-1843,-23,-77,-89,-381,589,-970,-104
,539,2023-10-27 10:44:11.29,-360,462,-1840,2,-76,-46,-321,451,-772,-65
,540,2023-10-27 10:44:11.30,-372,471,-1823,22,-87,-10,-370,581,-951,-105
,541,2023-10-27 10:44:11.31,-356,504,-1836,9,-85,29,-308,453,-761,-72
,542,2023-10-27 10:44:11.32,-365,527,-1824,15,-79,67,-370,579,-949,-104
,543,2023-10-27 10:44:11.33,-356,547,-1822,6,-94,90,-327,454,-781,-63
,544,2023-10-27 10:44:11.34,-361,552,-1817,-17,-103,115,-367,571,-938,-102
,545,2023-10-27 10:44:11.35,-356,600,-1830,-57,-91,137,-338,452,-790,-57
,546,2023-10-27 10:44:11.36,-387,626,-1849,-116,-78,155,-385,556,-941,-85
,547,2023-10-27 10:44:11.37,-371,633,-1825,-167,-92,169,-363,458,-821,-47
,548,2023-10-27 10:44:11.38,-376,685,-1872,-220,-98,193,-393,559,-952,-83
,549,2023-10-27 10:44:11.39,-404,676,-1873,-283,-105,208,-367,468,-835,-50
,550,2023-10-27 10:44:11.40,-408,701,-1870,-326,-117,229,-388,548,-936,-80
,551,2023-10-27 10:44:11.41,-413,734,-1885,-375,-131,250,-356,468,-824,-56
,552,2023-10-27 10:44:11.42,-424,766,-1864,-419,-122,268,-366,548,-914,-91
,553,2023-10-27 10:44:11.43,-405,786,-1879,-441,-114,287,-356,451,-807,-47
,554,2023-10-27 10:44:11.44,-411,793,-1840,-446,-113,303,-366,536,-902,-85
,555,2023-10-27 10:44:11.45,-417,802,-1852,-446,-111,325,-372,445,-817,-36
,556,2023-10-27 10:44:11.46,-419,833,-1839,-415,-121,339,-364,536,-900,-86
,557,2023-10-27 10:44:11.47,-425,838,-1830,-392,-75,356,-368,466,-834,-49
,558,2023-10-27 10:44:11.48,-406,829,-1836,-359,-22,373,-355,557,-912,-101
,559,2023-10-27 10:44:11.49,-389,810,-1857,-301,-25,406,-385,470,-855,-42
,560,2023-10-27 10:44:11.50,-392,805,-1872,-234,-39,443,-363,485,-848,-61
,561,2023-10-27 10:44:11.51,-390,827,-1838,-176,-42,472,-410,243,-653,83
,562,2023-10-27 10:44:11.52,-375,854,-1842,-153,-21,508,-374,105,-479,134
,563,2023-10-27 10:44:11.53,-361,886,-1787,-121,-24,530,-412,193,-605,109
,564,2023-10-27 10:44:11.54,-338,900,-1786,-92,-11,562,-289,422,-711,-66
,565,2023-10-27 10:44:11.55,-314,908,-1778,-69,12,562,-335,-33,-302,184
,566,2023-10-27 10:44:11.56,-302,908,-1807,-41,42,552,-182,-32,-150,107
,567,2023-10-27 10:44:11.57,-305,911,-1791,-3,66,545,-262,-348,86,305
,568,2023-10-27 10:44:11.58,-289,928,-1784,32,71,533,-160,-500,340,330
,569,2023-10-27 10:44:11.59,-302,935,-1800,57,67,515,-263,-106,-157,184
,570,2023-10-27 10:44:11.60,-283,955,-1840,54,61,488,-182,118,-300,32
,571,2023-10-27 10:44:11.61,-284,944,-1831,26,62,460,-272,430,-702,-79
,572,2023-10-27 10:44:11.62,-294,946,-1838,11,53,428,-228,271,-499,-21
,573,2023-10-27 10:44:11.63,-304,906,-1854,-8,61,406,-288,303,-591,-7
,574,2023-10-27 10:44:11.64,-280,908,-1859,-20,41,378,-297,70,-367,113
,575,2023-10-27 10:44:11.65,-296,918,-1818,-36,27,360,344,205,139,-274
,576,2023-10-27 10:44:11.66,-284,946,-1816,-40,7,325,322,106,216,-214
,577,2023-10-27 10:44:11.67,-279,943,-1828,-76,19,296,454,242,212,-348
,578,2023-10-27 10:44:11.68,-277,938,-1805,-101,15,263,91,77,14,-84
,579,2023-10-27 10:44:11.69,-272,983,-1801,-128,18,228,160,199,-39,-179
,580,2023-10-27 10:44:11.70,-285,983,-1802,-144,19,194,-77,49,-126,14
,581,2023-10-27 10:44:11.71,-268,996,-1815,-156,26,162,87,194,-107,-140
,582,2023-10-27 10:44:11.72,-248,1002,-1819,-192,50,119,-133,43,-176,45
,583,2023-10-27 10:44:11.73,-242,1032,-1803,-203,58,63,-7,189,-196,-91
,584,2023-10-27 10:44:11.74,-243,1043,-1791,-196,49,5,-220,35,-255,92
,585,2023-10-27 10:44:11.75,-257,1033,-1834,-183,67,-63,-66,169,-235,-51
,586,2023-10-27 10:44:11.76,-234,1028,-1791,-168,71,-132,-260,-5,-255,132
,587,2023-10-27 10:44:11.77,-246,1017,-1811,-127,82,-194,-113,148,-261,-17
,588,2023-10-27 10:44:11.78,-246,998,-1868,-99,92,-249,-293,0,-293,146
,589,2023-10-27 10:44:11.79,-233,1013,-1792,-66,86,-302,-126,167,-293,-20
,590,2023-10-27 10:44:11.80,-233,1014,-1808,-23,92,-355,-293,19,-312,137
,591,2023-10-27 10:44:11.81,-241,1025,-1788,11,99,-409,-139,174,-313,-17
,592,2023-10-27 10:44:11.82,-251,1034,-1806,38,97,-468,-310,22,-332,144
,593,2023-10-27 10:44:11.83,-236,1028,-1798,61,101,-531,-154,190,-344,-18
,594,2023-10-27 10:44:11.84,-233,1002,-1795,74,111,-599,-317,31,-348,143
,595,2023-10-27 10:44:11.85,-235,972,-1812,102,119,-653,-154,192,-346,-19
,596,2023-10-27 10:44:11.86,-229,929,-1818,119,117,-699,-305,36,-341,134
,597,2023-10-27 10:44:11.87,-241,908,-1829,136,121,-724,-164,198,-362,-17
,598,2023-10-27 10:44:11.88,-237,841,-1843,152,124,-729,-320,43,-363,138
,599,2023-10-27 10:44:11.89,-251,827,-1855,181,124,-732,-175,206,-381,-15
,600,2023-10-27 10:44:11.90,-259,777,-1847,204,123,-728,-322,50,-372,136
,601,2023-10-27 10:44:11.91,-268,751,-1881,230,107,-705,-199,202,-401,-1
,602,2023-10-27 10:44:11.92,-263,725,-1863,254,101,-669,-375,23,-398,176
,603,2023-10-27 10:44:11.93,-271,749,-1845,276,94,-617,-348,178,-526,85
,604,2023-10-27 10:44:11.94,-286,757,-1888,282,97,-569,-455,21,-476,217
,605,2023-10-27 10:44:11.95,-278,766,-1846,269,83,-530,-267,210,-477,28
,606,2023-10-27 10:44:11.96,-301,756,-1893,251,81,-488,-328,49,-377,139
,607,2023-10-27 10:44:11.97,-280,755,-1863,217,68,-450,-144,223,-367,-39
,608,2023-10-27 10:44:11.98,-294,760,-1858,189,57,-407,-261,46,-307,107
,609,2023-10-27 10:44:11.99,-290,715,-1903,173,56,-368,-91,218,-309,-63
,610,2023-10-27 10:44:12.00,-304,731,-1874,155,49,-324,-219,47,-266,86
,611,2023-10-27 10:44:12.01,-302,721,-1892,139,43,-279,-48,219,-267,-85
,612,2023-10-27 10:44:12.02,-303,727,-1888,126,23,-231,-180,43,-223,68
,613,2023-10-27 10:44:12.03,-293,741,-1875,108,4,-186,-3,228,-231,-112
,614,2023-10-27 10:44:12.04,-290,753,-1886,99,-26,-158,-142,62,-204,40
,615,2023-10-27 10:44:12.05,-286,715,-1875,92,-44,-126,11,234,-223,-122
,616,2023-10-27 10:44:12.06,-301,751,-1851,67,-28,-86,-145,43,-188,51
,617,2023-10-27 10:44:12.07,-295,752,-1851,88,-44,-60,13,210,-197,-111
,618,2023-10-27 10:44:12.08,-316,750,-1859,88,-39,-42,-125,33,-158,46
,619,2023-10-27 10:44:12.09,-325,765,-1864,88,-51,-36,75,202,-127,-138
,620,2023-10-27 10:44:12.10,-334,760,-1851,85,-69,-30,-70,23,-93,23
,621,2023-10-27 10:44:12.11,-344,743,-1874,74,-68,-18,107,213,-106,-160
,622,2023-10-27 10:44:12.12,-354,737,-1866,64,-63,-5,-52,47,-99,2
,623,2023-10-27 10:44:12.13,-345,732,-1856,69,-70,10,101,234,-133,-167
,624,2023-10-27 10:44:12.14,-349,716,-1856,74,-62,28,-76,52,-128,12
,625,2023-10-27 10:44:12.15,-346,725,-1844,73,-54,46,70,257,-187,-163
,626,2023-10-27 10:44:12.16,-358,724,-1834,66,-38,65,-72,98,-170,-13
,627,2023-10-27 10:44:12.17,-352,729,-1848,66,-28,82,103,301,-198,-202
,628,2023-10-27 10:44:12.18,-348,739,-1857,56,-12,97,-35,122,-157,-43
,629,2023-10-27 10:44:12.19,-362,750,-1852,51,-10,109,139,275,-136,-207
,630,2023-10-27 10:44:12.20,-360,746,-1852,39,0,115,-15,82,-97,-33
,631,2023-10-27 10:44:12.21,-361,723,-1857,36,14,119,144,273,-129,-208
,632,2023-10-27 10:44:12.22,-369,721,-1851,29,34,136,-12,102,-114,-45
,633,2023-10-27 10:44:12.23,-379,725,-1870,37,17,152,141,301,-160,-221
,634,2023-10-27 10:44:12.24,-370,729,-1864,39,14,166,-16,112,-128,-48
,635,2023-10-27 10:44:12.25,-363,727,-1847,43,-1,182,179,308,-129,-243
,636,2023-10-27 10:44:12.26,-363,728,-1847,49,-7,198,44,126,-82,-85
,637,2023-10-27 10:44:12.27,-373,731,-1837,44,-9,205,224,297,-73,-260
,638,2023-10-27 10:44:12.28,-367,757,-1853,34,30,205,48,90,-42,-69
,639,2023-10-27 10:44:12.29,-363,763,-1841,48,33,208,234,290,-56,-262
,640,2023-10-27 10:44:12.30,-366,770,-1855,32,51,209,73,120,-47,-96
,641,2023-10-27 10:44:12.31,-354,762,-1833,17,60,212,271,349,-78,-310
,642,2023-10-27 10:44:12.32,-337,758,-1859,3,102,207,102,169,-67,-135
,643,2023-10-27 10:44:12.33,-339,770,-1861,-6,107,212,268,370,-102,-319
,644,2023-10-27 10:44:12.34,-327,782,-1867,2,121,209,92,162,-70,-127
,645,2023-10-27 10:44:12.35,-305,769,-1869,11,124,199,217,344,-127,-280
,646,2023-10-27 10:44:12.36,-292,764,-1877,42,136,189,32,147,-115,-89
,647,2023-10-27 10:44:12.37,-301,771,-1887,67,137,179,172,350,-178,-261
,648,2023-10-27 10:44:12.38,-296,775,-1895,91,140,172,34,157,-123,-95
,649,2023-10-27 10:44:12.39,-293,785,-1903,111,125,160,270,369,-99,-319
,650,2023-10-27 10:44:12.40,-275,768,-1902,119,105,145,149,183,-34,-166
,651,2023-10-27 10:44:12.41,-269,737,-1865,120,93,134,360,371,-11,-365
,652,2023-10-27 10:44:12.42,-279,739,-1885,137,89,136,144,174,-30,-159
,653,2023-10-27 10:44:12.43,-271,730,-1891,162,73,135,265,363,-98,-314
,654,2023-10-27 10:44:12.44,-277,729,-1852,179,55,135,72,171,-99,-121
,655,2023-10-27 10:44:12.45,-278,764,-1896,174,27,133,256,357,-101,-306
,656,2023-10-27 10:44:12.46,-274,760,-1888,158,5,124,116,164,-48,-140
,657,2023-10-27 10:44:12.47,-284,766,-1892,143,-15,115,360,344,16,-352
,658,2023-10-27 10:44:12.48,-292,774,-1884,136,-37,97,217,162,55,-189
,659,2023-10-27 10:44:12.49,-295,765,-1903,124,-58,81,503,344,159,-423
,660,2023-10-27 10:44:12.50,-294,755,-1919,107,-70,67,329,162,167,-245
,661,2023-10-27 10:44:12.51,-299,769,-1916,91,-71,52,576,349,227,-462
,662,2023-10-27 10:44:12.52,-320,744,-1887,75,-87,38,356,177,179,-266
,663,2023-10-27 10:44:12.53,-310,734,-1899,63,-92,32,595,357,238,-476
,664,2023-10-27 10:44:12.54,-324,725,-1889,46,-86,33,355,182,173,-268
,665,2023-10-27 10:44:12.55,-320,711,-1899,36,-99,42,570,367,203,-468
,666,2023-10-27 10:44:12.56,-342,734,-1882,18,-92,52,293,197,96,-245
,667,2023-10-27 10:44:12.57,-369,703,-1918,12,-94,69,400,392,8,-396
,668,2023-10-27 10:44:12.58,-364,720,-1884,-1,-93,93,136,202,-66,-169
,669,2023-10-27 10:44:12.59,-359,707,-1896,1,-95,130,173,382,-209,-277
,670,2023-10-27 10:44:12.60,-373,742,-1856,-2,-96,163,10,201,-191,-105
,671,2023-10-27 10:44:12.61,-366,754,-1873,3,-106,194,121,377,-256,-249
,672,2023-10-27 10:44:12.62,-371,788,-1849,-12,-99,222,-69,205,-274,-68
,673,2023-10-27 10:44:12.63,-356,789,-1855,-25,-90,250,-112,364,-476,-126
,674,2023-10-27 10:44:12.64,-349,826,-1843,-41,-65,282,-215,212,-427,1
,675,2023-10-27 10:44:12.65,-337,838,-1824,-45,-37,312,-441,369,-810,36
,676,2023-10-27 10:44:12.66,-330,827,-1824,-39,-3,337,-228,242,-470,-7
,677,2023-10-27 10:44:12.67,-326,827,-1781,-30,23,368,-449,339,-788,55
,678,2023-10-27 10:44:12.68,-321,797,-1811,2,66,405,-331,196,-527,67
,679,2023-10-27 10:44:12.69,-325,797,-1833,48,107,447,-508,316,-824,96
,680,2023-10-27 10:44:12.70,-303,801,-1811,102,146,483,-345,197,-542,74
,681,2023-10-27 10:44:12.71,-297,752,-1839,158,182,530,-482,298,-780,92
,682,2023-10-27 10:44:12.72,-266,723,-1852,231,208,572,-335,174,-509,80
,683,2023-10-27 10:44:12.73,-252,698,-1850,326,217,621,-504,246,-750,129
,684,2023-10-27 10:44:12.74,-221,682,-1873,424,219,661,-378,149,-527,114
,685,2023-10-27 10:44:12.75,-214,659,-1882,507,233,693,-519,207,-726,156
,686,2023-10-27 10:44:12.76,-198,625,-1904,599,228,712,-385,96,-481,144
,687,2023-10-27 10:44:12.77,-176,599,-1954,689,223,732,-464,192,-656,136
,688,2023-10-27 10:44:12.78,-170,561,-1954,780,206,746,-330,127,-457,101
,689,2023-10-27 10:44:12.79,-168,535,-2022,848,194,750,-442,173,-615,134
,690,2023-10-27 10:44:12.80,-164,522,-2051,886,161,752,-343,106,-449,118
,691,2023-10-27 10:44:12.81,-172,526,-2097,886,120,758,-450,112,-562,169
,692,2023-10-27 10:44:12.82,-162,532,-2120,858,93,754,-348,58,-406,145
,693,2023-10-27 10:44:12.83,-165,520,-2114,830,29,760,-453,43,-496,205
,694,2023-10-27 10:44:12.84,-154,541,-2061,792,-32,752,-360,53,-413,153
,695,2023-10-27 10:44:12.85,-160,559,-2041,732,-70,735,-462,118,-580,172
,696,2023-10-27 10:44:12.86,-162,559,-2009,660,-101,705,-373,152,-525,110
,697,2023-10-27 10:44:12.87,-178,550,-1988,572,-99,661,-458,221,-679,118
,698,2023-10-27 10:44:12.88,-160,583,-1967,487,-107,615,-368,205,-573,81
,699,2023-10-27 10:44:12.89,-179,564,-1973,409,-103,558,-466,180,-646,143
,700,2023-10-27 10:44:12.90,-221,537,-1985,336,-113,516,-393,166,-559,113
,701,2023-10-27 10:44:12.91,-177,523,-1915,254,-101,470,-468,214,-682,127
,702,2023-10-27 10:44:12.92,-198,547,-1915,175,-87,431,-386,228,-614,79
,703,2023-10-27 10:44:12.93,-201,543,-1912,107,-60,375,-445,260,-705,92
,704,2023-10-27 10:44:12.94,-197,527,-1906,46,-47,335,-375,254,-629,60
,705,2023-10-27 10:44:12.95,-184,510,-1906,10,-14,291,-424,288,-712,68
,706,2023-10-27 10:44:12.96,-183,489,-1913,-20,3,255,-364,288,-652,38
,707,2023-10-27 10:44:12.97,-174,508,-1920,-36,20,218,-415,311,-726,52
,708,2023-10-27 10:44:12.98,-174,496,-1936,-45,37,200,-364,313,-677,25
,709,2023-10-27 10:44:12.99,-174,493,-1960,-47,35,187,-427,283,-710,72
,710,2023-10-27 10:44:13.00,-162,491,-1971,-57,46,176,-394,283,-677,55
,711,2023-10-27 10:44:13.01,-162,484,-1965,-62,49,167,-432,274,-706,79
,712,2023-10-27 10:44:13.02,-151,489,-1989,-50,39,163,-393,300,-693,46
,713,2023-10-27 10:44:13.03,-144,518,-1975,-36,31,156,-424,280,-704,72
,714,2023-10-27 10:44:13.04,-134,533,-1985,-30,20,149,-402,292,-694,55
,715,2023-10-27 10:44:13.05,-136,556,-1988,-31,15,141,-420,258,-678,81
,716,2023-10-27 10:44:13.06,-145,574,-1991,-32,6,124,-407,280,-687,63
,717,2023-10-27 10:44:13.07,-148,592,-1991,-41,0,104,-417,244,-661,86
,718,2023-10-27 10:44:13.08,-149,577,-1992,-44,-4,85,-405,296,-701,54
,719,2023-10-27 10:44:13.09,-157,584,-1994,-44,-18,67,-405,278,-683,63
,720,2023-10-27 10:44:13.10,-171,555,-2002,-44,-30,49,-402,316,-718,43
,721,2023-10-27 10:44:13.11,-151,574,-1981,-32,-40,38,-398,237,-635,80
,722,2023-10-27 10:44:13.12,-148,578,-1979,-17,-42,24,-408,262,-670,73
,723,2023-10-27 10:44:13.13,-155,576,-1983,-5,-38,9,-411,162,-573,124
,724,2023-10-27 10:44:13.14,-166,580,-1974,5,-34,-6,-434,228,-662,103
,725,2023-10-27 10:44:13.15,-157,566,-1969,6,-28,-16,-414,174,-588,120
,726,2023-10-27 10:44:13.16,-167,560,-1974,4,-12,-30,-426,267,-693,79
,727,2023-10-27 10:44:13.17,-170,553,-1942,9,-25,-38,-391,202,-593,94
,728,2023-10-27 10:44:13.18,-172,557,-1965,7,2,-44,-422,268,-690,77
,729,2023-10-27 10:44:13.19,-160,539,-1960,7,0,-49,-398,162,-560,118
,730,2023-10-27 10:44:13.20,-159,543,-1963,9,-1,-48,-442,237,-679,102
,731,2023-10-27 10:44:13.21,-171,540,-1951,11,-1,-51,-406,148,-554,129
,732,2023-10-27 10:44:13.22,-153,533,-1945,12,2,-45,-450,264,-714,93
,733,2023-10-27 10:44:13.23,-158,535,-1943,11,4,-40,-391,201,-592,95
,734,2023-10-27 10:44:13.24,-160,531,-1939,4,4,-30,-434,310,-744,62
,735,2023-10-27 10:44:13.25,-163,533,-1957,7,13,-26,-378,191,-569,93
,736,2023-10-27 10:44:13.26,-161,532,-1963,6,14,-16,-438,267,-705,85
,737,2023-10-27 10:44:13.27,-154,544,-1953,5,23,-10,-386,132,-518,127
,738,2023-10-27 10:44:13.28,-163,544,-1975,12,19,-5,-459,243,-702,108
,739,2023-10-27 10:44:13.29,-159,559,-1973,13,19,0,-387,141,-528,123
,740,2023-10-27 10:44:13.30,-167,562,-1983,16,19,4,-452,261,-713,95
,741,2023-10-27 10:44:13.31,-163,567,-1971,20,16,2,-375,126,-501,124
,742,2023-10-27 10:44:13.32,-148,568,-1975,24,21,-2,-462,224,-686,119
,743,2023-10-27 10:44:13.33,-154,580,-1966,20,23,-4,-391,73,-464,159
,744,2023-10-27 10:44:13.34,-148,581,-1979,18,27,-12,-478,198,-676,140
,745,2023-10-27 10:44:13.35,-164,581,-1975,20,31,-20,-386,66,-452,160
,746,2023-10-27 10:44:13.36,-165,579,-1981,19,31,-31,-475,213,-688,131
,747,2023-10-27 10:44:13.37,-159,580,-1978,16,33,-35,-374,79,-453,147
,748,2023-10-27 10:44:13.38,-154,573,-1964,10,39,-38,-466,235,-701,115
,749,2023-10-27 10:44:13.39,-153,559,-1954,12,42,-44,-353,107,-460,123
,750,2023-10-27 10:44:13.40,-151,548,-1958,12,50,-42,-459,249,-708,105
,751,2023-10-27 10:44:13.41,-150,553,-1965,18,54,-40,-338,94,-432,122
,752,2023-10-27 10:44:13.42,-158,547,-1962,29,58,-38,-444,239,-683,102
,753,2023-10-27 10:44:13.43,-149,557,-1966,38,58,-40,-338,84,-422,127
,754,2023-10-27 10:44:13.44,-157,571,-1975,39,65,-42,-455,252,-707,101
,755,2023-10-27 10:44:13.45,-155,568,-1998,37,59,-54,-334,91,-425,121
,756,2023-10-27 10:44:13.46,-159,589,-1968,34,52,-66,-449,266,-715,91
,757,2023-10-27 10:44:13.47,-130,591,-1961,34,59,-81,-336,104,-440,116
,758,2023-10-27 10:44:13.48,-137,567,-1963,34,77,-100,-468,279,-747,94
,759,2023-10-27 10:44:13.49,-138,564,-1954,50,76,-115,-341,120,-461,110
,760,2023-10-27 10:44:13.50,-137,577,-1949,67,90,-128,-478,281,-759,98
,761,2023-10-27 10:44:13.51,-146,571,-1952,80,110,-151,-348,111,-459,118
,762,2023-10-27 10:44:13.52,-160,583,-1963,91,112,-169,-486,276,-762,105
,763,2023-10-27 10:44:13.53,-153,568,-1963,106,114,-183,-349,105,-454,122
,764,2023-10-27 10:44:13.54,-155,576,-1961,115,126,-196,-488,269,-757,109
,765,2023-10-27 10:44:13.55,-146,539,-1970,123,154,-199,-337,106,-443,115
,766,2023-10-27 10:44:13.56,-145,523,-1965,143,154,-202,-480,273,-753,103
,767,2023-10-27 10:44:13.57,-139,554,-1957,166,163,-202,-334,110,-444,112
,768,2023-10-27 10:44:13.58,-125,562,-1946,181,179,-206,-484,273,-757,105
,769,2023-10-27 10:44:13.59,-121,549,-1946,190,196,-213,-322,113,-435,104
,770,2023-10-27 10:44:13.60,-105,570,-1963,200,226,-226,-478,269,-747,104
,771,2023-10-27 10:44:13.61,-117,564,-1945,220,238,-238,-318,115,-433,101
,772,2023-10-27 10:44:13.62,-110,547,-1965,231,249,-251,-478,299,-777,89
,773,2023-10-27 10:44:13.63,-83,513,-1983,232,267,-244,-314,142,-456,86
,774,2023-10-27 10:44:13.64,-86,495,-1999,242,287,-241,-474,328,-802,73
,775,2023-10-27 10:44:13.65,-76,479,-2007,271,275,-225,-306,172,-478,67
,776,2023-10-27 10:44:13.66,-64,465,-2013,281,258,-211,-466,384,-850,41
,777,2023-10-27 10:44:13.67,-61,484,-1994,274,248,-199,-291,213,-504,39
,778,2023-10-27 10:44:13.68,-70,467,-1978,262,257,-187,-463,430,-893,16
,779,2023-10-27 10:44:13.69,-50,455,-2008,258,245,-167,-288,259,-547,14
,780,2023-10-27 10:44:13.70,-31,450,-1997,262,231,-147,-468,459,-927,4
,781,2023-10-27 10:44:13.71,-41,439,-2000,267,215,-129,-300,261,-561,19
,782,2023-10-27 10:44:13.72,-38,439,-2004,255,207,-115,-475,485,-960,-5
,783,2023-10-27 10:44:13.73,-32,415,-2047,248,186,-90,-287,305,-592,-9
,784,2023-10-27 10:44:13.74,-39,408,-2038,255,163,-66,-468,505,-973,-18
,785,2023-10-27 10:44:13.75,-44,397,-2059,252,139,-40,-298,297,-595,0
,786,2023-10-27 10:44:13.76,-32,390,-2049,240,126,-15,-488,482,-970,3
,787,2023-10-27 10:44:13.77,-37,385,-2041,240,91,11,-303,279,-582,12
,788,2023-10-27 10:44:13.78,-43,373,-2018,244,67,33,-479,479,-958,0
,789,2023-10-27 10:44:13.79,-28,374,-2047,241,39,53,-284,280,-564,2
,790,2023-10-27 10:44:13.80,-52,362,-2051,231,31,71,-466,479,-945,-6
,791,2023-10-27 10:44:13.81,-60,356,-2009,230,21,87,-286,275,-561,5
,792,2023-10-27 10:44:13.82,-50,365,-2043,228,2,107,-478,459,-937,9
,793,2023-10-27 10:44:13.83,-56,352,-2040,219,-9,119,-283,265,-548,9
,794,2023-10-27 10:44:13.84,-76,363,-2055,213,-18,132,-468,459,-927,4
,795,2023-10-27 10:44:13.85,-68,344,-2045,205,-24,141,-277,267,-544,5
,796,2023-10-27 10:44:13.86,-66,363,-2036,191,-30,149,-472,474,-946,-1
,797,2023-10-27 10:44:13.87,-82,362,-2027,174,-28,154,-278,309,-587,-15
,798,2023-10-27 10:44:13.88,-69,371,-2038,156,-32,159,-470,487,-957,-8
,799,2023-10-27 10:44:13.89,-86,360,-2027,144,-35,163,-287,279,-566,4
,800,2023-10-27 10:44:13.90,-87,344,-2020,131,-34,172,-466,476,-942,-5
,801,2023-10-27 10:44:13.91,-85,356,-2022,125,-39,181,-260,306,-566,-23
,802,2023-10-27 10:44:13.92,-84,342,-2004,120,-43,182,-455,489,-944,-17
,803,2023-10-27 10:44:13.93,-84,325,-1985,116,-43,191,-267,321,-588,-27
,804,2023-10-27 10:44:13.94,-91,344,-1980,113,-32,196,-472,484,-956,-6
,805,2023-10-27 10:44:13.95,-70,339,-1995,119,-25,197,-286,291,-577,-2
,806,2023-10-27 10:44:13.96,-80,350,-1984,121,-26,198,-500,383,-883,58
,807,2023-10-27 10:44:13.97,-82,358,-2010,121,-6,192,-316,201,-517,57
,808,2023-10-27 10:44:13.98,-88,355,-2015,116,5,188,-507,329,-836,89
,809,2023-10-27 10:44:13.99,-97,355,-2004,115,-2,187,-302,207,-509,47
,810,2023-10-27 10:44:14.00,-93,354,-2022,116,12,178,-485,348,-833,68
,811,2023-10-27 10:44:14.01,-80,342,-2019,111,18,171,-287,212,-499,37
,812,2023-10-27 10:44:14.02,-85,326,-2034,116,20,168,-483,296,-779,93
,813,2023-10-27 10:44:14.03,-79,347,-2009,121,25,162,-296,156,-452,70
,814,2023-10-27 10:44:14.04,-75,329,-2027,124,32,156,-485,240,-725,122
,815,2023-10-27 10:44:14.05,-69,316,-2033,128,42,148,-288,132,-420,78
,816,2023-10-27 10:44:14.06,-74,339,-2030,131,44,141,-485,193,-678,146
,817,2023-10-27 10:44:14.07,-75,327,-2059,128,56,136,-305,77,-382,114
,818,2023-10-27 10:44:14.08,-78,321,-2060,126,50,134,-492,144,-636,174
,819,2023-10-27 10:44:14.09,-90,321,-2025,135,37,134,-301,70,-371,115
,820,2023-10-27 10:44:14.10,-54,308,-2053,141,32,134,-487,120,-607,183
,821,2023-10-27 10:44:14.11,-68,309,-2010,131,43,132,-308,50,-358,129
,822,2023-10-27 10:44:14.12,-56,332,-2034,120,51,122,-489,121,-610,184
,823,2023-10-27 10:44:14.13,-55,319,-2028,106,60,112,-308,43,-351,132
,824,2023-10-27 10:44:14.14,-41,326,-2051,105,71,109,-480,109,-589,185
,825,2023-10-27 10:44:14.15,-56,325,-2035,98,70,102,-297,40,-337,128
,826,2023-10-27 10:44:14.16,-41,322,-2028,92,67,96,-480,113,-593,183
,827,2023-10-27 10:44:14.17,-40,318,-2036,89,66,94,-308,52,-360,128
,828,2023-10-27 10:44:14.18,-34,299,-2023,87,68,91,-476,147,-623,164
,829,2023-10-27 10:44:14.19,-27,291,-2038,82,62,92,-304,79,-383,112
,830,2023-10-27 10:44:14.20,-29,284,-2012,83,68,91,-482,158,-640,162
,831,2023-10-27 10:44:14.21,-19,272,-2009,95,65,95,-318,75,-393,121
,832,2023-10-27 10:44:14.22,-9,287,-2015,103,63,94,-492,157,-649,167
,833,2023-10-27 10:44:14.23,-20,286,-2012,103,69,94,-328,84,-412,122
,834,2023-10-27 10:44:14.24,-9,286,-2023,106,76,95,-485,196,-681,144
,835,2023-10-27 10:44:14.25,5,286,-2027,110,83,93,-328,188,-516,70
,836,2023-10-27 10:44:14.26,-5,296,-2024,111,84,96,-465,574,-1039,-54
,837,2023-10-27 10:44:14.27,10,280,-2046,118,75,92,-309,454,-763,-72
,838,2023-10-27 10:44:14.28,11,284,-2044,125,70,91,-481,597,-1078,-58
,839,2023-10-27 10:44:14.29,18,286,-2047,138,68,91,-352,366,-718,-7
,840,2023-10-27 10:44:14.30,11,283,-2048,144,61,87,-503,542,-1045,-19
,841,2023-10-27 10:44:14.31,2,279,-2052,147,54,86,-341,382,-723,-20
,842,2023-10-27 10:44:14.32,19,268,-2035,153,59,84,-473,597,-1070,-62
,843,2023-10-27 10:44:14.33,19,267,-2053,162,56,84,-332,414,-746,-41
,844,2023-10-27 10:44:14.34,29,267,-2051,167,56,85,-464,616,-1080,-76
,845,2023-10-27 10:44:14.35,18,249,-2053,177,55,83,-335,431,-766,-48
,846,2023-10-27 10:44:14.36,26,239,-2053,182,57,84,-475,629,-1104,-77
,847,2023-10-27 10:44:14.37,23,219,-2051,199,56,83,-357,441,-798,-42
,848,2023-10-27 10:44:14.38,27,220,-2060,217,45,91,-479,628,-1107,-74
,849,2023-10-27 10:44:14.39,22,216,-2035,219,45,93,-354,435,-789,-40
,850,2023-10-27 10:44:14.40,21,203,-2059,216,53,100,-476,620,-1096,-72
,851,2023-10-27 10:44:14.41,10,197,-2057,217,43,105,-365,433,-798,-34
,852,2023-10-27 10:44:14.42,16,215,-2045,212,37,112,-487,608,-1095,-60
,853,2023-10-27 10:44:14.43,11,200,-2052,200,38,114,-379,449,-828,-35
,854,2023-10-27 10:44:14.44,26,222,-2058,192,27,116,-489,640,-1129,-75
,855,2023-10-27 10:44:14.45,21,219,-2057,199,19,117,-384,475,-859,-45
,856,2023-10-27 10:44:14.46,18,209,-2054,193,14,114,-472,650,-1122,-89
,857,2023-10-27 10:44:14.47,20,196,-2053,178,16,110,-366,480,-846,-57
,858,2023-10-27 10:44:14.48,22,202,-2056,169,12,107,-462,647,-1109,-92
,859,2023-10-27 10:44:14.49,13,182,-2042,170,7,106,-374,484,-858,-55
,860,2023-10-27 10:44:14.50,8,189,-2026,172,4,105,-469,635,-1104,-83
,861,2023-10-27 10:44:14.51,16,176,-2044,172,5,106,-383,465,-848,-41
,862,2023-10-27 10:44:14.52,13,178,-2046,164,9,107,-471,609,-1080,-69
,863,2023-10-27 10:44:14.53,13,176,-2045,160,10,107,-392,445,-837,-26
,864,2023-10-27 10:44:14.54,15,175,-2048,162,12,103,-463,594,-1057,-65
,865,2023-10-27 10:44:14.55,12,172,-2050,162,3,100,-391,453,-844,-31
,866,2023-10-27 10:44:14.56,25,163,-2053,160,-2,95,-451,605,-1056,-77
,867,2023-10-27 10:44:14.57,13,170,-2054,151,-2,93,-379,480,-859,-50
,868,2023-10-27 10:44:14.58,10,157,-2038,144,-6,87,-453,616,-1069,-81
,869,2023-10-27 10:44:14.59,22,168,-2061,135,5,86,-410,450,-860,-20
,870,2023-10-27 10:44:14.60,16,161,-2060,129,12,88,-461,570,-1031,-54
,871,2023-10-27 10:44:14.61,2,153,-2073,124,9,90,-411,443,-854,-16
,872,2023-10-27 10:44:14.62,13,155,-2069,115,13,94,-455,571,-1026,-58
,873,2023-10-27 10:44:14.63,-1,147,-2052,110,14,99,-411,449,-860,-19
,874,2023-10-27 10:44:14.64,18,158,-2040,112,8,101,-442,572,-1014,-65
,875,2023-10-27 10:44:14.65,8,156,-2033,110,10,104,-399,462,-861,-31
,876,2023-10-27 10:44:14.66,20,152,-2033,109,14,107,-430,583,-1013,-76
,877,2023-10-27 10:44:14.67,21,155,-2039,111,20,111,-408,492,-900,-42
,878,2023-10-27 10:44:14.68,17,170,-2030,104,31,110,-437,598,-1035,-80
,879,2023-10-27 10:44:14.69,22,177,-2039,100,40,109,-425,522,-947,-48
,880,2023-10-27 10:44:14.70,30,167,-2056,93,49,108,-438,608,-1046,-85
,881,2023-10-27 10:44:14.71,31,158,-2051,88,62,105,-421,528,-949,-53
,882,2023-10-27 10:44:14.72,30,160,-2059,95,59,102,-428,600,-1028,-86
,883,2023-10-27 10:44:14.73,27,139,-2041,96,55,105,-423,511,-934,-44
,884,2023-10-27 10:44:14.74,12,152,-2068,112,52,104,-428,584,-1012,-78
,885,2023-10-27 10:44:14.75,33,139,-2049,121,47,108,-435,510,-945,-37
,886,2023-10-27 10:44:14.76,32,139,-2054,128,51,112,-424,581,-1005,-78
,887,2023-10-27 10:44:14.77,27,145,-2048,135,51,109,-433,516,-949,-41
,888,2023-10-27 10:44:14.78,29,138,-2071,146,58,115,-419,571,-990,-76
,889,2023-10-27 10:44:14.79,22,106,-2041,153,45,120,-438,527,-965,-44
,890,2023-10-27 10:44:14.80,47,124,-2045,169,54,123,-412,581,-993,-84
,891,2023-10-27 10:44:14.81,40,133,-2082,173,66,126,-434,551,-985,-58
,892,2023-10-27 10:44:14.82,49,101,-2029,178,79,124,-400,576,-976,-88
,893,2023-10-27 10:44:14.83,49,124,-2059,199,73,127,-432,557,-989,-62
,894,2023-10-27 10:44:14.84,69,97,-2066,214,78,122,-399,565,-964,-83
,895,2023-10-27 10:44:14.85,53,105,-2048,233,87,118,-442,574,-1016,-66
,896,2023-10-27 10:44:14.86,61,120,-2080,247,82,115,-410,569,-979,-79
,897,2023-10-27 10:44:14.87,67,109,-2076,243,100,109,-454,584,-1038,-65
,898,2023-10-27 10:44:14.88,59,85,-2077,249,96,109,-410,563,-973,-76
,899,2023-10-27 10:44:14.89,43,70,-2067,259,85,101,-460,586,-1046,-63
,900,2023-10-27 10:44:14.90,53,57,-2084,269,75,106,-411,561,-972,-75
,901,2023-10-27 10:44:14.91,60,51,-2060,278,69,103,-469,608,-1077,-69
,902,2023-10-27 10:44:14.92,65,34,-2053,289,63,99,-409,555,-964,-73
,903,2023-10-27 10:44:14.93,69,19,-2065,296,61,101,-467,588,-1055,-60
,904,2023-10-27 10:44:14.94,67,41,-2056,303,44,99,-398,531,-929,-66
,905,2023-10-27 10:44:14.95,77,10,-2034,293,50,104,-466,592,-1058,-63
,906,2023-10-27 10:44:14.96,57,27,-2075,289,43,106,-395,533,-928,-69
,907,2023-10-27 10:44:14.97,54,-14,-2049,293,27,111,-475,606,-1081,-65
,908,2023-10-27 10:44:14.98,48,-12,-2085,290,33,116,-395,539,-934,-72
,909,2023-10-27 10:44:14.99,54,-14,-2071,273,28,118,-478,616,-1094,-69
,910,2023-10-27 10:44:15.00,61,-14,-2061,267,20,116,-387,524,-911,-68
,911,2023-10-27 10:44:15.01,55,-12,-2065,252,13,123,-478,614,-1092,-68
,912,2023-10-27 10:44:15.02,38,-35,-2063,233,13,125,-390,516,-906,-63
,913,2023-10-27 10:44:15.03,51,-34,-2064,224,-2,127,-490,624,-1114,-67
,914,2023-10-27 10:44:15.04,35,-37,-2060,207,-3,133,-404,501,-905,-48
,915,2023-10-27 10:44:15.05,29,-38,-2079,194,-12,133,-502,608,-1110,-53
,916,2023-10-27 10:44:15.06,49,-24,-2073,184,-10,138,-389,491,-880,-51
,917,2023-10-27 10:44:15.07,41,-18,-2059,164,-19,140,-490,616,-1106,-63
,918,2023-10-27 10:44:15.08,52,-13,-2078,144,-13,138,-381,493,-874,-56
,919,2023-10-27 10:44:15.09,38,-11,-2054,124,-17,132,-501,613,-1114,-56
,920,2023-10-27 10:44:15.10,47,3,-2066,107,-7,124,-384,488,-872,-52
,921,2023-10-27 10:44:15.11,45,6,-2065,85,3,119,-500,620,-1120,-60
,922,2023-10-27 10:44:15.12,51,2,-2055,65,13,113,-380,482,-862,-51
,923,2023-10-27 10:44:15.13,34,-17,-2041,50,16,109,-501,623,-1124,-61
,924,2023-10-27 10:44:15.14,46,-24,-2037,39,29,110,-372,488,-860,-58
,925,2023-10-27 10:44:15.15,40,-24,-2042,37,41,108,-504,628,-1132,-62
,926,2023-10-27 10:44:15.16,42,-25,-2045,38,61,104,-375,474,-849,-49
,927,2023-10-27 10:44:15.17,52,-21,-2057,45,65,103,-516,613,-1129,-48
,928,2023-10-27 10:44:15.18,46,-18,-2057,43,70,93,-376,458,-834,-41
,929,2023-10-27 10:44:15.19,55,-6,-2057,44,72,89,-512,618,-1130,-53
,930,2023-10-27 10:44:15.20,59,-6,-2064,39,79,87,-363,457,-820,-47
,931,2023-10-27 10:44:15.21,50,-6,-2073,37,86,78,-513,615,-1128,-51
,932,2023-10-27 10:44:15.22,67,8,-2069,35,84,73,-373,442,-815,-34
,933,2023-10-27 10:44:15.23,12,8,-2041,22,86,70,-528,616,-1144,-44
,934,2023-10-27 10:44:15.24,66,28,-2090,16,85,61,-375,433,-808,-29
,935,2023-10-27 10:44:15.25,52,10,-2079,4,77,61,-526,611,-1137,-42
,936,2023-10-27 10:44:15.26,47,24,-2088,1,74,57,-373,417,-790,-22
,937,2023-10-27 10:44:15.27,42,9,-2083,0,61,49,-532,605,-1137,-36
,938,2023-10-27 10:44:15.28,67,14,-2098,2,60,44,-380,414,-794,-17
,939,2023-10-27 10:44:15.29,70,21,-2079,10,51,39,-539,605,-1144,-33
,940,2023-10-27 10:44:15.30,72,15,-2073,20,52,23,-370,415,-785,-22
,941,2023-10-27 10:44:15.31,85,10,-2085,28,56,11,-536,605,-1141,-34
,942,2023-10-27 10:44:15.32,76,13,-2073,31,55,5,-370,403,-773,-16
,943,2023-10-27 10:44:15.33,79,12,-2090,31,59,-8,-546,597,-1143,-25
,944,2023-10-27 10:44:15.34,81,-15,-2069,40,46,-10,-374,393,-767,-9
,945,2023-10-27 10:44:15.35,74,-32,-2063,45,33,-9,-546,593,-1139,-23
,946,2023-10-27 10:44:15.36,81,-22,-2049,53,34,-2,-362,389,-751,-13
,947,2023-10-27 10:44:15.37,78,-36,-2042,59,32,4,-539,599,-1138,-30
,948,2023-10-27 10:44:15.38,69,-45,-2046,63,32,12,-355,393,-748,-19
,949,2023-10-27 10:44:15.39,84,-42,-2058,64,27,21,-541,604,-1145,-31
,950,2023-10-27 10:44:15.40,85,-33,-2061,65,22,26,-360,391,-751,-15
,951,2023-10-27 10:44:15.41,94,-40,-2060,63,25,35,-548,606,-1154,-29
,952,2023-10-27 10:44:15.42,98,-41,-2067,55,29,41,-359,387,-746,-14
,953,2023-10-27 10:44:15.43,101,-50,-2059,46,36,47,-546,618,-1164,-36
,954,2023-10-27 10:44:15.44,94,-51,-2067,41,40,48,-356,404,-760,-24
,955,2023-10-27 10:44:15.45,91,-60,-2081,39,37,53,-543,617,-1160,-37
,956,2023-10-27 10:44:15.46,93,-42,-2069,39,37,53,-346,386,-732,-20
,957,2023-10-27 10:44:15.47,106,-47,-2068,35,35,56,-536,616,-1152,-40
,958,2023-10-27 10:44:15.48,101,-44,-2074,38,36,52,-353,385,-738,-16
,959,2023-10-27 10:44:15.49,99,-39,-2068,35,44,50,-548,621,-1169,-36
,960,2023-10-27 10:44:15.50,100,-42,-2077,33,40,46,-358,388,-746,-15
,961,2023-10-27 10:44:15.51,107,-37,-2079,37,36,39,-545,622,-1167,-38
,962,2023-10-27 10:44:15.52,115,-45,-2074,39,34,35,-350,384,-734,-17
,963,2023-10-27 10:44:15.53,98,-41,-2073,41,29,30,-547,611,-1158,-32
,964,2023-10-27 10:44:15.54,107,-44,-2069,42,24,25,-351,379,-730,-14
,965,2023-10-27 10:44:15.55,92,-41,-2055,39,19,22,-550,612,-1162,-31
,966,2023-10-27 10:44:15.56,121,-42,-2055,39,22,19,-348,389,-737,-20
,967,2023-10-27 10:44:15.57,112,-53,-2056,40,22,16,-547,620,-1167,-36
,968,2023-10-27 10:44:15.58,104,-52,-2062,45,20,16,-348,383,-731,-17
,969,2023-10-27 10:44:15.59,98,-56,-2052,50,16,17,-549,610,-1159,-30
,970,2023-10-27 10:44:15.60,98,-62,-2064,51,9,20,-348,378,-726,-15
,971,2023-10-27 10:44:15.61,88,-73,-2065,54,5,19,-551,612,-1163,-30
,972,2023-10-27 10:44:15.62,95,-73,-2057,57,4,22,-347,383,-730,-18
,973,2023-10-27 10:44:15.63,107,-83,-2052,60,4,27,-550,616,-1166,-33
,974,2023-10-27 10:44:15.64,100,-65,-2052,56,5,27,-356,373,-729,-8
,975,2023-10-27 10:44:15.65,102,-72,-2051,52,12,25,-554,610,-1164,-28
,976,2023-10-27 10:44:15.66,110,-72,-2047,51,12,25,-351,380,-731,-14
,977,2023-10-27 10:44:15.67,111,-82,-2052,48,17,29,-548,623,-1171,-37
,978,2023-10-27 10:44:15.68,108,-80,-2063,48,17,26,-353,386,-739,-16
,979,2023-10-27 10:44:15.69,114,-80,-2060,45,18,27,-552,620,-1172,-34
,980,2023-10-27 10:44:15.70,114,-84,-2056,42,20,28,-353,391,-744,-19
,981,2023-10-27 10:44:15.71,116,-72,-2063,37,19,27,-555,621,-1176,-33
,982,2023-10-27 10:44:15.72,107,-64,-2067,32,19,27,-364,388,-752,-12
,983,2023-10-27 10:44:15.73,114,-66,-2064,28,15,22,-565,614,-1179,-24
,984,2023-10-27 10:44:15.74,101,-77,-2056,25,10,23,-366,393,-759,-13
,985,2023-10-27 10:44:15.75,106,-66,-2075,20,11,18,-559,624,-1183,-32
,986,2023-10-27 10:44:15.76,110,-63,-2072,15,5,12,-358,405,-763,-23
,987,2023-10-27 10:44:15.77,99,-68,-2058,16,2,15,-553,628,-1181,-37
,988,2023-10-27 10:44:15.78,114,-69,-2056,18,3,16,-357,403,-760,-23
,989,2023-10-27 10:44:15.79,108,-77,-2053,21,1,11,-554,632,-1186,-39
,990,2023-10-27 10:44:15.80,107,-75,-2051,21,2,11,-357,413,-770,-28
,991,2023-10-27 10:44:15.81,93,-75,-2069,21,6,11,-545,641,-1186,-48
,992,2023-10-27 10:44:15.82,108,-60,-2053,20,-1,10,-356,421,-777,-32
,993,2023-10-27 10:44:15.83,108,-67,-2058,18,-2,10,-542,646,-1188,-52
,994,2023-10-27 10:44:15.84,110,-65,-2063,11,4,11,-358,426,-784,-34
,995,2023-10-27 10:44:15.85,114,-63,-2063,4,8,9,-542,650,-1192,-54
,996,2023-10-27 10:44:15.86,103,-66,-2059,1,8,11,-360,432,-792,-36
,997,2023-10-27 10:44:15.87,104,-60,-2059,1,5,13,-540,650,-1190,-55
,998,2023-10-27 10:44:15.88,112,-64,-2058,1,0,16,-358,442,-800,-42
,999,2023-10-27 10:44:15.89,108,-63,-2066,2,-2,19,-538,645,-1183,-53
,1000,2023-10-27 10:44:15.90,108,-45,-2074,2,-2,20,-364,442,-806,-39
,1001,2023-10-27 10:44:15.91,109,-65,-2048,-1,-3,21,-537,643,-1180,-53
,1002,2023-10-27 10:44:15.92,107,-61,-2048,-14,12,22,-365,455,-820,-45
,1003,2023-10-27 10:44:15.93,99,-64,-2075,-5,9,25,-531,644,-1175,-56
,1004,2023-10-27 10:44:15.94,100,-67,-2068,15,-6,29,-366,432,-798,-33
,1005,2023-10-27 10:44:15.95,104,-66,-2062,24,-14,31,-530,640,-1170,-55
,1006,2023-10-27 10:44:15.96,97,-64,-2062,30,-11,25,-364,464,-828,-50
,1007,2023-10-27 10:44:15.97,118,-57,-2068,25,-10,24,-524,650,-1174,-63
,1008,2023-10-27 10:44:15.98,92,-58,-2068,24,-8,23,-358,473,-831,-57
,1009,2023-10-27 10:44:15.99,93,-60,-2073,25,-8,18,-514,658,-1172,-72
,1010,2023-10-27 10:44:16.00,91,-75,-2080,27,-17,22,-359,474,-833,-57
,1011,2023-10-27 10:44:16.01,97,-76,-2083,23,-18,26,-512,664,-1176,-76
,1012,2023-10-27 10:44:16.02,83,-73,-2070,19,-17,29,-361,492,-853,-65
,1013,2023-10-27 10:44:16.03,77,-73,-2053,13,-16,33,-508,666,-1174,-79
,1014,2023-10-27 10:44:16.04,98,-67,-2052,13,-18,32,-368,490,-858,-61
,1015,2023-10-27 10:44:16.05,84,-77,-2040,5,-11,31,-508,656,-1164,-74
,1016,2023-10-27 10:44:16.06,81,-48,-2054,-4,0,30,-374,488,-862,-57
,1017,2023-10-27 10:44:16.07,84,-58,-2049,-4,2,29,-513,647,-1160,-67
,1018,2023-10-27 10:44:16.08,74,-59,-2056,-1,5,27,-388,490,-878,-51
,1019,2023-10-27 10:44:16.09,95,-59,-2063,-3,6,27,-513,646,-1159,-66
,1020,2023-10-27 10:44:16.10,80,-65,-2055,0,8,25,-388,500,-888,-56
,1021,2023-10-27 10:44:16.11,93,-61,-2051,5,9,23,-509,638,-1147,-64
,1022,2023-10-27 10:44:16.12,75,-70,-2048,5,12,22,-392,501,-893,-54
,1023,2023-10-27 10:44:16.13,90,-66,-2057,4,9,19,-504,638,-1142,-67
,1024,2023-10-27 10:44:16.14,94,-63,-2065,2,13,19,-389,512,-901,-61
,1025,2023-10-27 10:44:16.15,96,-57,-2066,2,16,20,-501,639,-1140,-69
,1026,2023-10-27 10:44:16.16,92,-66,-2060,3,16,20,-393,520,-913,-63
,1027,2023-10-27 10:44:16.17,91,-63,-2066,2,16,20,-497,633,-1130,-68
,1028,2023-10-27 10:44:16.18,85,-69,-2060,3,15,21,-398,518,-916,-60
,1029,2023-10-27 10:44:16.19,100,-70,-2071,7,12,22,-497,621,-1118,-62
,1030,2023-10-27 10:44:16.20,100,-68,-2066,10,6,20,-408,508,-916,-50
,1031,2023-10-27 10:44:16.21,96,-77,-2056,14,3,20,-498,605,-1103,-53
,1032,2023-10-27 10:44:16.22,108,-69,-2058,16,7,22,-416,503,-919,-43
,1033,2023-10-27 10:44:16.23,96,-65,-2058,14,10,22,-491,604,-1095,-56
,1034,2023-10-27 10:44:16.24,104,-66,-2060,7,16,19,-413,515,-928,-51
,1035,2023-10-27 10:44:16.25,103,-71,-2054,0,19,21,-480,608,-1088,-64
,1036,2023-10-27 10:44:16.26,98,-76,-2068,-1,19,22,-418,517,-935,-49
,1037,2023-10-27 10:44:16.27,88,-69,-2070,-3,18,23,-479,597,-1076,-59
,1038,2023-10-27 10:44:16.28,102,-80,-2071,-1,12,23,-424,521,-945,-48
,1039,2023-10-27 10:44:16.29,97,-69,-2065,-3,9,24,-474,595,-1069,-60
,1040,2023-10-27 10:44:16.30,99,-61,-2062,-8,9,22,-430,526,-956,-48
,1041,2023-10-27 10:44:16.31,104,-65,-2066,-22,14,20,-476,591,-1067,-57
,1042,2023-10-27 10:44:16.32,104,-51,-2076,-10,7,22,-434,536,-970,-51
,1043,2023-10-27 10:44:16.33,117,-53,-2065,-3,4,22,-473,583,-1056,-55
,1044,2023-10-27 10:44:16.34,108,-62,-2059,-2,1,18,-444,534,-978,-45
,1045,2023-10-27 10:44:16.35,101,-57,-2061,-3,0,19,-472,576,-1048,-52
,1046,2023-10-27 10:44:16.36,99,-66,-2062,-1,1,17,-443,542,-985,-49
,1047,2023-10-27 10:44:16.37,99,-64,-2056,2,-5,17,-463,575,-1038,-56
,1048,2023-10-27 10:44:16.38,94,-62,-2065,5,-6,18,-440,557,-997,-58
,1049,2023-10-27 10:44:16.39,85,-67,-2063,5,-9,18,-455,582,-1037,-63
,1050,2023-10-27 10:44:16.40,86,-68,-2058,5,-6,20,-446,568,-1014,-61
,1051,2023-10-27 10:44:16.41,94,-69,-2059,4,-4,20,-455,582,-1037,-63
,1052,2023-10-27 10:44:16.42,90,-66,-2055,-1,-2,21,-451,561,-1012,-55
,1053,2023-10-27 10:44:16.43,99,-65,-2055,-2,6,23,-448,566,-1014,-59
,1054,2023-10-27 10:44:16.44,95,-72,-2062,-6,12,27,-455,562,-1017,-53
,1055,2023-10-27 10:44:16.45,106,-58,-2051,-5,11,29,-442,568,-1010,-63
,1056,2023-10-27 10:44:16.46,95,-53,-2054,-6,15,31,-462,570,-1032,-54
,1057,2023-10-27 10:44:16.47,92,-65,-2056,-9,17,33,-448,564,-1012,-58
,1058,2023-10-27 10:44:16.48,100,-59,-2063,-17,20,34,-475,572,-1047,-48
,1059,2023-10-27 10:44:16.49,93,-60,-2058,-17,18,36,-442,555,-997,-56
,1060,2023-10-27 10:44:16.50,103,-61,-2065,-12,12,40,-469,583,-1052,-57
,1061,2023-10-27 10:44:16.51,94,-59,-2061,-9,8,44,-437,544,-981,-53
,1062,2023-10-27 10:44:16.52,97,-56,-2057,-8,8,43,-478,579,-1057,-50
,1063,2023-10-27 10:44:16.53,104,-52,-2053,-4,7,46,-436,545,-981,-54
,1064,2023-10-27 10:44:16.54,91,-55,-2058,-3,7,46,-473,593,-1066,-60
,1065,2023-10-27 10:44:16.55,104,-47,-2073,-1,5,46,-424,540,-964,-58
,1066,2023-10-27 10:44:16.56,102,-44,-2056,3,5,44,-476,596,-1072,-60
,1067,2023-10-27 10:44:16.57,98,-47,-2062,7,7,43,-418,538,-956,-60
,1068,2023-10-27 10:44:16.58,102,-43,-2061,6,10,39,-473,603,-1076,-65
,1069,2023-10-27 10:44:16.59,93,-45,-2061,8,10,34,-409,539,-948,-65
,1070,2023-10-27 10:44:16.60,106,-45,-2060,9,15,29,-476,608,-1084,-66
,1071,2023-10-27 10:44:16.61,98,-50,-2069,9,15,25,-412,530,-942,-59
,1072,2023-10-27 10:44:16.62,92,-48,-2061,6,13,21,-485,597,-1082,-56
,1073,2023-10-27 10:44:16.63,97,-61,-2059,11,12,18,-399,518,-917,-59
,1074,2023-10-27 10:44:16.64,107,-63,-2056,15,12,17,-476,603,-1079,-63
,1075,2023-10-27 10:44:16.65,106,-62,-2061,17,14,16,-391,525,-916,-67
,1076,2023-10-27 10:44:16.66,105,-55,-2051,20,14,14,-487,625,-1112,-69
,1077,2023-10-27 10:44:16.67,103,-46,-2060,21,18,13,-407,523,-930,-58
,1078,2023-10-27 10:44:16.68,114,-53,-2070,20,27,14,-500,623,-1123,-61
,1079,2023-10-27 10:44:16.69,99,-49,-2074,15,29,12,-394,510,-904,-58
,1080,2023-10-27 10:44:16.70,97,-62,-2082,15,24,14,-489,624,-1113,-67
,1081,2023-10-27 10:44:16.71,98,-60,-2078,15,17,14,-388,507,-895,-59
,1082,2023-10-27 10:44:16.72,101,-65,-2070,13,11,18,-500,635,-1135,-67
,1083,2023-10-27 10:44:16.73,108,-67,-2060,10,7,22,-395,510,-905,-57
,1084,2023-10-27 10:44:16.74,103,-66,-2054,11,6,27,-504,639,-1143,-67
,1085,2023-10-27 10:44:16.75,105,-64,-2050,10,9,28,-384,509,-893,-62
,1086,2023-10-27 10:44:16.76,115,-62,-2048,9,3,31,-504,635,-1139,-65
,1087,2023-10-27 10:44:16.77,98,-54,-2053,6,10,32,-381,502,-883,-60
,1088,2023-10-27 10:44:16.78,88,-51,-2053,5,15,31,-506,638,-1144,-66
,1089,2023-10-27 10:44:16.79,105,-51,-2056,2,15,30,-377,500,-877,-61
,1090,2023-10-27 10:44:16.80,96,-54,-2067,2,15,31,-506,652,-1158,-73
,1091,2023-10-27 10:44:16.81,105,-53,-2061,2,14,30,-371,502,-873,-65
,1092,2023-10-27 10:44:16.82,102,-51,-2063,-4,15,31,-507,655,-1162,-74
,1093,2023-10-27 10:44:16.83,114,-55,-2052,-4,13,28,-365,505,-870,-70
,1094,2023-10-27 10:44:16.84,101,-52,-2068,-4,13,30,-507,658,-1165,-75
,1095,2023-10-27 10:44:16.85,109,-50,-2068,-3,11,28,-365,503,-868,-69
,1096,2023-10-27 10:44:16.86,117,-49,-2061,1,10,24,-515,668,-1183,-76
,1097,2023-10-27 10:44:16.87,109,-50,-2060,2,15,21,-357,500,-857,-71
,1098,2023-10-27 10:44:16.88,105,-49,-2060,3,11,21,-507,666,-1173,-79
,1099,2023-10-27 10:44:16.89,103,-54,-2060,7,16,20,-345,493,-838,-74
,1100,2023-10-27 10:44:16.90,108,-61,-2060,10,15,19,-509,663,-1172,-77
,1101,2023-10-27 10:44:16.91,113,-66,-2058,16,11,21,-349,480,-829,-65
,1102,2023-10-27 10:44:16.92,106,-57,-2063,17,9,20,-517,661,-1178,-72
,1103,2023-10-27 10:44:16.93,110,-51,-2056,13,13,22,-356,469,-825,-56
,1104,2023-10-27 10:44:16.94,126,-51,-2061,9,21,21,-529,668,-1197,-69
,1105,2023-10-27 10:44:16.95,117,-54,-2064,9,22,18,-363,475,-838,-56
,1106,2023-10-27 10:44:16.96,128,-58,-2069,10,17,19,-528,667,-1195,-69
,1107,2023-10-27 10:44:16.97,111,-59,-2071,8,17,24,-353,469,-822,-58
,1108,2023-10-27 10:44:16.98,109,-66,-2067,7,12,28,-523,671,-1194,-74
,1109,2023-10-27 10:44:16.99,115,-62,-2061,13,10,30,-351,467,-818,-58
,1110,2023-10-27 10:44:17.00,120,-61,-2062,15,7,32,-526,664,-1190,-69
,1111,2023-10-27 10:44:17.01,114,-49,-2059,18,6,35,-351,462,-813,-55
,1112,2023-10-27 10:44:17.02,115,-51,-2055,17,7,37,-530,663,-1193,-66
,1113,2023-10-27 10:44:17.03,98,-51,-2058,15,5,35,-350,459,-809,-54
,1114,2023-10-27 10:44:17.04,110,-55,-2058,16,4,35,-534,665,-1199,-65
,1115,2023-10-27 10:44:17.05,102,-57,-2054,17,4,32,-342,459,-801,-58
,1116,2023-10-27 10:44:17.06,115,-55,-2057,15,5,29,-533,666,-1199,-66
,1117,2023-10-27 10:44:17.07,119,-52,-2061,15,5,29,-344,457,-801,-56
,1118,2023-10-27 10:44:17.08,104,-61,-2060,9,7,26,-543,662,-1205,-59
,1119,2023-10-27 10:44:17.09,98,-51,-2061,10,6,24,-341,458,-799,-58
,1120,2023-10-27 10:44:17.10,100,-48,-2063,8,10,23,-536,677,-1213,-70
,1121,2023-10-27 10:44:17.11,108,-49,-2059,4,11,21,-341,458,-799,-58
,1122,2023-10-27 10:44:17.12,102,-51,-2065,4,8,18,-541,675,-1216,-67
,1123,2023-10-27 10:44:17.13,106,-50,-2060,1,10,17,-343,451,-794,-54
,1124,2023-10-27 10:44:17.14,111,-56,-2054,2,9,16,-537,672,-1209,-67
,1125,2023-10-27 10:44:17.15,107,-62,-2063,5,10,16,-336,447,-783,-55
,1126,2023-10-27 10:44:17.16,112,-62,-2058,7,13,18,-534,681,-1215,-73
,1127,2023-10-27 10:44:17.17,105,-55,-2063,8,12,20,-337,454,-791,-58
,1128,2023-10-27 10:44:17.18,114,-57,-2068,8,14,20,-532,683,-1215,-75
,1129,2023-10-27 10:44:17.19,99,-52,-2064,8,12,21,-334,454,-788,-60
,1130,2023-10-27 10:44:17.20,113,-49,-2063,7,10,23,-530,689,-1219,-79
,1131,2023-10-27 10:44:17.21,107,-44,-2069,8,10,21,-330,463,-793,-66
,1132,2023-10-27 10:44:17.22,111,-50,-2064,6,6,23,-530,693,-1223,-81
,1133,2023-10-27 10:44:17.23,114,-50,-2069,5,11,20,-331,469,-800,-69
,1134,2023-10-27 10:44:17.24,109,-50,-2062,10,6,21,-533,699,-1232,-83
,1135,2023-10-27 10:44:17.25,104,-47,-2054,13,3,19,-331,468,-799,-68
,1136,2023-10-27 10:44:17.26,110,-56,-2062,14,2,19,-537,691,-1228,-77
,1137,2023-10-27 10:44:17.27,118,-55,-2058,19,6,19,-331,462,-793,-65
,1138,2023-10-27 10:44:17.28,103,-57,-2056,19,10,18,-535,690,-1225,-77
,1139,2023-10-27 10:44:17.29,103,-61,-2062,20,11,24,-330,458,-788,-64
,1140,2023-10-27 10:44:17.30,100,-54,-2061,20,10,30,-535,693,-1228,-79
,1141,2023-10-27 10:44:17.31,104,-60,-2077,18,7,33,-332,463,-795,-65
,1142,2023-10-27 10:44:17.32,115,-52,-2071,13,10,37,-538,694,-1232,-78
,1143,2023-10-27 10:44:17.33,100,-57,-2064,8,5,37,-343,453,-796,-55
,1144,2023-10-27 10:44:17.34,102,-47,-2067,3,9,42,-548,683,-1231,-67
,1145,2023-10-27 10:44:17.35,103,-55,-2064,4,5,45,-346,456,-802,-55
,1146,2023-10-27 10:44:17.36,118,-59,-2058,3,6,43,-541,693,-1234,-76
,1147,2023-10-27 10:44:17.37,108,-67,-2059,5,-1,44,-344,468,-812,-62
,1148,2023-10-27 10:44:17.38,106,-65,-2049,10,-5,46,-538,705,-1243,-83
,1149,2023-10-27 10:44:17.39,114,-54,-2058,9,2,45,-340,478,-818,-69
,1150,2023-10-27 10:44:17.40,133,-56,-2051,4,2,49,-533,696,-1229,-81
,1151,2023-10-27 10:44:17.41,125,-60,-2039,2,2,49,-339,470,-809,-65
,1152,2023-10-27 10:44:17.42,134,-54,-2022,-1,2,47,-531,692,-1223,-80
,1153,2023-10-27 10:44:17.43,138,-59,-2031,-1,4,49,-337,479,-816,-71
,1154,2023-10-27 10:44:17.44,126,-54,-2045,-6,5,51,-528,694,-1222,-83
,1155,2023-10-27 10:44:17.45,127,-57,-2052,-5,5,53,-332,483,-815,-75
,1156,2023-10-27 10:44:17.46,124,-58,-2052,-4,5,53,-518,701,-1219,-91
,1157,2023-10-27 10:44:17.47,136,-55,-2063,-5,5,56,-334,485,-819,-75
,1158,2023-10-27 10:44:17.48,129,-52,-2069,-4,2,60,-525,694,-1219,-84
,1159,2023-10-27 10:44:17.49,117,-57,-2087,-2,-14,68,-349,471,-820,-61
,1160,2023-10-27 10:44:17.50,105,-70,-2082,-1,-18,74,-527,695,-1222,-84
,1161,2023-10-27 10:44:17.51,111,-68,-2080,-6,-18,83,-346,485,-831,-69
,1162,2023-10-27 10:44:17.52,98,-75,-2060,-8,-25,92,-524,701,-1225,-88
,1163,2023-10-27 10:44:17.53,117,-72,-2048,-2,-30,97,-345,490,-835,-72
,1164,2023-10-27 10:44:17.54,120,-65,-2048,0,-25,97,-528,699,-1227,-85
,1165,2023-10-27 10:44:17.55,121,-53,-2042,-4,-18,101,-361,488,-849,-63
,1166,2023-10-27 10:44:17.56,128,-45,-2058,-7,-9,97,-535,692,-1227,-78
,1167,2023-10-27 10:44:17.57,109,-41,-2057,-16,0,95,-362,490,-852,-64
,1168,2023-10-27 10:44:17.58,123,-35,-2058,-21,3,90,-535,695,-1230,-80
,1169,2023-10-27 10:44:17.59,115,-42,-2071,-24,4,92,-371,495,-866,-62
,1170,2023-10-27 10:44:17.60,116,-34,-2083,-27,-5,91,-536,687,-1223,-75
,1171,2023-10-27 10:44:17.61,118,-32,-2090,-31,-14,90,-374,489,-863,-57
,1172,2023-10-27 10:44:17.62,113,-37,-2058,-29,-24,93,-540,670,-1210,-65
,1173,2023-10-27 10:44:17.63,120,-27,-2048,-30,-18,91,-384,480,-864,-48
,1174,2023-10-27 10:44:17.64,134,-25,-2062,-32,-18,96,-528,641,-1169,-56
,1175,2023-10-27 10:44:17.65,135,-26,-2063,-28,-17,96,-370,467,-837,-48
,1176,2023-10-27 10:44:17.66,138,-18,-2079,-26,-9,95,-531,658,-1189,-63
,1177,2023-10-27 10:44:17.67,128,-29,-2082,-14,-16,103,-380,495,-875,-57
,1178,2023-10-27 10:44:17.68,125,-25,-2084,-12,-19,104,-527,673,-1200,-73
,1179,2023-10-27 10:44:17.69,119,-33,-2089,-5,-29,107,-375,502,-877,-63
,1180,2023-10-27 10:44:17.70,122,-32,-2085,9,-39,114,-518,667,-1185,-74
,1181,2023-10-27 10:44:17.71,125,-35,-2078,17,-57,119,-376,520,-896,-72
,1182,2023-10-27 10:44:17.72,102,-29,-2068,17,-49,124,-516,674,-1190,-79
,1183,2023-10-27 10:44:17.73,106,-38,-2062,29,-52,123,-380,513,-893,-66
,1184,2023-10-27 10:44:17.74,115,-42,-2049,39,-46,124,-513,657,-1170,-72
,1185,2023-10-27 10:44:17.75,111,-54,-2042,49,-49,125,-384,510,-894,-63
,1186,2023-10-27 10:44:17.76,108,-50,-2058,60,-46,124,-508,662,-1170,-77
,1187,2023-10-27 10:44:17.77,96,-51,-2054,68,-45,121,-379,524,-903,-72
,1188,2023-10-27 10:44:17.78,83,-62,-2065,76,-47,119,-502,667,-1169,-82
,1189,2023-10-27 10:44:17.79,88,-70,-2072,80,-47,114,-392,521,-913,-64
,1190,2023-10-27 10:44:17.80,74,-52,-2048,76,-52,112,-503,653,-1156,-75
,1191,2023-10-27 10:44:17.81,87,-63,-2055,77,-57,107,-395,532,-927,-68
,1192,2023-10-27 10:44:17.82,76,-60,-2060,69,-47,105,-502,658,-1160,-78
,1193,2023-10-27 10:44:17.83,83,-62,-2055,63,-47,101,-402,531,-933,-64
,1194,2023-10-27 10:44:17.84,90,-60,-2064,50,-45,98,-497,646,-1143,-74
,1195,2023-10-27 10:44:17.85,81,-48,-2062,43,-36,93,-402,529,-931,-63
,1196,2023-10-27 10:44:17.86,85,-47,-2058,34,-35,82,-492,631,-1123,-69
,1197,2023-10-27 10:44:17.87,91,-51,-2061,21,-22,77,-400,540,-940,-70
,1198,2023-10-27 10:44:17.88,79,-53,-2067,17,-22,67,-491,633,-1124,-71
,1199,2023-10-27 10:44:17.89,78,-58,-2087,25,-26,62,-408,545,-953,-68
,1200,2023-10-27 10:44:17.90,91,-67,-2069,28,-24,58,-493,623,-1116,-65
,1201,2023-10-27 10:44:17.91,75,-56,-2064,29,-27,53,-408,560,-968,-76
,1202,2023-10-27 10:44:17.92,66,-61,-2064,26,-27,52,-481,634,-1115,-76
,1203,2023-10-27 10:44:17.93,79,-47,-2069,27,-35,56,-415,562,-977,-73
,1204,2023-10-27 10:44:17.94,90,-65,-2050,23,-41,53,-480,626,-1106,-73
,1205,2023-10-27 10:44:17.95,88,-63,-2050,32,-42,59,-425,555,-980,-65
,1206,2023-10-27 10:44:17.96,75,-60,-2054,25,-35,59,-478,625,-1103,-73
,1207,2023-10-27 10:44:17.97,78,-57,-2050,11,-36,62,-428,580,-1008,-76
,1208,2023-10-27 10:44:17.98,62,-55,-2067,4,-36,61,-466,636,-1102,-85
,1209,2023-10-27 10:44:17.99,76,-62,-2071,-3,-36,65,-428,580,-1008,-76
,1210,2023-10-27 10:44:18.00,47,-59,-2071,-9,-41,65,-465,618,-1083,-76
,1211,2023-10-27 10:44:18.01,55,-55,-2099,-11,-45,65,-440,577,-1017,-68
,1212,2023-10-27 10:44:18.02,79,-52,-2077,-19,-51,74,-463,615,-1078,-76
,1213,2023-10-27 10:44:18.03,59,-51,-2076,-24,-43,73,-439,584,-1023,-72
,1214,2023-10-27 10:44:18.04,47,-64,-2081,-22,-46,67,-455,616,-1071,-80
,1215,2023-10-27 10:44:18.05,58,-56,-2062,-13,-49,67,-437,604,-1041,-83
,1216,2023-10-27 10:44:18.06,51,-48,-2061,-7,-54,67,-445,620,-1065,-87
,1217,2023-10-27 10:44:18.07,46,-41,-2072,-13,-52,62,-435,610,-1045,-87
,1218,2023-10-27 10:44:18.08,49,-24,-2083,-32,-43,53,-441,612,-1053,-85
,1219,2023-10-27 10:44:18.09,41,-40,-2078,-39,-51,53,-444,621,-1065,-88
,1220,2023-10-27 10:44:18.10,39,-40,-2064,-47,-56,55,-434,613,-1047,-89
,1221,2023-10-27 10:44:18.11,28,-38,-2073,-48,-68,52,-442,617,-1059,-87
,1222,2023-10-27 10:44:18.12,24,-18,-2071,-49,-71,49,-433,594,-1027,-80
,1223,2023-10-27 10:44:18.13,38,-26,-2061,-43,-82,46,-457,603,-1060,-73
,1224,2023-10-27 10:44:18.14,33,-9,-2055,-49,-74,42,-434,588,-1022,-77
,1225,2023-10-27 10:44:18.15,32,-13,-2036,-53,-65,31,-460,613,-1073,-76
,1226,2023-10-27 10:44:18.16,41,-15,-2036,-51,-60,21,-433,590,-1023,-78
,1227,2023-10-27 10:44:18.17,32,-20,-2037,-47,-48,12,-474,613,-1087,-69
,1228,2023-10-27 10:44:18.18,37,-13,-2037,-38,-39,2,-438,581,-1019,-71
,1229,2023-10-27 10:44:18.19,37,-23,-2036,-27,-33,-11,-488,640,-1128,-76
,1230,2023-10-27 10:44:18.20,53,-27,-2064,-21,-21,-17,-435,605,-1040,-85
,1231,2023-10-27 10:44:18.21,49,-35,-2062,0,-19,-31,-483,636,-1119,-76
,1232,2023-10-27 10:44:18.22,62,-20,-2067,16,-15,-43,-421,577,-998,-78
,1233,2023-10-27 10:44:18.23,63,-26,-2077,24,-17,-47,-480,635,-1115,-77
,1234,2023-10-27 10:44:18.24,62,-14,-2108,21,-7,-54,-408,577,-985,-84
,1235,2023-10-27 10:44:18.25,53,-24,-2086,15,-5,-57,-474,659,-1133,-92
,1236,2023-10-27 10:44:18.26,42,-40,-2093,11,-13,-55,-407,588,-995,-90
,1237,2023-10-27 10:44:18.27,43,-52,-2077,10,-23,-46,-481,663,-1144,-91
,1238,2023-10-27 10:44:18.28,35,-52,-2061,14,-33,-34,-403,582,-985,-89
,1239,2023-10-27 10:44:18.29,61,-53,-2060,25,-43,-28,-484,668,-1152,-92
,1240,2023-10-27 10:44:18.30,33,-61,-2063,34,-54,-23,-400,572,-972,-86
,1241,2023-10-27 10:44:18.31,48,-51,-2044,43,-56,-14,-492,646,-1138,-77
,1242,2023-10-27 10:44:18.32,50,-70,-2048,52,-61,-11,-394,565,-959,-85
,1243,2023-10-27 10:44:18.33,36,-71,-2057,55,-48,-3,-486,663,-1149,-88
,1244,2023-10-27 10:44:18.34,50,-66,-2072,62,-41,2,-395,568,-963,-86
,1245,2023-10-27 10:44:18.35,39,-82,-2053,76,-46,8,-499,672,-1171,-86
,1246,2023-10-27 10:44:18.36,35,-80,-2046,83,-48,12,-392,569,-961,-88
,1247,2023-10-27 10:44:18.37,28,-86,-2047,95,-42,13,-497,676,-1173,-89
,1248,2023-10-27 10:44:18.38,25,-94,-2040,102,-45,18,-386,559,-945,-86
,1249,2023-10-27 10:44:18.39,10,-75,-2037,115,-58,21,-501,669,-1170,-84
,1250,2023-10-27 10:44:18.40,24,-78,-2030,118,-57,26,-383,550,-933,-83
,1251,2023-10-27 10:44:18.41,16,-89,-2046,121,-58,33,-500,683,-1183,-91
,1252,2023-10-27 10:44:18.42,2,-98,-2056,116,-63,38,-371,549,-920,-89
,1253,2023-10-27 10:44:18.43,-8,-106,-2045,108,-67,50,-497,686,-1183,-94
,1254,2023-10-27 10:44:18.44,-1,-105,-2030,108,-74,57,-371,543,-914,-86
,1255,2023-10-27 10:44:18.45,-6,-88,-2052,108,-71,63,-504,693,-1197,-94
,1256,2023-10-27 10:44:18.46,-8,-90,-2053,103,-63,65,-374,540,-914,-83
,1257,2023-10-27 10:44:18.47,-8,-101,-2025,87,-53,62,-507,704,-1211,-98
,1258,2023-10-27 10:44:18.48,-7,-75,-2054,76,-36,58,-367,542,-909,-87
,1259,2023-10-27 10:44:18.49,-7,-80,-2047,55,-7,48,-504,704,-1208,-100
,1260,2023-10-27 10:44:18.50,-10,-79,-2084,28,13,32,-360,536,-896,-88
,1261,2023-10-27 10:44:18.51,-4,-83,-2075,10,26,24,-505,701,-1206,-98
,1262,2023-10-27 10:44:18.52,10,-80,-2082,13,17,12,-361,514,-875,-76
,1263,2023-10-27 10:44:18.53,4,-60,-2084,4,26,-1,-515,680,-1195,-82
,1264,2023-10-27 10:44:18.54,2,-76,-2063,1,25,-13,-362,507,-869,-72
,1265,2023-10-27 10:44:18.55,1,-72,-2084,0,25,-26,-516,691,-1207,-87
,1266,2023-10-27 10:44:18.56,16,-73,-2069,1,17,-37,-361,510,-871,-74
,1267,2023-10-27 10:44:18.57,22,-77,-2071,6,13,-47,-530,689,-1219,-79
,1268,2023-10-27 10:44:18.58,16,-88,-2062,8,7,-53,-368,499,-867,-65
,1269,2023-10-27 10:44:18.59,19,-85,-2056,8,-1,-59,-536,684,-1220,-74
,1270,2023-10-27 10:44:18.60,11,-86,-2054,9,-1,-63,-365,483,-848,-59
,1271,2023-10-27 10:44:18.61,17,-84,-2060,10,-5,-66,-536,685,-1221,-74
,1272,2023-10-27 10:44:18.62,16,-80,-2072,10,-9,-70,-362,488,-850,-63
,1273,2023-10-27 10:44:18.63,6,-86,-2065,12,-15,-71,-536,696,-1232,-80
,1274,2023-10-27 10:44:18.64,0,-90,-2057,14,-17,-71,-356,486,-842,-65
,1275,2023-10-27 10:44:18.65,5,-91,-2054,13,-18,-70,-535,697,-1232,-81
,1276,2023-10-27 10:44:18.66,1,-98,-2052,12,-22,-70,-357,483,-840,-63
,1277,2023-10-27 10:44:18.67,-10,-97,-2064,9,-21,-68,-539,698,-1237,-79
,1278,2023-10-27 10:44:18.68,6,-103,-2060,9,-31,-64,-359,480,-839,-60
,1279,2023-10-27 10:44:18.69,0,-103,-2054,11,-28,-64,-533,705,-1238,-86
,1280,2023-10-27 10:44:18.70,-16,-101,-2056,12,-26,-61,-354,482,-836,-64
,1281,2023-10-27 10:44:18.71,-13,-104,-2050,7,-27,-56,-537,704,-1241,-83
,1282,2023-10-27 10:44:18.72,-5,-110,-2055,5,-25,-51,-358,473,-831,-57
,1283,2023-10-27 10:44:18.73,-17,-106,-2056,1,-33,-47,-538,701,-1239,-81
,1284,2023-10-27 10:44:18.74,-5,-94,-2060,-4,-25,-46,-349,473,-822,-62
,1285,2023-10-27 10:44:18.75,-6,-94,-2056,-9,-15,-45,-540,692,-1232,-76
,1286,2023-10-27 10:44:18.76,-13,-87,-2054,-15,-20,-44,-347,469,-816,-61
,1287,2023-10-27 10:44:18.77,-2,-83,-2060,-18,-21,-45,-545,692,-1237,-73
,1288,2023-10-27 10:44:18.78,-18,-92,-2071,-20,-19,-44,-352,457,-809,-52
,1289,2023-10-27 10:44:18.79,-4,-97,-2063,-20,-16,-42,-549,693,-1242,-72
,1290,2023-10-27 10:44:18.80,-2,-98,-2057,-16,-21,-44,-352,463,-815,-55
,1291,2023-10-27 10:44:18.81,-11,-87,-2037,-9,-16,-45,-550,697,-1247,-73
,1292,2023-10-27 10:44:18.82,-17,-107,-2033,-4,-4,-44,-356,459,-815,-51
,1293,2023-10-27 10:44:18.83,2,-101,-2022,-5,7,-43,-551,696,-1247,-72
,1294,2023-10-27 10:44:18.84,-7,-107,-2050,-6,13,-38,-353,459,-812,-53
,1295,2023-10-27 10:44:18.85,-7,-101,-2053,-4,16,-29,-549,680,-1229,-65
,1296,2023-10-27 10:44:18.86,3,-86,-2046,-7,19,-26,-350,437,-787,-43
,1297,2023-10-27 10:44:18.87,-1,-91,-2031,-20,33,-14,-553,673,-1226,-60
,1298,2023-10-27 10:44:18.88,2,-91,-2039,-35,38,-5,-352,451,-803,-49
,1299,2023-10-27 10:44:18.89,1,-93,-2051,-41,44,5,-554,684,-1238,-65
,1300,2023-10-27 10:44:18.90,14,-103,-2048,-27,31,12,-346,449,-795,-51
,1301,2023-10-27 10:44:18.91,19,-84,-2048,-21,30,20,-549,678,-1227,-64
,1302,2023-10-27 10:44:18.92,17,-76,-2055,-14,32,25,-344,447,-791,-51
,1303,2023-10-27 10:44:18.93,20,-72,-2065,-17,31,30,-551,680,-1231,-64
,1304,2023-10-27 10:44:18.94,17,-76,-2070,-16,30,33,-346,446,-792,-50
,1305,2023-10-27 10:44:18.95,14,-66,-2081,-16,29,35,-556,687,-1243,-65
,1306,2023-10-27 10:44:18.96,19,-59,-2080,-21,23,39,-357,453,-810,-48
,1307,2023-10-27 10:44:18.97,15,-58,-2074,-30,30,38,-556,683,-1239,-63
,1308,2023-10-27 10:44:18.98,19,-52,-2083,-34,26,37,-352,434,-786,-41
,1309,2023-10-27 10:44:18.99,28,-37,-2055,-44,25,29,-550,666,-1216,-58
,1310,2023-10-27 10:44:19.00,25,-23,-2068,-57,30,25,-350,434,-784,-42
,1311,2023-10-27 10:44:19.01,11,-33,-2063,-63,40,16,-553,674,-1227,-60
,1312,2023-10-27 10:44:19.02,9,-41,-2075,-65,41,8,-357,442,-799,-42
,1313,2023-10-27 10:44:19.03,17,-46,-2082,-67,36,1,-558,663,-1221,-52
,1314,2023-10-27 10:44:19.04,19,-41,-2077,-60,33,-1,-357,433,-790,-38
,1315,2023-10-27 10:44:19.05,20,-47,-2088,-56,21,0,-556,661,-1217,-52
,1316,2023-10-27 10:44:19.06,21,-48,-2074,-54,15,1,-354,442,-796,-44
,1317,2023-10-27 10:44:19.07,15,-40,-2068,-46,10,1,-559,661,-1220,-51
,1318,2023-10-27 10:44:19.08,17,-45,-2055,-41,5,0,-366,434,-800,-34
,1319,2023-10-27 10:44:19.09,6,-46,-2064,-34,6,2,-564,649,-1213,-42
,1320,2023-10-27 10:44:19.10,19,-26,-2063,-36,4,2,-356,441,-797,-42
,1321,2023-10-27 10:44:19.11,7,-16,-2066,-34,0,-1,-556,657,-1213,-50
,1322,2023-10-27 10:44:19.12,15,-35,-2061,-24,2,-5,-358,442,-800,-42
,1323,2023-10-27 10:44:19.13,21,-34,-2061,-19,2,-11,-560,642,-1202,-41
,1324,2023-10-27 10:44:19.14,6,-39,-2068,-19,-1,-13,-366,437,-803,-35
,1325,2023-10-27 10:44:19.15,5,-35,-2055,-16,-3,-17,-560,663,-1223,-51
,1326,2023-10-27 10:44:19.16,13,-37,-2070,-12,7,-19,-376,456,-832,-40
,1327,2023-10-27 10:44:19.17,12,-39,-2049,-7,8,-23,-553,669,-1222,-58
,1328,2023-10-27 10:44:19.18,6,-37,-2055,4,-1,-24,-369,447,-816,-39
,1329,2023-10-27 10:44:19.19,13,-43,-2047,4,11,-24,-552,645,-1197,-46
,1330,2023-10-27 10:44:19.20,18,-44,-2066,7,13,-22,-375,449,-824,-37
,1331,2023-10-27 10:44:19.21,24,-52,-2061,11,23,-22,-554,652,-1206,-49
,1332,2023-10-27 10:44:19.22,21,-61,-2061,16,22,-17,-377,459,-836,-41
,1333,2023-10-27 10:44:19.23,10,-51,-2052,18,24,-16,-556,645,-1201,-44
,1334,2023-10-27 10:44:19.24,14,-46,-2055,17,23,-13,-384,451,-835,-33
,1335,2023-10-27 10:44:19.25,27,-55,-2052,22,17,-10,-557,637,-1194,-40
,1336,2023-10-27 10:44:19.26,19,-51,-2055,22,16,-6,-386,451,-837,-32
,1337,2023-10-27 10:44:19.27,22,-55,-2045,22,17,-2,-554,630,-1184,-38
,1338,2023-10-27 10:44:19.28,21,-58,-2051,22,13,4,-388,450,-838,-31
,1339,2023-10-27 10:44:19.29,22,-37,-2056,18,11,7,-552,631,-1183,-39
,1340,2023-10-27 10:44:19.30,31,-41,-2058,14,10,7,-391,459,-850,-34
,1341,2023-10-27 10:44:19.31,22,-39,-2061,-1,13,8,-548,636,-1184,-44
,1342,2023-10-27 10:44:19.32,14,-42,-2066,-4,10,9,-394,463,-857,-34
,1343,2023-10-27 10:44:19.33,20,-23,-2076,-3,6,7,-547,628,-1175,-40
,1344,2023-10-27 10:44:19.34,26,-25,-2077,-6,1,1,-401,460,-861,-29
,1345,2023-10-27 10:44:19.35,25,-10,-2076,-11,9,-7,-546,621,-1167,-37
,1346,2023-10-27 10:44:19.36,24,-32,-2083,-8,5,-18,-405,462,-867,-28
,1347,2023-10-27 10:44:19.37,22,-21,-2067,-7,-5,-30,-544,613,-1157,-34
,1348,2023-10-27 10:44:19.38,6,-23,-2072,0,-12,-35,-409,466,-875,-28
,1349,2023-10-27 10:44:19.39,9,-38,-2067,6,-21,-42,-541,610,-1151,-34
,1350,2023-10-27 10:44:19.40,5,-39,-2051,8,-18,-49,-412,475,-887,-31
,1351,2023-10-27 10:44:19.41,16,-34,-2044,10,-7,-56,-543,608,-1151,-32
,1352,2023-10-27 10:44:19.42,2,-40,-2052,10,-5,-66,-421,473,-894,-26
,1353,2023-10-27 10:44:19.43,10,-36,-2053,13,1,-73,-541,595,-1136,-27
,1354,2023-10-27 10:44:19.44,11,-26,-2048,21,-8,-83,-422,473,-895,-25
,1355,2023-10-27 10:44:19.45,13,-37,-2041,19,-8,-88,-537,592,-1129,-27
,1356,2023-10-27 10:44:19.46,20,-33,-2028,-2,21,-97,-423,483,-906,-30
,1357,2023-10-27 10:44:19.47,30,-54,-2052,-17,37,-101,-532,594,-1126,-31
,1358,2023-10-27 10:44:19.48,30,-40,-2050,-3,41,-97,-424,486,-910,-31
,1359,2023-10-27 10:44:19.49,38,-33,-2067,0,43,-105,-532,572,-1104,-20
,1360,2023-10-27 10:44:19.50,24,-51,-2058,-15,40,-103,-435,466,-901,-15
,1361,2023-10-27 10:44:19.51,51,-38,-2074,-14,38,-95,-522,586,-1108,-32
,1362,2023-10-27 10:44:19.52,51,-42,-2062,-6,31,-85,-433,495,-928,-31
,1363,2023-10-27 10:44:19.53,53,-47,-2038,-11,23,-70,-518,575,-1093,-28
,1364,2023-10-27 10:44:19.54,38,-59,-2043,-13,27,-59,-446,461,-907,-7
,1365,2023-10-27 10:44:19.55,41,-62,-2055,-6,23,-45,-517,564,-1081,-23
,1366,2023-10-27 10:44:19.56,31,-60,-2054,7,7,-32,-443,498,-941,-27
,1367,2023-10-27 10:44:19.57,21,-61,-2066,12,-2,-19,-515,573,-1088,-29
,1368,2023-10-27 10:44:19.58,32,-54,-2071,11,0,-8,-446,515,-961,-34
,1369,2023-10-27 10:44:19.59,48,-43,-2072,16,0,2,-506,584,-1090,-39
,1370,2023-10-27 10:44:19.60,49,-36,-2072,14,11,9,-448,527,-975,-39
,1371,2023-10-27 10:44:19.61,33,-23,-2051,4,17,8,-498,573,-1071,-37
,1372,2023-10-27 10:44:19.62,59,-42,-2060,-7,29,8,-450,522,-972,-36
,1373,2023-10-27 10:44:19.63,55,-36,-2079,-6,27,11,-498,559,-1057,-30
,1374,2023-10-27 10:44:19.64,56,-22,-2082,-1,16,5,-458,522,-980,-32
,1375,2023-10-27 10:44:19.65,57,-27,-2079,0,11,4,-494,544,-1038,-25
,1376,2023-10-27 10:44:19.66,51,-26,-2078,1,7,0,-458,520,-978,-31
,1377,2023-10-27 10:44:19.67,36,-34,-2082,9,-5,-3,-492,537,-1029,-22
,1378,2023-10-27 10:44:19.68,47,-36,-2075,13,-21,-1,-466,523,-989,-28
,1379,2023-10-27 10:44:19.69,48,-32,-2089,18,-34,2,-489,533,-1022,-22
,1380,2023-10-27 10:44:19.70,38,-32,-2076,18,-37,5,-468,527,-995,-29
,1381,2023-10-27 10:44:19.71,27,-32,-2066,22,-41,5,-487,535,-1022,-24
,1382,2023-10-27 10:44:19.72,44,-27,-2053,25,-42,2,-473,540,-1013,-33
,1383,2023-10-27 10:44:19.73,32,-19,-2017,27,-42,-1,-481,536,-1017,-27
,1384,2023-10-27 10:44:19.74,30,-14,-2042,20,-23,-5,-472,548,-1020,-38
,1385,2023-10-27 10:44:19.75,32,-22,-2036,4,-11,-14,-472,530,-1002,-29
,1386,2023-10-27 10:44:19.76,27,-29,-2007,8,-11,-19,-478,537,-1015,-29
,1387,2023-10-27 10:44:19.77,24,-26,-2081,19,-10,-23,-474,517,-991,-21
,1388,2023-10-27 10:44:19.78,28,-31,-2084,13,-13,-21,-488,550,-1038,-31
,1389,2023-10-27 10:44:19.79,22,-44,-2089,6,-14,-24,-470,526,-996,-28
,1390,2023-10-27 10:44:19.80,23,-29,-2076,4,-19,-23,-489,556,-1045,-33
,1391,2023-10-27 10:44:19.81,31,-35,-2064,7,-27,-21,-461,506,-967,-22
,1392,2023-10-27 10:44:19.82,25,-35,-2062,2,-23,-20,-491,550,-1041,-29
,1393,2023-10-27 10:44:19.83,15,-30,-2058,5,-18,-24,-456,514,-970,-29
,1394,2023-10-27 10:44:19.84,28,-29,-2062,8,-16,-27,-494,570,-1064,-38
,1395,2023-10-27 10:44:19.85,14,-31,-2067,16,-15,-28,-454,512,-966,-29
,1396,2023-10-27 10:44:19.86,9,-49,-2065,22,-16,-29,-496,572,-1068,-38
,1397,2023-10-27 10:44:19.87,13,-36,-2069,29,-19,-31,-450,495,-945,-22
,1398,2023-10-27 10:44:19.88,3,-45,-2072,35,-26,-37,-501,566,-1067,-32
,1399,2023-10-27 10:44:19.89,18,-44,-2069,40,-30,-41,-450,482,-932,-16
,1400,2023-10-27 10:44:19.90,14,-39,-2060,47,-36,-46,-508,568,-1076,-30
,1401,2023-10-27 10:44:19.91,18,-35,-2062,51,-38,-54,-442,493,-935,-25
,1402,2023-10-27 10:44:19.92,12,-32,-2038,66,-35,-61,-493,597,-1090,-52
,1403,2023-10-27 10:44:19.93,-10,-47,-2121,48,-20,-67,-435,487,-922,-26
,1404,2023-10-27 10:44:19.94,2,-54,-2072,29,-24,-68,-507,580,-1087,-36
,1405,2023-10-27 10:44:19.95,1,-53,-2052,30,-34,-68,-438,470,-908,-16
,1406,2023-10-27 10:44:19.96,-15,-65,-2020,35,-30,-74,-506,582,-1088,-38
,1407,2023-10-27 10:44:19.97,-4,-68,-2057,52,-26,-71,-423,478,-901,-27
,1408,2023-10-27 10:44:19.98,-10,-66,-2072,49,-30,-68,-515,584,-1099,-34
,1409,2023-10-27 10:44:19.99,-4,-64,-2060,39,-23,-65,-420,486,-906,-33
,1410,2023-10-27 10:44:20.00,-5,-65,-2037,27,-16,-52,-515,601,-1116,-43
,1411,2023-10-27 10:44:20.01,-14,-50,-2054,24,-6,-51,-423,475,-898,-26
,1412,2023-10-27 10:44:20.02,-18,-70,-2013,17,-1,-41,-517,602,-1119,-42
,1413,2023-10-27 10:44:20.03,1,-67,-2043,24,-2,-33,-418,473,-891,-27
,1414,2023-10-27 10:44:20.04,-5,-66,-2062,21,-8,-26,-522,606,-1128,-42
,1415,2023-10-27 10:44:20.05,-5,-62,-2083,14,-8,-15,-415,470,-885,-27
,1416,2023-10-27 10:44:20.06,-14,-58,-2062,-3,-2,-7,-527,620,-1147,-46
,1417,2023-10-27 10:44:20.07,-22,-73,-2050,-9,0,-1,-414,487,-901,-36
,1418,2023-10-27 10:44:20.08,-2,-73,-2060,-3,1,9,-526,636,-1162,-55
,1419,2023-10-27 10:44:20.09,-16,-53,-2056,-5,4,16,-405,467,-872,-31
,1420,2023-10-27 10:44:20.10,-17,-59,-2050,-8,10,21,-529,610,-1139,-40
,1421,2023-10-27 10:44:20.11,-21,-56,-2060,-6,16,27,-408,439,-847,-15
,1422,2023-10-27 10:44:20.12,-13,-45,-2058,-2,20,30,-536,597,-1133,-30
,1423,2023-10-27 10:44:20.13,-6,-49,-2068,-10,27,30,-405,449,-854,-22
,1424,2023-10-27 10:44:20.14,-8,-47,-2066,-11,35,28,-539,624,-1163,-42
,1425,2023-10-27 10:44:20.15,-10,-40,-2078,-12,38,18,-398,466,-864,-34
,1426,2023-10-27 10:44:20.16,-4,-39,-2084,-16,42,10,-537,639,-1176,-51
,1427,2023-10-27 10:44:20.17,1,-34,-2081,-18,45,3,-391,465,-856,-37
,1428,2023-10-27 10:44:20.18,-10,-33,-2078,-15,39,-6,-535,632,-1167,-48
,1429,2023-10-27 10:44:20.19,4,-26,-2074,-13,27,-20,-384,447,-831,-31
,1430,2023-10-27 10:44:20.20,9,-27,-2060,-10,21,-31,-542,622,-1164,-40
,1431,2023-10-27 10:44:20.21,6,-24,-2056,-6,14,-43,-396,436,-832,-20
,1432,2023-10-27 10:44:20.22,0,-29,-2057,-7,13,-53,-550,623,-1173,-36
,1433,2023-10-27 10:44:20.23,7,-39,-2057,-1,12,-59,-387,446,-833,-29
,1434,2023-10-27 10:44:20.24,6,-43,-2052,3,11,-66,-544,637,-1181,-46
,1435,2023-10-27 10:44:20.25,3,-45,-2043,2,17,-72,-386,422,-808,-18
,1436,2023-10-27 10:44:20.26,-1,-67,-2048,5,27,-73,-551,616,-1167,-32
,1437,2023-10-27 10:44:20.27,10,-62,-2038,10,32,-65,-385,426,-811,-20
,1438,2023-10-27 10:44:20.28,10,-79,-2033,17,33,-61,-549,645,-1194,-48
,1439,2023-10-27 10:44:20.29,17,-93,-2046,34,32,-51,-377,453,-830,-38
,1440,2023-10-27 10:44:20.30,8,-81,-2042,46,28,-42,-542,660,-1202,-59
,1441,2023-10-27 10:44:20.31,28,-84,-2050,54,21,-32,-369,438,-807,-34
,1442,2023-10-27 10:44:20.32,19,-86,-2054,59,22,-22,-545,640,-1185,-47
,1443,2023-10-27 10:44:20.33,39,-76,-2059,61,28,-17,-368,439,-807,-35
,1444,2023-10-27 10:44:20.34,24,-75,-2061,60,28,-14,-551,631,-1182,-40
,1445,2023-10-27 10:44:20.35,39,-64,-2065,51,37,-10,-370,405,-775,-17
,1446,2023-10-27 10:44:20.36,26,-63,-2083,43,38,-9,-556,603,-1159,-23
,1447,2023-10-27 10:44:20.37,24,-67,-2090,30,34,-3,-371,403,-774,-16
,1448,2023-10-27 10:44:20.38,14,-77,-2091,15,29,4,-557,619,-1176,-31
,1449,2023-10-27 10:44:20.39,28,-70,-2069,5,24,6,-370,406,-776,-18
,1450,2023-10-27 10:44:20.40,22,-69,-2063,-3,18,14,-562,618,-1180,-28
,1451,2023-10-27 10:44:20.41,20,-56,-2056,-11,18,19,-371,400,-771,-14
,1452,2023-10-27 10:44:20.42,32,-51,-2055,-23,20,18,-568,614,-1182,-23
,1453,2023-10-27 10:44:20.43,42,-39,-2046,-32,26,12,-368,405,-773,-18
,1454,2023-10-27 10:44:20.44,38,-40,-2050,-42,35,11,-562,628,-1190,-33
,1455,2023-10-27 10:44:20.45,33,-41,-2053,-46,38,6,-370,396,-766,-13
,1456,2023-10-27 10:44:20.46,38,-38,-2068,-45,37,0,-567,627,-1194,-30
,1457,2023-10-27 10:44:20.47,22,-32,-2066,-44,35,-5,-372,398,-770,-13
,1458,2023-10-27 10:44:20.48,15,-41,-2064,-44,32,-11,-568,626,-1194,-29
,1459,2023-10-27 10:44:20.49,36,-32,-2066,-46,35,-17,-373,382,-755,-4
,1460,2023-10-27 10:44:20.50,37,-25,-2061,-42,35,-19,-573,613,-1186,-20
,1461,2023-10-27 10:44:20.51,36,-23,-2061,-37,30,-24,-380,380,-760,0
,1462,2023-10-27 10:44:20.52,35,-24,-2060,-37,35,-28,-573,621,-1194,-24
,1463,2023-10-27 10:44:20.53,39,-22,-2077,-35,30,-28,-377,388,-765,-5
,1464,2023-10-27 10:44:20.54,50,-33,-2065,-24,21,-28,-575,632,-1207,-28
,1465,2023-10-27 10:44:20.55,45,-25,-2059,-16,16,-27,-378,407,-785,-14
,1466,2023-10-27 10:44:20.56,38,-45,-2070,-18,18,-29,-572,640,-1212,-34
,1467,2023-10-27 10:44:20.57,45,-52,-2076,-9,5,-20,-370,409,-779,-19
,1468,2023-10-27 10:44:20.58,44,-34,-2062,8,0,-19,-571,642,-1213,-35
,1469,2023-10-27 10:44:20.59,43,-29,-2055,17,-6,-19,-368,416,-784,-24
,1470,2023-10-27 10:44:20.60,49,-28,-2056,15,-10,-17,-565,639,-1204,-37
,1471,2023-10-27 10:44:20.61,46,-37,-2063,15,-2,-17,-360,400,-760,-20
,1472,2023-10-27 10:44:20.62,45,-38,-2068,13,0,-8,-565,622,-1187,-28
,1473,2023-10-27 10:44:20.63,43,-51,-2078,7,3,-4,-367,389,-756,-11
,1474,2023-10-27 10:44:20.64,29,-66,-2076,8,3,9,-568,627,-1195,-29
,1475,2023-10-27 10:44:20.65,25,-51,-2081,16,-9,21,-363,404,-767,-20
,1476,2023-10-27 10:44:20.66,39,-51,-2068,27,-22,33,-567,642,-1209,-37
,1477,2023-10-27 10:44:20.67,37,-56,-2045,34,-18,38,-370,401,-771,-15
,1478,2023-10-27 10:44:20.68,38,-59,-2039,37,-17,47,-570,622,-1192,-26
,1479,2023-10-27 10:44:20.69,31,-63,-2036,41,-11,54,-376,374,-750,1
,1480,2023-10-27 10:44:20.70,22,-58,-2050,52,-11,60,-573,600,-1173,-13
,1481,2023-10-27 10:44:20.71,20,-61,-2059,51,-9,57,-377,380,-757,-1
,1482,2023-10-27 10:44:20.72,23,-49,-2067,51,-12,59,-573,613,-1186,-20
,1483,2023-10-27 10:44:20.73,20,-38,-2068,48,-11,55,-377,398,-775,-10
,1484,2023-10-27 10:44:20.74,19,-42,-2060,41,-7,49,-566,642,-1208,-38
,1485,2023-10-27 10:44:20.75,17,-41,-2064,30,-4,41,-376,415,-791,-19
,1486,2023-10-27 10:44:20.76,12,-33,-2063,22,3,35,-572,624,-1196,-26
,1487,2023-10-27 10:44:20.77,20,-47,-2063,6,12,27,-382,391,-773,-4
,1488,2023-10-27 10:44:20.78,19,-41,-2073,-5,13,19,-570,622,-1192,-26
,1489,2023-10-27 10:44:20.79,21,-48,-2069,-10,13,12,-375,407,-782,-16
,1490,2023-10-27 10:44:20.80,24,-52,-2059,-9,12,2,-564,621,-1185,-28
,1491,2023-10-27 10:44:20.81,28,-36,-2056,-13,11,-3,-376,399,-775,-11
,1492,2023-10-27 10:44:20.82,26,-47,-2068,-13,11,-8,-565,608,-1173,-21
,1493,2023-10-27 10:44:20.83,33,-49,-2074,-13,3,-13,-394,378,-772,8
,1494,2023-10-27 10:44:20.84,12,-48,-2074,-3,1,-13,-570,601,-1171,-15
,1495,2023-10-27 10:44:20.85,12,-49,-2070,-2,-5,-15,-389,392,-781,-1
,1496,2023-10-27 10:44:20.86,20,-52,-2066,4,-10,-10,-570,592,-1162,-11
,1497,2023-10-27 10:44:20.87,9,-51,-2058,3,-12,-8,-395,382,-777,6
,1498,2023-10-27 10:44:20.88,5,-38,-2050,13,-16,-10,-572,577,-1149,-2
,1499,2023-10-27 10:44:20.89,16,-36,-2049,16,-16,-15,-394,387,-781,3
,1500,2023-10-27 10:44:20.90,17,-42,-2055,18,-11,-19,-566,589,-1155,-11
,1501,2023-10-27 10:44:20.91,8,-43,-2060,21,-9,-18,-393,415,-808,-11
,1502,2023-10-27 10:44:20.92,10,-42,-2062,24,-15,-17,-568,593,-1161,-12
,1503,2023-10-27 10:44:20.93,-2,-45,-2059,21,-16,-19,-402,400,-802,1
,1504,2023-10-27 10:44:20.94,-10,-40,-2063,10,-13,-11,-569,574,-1143,-2
,1505,2023-10-27 10:44:20.95,-5,-39,-2055,11,-16,-13,-404,392,-796,6
,1506,2023-10-27 10:44:20.96,-10,-47,-2066,0,-15,-5,-568,573,-1141,-2
,1507,2023-10-27 10:44:20.97,-13,-46,-2073,-1,-8,0,-410,402,-812,4
,1508,2023-10-27 10:44:20.98,-10,-41,-2069,-14,-7,3,-570,574,-1144,-2
,1509,2023-10-27 10:44:20.99,-7,-44,-2064,-22,9,6,-420,402,-822,9
,1510,2023-10-27 10:44:21.00,-4,-54,-2049,-20,6,12,-569,564,-1133,2
,1511,2023-10-27 10:44:21.01,-9,-68,-2051,-14,14,19,-419,399,-818,10
,1512,2023-10-27 10:44:21.02,-12,-75,-2054,8,3,23,-561,562,-1123,0
,1513,2023-10-27 10:44:21.03,-11,-56,-2054,31,-14,25,-416,407,-823,4
,1514,2023-10-27 10:44:21.04,-9,-49,-2042,43,-21,19,-562,568,-1130,-3
,1515,2023-10-27 10:44:21.05,5,-31,-2034,51,-15,7,-422,436,-858,-7
,1516,2023-10-27 10:44:21.06,-5,-30,-2040,55,-6,-8,-554,579,-1133,-12
,1517,2023-10-27 10:44:21.07,-4,-15,-2053,51,7,-21,-414,435,-849,-10
,1518,2023-10-27 10:44:21.08,4,-20,-2055,45,14,-34,-552,561,-1113,-4
,1519,2023-10-27 10:44:21.09,5,-35,-2064,39,17,-46,-425,425,-850,0
,1520,2023-10-27 10:44:21.10,0,-42,-2061,30,23,-52,-550,564,-1114,-7
,1521,2023-10-27 10:44:21.11,-18,-59,-2075,28,18,-57,-420,457,-877,-18
,1522,2023-10-27 10:44:21.12,7,-45,-2066,21,19,-56,-540,573,-1113,-16
,1523,2023-10-27 10:44:21.13,9,-50,-2056,23,8,-61,-421,439,-860,-9
,1524,2023-10-27 10:44:21.14,16,-39,-2048,19,11,-69,-534,552,-1086,-9
,1525,2023-10-27 10:44:21.15,29,-13,-2041,18,21,-76,-418,456,-874,-19
,1526,2023-10-27 10:44:21.16,22,-22,-2045,5,32,-89,-530,566,-1096,-18
,1527,2023-10-27 10:44:21.17,47,-9,-2040,-5,35,-96,-427,469,-896,-21
,1528,2023-10-27 10:44:21.18,38,-23,-2057,-20,57,-104,-525,554,-1079,-14
,1529,2023-10-27 10:44:21.19,33,-36,-2058,-26,58,-108,-428,460,-888,-16
,1530,2023-10-27 10:44:21.20,33,-43,-2066,-21,53,-110,-526,551,-1077,-12
,1531,2023-10-27 10:44:21.21,51,-55,-2080,-12,39,-103,-443,467,-910,-12
,1532,2023-10-27 10:44:21.22,44,-45,-2068,-10,39,-94,-520,546,-1066,-13
,1533,2023-10-27 10:44:21.23,49,-44,-2077,-10,43,-93,-432,468,-900,-18
,1534,2023-10-27 10:44:21.24,58,-43,-2065,-11,43,-87,-514,529,-1043,-7
,1535,2023-10-27 10:44:21.25,67,-39,-2037,-10,45,-80,-441,464,-905,-11
,1536,2023-10-27 10:44:21.26,58,-51,-2054,-7,45,-68,-516,514,-1030,1
,1537,2023-10-27 10:44:21.27,65,-48,-2066,-6,51,-58,-446,456,-902,-5
,1538,2023-10-27 10:44:21.28,62,-46,-2056,-2,46,-48,-513,504,-1017,4
,1539,2023-10-27 10:44:21.29,73,-42,-2071,1,60,-35,-450,456,-906,-3
,1540,2023-10-27 10:44:21.30,85,-47,-2062,3,59,-26,-506,496,-1002,5
,1541,2023-10-27 10:44:21.31,77,-43,-2057,3,66,-15,-452,455,-907,-1
,1542,2023-10-27 10:44:21.32,79,-56,-2070,5,69,-1,-502,499,-1001,1
,1543,2023-10-27 10:44:21.33,65,-69,-2078,16,67,9,-457,468,-925,-5
,1544,2023-10-27 10:44:21.34,64,-81,-2094,33,48,21,-493,506,-999,-6
,1545,2023-10-27 10:44:21.35,72,-57,-2081,51,25,27,-453,484,-937,-15
,1546,2023-10-27 10:44:21.36,82,-28,-2083,53,9,27,-485,503,-988,-9
,1547,2023-10-27 10:44:21.37,87,-14,-2054,38,10,28,-458,485,-943,-13
,1548,2023-10-27 10:44:21.38,78,-15,-2056,19,24,28,-483,492,-975,-4
,1549,2023-10-27 10:44:21.39,87,-37,-2035,5,44,26,-460,490,-950,-15
,1550,2023-10-27 10:44:21.40,70,-72,-2039,17,28,21,-480,491,-971,-5
,1551,2023-10-27 10:44:21.41,71,-57,-2067,23,40,20,-464,502,-966,-19
,1552,2023-10-27 10:44:21.42,66,-59,-2057,36,26,22,-476,485,-961,-4
,1553,2023-10-27 10:44:21.43,40,-72,-2050,51,12,17,-468,499,-967,-15
,1554,2023-10-27 10:44:21.44,57,-89,-2084,67,-3,20,-472,474,-946,-1
,1555,2023-10-27 10:44:21.45,34,-60,-2094,81,-26,18,-470,496,-966,-13
,1556,2023-10-27 10:44:21.46,54,-38,-2078,75,-44,8,-464,474,-938,-5
,1557,2023-10-27 10:44:21.47,24,-28,-2072,63,-59,4,-472,504,-976,-16
,1558,2023-10-27 10:44:21.48,26,-29,-2059,50,-67,3,-458,472,-930,-7
,1559,2023-10-27 10:44:21.49,17,-33,-2060,19,-64,-3,-474,503,-977,-14
,1560,2023-10-27 10:44:21.50,16,-65,-2042,-7,-64,-8,-452,471,-923,-9
,1561,2023-10-27 10:44:21.51,17,-72,-2043,-12,-65,-10,-475,519,-994,-22
,1562,2023-10-27 10:44:21.52,10,-59,-2059,-15,-52,-17,-440,471,-911,-15
,1563,2023-10-27 10:44:21.53,8,-44,-2058,-22,-57,-23,-450,486,-936,-18
,1564,2023-10-27 10:44:21.54,10,-43,-2032,-30,-54,-31,-534,527,-1061,3
,1565,2023-10-27 10:44:21.55,23,-42,-2032,-37,-40,-35,-552,560,-1112,-4
,1566,2023-10-27 10:44:21.56,1,-49,-2048,-42,-26,-42,-529,547,-1076,-9
,1567,2023-10-27 10:44:21.57,11,-62,-2075,-44,-17,-42,-521,559,-1080,-19
,1568,2023-10-27 10:44:21.58,12,-53,-2070,-40,-20,-42,-539,553,-1092,-7
,1569,2023-10-27 10:44:21.59,8,-56,-2074,-41,-20,-41,-566,602,-1168,-18
,1570,2023-10-27 10:44:21.60,17,-54,-2084,-42,-21,-38,-565,594,-1159,-14
,1571,2023-10-27 10:44:21.61,-8,-49,-2078,-44,-20,-35,-576,636,-1212,-30
,1572,2023-10-27 10:44:21.62,12,-35,-2074,-47,-20,-27,-567,599,-1166,-16
,1573,2023-10-27 10:44:21.63,22,-21,-2069,-55,-24,-22,-584,653,-1237,-34
,1574,2023-10-27 10:44:21.64,34,-18,-2057,-60,-18,-22,-551,620,-1171,-34
,1575,2023-10-27 10:44:21.65,26,-4,-2049,-65,-14,-11,-575,676,-1251,-50
,1576,2023-10-27 10:44:21.66,35,-4,-2040,-67,-12,-6,-552,636,-1188,-42
,1577,2023-10-27 10:44:21.67,12,-17,-2039,-67,1,-3,-598,691,-1289,-46
,1578,2023-10-27 10:44:21.68,11,-28,-2050,-57,3,1,-564,632,-1196,-34
,1579,2023-10-27 10:44:21.69,6,-58,-2057,-36,-4,10,-608,693,-1301,-42
,1580,2023-10-27 10:44:21.70,14,-38,-2063,-7,-20,21,-557,623,-1180,-33
,1581,2023-10-27 10:44:21.71,9,-37,-2085,16,-33,23,-609,702,-1311,-46
,1582,2023-10-27 10:44:21.72,27,-11,-2070,28,-35,27,-548,637,-1185,-44
,1583,2023-10-27 10:44:21.73,21,-15,-2063,34,-30,24,-603,729,-1332,-63
,1584,2023-10-27 10:44:21.74,40,-8,-2066,37,-30,26,-538,640,-1178,-51
,1585,2023-10-27 10:44:21.75,34,-4,-2067,37,-23,23,-604,732,-1336,-64
,1586,2023-10-27 10:44:21.76,11,2,-2066,38,-14,20,-536,635,-1171,-49
,1587,2023-10-27 10:44:21.77,22,4,-2066,30,-10,12,-608,736,-1344,-64
,1588,2023-10-27 10:44:21.78,19,7,-2072,18,-7,6,-535,631,-1166,-48
,1589,2023-10-27 10:44:21.79,39,8,-2057,17,0,-6,-613,735,-1348,-61
,1590,2023-10-27 10:44:21.80,39,5,-2037,15,14,-25,-537,630,-1167,-46
,1591,2023-10-27 10:44:21.81,35,2,-2048,16,26,-41,-624,745,-1369,-60
,1592,2023-10-27 10:44:21.82,40,-9,-2078,17,43,-51,-528,632,-1160,-52
,1593,2023-10-27 10:44:21.83,26,-26,-2114,18,46,-60,-620,750,-1370,-65
,1594,2023-10-27 10:44:21.84,30,-8,-2094,14,47,-65,-521,624,-1145,-51
,1595,2023-10-27 10:44:21.85,29,-8,-2069,10,45,-71,-620,750,-1370,-65
,1596,2023-10-27 10:44:21.86,56,-29,-2077,-1,45,-70,-519,616,-1135,-48
,1597,2023-10-27 10:44:21.87,26,-34,-2061,-6,54,-63,-629,750,-1379,-60
,1598,2023-10-27 10:44:21.88,27,-57,-2049,13,40,-61,-525,608,-1133,-41
,1599,2023-10-27 10:44:21.89,39,-56,-2064,46,18,-47,-636,757,-1393,-60
,1600,2023-10-27 10:44:21.90,39,-30,-2048,55,-3,-39,-521,605,-1126,-42
,1601,2023-10-27 10:44:21.91,50,-48,-2029,62,1,-32,-636,759,-1395,-61
,1602,2023-10-27 10:44:21.92,38,-39,-2040,62,21,-27,-522,604,-1126,-41
,1603,2023-10-27 10:44:21.93,26,-55,-2045,60,25,-23,-642,768,-1410,-63
,1604,2023-10-27 10:44:21.94,24,-64,-2056,69,14,-21,-521,607,-1128,-43
,1605,2023-10-27 10:44:21.95,21,-52,-2056,78,5,-28,-645,767,-1412,-61
,1606,2023-10-27 10:44:21.96,29,-33,-2063,82,0,-36,-523,600,-1123,-38
,1607,2023-10-27 10:44:21.97,37,-36,-2076,83,3,-48,-647,776,-1423,-64
,1608,2023-10-27 10:44:21.98,9,-46,-2066,80,0,-61,-517,597,-1114,-40
,1609,2023-10-27 10:44:21.99,16,-50,-2087,76,-1,-72,-649,772,-1421,-61
,1610,2023-10-27 10:44:22.00,13,-55,-2067,67,-3,-80,-510,595,-1105,-42
,1611,2023-10-27 10:44:22.01,-3,-73,-2063,59,7,-82,-650,778,-1428,-64
,1612,2023-10-27 10:44:22.02,25,-75,-2070,43,14,-84,-507,601,-1108,-47
,1613,2023-10-27 10:44:22.03,11,-101,-2057,25,28,-83,-659,774,-1433,-57
,1614,2023-10-27 10:44:22.04,17,-107,-2062,11,38,-65,-506,591,-1097,-42
,1615,2023-10-27 10:44:22.05,7,-105,-2083,3,33,-43,-657,778,-1435,-60
,1616,2023-10-27 10:44:22.06,41,-104,-2083,-1,39,-29,-507,586,-1093,-39
,1617,2023-10-27 10:44:22.07,57,-79,-2035,8,30,-9,-661,788,-1449,-63
,1618,2023-10-27 10:44:22.08,56,-86,-2018,4,48,5,-501,589,-1090,-44
,1619,2023-10-27 10:44:22.09,60,-109,-2044,-1,61,25,-660,793,-1453,-66
,1620,2023-10-27 10:44:22.10,45,-98,-2087,4,77,41,-500,590,-1090,-45
,1621,2023-10-27 10:44:22.11,45,-85,-2086,29,58,80,-658,796,-1454,-69
,1622,2023-10-27 10:44:22.12,58,-63,-2103,44,37,92,-496,585,-1081,-44
,1623,2023-10-27 10:44:22.13,69,-37,-2066,46,27,93,-661,793,-1454,-66
,1624,2023-10-27 10:44:22.14,65,-46,-2054,47,15,94,-500,583,-1083,-41
,1625,2023-10-27 10:44:22.15,50,-50,-2050,48,14,88,-667,803,-1470,-68
,1626,2023-10-27 10:44:22.16,50,-31,-2054,52,9,79,-494,588,-1082,-47
,1627,2023-10-27 10:44:22.17,36,-35,-2064,65,-8,68,-663,797,-1460,-67
,1628,2023-10-27 10:44:22.18,45,-45,-2059,64,-17,55,-486,582,-1068,-48
,1629,2023-10-27 10:44:22.19,34,-50,-2071,65,-36,46,-669,800,-1469,-65
,1630,2023-10-27 10:44:22.20,32,-35,-2055,63,-53,26,-497,589,-1086,-46
,1631,2023-10-27 10:44:22.21,23,-36,-2071,54,-53,8,-678,802,-1480,-62
,1632,2023-10-27 10:44:22.22,29,-53,-2056,39,-53,-9,-499,588,-1087,-44
,1633,2023-10-27 10:44:22.23,20,-68,-2048,29,-52,-20,-677,810,-1487,-66
,1634,2023-10-27 10:44:22.24,26,-66,-2061,30,-43,-26,-488,580,-1068,-46
,1635,2023-10-27 10:44:22.25,29,-68,-2057,29,-41,-36,-671,805,-1476,-67
,1636,2023-10-27 10:44:22.26,44,-80,-2034,27,-31,-36,-489,574,-1063,-42
,1637,2023-10-27 10:44:22.27,33,-86,-2042,25,-15,-34,-674,804,-1478,-65
,1638,2023-10-27 10:44:22.28,35,-102,-2062,25,-1,-31,-487,571,-1058,-42
,1639,2023-10-27 10:44:22.29,25,-107,-2062,30,2,-21,-673,799,-1472,-63
,1640,2023-10-27 10:44:22.30,37,-111,-2063,30,7,-7,-484,566,-1050,-41
,1641,2023-10-27 10:44:22.31,39,-102,-2068,37,9,5,-673,799,-1472,-63
,1642,2023-10-27 10:44:22.32,41,-90,-2074,37,3,15,-488,576,-1064,-44
,1643,2023-10-27 10:44:22.33,45,-76,-2072,37,-7,25,-681,804,-1485,-61
,1644,2023-10-27 10:44:22.34,42,-76,-2075,35,-8,31,-496,576,-1072,-40
,1645,2023-10-27 10:44:22.35,21,-62,-2071,27,-18,35,-686,806,-1492,-60
,1646,2023-10-27 10:44:22.36,26,-69,-2065,20,-30,34,-487,576,-1063,-44
,1647,2023-10-27 10:44:22.37,7,-67,-2058,21,-40,32,-678,810,-1488,-66
,1648,2023-10-27 10:44:22.38,31,-79,-2065,16,-37,29,-474,595,-1069,-60
,1649,2023-10-27 10:44:22.39,25,-93,-2045,14,-45,32,-676,812,-1488,-68
,1650,2023-10-27 10:44:22.40,14,-84,-2043,17,-40,33,-478,578,-1056,-50
,1651,2023-10-27 10:44:22.41,30,-91,-2045,14,-32,35,-678,799,-1477,-60
,1652,2023-10-27 10:44:22.42,21,-91,-2041,7,-13,39,-483,573,-1056,-45
,1653,2023-10-27 10:44:22.43,16,-95,-2041,6,1,43,-683,796,-1479,-56
,1654,2023-10-27 10:44:22.44,22,-87,-2051,4,3,50,-492,563,-1055,-35
,1655,2023-10-27 10:44:22.45,32,-81,-2055,3,7,52,-686,796,-1482,-55
,1656,2023-10-27 10:44:22.46,34,-82,-2059,2,15,54,-492,564,-1056,-36
,1657,2023-10-27 10:44:22.47,33,-59,-2056,8,17,56,-683,799,-1482,-58
,1658,2023-10-27 10:44:22.48,46,-51,-2059,12,10,52,-491,571,-1062,-40
,1659,2023-10-27 10:44:22.49,43,-52,-2071,6,21,50,-682,806,-1488,-62
,1660,2023-10-27 10:44:22.50,36,-59,-2080,4,19,46,-489,577,-1066,-44
,1661,2023-10-27 10:44:22.51,35,-56,-2085,1,13,44,-681,798,-1479,-58
,1662,2023-10-27 10:44:22.52,30,-50,-2083,5,10,47,-491,579,-1070,-44
,1663,2023-10-27 10:44:22.53,30,-80,-2072,11,-8,50,-686,801,-1487,-57
,1664,2023-10-27 10:44:22.54,42,-59,-2061,11,-16,53,-491,584,-1075,-46
,1665,2023-10-27 10:44:22.55,38,-56,-2062,15,-23,52,-687,807,-1494,-60
,1666,2023-10-27 10:44:22.56,42,-59,-2064,17,-24,51,-495,592,-1087,-48
,1667,2023-10-27 10:44:22.57,42,-58,-2062,18,-24,58,-685,809,-1494,-62
,1668,2023-10-27 10:44:22.58,31,-46,-2063,19,-30,56,-491,598,-1089,-53
,1669,2023-10-27 10:44:22.59,36,-59,-2069,16,-20,52,-682,808,-1490,-63
,1670,2023-10-27 10:44:22.60,28,-64,-2064,17,-23,57,-493,591,-1084,-49
,1671,2023-10-27 10:44:22.61,35,-62,-2072,19,-27,61,-684,809,-1493,-62
,1672,2023-10-27 10:44:22.62,9,-64,-2063,21,-34,62,-498,593,-1091,-47
,1673,2023-10-27 10:44:22.63,33,-65,-2062,24,-28,65,-681,813,-1494,-66
,1674,2023-10-27 10:44:22.64,31,-78,-2077,23,-32,68,-497,603,-1100,-53
,1675,2023-10-27 10:44:22.65,31,-70,-2085,31,-35,71,-680,816,-1496,-68
,1676,2023-10-27 10:44:22.66,12,-64,-2070,31,-37,71,-500,612,-1112,-56
,1677,2023-10-27 10:44:22.67,24,-40,-2085,37,-46,74,-678,829,-1507,-75
,1678,2023-10-27 10:44:22.68,14,-51,-2074,38,-58,72,-504,626,-1130,-61
,1679,2023-10-27 10:44:22.69,22,-58,-2079,34,-64,69,-676,821,-1497,-72
,1680,2023-10-27 10:44:22.70,5,-45,-2066,24,-68,69,-500,619,-1119,-59
,1681,2023-10-27 10:44:22.71,-7,-59,-2087,20,-80,66,-670,817,-1487,-73
,1682,2023-10-27 10:44:22.72,-9,-59,-2090,20,-89,68,-498,623,-1121,-62
,1683,2023-10-27 10:44:22.73,4,-64,-2092,15,-93,63,-670,813,-1483,-71
,1684,2023-10-27 10:44:22.74,-8,-69,-2085,10,-90,63,-501,622,-1123,-60
,1685,2023-10-27 10:44:22.75,-4,-93,-2095,13,-85,67,-671,807,-1478,-68
,1686,2023-10-27 10:44:22.76,-21,-93,-2096,18,-75,74,-505,623,-1128,-59
,1687,2023-10-27 10:44:22.77,-13,-109,-2086,28,-65,81,-668,803,-1471,-67
,1688,2023-10-27 10:44:22.78,-32,-125,-2068,47,-62,90,-504,620,-1124,-58
,1689,2023-10-27 10:44:22.79,-27,-138,-2079,68,-58,96,-662,812,-1474,-75
,1690,2023-10-27 10:44:22.80,-18,-124,-2072,86,-56,105,-510,632,-1142,-61
,1691,2023-10-27 10:44:22.81,-36,-123,-2054,97,-48,105,-667,809,-1476,-71
,1692,2023-10-27 10:44:22.82,-31,-125,-2057,95,-34,106,-514,631,-1145,-58
,1693,2023-10-27 10:44:22.83,-43,-138,-2066,90,-26,109,-663,803,-1466,-70
,1694,2023-10-27 10:44:22.84,-57,-138,-2079,94,-27,108,-514,636,-1150,-61
,1695,2023-10-27 10:44:22.85,-50,-128,-2082,97,-26,108,-655,789,-1444,-67
,1696,2023-10-27 10:44:22.86,-50,-129,-2055,103,-23,107,-511,635,-1146,-62
,1697,2023-10-27 10:44:22.87,-37,-130,-2042,118,-32,101,-644,787,-1431,-71
,1698,2023-10-27 10:44:22.88,-55,-127,-2029,129,-39,92,-510,634,-1144,-62
,1699,2023-10-27 10:44:22.89,-40,-148,-2014,131,-28,82,-635,772,-1407,-68
