// Data mode  : Full
// Data quality  : High
// Acceleration sensor's range  : 16g
// Gyroscope sensor's range  : 2000dps
//
//ARTIFACT,NUM,DATE,ACC_X,ACC_Y,ACC_Z,GYRO_X,GYRO_Y,GYRO_Z,EOG_L,EOG_R,EOG_H,EOG_V
,1,2023-10-20 13:32:55.92,203,-199,-2043,12,19,40,774,776,-2,-775
,2,2023-10-20 13:32:55.93,191,-198,-2053,12,17,39,513,536,-23,-524
,3,2023-10-20 13:32:55.94,191,-192,-2055,8,14,35,779,781,-2,-780
,4,2023-10-20 13:32:55.95,188,-199,-2061,9,10,37,509,536,-27,-522
,5,2023-10-20 13:32:55.96,190,-188,-2059,7,7,33,780,780,0,-780
,6,2023-10-20 13:32:55.97,199,-198,-2044,9,6,31,515,544,-29,-529
,7,2023-10-20 13:32:55.98,176,-196,-2047,7,5,32,785,786,-1,-785
,8,2023-10-20 13:32:55.99,185,-199,-2044,7,6,35,516,548,-32,-532
,9,2023-10-20 13:32:56.00,193,-197,-2045,5,8,34,784,784,0,-784
,10,2023-10-20 13:32:56.01,194,-198,-2050,5,7,37,516,548,-32,-532
,11,2023-10-20 13:32:56.02,176,-204,-2046,5,15,36,783,785,-2,-784
,12,2023-10-20 13:32:56.03,198,-194,-2045,8,18,34,509,542,-33,-525
,13,2023-10-20 13:32:56.04,190,-191,-2052,11,18,29,780,776,4,-778
,14,2023-10-20 13:32:56.05,185,-191,-2054,10,16,24,519,542,-23,-530
,15,2023-10-20 13:32:56.06,192,-183,-2048,12,16,23,779,780,-1,-779
,16,2023-10-20 13:32:56.07,198,-183,-2037,13,14,14,510,542,-32,-526
,17,2023-10-20 13:32:56.08,198,-187,-2045,10,17,12,764,768,-4,-766
,18,2023-10-20 13:32:56.09,194,-193,-2052,14,13,10,518,553,-35,-535
,19,2023-10-20 13:32:56.10,179,-193,-2047,16,14,7,778,779,-1,-778
,20,2023-10-20 13:32:56.11,188,-203,-2046,18,17,4,524,553,-29,-538
,21,2023-10-20 13:32:56.12,200,-198,-2038,21,19,3,784,780,4,-782
,22,2023-10-20 13:32:56.13,201,-200,-2033,20,23,3,520,554,-34,-537
,23,2023-10-20 13:32:56.14,188,-207,-2038,24,21,7,780,778,2,-779
,24,2023-10-20 13:32:56.15,200,-212,-2035,26,22,9,523,554,-31,-538
,25,2023-10-20 13:32:56.16,192,-217,-2041,26,23,14,785,776,9,-780
,26,2023-10-20 13:32:56.17,187,-210,-2040,37,18,16,529,561,-32,-545
,27,2023-10-20 13:32:56.18,203,-211,-2049,40,13,18,780,775,5,-777
,28,2023-10-20 13:32:56.19,204,-205,-2046,41,19,16,533,562,-29,-547
,29,2023-10-20 13:32:56.20,220,-195,-2033,33,22,16,778,774,4,-776
,30,2023-10-20 13:32:56.21,214,-196,-2056,27,25,13,532,564,-32,-548
,31,2023-10-20 13:32:56.22,221,-194,-2047,19,33,13,778,769,9,-773
,32,2023-10-20 13:32:56.23,199,-199,-2059,21,31,10,536,566,-30,-551
,33,2023-10-20 13:32:56.24,200,-209,-2058,21,30,6,772,765,7,-768
,34,2023-10-20 13:32:56.25,206,-206,-2053,18,27,6,532,562,-30,-547
,35,2023-10-20 13:32:56.26,208,-199,-2051,18,18,3,770,762,8,-766
,36,2023-10-20 13:32:56.27,206,-202,-2056,18,14,0,540,572,-32,-556
,37,2023-10-20 13:32:56.28,208,-203,-2044,18,12,1,769,764,5,-766
,38,2023-10-20 13:32:56.29,195,-202,-2047,19,13,0,548,573,-25,-560
,39,2023-10-20 13:32:56.30,198,-205,-2044,18,13,-1,768,760,8,-764
,40,2023-10-20 13:32:56.31,197,-197,-2036,14,12,2,546,578,-32,-562
,41,2023-10-20 13:32:56.32,197,-206,-2037,7,13,2,762,755,7,-758
,42,2023-10-20 13:32:56.33,207,-205,-2034,5,15,8,556,581,-25,-568
,43,2023-10-20 13:32:56.34,207,-198,-2029,2,15,6,762,755,7,-758
,44,2023-10-20 13:32:56.35,204,-191,-2035,3,14,5,559,586,-27,-572
,45,2023-10-20 13:32:56.36,216,-187,-2049,4,16,0,760,754,6,-757
,46,2023-10-20 13:32:56.37,207,-185,-2044,1,18,-5,562,594,-32,-578
,47,2023-10-20 13:32:56.38,209,-189,-2048,2,18,-10,752,746,6,-749
,48,2023-10-20 13:32:56.39,203,-192,-2050,0,18,-9,567,600,-33,-583
,49,2023-10-20 13:32:56.40,209,-205,-2052,5,15,-13,751,745,6,-748
,50,2023-10-20 13:32:56.41,197,-211,-2052,10,18,-8,569,600,-31,-584
,51,2023-10-20 13:32:56.42,196,-207,-2050,11,17,-5,740,736,4,-738
,52,2023-10-20 13:32:56.43,216,-204,-2046,13,16,3,574,601,-27,-587
,53,2023-10-20 13:32:56.44,210,-205,-2047,9,22,6,736,734,2,-735
,54,2023-10-20 13:32:56.45,211,-208,-2052,16,22,13,573,608,-35,-590
,55,2023-10-20 13:32:56.46,227,-198,-2037,15,25,15,739,733,6,-736
,56,2023-10-20 13:32:56.47,217,-193,-2035,13,32,12,582,615,-33,-598
,57,2023-10-20 13:32:56.48,220,-187,-2038,14,35,12,728,724,4,-726
,58,2023-10-20 13:32:56.49,217,-177,-2040,15,38,5,573,604,-31,-588
,59,2023-10-20 13:32:56.50,216,-199,-2061,7,50,-1,730,721,9,-725
,60,2023-10-20 13:32:56.51,230,-205,-2046,-8,61,-11,594,625,-31,-609
,61,2023-10-20 13:32:56.52,206,-219,-2066,8,48,-8,727,721,6,-724
,62,2023-10-20 13:32:56.53,213,-219,-2061,25,30,7,599,624,-25,-611
,63,2023-10-20 13:32:56.54,226,-204,-2045,27,27,14,713,710,3,-711
,64,2023-10-20 13:32:56.55,223,-202,-2044,32,25,10,596,627,-31,-611
,65,2023-10-20 13:32:56.56,224,-203,-2038,35,27,13,701,699,2,-700
,66,2023-10-20 13:32:56.57,224,-198,-2037,36,29,9,604,636,-32,-620
,67,2023-10-20 13:32:56.58,219,-218,-2034,37,28,12,701,701,0,-701
,68,2023-10-20 13:32:56.59,225,-205,-2034,41,34,13,607,640,-33,-623
,69,2023-10-20 13:32:56.60,220,-210,-2045,43,36,8,696,691,5,-693
,70,2023-10-20 13:32:56.61,239,-209,-2031,46,35,5,616,649,-33,-632
,71,2023-10-20 13:32:56.62,223,-208,-2042,50,33,4,691,693,-2,-692
,72,2023-10-20 13:32:56.63,235,-201,-2038,52,34,-3,626,653,-27,-639
,73,2023-10-20 13:32:56.64,226,-198,-2041,45,37,-10,692,693,-1,-692
,74,2023-10-20 13:32:56.65,231,-219,-2034,40,33,-8,633,664,-31,-648
,75,2023-10-20 13:32:56.66,220,-220,-2026,27,40,-3,681,681,0,-681
,76,2023-10-20 13:32:56.67,237,-228,-2037,17,52,-11,641,667,-26,-654
,77,2023-10-20 13:32:56.68,241,-240,-2041,32,34,4,680,677,3,-678
,78,2023-10-20 13:32:56.69,243,-210,-2025,26,30,20,642,668,-26,-655
,79,2023-10-20 13:32:56.70,219,-220,-2032,17,37,23,674,672,2,-673
,80,2023-10-20 13:32:56.71,231,-225,-2042,17,36,25,651,678,-27,-664
,81,2023-10-20 13:32:56.72,235,-219,-2040,20,34,28,673,667,6,-670
,82,2023-10-20 13:32:56.73,240,-217,-2043,21,30,29,656,684,-28,-670
,83,2023-10-20 13:32:56.74,229,-199,-2046,13,35,26,660,662,-2,-661
,84,2023-10-20 13:32:56.75,240,-222,-2048,16,32,27,661,687,-26,-674
,85,2023-10-20 13:32:56.76,250,-213,-2051,23,28,24,649,653,-4,-651
,86,2023-10-20 13:32:56.77,237,-206,-2048,24,30,19,661,685,-24,-673
,87,2023-10-20 13:32:56.78,236,-222,-2048,17,31,17,645,650,-5,-647
,88,2023-10-20 13:32:56.79,233,-221,-2057,17,28,20,663,692,-29,-677
,89,2023-10-20 13:32:56.80,241,-222,-2045,15,27,23,636,643,-7,-639
,90,2023-10-20 13:32:56.81,242,-219,-2051,11,24,24,674,696,-22,-685
,91,2023-10-20 13:32:56.82,230,-207,-2043,3,29,24,630,637,-7,-633
,92,2023-10-20 13:32:56.83,230,-208,-2049,-6,30,27,675,699,-24,-687
,93,2023-10-20 13:32:56.84,239,-205,-2040,-9,29,29,628,631,-3,-629
,94,2023-10-20 13:32:56.85,244,-205,-2043,-11,28,30,681,707,-26,-694
,95,2023-10-20 13:32:56.86,240,-210,-2041,-13,30,29,619,627,-8,-623
,96,2023-10-20 13:32:56.87,244,-203,-2038,-15,29,27,700,719,-19,-709
,97,2023-10-20 13:32:56.88,241,-193,-2028,-11,31,23,624,630,-6,-627
,98,2023-10-20 13:32:56.89,241,-199,-2036,-6,26,17,703,722,-19,-712
,99,2023-10-20 13:32:56.90,245,-193,-2051,-2,22,10,606,611,-5,-608
,100,2023-10-20 13:32:56.91,240,-195,-2042,-1,18,5,742,754,-12,-748
,101,2023-10-20 13:32:56.92,239,-191,-2051,0,13,0,676,664,12,-670
,102,2023-10-20 13:32:56.93,236,-199,-2044,2,10,-3,882,872,10,-877
,103,2023-10-20 13:32:56.94,245,-207,-2046,3,6,-3,2047,1763,284,-1905
,104,2023-10-20 13:32:56.95,247,-210,-2047,2,9,-2,2047,2032,15,-2039
,105,2023-10-20 13:32:56.96,246,-210,-2040,8,4,1,2047,2026,21,-2036
,106,2023-10-20 13:32:56.97,253,-206,-2031,11,6,6,2047,2028,19,-2037
,107,2023-10-20 13:32:56.98,240,-222,-2039,13,8,9,2047,2032,15,-2039
,108,2023-10-20 13:32:56.99,243,-214,-2044,15,11,13,2047,2032,15,-2039
,109,2023-10-20 13:32:57.00,233,-215,-2039,17,14,17,2047,2031,16,-2039
,110,2023-10-20 13:32:57.01,236,-211,-2032,16,16,18,2047,2039,8,-2043
,111,2023-10-20 13:32:57.02,236,-216,-2025,20,19,22,2047,2033,14,-2040
,112,2023-10-20 13:32:57.03,241,-226,-2048,26,14,24,2047,2033,14,-2040
,113,2023-10-20 13:32:57.04,237,-214,-2062,33,13,25,2047,2025,22,-2036
,114,2023-10-20 13:32:57.05,244,-200,-2051,28,18,24,2047,1821,226,-1934
,115,2023-10-20 13:32:57.06,266,-210,-2044,22,18,20,2047,636,1411,-1341
,116,2023-10-20 13:32:57.07,258,-208,-2045,19,25,21,463,-414,877,-24
,117,2023-10-20 13:32:57.08,242,-229,-2053,23,23,22,-1427,-671,-756,1049
,118,2023-10-20 13:32:57.09,240,-217,-2049,21,23,21,-1649,-927,-722,1288
,119,2023-10-20 13:32:57.10,242,-230,-2056,22,22,27,-1024,-818,-206,921
,120,2023-10-20 13:32:57.11,236,-225,-2039,26,14,34,-848,-967,119,907
,121,2023-10-20 13:32:57.12,246,-218,-2037,21,14,38,-724,-868,144,796
,122,2023-10-20 13:32:57.13,240,-204,-2031,16,16,39,-1006,-1033,27,1019
,123,2023-10-20 13:32:57.14,248,-197,-2037,9,18,35,-970,-943,-27,956
,124,2023-10-20 13:32:57.15,244,-201,-2026,2,20,34,-1136,-1096,-40,1116
,125,2023-10-20 13:32:57.16,244,-200,-2026,-6,25,26,-1006,-991,-15,998
,126,2023-10-20 13:32:57.17,238,-204,-2028,-14,22,20,-1148,-1109,-39,1128
,127,2023-10-20 13:32:57.18,225,-218,-2038,-18,24,21,-1033,-995,-38,1014
,128,2023-10-20 13:32:57.19,228,-212,-2039,-19,19,25,-1182,-1041,-141,1111
,129,2023-10-20 13:32:57.20,223,-215,-2044,-22,17,25,-1070,-915,-155,992
,130,2023-10-20 13:32:57.21,249,-205,-2038,-24,17,24,-1210,-882,-328,1046
,131,2023-10-20 13:32:57.22,260,-207,-2041,-28,19,26,-1096,-759,-337,927
,132,2023-10-20 13:32:57.23,250,-207,-2042,-28,15,26,-1224,-670,-554,947
,133,2023-10-20 13:32:57.24,262,-198,-2043,-28,18,23,-1099,-580,-519,839
,134,2023-10-20 13:32:57.25,249,-197,-2054,-26,16,21,-1140,-444,-696,792
,135,2023-10-20 13:32:57.26,251,-191,-2060,-28,18,17,-997,-394,-603,695
,136,2023-10-20 13:32:57.27,242,-194,-2057,-25,16,16,-939,-211,-728,575
,137,2023-10-20 13:32:57.28,246,-189,-2054,-24,11,14,-802,-200,-602,501
,138,2023-10-20 13:32:57.29,242,-193,-2062,-19,11,9,-685,9,-694,338
,139,2023-10-20 13:32:57.30,238,-200,-2053,-12,9,10,-597,-46,-551,321
,140,2023-10-20 13:32:57.31,252,-206,-2038,-3,9,9,-432,161,-593,135
,141,2023-10-20 13:32:57.32,245,-195,-2027,-3,13,9,-382,71,-453,155
,142,2023-10-20 13:32:57.33,264,-187,-2034,-3,24,9,-141,302,-443,-80
,143,2023-10-20 13:32:57.34,251,-210,-2038,1,26,16,-172,165,-337,3
,144,2023-10-20 13:32:57.35,261,-207,-2037,2,32,19,89,398,-309,-243
,145,2023-10-20 13:32:57.36,253,-208,-2041,3,30,20,-10,241,-251,-115
,146,2023-10-20 13:32:57.37,256,-196,-2046,7,32,23,241,471,-230,-356
,147,2023-10-20 13:32:57.38,256,-201,-2044,14,25,23,100,295,-195,-197
,148,2023-10-20 13:32:57.39,255,-188,-2039,17,23,22,352,540,-188,-446
,149,2023-10-20 13:32:57.40,247,-191,-2045,19,19,15,175,354,-179,-264
,150,2023-10-20 13:32:57.41,259,-192,-2044,21,16,10,438,591,-153,-514
,151,2023-10-20 13:32:57.42,266,-201,-2041,22,15,9,243,395,-152,-319
,152,2023-10-20 13:32:57.43,262,-203,-2036,21,14,9,504,632,-128,-568
,153,2023-10-20 13:32:57.44,262,-212,-2042,19,17,11,298,429,-131,-363
,154,2023-10-20 13:32:57.45,254,-207,-2044,16,17,18,557,662,-105,-609
,155,2023-10-20 13:32:57.46,255,-208,-2033,11,18,19,339,451,-112,-395
,156,2023-10-20 13:32:57.47,271,-208,-2041,4,21,23,601,689,-88,-645
,157,2023-10-20 13:32:57.48,254,-197,-2042,1,22,21,376,474,-98,-425
,158,2023-10-20 13:32:57.49,254,-191,-2042,-2,19,18,638,714,-76,-676
,159,2023-10-20 13:32:57.50,261,-188,-2047,-2,15,16,405,488,-83,-446
,160,2023-10-20 13:32:57.51,251,-191,-2050,-3,13,6,669,732,-63,-700
,161,2023-10-20 13:32:57.52,257,-189,-2053,-3,11,3,427,507,-80,-467
,162,2023-10-20 13:32:57.53,255,-195,-2042,0,8,-2,695,741,-46,-718
,163,2023-10-20 13:32:57.54,249,-185,-2037,-1,8,0,446,520,-74,-483
,164,2023-10-20 13:32:57.55,246,-218,-2034,1,6,1,709,752,-43,-730
,165,2023-10-20 13:32:57.56,248,-208,-2039,0,6,10,464,529,-65,-496
,166,2023-10-20 13:32:57.57,250,-204,-2030,0,12,18,727,764,-37,-745
,167,2023-10-20 13:32:57.58,267,-198,-2038,0,16,23,476,536,-60,-506
,168,2023-10-20 13:32:57.59,256,-198,-2038,-3,20,33,746,771,-25,-758
,169,2023-10-20 13:32:57.60,267,-192,-2037,-8,22,35,488,544,-56,-516
,170,2023-10-20 13:32:57.61,243,-192,-2040,-9,24,36,754,773,-19,-763
,171,2023-10-20 13:32:57.62,263,-186,-2043,-6,23,33,498,551,-53,-524
,172,2023-10-20 13:32:57.63,254,-184,-2043,-2,21,28,755,776,-21,-765
,173,2023-10-20 13:32:57.64,254,-183,-2048,3,21,23,507,556,-49,-531
,174,2023-10-20 13:32:57.65,263,-190,-2041,8,21,19,764,782,-18,-773
,175,2023-10-20 13:32:57.66,262,-193,-2044,12,17,19,510,558,-48,-534
,176,2023-10-20 13:32:57.67,268,-187,-2041,13,18,14,770,781,-11,-775
,177,2023-10-20 13:32:57.68,259,-196,-2049,19,19,14,519,564,-45,-541
,178,2023-10-20 13:32:57.69,260,-196,-2042,21,17,18,784,794,-10,-789
,179,2023-10-20 13:32:57.70,261,-197,-2044,22,18,19,527,572,-45,-549
,180,2023-10-20 13:32:57.71,273,-201,-2041,21,17,22,777,787,-10,-782
,181,2023-10-20 13:32:57.72,264,-201,-2039,19,20,28,515,556,-41,-535
,182,2023-10-20 13:32:57.73,260,-210,-2046,17,22,33,776,783,-7,-779
,183,2023-10-20 13:32:57.74,258,-203,-2042,17,22,36,532,574,-42,-553
,184,2023-10-20 13:32:57.75,259,-205,-2049,15,25,39,765,775,-10,-770
,185,2023-10-20 13:32:57.76,259,-213,-2043,14,24,41,538,580,-42,-559
,186,2023-10-20 13:32:57.77,266,-209,-2040,17,25,45,770,779,-9,-774
,187,2023-10-20 13:32:57.78,257,-202,-2045,16,25,47,538,574,-36,-556
,188,2023-10-20 13:32:57.79,258,-209,-2044,14,24,44,771,777,-6,-774
,189,2023-10-20 13:32:57.80,266,-201,-2031,10,28,45,544,585,-41,-564
,190,2023-10-20 13:32:57.81,260,-204,-2030,10,27,43,775,777,-2,-776
,191,2023-10-20 13:32:57.82,269,-207,-2031,15,24,38,550,592,-42,-571
,192,2023-10-20 13:32:57.83,275,-194,-2030,18,21,30,776,773,3,-774
,193,2023-10-20 13:32:57.84,272,-200,-2029,21,24,21,554,593,-39,-573
,194,2023-10-20 13:32:57.85,282,-187,-2038,20,27,14,769,772,-3,-770
,195,2023-10-20 13:32:57.86,279,-200,-2046,15,28,9,562,595,-33,-578
,196,2023-10-20 13:32:57.87,272,-218,-2054,16,26,6,764,764,0,-764
,197,2023-10-20 13:32:57.88,274,-212,-2063,17,24,6,560,596,-36,-578
,198,2023-10-20 13:32:57.89,273,-215,-2060,19,15,10,763,760,3,-761
,199,2023-10-20 13:32:57.90,274,-216,-2046,17,13,14,567,604,-37,-585
,200,2023-10-20 13:32:57.91,269,-212,-2037,14,9,23,755,755,0,-755
,201,2023-10-20 13:32:57.92,281,-210,-2038,8,13,27,572,610,-38,-591
,202,2023-10-20 13:32:57.93,285,-204,-2032,0,18,34,756,757,-1,-756
,203,2023-10-20 13:32:57.94,276,-203,-2030,-10,19,36,578,615,-37,-596
,204,2023-10-20 13:32:57.95,272,-201,-2033,-17,23,38,757,757,0,-757
,205,2023-10-20 13:32:57.96,278,-197,-2038,-24,24,44,586,623,-37,-604
,206,2023-10-20 13:32:57.97,275,-187,-2032,-26,24,38,753,750,3,-751
,207,2023-10-20 13:32:57.98,263,-169,-2044,-30,24,33,594,630,-36,-612
,208,2023-10-20 13:32:57.99,265,-178,-2051,-42,24,21,750,749,1,-749
,209,2023-10-20 13:32:58.00,271,-186,-2052,-19,12,17,597,631,-34,-614
,210,2023-10-20 13:32:58.01,278,-179,-2039,-8,12,10,743,744,-1,-743
,211,2023-10-20 13:32:58.02,282,-188,-2040,-5,11,10,600,636,-36,-618
,212,2023-10-20 13:32:58.03,277,-187,-2038,0,14,10,741,737,4,-739
,213,2023-10-20 13:32:58.04,268,-194,-2036,3,15,10,605,642,-37,-623
,214,2023-10-20 13:32:58.05,267,-194,-2043,2,18,14,731,733,-2,-732
,215,2023-10-20 13:32:58.06,269,-195,-2036,4,22,19,613,641,-28,-627
,216,2023-10-20 13:32:58.07,264,-196,-2037,8,22,19,729,730,-1,-729
,217,2023-10-20 13:32:58.08,280,-196,-2046,9,25,25,616,652,-36,-634
,218,2023-10-20 13:32:58.09,284,-198,-2044,7,28,31,725,722,3,-723
,219,2023-10-20 13:32:58.10,282,-206,-2035,8,30,35,629,665,-36,-647
,220,2023-10-20 13:32:58.11,280,-197,-2043,4,37,38,710,711,-1,-710
,221,2023-10-20 13:32:58.12,282,-193,-2031,4,40,38,625,657,-32,-641
,222,2023-10-20 13:32:58.13,286,-186,-2038,6,38,35,696,696,0,-696
,223,2023-10-20 13:32:58.14,285,-185,-2051,8,36,32,623,659,-36,-641
,224,2023-10-20 13:32:58.15,290,-192,-2048,12,32,26,702,703,-1,-702
,225,2023-10-20 13:32:58.16,282,-199,-2048,16,27,25,636,672,-36,-654
,226,2023-10-20 13:32:58.17,289,-191,-2042,18,25,24,698,700,-2,-699
,227,2023-10-20 13:32:58.18,298,-194,-2036,20,22,22,642,673,-31,-657
,228,2023-10-20 13:32:58.19,292,-195,-2036,18,23,22,693,697,-4,-695
,229,2023-10-20 13:32:58.20,290,-206,-2033,16,21,24,646,677,-31,-661
,230,2023-10-20 13:32:58.21,296,-211,-2039,13,19,28,693,691,2,-692
,231,2023-10-20 13:32:58.22,280,-208,-2037,3,20,33,654,685,-31,-669
,232,2023-10-20 13:32:58.23,284,-201,-2037,-1,21,40,684,686,-2,-685
,233,2023-10-20 13:32:58.24,283,-203,-2049,-9,26,44,659,685,-26,-672
,234,2023-10-20 13:32:58.25,276,-204,-2053,-13,23,53,676,680,-4,-678
,235,2023-10-20 13:32:58.26,272,-192,-2038,-17,24,59,665,690,-25,-677
,236,2023-10-20 13:32:58.27,269,-190,-2050,-22,30,62,678,681,-3,-679
,237,2023-10-20 13:32:58.28,276,-187,-2042,-25,29,62,668,700,-32,-684
,238,2023-10-20 13:32:58.29,282,-183,-2038,-23,30,59,666,669,-3,-667
,239,2023-10-20 13:32:58.30,293,-181,-2042,-21,30,59,670,701,-31,-685
,240,2023-10-20 13:32:58.31,282,-182,-2035,-14,30,54,654,665,-11,-659
,241,2023-10-20 13:32:58.32,281,-177,-2042,-8,31,49,677,707,-30,-692
,242,2023-10-20 13:32:58.33,295,-177,-2037,-2,28,42,655,664,-9,-659
,243,2023-10-20 13:32:58.34,295,-186,-2044,5,27,37,679,709,-30,-694
,244,2023-10-20 13:32:58.35,289,-195,-2039,12,24,35,650,660,-10,-655
,245,2023-10-20 13:32:58.36,288,-188,-2041,19,22,34,689,719,-30,-704
,246,2023-10-20 13:32:58.37,288,-191,-2037,20,24,31,641,651,-10,-646
,247,2023-10-20 13:32:58.38,292,-196,-2041,25,24,31,694,722,-28,-708
,248,2023-10-20 13:32:58.39,284,-200,-2043,22,22,32,636,644,-8,-640
,249,2023-10-20 13:32:58.40,290,-197,-2040,20,24,31,697,725,-28,-711
,250,2023-10-20 13:32:58.41,286,-192,-2036,18,26,31,630,641,-11,-635
,251,2023-10-20 13:32:58.42,290,-191,-2029,16,25,29,704,731,-27,-717
,252,2023-10-20 13:32:58.43,294,-185,-2036,11,28,24,630,641,-11,-635
,253,2023-10-20 13:32:58.44,296,-191,-2030,10,32,22,708,735,-27,-721
,254,2023-10-20 13:32:58.45,311,-187,-2034,8,33,20,616,626,-10,-621
,255,2023-10-20 13:32:58.46,304,-185,-2034,4,31,20,709,733,-24,-721
,256,2023-10-20 13:32:58.47,301,-189,-2039,2,32,16,613,626,-13,-619
,257,2023-10-20 13:32:58.48,306,-174,-2034,-4,29,16,721,740,-19,-730
,258,2023-10-20 13:32:58.49,302,-183,-2034,-4,29,15,616,631,-15,-623
,259,2023-10-20 13:32:58.50,307,-174,-2038,-1,27,10,722,747,-25,-734
,260,2023-10-20 13:32:58.51,317,-175,-2043,-3,27,6,620,632,-12,-626
,261,2023-10-20 13:32:58.52,296,-191,-2047,-1,21,6,732,752,-20,-742
,262,2023-10-20 13:32:58.53,311,-190,-2048,1,21,11,608,624,-16,-616
,263,2023-10-20 13:32:58.54,305,-194,-2045,3,23,15,727,742,-15,-734
,264,2023-10-20 13:32:58.55,299,-187,-2031,1,26,20,602,618,-16,-610
,265,2023-10-20 13:32:58.56,300,-190,-2039,3,26,24,732,756,-24,-744
,266,2023-10-20 13:32:58.57,304,-186,-2029,-4,28,32,594,609,-15,-601
,267,2023-10-20 13:32:58.58,292,-173,-2022,-6,33,34,738,755,-17,-746
,268,2023-10-20 13:32:58.59,295,-184,-2039,-6,28,28,583,602,-19,-592
,269,2023-10-20 13:32:58.60,309,-171,-2036,2,28,27,741,756,-15,-748
,270,2023-10-20 13:32:58.61,306,-169,-2033,9,30,21,578,599,-21,-588
,271,2023-10-20 13:32:58.62,317,-170,-2037,5,32,16,744,764,-20,-754
,272,2023-10-20 13:32:58.63,313,-190,-2042,8,36,16,584,599,-15,-591
,273,2023-10-20 13:32:58.64,321,-189,-2053,16,35,21,754,775,-21,-764
,274,2023-10-20 13:32:58.65,320,-196,-2049,23,28,20,577,600,-23,-588
,275,2023-10-20 13:32:58.66,319,-181,-2054,28,23,22,754,772,-18,-763
,276,2023-10-20 13:32:58.67,314,-178,-2047,32,13,21,576,598,-22,-587
,277,2023-10-20 13:32:58.68,308,-177,-2049,37,5,15,760,780,-20,-770
,278,2023-10-20 13:32:58.69,316,-184,-2042,37,1,15,569,591,-22,-580
,279,2023-10-20 13:32:58.70,314,-180,-2035,28,-1,13,765,782,-17,-773
,280,2023-10-20 13:32:58.71,297,-190,-2034,24,-2,17,565,588,-23,-576
,281,2023-10-20 13:32:58.72,304,-198,-2035,17,-5,21,764,776,-12,-770
,282,2023-10-20 13:32:58.73,305,-193,-2033,9,1,24,560,584,-24,-572
,283,2023-10-20 13:32:58.74,295,-194,-2032,4,1,29,766,783,-17,-774
,284,2023-10-20 13:32:58.75,295,-189,-2032,1,5,33,555,577,-22,-566
,285,2023-10-20 13:32:58.76,293,-183,-2037,3,5,30,771,787,-16,-779
,286,2023-10-20 13:32:58.77,292,-175,-2032,5,6,28,556,581,-25,-568
,287,2023-10-20 13:32:58.78,303,-192,-2043,6,11,23,772,788,-16,-780
,288,2023-10-20 13:32:58.79,293,-191,-2039,6,6,25,558,582,-24,-570
,289,2023-10-20 13:32:58.80,296,-181,-2033,13,5,28,781,793,-12,-787
,290,2023-10-20 13:32:58.81,303,-184,-2036,13,6,27,708,720,-12,-714
,291,2023-10-20 13:32:58.82,299,-181,-2043,11,7,31,1345,1328,17,-1336
,292,2023-10-20 13:32:58.83,303,-177,-2043,13,8,29,2047,2026,21,-2036
,293,2023-10-20 13:32:58.84,290,-186,-2042,11,8,30,2047,2032,15,-2039
,294,2023-10-20 13:32:58.85,295,-186,-2039,11,9,29,2047,2034,13,-2040
,295,2023-10-20 13:32:58.86,298,-186,-2036,15,8,27,2047,2032,15,-2039
,296,2023-10-20 13:32:58.87,301,-190,-2038,20,11,27,2047,2033,14,-2040
,297,2023-10-20 13:32:58.88,304,-189,-2036,23,12,26,2047,2033,14,-2040
,298,2023-10-20 13:32:58.89,300,-186,-2023,24,19,23,2047,2030,17,-2038
,299,2023-10-20 13:32:58.90,305,-191,-2031,25,23,19,2047,2020,27,-2033
,300,2023-10-20 13:32:58.91,315,-208,-2038,27,29,21,2047,2031,16,-2039
,301,2023-10-20 13:32:58.92,291,-207,-2046,32,31,26,2047,2044,3,-2045
,302,2023-10-20 13:32:58.93,301,-219,-2047,38,29,34,2047,2030,17,-2038
,303,2023-10-20 13:32:58.94,315,-217,-2048,43,26,42,2047,2033,14,-2040
,304,2023-10-20 13:32:58.95,301,-223,-2048,42,24,51,2047,2005,42,-2026
,305,2023-10-20 13:32:58.96,302,-211,-2036,43,20,56,2047,1858,189,-1952
,306,2023-10-20 13:32:58.97,304,-223,-2033,44,21,61,2047,762,1285,-1404
,307,2023-10-20 13:32:58.98,304,-226,-2033,42,20,68,2047,228,1819,-1137
,308,2023-10-20 13:32:58.99,307,-194,-2028,41,24,69,-1037,-220,-817,628
,309,2023-10-20 13:32:59.00,310,-215,-2021,35,28,72,-1724,-622,-1102,1173
,310,2023-10-20 13:32:59.01,308,-223,-2032,28,30,75,-1135,-729,-406,932
,311,2023-10-20 13:32:59.02,318,-215,-2024,27,32,75,-848,-954,106,901
,312,2023-10-20 13:32:59.03,316,-215,-2017,29,33,72,-718,-910,192,814
,313,2023-10-20 13:32:59.04,313,-198,-2026,32,37,65,-999,-1049,50,1024
,314,2023-10-20 13:32:59.05,326,-212,-2039,33,30,63,-1005,-964,-41,984
,315,2023-10-20 13:32:59.06,315,-221,-2045,34,29,59,-1158,-1077,-81,1117
,316,2023-10-20 13:32:59.07,315,-226,-2047,38,22,58,-1047,-981,-66,1014
,317,2023-10-20 13:32:59.08,305,-231,-2053,40,12,58,-1160,-1053,-107,1106
,318,2023-10-20 13:32:59.09,309,-240,-2047,41,5,68,-1063,-938,-125,1000
,319,2023-10-20 13:32:59.10,312,-227,-2042,37,-1,78,-1191,-938,-253,1064
,320,2023-10-20 13:32:59.11,312,-229,-2031,32,-7,83,-1100,-820,-280,960
,321,2023-10-20 13:32:59.12,308,-216,-2033,18,-7,91,-1218,-755,-463,986
,322,2023-10-20 13:32:59.13,304,-198,-2039,3,0,95,-1115,-660,-455,887
,323,2023-10-20 13:32:59.14,312,-188,-2030,-7,3,91,-1182,-555,-627,868
,324,2023-10-20 13:32:59.15,301,-190,-2043,-16,13,84,-1059,-490,-569,774
,325,2023-10-20 13:32:59.16,302,-204,-2041,-19,11,79,-1036,-340,-696,688
,326,2023-10-20 13:32:59.17,313,-191,-2045,-9,10,70,-910,-309,-601,609
,327,2023-10-20 13:32:59.18,309,-193,-2037,-4,9,57,-803,-115,-688,459
,328,2023-10-20 13:32:59.19,322,-194,-2047,4,9,52,-699,-122,-577,410
,329,2023-10-20 13:32:59.20,322,-206,-2037,12,6,49,-536,91,-627,222
,330,2023-10-20 13:32:59.21,327,-205,-2039,18,6,51,-482,23,-505,229
,331,2023-10-20 13:32:59.22,327,-219,-2036,27,8,52,-278,239,-517,19
,332,2023-10-20 13:32:59.23,321,-214,-2034,33,11,60,-272,134,-406,69
,333,2023-10-20 13:32:59.24,339,-225,-2051,39,3,71,-26,350,-376,-162
,334,2023-10-20 13:32:59.25,318,-205,-2037,40,6,83,-79,216,-295,-68
,335,2023-10-20 13:32:59.26,315,-208,-2036,52,-10,92,169,436,-267,-302
,336,2023-10-20 13:32:59.27,308,-211,-2037,56,-10,97,50,286,-236,-168
,337,2023-10-20 13:32:59.28,321,-213,-2028,62,-13,107,294,502,-208,-398
,338,2023-10-20 13:32:59.29,320,-249,-2036,66,-23,122,144,349,-205,-246
,339,2023-10-20 13:32:59.30,288,-213,-2037,73,-40,130,395,564,-169,-479
,340,2023-10-20 13:32:59.31,300,-213,-2012,81,-48,132,223,396,-173,-309
,341,2023-10-20 13:32:59.32,304,-199,-2027,74,-42,129,470,604,-134,-537
,342,2023-10-20 13:32:59.33,300,-201,-2030,72,-38,133,298,448,-150,-373
,343,2023-10-20 13:32:59.34,273,-218,-2052,70,-32,133,524,636,-112,-580
,344,2023-10-20 13:32:59.35,280,-217,-2021,70,-38,133,337,462,-125,-399
,345,2023-10-20 13:32:59.36,282,-223,-2013,68,-26,138,569,654,-85,-611
,346,2023-10-20 13:32:59.37,282,-237,-2026,66,-17,145,375,490,-115,-432
,347,2023-10-20 13:32:59.38,301,-214,-2031,71,-20,147,611,685,-74,-648
,348,2023-10-20 13:32:59.39,303,-229,-2036,75,1,144,413,515,-102,-464
,349,2023-10-20 13:32:59.40,303,-230,-2059,69,11,143,644,707,-63,-675
,350,2023-10-20 13:32:59.41,302,-238,-2037,62,25,152,448,536,-88,-492
,351,2023-10-20 13:32:59.42,317,-194,-2039,75,21,145,667,716,-49,-691
,352,2023-10-20 13:32:59.43,301,-232,-2049,82,26,135,471,553,-82,-512
,353,2023-10-20 13:32:59.44,294,-228,-2040,88,9,135,681,721,-40,-701
,354,2023-10-20 13:32:59.45,304,-237,-2045,83,20,134,498,564,-66,-531
,355,2023-10-20 13:32:59.46,316,-275,-2064,90,14,132,706,733,-27,-719
,356,2023-10-20 13:32:59.47,305,-220,-2035,95,-1,142,520,586,-66,-553
,357,2023-10-20 13:32:59.48,295,-236,-2016,106,-3,142,717,738,-21,-727
,358,2023-10-20 13:32:59.49,295,-249,-2032,107,-8,147,540,597,-57,-568
,359,2023-10-20 13:32:59.50,300,-263,-2030,106,-12,154,727,750,-23,-738
,360,2023-10-20 13:32:59.51,307,-267,-2002,106,-16,164,553,606,-53,-579
,361,2023-10-20 13:32:59.52,314,-261,-2000,105,-11,173,735,746,-11,-740
,362,2023-10-20 13:32:59.53,312,-246,-1975,102,-4,175,566,619,-53,-592
,363,2023-10-20 13:32:59.54,308,-258,-2011,103,3,179,737,753,-16,-745
,364,2023-10-20 13:32:59.55,313,-223,-1997,92,12,177,578,629,-51,-603
,365,2023-10-20 13:32:59.56,321,-231,-2010,92,17,165,741,748,-7,-744
,366,2023-10-20 13:32:59.57,307,-233,-2034,91,19,151,588,634,-46,-611
,367,2023-10-20 13:32:59.58,305,-230,-2032,85,17,142,742,752,-10,-747
,368,2023-10-20 13:32:59.59,322,-229,-2034,75,13,127,602,646,-44,-624
,369,2023-10-20 13:32:59.60,306,-241,-2048,69,24,111,739,749,-10,-744
,370,2023-10-20 13:32:59.61,330,-255,-2045,59,10,96,611,649,-38,-630
,371,2023-10-20 13:32:59.62,303,-242,-2032,58,20,89,746,747,-1,-746
,372,2023-10-20 13:32:59.63,296,-256,-2067,56,6,70,621,660,-39,-640
,373,2023-10-20 13:32:59.64,316,-257,-2054,28,-2,71,739,745,-6,-742
,374,2023-10-20 13:32:59.65,314,-290,-2048,15,2,78,630,663,-33,-646
,375,2023-10-20 13:32:59.66,311,-273,-2046,6,2,74,740,744,-4,-742
,376,2023-10-20 13:32:59.67,305,-269,-2040,2,1,73,636,671,-35,-653
,377,2023-10-20 13:32:59.68,314,-254,-2040,-7,-9,71,735,737,-2,-736
,378,2023-10-20 13:32:59.69,318,-272,-2037,-20,-8,64,645,676,-31,-660
,379,2023-10-20 13:32:59.70,303,-257,-2045,-34,2,62,730,735,-5,-732
,380,2023-10-20 13:32:59.71,297,-251,-2032,-26,2,52,644,681,-37,-662
,381,2023-10-20 13:32:59.72,294,-248,-2039,-31,-6,42,726,729,-3,-727
,382,2023-10-20 13:32:59.73,284,-253,-2031,-34,-12,37,653,689,-36,-671
,383,2023-10-20 13:32:59.74,286,-242,-2038,-50,-15,21,732,740,-8,-736
,384,2023-10-20 13:32:59.75,293,-237,-2028,-45,-15,9,657,690,-33,-673
,385,2023-10-20 13:32:59.76,291,-241,-2029,-27,-18,-1,715,722,-7,-718
,386,2023-10-20 13:32:59.77,297,-246,-2012,-26,-22,-3,659,687,-28,-673
,387,2023-10-20 13:32:59.78,302,-276,-2031,-27,-27,0,712,717,-5,-714
,388,2023-10-20 13:32:59.79,292,-295,-2027,-19,-31,9,678,702,-24,-690
,389,2023-10-20 13:32:59.80,305,-267,-2023,-22,-30,12,701,708,-7,-704
,390,2023-10-20 13:32:59.81,295,-257,-2037,-10,-29,8,675,708,-33,-691
,391,2023-10-20 13:32:59.82,322,-254,-2029,-2,-35,10,701,705,-4,-703
,392,2023-10-20 13:32:59.83,302,-259,-2037,-10,-32,15,683,713,-30,-698
,393,2023-10-20 13:32:59.84,296,-268,-2048,-2,-37,27,692,706,-14,-699
,394,2023-10-20 13:32:59.85,283,-272,-2052,5,-39,31,682,718,-36,-700
,395,2023-10-20 13:32:59.86,286,-284,-2061,0,-43,41,682,699,-17,-690
,396,2023-10-20 13:32:59.87,282,-286,-2063,-1,-47,55,688,722,-34,-705
,397,2023-10-20 13:32:59.88,270,-286,-2060,6,-52,66,679,690,-11,-684
,398,2023-10-20 13:32:59.89,269,-260,-2038,11,-59,72,698,723,-25,-710
,399,2023-10-20 13:32:59.90,275,-256,-2026,9,-60,76,673,686,-13,-679
,400,2023-10-20 13:32:59.91,273,-248,-2025,9,-58,68,696,725,-29,-710
,401,2023-10-20 13:32:59.92,285,-241,-2013,3,-57,65,663,673,-10,-668
,402,2023-10-20 13:32:59.93,269,-242,-2022,-5,-54,63,700,728,-28,-714
,403,2023-10-20 13:32:59.94,262,-224,-1991,-15,-59,62,654,670,-16,-662
,404,2023-10-20 13:32:59.95,259,-267,-2060,-34,-32,47,702,728,-26,-715
,405,2023-10-20 13:32:59.96,262,-251,-2018,-3,-49,44,654,661,-7,-657
,406,2023-10-20 13:32:59.97,249,-250,-2035,9,-56,40,710,736,-26,-723
,407,2023-10-20 13:32:59.98,260,-252,-2039,8,-56,40,644,659,-15,-651
,408,2023-10-20 13:32:59.99,248,-251,-2043,10,-61,38,714,739,-25,-726
,409,2023-10-20 13:33:00.00,242,-252,-2026,7,-60,38,645,659,-14,-652
,410,2023-10-20 13:33:00.01,239,-259,-2040,4,-59,38,723,745,-22,-734
,411,2023-10-20 13:33:00.02,255,-258,-2042,-3,-56,45,640,652,-12,-646
,412,2023-10-20 13:33:00.03,249,-251,-2031,-5,-57,42,733,749,-16,-741
,413,2023-10-20 13:33:00.04,250,-246,-2019,-7,-46,38,635,648,-13,-641
,414,2023-10-20 13:33:00.05,247,-253,-2022,-12,-38,31,735,753,-18,-744
,415,2023-10-20 13:33:00.06,246,-263,-2028,-8,-30,26,636,642,-6,-639
,416,2023-10-20 13:33:00.07,254,-263,-2031,9,-14,14,744,763,-19,-753
,417,2023-10-20 13:33:00.08,244,-274,-2028,19,-8,10,631,645,-14,-638
,418,2023-10-20 13:33:00.09,258,-276,-2018,24,-2,9,752,763,-11,-757
,419,2023-10-20 13:33:00.10,259,-301,-2042,36,-4,7,621,638,-17,-629
,420,2023-10-20 13:33:00.11,254,-297,-2025,49,-2,14,753,769,-16,-761
,421,2023-10-20 13:33:00.12,260,-288,-2020,59,5,16,616,635,-19,-625
,422,2023-10-20 13:33:00.13,284,-284,-2017,58,14,16,754,767,-13,-760
,423,2023-10-20 13:33:00.14,267,-284,-2036,55,22,18,609,628,-19,-618
,424,2023-10-20 13:33:00.15,261,-283,-2041,50,24,20,767,785,-18,-776
,425,2023-10-20 13:33:00.16,265,-290,-2047,47,24,21,610,629,-19,-619
,426,2023-10-20 13:33:00.17,259,-294,-2045,43,15,26,765,779,-14,-772
,427,2023-10-20 13:33:00.18,261,-288,-2041,37,9,29,602,613,-11,-607
,428,2023-10-20 13:33:00.19,271,-290,-2032,36,-4,33,776,785,-9,-780
,429,2023-10-20 13:33:00.20,271,-288,-2023,38,-9,32,604,621,-17,-612
,430,2023-10-20 13:33:00.21,277,-296,-2028,36,-14,31,765,776,-11,-770
,431,2023-10-20 13:33:00.22,269,-288,-2025,37,-20,31,602,616,-14,-609
,432,2023-10-20 13:33:00.23,274,-282,-2021,35,-22,29,779,792,-13,-785
,433,2023-10-20 13:33:00.24,274,-289,-2025,31,-22,33,592,613,-21,-602
,434,2023-10-20 13:33:00.25,264,-285,-2022,26,-23,33,777,787,-10,-782
,435,2023-10-20 13:33:00.26,262,-274,-2024,20,-21,35,588,609,-21,-598
,436,2023-10-20 13:33:00.27,266,-275,-2022,9,-17,34,784,796,-12,-790
,437,2023-10-20 13:33:00.28,254,-272,-2035,3,-24,35,586,607,-21,-596
,438,2023-10-20 13:33:00.29,253,-261,-2035,-4,-25,40,790,800,-10,-795
,439,2023-10-20 13:33:00.30,243,-264,-2041,-11,-28,39,585,606,-21,-595
,440,2023-10-20 13:33:00.31,241,-262,-2050,-16,-34,37,790,798,-8,-794
,441,2023-10-20 13:33:00.32,241,-263,-2042,-21,-39,42,583,605,-22,-594
,442,2023-10-20 13:33:00.33,255,-261,-2059,-28,-41,42,796,806,-10,-801
,443,2023-10-20 13:33:00.34,249,-262,-2046,-33,-43,43,574,598,-24,-586
,444,2023-10-20 13:33:00.35,241,-259,-2042,-41,-38,47,800,806,-6,-803
,445,2023-10-20 13:33:00.36,231,-253,-2037,-52,-34,48,578,599,-21,-588
,446,2023-10-20 13:33:00.37,247,-256,-2034,-52,-37,53,804,812,-8,-808
,447,2023-10-20 13:33:00.38,238,-260,-2048,-46,-33,56,575,596,-21,-585
,448,2023-10-20 13:33:00.39,242,-236,-2030,-47,-31,58,805,812,-7,-808
,449,2023-10-20 13:33:00.40,242,-251,-2039,-39,-32,56,569,592,-23,-580
,450,2023-10-20 13:33:00.41,241,-238,-2042,-37,-26,50,804,810,-6,-807
,451,2023-10-20 13:33:00.42,254,-223,-2049,-38,-21,47,570,592,-22,-581
,452,2023-10-20 13:33:00.43,248,-223,-2050,-32,-23,37,812,816,-4,-814
,453,2023-10-20 13:33:00.44,236,-232,-2057,-17,-33,34,568,590,-22,-579
,454,2023-10-20 13:33:00.45,241,-248,-2058,-6,-39,30,820,820,0,-820
,455,2023-10-20 13:33:00.46,244,-244,-2044,4,-43,29,571,595,-24,-583
,456,2023-10-20 13:33:00.47,246,-246,-2042,15,-48,28,820,821,-1,-820
,457,2023-10-20 13:33:00.48,246,-252,-2028,20,-48,34,570,588,-18,-579
,458,2023-10-20 13:33:00.49,244,-255,-2032,28,-51,32,822,823,-1,-822
,459,2023-10-20 13:33:00.50,245,-257,-2035,33,-51,35,560,586,-26,-573
,460,2023-10-20 13:33:00.51,255,-259,-2028,36,-49,38,820,823,-3,-821
,461,2023-10-20 13:33:00.52,239,-248,-2021,37,-45,43,565,587,-22,-576
,462,2023-10-20 13:33:00.53,249,-253,-2038,37,-36,49,820,820,0,-820
,463,2023-10-20 13:33:00.54,231,-253,-2034,35,-36,46,555,580,-25,-567
,464,2023-10-20 13:33:00.55,237,-255,-2032,38,-38,47,824,818,6,-821
,465,2023-10-20 13:33:00.56,221,-248,-2034,40,-42,48,567,596,-29,-581
,466,2023-10-20 13:33:00.57,223,-262,-2042,44,-49,48,825,828,-3,-826
,467,2023-10-20 13:33:00.58,229,-261,-2041,49,-48,48,561,588,-27,-574
,468,2023-10-20 13:33:00.59,220,-255,-2036,49,-48,47,829,825,4,-827
,469,2023-10-20 13:33:00.60,228,-252,-2036,49,-50,45,557,583,-26,-570
,470,2023-10-20 13:33:00.61,229,-255,-2043,47,-54,44,829,820,9,-824
,471,2023-10-20 13:33:00.62,217,-253,-2029,46,-55,42,552,578,-26,-565
,472,2023-10-20 13:33:00.63,213,-257,-2053,44,-56,40,829,829,0,-829
,473,2023-10-20 13:33:00.64,225,-252,-2051,36,-58,38,561,586,-25,-573
,474,2023-10-20 13:33:00.65,216,-253,-2046,30,-62,35,833,834,-1,-833
,475,2023-10-20 13:33:00.66,206,-253,-2045,25,-66,28,556,585,-29,-570
,476,2023-10-20 13:33:00.67,224,-259,-2035,17,-67,23,834,833,1,-833
,477,2023-10-20 13:33:00.68,197,-250,-2028,13,-70,20,559,588,-29,-573
,478,2023-10-20 13:33:00.69,208,-256,-2038,4,-67,16,837,832,5,-834
,479,2023-10-20 13:33:00.70,222,-260,-2028,4,-63,15,559,586,-27,-572
,480,2023-10-20 13:33:00.71,208,-260,-2024,6,-61,13,830,825,5,-827
,481,2023-10-20 13:33:00.72,202,-266,-2047,1,-54,11,564,590,-26,-577
,482,2023-10-20 13:33:00.73,197,-270,-2038,-7,-50,13,832,828,4,-830
,483,2023-10-20 13:33:00.74,201,-276,-2038,-5,-50,18,560,587,-27,-573
,484,2023-10-20 13:33:00.75,201,-268,-2029,-3,-49,18,836,825,11,-830
,485,2023-10-20 13:33:00.76,192,-270,-2047,1,-56,24,565,593,-28,-579
,486,2023-10-20 13:33:00.77,210,-266,-2045,-7,-55,29,832,828,4,-830
,487,2023-10-20 13:33:00.78,194,-260,-2044,7,-56,30,568,590,-22,-579
,488,2023-10-20 13:33:00.79,212,-255,-2042,6,-61,29,832,827,5,-829
,489,2023-10-20 13:33:00.80,219,-270,-1966,4,-44,41,567,595,-28,-581
,490,2023-10-20 13:33:00.81,187,-300,-2071,23,-22,65,836,823,13,-829
,491,2023-10-20 13:33:00.82,176,-250,-2047,31,-46,59,573,599,-26,-586
,492,2023-10-20 13:33:00.83,148,-214,-2084,69,-78,17,835,826,9,-830
,493,2023-10-20 13:33:00.84,179,-192,-2060,66,-112,-25,579,601,-22,-590
,494,2023-10-20 13:33:00.85,199,-248,-2048,39,-113,-36,832,827,5,-829
,495,2023-10-20 13:33:00.86,185,-306,-2035,17,-103,-31,575,603,-28,-589
,496,2023-10-20 13:33:00.87,178,-320,-2034,17,-71,-29,829,822,7,-825
,497,2023-10-20 13:33:00.88,188,-333,-2023,37,-71,-19,584,611,-27,-597
,498,2023-10-20 13:33:00.89,196,-321,-2011,54,-63,-7,832,823,9,-827
,499,2023-10-20 13:33:00.90,189,-302,-2016,52,-46,7,584,610,-26,-597
,500,2023-10-20 13:33:00.91,161,-259,-2027,39,-32,2,832,824,8,-828
,501,2023-10-20 13:33:00.92,178,-303,-2046,35,-35,7,588,614,-26,-601
,502,2023-10-20 13:33:00.93,173,-276,-2052,38,-42,6,828,817,11,-822
,503,2023-10-20 13:33:00.94,177,-271,-2042,43,-53,-7,595,618,-23,-606
,504,2023-10-20 13:33:00.95,194,-298,-2021,31,-69,-11,824,813,11,-818
,505,2023-10-20 13:33:00.96,202,-323,-2008,14,-51,-6,593,618,-25,-605
,506,2023-10-20 13:33:00.97,193,-319,-2011,21,-34,6,828,821,7,-824
,507,2023-10-20 13:33:00.98,183,-342,-2028,51,-49,13,597,625,-28,-611
,508,2023-10-20 13:33:00.99,185,-327,-2030,57,-60,35,818,810,8,-814
,509,2023-10-20 13:33:01.00,171,-307,-2042,52,-66,49,609,627,-18,-618
,510,2023-10-20 13:33:01.01,171,-271,-2035,31,-59,48,814,808,6,-811
,511,2023-10-20 13:33:01.02,170,-296,-2036,18,-62,45,605,632,-27,-618
,512,2023-10-20 13:33:01.03,171,-270,-2029,-8,-57,46,810,799,11,-804
,513,2023-10-20 13:33:01.04,157,-267,-2037,5,-54,25,612,642,-30,-627
,514,2023-10-20 13:33:01.05,160,-272,-2034,6,-62,13,810,806,4,-808
,515,2023-10-20 13:33:01.06,158,-258,-2034,-7,-56,0,605,633,-28,-619
,516,2023-10-20 13:33:01.07,156,-292,-2037,-10,-53,-3,800,801,-1,-800
,517,2023-10-20 13:33:01.08,149,-288,-2027,-14,-49,-5,613,647,-34,-630
,518,2023-10-20 13:33:01.09,137,-300,-2046,-33,-35,0,794,791,3,-792
,519,2023-10-20 13:33:01.10,132,-309,-2054,-5,-44,15,616,651,-35,-633
,520,2023-10-20 13:33:01.11,149,-304,-2050,2,-45,26,790,787,3,-788
,521,2023-10-20 13:33:01.12,128,-298,-2043,5,-42,34,622,657,-35,-639
,522,2023-10-20 13:33:01.13,142,-279,-2049,12,-42,40,779,782,-3,-780
,523,2023-10-20 13:33:01.14,145,-268,-2018,4,-38,43,622,652,-30,-637
,524,2023-10-20 13:33:01.15,152,-282,-2041,-3,-27,40,775,775,0,-775
,525,2023-10-20 13:33:01.16,146,-275,-2052,4,-28,44,625,658,-33,-641
,526,2023-10-20 13:33:01.17,133,-263,-2057,12,-36,36,764,765,-1,-764
,527,2023-10-20 13:33:01.18,138,-267,-2040,14,-36,23,630,656,-26,-643
,528,2023-10-20 13:33:01.19,145,-274,-2038,15,-33,19,759,764,-5,-761
,529,2023-10-20 13:33:01.20,137,-252,-2036,14,-26,13,628,662,-34,-645
,530,2023-10-20 13:33:01.21,141,-318,-2041,19,-29,16,755,753,2,-754
,531,2023-10-20 13:33:01.22,130,-314,-2037,26,-33,28,636,665,-29,-650
,532,2023-10-20 13:33:01.23,126,-314,-2038,39,-42,39,749,741,8,-745
,533,2023-10-20 13:33:01.24,128,-292,-2045,46,-43,46,644,668,-24,-656
,534,2023-10-20 13:33:01.25,121,-328,-2041,47,-48,60,748,742,6,-745
,535,2023-10-20 13:33:01.26,114,-318,-2052,49,-51,71,652,676,-24,-664
,536,2023-10-20 13:33:01.27,117,-295,-2021,50,-59,76,739,736,3,-737
,537,2023-10-20 13:33:01.28,126,-302,-2024,42,-51,77,656,679,-23,-667
,538,2023-10-20 13:33:01.29,132,-299,-2023,27,-41,82,731,732,-1,-731
,539,2023-10-20 13:33:01.30,109,-278,-2030,15,-30,82,661,682,-21,-671
,540,2023-10-20 13:33:01.31,106,-315,-2025,12,-27,80,733,730,3,-731
,541,2023-10-20 13:33:01.32,107,-300,-2034,11,-21,84,670,690,-20,-680
,542,2023-10-20 13:33:01.33,116,-306,-2032,10,-13,84,724,722,2,-723
,543,2023-10-20 13:33:01.34,109,-311,-2031,4,-4,82,676,697,-21,-686
,544,2023-10-20 13:33:01.35,107,-302,-2015,3,-2,84,718,719,-1,-718
,545,2023-10-20 13:33:01.36,104,-294,-2015,3,2,85,686,706,-20,-696
,546,2023-10-20 13:33:01.37,116,-324,-2033,4,1,88,717,718,-1,-717
,547,2023-10-20 13:33:01.38,104,-305,-2035,1,6,88,693,714,-21,-703
,548,2023-10-20 13:33:01.39,98,-306,-2027,-5,7,94,713,715,-2,-714
,549,2023-10-20 13:33:01.40,99,-285,-2029,-13,5,88,700,719,-19,-709
,550,2023-10-20 13:33:01.41,96,-296,-2038,-24,4,94,716,708,8,-712
,551,2023-10-20 13:33:01.42,96,-289,-2044,-34,12,92,709,725,-16,-717
,552,2023-10-20 13:33:01.43,106,-277,-2040,-40,6,90,708,708,0,-708
,553,2023-10-20 13:33:01.44,99,-288,-2056,-50,10,92,710,717,-7,-713
,554,2023-10-20 13:33:01.45,104,-269,-2050,-57,2,92,704,704,0,-704
,555,2023-10-20 13:33:01.46,102,-273,-2049,-61,3,87,711,725,-14,-718
,556,2023-10-20 13:33:01.47,99,-274,-2047,-63,-3,89,684,680,4,-682
,557,2023-10-20 13:33:01.48,95,-268,-2036,-66,-3,91,707,720,-13,-713
,558,2023-10-20 13:33:01.49,94,-271,-2039,-64,-1,92,672,676,-4,-674
,559,2023-10-20 13:33:01.50,88,-276,-2038,-60,-5,94,719,729,-10,-724
,560,2023-10-20 13:33:01.51,90,-267,-2035,-57,-2,96,677,684,-7,-680
,561,2023-10-20 13:33:01.52,106,-270,-2046,-52,-3,96,727,742,-15,-734
,562,2023-10-20 13:33:01.53,96,-259,-2052,-48,-3,95,674,672,2,-673
,563,2023-10-20 13:33:01.54,108,-257,-2037,-47,-1,93,750,755,-5,-752
,564,2023-10-20 13:33:01.55,100,-266,-2044,-42,4,89,684,680,4,-682
,565,2023-10-20 13:33:01.56,116,-255,-2052,-41,6,88,751,751,0,-751
,566,2023-10-20 13:33:01.57,107,-269,-2055,-35,6,89,668,668,0,-668
,567,2023-10-20 13:33:01.58,109,-282,-2048,-27,5,90,745,752,-7,-748
,568,2023-10-20 13:33:01.59,108,-276,-2050,-14,8,93,656,652,4,-654
,569,2023-10-20 13:33:01.60,124,-270,-2044,-9,13,96,745,752,-7,-748
,570,2023-10-20 13:33:01.61,113,-277,-2054,-3,21,96,640,640,0,-640
,571,2023-10-20 13:33:01.62,123,-268,-2052,-1,22,94,726,730,-4,-728
,572,2023-10-20 13:33:01.63,121,-284,-2054,5,31,92,618,626,-8,-622
,573,2023-10-20 13:33:01.64,129,-280,-2036,11,35,95,755,754,1,-754
,574,2023-10-20 13:33:01.65,131,-278,-2039,13,43,97,649,643,6,-646
,575,2023-10-20 13:33:01.66,126,-304,-2036,20,47,95,772,772,0,-772
,576,2023-10-20 13:33:01.67,137,-301,-2035,32,52,100,641,637,4,-639
,577,2023-10-20 13:33:01.68,138,-305,-2038,49,50,104,779,771,8,-775
,578,2023-10-20 13:33:01.69,149,-274,-2026,44,63,106,636,638,-2,-637
,579,2023-10-20 13:33:01.70,140,-285,-2047,38,75,110,787,779,8,-783
,580,2023-10-20 13:33:01.71,136,-285,-2049,32,68,118,638,640,-2,-639
,581,2023-10-20 13:33:01.72,136,-279,-2047,28,62,132,789,787,2,-788
,582,2023-10-20 13:33:01.73,133,-248,-2033,15,53,130,628,630,-2,-629
,583,2023-10-20 13:33:01.74,120,-253,-2053,-12,39,133,791,791,0,-791
,584,2023-10-20 13:33:01.75,152,-243,-2037,-35,15,144,619,629,-10,-624
,585,2023-10-20 13:33:01.76,123,-255,-2010,-48,21,150,794,790,4,-792
,586,2023-10-20 13:33:01.77,107,-209,-2016,-61,24,151,612,625,-13,-618
,587,2023-10-20 13:33:01.78,97,-200,-2038,-88,3,139,784,790,-6,-787
,588,2023-10-20 13:33:01.79,123,-181,-2032,-111,-29,128,600,625,-25,-612
,589,2023-10-20 13:33:01.80,124,-203,-2033,-131,-28,114,786,792,-6,-789
,590,2023-10-20 13:33:01.81,123,-198,-2029,-144,-21,100,600,617,-17,-608
,591,2023-10-20 13:33:01.82,130,-216,-2017,-148,-24,92,799,796,3,-797
,592,2023-10-20 13:33:01.83,132,-218,-2038,-152,-16,95,598,615,-17,-606
,593,2023-10-20 13:33:01.84,131,-236,-2063,-148,-9,103,797,802,-5,-799
,594,2023-10-20 13:33:01.85,131,-224,-2074,-150,-1,108,586,604,-18,-595
,595,2023-10-20 13:33:01.86,154,-205,-2077,-141,-9,108,798,801,-3,-799
,596,2023-10-20 13:33:01.87,162,-197,-2055,-141,-1,106,587,603,-16,-595
,597,2023-10-20 13:33:01.88,172,-201,-2086,-132,10,101,803,804,-1,-803
,598,2023-10-20 13:33:01.89,156,-180,-2067,-115,13,88,580,599,-19,-589
,599,2023-10-20 13:33:01.90,160,-184,-2051,-91,22,68,801,800,1,-800
,600,2023-10-20 13:33:01.91,174,-181,-2046,-71,37,51,577,597,-20,-587
,601,2023-10-20 13:33:01.92,157,-159,-2044,-73,39,36,798,799,-1,-798
,602,2023-10-20 13:33:01.93,151,-233,-2075,-59,44,28,568,589,-21,-578
,603,2023-10-20 13:33:01.94,127,-219,-2058,-22,32,33,802,806,-4,-804
,604,2023-10-20 13:33:01.95,131,-237,-2055,2,26,37,565,589,-24,-577
,605,2023-10-20 13:33:01.96,118,-215,-2041,8,14,49,800,805,-5,-802
,606,2023-10-20 13:33:01.97,131,-195,-2038,9,17,58,563,588,-25,-575
,607,2023-10-20 13:33:01.98,121,-202,-2053,13,-2,54,803,806,-3,-804
,608,2023-10-20 13:33:01.99,125,-188,-2047,9,-13,50,565,588,-23,-576
,609,2023-10-20 13:33:02.00,121,-193,-2057,3,-13,39,813,817,-4,-815
,610,2023-10-20 13:33:02.01,124,-169,-2064,1,-23,28,560,586,-26,-573
,611,2023-10-20 13:33:02.02,111,-169,-2087,1,-43,1,806,809,-3,-807
,612,2023-10-20 13:33:02.03,124,-170,-2052,10,-63,-26,558,582,-24,-570
,613,2023-10-20 13:33:02.04,123,-192,-2042,22,-69,-46,809,810,-1,-809
,614,2023-10-20 13:33:02.05,132,-203,-2078,35,-80,-55,558,578,-20,-568
,615,2023-10-20 13:33:02.06,120,-210,-2077,33,-80,-56,812,817,-5,-814
,616,2023-10-20 13:33:02.07,136,-214,-2091,33,-76,-50,552,581,-29,-566
,617,2023-10-20 13:33:02.08,133,-220,-2093,19,-72,-44,820,817,3,-818
,618,2023-10-20 13:33:02.09,126,-225,-2088,2,-67,-32,557,585,-28,-571
,619,2023-10-20 13:33:02.10,135,-234,-2073,-7,-63,-14,821,818,3,-819
,620,2023-10-20 13:33:02.11,140,-222,-2063,-8,-60,-4,558,586,-28,-572
,621,2023-10-20 13:33:02.12,124,-207,-2043,-11,-57,4,822,823,-1,-822
,622,2023-10-20 13:33:02.13,117,-209,-2051,-11,-51,7,556,578,-22,-567
,623,2023-10-20 13:33:02.14,122,-198,-2033,-7,-61,6,819,822,-3,-820
,624,2023-10-20 13:33:02.15,116,-183,-2012,-4,-65,-1,548,579,-31,-563
,625,2023-10-20 13:33:02.16,110,-156,-2011,-10,-57,-18,822,818,4,-820
,626,2023-10-20 13:33:02.17,128,-184,-1994,-15,-46,-27,551,575,-24,-563
,627,2023-10-20 13:33:02.18,106,-188,-2006,-1,-34,-28,816,815,1,-815
,628,2023-10-20 13:33:02.19,118,-185,-2021,4,-25,-27,548,570,-22,-559
,629,2023-10-20 13:33:02.20,112,-192,-2035,-3,-17,-35,808,814,-6,-811
,630,2023-10-20 13:33:02.21,106,-224,-2057,5,-25,-17,542,566,-24,-554
,631,2023-10-20 13:33:02.22,98,-219,-2077,15,-43,-1,815,805,10,-810
,632,2023-10-20 13:33:02.23,101,-197,-2074,24,-53,7,553,575,-22,-564
,633,2023-10-20 13:33:02.24,112,-206,-2047,35,-60,10,821,811,10,-816
,634,2023-10-20 13:33:02.25,118,-194,-2043,48,-64,20,557,576,-19,-566
,635,2023-10-20 13:33:02.26,110,-182,-2043,53,-51,20,822,811,11,-816
,636,2023-10-20 13:33:02.27,117,-218,-2050,63,-43,18,552,576,-24,-564
,637,2023-10-20 13:33:02.28,111,-202,-2058,79,-43,20,824,821,3,-822
,638,2023-10-20 13:33:02.29,101,-217,-2037,85,-31,24,557,585,-28,-571
,639,2023-10-20 13:33:02.30,105,-228,-2056,95,-20,20,826,820,6,-823
,640,2023-10-20 13:33:02.31,90,-222,-2063,97,-18,18,563,586,-23,-574
,641,2023-10-20 13:33:02.32,86,-235,-2051,96,-18,18,826,815,11,-820
,642,2023-10-20 13:33:02.33,95,-225,-2035,94,-17,18,558,580,-22,-569
,643,2023-10-20 13:33:02.34,95,-239,-2027,93,-12,15,823,814,9,-818
,644,2023-10-20 13:33:02.35,111,-239,-2035,88,-7,15,556,582,-26,-569
,645,2023-10-20 13:33:02.36,110,-232,-2028,74,1,13,823,813,10,-818
,646,2023-10-20 13:33:02.37,105,-229,-2015,61,6,10,559,584,-25,-571
,647,2023-10-20 13:33:02.38,105,-237,-2021,47,11,14,821,807,14,-814
,648,2023-10-20 13:33:02.39,116,-241,-2030,39,21,15,560,584,-24,-572
,649,2023-10-20 13:33:02.40,113,-237,-2035,36,19,15,818,804,14,-811
,650,2023-10-20 13:33:02.41,104,-240,-2048,37,11,15,562,585,-23,-573
,651,2023-10-20 13:33:02.42,97,-241,-2052,34,18,13,820,808,12,-814
,652,2023-10-20 13:33:02.43,96,-241,-2072,32,14,15,569,593,-24,-581
,653,2023-10-20 13:33:02.44,98,-245,-2082,32,2,16,815,805,10,-810
,654,2023-10-20 13:33:02.45,100,-238,-2074,26,-7,12,572,594,-22,-583
,655,2023-10-20 13:33:02.46,104,-230,-2060,19,-9,13,815,806,9,-810
,656,2023-10-20 13:33:02.47,96,-217,-2040,12,-16,11,578,597,-19,-587
,657,2023-10-20 13:33:02.48,101,-211,-2050,6,-14,10,816,808,8,-812
,658,2023-10-20 13:33:02.49,86,-216,-2059,2,-15,4,579,602,-23,-590
,659,2023-10-20 13:33:02.50,91,-217,-2061,0,-16,1,816,799,17,-807
,660,2023-10-20 13:33:02.51,87,-215,-2063,7,-16,-2,582,606,-24,-594
,661,2023-10-20 13:33:02.52,82,-218,-2062,14,-18,-7,810,803,7,-806
,662,2023-10-20 13:33:02.53,87,-214,-2060,16,-19,-9,590,612,-22,-601
,663,2023-10-20 13:33:02.54,82,-223,-2048,13,-26,-13,804,797,7,-800
,664,2023-10-20 13:33:02.55,84,-227,-2032,20,-28,-14,584,608,-24,-596
,665,2023-10-20 13:33:02.56,89,-219,-2038,32,-20,-15,800,793,7,-796
,666,2023-10-20 13:33:02.57,100,-248,-2045,45,-6,-11,589,612,-23,-600
,667,2023-10-20 13:33:02.58,86,-265,-2021,50,6,0,797,789,8,-793
,668,2023-10-20 13:33:02.59,84,-242,-2036,63,10,13,597,620,-23,-608
,669,2023-10-20 13:33:02.60,78,-235,-2056,71,-8,8,789,782,7,-785
,670,2023-10-20 13:33:02.61,81,-242,-2061,68,-21,3,590,620,-30,-605
,671,2023-10-20 13:33:02.62,91,-233,-2031,70,-19,-4,792,785,7,-788
,672,2023-10-20 13:33:02.63,92,-240,-2024,71,0,-11,605,625,-20,-615
,673,2023-10-20 13:33:02.64,88,-244,-2021,68,3,-10,798,785,13,-791
,674,2023-10-20 13:33:02.65,87,-264,-2034,65,2,-7,612,632,-20,-622
,675,2023-10-20 13:33:02.66,73,-282,-2039,71,11,-6,778,770,8,-774
,676,2023-10-20 13:33:02.67,86,-278,-2038,67,4,-1,611,633,-22,-622
,677,2023-10-20 13:33:02.68,76,-284,-2034,54,3,16,781,775,6,-778
,678,2023-10-20 13:33:02.69,77,-283,-2032,33,10,33,619,640,-21,-629
,679,2023-10-20 13:33:02.70,97,-278,-2032,27,17,38,766,756,10,-761
,680,2023-10-20 13:33:02.71,91,-265,-2031,31,16,34,620,642,-22,-631
,681,2023-10-20 13:33:02.72,94,-255,-2032,24,22,33,766,758,8,-762
,682,2023-10-20 13:33:02.73,93,-260,-2050,16,28,32,632,653,-21,-642
,683,2023-10-20 13:33:02.74,95,-271,-2051,9,24,30,767,764,3,-765
,684,2023-10-20 13:33:02.75,93,-258,-2057,10,23,28,633,653,-20,-643
,685,2023-10-20 13:33:02.76,74,-256,-2059,11,25,27,754,755,-1,-754
,686,2023-10-20 13:33:02.77,92,-254,-2044,15,15,21,631,656,-25,-643
,687,2023-10-20 13:33:02.78,95,-250,-2053,17,10,13,747,747,0,-747
,688,2023-10-20 13:33:02.79,96,-241,-2055,14,12,5,640,664,-24,-652
,689,2023-10-20 13:33:02.80,100,-251,-2058,10,11,-4,747,749,-2,-748
,690,2023-10-20 13:33:02.81,93,-257,-2053,9,9,-4,649,668,-19,-658
,691,2023-10-20 13:33:02.82,108,-255,-2058,5,12,-9,737,741,-4,-739
,692,2023-10-20 13:33:02.83,97,-262,-2050,9,9,-11,648,669,-21,-658
,693,2023-10-20 13:33:02.84,103,-265,-2045,13,9,-12,739,733,6,-736
,694,2023-10-20 13:33:02.85,93,-260,-2050,13,6,-10,660,679,-19,-669
,695,2023-10-20 13:33:02.86,99,-266,-2049,15,1,-9,731,731,0,-731
,696,2023-10-20 13:33:02.87,109,-276,-2049,18,-1,-6,668,685,-17,-676
,697,2023-10-20 13:33:02.88,96,-276,-2054,24,-3,-7,726,729,-3,-727
,698,2023-10-20 13:33:02.89,107,-269,-2055,29,-5,-5,672,685,-13,-678
,699,2023-10-20 13:33:02.90,97,-269,-2053,26,-6,-4,718,720,-2,-719
,700,2023-10-20 13:33:02.91,102,-277,-2058,28,-7,-2,670,688,-18,-679
,701,2023-10-20 13:33:02.92,94,-282,-2067,24,-8,1,715,715,0,-715
,702,2023-10-20 13:33:02.93,99,-281,-2065,22,-11,8,681,698,-17,-689
,703,2023-10-20 13:33:02.94,89,-288,-2050,25,-14,15,713,712,1,-712
,704,2023-10-20 13:33:02.95,96,-296,-2048,27,-11,20,683,701,-18,-692
,705,2023-10-20 13:33:02.96,99,-292,-2045,28,-11,25,698,699,-1,-698
,706,2023-10-20 13:33:02.97,101,-302,-2026,31,-10,32,682,697,-15,-689
,707,2023-10-20 13:33:02.98,89,-299,-2033,37,-14,44,690,693,-3,-691
,708,2023-10-20 13:33:02.99,82,-284,-2017,42,-7,51,692,707,-15,-699
,709,2023-10-20 13:33:03.00,74,-272,-2004,40,5,50,694,695,-1,-694
,710,2023-10-20 13:33:03.01,90,-264,-2001,36,10,51,704,717,-13,-710
,711,2023-10-20 13:33:03.02,59,-265,-2023,33,11,59,684,699,-15,-691
,712,2023-10-20 13:33:03.03,69,-259,-2017,23,9,61,707,716,-9,-711
,713,2023-10-20 13:33:03.04,75,-262,-2025,16,10,58,677,686,-9,-681
,714,2023-10-20 13:33:03.05,64,-261,-2023,2,6,65,711,722,-11,-716
,715,2023-10-20 13:33:03.06,74,-247,-2027,-12,12,69,666,674,-8,-670
,716,2023-10-20 13:33:03.07,59,-238,-2045,-22,15,69,710,724,-14,-717
,717,2023-10-20 13:33:03.08,62,-238,-2027,-26,10,62,660,669,-9,-664
,718,2023-10-20 13:33:03.09,71,-235,-2029,-28,19,56,711,724,-13,-717
,719,2023-10-20 13:33:03.10,72,-234,-2041,-35,26,55,656,664,-8,-660
,720,2023-10-20 13:33:03.11,69,-242,-2046,-35,24,52,707,716,-9,-711
,721,2023-10-20 13:33:03.12,69,-237,-2062,-31,28,43,643,651,-8,-647
,722,2023-10-20 13:33:03.13,68,-234,-2073,-19,24,41,719,729,-10,-724
,723,2023-10-20 13:33:03.14,79,-234,-2064,-11,19,35,640,650,-10,-645
,724,2023-10-20 13:33:03.15,95,-216,-2051,-18,32,31,721,731,-10,-726
,725,2023-10-20 13:33:03.16,74,-205,-2066,-26,41,23,638,648,-10,-643
,726,2023-10-20 13:33:03.17,99,-210,-2061,-30,39,11,730,739,-9,-734
,727,2023-10-20 13:33:03.18,96,-216,-2065,-30,45,3,640,644,-4,-642
,728,2023-10-20 13:33:03.19,88,-220,-2065,-29,50,-5,746,750,-4,-748
,729,2023-10-20 13:33:03.20,93,-216,-2047,-27,49,-10,641,644,-3,-642
,730,2023-10-20 13:33:03.21,96,-218,-2039,-25,47,-12,757,757,0,-757
,731,2023-10-20 13:33:03.22,89,-236,-2034,-27,46,-11,640,650,-10,-645
,732,2023-10-20 13:33:03.23,103,-235,-2052,-22,35,-5,776,771,5,-773
,733,2023-10-20 13:33:03.24,92,-216,-2034,-14,25,-4,660,661,-1,-660
,734,2023-10-20 13:33:03.25,102,-226,-2054,-12,23,1,832,830,2,-831
,735,2023-10-20 13:33:03.26,96,-231,-2052,-5,7,6,725,731,-6,-728
,736,2023-10-20 13:33:03.27,92,-210,-2049,-1,-5,6,927,924,3,-925
,737,2023-10-20 13:33:03.28,80,-226,-2038,6,-11,2,836,846,-10,-841
,738,2023-10-20 13:33:03.29,103,-228,-2041,9,-22,4,1041,1035,6,-1038
,739,2023-10-20 13:33:03.30,82,-226,-2035,10,-25,5,900,914,-14,-907
,740,2023-10-20 13:33:03.31,84,-235,-2025,14,-22,3,1089,1086,3,-1087
,741,2023-10-20 13:33:03.32,82,-245,-2051,19,-16,1,1024,1012,12,-1018
,742,2023-10-20 13:33:03.33,68,-247,-2053,22,-13,7,1242,1213,29,-1227
,743,2023-10-20 13:33:03.34,77,-241,-2038,21,-9,9,1296,1230,66,-1263
,744,2023-10-20 13:33:03.35,83,-244,-2036,19,-5,19,1503,1422,81,-1462
,745,2023-10-20 13:33:03.36,81,-246,-2036,12,3,29,1374,1275,99,-1324
,746,2023-10-20 13:33:03.37,81,-229,-2039,9,6,36,1509,1402,107,-1455
,747,2023-10-20 13:33:03.38,79,-220,-2039,1,15,37,1358,1248,110,-1303
,748,2023-10-20 13:33:03.39,87,-220,-2043,-1,18,36,1468,1352,116,-1410
,749,2023-10-20 13:33:03.40,90,-217,-2039,-4,26,34,1035,980,55,-1007
,750,2023-10-20 13:33:03.41,92,-223,-2044,-5,28,28,1097,1044,53,-1070
,751,2023-10-20 13:33:03.42,97,-208,-2039,-6,30,23,796,764,32,-780
,752,2023-10-20 13:33:03.43,104,-204,-2056,-8,30,16,981,938,43,-959
,753,2023-10-20 13:33:03.44,105,-202,-2054,-10,27,7,724,696,28,-710
,754,2023-10-20 13:33:03.45,108,-212,-2056,-9,28,3,931,875,56,-903
,755,2023-10-20 13:33:03.46,91,-209,-2048,-5,30,3,662,628,34,-645
,756,2023-10-20 13:33:03.47,97,-224,-2050,-3,28,1,998,952,46,-975
,757,2023-10-20 13:33:03.48,93,-231,-2060,3,27,5,1467,1313,154,-1390
,758,2023-10-20 13:33:03.49,101,-241,-2067,17,35,10,2047,1738,309,-1892
,759,2023-10-20 13:33:03.50,117,-240,-2060,31,39,12,2047,2015,32,-2031
,760,2023-10-20 13:33:03.51,115,-242,-2039,42,40,15,2047,2023,24,-2035
,761,2023-10-20 13:33:03.52,137,-246,-2034,53,48,20,2047,2023,24,-2035
,762,2023-10-20 13:33:03.53,131,-250,-2044,70,54,21,2047,2029,18,-2038
,763,2023-10-20 13:33:03.54,134,-255,-2048,85,59,21,2047,2032,15,-2039
,764,2023-10-20 13:33:03.55,133,-257,-2043,93,67,21,2047,2031,16,-2039
,765,2023-10-20 13:33:03.56,147,-262,-2046,90,81,21,2047,2036,11,-2041
,766,2023-10-20 13:33:03.57,144,-262,-2049,101,72,26,2047,2031,16,-2039
,767,2023-10-20 13:33:03.58,150,-255,-2053,112,63,28,2047,2032,15,-2039
,768,2023-10-20 13:33:03.59,148,-261,-2050,112,61,27,2047,2035,12,-2041
,769,2023-10-20 13:33:03.60,146,-282,-2045,109,56,25,2047,2036,11,-2041
,770,2023-10-20 13:33:03.61,153,-262,-2030,108,54,25,2047,2032,15,-2039
,771,2023-10-20 13:33:03.62,143,-271,-2032,104,53,24,2047,2037,10,-2042
,772,2023-10-20 13:33:03.63,149,-265,-2021,101,50,24,2047,2036,11,-2041
,773,2023-10-20 13:33:03.64,140,-283,-2049,103,47,18,2047,2044,3,-2045
,774,2023-10-20 13:33:03.65,141,-270,-2055,98,27,14,2047,2038,9,-2042
,775,2023-10-20 13:33:03.66,137,-263,-2064,92,12,15,2047,2031,16,-2039
,776,2023-10-20 13:33:03.67,119,-287,-2073,79,1,21,2047,2038,9,-2042
,777,2023-10-20 13:33:03.68,128,-274,-2048,67,-13,27,2047,2035,12,-2041
,778,2023-10-20 13:33:03.69,119,-286,-2053,55,-16,33,2047,2035,12,-2041
,779,2023-10-20 13:33:03.70,123,-287,-2025,46,-21,39,2047,2034,13,-2040
,780,2023-10-20 13:33:03.71,118,-277,-2029,39,-19,43,2047,2033,14,-2040
,781,2023-10-20 13:33:03.72,123,-278,-2031,28,-17,45,2047,2038,9,-2042
,782,2023-10-20 13:33:03.73,110,-286,-2038,22,-9,44,2047,2039,8,-2043
,783,2023-10-20 13:33:03.74,100,-281,-2031,20,-1,41,2047,2038,9,-2042
,784,2023-10-20 13:33:03.75,114,-270,-2038,17,-1,37,2047,2041,6,-2044
,785,2023-10-20 13:33:03.76,102,-272,-2040,10,-1,33,2047,2031,16,-2039
,786,2023-10-20 13:33:03.77,115,-267,-2045,1,2,30,2047,2033,14,-2040
,787,2023-10-20 13:33:03.78,105,-266,-2050,-7,1,31,2047,2027,20,-2037
,788,2023-10-20 13:33:03.79,95,-259,-2046,-12,-1,22,2047,2033,14,-2040
,789,2023-10-20 13:33:03.80,118,-247,-2053,-21,-1,16,2047,2014,33,-2030
,790,2023-10-20 13:33:03.81,106,-255,-2037,-27,-5,8,2047,1999,48,-2023
,791,2023-10-20 13:33:03.82,110,-253,-2037,-32,-4,4,2047,1815,232,-1931
,792,2023-10-20 13:33:03.83,109,-258,-2045,-35,-1,3,2047,1730,317,-1888
,793,2023-10-20 13:33:03.84,102,-242,-2038,-36,-2,3,2047,1472,575,-1759
,794,2023-10-20 13:33:03.85,108,-257,-2045,-34,-4,1,2047,1420,627,-1733
,795,2023-10-20 13:33:03.86,113,-267,-2044,-28,-1,3,2047,1231,816,-1639
,796,2023-10-20 13:33:03.87,100,-261,-2044,-18,-3,8,2047,1181,866,-1614
,797,2023-10-20 13:33:03.88,95,-256,-2045,-9,-12,6,2047,1000,1047,-1523
,798,2023-10-20 13:33:03.89,93,-259,-2055,0,-10,11,2047,944,1103,-1495
,799,2023-10-20 13:33:03.90,103,-265,-2057,13,-20,13,2047,789,1258,-1418
,800,2023-10-20 13:33:03.91,117,-263,-2052,24,-18,15,2047,784,1263,-1415
,801,2023-10-20 13:33:03.92,121,-265,-2042,33,-5,15,75,698,-623,-386
,802,2023-10-20 13:33:03.93,121,-274,-2055,39,-2,18,-403,748,-1151,-172
,803,2023-10-20 13:33:03.94,125,-277,-2050,48,-1,22,748,704,44,-726
,804,2023-10-20 13:33:03.95,120,-292,-2056,58,4,25,2047,779,1268,-1413
,805,2023-10-20 13:33:03.96,109,-273,-2052,68,0,31,2047,724,1323,-1385
,806,2023-10-20 13:33:03.97,104,-268,-2065,61,-3,30,2047,749,1298,-1398
,807,2023-10-20 13:33:03.98,102,-270,-2060,62,-13,29,2047,618,1429,-1332
,808,2023-10-20 13:33:03.99,105,-266,-2041,54,-22,29,2047,593,1454,-1320
,809,2023-10-20 13:33:04.00,106,-262,-2033,41,-17,30,-88,470,-558,-191
,810,2023-10-20 13:33:04.01,107,-271,-2032,30,-18,37,-652,458,-1110,97
,811,2023-10-20 13:33:04.02,94,-283,-2032,26,-15,39,310,360,-50,-335
,812,2023-10-20 13:33:04.03,95,-279,-2030,28,-18,40,1231,361,870,-796
,813,2023-10-20 13:33:04.04,106,-288,-2037,20,-11,42,1130,264,866,-697
,814,2023-10-20 13:33:04.05,98,-291,-2020,17,-7,40,850,266,584,-558
,815,2023-10-20 13:33:04.06,94,-285,-2016,15,-1,39,599,190,409,-394
,816,2023-10-20 13:33:04.07,98,-276,-2024,11,7,36,671,205,466,-438
,817,2023-10-20 13:33:04.08,103,-276,-2026,6,15,33,625,131,494,-378
,818,2023-10-20 13:33:04.09,100,-275,-2028,6,15,32,671,138,533,-404
,819,2023-10-20 13:33:04.10,98,-283,-2030,5,20,32,552,61,491,-306
,820,2023-10-20 13:33:04.11,93,-284,-2042,2,25,26,584,75,509,-329
,821,2023-10-20 13:33:04.12,114,-264,-2047,5,23,26,570,67,503,-318
,822,2023-10-20 13:33:04.13,110,-287,-2050,4,24,24,857,271,586,-564
,823,2023-10-20 13:33:04.14,105,-278,-2053,4,24,19,1014,423,591,-718
,824,2023-10-20 13:33:04.15,122,-275,-2043,-1,29,16,1138,557,581,-847
,825,2023-10-20 13:33:04.16,116,-278,-2036,-1,25,10,996,489,507,-742
,826,2023-10-20 13:33:04.17,114,-285,-2037,5,33,6,982,468,514,-725
,827,2023-10-20 13:33:04.18,125,-276,-2030,8,34,3,841,348,493,-594
,828,2023-10-20 13:33:04.19,145,-280,-2031,12,37,-1,856,336,520,-596
,829,2023-10-20 13:33:04.20,134,-297,-2041,17,44,-4,739,240,499,-489
,830,2023-10-20 13:33:04.21,141,-293,-2043,26,40,0,741,226,515,-483
,831,2023-10-20 13:33:04.22,137,-290,-2042,31,49,-2,519,62,457,-290
,832,2023-10-20 13:33:04.23,135,-297,-2059,35,45,1,318,-110,428,-104
,833,2023-10-20 13:33:04.24,142,-301,-2050,30,38,6,-73,-437,364,255
,834,2023-10-20 13:33:04.25,128,-291,-2044,30,27,14,-276,-644,368,460
,835,2023-10-20 13:33:04.26,137,-285,-2020,28,18,18,-556,-890,334,723
,836,2023-10-20 13:33:04.27,131,-267,-2022,21,25,17,-612,-982,370,797
,837,2023-10-20 13:33:04.28,129,-273,-2024,17,26,16,-724,-1082,358,903
,838,2023-10-20 13:33:04.29,145,-265,-2016,15,20,11,-632,-1055,423,843
,839,2023-10-20 13:33:04.30,141,-268,-2027,2,23,4,-620,-1058,438,839
,840,2023-10-20 13:33:04.31,152,-282,-2028,-6,27,8,-370,-892,522,631
,841,2023-10-20 13:33:04.32,144,-292,-2039,-11,29,18,-170,-736,566,453
,842,2023-10-20 13:33:04.33,122,-268,-2042,-17,17,29,258,-392,650,67
,843,2023-10-20 13:33:04.34,131,-255,-2055,-22,-3,29,627,-57,684,-285
,844,2023-10-20 13:33:04.35,121,-239,-2047,-36,-17,28,1096,380,716,-738
,845,2023-10-20 13:33:04.36,140,-245,-2048,-41,-28,24,1407,719,688,-1063
,846,2023-10-20 13:33:04.37,121,-234,-2059,-39,-37,13,2047,1168,879,-1607
,847,2023-10-20 13:33:04.38,122,-235,-2059,-38,-44,9,2047,1525,522,-1786
,848,2023-10-20 13:33:04.39,123,-243,-2054,-37,-45,0,2047,1884,163,-1965
,849,2023-10-20 13:33:04.40,133,-239,-2053,-41,-53,-3,2047,1703,344,-1875
,850,2023-10-20 13:33:04.41,115,-237,-2053,-46,-52,-7,2047,638,1409,-1342
,851,2023-10-20 13:33:04.42,106,-238,-2062,-46,-48,-8,-1047,-543,-504,795
,852,2023-10-20 13:33:04.43,102,-237,-2078,-49,-43,-7,-1923,-872,-1051,1397
,853,2023-10-20 13:33:04.44,107,-248,-2085,-49,-46,0,-1494,-934,-560,1214
,854,2023-10-20 13:33:04.45,114,-245,-2073,-46,-52,6,-751,-745,-6,748
,855,2023-10-20 13:33:04.46,114,-242,-2064,-47,-41,3,-613,-792,179,702
,856,2023-10-20 13:33:04.47,123,-242,-2059,-44,-37,2,-664,-768,104,716
,857,2023-10-20 13:33:04.48,123,-240,-2046,-37,-30,2,-930,-917,-13,923
,858,2023-10-20 13:33:04.49,126,-240,-2045,-29,-19,2,-1402,-1323,-79,1362
,859,2023-10-20 13:33:04.50,119,-243,-2049,-15,-15,-2,-1512,-1313,-199,1412
,860,2023-10-20 13:33:04.51,107,-268,-2068,3,-17,-6,-17,173,-190,-78
,861,2023-10-20 13:33:04.52,123,-256,-2064,15,-13,-8,2047,2044,3,-2045
,862,2023-10-20 13:33:04.53,106,-278,-2036,36,-20,1,2047,2046,1,-2046
,863,2023-10-20 13:33:04.54,124,-284,-2016,48,-19,14,2047,2047,0,-2047
,864,2023-10-20 13:33:04.55,115,-287,-2017,55,-16,25,2047,2047,0,-2047
,865,2023-10-20 13:33:04.56,117,-291,-2024,56,-11,39,2047,2047,0,-2047
,866,2023-10-20 13:33:04.57,103,-278,-2025,58,-10,50,2047,1937,110,-1992
,867,2023-10-20 13:33:04.58,103,-268,-2026,52,-15,55,2047,1175,872,-1611
,868,2023-10-20 13:33:04.59,89,-267,-2037,47,-16,56,2047,235,1812,-1141
,869,2023-10-20 13:33:04.60,106,-263,-2045,38,-22,58,-1571,-730,-841,1150
,870,2023-10-20 13:33:04.61,95,-246,-2032,25,-27,56,-1984,-950,-1034,1467
,871,2023-10-20 13:33:04.62,111,-251,-2030,16,-29,49,-1489,-1033,-456,1261
,872,2023-10-20 13:33:04.63,103,-251,-2027,1,-24,41,-796,-849,53,822
,873,2023-10-20 13:33:04.64,91,-259,-2026,-6,-25,33,-757,-931,174,844
,874,2023-10-20 13:33:04.65,104,-255,-2037,-12,-29,25,-791,-876,85,833
,875,2023-10-20 13:33:04.66,99,-255,-2046,-5,-27,21,-1052,-1024,-28,1038
,876,2023-10-20 13:33:04.67,96,-253,-2057,-4,-33,10,-1008,-959,-49,983
,877,2023-10-20 13:33:04.68,98,-250,-2049,-11,-40,6,-1110,-1071,-39,1090
,878,2023-10-20 13:33:04.69,92,-251,-2073,-25,-36,10,-1005,-994,-11,999
,879,2023-10-20 13:33:04.70,86,-252,-2093,-36,-46,9,-1116,-1075,-41,1095
,880,2023-10-20 13:33:04.71,91,-244,-2099,-45,-48,7,-1038,-986,-52,1012
,881,2023-10-20 13:33:04.72,100,-232,-2092,-49,-45,-4,-1154,-1007,-147,1080
,882,2023-10-20 13:33:04.73,86,-253,-2086,-43,-57,-2,-1072,-895,-177,983
,883,2023-10-20 13:33:04.74,91,-250,-2084,-36,-68,-3,-1178,-851,-327,1014
,884,2023-10-20 13:33:04.75,88,-256,-2045,-24,-70,-12,-1096,-738,-358,917
,885,2023-10-20 13:33:04.76,86,-292,-2034,1,-67,-13,-1128,-645,-483,886
,886,2023-10-20 13:33:04.77,71,-272,-2006,18,-53,-5,-1009,-543,-466,776
,887,2023-10-20 13:33:04.78,81,-326,-2019,42,-41,1,-942,-429,-513,685
,888,2023-10-20 13:33:04.79,76,-280,-2020,60,-35,10,-802,-355,-447,578
,889,2023-10-20 13:33:04.80,59,-283,-2033,63,-26,19,-664,-204,-460,434
,890,2023-10-20 13:33:04.81,43,-257,-2018,54,-28,25,-545,-160,-385,352
,891,2023-10-20 13:33:04.82,46,-236,-2009,31,-24,32,-353,16,-369,168
,892,2023-10-20 13:33:04.83,49,-231,-2005,5,-17,34,-278,12,-290,133
,893,2023-10-20 13:33:04.84,37,-223,-2011,-18,-10,37,-70,182,-252,-56
,894,2023-10-20 13:33:04.85,54,-236,-2023,-41,-12,36,-56,132,-188,-38
,895,2023-10-20 13:33:04.86,39,-239,-2040,-59,-15,40,131,301,-170,-216
,896,2023-10-20 13:33:04.87,54,-232,-2041,-72,-16,31,80,221,-141,-150
,897,2023-10-20 13:33:04.88,49,-222,-2041,-82,-9,26,254,380,-126,-317
,898,2023-10-20 13:33:04.89,60,-223,-2027,-85,0,24,162,274,-112,-218
,899,2023-10-20 13:33:04.90,55,-229,-2039,-79,4,19,338,440,-102,-389
,900,2023-10-20 13:33:04.91,56,-227,-2035,-75,8,17,226,323,-97,-274
,901,2023-10-20 13:33:04.92,76,-225,-2037,-68,19,11,407,492,-85,-449
,902,2023-10-20 13:33:04.93,81,-229,-2052,-58,27,6,272,362,-90,-317
,903,2023-10-20 13:33:04.94,81,-224,-2063,-46,36,5,454,537,-83,-495
,904,2023-10-20 13:33:04.95,86,-213,-2058,-40,45,2,304,395,-91,-349
,905,2023-10-20 13:33:04.96,102,-222,-2061,-34,54,3,498,573,-75,-535
,906,2023-10-20 13:33:04.97,106,-221,-2070,-24,55,-1,345,422,-77,-383
,907,2023-10-20 13:33:04.98,105,-214,-2063,-16,57,-5,547,610,-63,-578
,908,2023-10-20 13:33:04.99,109,-229,-2068,-3,56,-7,374,448,-74,-411
,909,2023-10-20 13:33:05.00,102,-234,-2073,10,50,-2,578,632,-54,-605
,910,2023-10-20 13:33:05.01,106,-242,-2074,25,39,3,398,463,-65,-430
,911,2023-10-20 13:33:05.02,115,-253,-2049,36,34,11,607,651,-44,-629
,912,2023-10-20 13:33:05.03,106,-247,-2052,44,36,20,417,478,-61,-447
,913,2023-10-20 13:33:05.04,110,-247,-2041,48,30,31,638,674,-36,-656
,914,2023-10-20 13:33:05.05,102,-237,-2043,51,31,39,428,483,-55,-455
,915,2023-10-20 13:33:05.06,104,-240,-2049,56,32,45,651,681,-30,-666
,916,2023-10-20 13:33:05.07,88,-231,-2031,55,25,46,437,485,-48,-461
,917,2023-10-20 13:33:05.08,94,-221,-2037,49,27,45,677,705,-28,-691
,918,2023-10-20 13:33:05.09,96,-221,-2038,47,25,41,462,510,-48,-486
,919,2023-10-20 13:33:05.10,93,-225,-2034,46,24,38,691,716,-25,-703
,920,2023-10-20 13:33:05.11,85,-216,-2029,42,23,35,463,506,-43,-484
,921,2023-10-20 13:33:05.12,98,-223,-2043,40,27,27,695,717,-22,-706
,922,2023-10-20 13:33:05.13,91,-231,-2054,34,23,24,467,512,-45,-489
,923,2023-10-20 13:33:05.14,87,-234,-2053,35,23,22,707,730,-23,-718
,924,2023-10-20 13:33:05.15,92,-227,-2061,37,17,16,478,516,-38,-497
,925,2023-10-20 13:33:05.16,90,-227,-2055,35,11,13,704,720,-16,-712
,926,2023-10-20 13:33:05.17,103,-224,-2066,30,18,14,464,504,-40,-484
,927,2023-10-20 13:33:05.18,91,-225,-2081,28,13,14,710,726,-16,-718
,928,2023-10-20 13:33:05.19,91,-215,-2084,27,11,10,482,517,-35,-499
,929,2023-10-20 13:33:05.20,87,-209,-2077,24,9,8,722,739,-17,-730
,930,2023-10-20 13:33:05.21,94,-205,-2068,17,4,6,477,515,-38,-496
,931,2023-10-20 13:33:05.22,94,-215,-2071,18,4,2,725,735,-10,-730
,932,2023-10-20 13:33:05.23,99,-215,-2053,20,5,-3,475,513,-38,-494
,933,2023-10-20 13:33:05.24,96,-207,-2060,24,1,-6,725,740,-15,-732
,934,2023-10-20 13:33:05.25,87,-225,-2047,26,0,-5,484,523,-39,-503
,935,2023-10-20 13:33:05.26,93,-221,-2046,33,3,-4,735,751,-16,-743
,936,2023-10-20 13:33:05.27,78,-233,-2050,42,-2,0,481,521,-40,-501
,937,2023-10-20 13:33:05.28,82,-233,-2043,47,-6,6,736,749,-13,-742
,938,2023-10-20 13:33:05.29,86,-218,-2048,50,-3,8,490,528,-38,-509
,939,2023-10-20 13:33:05.30,81,-210,-2044,51,-3,7,742,756,-14,-749
,940,2023-10-20 13:33:05.31,86,-210,-2050,53,-3,5,482,522,-40,-502
,941,2023-10-20 13:33:05.32,90,-220,-2048,52,3,4,734,747,-13,-740
,942,2023-10-20 13:33:05.33,80,-231,-2043,53,9,-3,484,519,-35,-501
,943,2023-10-20 13:33:05.34,102,-220,-2010,53,12,-3,740,756,-16,-748
,944,2023-10-20 13:33:05.35,98,-252,-2024,65,21,-4,483,524,-41,-503
,945,2023-10-20 13:33:05.36,101,-239,-2023,67,34,-5,745,753,-8,-749
,946,2023-10-20 13:33:05.37,104,-263,-2017,87,35,-8,492,525,-33,-508
,947,2023-10-20 13:33:05.38,103,-268,-2036,98,48,-7,748,762,-14,-755
,948,2023-10-20 13:33:05.39,108,-279,-2037,110,41,-4,490,531,-41,-510
,949,2023-10-20 13:33:05.40,111,-288,-2036,121,46,-2,743,757,-14,-750
,950,2023-10-20 13:33:05.41,119,-290,-2035,131,43,5,489,529,-40,-509
,951,2023-10-20 13:33:05.42,122,-291,-2043,142,41,10,748,762,-14,-755
,952,2023-10-20 13:33:05.43,128,-296,-2029,146,50,8,496,534,-38,-515
,953,2023-10-20 13:33:05.44,134,-301,-2040,151,57,9,756,765,-9,-760
,954,2023-10-20 13:33:05.45,136,-305,-2034,156,50,6,513,549,-36,-531
,955,2023-10-20 13:33:05.46,130,-314,-2029,158,56,2,753,767,-14,-760
,956,2023-10-20 13:33:05.47,131,-324,-2028,161,56,3,496,536,-40,-516
,957,2023-10-20 13:33:05.48,130,-338,-2024,164,48,6,740,746,-6,-743
,958,2023-10-20 13:33:05.49,137,-340,-2026,173,40,6,505,543,-38,-524
,959,2023-10-20 13:33:05.50,131,-347,-2003,167,39,9,761,773,-12,-767
,960,2023-10-20 13:33:05.51,149,-341,-2002,162,42,9,508,548,-40,-528
,961,2023-10-20 13:33:05.52,142,-351,-2003,152,46,5,755,763,-8,-759
,962,2023-10-20 13:33:05.53,160,-346,-2005,146,47,-1,510,542,-32,-526
,963,2023-10-20 13:33:05.54,161,-381,-2014,133,58,7,754,756,-2,-755
,964,2023-10-20 13:33:05.55,147,-404,-2018,129,66,22,514,544,-30,-529
,965,2023-10-20 13:33:05.56,131,-385,-2041,134,58,26,760,761,-1,-760
,966,2023-10-20 13:33:05.57,120,-376,-2042,138,39,18,520,554,-34,-537
,967,2023-10-20 13:33:05.58,144,-352,-2044,127,19,13,760,767,-7,-763
,968,2023-10-20 13:33:05.59,165,-347,-2046,96,3,3,520,553,-33,-536
,969,2023-10-20 13:33:05.60,155,-358,-2050,69,1,0,764,764,0,-764
,970,2023-10-20 13:33:05.61,187,-372,-2027,45,13,2,530,565,-35,-547
,971,2023-10-20 13:33:05.62,158,-394,-2026,24,18,9,758,766,-8,-762
,972,2023-10-20 13:33:05.63,137,-403,-2029,21,7,20,525,560,-35,-542
,973,2023-10-20 13:33:05.64,139,-400,-2052,24,-6,31,754,762,-8,-758
,974,2023-10-20 13:33:05.65,133,-368,-2055,17,-16,39,533,568,-35,-550
,975,2023-10-20 13:33:05.66,144,-361,-2047,6,-33,41,749,762,-13,-755
,976,2023-10-20 13:33:05.67,140,-344,-2040,-3,-34,39,531,567,-36,-549
,977,2023-10-20 13:33:05.68,149,-331,-2034,-9,-40,36,745,757,-12,-751
,978,2023-10-20 13:33:05.69,151,-333,-2027,-15,-44,29,540,577,-37,-558
,979,2023-10-20 13:33:05.70,121,-327,-2031,-24,-39,23,749,761,-12,-755
,980,2023-10-20 13:33:05.71,129,-329,-2049,-28,-41,18,546,583,-37,-564
,981,2023-10-20 13:33:05.72,117,-328,-2041,-26,-49,15,749,758,-9,-753
,982,2023-10-20 13:33:05.73,118,-324,-2050,-23,-53,10,554,589,-35,-571
,983,2023-10-20 13:33:05.74,119,-322,-2043,-21,-61,5,749,761,-12,-755
,984,2023-10-20 13:33:05.75,95,-308,-2034,-16,-70,0,556,590,-34,-573
,985,2023-10-20 13:33:05.76,93,-299,-2033,-19,-71,-9,750,756,-6,-753
,986,2023-10-20 13:33:05.77,93,-297,-2036,-28,-75,-11,561,597,-36,-579
,987,2023-10-20 13:33:05.78,98,-304,-2023,-35,-70,-20,738,751,-13,-744
,988,2023-10-20 13:33:05.79,109,-309,-2036,-40,-60,-19,563,600,-37,-581
,989,2023-10-20 13:33:05.80,84,-306,-2030,-38,-60,-22,734,748,-14,-741
,990,2023-10-20 13:33:05.81,101,-298,-2024,-37,-58,-24,567,600,-33,-583
,991,2023-10-20 13:33:05.82,98,-305,-2020,-45,-46,-27,732,748,-16,-740
,992,2023-10-20 13:33:05.83,100,-310,-2032,-53,-38,-16,564,604,-40,-584
,993,2023-10-20 13:33:05.84,93,-337,-2032,-53,-24,-2,722,741,-19,-731
,994,2023-10-20 13:33:05.85,94,-335,-2036,-49,-14,15,568,605,-37,-586
,995,2023-10-20 13:33:05.86,98,-334,-2044,-42,-5,32,724,742,-18,-733
,996,2023-10-20 13:33:05.87,93,-318,-2031,-30,2,45,563,601,-38,-582
,997,2023-10-20 13:33:05.88,102,-301,-2043,-16,6,48,704,721,-17,-712
,998,2023-10-20 13:33:05.89,85,-277,-2060,-15,9,46,558,593,-35,-575
,999,2023-10-20 13:33:05.90,83,-262,-2068,-6,1,37,710,726,-16,-718
,1000,2023-10-20 13:33:05.91,87,-252,-2054,3,-32,26,577,612,-35,-594
,1001,2023-10-20 13:33:05.92,95,-266,-2040,2,-37,9,688,705,-17,-696
,1002,2023-10-20 13:33:05.93,97,-285,-2042,2,-33,-1,579,605,-26,-592
,1003,2023-10-20 13:33:05.94,82,-297,-2037,20,-40,-14,693,705,-12,-699
,1004,2023-10-20 13:33:05.95,75,-312,-2027,40,-38,-17,584,608,-24,-596
,1005,2023-10-20 13:33:05.96,90,-310,-2022,51,-39,-19,682,694,-12,-688
,1006,2023-10-20 13:33:05.97,75,-293,-2042,48,-37,-22,589,615,-26,-602
,1007,2023-10-20 13:33:05.98,85,-278,-2025,43,-46,-23,688,700,-12,-694
,1008,2023-10-20 13:33:05.99,87,-301,-2030,25,-37,-28,601,630,-29,-615
,1009,2023-10-20 13:33:06.00,79,-307,-2030,9,-24,-28,679,692,-13,-685
,1010,2023-10-20 13:33:06.01,75,-312,-2030,5,-19,-23,601,627,-26,-614
,1011,2023-10-20 13:33:06.02,74,-306,-2047,-4,-16,-18,670,683,-13,-676
,1012,2023-10-20 13:33:06.03,79,-309,-2051,-9,-17,-15,612,639,-27,-625
,1013,2023-10-20 13:33:06.04,83,-310,-2039,-13,-23,-6,669,683,-14,-676
,1014,2023-10-20 13:33:06.05,80,-302,-2043,-13,-23,-6,623,645,-22,-634
,1015,2023-10-20 13:33:06.06,81,-287,-2032,-11,-25,-8,665,675,-10,-670
,1016,2023-10-20 13:33:06.07,85,-286,-2047,-3,-27,-17,628,654,-26,-641
,1017,2023-10-20 13:33:06.08,75,-285,-2037,-4,-23,-29,656,672,-16,-664
,1018,2023-10-20 13:33:06.09,75,-289,-2042,-3,-24,-33,634,655,-21,-644
,1019,2023-10-20 13:33:06.10,78,-305,-2034,-5,-19,-35,645,663,-18,-654
,1020,2023-10-20 13:33:06.11,70,-301,-2027,-5,-25,-38,639,666,-27,-652
,1021,2023-10-20 13:33:06.12,76,-303,-2028,-3,-23,-43,634,659,-25,-646
,1022,2023-10-20 13:33:06.13,71,-309,-2036,-6,-12,-42,635,664,-29,-649
,1023,2023-10-20 13:33:06.14,81,-303,-2026,-7,-12,-40,622,641,-19,-631
,1024,2023-10-20 13:33:06.15,71,-310,-2027,-14,1,-39,644,664,-20,-654
,1025,2023-10-20 13:33:06.16,68,-313,-2036,-18,12,-34,617,641,-24,-629
,1026,2023-10-20 13:33:06.17,86,-317,-2031,-19,19,-29,646,671,-25,-658
,1027,2023-10-20 13:33:06.18,79,-311,-2043,-16,22,-20,608,634,-26,-621
,1028,2023-10-20 13:33:06.19,82,-305,-2046,-19,30,-16,648,672,-24,-660
,1029,2023-10-20 13:33:06.20,77,-289,-2040,-22,31,-8,601,626,-25,-613
,1030,2023-10-20 13:33:06.21,93,-287,-2029,-24,42,-6,651,675,-24,-663
,1031,2023-10-20 13:33:06.22,110,-308,-2024,-6,52,-3,593,620,-27,-606
,1032,2023-10-20 13:33:06.23,78,-287,-2011,37,54,-20,657,682,-25,-669
,1033,2023-10-20 13:33:06.24,67,-241,-2047,50,48,-48,594,621,-27,-607
,1034,2023-10-20 13:33:06.25,104,-234,-2070,6,14,-65,658,683,-25,-670
,1035,2023-10-20 13:33:06.26,102,-304,-2061,-56,-2,-59,584,610,-26,-597
,1036,2023-10-20 13:33:06.27,97,-327,-2060,-82,9,-39,675,690,-15,-682
,1037,2023-10-20 13:33:06.28,104,-339,-2033,-72,3,-25,590,616,-26,-603
,1038,2023-10-20 13:33:06.29,108,-318,-2018,-54,8,-18,670,693,-23,-681
,1039,2023-10-20 13:33:06.30,107,-333,-2031,-42,20,-16,569,594,-25,-581
,1040,2023-10-20 13:33:06.31,123,-308,-2032,-29,18,-2,678,696,-18,-687
,1041,2023-10-20 13:33:06.32,107,-282,-2028,-51,28,6,586,612,-26,-599
,1042,2023-10-20 13:33:06.33,107,-299,-2060,-49,34,9,686,710,-24,-698
,1043,2023-10-20 13:33:06.34,98,-257,-2063,-27,-2,3,585,611,-26,-598
,1044,2023-10-20 13:33:06.35,91,-256,-2060,-28,-11,-10,698,714,-16,-706
,1045,2023-10-20 13:33:06.36,91,-248,-2065,-37,-18,-24,568,602,-34,-585
,1046,2023-10-20 13:33:06.37,99,-257,-2046,-36,-28,-37,692,715,-23,-703
,1047,2023-10-20 13:33:06.38,82,-264,-2029,-35,-38,-42,566,596,-30,-581
,1048,2023-10-20 13:33:06.39,88,-279,-2043,-40,-23,-53,704,721,-17,-712
,1049,2023-10-20 13:33:06.40,97,-302,-2049,-30,-32,-46,567,599,-32,-583
,1050,2023-10-20 13:33:06.41,92,-305,-2031,-32,-34,-26,705,729,-24,-717
,1051,2023-10-20 13:33:06.42,100,-303,-2037,-33,-19,-7,562,592,-30,-577
,1052,2023-10-20 13:33:06.43,104,-307,-2046,-30,-12,14,710,728,-18,-719
,1053,2023-10-20 13:33:06.44,90,-285,-2057,-24,-13,28,554,591,-37,-572
,1054,2023-10-20 13:33:06.45,94,-276,-2047,-13,-15,32,705,729,-24,-717
,1055,2023-10-20 13:33:06.46,83,-244,-2040,2,-9,20,542,578,-36,-560
,1056,2023-10-20 13:33:06.47,89,-238,-2043,15,-18,0,709,727,-18,-718
,1057,2023-10-20 13:33:06.48,86,-247,-2043,17,-16,-18,541,576,-35,-558
,1058,2023-10-20 13:33:06.49,95,-265,-2031,8,-6,-26,708,730,-22,-719
,1059,2023-10-20 13:33:06.50,77,-285,-2037,8,-2,-28,529,566,-37,-547
,1060,2023-10-20 13:33:06.51,85,-288,-2041,16,-4,-18,713,729,-16,-721
,1061,2023-10-20 13:33:06.52,77,-286,-2034,14,-3,-8,533,564,-31,-548
,1062,2023-10-20 13:33:06.53,83,-278,-2032,6,-3,-8,720,732,-12,-726
,1063,2023-10-20 13:33:06.54,99,-257,-2041,-2,-4,-2,534,559,-25,-546
,1064,2023-10-20 13:33:06.55,72,-280,-2035,-7,-12,9,722,727,-5,-724
,1065,2023-10-20 13:33:06.56,78,-257,-2038,-17,-12,12,528,557,-29,-542
,1066,2023-10-20 13:33:06.57,76,-262,-2046,-21,-5,14,725,739,-14,-732
,1067,2023-10-20 13:33:06.58,86,-254,-2065,-21,-11,14,537,567,-30,-552
,1068,2023-10-20 13:33:06.59,90,-251,-2047,-20,-15,11,750,755,-5,-752
,1069,2023-10-20 13:33:06.60,81,-243,-2050,-13,-16,7,549,579,-30,-564
,1070,2023-10-20 13:33:06.61,70,-249,-2044,-15,-16,4,750,760,-10,-755
,1071,2023-10-20 13:33:06.62,80,-247,-2046,-12,-15,2,536,564,-28,-550
,1072,2023-10-20 13:33:06.63,76,-251,-2035,-11,-11,-7,752,753,-1,-752
,1073,2023-10-20 13:33:06.64,80,-268,-2038,-10,-6,-8,542,565,-23,-553
,1074,2023-10-20 13:33:06.65,82,-271,-2033,-9,1,-5,756,762,-6,-759
,1075,2023-10-20 13:33:06.66,75,-284,-2038,-5,4,2,534,560,-26,-547
,1076,2023-10-20 13:33:06.67,74,-281,-2024,0,8,7,759,758,1,-758
,1077,2023-10-20 13:33:06.68,78,-286,-2033,4,12,17,542,561,-19,-551
,1078,2023-10-20 13:33:06.69,67,-273,-2035,7,11,25,752,757,-5,-754
,1079,2023-10-20 13:33:06.70,79,-299,-2040,9,15,31,519,544,-25,-531
,1080,2023-10-20 13:33:06.71,72,-279,-2035,19,14,36,734,736,-2,-735
,1081,2023-10-20 13:33:06.72,71,-269,-2034,20,14,44,517,542,-25,-529
,1082,2023-10-20 13:33:06.73,77,-263,-2023,17,16,44,752,755,-3,-753
,1083,2023-10-20 13:33:06.74,79,-270,-2030,13,19,47,521,549,-28,-535
,1084,2023-10-20 13:33:06.75,86,-274,-2023,9,24,47,755,760,-5,-757
,1085,2023-10-20 13:33:06.76,79,-263,-2028,3,29,46,519,547,-28,-533
,1086,2023-10-20 13:33:06.77,89,-264,-2035,-6,36,45,760,768,-8,-764
,1087,2023-10-20 13:33:06.78,86,-273,-2040,-13,39,43,523,551,-28,-537
,1088,2023-10-20 13:33:06.79,90,-263,-2046,-15,40,39,784,787,-3,-785
,1089,2023-10-20 13:33:06.80,106,-264,-2046,-19,42,36,536,562,-26,-549
,1090,2023-10-20 13:33:06.81,94,-258,-2050,-19,43,34,786,789,-3,-787
,1091,2023-10-20 13:33:06.82,94,-265,-2046,-18,39,30,536,563,-27,-549
,1092,2023-10-20 13:33:06.83,96,-266,-2038,-15,35,27,792,794,-2,-793
,1093,2023-10-20 13:33:06.84,103,-263,-2056,-9,35,25,543,563,-20,-553
,1094,2023-10-20 13:33:06.85,92,-259,-2061,-7,35,27,798,800,-2,-799
,1095,2023-10-20 13:33:06.86,92,-264,-2060,-7,38,23,535,561,-26,-548
,1096,2023-10-20 13:33:06.87,95,-270,-2068,-13,36,28,789,789,0,-789
,1097,2023-10-20 13:33:06.88,89,-270,-2057,-16,31,31,530,552,-22,-541
,1098,2023-10-20 13:33:06.89,81,-271,-2061,-14,22,34,789,789,0,-789
,1099,2023-10-20 13:33:06.90,94,-277,-2057,-15,30,34,525,552,-27,-538
,1100,2023-10-20 13:33:06.91,87,-255,-2047,-12,29,33,781,783,-2,-782
,1101,2023-10-20 13:33:06.92,92,-248,-2033,-14,38,31,520,543,-23,-531
,1102,2023-10-20 13:33:06.93,101,-260,-2033,-18,52,30,784,778,6,-781
,1103,2023-10-20 13:33:06.94,98,-272,-2035,-14,54,33,520,547,-27,-533
,1104,2023-10-20 13:33:06.95,96,-271,-2034,-9,54,34,782,782,0,-782
,1105,2023-10-20 13:33:06.96,99,-266,-2027,1,56,35,606,625,-19,-615
,1106,2023-10-20 13:33:06.97,103,-252,-2031,3,56,33,1279,1254,25,-1266
,1107,2023-10-20 13:33:06.98,111,-239,-2027,4,60,28,2047,2029,18,-2038
,1108,2023-10-20 13:33:06.99,110,-239,-2052,3,55,21,2047,2035,12,-2041
,1109,2023-10-20 13:33:07.00,114,-226,-2046,-5,55,11,2047,2025,22,-2036
,1110,2023-10-20 13:33:07.01,107,-225,-2038,-20,55,5,2047,2034,13,-2040
,1111,2023-10-20 13:33:07.02,107,-231,-2052,-32,47,1,2047,2038,9,-2042
,1112,2023-10-20 13:33:07.03,102,-251,-2061,-35,38,2,2047,2030,17,-2038
,1113,2023-10-20 13:33:07.04,108,-260,-2055,-35,34,0,2047,2029,18,-2038
,1114,2023-10-20 13:33:07.05,104,-255,-2047,-30,26,1,2047,2030,17,-2038
,1115,2023-10-20 13:33:07.06,106,-258,-2044,-25,22,5,2047,2033,14,-2040
,1116,2023-10-20 13:33:07.07,107,-254,-2040,-16,17,11,2047,2035,12,-2041
,1117,2023-10-20 13:33:07.08,99,-259,-2039,-8,23,15,2047,2032,15,-2039
,1118,2023-10-20 13:33:07.09,115,-253,-2032,2,23,18,2047,2047,0,-2047
,1119,2023-10-20 13:33:07.10,117,-270,-2032,7,24,26,2047,2036,11,-2041
,1120,2023-10-20 13:33:07.11,124,-266,-2041,13,31,30,2047,2037,10,-2042
,1121,2023-10-20 13:33:07.12,117,-265,-2046,17,34,41,2047,2008,39,-2027
,1122,2023-10-20 13:33:07.13,118,-264,-2057,16,41,48,2047,2040,7,-2043
,1123,2023-10-20 13:33:07.14,116,-266,-2052,15,42,57,2047,2043,4,-2045
,1124,2023-10-20 13:33:07.15,110,-252,-2056,10,44,64,2047,2046,1,-2046
,1125,2023-10-20 13:33:07.16,114,-246,-2052,2,41,69,2047,2026,21,-2036
,1126,2023-10-20 13:33:07.17,135,-243,-2051,-2,42,68,2047,1897,150,-1972
,1127,2023-10-20 13:33:07.18,121,-234,-2052,-4,41,62,2047,914,1133,-1480
,1128,2023-10-20 13:33:07.19,138,-231,-2043,-1,33,51,2047,150,1897,-1098
,1129,2023-10-20 13:33:07.20,130,-228,-2043,-1,31,41,-1276,-519,-757,897
,1130,2023-10-20 13:33:07.21,134,-234,-2047,-2,31,27,-1972,-874,-1098,1423
,1131,2023-10-20 13:33:07.22,121,-241,-2055,5,22,18,-1369,-881,-488,1125
,1132,2023-10-20 13:33:07.23,122,-247,-2061,13,13,12,-769,-839,70,804
,1133,2023-10-20 13:33:07.24,121,-247,-2053,19,6,6,-573,-779,206,676
,1134,2023-10-20 13:33:07.25,119,-250,-2046,20,-1,6,-756,-847,91,801
,1135,2023-10-20 13:33:07.26,136,-246,-2048,20,-2,3,-885,-864,-21,874
,1136,2023-10-20 13:33:07.27,131,-258,-2047,19,-6,6,-1000,-948,-52,974
,1137,2023-10-20 13:33:07.28,124,-252,-2045,17,-5,9,-974,-943,-31,958
,1138,2023-10-20 13:33:07.29,121,-249,-2044,16,0,13,-1025,-1012,-13,1018
,1139,2023-10-20 13:33:07.30,128,-255,-2045,10,1,15,-1001,-995,-6,998
,1140,2023-10-20 13:33:07.31,127,-251,-2046,5,5,20,-1069,-1060,-9,1064
,1141,2023-10-20 13:33:07.32,117,-249,-2045,1,7,21,-1053,-1038,-15,1045
,1142,2023-10-20 13:33:07.33,116,-246,-2049,-2,6,21,-1114,-1098,-16,1106
,1143,2023-10-20 13:33:07.34,122,-251,-2046,-6,5,19,-1091,-1056,-35,1073
,1144,2023-10-20 13:33:07.35,124,-255,-2052,-6,4,23,-1142,-1070,-72,1106
,1145,2023-10-20 13:33:07.36,125,-246,-2044,-3,0,23,-1119,-984,-135,1051
,1146,2023-10-20 13:33:07.37,126,-247,-2045,1,-1,21,-1167,-926,-241,1046
,1147,2023-10-20 13:33:07.38,127,-238,-2046,5,-3,19,-1127,-819,-308,973
,1148,2023-10-20 13:33:07.39,120,-241,-2045,7,-2,13,-1147,-720,-427,933
,1149,2023-10-20 13:33:07.40,121,-248,-2042,7,-1,16,-1055,-629,-426,842
,1150,2023-10-20 13:33:07.41,119,-251,-2043,12,1,19,-971,-499,-472,735
,1151,2023-10-20 13:33:07.42,113,-245,-2043,14,5,21,-843,-425,-418,634
,1152,2023-10-20 13:33:07.43,124,-245,-2033,15,6,20,-693,-279,-414,486
,1153,2023-10-20 13:33:07.44,122,-246,-2054,17,8,22,-578,-222,-356,400
,1154,2023-10-20 13:33:07.45,114,-248,-2048,16,10,25,-398,-63,-335,230
,1155,2023-10-20 13:33:07.46,121,-257,-2047,20,6,28,-310,-32,-278,171
,1156,2023-10-20 13:33:07.47,118,-258,-2049,24,4,29,-122,115,-237,3
,1157,2023-10-20 13:33:07.48,121,-249,-2052,25,4,31,-86,107,-193,-10
,1158,2023-10-20 13:33:07.49,119,-250,-2036,25,3,33,87,240,-153,-163
,1159,2023-10-20 13:33:07.50,121,-245,-2049,23,3,32,87,226,-139,-156
,1160,2023-10-20 13:33:07.51,133,-252,-2042,21,3,32,231,341,-110,-286
,1161,2023-10-20 13:33:07.52,133,-247,-2040,20,4,29,186,299,-113,-242
,1162,2023-10-20 13:33:07.53,133,-249,-2043,24,5,24,314,403,-89,-358
,1163,2023-10-20 13:33:07.54,129,-253,-2039,24,2,16,271,367,-96,-319
,1164,2023-10-20 13:33:07.55,110,-255,-2052,23,3,17,391,480,-89,-435
,1165,2023-10-20 13:33:07.56,110,-266,-2053,23,0,18,324,422,-98,-373
,1166,2023-10-20 13:33:07.57,120,-261,-2041,19,0,22,444,522,-78,-483
,1167,2023-10-20 13:33:07.58,110,-255,-2042,20,2,26,385,465,-80,-425
,1168,2023-10-20 13:33:07.59,115,-263,-2044,14,0,29,494,551,-57,-522
,1169,2023-10-20 13:33:07.60,115,-256,-2044,6,0,33,435,504,-69,-469
,1170,2023-10-20 13:33:07.61,123,-255,-2042,1,4,34,525,577,-52,-551
,1171,2023-10-20 13:33:07.62,125,-250,-2043,-1,9,31,475,533,-58,-504
,1172,2023-10-20 13:33:07.63,128,-243,-2039,-5,8,27,560,598,-38,-579
,1173,2023-10-20 13:33:07.64,118,-242,-2050,-7,11,20,512,562,-50,-537
,1174,2023-10-20 13:33:07.65,119,-251,-2052,-3,7,13,581,615,-34,-598
,1175,2023-10-20 13:33:07.66,116,-242,-2048,2,5,6,539,579,-40,-559
,1176,2023-10-20 13:33:07.67,130,-253,-2049,5,-7,5,599,622,-23,-610
,1177,2023-10-20 13:33:07.68,117,-257,-2048,12,-17,10,566,602,-36,-584
,1178,2023-10-20 13:33:07.69,119,-262,-2054,19,-18,7,608,635,-27,-621
,1179,2023-10-20 13:33:07.70,126,-242,-2039,22,-28,4,580,613,-33,-596
,1180,2023-10-20 13:33:07.71,133,-248,-2034,17,-22,5,617,639,-22,-628
,1181,2023-10-20 13:33:07.72,130,-245,-2041,5,-8,3,604,632,-28,-618
,1182,2023-10-20 13:33:07.73,114,-259,-2054,4,-2,7,623,644,-21,-633
,1183,2023-10-20 13:33:07.74,115,-259,-2052,9,-5,6,613,640,-27,-626
,1184,2023-10-20 13:33:07.75,105,-262,-2055,6,-5,13,625,642,-17,-633
,1185,2023-10-20 13:33:07.76,114,-260,-2051,1,-12,25,633,651,-18,-642
,1186,2023-10-20 13:33:07.77,116,-257,-2045,1,-15,30,636,647,-11,-641
,1187,2023-10-20 13:33:07.78,99,-242,-2035,6,-19,31,642,664,-22,-653
,1188,2023-10-20 13:33:07.79,114,-232,-2027,4,-18,28,628,646,-18,-637
,1189,2023-10-20 13:33:07.80,113,-235,-2039,-6,-15,28,646,667,-21,-656
,1190,2023-10-20 13:33:07.81,102,-243,-2035,-10,-10,25,632,643,-11,-637
,1191,2023-10-20 13:33:07.82,90,-243,-2047,-11,-7,27,663,680,-17,-671
,1192,2023-10-20 13:33:07.83,94,-250,-2042,-10,-7,32,633,648,-15,-640
,1193,2023-10-20 13:33:07.84,101,-246,-2035,-8,-9,32,666,683,-17,-674
,1194,2023-10-20 13:33:07.85,87,-242,-2040,-5,-7,32,627,641,-14,-634
,1195,2023-10-20 13:33:07.86,101,-240,-2042,-1,-3,31,676,692,-16,-684
,1196,2023-10-20 13:33:07.87,103,-240,-2042,2,-4,28,625,642,-17,-633
,1197,2023-10-20 13:33:07.88,88,-236,-2037,4,1,25,684,699,-15,-691
,1198,2023-10-20 13:33:07.89,101,-229,-2038,2,6,25,628,637,-9,-632
,1199,2023-10-20 13:33:07.90,114,-239,-2045,3,14,17,694,703,-9,-698
,1200,2023-10-20 13:33:07.91,106,-238,-2056,6,14,13,629,647,-18,-638
,1201,2023-10-20 13:33:07.92,103,-241,-2056,3,17,8,693,706,-13,-699
,1202,2023-10-20 13:33:07.93,100,-225,-2052,1,17,4,615,628,-13,-621
,1203,2023-10-20 13:33:07.94,94,-227,-2054,-3,11,6,692,702,-10,-697
,1204,2023-10-20 13:33:07.95,99,-237,-2058,-1,8,4,610,628,-18,-619
,1205,2023-10-20 13:33:07.96,104,-239,-2050,0,8,4,712,722,-10,-717
,1206,2023-10-20 13:33:07.97,119,-235,-2050,-4,4,6,597,620,-23,-608
,1207,2023-10-20 13:33:07.98,109,-226,-2036,-3,11,5,714,723,-9,-718
,1208,2023-10-20 13:33:07.99,125,-231,-2044,-1,11,7,605,619,-14,-612
,1209,2023-10-20 13:33:08.00,112,-234,-2049,1,13,5,720,732,-12,-726
,1210,2023-10-20 13:33:08.01,113,-232,-2048,4,11,5,595,615,-20,-605
,1211,2023-10-20 13:33:08.02,111,-237,-2057,11,10,7,720,732,-12,-726
,1212,2023-10-20 13:33:08.03,105,-241,-2051,14,6,12,593,609,-16,-601
,1213,2023-10-20 13:33:08.04,101,-240,-2052,20,1,14,726,739,-13,-732
,1214,2023-10-20 13:33:08.05,115,-230,-2046,20,-3,18,586,609,-23,-597
,1215,2023-10-20 13:33:08.06,106,-235,-2043,23,-2,23,727,739,-12,-733
,1216,2023-10-20 13:33:08.07,105,-233,-2049,22,0,21,585,603,-18,-594
,1217,2023-10-20 13:33:08.08,106,-229,-2032,26,-3,27,739,741,-2,-740
,1218,2023-10-20 13:33:08.09,102,-239,-2054,25,4,23,582,602,-20,-592
,1219,2023-10-20 13:33:08.10,107,-241,-2042,25,3,23,738,744,-6,-741
,1220,2023-10-20 13:33:08.11,109,-243,-2040,28,7,23,579,594,-15,-586
,1221,2023-10-20 13:33:08.12,103,-245,-2042,30,9,21,748,750,-2,-749
,1222,2023-10-20 13:33:08.13,93,-247,-2049,36,10,22,579,600,-21,-589
,1223,2023-10-20 13:33:08.14,107,-239,-2041,40,14,18,750,758,-8,-754
,1224,2023-10-20 13:33:08.15,98,-246,-2045,42,14,18,570,592,-22,-581
,1225,2023-10-20 13:33:08.16,108,-257,-2050,43,17,16,752,758,-6,-755
,1226,2023-10-20 13:33:08.17,105,-264,-2051,50,17,13,571,594,-23,-582
,1227,2023-10-20 13:33:08.18,95,-263,-2058,52,19,15,760,768,-8,-764
,1228,2023-10-20 13:33:08.19,96,-271,-2051,52,22,16,566,589,-23,-577
,1229,2023-10-20 13:33:08.20,98,-274,-2051,54,26,17,759,766,-7,-762
,1230,2023-10-20 13:33:08.21,85,-282,-2052,53,30,19,563,584,-21,-573
,1231,2023-10-20 13:33:08.22,98,-279,-2066,49,37,20,766,771,-5,-768
,1232,2023-10-20 13:33:08.23,77,-281,-2049,44,42,23,557,580,-23,-568
,1233,2023-10-20 13:33:08.24,95,-270,-2043,35,48,25,763,769,-6,-766
,1234,2023-10-20 13:33:08.25,108,-265,-2035,27,56,21,550,575,-25,-562
,1235,2023-10-20 13:33:08.26,102,-278,-2040,18,66,16,772,772,0,-772
,1236,2023-10-20 13:33:08.27,114,-270,-2029,16,72,1,553,576,-23,-564
,1237,2023-10-20 13:33:08.28,130,-259,-2028,7,80,-16,771,775,-4,-773
,1238,2023-10-20 13:33:08.29,132,-262,-2028,-4,88,-36,547,572,-25,-559
,1239,2023-10-20 13:33:08.30,151,-263,-2033,-22,98,-55,772,779,-7,-775
,1240,2023-10-20 13:33:08.31,166,-275,-2045,-40,105,-73,552,575,-23,-563
,1241,2023-10-20 13:33:08.32,183,-260,-2026,-68,120,-89,796,801,-5,-798
,1242,2023-10-20 13:33:08.33,187,-271,-2011,-101,124,-104,551,576,-25,-563
,1243,2023-10-20 13:33:08.34,210,-262,-1995,-133,132,-113,790,792,-2,-791
,1244,2023-10-20 13:33:08.35,206,-285,-2015,-163,154,-122,553,569,-16,-561
,1245,2023-10-20 13:33:08.36,227,-271,-2023,-181,147,-133,804,802,2,-803
,1246,2023-10-20 13:33:08.37,250,-298,-2032,-199,145,-143,560,583,-23,-571
,1247,2023-10-20 13:33:08.38,248,-283,-2018,-223,144,-148,801,802,-1,-801
,1248,2023-10-20 13:33:08.39,260,-286,-2023,-234,141,-150,571,588,-17,-579
,1249,2023-10-20 13:33:08.40,264,-281,-2031,-246,134,-154,826,822,4,-824
,1250,2023-10-20 13:33:08.41,268,-303,-2026,-256,116,-153,572,592,-20,-582
,1251,2023-10-20 13:33:08.42,266,-283,-2017,-266,90,-144,821,818,3,-819
,1252,2023-10-20 13:33:08.43,260,-234,-2064,-305,50,-144,568,589,-21,-578
,1253,2023-10-20 13:33:08.44,262,-217,-2056,-314,37,-150,832,822,10,-827
,1254,2023-10-20 13:33:08.45,250,-199,-2045,-328,3,-161,572,596,-24,-584
,1255,2023-10-20 13:33:08.46,246,-186,-2030,-341,-11,-168,816,817,-1,-816
,1256,2023-10-20 13:33:08.47,237,-170,-2027,-355,-21,-181,545,567,-22,-556
,1257,2023-10-20 13:33:08.48,229,-193,-2076,-366,-31,-192,800,790,10,-795
,1258,2023-10-20 13:33:08.49,231,-191,-2032,-364,-52,-201,535,555,-20,-545
,1259,2023-10-20 13:33:08.50,209,-162,-1997,-355,-66,-203,802,791,11,-796
,1260,2023-10-20 13:33:08.51,245,-166,-2033,-347,-63,-220,551,557,-6,-554
,1261,2023-10-20 13:33:08.52,203,-162,-2031,-333,-52,-233,793,773,20,-783
,1262,2023-10-20 13:33:08.53,219,-143,-2026,-302,-68,-239,510,520,-10,-515
,1263,2023-10-20 13:33:08.54,223,-126,-2029,-282,-61,-254,766,752,14,-759
,1264,2023-10-20 13:33:08.55,191,-141,-2016,-243,-56,-262,502,518,-16,-510
,1265,2023-10-20 13:33:08.56,210,-102,-2030,-206,-51,-263,764,752,12,-758
,1266,2023-10-20 13:33:08.57,187,-91,-2059,-163,-70,-271,508,521,-13,-514
,1267,2023-10-20 13:33:08.58,172,-107,-2071,-132,-76,-271,762,748,14,-755
,1268,2023-10-20 13:33:08.59,185,-92,-2039,-92,-92,-267,500,514,-14,-507
,1269,2023-10-20 13:33:08.60,158,-88,-2030,-61,-97,-263,774,758,16,-766
,1270,2023-10-20 13:33:08.61,147,-78,-2032,-31,-116,-251,529,534,-5,-531
,1271,2023-10-20 13:33:08.62,155,-59,-2017,-4,-132,-243,795,767,28,-781
,1272,2023-10-20 13:33:08.63,140,-44,-2030,16,-144,-236,528,534,-6,-531
,1273,2023-10-20 13:33:08.64,122,-26,-2043,27,-162,-228,789,768,21,-778
,1274,2023-10-20 13:33:08.65,110,-21,-2085,36,-168,-231,528,537,-9,-532
,1275,2023-10-20 13:33:08.66,113,-12,-2108,40,-193,-244,791,779,12,-785
,1276,2023-10-20 13:33:08.67,131,-11,-2115,33,-206,-253,523,545,-22,-534
,1277,2023-10-20 13:33:08.68,112,-52,-2104,20,-204,-246,982,981,1,-981
,1278,2023-10-20 13:33:08.69,93,-62,-2104,27,-194,-232,1123,1091,32,-1107
,1279,2023-10-20 13:33:08.70,69,-31,-2131,51,-194,-228,1270,1202,68,-1236
,1280,2023-10-20 13:33:08.71,78,-36,-2145,60,-203,-222,584,591,-7,-587
,1281,2023-10-20 13:33:08.72,65,-44,-2151,58,-211,-210,558,558,0,-558
,1282,2023-10-20 13:33:08.73,66,-46,-2172,70,-226,-201,318,341,-23,-329
,1283,2023-10-20 13:33:08.74,50,-48,-2157,84,-234,-195,597,586,11,-591
,1284,2023-10-20 13:33:08.75,60,-31,-2166,95,-248,-189,396,418,-22,-407
,1285,2023-10-20 13:33:08.76,59,4,-2117,97,-249,-192,629,623,6,-626
,1286,2023-10-20 13:33:08.77,38,-20,-2118,101,-237,-195,395,421,-26,-408
,1287,2023-10-20 13:33:08.78,28,-8,-2095,120,-250,-199,649,641,8,-645
,1288,2023-10-20 13:33:08.79,24,-17,-2090,139,-259,-197,424,451,-27,-437
,1289,2023-10-20 13:33:08.80,5,-38,-2065,146,-257,-194,661,662,-1,-661
,1290,2023-10-20 13:33:08.81,-11,-53,-2070,149,-247,-184,434,461,-27,-447
,1291,2023-10-20 13:33:08.82,4,-61,-2035,150,-238,-164,671,666,5,-668
,1292,2023-10-20 13:33:08.83,-21,-50,-2012,138,-231,-133,469,492,-23,-480
,1293,2023-10-20 13:33:08.84,-2,-83,-1987,118,-213,-108,715,712,3,-713
,1294,2023-10-20 13:33:08.85,-22,-114,-1978,111,-188,-81,497,520,-23,-508
,1295,2023-10-20 13:33:08.86,-17,-107,-1977,120,-185,-47,741,735,6,-738
,1296,2023-10-20 13:33:08.87,-29,-74,-1995,118,-178,-14,523,543,-20,-533
,1297,2023-10-20 13:33:08.88,-27,-91,-2023,123,-183,18,758,755,3,-756
,1298,2023-10-20 13:33:08.89,-36,-81,-2027,126,-172,28,541,560,-19,-550
,1299,2023-10-20 13:33:08.90,-49,-54,-2034,135,-169,33,758,754,4,-756
,1300,2023-10-20 13:33:08.91,-46,-29,-2073,124,-167,42,537,554,-17,-545
,1301,2023-10-20 13:33:08.92,-58,-32,-2089,119,-168,44,732,733,-1,-732
,1302,2023-10-20 13:33:08.93,-60,-44,-2102,125,-175,41,515,541,-26,-528
,1303,2023-10-20 13:33:08.94,-71,-58,-2089,125,-177,40,724,726,-2,-725
,1304,2023-10-20 13:33:08.95,-59,-73,-2098,120,-175,38,526,546,-20,-536
,1305,2023-10-20 13:33:08.96,-50,-87,-2093,132,-168,33,737,735,2,-736
,1306,2023-10-20 13:33:08.97,-65,-94,-2099,150,-162,28,536,558,-22,-547
,1307,2023-10-20 13:33:08.98,-59,-92,-2092,162,-154,26,738,735,3,-736
,1308,2023-10-20 13:33:08.99,-57,-81,-2103,167,-147,21,554,571,-17,-562
,1309,2023-10-20 13:33:09.00,-55,-84,-2110,172,-145,20,777,762,15,-769
,1310,2023-10-20 13:33:09.01,-72,-89,-2109,177,-141,16,594,608,-14,-601
,1311,2023-10-20 13:33:09.02,-84,-101,-2125,198,-149,15,786,776,10,-781
,1312,2023-10-20 13:33:09.03,-86,-114,-2096,202,-158,16,596,610,-14,-603
,1313,2023-10-20 13:33:09.04,-96,-114,-2089,211,-165,23,794,776,18,-785
,1314,2023-10-20 13:33:09.05,-103,-134,-2079,220,-179,29,618,628,-10,-623
,1315,2023-10-20 13:33:09.06,-103,-148,-2052,227,-185,37,1432,1372,60,-1402
,1316,2023-10-20 13:33:09.07,-105,-142,-2037,238,-196,50,2047,2022,25,-2034
,1317,2023-10-20 13:33:09.08,-115,-154,-2015,247,-193,56,2047,1621,426,-1834
,1318,2023-10-20 13:33:09.09,-110,-150,-1994,253,-194,60,2047,506,1541,-1276
,1319,2023-10-20 13:33:09.10,-118,-157,-1982,251,-187,68,2047,30,2017,-1038
,1320,2023-10-20 13:33:09.11,-120,-177,-2004,256,-178,74,2047,-79,2126,-984
,1321,2023-10-20 13:33:09.12,-127,-198,-2008,263,-178,82,2047,772,1275,-1409
,1322,2023-10-20 13:33:09.13,-146,-204,-2016,265,-170,94,2047,1581,466,-1814
,1323,2023-10-20 13:33:09.14,-140,-216,-2020,266,-157,105,2047,1973,74,-2010
,1324,2023-10-20 13:33:09.15,-123,-230,-1985,267,-143,104,2047,1803,244,-1925
,1325,2023-10-20 13:33:09.16,-117,-241,-1955,295,-110,101,2047,1675,372,-1861
,1326,2023-10-20 13:33:09.17,-103,-272,-1972,294,-100,117,2047,1543,504,-1795
,1327,2023-10-20 13:33:09.18,-120,-269,-1987,273,-61,154,2047,1700,347,-1873
,1328,2023-10-20 13:33:09.19,-122,-296,-2037,256,-39,171,2047,1747,300,-1897
,1329,2023-10-20 13:33:09.20,-127,-311,-2036,246,-22,186,2047,1681,366,-1864
,1330,2023-10-20 13:33:09.21,-128,-315,-2028,248,0,200,2047,1647,400,-1847
,1331,2023-10-20 13:33:09.22,-124,-316,-2032,256,12,211,2047,1963,84,-2005
,1332,2023-10-20 13:33:09.23,-112,-273,-2006,250,51,211,2047,1996,51,-2021
,1333,2023-10-20 13:33:09.24,-120,-283,-2004,245,81,201,2047,2017,30,-2032
,1334,2023-10-20 13:33:09.25,-106,-310,-2007,230,103,193,2047,2028,19,-2037
,1335,2023-10-20 13:33:09.26,-90,-358,-2004,216,126,201,2047,2024,23,-2035
,1336,2023-10-20 13:33:09.27,-85,-366,-1995,203,158,212,2047,2026,21,-2036
,1337,2023-10-20 13:33:09.28,-78,-344,-2000,196,186,214,2047,2024,23,-2035
,1338,2023-10-20 13:33:09.29,-87,-351,-2001,184,209,216,2047,2031,16,-2039
,1339,2023-10-20 13:33:09.30,-66,-345,-2001,170,226,214,2047,2032,15,-2039
,1340,2023-10-20 13:33:09.31,-43,-370,-2003,159,250,211,2047,2029,18,-2038
,1341,2023-10-20 13:33:09.32,-27,-380,-2020,164,256,210,2047,2034,13,-2040
,1342,2023-10-20 13:33:09.33,-17,-341,-2001,160,264,209,2047,2035,12,-2041
,1343,2023-10-20 13:33:09.34,-11,-335,-2009,151,273,193,2047,2035,12,-2041
,1344,2023-10-20 13:33:09.35,8,-339,-2027,129,284,178,2047,2030,17,-2038
,1345,2023-10-20 13:33:09.36,22,-320,-2070,112,268,157,2047,2029,18,-2038
,1346,2023-10-20 13:33:09.37,34,-289,-2062,87,255,126,2047,2029,18,-2038
,1347,2023-10-20 13:33:09.38,42,-269,-2076,64,234,77,2047,2032,15,-2039
,1348,2023-10-20 13:33:09.39,46,-256,-2064,39,213,21,2047,2026,21,-2036
,1349,2023-10-20 13:33:09.40,52,-247,-2051,4,198,-53,2047,2031,16,-2039
,1350,2023-10-20 13:33:09.41,79,-219,-2060,-21,164,-128,2047,2036,11,-2041
,1351,2023-10-20 13:33:09.42,95,-177,-2069,-53,123,-207,2047,2036,11,-2041
,1352,2023-10-20 13:33:09.43,95,-138,-2047,-128,94,-294,2047,2035,12,-2041
,1353,2023-10-20 13:33:09.44,144,-154,-2068,-259,113,-393,2047,2027,20,-2037
,1354,2023-10-20 13:33:09.45,144,-195,-2080,-268,88,-462,2047,2013,34,-2030
,1355,2023-10-20 13:33:09.46,138,-204,-2091,-269,54,-523,2047,1890,157,-1968
,1356,2023-10-20 13:33:09.47,134,-165,-2120,-285,24,-603,2047,1572,475,-1809
,1357,2023-10-20 13:33:09.48,129,-143,-2129,-308,-6,-683,2047,1229,818,-1638
,1358,2023-10-20 13:33:09.49,131,-141,-2114,-336,-38,-766,2047,939,1108,-1493
,1359,2023-10-20 13:33:09.50,137,-137,-2085,-358,-73,-849,2047,666,1381,-1356
,1360,2023-10-20 13:33:09.51,168,-111,-2050,-390,-84,-933,1256,374,882,-815
,1361,2023-10-20 13:33:09.52,166,-132,-2027,-376,-118,-1011,-1072,57,-1129,507
,1362,2023-10-20 13:33:09.53,139,-133,-2029,-343,-152,-1095,-852,-255,-597,553
,1363,2023-10-20 13:33:09.54,106,-158,-2042,-320,-184,-1167,-162,-550,388,356
,1364,2023-10-20 13:33:09.55,80,-220,-2037,-289,-231,-1232,43,-790,833,373
,1365,2023-10-20 13:33:09.56,31,-282,-2071,-240,-282,-1281,-216,-955,739,585
,1366,2023-10-20 13:33:09.57,-6,-301,-2118,-157,-373,-1308,-426,-1026,600,726
,1367,2023-10-20 13:33:09.58,3,-278,-2153,-133,-460,-1324,-464,-1048,584,756
,1368,2023-10-20 13:33:09.59,-10,-231,-2106,-156,-510,-1347,-390,-1048,658,719
,1369,2023-10-20 13:33:09.60,-48,-260,-2156,-160,-546,-1383,-401,-1081,680,741
,1370,2023-10-20 13:33:09.61,-4,-130,-2114,-271,-540,-1410,-500,-1158,658,829
,1371,2023-10-20 13:33:09.62,-15,-179,-2015,-324,-583,-1476,-532,-1210,678,871
,1372,2023-10-20 13:33:09.63,-27,-120,-2068,-376,-579,-1549,-482,-1211,729,846
,1373,2023-10-20 13:33:09.64,-3,-117,-2090,-463,-569,-1630,-390,-1167,777,778
,1374,2023-10-20 13:33:09.65,-4,-123,-2066,-526,-563,-1722,-281,-1120,839,700
,1375,2023-10-20 13:33:09.66,15,-122,-2097,-618,-524,-1814,-133,-1072,939,602
,1376,2023-10-20 13:33:09.67,20,-199,-2091,-712,-471,-1882,96,-1015,1111,459
,1377,2023-10-20 13:33:09.68,36,-233,-2048,-737,-466,-1921,270,-958,1228,344
,1378,2023-10-20 13:33:09.69,40,-253,-2015,-796,-411,-1947,416,-903,1319,243
,1379,2023-10-20 13:33:09.70,51,-299,-2009,-814,-408,-1933,553,-831,1384,139
,1380,2023-10-20 13:33:09.71,22,-318,-2065,-851,-340,-1907,833,-706,1539,-63
,1381,2023-10-20 13:33:09.72,5,-290,-2049,-827,-390,-1843,1166,-515,1681,-325
,1382,2023-10-20 13:33:09.73,26,-294,-2038,-803,-383,-1759,1544,-262,1806,-641
,1383,2023-10-20 13:33:09.74,-36,-326,-2046,-763,-390,-1652,2047,23,2024,-1035
,1384,2023-10-20 13:33:09.75,-31,-319,-2017,-714,-411,-1528,2047,338,1709,-1192
,1385,2023-10-20 13:33:09.76,-77,-301,-1986,-636,-428,-1411,2047,654,1393,-1350
,1386,2023-10-20 13:33:09.77,-45,-243,-1994,-582,-405,-1299,2047,971,1076,-1509
,1387,2023-10-20 13:33:09.78,-78,-249,-1938,-546,-352,-1185,2047,1216,831,-1631
,1388,2023-10-20 13:33:09.79,-97,-286,-1944,-467,-324,-1049,2047,1422,625,-1734
,1389,2023-10-20 13:33:09.80,-126,-227,-1998,-385,-325,-937,2047,1552,495,-1799
,1390,2023-10-20 13:33:09.81,-86,-188,-1966,-343,-276,-837,2047,1666,381,-1856
,1391,2023-10-20 13:33:09.82,-139,-236,-1993,-285,-228,-761,2047,1665,382,-1856
,1392,2023-10-20 13:33:09.83,-182,-263,-2016,-201,-203,-674,2047,1640,407,-1843
,1393,2023-10-20 13:33:09.84,-173,-199,-2067,-102,-199,-587,2047,1539,508,-1793
,1394,2023-10-20 13:33:09.85,-186,-183,-2086,-33,-180,-508,2047,1504,543,-1775
,1395,2023-10-20 13:33:09.86,-228,-120,-2108,-9,-181,-451,2047,1409,638,-1728
,1396,2023-10-20 13:33:09.87,-254,-133,-2152,-42,-174,-401,2047,1545,502,-1796
,1397,2023-10-20 13:33:09.88,-287,-106,-2163,-97,-158,-343,2047,1974,73,-2010
,1398,2023-10-20 13:33:09.89,-309,-93,-2144,-107,-175,-304,2047,2022,25,-2034
,1399,2023-10-20 13:33:09.90,-321,-97,-2109,-76,-209,-283,2047,2025,22,-2036
,1400,2023-10-20 13:33:09.91,-331,-59,-2090,-52,-245,-268,2047,2025,22,-2036
,1401,2023-10-20 13:33:09.92,-319,-48,-2049,-78,-254,-246,2047,2027,20,-2037
,1402,2023-10-20 13:33:09.93,-303,-65,-1999,-97,-247,-232,2047,2028,19,-2037
,1403,2023-10-20 13:33:09.94,-311,-48,-1958,-100,-241,-221,2047,2025,22,-2036
,1404,2023-10-20 13:33:09.95,-262,-64,-1918,-96,-212,-208,2047,2032,15,-2039
,1405,2023-10-20 13:33:09.96,-238,-56,-1881,-72,-179,-185,2047,2037,10,-2042
,1406,2023-10-20 13:33:09.97,-243,-32,-1889,-47,-133,-176,2047,2032,15,-2039
,1407,2023-10-20 13:33:09.98,-224,-28,-1940,-29,-91,-175,2047,2036,11,-2041
,1408,2023-10-20 13:33:09.99,-242,-14,-1935,-13,-54,-177,2047,2024,23,-2035
,1409,2023-10-20 13:33:10.00,-233,-21,-1944,2,-29,-176,2047,2030,17,-2038
,1410,2023-10-20 13:33:10.01,-245,-39,-1961,7,1,-167,2047,2025,22,-2036
,1411,2023-10-20 13:33:10.02,-235,-38,-1979,14,-1,-147,2047,1863,184,-1955
,1412,2023-10-20 13:33:10.03,-227,-48,-1985,38,-8,-135,2047,1522,525,-1784
,1413,2023-10-20 13:33:10.04,-201,-84,-1953,74,11,-140,2047,1324,723,-1685
,1414,2023-10-20 13:33:10.05,-197,-88,-1964,127,27,-139,2047,1480,567,-1763
,1415,2023-10-20 13:33:10.06,-197,-67,-1985,175,31,-129,2047,1599,448,-1823
,1416,2023-10-20 13:33:10.07,-172,-41,-1997,210,46,-107,2047,1587,460,-1817
,1417,2023-10-20 13:33:10.08,-213,-23,-2019,248,52,-91,2047,1445,602,-1746
,1418,2023-10-20 13:33:10.09,-177,-35,-2089,279,36,-79,2047,1336,711,-1691
,1419,2023-10-20 13:33:10.10,-192,-89,-2062,281,26,-65,2047,1230,817,-1638
,1420,2023-10-20 13:33:10.11,-160,-104,-2084,299,19,-36,2047,949,1098,-1498
,1421,2023-10-20 13:33:10.12,-185,-127,-2060,307,30,-5,264,44,220,-154
,1422,2023-10-20 13:33:10.13,-180,-135,-2084,331,21,55,-2014,-783,-1231,1398
,1423,2023-10-20 13:33:10.14,-201,-134,-2077,352,5,114,-2048,-1296,-752,1672
,1424,2023-10-20 13:33:10.15,-200,-103,-2097,367,-20,167,-1930,-1561,-369,1745
,1425,2023-10-20 13:33:10.16,-217,-102,-2065,375,-48,206,-1604,-1583,-21,1593
,1426,2023-10-20 13:33:10.17,-216,-81,-2038,376,-62,246,-1475,-1571,96,1523
,1427,2023-10-20 13:33:10.18,-225,-76,-2028,371,-66,284,-1472,-1531,59,1501
,1428,2023-10-20 13:33:10.19,-254,-72,-2028,358,-73,309,-1585,-1580,-5,1582
,1429,2023-10-20 13:33:10.20,-294,-85,-2040,354,-99,328,-1606,-1578,-28,1592
,1430,2023-10-20 13:33:10.21,-319,-78,-2028,351,-122,345,-1591,-1571,-20,1581
,1431,2023-10-20 13:33:10.22,-314,-70,-2001,352,-152,352,-1450,-1444,-6,1447
,1432,2023-10-20 13:33:10.23,-327,-73,-1975,341,-158,348,-1340,-1339,-1,1339
,1433,2023-10-20 13:33:10.24,-340,-66,-1954,326,-147,340,-1104,-1102,-2,1103
,1434,2023-10-20 13:33:10.25,-363,-101,-1962,313,-138,335,-893,-895,2,894
,1435,2023-10-20 13:33:10.26,-372,-120,-1966,292,-148,347,-689,-688,-1,688
,1436,2023-10-20 13:33:10.27,-394,-162,-1977,268,-164,376,-741,-730,-11,735
,1437,2023-10-20 13:33:10.28,-446,-204,-2014,235,-162,413,-744,-731,-13,737
,1438,2023-10-20 13:33:10.29,-463,-192,-2034,232,-172,444,-871,-854,-17,862
,1439,2023-10-20 13:33:10.30,-479,-134,-2019,239,-170,434,-840,-828,-12,834
,1440,2023-10-20 13:33:10.31,-480,-49,-2013,241,-183,398,-939,-923,-16,931
,1441,2023-10-20 13:33:10.32,-510,-38,-2038,219,-182,354,-895,-881,-14,888
,1442,2023-10-20 13:33:10.33,-529,-15,-2053,177,-187,307,-997,-979,-18,988
,1443,2023-10-20 13:33:10.34,-534,-7,-2057,133,-182,262,-953,-938,-15,945
,1444,2023-10-20 13:33:10.35,-535,-1,-2051,99,-187,208,-1052,-1033,-19,1042
,1445,2023-10-20 13:33:10.36,-509,-2,-2041,51,-164,150,-1005,-988,-17,996
,1446,2023-10-20 13:33:10.37,-515,-49,-2014,17,-141,98,-1097,-1076,-21,1086
,1447,2023-10-20 13:33:10.38,-522,-67,-2020,3,-123,58,-1049,-1027,-22,1038
,1448,2023-10-20 13:33:10.39,-504,-65,-2041,-20,-107,41,-1134,-1098,-36,1116
,1449,2023-10-20 13:33:10.40,-501,-56,-2051,-38,-113,30,-1065,-1012,-53,1038
,1450,2023-10-20 13:33:10.41,-509,-47,-2043,-66,-128,11,-1113,-1007,-106,1060
,1451,2023-10-20 13:33:10.42,-498,-34,-2045,-103,-114,-6,-988,-888,-100,938
,1452,2023-10-20 13:33:10.43,-481,-21,-2066,-134,-100,-12,-907,-806,-101,856
,1453,2023-10-20 13:33:10.44,-476,-15,-2062,-158,-97,-17,-740,-694,-46,717
,1454,2023-10-20 13:33:10.45,-478,-11,-2055,-173,-108,-22,-644,-660,16,652
,1455,2023-10-20 13:33:10.46,-483,-10,-2046,-202,-112,-20,-53,-135,82,94
,1456,2023-10-20 13:33:10.47,-459,4,-2022,-236,-96,-11,1529,1382,147,-1455
,1457,2023-10-20 13:33:10.48,-453,3,-1997,-265,-75,-8,2047,2047,0,-2047
,1458,2023-10-20 13:33:10.49,-434,40,-1988,-292,-47,-11,2047,1701,346,-1874
,1459,2023-10-20 13:33:10.50,-439,38,-1989,-301,-19,-22,2047,481,1566,-1264
,1460,2023-10-20 13:33:10.51,-434,45,-1983,-304,7,-24,600,-15,615,-292
,1461,2023-10-20 13:33:10.52,-451,41,-1993,-301,31,-24,-1454,-320,-1134,887
,1462,2023-10-20 13:33:10.53,-427,42,-2006,-303,76,-2,-1087,-358,-729,722
,1463,2023-10-20 13:33:10.54,-420,33,-2014,-307,94,18,-353,-436,83,394
,1464,2023-10-20 13:33:10.55,-413,23,-2005,-307,110,40,42,-473,515,215
,1465,2023-10-20 13:33:10.56,-381,32,-1991,-289,128,65,-104,-519,415,311
,1466,2023-10-20 13:33:10.57,-376,23,-1966,-278,158,86,-197,-487,290,342
,1467,2023-10-20 13:33:10.58,-374,-2,-1974,-254,194,109,-263,-467,204,365
,1468,2023-10-20 13:33:10.59,-367,-32,-1982,-229,217,139,-99,-377,278,238
,1469,2023-10-20 13:33:10.60,-380,-40,-2005,-181,232,181,-79,-352,273,215
,1470,2023-10-20 13:33:10.61,-400,-30,-2026,-136,241,221,75,-253,328,89
,1471,2023-10-20 13:33:10.62,-390,3,-2054,-104,250,251,26,-226,252,100
,1472,2023-10-20 13:33:10.63,-387,42,-2081,-103,267,280,157,-110,267,-23
,1473,2023-10-20 13:33:10.64,-372,47,-2083,-110,274,301,106,-83,189,-11
,1474,2023-10-20 13:33:10.65,-407,74,-2091,-122,295,314,247,43,204,-145
,1475,2023-10-20 13:33:10.66,-369,137,-2105,-105,295,310,180,52,128,-116
,1476,2023-10-20 13:33:10.67,-336,128,-2044,-75,279,285,209,73,136,-141
,1477,2023-10-20 13:33:10.68,-328,120,-1983,-53,290,255,187,97,90,-142
,1478,2023-10-20 13:33:10.69,-330,103,-1988,-42,327,245,1346,1231,115,-1288
,1479,2023-10-20 13:33:10.70,-357,86,-2043,-14,341,270,2047,2047,0,-2047
,1480,2023-10-20 13:33:10.71,-358,76,-2068,16,307,302,2047,2038,9,-2042
,1481,2023-10-20 13:33:10.72,-333,59,-2058,23,287,331,2047,2039,8,-2043
,1482,2023-10-20 13:33:10.73,-312,68,-2020,36,277,358,2047,2047,0,-2047
,1483,2023-10-20 13:33:10.74,-247,129,-1922,48,289,361,2047,2039,8,-2043
,1484,2023-10-20 13:33:10.75,-202,201,-1905,74,345,333,2047,2038,9,-2042
,1485,2023-10-20 13:33:10.76,-181,209,-1866,122,380,286,2047,2041,6,-2044
,1486,2023-10-20 13:33:10.77,-177,212,-1909,160,417,239,2047,2047,0,-2047
,1487,2023-10-20 13:33:10.78,-189,203,-1960,176,447,200,2047,2047,0,-2047
,1488,2023-10-20 13:33:10.79,-181,122,-1981,206,469,176,2047,2038,9,-2042
,1489,2023-10-20 13:33:10.80,-192,48,-1997,226,494,160,2047,2036,11,-2041
,1490,2023-10-20 13:33:10.81,-160,15,-2016,259,514,159,2047,2037,10,-2042
,1491,2023-10-20 13:33:10.82,-124,-20,-2027,296,523,165,2047,2033,14,-2040
,1492,2023-10-20 13:33:10.83,-108,-55,-2021,344,523,174,2047,2034,13,-2040
,1493,2023-10-20 13:33:10.84,-90,-60,-2029,373,541,182,2047,2038,9,-2042
,1494,2023-10-20 13:33:10.85,-75,-41,-2024,364,577,183,2047,2032,15,-2039
,1495,2023-10-20 13:33:10.86,-53,-45,-2054,374,585,175,2047,2047,0,-2047
,1496,2023-10-20 13:33:10.87,-48,-48,-2029,376,579,176,2047,2022,25,-2034
,1497,2023-10-20 13:33:10.88,-28,-51,-2067,357,586,173,2047,2036,11,-2041
,1498,2023-10-20 13:33:10.89,-13,-34,-2088,349,564,162,2047,2043,4,-2045
,1499,2023-10-20 13:33:10.90,-7,-42,-2101,327,545,145,2047,2042,5,-2044
,1500,2023-10-20 13:33:10.91,5,-10,-2115,291,518,122,2047,2043,4,-2045
,1501,2023-10-20 13:33:10.92,31,-58,-2099,240,484,113,2047,2039,8,-2043
,1502,2023-10-20 13:33:10.93,61,-103,-2052,179,469,120,2047,2042,5,-2044
,1503,2023-10-20 13:33:10.94,82,-146,-2063,109,465,154,2047,2037,10,-2042
,1504,2023-10-20 13:33:10.95,81,-207,-2070,63,457,199,2047,2036,11,-2041
,1505,2023-10-20 13:33:10.96,69,-201,-2092,69,444,219,2047,2041,6,-2044
,1506,2023-10-20 13:33:10.97,93,-158,-2079,98,417,201,2047,2040,7,-2043
,1507,2023-10-20 13:33:10.98,89,-111,-2075,101,386,169,2047,2032,15,-2039
,1508,2023-10-20 13:33:10.99,94,-46,-2122,78,357,137,2047,2037,10,-2042
,1509,2023-10-20 13:33:11.00,123,-21,-2123,39,323,78,2047,2041,6,-2044
,1510,2023-10-20 13:33:11.01,142,-5,-2123,-7,280,15,2047,2037,10,-2042
,1511,2023-10-20 13:33:11.02,145,-31,-2106,-55,243,-42,2047,2032,15,-2039
,1512,2023-10-20 13:33:11.03,143,-12,-2095,-99,207,-92,2047,2030,17,-2038
,1513,2023-10-20 13:33:11.04,140,-42,-2100,-136,179,-143,2047,2021,26,-2034
,1514,2023-10-20 13:33:11.05,133,-81,-2121,-156,137,-191,2047,1973,74,-2010
,1515,2023-10-20 13:33:11.06,131,-136,-2112,-174,104,-219,2047,1818,229,-1932
,1516,2023-10-20 13:33:11.07,123,-128,-2090,-174,69,-233,2047,1632,415,-1839
,1517,2023-10-20 13:33:11.08,137,-118,-2070,-177,33,-241,2047,1443,604,-1745
,1518,2023-10-20 13:33:11.09,130,-122,-2062,-182,14,-257,2047,1357,690,-1702
,1519,2023-10-20 13:33:11.10,130,-92,-2053,-160,-22,-264,2047,1318,729,-1682
,1520,2023-10-20 13:33:11.11,108,-74,-2053,-156,-42,-267,2047,1303,744,-1675
,1521,2023-10-20 13:33:11.12,95,-80,-2058,-165,-52,-277,-184,1276,-1460,-546
,1522,2023-10-20 13:33:11.13,83,-93,-2063,-170,-70,-279,-262,1254,-1516,-496
,1523,2023-10-20 13:33:11.14,55,-110,-2067,-172,-94,-274,1068,1228,-160,-1148
,1524,2023-10-20 13:33:11.15,53,-118,-2098,-169,-122,-258,2047,1215,832,-1631
,1525,2023-10-20 13:33:11.16,28,-122,-2102,-162,-152,-226,2047,1188,859,-1617
,1526,2023-10-20 13:33:11.17,8,-146,-2102,-170,-174,-188,2047,1143,904,-1595
,1527,2023-10-20 13:33:11.18,9,-113,-2070,-182,-171,-156,2047,1070,977,-1558
,1528,2023-10-20 13:33:11.19,10,-91,-2052,-169,-184,-126,2047,1011,1036,-1529
,1529,2023-10-20 13:33:11.20,9,-72,-2029,-167,-172,-100,846,953,-107,-899
,1530,2023-10-20 13:33:11.21,-3,-60,-2027,-155,-148,-78,-758,904,-1662,-73
,1531,2023-10-20 13:33:11.22,-16,-8,-2006,-140,-128,-64,57,847,-790,-452
,1532,2023-10-20 13:33:11.23,-17,-15,-2004,-128,-102,-52,1164,799,365,-981
,1533,2023-10-20 13:33:11.24,-61,-27,-2007,-111,-81,-43,1408,757,651,-1082
,1534,2023-10-20 13:33:11.25,-38,-47,-1993,-87,-52,-28,1035,713,322,-874
,1535,2023-10-20 13:33:11.26,-71,-40,-2022,-52,-29,-3,742,666,76,-704
,1536,2023-10-20 13:33:11.27,-58,-41,-2047,-14,-1,18,669,622,47,-645
,1537,2023-10-20 13:33:11.28,-41,-74,-1977,43,18,27,681,581,100,-631
,1538,2023-10-20 13:33:11.29,-50,-93,-1995,90,58,57,665,565,100,-615
,1539,2023-10-20 13:33:11.30,-41,-73,-2031,95,77,115,536,551,-15,-543
,1540,2023-10-20 13:33:11.31,-39,-147,-2069,90,86,191,320,542,-222,-431
,1541,2023-10-20 13:33:11.32,-79,-279,-2070,107,115,296,112,539,-427,-325
,1542,2023-10-20 13:33:11.33,-94,-332,-2084,155,144,409,-80,519,-599,-219
,1543,2023-10-20 13:33:11.34,-90,-294,-2073,199,122,532,-208,497,-705,-144
,1544,2023-10-20 13:33:11.35,-36,-264,-2032,198,125,644,-296,469,-765,-86
,1545,2023-10-20 13:33:11.36,-36,-271,-2047,213,139,745,-324,458,-782,-67
,1546,2023-10-20 13:33:11.37,-27,-273,-2045,238,156,855,-316,467,-783,-75
,1547,2023-10-20 13:33:11.38,-32,-247,-2032,257,154,951,-226,516,-742,-145
,1548,2023-10-20 13:33:11.39,-24,-255,-2043,273,170,1052,-141,543,-684,-201
,1549,2023-10-20 13:33:11.40,-28,-247,-2051,273,179,1134,-52,573,-625,-260
,1550,2023-10-20 13:33:11.41,-19,-245,-2070,269,184,1217,-15,560,-575,-272
,1551,2023-10-20 13:33:11.42,-34,-206,-2106,248,188,1300,31,555,-524,-293
,1552,2023-10-20 13:33:11.43,-36,-142,-2122,206,202,1360,43,525,-482,-284
,1553,2023-10-20 13:33:11.44,-42,-136,-2141,214,173,1411,89,503,-414,-296
,1554,2023-10-20 13:33:11.45,-20,-94,-2138,198,134,1445,111,457,-346,-284
,1555,2023-10-20 13:33:11.46,-9,-106,-2137,150,123,1463,141,423,-282,-282
,1556,2023-10-20 13:33:11.47,10,-131,-2086,104,125,1472,118,365,-247,-241
,1557,2023-10-20 13:33:11.48,21,-126,-2058,94,133,1492,100,312,-212,-206
,1558,2023-10-20 13:33:11.49,28,-107,-2040,88,131,1501,51,236,-185,-143
,1559,2023-10-20 13:33:11.50,68,-62,-2022,52,141,1495,45,174,-129,-109
,1560,2023-10-20 13:33:11.51,76,-84,-2002,16,169,1502,17,104,-87,-60
,1561,2023-10-20 13:33:11.52,95,-86,-1987,2,188,1503,25,55,-30,-40
,1562,2023-10-20 13:33:11.53,88,-84,-2001,4,210,1480,0,-17,17,8
,1563,2023-10-20 13:33:11.54,95,-49,-2011,20,228,1443,4,-64,68,30
,1564,2023-10-20 13:33:11.55,79,-63,-2060,55,233,1397,-33,-127,94,80
,1565,2023-10-20 13:33:11.56,105,-10,-2065,75,214,1338,-48,-170,122,109
,1566,2023-10-20 13:33:11.57,135,-21,-2050,90,193,1282,-113,-253,140,183
,1567,2023-10-20 13:33:11.58,138,-55,-2046,60,251,1215,-139,-312,173,225
,1568,2023-10-20 13:33:11.59,169,-34,-2070,75,265,1181,-216,-396,180,306
,1569,2023-10-20 13:33:11.60,151,-95,-2063,92,258,1149,-256,-443,187,349
,1570,2023-10-20 13:33:11.61,163,-34,-2089,93,244,1131,-339,-528,189,433
,1571,2023-10-20 13:33:11.62,133,-53,-2083,107,229,1096,-357,-569,212,463
,1572,2023-10-20 13:33:11.63,152,-39,-2076,89,217,1052,-430,-652,222,541
,1573,2023-10-20 13:33:11.64,158,-14,-2071,83,207,1001,-443,-697,254,570
,1574,2023-10-20 13:33:11.65,150,-35,-2070,73,203,955,-532,-789,257,660
,1575,2023-10-20 13:33:11.66,177,-79,-2046,72,186,915,-554,-833,279,693
,1576,2023-10-20 13:33:11.67,164,-106,-1997,89,184,878,-570,-859,289,714
,1577,2023-10-20 13:33:11.68,190,-125,-1995,109,187,857,-482,-803,321,642
,1578,2023-10-20 13:33:11.69,176,-116,-2002,119,199,835,-389,-724,335,556
,1579,2023-10-20 13:33:11.70,185,-126,-1999,132,197,814,-216,-589,373,402
,1580,2023-10-20 13:33:11.71,167,-107,-2005,135,206,779,-80,-464,384,272
,1581,2023-10-20 13:33:11.72,191,-78,-2020,127,218,736,116,-301,417,92
,1582,2023-10-20 13:33:11.73,181,-84,-2031,120,224,682,272,-150,422,-61
,1583,2023-10-20 13:33:11.74,206,-92,-2033,114,227,645,469,44,425,-256
,1584,2023-10-20 13:33:11.75,191,-101,-2021,113,221,598,564,179,385,-371
,1585,2023-10-20 13:33:11.76,189,-113,-2033,111,219,552,237,3,234,-120
,1586,2023-10-20 13:33:11.77,178,-137,-2063,115,212,521,-419,-452,33,435
,1587,2023-10-20 13:33:11.78,207,-177,-2042,130,204,486,-825,-778,-47,801
,1588,2023-10-20 13:33:11.79,188,-174,-2065,159,186,455,-777,-742,-35,759
,1589,2023-10-20 13:33:11.80,209,-180,-2063,178,174,431,-824,-812,-12,818
,1590,2023-10-20 13:33:11.81,195,-175,-2071,199,158,403,-750,-751,1,750
,1591,2023-10-20 13:33:11.82,186,-160,-2089,203,157,375,-916,-906,-10,911
,1592,2023-10-20 13:33:11.83,191,-147,-2087,213,125,345,-904,-894,-10,899
,1593,2023-10-20 13:33:11.84,190,-162,-2057,188,120,321,-1082,-1062,-20,1072
,1594,2023-10-20 13:33:11.85,175,-178,-2052,181,104,295,-1031,-1019,-12,1025
,1595,2023-10-20 13:33:11.86,169,-204,-2053,181,91,272,-1106,-1092,-14,1099
,1596,2023-10-20 13:33:11.87,156,-233,-2088,183,89,259,-998,-991,-7,994
,1597,2023-10-20 13:33:11.88,174,-245,-2068,186,65,257,-1131,-1116,-15,1123
,1598,2023-10-20 13:33:11.89,149,-226,-2096,176,52,250,-1100,-1084,-16,1092
,1599,2023-10-20 13:33:11.90,155,-184,-2058,164,33,239,-1228,-1208,-20,1218
,1600,2023-10-20 13:33:11.91,161,-189,-2078,138,37,228,-1165,-1139,-26,1152
,1601,2023-10-20 13:33:11.92,149,-161,-2045,116,13,202,-1206,-1157,-49,1181
,1602,2023-10-20 13:33:11.93,177,-169,-2039,111,2,163,-1070,-1018,-52,1044
,1603,2023-10-20 13:33:11.94,195,-167,-2022,90,19,132,-1135,-1056,-79,1095
,1604,2023-10-20 13:33:11.95,201,-151,-2042,62,26,112,-1057,-977,-80,1017
,1605,2023-10-20 13:33:11.96,187,-203,-2038,34,30,97,-1180,-1052,-128,1116
,1606,2023-10-20 13:33:11.97,178,-214,-2045,6,53,79,-1126,-970,-156,1048
,1607,2023-10-20 13:33:11.98,162,-192,-2065,-3,57,66,-1224,-924,-300,1074
,1608,2023-10-20 13:33:11.99,183,-213,-2077,-28,58,59,-1133,-814,-319,973
,1609,2023-10-20 13:33:12.00,184,-215,-2069,-44,61,57,-1165,-744,-421,954
,1610,2023-10-20 13:33:12.01,194,-225,-2081,-48,49,57,-1029,-647,-382,838
,1611,2023-10-20 13:33:12.02,191,-226,-2073,-44,49,52,-538,-27,-511,282
,1612,2023-10-20 13:33:12.03,165,-203,-2090,-34,22,52,1069,1420,-351,-1244
,1613,2023-10-20 13:33:12.04,205,-176,-2073,-47,21,53,2047,2047,0,-2047
,1614,2023-10-20 13:33:12.05,202,-196,-2057,-58,24,58,2047,2041,6,-2044
,1615,2023-10-20 13:33:12.06,195,-193,-2036,-64,23,55,2047,2044,3,-2045
,1616,2023-10-20 13:33:12.07,206,-202,-2044,-62,20,60,2047,2030,17,-2038
,1617,2023-10-20 13:33:12.08,184,-185,-2044,-60,22,71,2047,2038,9,-2042
,1618,2023-10-20 13:33:12.09,191,-182,-2042,-81,43,74,2047,2037,10,-2042
,1619,2023-10-20 13:33:12.10,180,-197,-2043,-63,16,73,2047,2042,5,-2044
,1620,2023-10-20 13:33:12.11,182,-179,-2031,-72,9,82,2047,2037,10,-2042
,1621,2023-10-20 13:33:12.12,191,-192,-2041,-69,8,81,2047,2039,8,-2043
,1622,2023-10-20 13:33:12.13,197,-199,-2036,-43,0,82,2047,2034,13,-2040
,1623,2023-10-20 13:33:12.14,186,-196,-2040,-21,-10,87,2047,2038,9,-2042
,1624,2023-10-20 13:33:12.15,200,-179,-2044,3,-30,88,2047,2036,11,-2041
,1625,2023-10-20 13:33:12.16,200,-180,-2055,11,-20,86,2047,2040,7,-2043
,1626,2023-10-20 13:33:12.17,185,-175,-2060,18,-25,79,2047,2041,6,-2044
,1627,2023-10-20 13:33:12.18,182,-172,-2048,18,-31,75,2047,2045,2,-2046
,1628,2023-10-20 13:33:12.19,176,-178,-2064,13,-30,66,2047,2045,2,-2046
,1629,2023-10-20 13:33:12.20,170,-168,-2052,10,-36,53,2047,2040,7,-2043
,1630,2023-10-20 13:33:12.21,161,-170,-2044,3,-36,45,2047,2030,17,-2038
,1631,2023-10-20 13:33:12.22,182,-181,-2045,0,-32,42,2047,2036,11,-2041
,1632,2023-10-20 13:33:12.23,161,-183,-2032,-9,-34,40,2047,2038,9,-2042
,1633,2023-10-20 13:33:12.24,162,-179,-2053,-22,-26,35,2047,2034,13,-2040
,1634,2023-10-20 13:33:12.25,158,-177,-2047,-25,-29,31,2047,2034,13,-2040
,1635,2023-10-20 13:33:12.26,159,-199,-2052,-22,-28,30,2047,2038,9,-2042
,1636,2023-10-20 13:33:12.27,163,-207,-2057,-29,-23,33,2047,2041,6,-2044
,1637,2023-10-20 13:33:12.28,161,-188,-2041,-43,-19,37,2047,2038,9,-2042
,1638,2023-10-20 13:33:12.29,169,-164,-2046,-58,-6,42,2047,2021,26,-2034
,1639,2023-10-20 13:33:12.30,178,-160,-2047,-73,6,36,2047,1295,752,-1671
,1640,2023-10-20 13:33:12.31,164,-158,-2049,-81,18,29,-318,-213,-105,265
,1641,2023-10-20 13:33:12.32,188,-156,-2048,-90,32,20,-1892,-914,-978,1403
,1642,2023-10-20 13:33:12.33,184,-164,-2036,-91,26,19,-1655,-1006,-649,1330
,1643,2023-10-20 13:33:12.34,197,-163,-2035,-85,37,17,-833,-732,-101,782
,1644,2023-10-20 13:33:12.35,170,-154,-2034,-75,39,9,-526,-686,160,606
,1645,2023-10-20 13:33:12.36,203,-170,-2029,-65,37,8,-541,-671,130,606
,1646,2023-10-20 13:33:12.37,205,-166,-2030,-49,36,10,-817,-822,5,819
,1647,2023-10-20 13:33:12.38,187,-158,-2043,-37,36,11,-893,-850,-43,871
,1648,2023-10-20 13:33:12.39,206,-161,-2045,-24,30,12,-980,-940,-40,960
,1649,2023-10-20 13:33:12.40,188,-157,-2049,-11,16,15,-939,-926,-13,932
,1650,2023-10-20 13:33:12.41,206,-149,-2054,-9,24,17,-1000,-991,-9,995
,1651,2023-10-20 13:33:12.42,196,-160,-2040,-5,16,16,-993,-984,-9,988
,1652,2023-10-20 13:33:12.43,184,-166,-2046,0,12,19,-1062,-1047,-15,1054
,1653,2023-10-20 13:33:12.44,204,-174,-2052,8,14,26,-1045,-1032,-13,1038
,1654,2023-10-20 13:33:12.45,189,-180,-2048,13,8,34,-1106,-1090,-16,1098
,1655,2023-10-20 13:33:12.46,199,-167,-2041,22,6,43,-1082,-1073,-9,1077
,1656,2023-10-20 13:33:12.47,185,-172,-2053,26,7,48,-1140,-1126,-14,1133
,1657,2023-10-20 13:33:12.48,197,-173,-2053,27,3,54,-1113,-1108,-5,1110
,1658,2023-10-20 13:33:12.49,192,-172,-2049,27,7,60,-1166,-1127,-39,1146
,1659,2023-10-20 13:33:12.50,190,-168,-2039,25,14,62,-1136,-1078,-58,1107
,1660,2023-10-20 13:33:12.51,183,-167,-2045,22,20,65,-1190,-1033,-157,1111
,1661,2023-10-20 13:33:12.52,190,-175,-2038,23,20,65,-1157,-927,-230,1042
,1662,2023-10-20 13:33:12.53,197,-177,-2047,25,29,64,-1181,-841,-340,1011
,1663,2023-10-20 13:33:12.54,197,-172,-2052,25,37,60,-1122,-728,-394,925
,1664,2023-10-20 13:33:12.55,202,-164,-2048,25,33,56,-1059,-630,-429,844
,1665,2023-10-20 13:33:12.56,203,-167,-2043,25,40,46,-927,-514,-413,720
,1666,2023-10-20 13:33:12.57,203,-156,-2051,20,43,39,-802,-406,-396,604
,1667,2023-10-20 13:33:12.58,208,-161,-2055,17,38,31,-651,-305,-346,478
,1668,2023-10-20 13:33:12.59,204,-154,-2057,12,40,22,-517,-194,-323,355
,1669,2023-10-20 13:33:12.60,204,-160,-2061,8,39,18,-385,-111,-274,248
,1670,2023-10-20 13:33:12.61,208,-165,-2057,-3,21,13,-242,4,-246,119
,1671,2023-10-20 13:33:12.62,209,-167,-2055,-10,18,7,-138,57,-195,40
,1672,2023-10-20 13:33:12.63,209,-162,-2051,-13,13,8,-9,156,-165,-73
,1673,2023-10-20 13:33:12.64,209,-161,-2051,-15,11,7,47,178,-131,-112
,1674,2023-10-20 13:33:12.65,206,-161,-2048,-19,10,7,148,271,-123,-209
,1675,2023-10-20 13:33:12.66,198,-157,-2055,-22,6,9,163,265,-102,-214
,1676,2023-10-20 13:33:12.67,197,-162,-2063,-20,3,13,259,354,-95,-306
,1677,2023-10-20 13:33:12.68,203,-158,-2049,-18,0,15,253,345,-92,-299
,1678,2023-10-20 13:33:12.69,197,-153,-2048,-16,-5,16,341,435,-94,-388
,1679,2023-10-20 13:33:12.70,205,-147,-2049,-12,-6,15,314,398,-84,-356
,1680,2023-10-20 13:33:12.71,186,-144,-2039,-9,-6,13,410,485,-75,-447
,1681,2023-10-20 13:33:12.72,211,-147,-2039,-8,0,11,368,446,-78,-407
,1682,2023-10-20 13:33:12.73,204,-148,-2042,-4,5,11,464,532,-68,-498
,1683,2023-10-20 13:33:12.74,193,-151,-2048,0,11,11,409,475,-66,-442
,1684,2023-10-20 13:33:12.75,210,-154,-2052,5,13,12,518,572,-54,-545
,1685,2023-10-20 13:33:12.76,198,-149,-2053,2,11,13,448,504,-56,-476
,1686,2023-10-20 13:33:12.77,192,-143,-2060,-3,-2,13,556,604,-48,-580
,1687,2023-10-20 13:33:12.78,193,-142,-2063,-13,-16,18,475,520,-45,-497
,1688,2023-10-20 13:33:12.79,199,-152,-2061,-23,-23,23,598,633,-35,-615
,1689,2023-10-20 13:33:12.80,201,-155,-2052,-19,-20,26,504,542,-38,-523
,1690,2023-10-20 13:33:12.81,207,-147,-2047,-13,-18,25,621,650,-29,-635
,1691,2023-10-20 13:33:12.82,180,-138,-2047,-10,-11,24,512,546,-34,-529
,1692,2023-10-20 13:33:12.83,190,-159,-2058,-9,-7,23,641,668,-27,-654
,1693,2023-10-20 13:33:12.84,190,-141,-2050,-8,-2,24,524,555,-31,-539
,1694,2023-10-20 13:33:12.85,183,-147,-2054,-6,0,27,656,678,-22,-667
,1695,2023-10-20 13:33:12.86,200,-139,-2055,-7,4,24,540,564,-24,-552
,1696,2023-10-20 13:33:12.87,193,-131,-2064,-1,1,19,678,692,-14,-685
,1697,2023-10-20 13:33:12.88,173,-125,-2069,4,-5,14,537,561,-24,-549
,1698,2023-10-20 13:33:12.89,190,-129,-2060,2,-10,13,682,693,-11,-687
,1699,2023-10-20 13:33:12.90,183,-129,-2056,6,-15,10,543,560,-17,-551
