// Data mode  : Full
// Data quality  : High
// Acceleration sensor's range  : 16g
// Gyroscope sensor's range  : 2000dps
//
//ARTIFACT,NUM,DATE,ACC_X,ACC_Y,ACC_Z,GYRO_X,GYRO_Y,GYRO_Z,EOG_L,EOG_R,EOG_H,EOG_V
,1,2023-10-27 10:32:37.70,-582,352,-1964,63,177,433,287,-16,303,-135
,2,2023-10-27 10:32:37.71,-576,362,-1963,89,168,451,52,139,-87,-95
,3,2023-10-27 10:32:37.72,-585,388,-1952,107,154,458,276,2,274,-139
,4,2023-10-27 10:32:37.73,-572,402,-1966,122,146,458,53,137,-84,-95
,5,2023-10-27 10:32:37.74,-552,411,-1941,123,146,445,264,13,251,-138
,6,2023-10-27 10:32:37.75,-572,422,-1925,119,156,426,60,137,-77,-98
,7,2023-10-27 10:32:37.76,-556,429,-1920,121,158,397,257,22,235,-139
,8,2023-10-27 10:32:37.77,-559,430,-1912,123,168,359,70,135,-65,-102
,9,2023-10-27 10:32:37.78,-556,436,-1907,136,176,317,259,26,233,-142
,10,2023-10-27 10:32:37.79,-542,420,-1917,157,189,273,84,124,-40,-104
,11,2023-10-27 10:32:37.80,-545,394,-1940,172,179,236,240,38,202,-139
,12,2023-10-27 10:32:37.81,-543,387,-1962,183,176,212,71,125,-54,-98
,13,2023-10-27 10:32:37.82,-539,365,-1957,197,162,196,228,52,176,-140
,14,2023-10-27 10:32:37.83,-537,369,-1968,203,149,190,88,115,-27,-101
,15,2023-10-27 10:32:37.84,-532,350,-1968,202,141,181,232,38,194,-135
,16,2023-10-27 10:32:37.85,-512,359,-1965,210,128,175,99,93,6,-96
,17,2023-10-27 10:32:37.86,-526,361,-1959,215,120,172,221,52,169,-136
,18,2023-10-27 10:32:37.87,-509,345,-1973,210,113,171,98,105,-7,-101
,19,2023-10-27 10:32:37.88,-504,337,-1965,203,108,170,209,69,140,-139
,20,2023-10-27 10:32:37.89,-484,299,-1972,195,88,188,108,90,18,-99
,21,2023-10-27 10:32:37.90,-487,284,-1983,183,73,204,218,68,150,-143
,22,2023-10-27 10:32:37.91,-481,251,-1982,176,57,230,127,80,47,-103
,23,2023-10-27 10:32:37.92,-482,243,-1963,179,46,261,215,66,149,-140
,24,2023-10-27 10:32:37.93,-475,230,-1962,182,53,294,134,67,67,-100
,25,2023-10-27 10:32:37.94,-472,233,-1952,189,66,329,197,74,123,-135
,26,2023-10-27 10:32:37.95,-469,199,-1945,208,88,364,130,66,64,-98
,27,2023-10-27 10:32:37.96,-472,199,-1941,238,105,396,189,88,101,-138
,28,2023-10-27 10:32:37.97,-457,167,-1905,262,131,437,143,63,80,-103
,29,2023-10-27 10:32:37.98,-440,118,-1880,287,159,492,187,99,88,-143
,30,2023-10-27 10:32:37.99,-455,66,-1867,316,190,553,152,62,90,-107
,31,2023-10-27 10:32:38.00,-435,25,-1864,357,211,635,180,114,66,-147
,32,2023-10-27 10:32:38.01,-433,-38,-1894,391,240,714,156,56,100,-106
,33,2023-10-27 10:32:38.02,-426,-65,-1939,444,260,821,168,128,40,-148
,34,2023-10-27 10:32:38.03,-427,-81,-1988,509,286,938,156,52,104,-104
,35,2023-10-27 10:32:38.04,-426,-135,-2004,577,303,1080,162,133,29,-147
,36,2023-10-27 10:32:38.05,-414,-148,-2059,646,312,1230,168,50,118,-109
,37,2023-10-27 10:32:38.06,-424,-173,-2076,718,307,1386,153,136,17,-144
,38,2023-10-27 10:32:38.07,-374,-183,-2074,776,307,1548,175,36,139,-105
,39,2023-10-27 10:32:38.08,-355,-174,-2106,824,287,1708,149,136,13,-142
,40,2023-10-27 10:32:38.09,-335,-104,-2067,870,249,1868,185,34,151,-109
,41,2023-10-27 10:32:38.10,-307,-114,-2128,887,247,2023,148,176,-28,-162
,42,2023-10-27 10:32:38.11,-280,-43,-2107,906,246,2166,193,48,145,-120
,43,2023-10-27 10:32:38.12,-274,19,-2074,928,237,2286,145,165,-20,-155
,44,2023-10-27 10:32:38.13,-255,93,-2107,929,226,2380,202,24,178,-113
,45,2023-10-27 10:32:38.14,-229,144,-2094,902,219,2442,133,162,-29,-147
,46,2023-10-27 10:32:38.15,-201,159,-2034,857,247,2464,210,16,194,-113
,47,2023-10-27 10:32:38.16,-196,208,-2018,817,255,2466,133,171,-38,-152
,48,2023-10-27 10:32:38.17,-142,314,-1996,759,290,2458,222,6,216,-114
,49,2023-10-27 10:32:38.18,-146,273,-1991,718,275,2423,132,165,-33,-148
,50,2023-10-27 10:32:38.19,-143,305,-2016,678,307,2368,235,-4,239,-115
,51,2023-10-27 10:32:38.20,-162,336,-1970,617,348,2297,122,180,-58,-151
,52,2023-10-27 10:32:38.21,-127,363,-1978,562,333,2209,239,0,239,-119
,53,2023-10-27 10:32:38.22,-144,335,-2036,498,363,2106,122,185,-63,-153
,54,2023-10-27 10:32:38.23,-108,339,-2011,443,356,1993,258,-11,269,-123
,55,2023-10-27 10:32:38.24,-111,379,-2014,386,351,1881,128,183,-55,-155
,56,2023-10-27 10:32:38.25,-108,337,-2010,306,376,1764,281,-26,307,-127
,57,2023-10-27 10:32:38.26,-92,365,-1989,228,400,1632,134,179,-45,-156
,58,2023-10-27 10:32:38.27,-37,394,-1963,136,421,1492,291,-37,328,-127
,59,2023-10-27 10:32:38.28,-52,327,-1997,58,435,1370,138,184,-46,-161
,60,2023-10-27 10:32:38.29,-35,364,-1978,-25,428,1231,300,-42,342,-129
,61,2023-10-27 10:32:38.30,-73,306,-1991,-104,419,1095,110,182,-72,-146
,62,2023-10-27 10:32:38.31,-87,296,-2043,-168,392,960,285,-53,338,-116
,63,2023-10-27 10:32:38.32,-83,293,-2110,-231,360,840,100,175,-75,-137
,64,2023-10-27 10:32:38.33,-105,289,-2116,-300,301,747,296,-63,359,-116
,65,2023-10-27 10:32:38.34,-112,284,-2152,-378,293,655,86,183,-97,-134
,66,2023-10-27 10:32:38.35,-120,280,-2159,-433,245,570,287,-62,349,-112
,67,2023-10-27 10:32:38.36,-130,294,-2163,-478,179,490,77,190,-113,-133
,68,2023-10-27 10:32:38.37,-125,307,-2155,-517,80,419,299,-73,372,-113
,69,2023-10-27 10:32:38.38,-101,351,-2170,-561,-13,349,73,184,-111,-128
,70,2023-10-27 10:32:38.39,-121,340,-2146,-614,-68,280,307,-80,387,-113
,71,2023-10-27 10:32:38.40,-113,350,-2117,-645,-114,206,68,188,-120,-128
,72,2023-10-27 10:32:38.41,-113,335,-2064,-640,-138,126,313,-90,403,-111
,73,2023-10-27 10:32:38.42,-131,351,-2068,-613,-141,55,73,181,-108,-127
,74,2023-10-27 10:32:38.43,-120,375,-2070,-570,-144,6,315,-92,407,-111
,75,2023-10-27 10:32:38.44,-148,385,-2081,-521,-143,-18,46,191,-145,-118
,76,2023-10-27 10:32:38.45,-166,406,-2095,-485,-137,-49,301,-88,389,-106
,77,2023-10-27 10:32:38.46,-186,417,-2099,-463,-140,-75,40,202,-162,-121
,78,2023-10-27 10:32:38.47,-200,408,-2066,-448,-153,-107,314,-92,406,-111
,79,2023-10-27 10:32:38.48,-227,410,-2017,-425,-184,-128,41,204,-163,-122
,80,2023-10-27 10:32:38.49,-199,398,-1959,-416,-195,-143,322,-98,420,-112
,81,2023-10-27 10:32:38.50,-191,400,-1965,-392,-176,-154,37,206,-169,-121
,82,2023-10-27 10:32:38.51,-175,444,-1919,-333,-131,-152,328,-98,426,-115
,83,2023-10-27 10:32:38.52,-194,471,-1942,-262,-51,-152,42,216,-174,-129
,84,2023-10-27 10:32:38.53,-203,476,-1927,-176,19,-158,338,-100,438,-119
,85,2023-10-27 10:32:38.54,-197,477,-1931,-88,92,-173,40,213,-173,-126
,86,2023-10-27 10:32:38.55,-179,474,-1948,1,152,-194,344,-105,449,-119
,87,2023-10-27 10:32:38.56,-178,458,-1953,73,202,-219,33,216,-183,-124
,88,2023-10-27 10:32:38.57,-177,436,-1980,132,239,-236,346,-106,452,-120
,89,2023-10-27 10:32:38.58,-161,436,-2003,187,274,-250,31,218,-187,-124
,90,2023-10-27 10:32:38.59,-144,427,-2026,229,317,-272,350,-110,460,-120
,91,2023-10-27 10:32:38.60,-123,432,-2005,266,343,-301,29,218,-189,-123
,92,2023-10-27 10:32:38.61,-101,409,-1999,300,384,-343,355,-112,467,-121
,93,2023-10-27 10:32:38.62,-72,395,-1999,322,410,-383,34,217,-183,-125
,94,2023-10-27 10:32:38.63,-61,406,-1967,326,435,-431,367,-113,480,-127
,95,2023-10-27 10:32:38.64,-37,437,-1975,320,467,-493,21,228,-207,-124
,96,2023-10-27 10:32:38.65,-27,430,-2007,298,502,-575,358,-105,463,-126
,97,2023-10-27 10:32:38.66,-33,449,-2015,269,512,-664,17,236,-219,-126
,98,2023-10-27 10:32:38.67,-29,448,-2043,252,503,-760,364,-108,472,-128
,99,2023-10-27 10:32:38.68,-13,454,-2048,235,486,-860,16,231,-215,-123
,100,2023-10-27 10:32:38.69,11,474,-2056,198,458,-978,368,-115,483,-126
,101,2023-10-27 10:32:38.70,21,446,-2058,163,439,-1110,17,222,-205,-119
,102,2023-10-27 10:32:38.71,21,489,-2062,112,426,-1248,374,-122,496,-126
,103,2023-10-27 10:32:38.72,36,513,-2082,46,418,-1389,16,222,-206,-119
,104,2023-10-27 10:32:38.73,29,505,-2069,-21,406,-1535,380,-119,499,-130
,105,2023-10-27 10:32:38.74,32,483,-2054,-75,406,-1691,24,226,-202,-125
,106,2023-10-27 10:32:38.75,60,494,-2106,-115,366,-1837,384,-120,504,-132
,107,2023-10-27 10:32:38.76,62,445,-2026,-196,358,-1963,17,220,-203,-118
,108,2023-10-27 10:32:38.77,118,441,-1992,-211,210,-2076,384,-125,509,-129
,109,2023-10-27 10:32:38.78,97,459,-2056,-266,303,-2187,21,217,-196,-119
,110,2023-10-27 10:32:38.79,114,462,-2076,-292,272,-2285,388,-128,516,-130
,111,2023-10-27 10:32:38.80,146,500,-2009,-332,298,-2399,11,213,-202,-112
,112,2023-10-27 10:32:38.81,106,432,-2057,-357,334,-2513,390,-127,517,-131
,113,2023-10-27 10:32:38.82,135,437,-2030,-361,356,-2594,17,221,-204,-119
,114,2023-10-27 10:32:38.83,192,473,-1999,-371,376,-2666,386,-119,505,-133
,115,2023-10-27 10:32:38.84,151,478,-1999,-400,407,-2730,6,224,-218,-115
,116,2023-10-27 10:32:38.85,134,437,-2038,-442,439,-2801,385,-118,503,-133
,117,2023-10-27 10:32:38.86,117,359,-2026,-460,423,-2869,17,211,-194,-114
,118,2023-10-27 10:32:38.87,112,315,-2056,-480,414,-2930,396,-121,517,-137
,119,2023-10-27 10:32:38.88,114,199,-2047,-502,394,-2954,16,211,-195,-113
,120,2023-10-27 10:32:38.89,81,174,-2128,-493,351,-2926,392,-119,511,-136
,121,2023-10-27 10:32:38.90,59,140,-2096,-492,312,-2855,19,216,-197,-117
,122,2023-10-27 10:32:38.91,61,75,-2125,-489,292,-2760,384,-114,498,-135
,123,2023-10-27 10:32:38.92,48,67,-2125,-473,261,-2656,8,211,-203,-109
,124,2023-10-27 10:32:38.93,15,25,-2093,-431,220,-2533,382,-117,499,-132
,125,2023-10-27 10:32:38.94,-15,66,-2064,-406,201,-2392,13,208,-195,-110
,126,2023-10-27 10:32:38.95,-24,120,-2052,-412,187,-2246,377,-111,488,-133
,127,2023-10-27 10:32:38.96,-37,123,-2018,-440,188,-2089,6,209,-203,-107
,128,2023-10-27 10:32:38.97,-51,134,-2030,-474,199,-1934,372,-116,488,-128
,129,2023-10-27 10:32:38.98,-71,154,-2030,-485,163,-1776,14,194,-180,-104
,130,2023-10-27 10:32:38.99,-63,162,-2004,-499,135,-1620,380,-119,499,-130
,131,2023-10-27 10:32:39.00,-59,182,-2044,-507,112,-1463,22,195,-173,-108
,132,2023-10-27 10:32:39.01,-82,202,-2042,-529,103,-1317,379,-103,482,-138
,133,2023-10-27 10:32:39.02,-124,184,-2007,-536,95,-1175,13,206,-193,-109
,134,2023-10-27 10:32:39.03,-104,163,-2039,-528,74,-1034,376,-105,481,-135
,135,2023-10-27 10:32:39.04,-130,152,-2034,-515,50,-892,-20,225,-245,-102
,136,2023-10-27 10:32:39.05,-117,164,-2055,-507,32,-732,158,644,-486,-401
,137,2023-10-27 10:32:39.06,-144,195,-2041,-486,14,-560,525,1693,-1168,-1109
,138,2023-10-27 10:32:39.07,-105,206,-2044,-472,-2,-389,152,2047,-1895,-1099
,139,2023-10-27 10:32:39.08,-94,252,-2020,-460,-15,-220,218,2047,-1829,-1132
,140,2023-10-27 10:32:39.09,-94,321,-1996,-446,-27,-72,-13,2047,-2060,-1017
,141,2023-10-27 10:32:39.10,-95,340,-2003,-431,-41,67,215,2047,-1832,-1131
,142,2023-10-27 10:32:39.11,-110,397,-1993,-413,-41,180,45,2047,-2002,-1046
,143,2023-10-27 10:32:39.12,-113,414,-1989,-394,-44,263,233,2047,-1814,-1140
,144,2023-10-27 10:32:39.13,-129,409,-1993,-377,-43,330,28,2047,-2019,-1037
,145,2023-10-27 10:32:39.14,-124,400,-1988,-362,-48,399,203,2042,-1839,-1122
,146,2023-10-27 10:32:39.15,-118,373,-2002,-344,-47,480,26,2047,-2021,-1036
,147,2023-10-27 10:32:39.16,-127,372,-2017,-317,-65,580,202,2042,-1840,-1122
,148,2023-10-27 10:32:39.17,-126,348,-2024,-287,-79,700,44,2042,-1998,-1043
,149,2023-10-27 10:32:39.18,-124,328,-2020,-256,-111,840,210,2047,-1837,-1128
,150,2023-10-27 10:32:39.19,-70,298,-2028,-244,-125,982,52,2043,-1991,-1047
,151,2023-10-27 10:32:39.20,-56,255,-2046,-228,-149,1149,194,2038,-1844,-1116
,152,2023-10-27 10:32:39.21,-12,227,-2061,-178,-207,1329,33,2046,-2013,-1039
,153,2023-10-27 10:32:39.22,51,248,-2040,-123,-261,1520,174,2047,-1873,-1110
,154,2023-10-27 10:32:39.23,78,311,-2007,-76,-290,1717,21,2035,-2014,-1028
,155,2023-10-27 10:32:39.24,118,350,-1956,-38,-308,1923,160,2034,-1874,-1097
,156,2023-10-27 10:32:39.25,136,386,-1966,-8,-289,2116,5,2021,-2016,-1013
,157,2023-10-27 10:32:39.26,131,431,-1984,31,-295,2285,137,2042,-1905,-1089
,158,2023-10-27 10:32:39.27,120,448,-1991,85,-302,2401,4,2041,-2037,-1022
,159,2023-10-27 10:32:39.28,99,458,-2002,145,-329,2462,128,2043,-1915,-1085
,160,2023-10-27 10:32:39.29,130,488,-1991,182,-351,2478,23,2039,-2016,-1031
,161,2023-10-27 10:32:39.30,175,492,-1987,198,-353,2483,139,2045,-1906,-1092
,162,2023-10-27 10:32:39.31,181,535,-2010,209,-347,2497,52,2035,-1983,-1043
,163,2023-10-27 10:32:39.32,190,548,-1990,209,-361,2533,150,2032,-1882,-1091
,164,2023-10-27 10:32:39.33,203,576,-1999,209,-389,2589,48,2040,-1992,-1044
,165,2023-10-27 10:32:39.34,187,589,-2004,198,-401,2631,120,2047,-1927,-1083
,166,2023-10-27 10:32:39.35,175,616,-2000,185,-419,2640,26,2039,-2013,-1032
,167,2023-10-27 10:32:39.36,152,611,-1985,165,-443,2599,99,2031,-1932,-1065
,168,2023-10-27 10:32:39.37,141,647,-2008,156,-455,2518,40,2009,-1969,-1024
,169,2023-10-27 10:32:39.38,119,694,-1973,134,-470,2413,112,1802,-1690,-957
,170,2023-10-27 10:32:39.39,147,694,-1949,104,-460,2300,55,1695,-1640,-875
,171,2023-10-27 10:32:39.40,147,690,-1955,86,-467,2205,99,1323,-1224,-711
,172,2023-10-27 10:32:39.41,176,727,-1976,77,-478,2133,64,1182,-1118,-623
,173,2023-10-27 10:32:39.42,153,761,-1964,66,-464,2057,106,827,-721,-466
,174,2023-10-27 10:32:39.43,152,761,-1946,56,-456,1968,86,545,-459,-315
,175,2023-10-27 10:32:39.44,142,789,-1958,71,-452,1868,352,887,-535,-619
,176,2023-10-27 10:32:39.45,124,797,-1952,91,-429,1725,210,672,-462,-441
,177,2023-10-27 10:32:39.46,137,758,-1920,108,-423,1590,-50,259,-309,-104
,178,2023-10-27 10:32:39.47,131,770,-1964,115,-369,1448,152,-72,224,-40
,179,2023-10-27 10:32:39.48,135,763,-1956,134,-343,1332,113,-46,159,-33
,180,2023-10-27 10:32:39.49,131,774,-1967,159,-318,1228,258,13,245,-135
,181,2023-10-27 10:32:39.50,108,779,-1951,176,-286,1146,128,95,33,-111
,182,2023-10-27 10:32:39.51,106,737,-1924,182,-279,1062,224,70,154,-147
,183,2023-10-27 10:32:39.52,95,759,-1958,177,-252,965,126,65,61,-95
,184,2023-10-27 10:32:39.53,71,762,-1911,176,-262,858,225,56,169,-140
,185,2023-10-27 10:32:39.54,55,726,-1956,156,-231,739,144,62,82,-103
,186,2023-10-27 10:32:39.55,63,725,-1942,139,-225,622,218,77,141,-147
,187,2023-10-27 10:32:39.56,82,695,-1945,117,-220,527,153,63,90,-108
,188,2023-10-27 10:32:39.57,82,691,-1955,99,-198,444,206,98,108,-152
,189,2023-10-27 10:32:39.58,81,684,-1972,99,-197,380,154,62,92,-108
,190,2023-10-27 10:32:39.59,66,672,-1953,91,-171,320,195,110,85,-152
,191,2023-10-27 10:32:39.60,48,632,-1952,95,-164,264,160,64,96,-112
,192,2023-10-27 10:32:39.61,68,616,-1955,99,-150,201,187,122,65,-154
,193,2023-10-27 10:32:39.62,64,582,-1955,104,-147,146,171,61,110,-116
,194,2023-10-27 10:32:39.63,66,596,-1950,99,-125,102,186,136,50,-161
,195,2023-10-27 10:32:39.64,89,575,-1971,88,-113,61,177,49,128,-113
,196,2023-10-27 10:32:39.65,72,584,-1957,93,-100,50,162,148,14,-155
,197,2023-10-27 10:32:39.66,77,584,-1960,73,-82,45,161,46,115,-103
,198,2023-10-27 10:32:39.67,65,575,-1987,59,-62,50,153,160,-7,-156
,199,2023-10-27 10:32:39.68,36,580,-1980,60,-44,44,182,51,131,-116
,200,2023-10-27 10:32:39.69,49,566,-1980,58,-52,23,140,170,-30,-155
,201,2023-10-27 10:32:39.70,23,565,-1990,43,-32,-11,185,40,145,-112
,202,2023-10-27 10:32:39.71,37,545,-1991,30,-33,-46,141,173,-32,-157
,203,2023-10-27 10:32:39.72,43,541,-1988,11,-29,-68,192,36,156,-114
,204,2023-10-27 10:32:39.73,66,535,-1986,-1,-29,-66,140,183,-43,-161
,205,2023-10-27 10:32:39.74,49,535,-1984,-6,-33,-45,202,32,170,-117
,206,2023-10-27 10:32:39.75,54,535,-1986,-7,-37,-20,138,169,-31,-153
,207,2023-10-27 10:32:39.76,45,538,-1991,-9,-38,2,216,16,200,-116
,208,2023-10-27 10:32:39.77,22,536,-1984,-10,-38,2,126,186,-60,-156
,209,2023-10-27 10:32:39.78,26,528,-1979,-9,-33,-11,216,22,194,-119
,210,2023-10-27 10:32:39.79,37,526,-1978,-5,-25,-28,100,197,-97,-148
,211,2023-10-27 10:32:39.80,38,528,-1982,-1,-19,-37,212,13,199,-112
,212,2023-10-27 10:32:39.81,31,536,-1976,1,-19,-32,98,194,-96,-146
,213,2023-10-27 10:32:39.82,44,543,-1978,1,-17,-16,225,3,222,-114
,214,2023-10-27 10:32:39.83,30,536,-1983,-5,-21,-2,100,206,-106,-153
,215,2023-10-27 10:32:39.84,14,542,-1978,-8,-25,11,237,8,229,-122
,216,2023-10-27 10:32:39.85,27,535,-1981,-13,-25,14,99,213,-114,-156
,217,2023-10-27 10:32:39.86,19,542,-1970,-14,-24,10,248,-4,252,-122
,218,2023-10-27 10:32:39.87,19,544,-1967,-14,-25,0,89,205,-116,-147
,219,2023-10-27 10:32:39.88,24,544,-1978,-15,-21,1,252,-16,268,-118
,220,2023-10-27 10:32:39.89,23,548,-1982,-9,-19,-1,84,218,-134,-151
,221,2023-10-27 10:32:39.90,15,544,-1973,-9,-18,1,258,-14,272,-122
,222,2023-10-27 10:32:39.91,29,539,-1985,-3,-18,4,65,230,-165,-147
,223,2023-10-27 10:32:39.92,15,542,-1989,-3,-20,6,254,-14,268,-120
,224,2023-10-27 10:32:39.93,10,549,-1987,-6,-22,4,70,229,-159,-149
,225,2023-10-27 10:32:39.94,21,559,-1976,-11,-21,3,274,-22,296,-126
,226,2023-10-27 10:32:39.95,18,562,-1983,-12,-20,6,70,239,-169,-154
,227,2023-10-27 10:32:39.96,14,568,-1993,-11,-18,9,276,-21,297,-127
,228,2023-10-27 10:32:39.97,10,576,-1986,-10,-18,9,48,252,-204,-150
,229,2023-10-27 10:32:39.98,3,566,-1991,-8,-15,3,271,-20,291,-125
,230,2023-10-27 10:32:39.99,-1,556,-1986,-5,-13,-6,40,253,-213,-146
,231,2023-10-27 10:32:40.00,5,549,-1982,4,-13,-16,280,-30,310,-125
,232,2023-10-27 10:32:40.01,20,541,-1976,5,-18,-10,46,252,-206,-149
,233,2023-10-27 10:32:40.02,15,546,-1965,2,-16,2,288,-33,321,-127
,234,2023-10-27 10:32:40.03,24,554,-1966,-1,-19,12,29,254,-225,-141
,235,2023-10-27 10:32:40.04,11,562,-1962,-7,-20,17,290,-35,325,-127
,236,2023-10-27 10:32:40.05,-1,567,-1968,-13,-14,16,18,260,-242,-139
,237,2023-10-27 10:32:40.06,9,567,-1974,-15,-9,8,293,-36,329,-128
,238,2023-10-27 10:32:40.07,0,565,-1980,-13,-8,4,11,262,-251,-136
,239,2023-10-27 10:32:40.08,16,562,-1976,-12,-8,0,297,-37,334,-130
,240,2023-10-27 10:32:40.09,10,565,-1981,-7,-7,4,16,272,-256,-144
,241,2023-10-27 10:32:40.10,11,558,-1976,-4,-8,8,304,-40,344,-132
,242,2023-10-27 10:32:40.11,-4,560,-1968,-4,-9,8,6,261,-255,-133
,243,2023-10-27 10:32:40.12,6,564,-1983,-3,-11,7,300,-43,343,-128
,244,2023-10-27 10:32:40.13,5,563,-1976,-5,-12,4,1,288,-287,-144
,245,2023-10-27 10:32:40.14,13,565,-1969,-6,-7,3,304,-32,336,-136
,246,2023-10-27 10:32:40.15,23,565,-1967,-4,-7,3,-8,293,-301,-142
,247,2023-10-27 10:32:40.16,6,563,-1976,-3,-3,3,302,-46,348,-128
,248,2023-10-27 10:32:40.17,-7,579,-1973,-1,-2,5,-12,278,-290,-133
,249,2023-10-27 10:32:40.18,-3,574,-1985,-5,0,1,305,-48,353,-128
,250,2023-10-27 10:32:40.19,7,570,-1976,-12,0,-3,-23,290,-313,-133
,251,2023-10-27 10:32:40.20,20,567,-1972,-17,2,-5,302,-41,343,-130
,252,2023-10-27 10:32:40.21,12,580,-1970,-21,4,-8,-22,300,-322,-139
,253,2023-10-27 10:32:40.22,6,582,-1977,-28,10,-9,308,-44,352,-132
,254,2023-10-27 10:32:40.23,10,575,-1978,-32,13,-7,-22,294,-316,-136
,255,2023-10-27 10:32:40.24,25,580,-1978,-30,17,-7,313,-50,363,-131
,256,2023-10-27 10:32:40.25,16,583,-1972,-23,20,-8,-22,293,-315,-135
,257,2023-10-27 10:32:40.26,9,576,-1980,-20,23,-12,320,-51,371,-134
,258,2023-10-27 10:32:40.27,22,571,-1989,-18,20,-15,-23,288,-311,-132
,259,2023-10-27 10:32:40.28,16,575,-1980,-10,19,-17,320,-47,367,-136
,260,2023-10-27 10:32:40.29,33,572,-1985,-6,19,-15,-38,307,-345,-134
,261,2023-10-27 10:32:40.30,31,567,-1991,1,14,-11,318,-40,358,-139
,262,2023-10-27 10:32:40.31,25,569,-1987,5,11,-4,-28,307,-335,-139
,263,2023-10-27 10:32:40.32,26,569,-1992,12,11,-1,326,-46,372,-140
,264,2023-10-27 10:32:40.33,19,564,-2003,18,13,6,-27,302,-329,-137
,265,2023-10-27 10:32:40.34,23,556,-2009,28,13,10,325,-46,371,-139
,266,2023-10-27 10:32:40.35,26,547,-2005,38,7,8,-39,301,-340,-131
,267,2023-10-27 10:32:40.36,25,547,-2010,50,7,5,316,-44,360,-136
,268,2023-10-27 10:32:40.37,26,544,-2013,61,3,7,-50,305,-355,-127
,269,2023-10-27 10:32:40.38,26,535,-2013,72,1,10,315,-39,354,-138
,270,2023-10-27 10:32:40.39,33,528,-2020,82,-1,11,-48,308,-356,-130
,271,2023-10-27 10:32:40.40,27,513,-2003,93,-5,16,310,-34,344,-138
,272,2023-10-27 10:32:40.41,27,512,-1992,102,-11,15,-56,311,-367,-127
,273,2023-10-27 10:32:40.42,14,495,-1988,114,-10,13,307,-28,335,-139
,274,2023-10-27 10:32:40.43,17,488,-1986,129,-15,7,-58,316,-374,-129
,275,2023-10-27 10:32:40.44,37,479,-1985,143,-21,2,303,-26,329,-138
,276,2023-10-27 10:32:40.45,34,479,-1974,157,-12,-4,-48,315,-363,-133
,277,2023-10-27 10:32:40.46,27,471,-1971,166,-15,-4,304,-24,328,-140
,278,2023-10-27 10:32:40.47,30,487,-1970,172,-6,-10,-56,313,-369,-128
,279,2023-10-27 10:32:40.48,40,517,-1963,180,-7,-17,293,-24,317,-134
,280,2023-10-27 10:32:40.49,41,557,-1953,168,7,-40,-58,314,-372,-128
,281,2023-10-27 10:32:40.50,36,602,-1958,145,21,-71,307,-11,318,-148
,282,2023-10-27 10:32:40.51,37,645,-1965,126,26,-130,-40,320,-360,-140
,283,2023-10-27 10:32:40.52,31,715,-1974,99,26,-224,312,0,312,-156
,284,2023-10-27 10:32:40.53,23,759,-1967,61,16,-360,-50,320,-370,-135
,285,2023-10-27 10:32:40.54,6,790,-1986,17,23,-526,298,-9,307,-144
,286,2023-10-27 10:32:40.55,9,803,-1971,-24,0,-711,-51,304,-355,-126
,287,2023-10-27 10:32:40.56,-5,806,-2019,-69,6,-909,299,-4,303,-147
,288,2023-10-27 10:32:40.57,5,802,-1981,-110,-24,-1116,-48,307,-355,-129
,289,2023-10-27 10:32:40.58,7,789,-2009,-150,-39,-1327,298,12,286,-155
,290,2023-10-27 10:32:40.59,18,772,-2005,-195,-42,-1519,-43,311,-354,-134
,291,2023-10-27 10:32:40.60,24,728,-2016,-242,-45,-1684,295,18,277,-156
,292,2023-10-27 10:32:40.61,22,715,-2018,-282,-47,-1810,-47,306,-353,-129
,293,2023-10-27 10:32:40.62,34,693,-2005,-317,-38,-1914,289,29,260,-159
,294,2023-10-27 10:32:40.63,36,666,-1996,-349,-30,-2000,-47,316,-363,-134
,295,2023-10-27 10:32:40.64,21,640,-1988,-376,-18,-2073,269,43,226,-156
,296,2023-10-27 10:32:40.65,22,627,-1983,-406,4,-2129,-63,323,-386,-130
,297,2023-10-27 10:32:40.66,1,556,-1991,-434,11,-2165,262,51,211,-156
,298,2023-10-27 10:32:40.67,-19,531,-2001,-449,28,-2178,-47,308,-355,-130
,299,2023-10-27 10:32:40.68,-39,461,-1958,-434,16,-2166,287,47,240,-167
,300,2023-10-27 10:32:40.69,-45,421,-1960,-410,-4,-2127,-27,302,-329,-137
,301,2023-10-27 10:32:40.70,-69,418,-1953,-374,-19,-2069,297,42,255,-169
,302,2023-10-27 10:32:40.71,-66,382,-1952,-340,-22,-1990,-8,284,-292,-138
,303,2023-10-27 10:32:40.72,-101,353,-1957,-302,-44,-1873,306,42,264,-174
,304,2023-10-27 10:32:40.73,-130,371,-1959,-260,-52,-1735,-2,282,-284,-140
,305,2023-10-27 10:32:40.74,-175,335,-1976,-213,-55,-1598,293,51,242,-172
,306,2023-10-27 10:32:40.75,-180,360,-1999,-158,-67,-1450,-10,272,-282,-131
,307,2023-10-27 10:32:40.76,-218,373,-2000,-111,-72,-1322,273,56,217,-164
,308,2023-10-27 10:32:40.77,-228,385,-1988,-66,-80,-1198,-21,272,-293,-125
,309,2023-10-27 10:32:40.78,-265,391,-1994,-14,-95,-1082,245,70,175,-157
,310,2023-10-27 10:32:40.79,-288,409,-1971,23,-96,-984,-31,274,-305,-121
,311,2023-10-27 10:32:40.80,-279,427,-1936,47,-128,-888,666,75,591,-370
,312,2023-10-27 10:32:40.81,-324,412,-1917,54,-131,-785,736,1093,-357,-914
,313,2023-10-27 10:32:40.82,-310,412,-1901,42,-134,-685,133,2047,-1914,-1090
,314,2023-10-27 10:32:40.83,-314,420,-1915,28,-138,-586,20,2047,-2027,-1033
,315,2023-10-27 10:32:40.84,-331,444,-1926,13,-141,-490,-20,2047,-2067,-1013
,316,2023-10-27 10:32:40.85,-342,473,-1941,7,-131,-410,196,2047,-1851,-1121
,317,2023-10-27 10:32:40.86,-353,479,-1961,14,-114,-345,168,2047,-1879,-1107
,318,2023-10-27 10:32:40.87,-366,514,-1947,30,-90,-303,236,2044,-1808,-1140
,319,2023-10-27 10:32:40.88,-400,522,-1960,54,-61,-278,-300,1989,-2289,-844
,320,2023-10-27 10:32:40.89,-394,506,-1967,76,-39,-262,-482,950,-1432,-234
,321,2023-10-27 10:32:40.90,-428,478,-1962,97,-24,-258,66,-15,81,-25
,322,2023-10-27 10:32:40.91,-425,489,-1939,107,-26,-252,92,-66,158,-13
,323,2023-10-27 10:32:40.92,-415,471,-1931,104,-32,-239,286,23,263,-154
,324,2023-10-27 10:32:40.93,-400,447,-1930,92,-45,-209,19,280,-261,-149
,325,2023-10-27 10:32:40.94,-395,469,-1949,75,-66,-161,167,200,-33,-183
,326,2023-10-27 10:32:40.95,-402,481,-1938,48,-79,-108,-4,243,-247,-119
,327,2023-10-27 10:32:40.96,-404,497,-1935,14,-84,-53,185,135,50,-160
,328,2023-10-27 10:32:40.97,-387,506,-1929,-8,-78,-8,28,212,-184,-120
,329,2023-10-27 10:32:40.98,-379,529,-1921,-26,-56,21,180,150,30,-165
,330,2023-10-27 10:32:40.99,-390,534,-1923,-31,-31,35,21,212,-191,-116
,331,2023-10-27 10:32:41.00,-367,556,-1906,-31,-10,49,165,156,9,-160
,332,2023-10-27 10:32:41.01,-364,550,-1903,-30,18,58,31,206,-175,-118
,333,2023-10-27 10:32:41.02,-349,548,-1907,-29,31,85,168,162,6,-165
,334,2023-10-27 10:32:41.03,-349,561,-1908,-26,39,113,46,201,-155,-123
,335,2023-10-27 10:32:41.04,-342,542,-1903,-30,48,146,163,168,-5,-165
,336,2023-10-27 10:32:41.05,-334,538,-1915,-36,61,181,52,188,-136,-120
,337,2023-10-27 10:32:41.06,-320,519,-1908,-29,62,207,157,161,-4,-159
,338,2023-10-27 10:32:41.07,-314,526,-1902,-20,74,233,56,169,-113,-112
,339,2023-10-27 10:32:41.08,-304,517,-1935,-6,79,261,160,156,4,-158
,340,2023-10-27 10:32:41.09,-320,510,-1946,24,73,293,74,157,-83,-115
,341,2023-10-27 10:32:41.10,-331,512,-1959,62,58,320,156,179,-23,-167
,342,2023-10-27 10:32:41.11,-324,513,-1953,95,43,347,83,168,-85,-125
,343,2023-10-27 10:32:41.12,-320,496,-1978,114,39,369,161,164,-3,-162
,344,2023-10-27 10:32:41.13,-323,507,-1982,133,31,388,101,130,-29,-115
,345,2023-10-27 10:32:41.14,-328,496,-1971,144,18,412,159,160,-1,-159
,346,2023-10-27 10:32:41.15,-319,498,-1971,146,13,435,105,128,-23,-116
,347,2023-10-27 10:32:41.16,-336,483,-1969,149,-1,460,158,171,-13,-164
,348,2023-10-27 10:32:41.17,-346,481,-1977,153,-15,485,122,123,-1,-122
,349,2023-10-27 10:32:41.18,-345,481,-1974,156,-25,508,150,164,-14,-157
,350,2023-10-27 10:32:41.19,-354,481,-1982,164,-39,539,124,104,20,-114
,351,2023-10-27 10:32:41.20,-336,461,-1964,170,-39,567,140,174,-34,-157
,352,2023-10-27 10:32:41.21,-341,452,-1955,177,-43,608,130,104,26,-117
,353,2023-10-27 10:32:41.22,-326,454,-1950,184,-36,651,136,183,-47,-159
,354,2023-10-27 10:32:41.23,-305,464,-1923,195,-26,694,136,95,41,-115
,355,2023-10-27 10:32:41.24,-298,463,-1924,208,-6,744,122,190,-68,-156
,356,2023-10-27 10:32:41.25,-299,469,-1916,223,19,799,136,95,41,-115
,357,2023-10-27 10:32:41.26,-305,481,-1921,248,42,846,119,192,-73,-155
,358,2023-10-27 10:32:41.27,-309,477,-1924,271,56,889,160,81,79,-120
,359,2023-10-27 10:32:41.28,-293,462,-1926,290,80,922,111,184,-73,-147
,360,2023-10-27 10:32:41.29,-297,448,-1950,316,80,962,156,68,88,-112
,361,2023-10-27 10:32:41.30,-285,437,-1967,334,77,1001,97,184,-87,-140
,362,2023-10-27 10:32:41.31,-253,428,-1953,361,62,1060,164,65,99,-114
,363,2023-10-27 10:32:41.32,-242,439,-1979,379,56,1131,97,205,-108,-151
,364,2023-10-27 10:32:41.33,-212,467,-2001,396,50,1215,164,61,103,-112
,365,2023-10-27 10:32:41.34,-189,468,-1997,413,40,1298,92,195,-103,-143
,366,2023-10-27 10:32:41.35,-178,492,-2020,434,26,1377,173,38,135,-105
,367,2023-10-27 10:32:41.36,-168,509,-2020,445,21,1437,93,190,-97,-141
,368,2023-10-27 10:32:41.37,-164,514,-1982,448,6,1476,189,35,154,-112
,369,2023-10-27 10:32:41.38,-160,552,-2013,444,5,1491,96,204,-108,-150
,370,2023-10-27 10:32:41.39,-136,553,-1987,428,3,1491,207,31,176,-119
,371,2023-10-27 10:32:41.40,-119,567,-1974,409,-17,1498,99,205,-106,-152
,372,2023-10-27 10:32:41.41,-102,553,-1991,381,-17,1497,216,23,193,-119
,373,2023-10-27 10:32:41.42,-71,587,-1953,356,-36,1504,97,210,-113,-153
,374,2023-10-27 10:32:41.43,-95,551,-1966,343,-42,1493,226,15,211,-120
,375,2023-10-27 10:32:41.44,-93,525,-2003,346,-48,1480,91,205,-114,-148
,376,2023-10-27 10:32:41.45,-68,515,-1981,350,-62,1445,230,0,230,-115
,377,2023-10-27 10:32:41.46,-64,485,-1985,361,-66,1408,86,205,-119,-145
,378,2023-10-27 10:32:41.47,-75,422,-2006,390,-70,1368,237,-15,252,-111
,379,2023-10-27 10:32:41.48,-71,424,-1992,441,-83,1337,87,178,-91,-132
,380,2023-10-27 10:32:41.49,-65,378,-2029,492,-92,1304,249,-33,282,-108
,381,2023-10-27 10:32:41.50,-49,341,-2052,537,-106,1271,81,209,-128,-145
,382,2023-10-27 10:32:41.51,-61,347,-2085,575,-113,1244,256,-10,266,-123
,383,2023-10-27 10:32:41.52,-58,359,-2093,628,-128,1212,72,222,-150,-147
,384,2023-10-27 10:32:41.53,-78,355,-2112,686,-164,1184,260,-23,283,-118
,385,2023-10-27 10:32:41.54,-85,349,-2113,722,-184,1135,71,215,-144,-143
,386,2023-10-27 10:32:41.55,-86,327,-2142,743,-210,1083,270,-37,307,-116
,387,2023-10-27 10:32:41.56,-139,323,-2153,762,-238,1028,74,214,-140,-144
,388,2023-10-27 10:32:41.57,-113,333,-2139,782,-291,984,282,-41,323,-120
,389,2023-10-27 10:32:41.58,-129,342,-2166,775,-315,946,66,217,-151,-141
,390,2023-10-27 10:32:41.59,-107,356,-2131,752,-350,900,283,-58,341,-112
,391,2023-10-27 10:32:41.60,-143,371,-2087,723,-369,850,64,184,-120,-124
,392,2023-10-27 10:32:41.61,-151,363,-2053,667,-366,802,295,-84,379,-105
,393,2023-10-27 10:32:41.62,-169,392,-2052,600,-374,754,59,180,-121,-119
,394,2023-10-27 10:32:41.63,-175,368,-1994,519,-355,687,304,-84,388,-110
,395,2023-10-27 10:32:41.64,-198,404,-1993,431,-337,625,68,206,-138,-137
,396,2023-10-27 10:32:41.65,-201,387,-1976,342,-315,551,320,-76,396,-122
,397,2023-10-27 10:32:41.66,-216,384,-1972,270,-314,484,72,207,-135,-139
,398,2023-10-27 10:32:41.67,-204,423,-1936,198,-274,415,326,-79,405,-123
,399,2023-10-27 10:32:41.68,-228,300,-1936,149,-343,349,59,225,-166,-142
,400,2023-10-27 10:32:41.69,-259,298,-1992,86,-243,299,314,-75,389,-119
,401,2023-10-27 10:32:41.70,-192,301,-1949,64,-273,239,37,228,-191,-132
,402,2023-10-27 10:32:41.71,-215,301,-1946,22,-184,199,302,-86,388,-108
,403,2023-10-27 10:32:41.72,-208,289,-1945,-15,-123,154,28,229,-201,-128
,404,2023-10-27 10:32:41.73,-194,271,-1948,-27,-72,121,312,-84,396,-114
,405,2023-10-27 10:32:41.74,-193,276,-1969,-20,-29,90,16,225,-209,-120
,406,2023-10-27 10:32:41.75,-173,263,-1967,-20,16,51,320,-89,409,-115
,407,2023-10-27 10:32:41.76,-169,255,-2008,-19,47,14,30,229,-199,-129
,408,2023-10-27 10:32:41.77,-161,239,-2012,-29,92,-10,332,-91,423,-120
,409,2023-10-27 10:32:41.78,-140,244,-2012,-32,145,-31,30,227,-197,-128
,410,2023-10-27 10:32:41.79,-143,253,-2009,-18,170,-43,343,-99,442,-122
,411,2023-10-27 10:32:41.80,-115,258,-2008,3,192,-56,37,221,-184,-129
,412,2023-10-27 10:32:41.81,-109,244,-1999,14,226,-69,356,-101,457,-127
,413,2023-10-27 10:32:41.82,-66,262,-2005,27,243,-83,34,229,-195,-131
,414,2023-10-27 10:32:41.83,-82,234,-1994,35,279,-94,354,-107,461,-123
,415,2023-10-27 10:32:41.84,-63,230,-2001,51,288,-104,24,222,-198,-123
,416,2023-10-27 10:32:41.85,-50,231,-2012,73,286,-111,356,-115,471,-120
,417,2023-10-27 10:32:41.86,-76,215,-2029,96,295,-117,25,217,-192,-121
,418,2023-10-27 10:32:41.87,-43,231,-2008,116,291,-124,358,-119,477,-119
,419,2023-10-27 10:32:41.88,-60,199,-2039,138,290,-129,20,220,-200,-120
,420,2023-10-27 10:32:41.89,-58,211,-2044,158,293,-136,358,-116,474,-121
,421,2023-10-27 10:32:41.90,-52,198,-2024,170,274,-142,14,227,-213,-120
,422,2023-10-27 10:32:41.91,-65,214,-2051,180,276,-148,363,-115,478,-124
,423,2023-10-27 10:32:41.92,-70,200,-2035,186,242,-152,15,226,-211,-120
,424,2023-10-27 10:32:41.93,-70,184,-2050,177,240,-153,364,-121,485,-121
,425,2023-10-27 10:32:41.94,-77,173,-2037,174,187,-158,8,220,-212,-114
,426,2023-10-27 10:32:41.95,-102,162,-2050,169,164,-167,365,-122,487,-121
,427,2023-10-27 10:32:41.96,-110,146,-2066,160,115,-167,11,223,-212,-117
,428,2023-10-27 10:32:41.97,-113,131,-2103,150,85,-167,376,-118,494,-129
,429,2023-10-27 10:32:41.98,-111,135,-2131,148,48,-156,18,224,-206,-121
,430,2023-10-27 10:32:41.99,-113,139,-2134,141,14,-143,379,-122,501,-128
,431,2023-10-27 10:32:42.00,-120,162,-2135,123,2,-126,6,224,-218,-115
,432,2023-10-27 10:32:42.01,-101,197,-2110,104,-9,-125,376,-120,496,-128
,433,2023-10-27 10:32:42.02,-121,219,-2103,76,-18,-125,14,222,-208,-118
,434,2023-10-27 10:32:42.03,-122,238,-2097,34,-21,-134,386,-124,510,-131
,435,2023-10-27 10:32:42.04,-117,236,-2083,-5,-20,-148,18,216,-198,-117
,436,2023-10-27 10:32:42.05,-108,232,-2067,-38,-20,-161,389,-124,513,-132
,437,2023-10-27 10:32:42.06,-126,223,-2059,-70,-15,-175,16,217,-201,-116
,438,2023-10-27 10:32:42.07,-125,223,-2053,-95,-14,-186,387,-123,510,-132
,439,2023-10-27 10:32:42.08,-118,226,-2042,-114,-15,-195,16,219,-203,-117
,440,2023-10-27 10:32:42.09,-124,217,-2041,-131,-8,-201,403,-116,519,-143
,441,2023-10-27 10:32:42.10,-128,221,-2036,-139,-6,-201,21,211,-190,-116
,442,2023-10-27 10:32:42.11,-121,218,-2031,-132,-1,-201,394,-123,517,-135
,443,2023-10-27 10:32:42.12,-121,220,-2014,-118,19,-203,18,205,-187,-111
,444,2023-10-27 10:32:42.13,-115,207,-2015,-108,34,-205,399,-113,512,-143
,445,2023-10-27 10:32:42.14,-111,217,-2026,-96,39,-201,21,218,-197,-119
,446,2023-10-27 10:32:42.15,-120,205,-2034,-90,55,-197,393,-108,501,-142
,447,2023-10-27 10:32:42.16,-113,197,-2031,-72,49,-193,18,211,-193,-114
,448,2023-10-27 10:32:42.17,-108,202,-2018,-44,41,-188,397,-117,514,-140
,449,2023-10-27 10:32:42.18,-118,184,-2045,-29,50,-180,27,205,-178,-116
,450,2023-10-27 10:32:42.19,-95,201,-2041,-10,41,-167,393,-111,504,-141
,451,2023-10-27 10:32:42.20,-105,196,-2035,7,33,-158,20,209,-189,-114
,452,2023-10-27 10:32:42.21,-92,209,-2053,13,26,-154,392,-103,495,-144
,453,2023-10-27 10:32:42.22,-121,189,-2061,22,6,-146,35,205,-170,-120
,454,2023-10-27 10:32:42.23,-109,205,-2080,25,15,-138,396,-104,500,-146
,455,2023-10-27 10:32:42.24,-112,201,-2064,31,-14,-125,29,204,-175,-116
,456,2023-10-27 10:32:42.25,-111,196,-2069,36,-19,-120,378,-104,482,-137
,457,2023-10-27 10:32:42.26,-117,205,-2069,36,-27,-114,14,198,-184,-106
,458,2023-10-27 10:32:42.27,-111,195,-2070,36,-31,-104,372,-108,480,-132
,459,2023-10-27 10:32:42.28,-118,179,-2073,37,-25,-96,26,182,-156,-104
,460,2023-10-27 10:32:42.29,-127,178,-2065,46,-37,-83,379,-101,480,-139
,461,2023-10-27 10:32:42.30,-122,181,-2057,53,-42,-69,26,190,-164,-108
,462,2023-10-27 10:32:42.31,-131,160,-2050,55,-41,-57,368,-89,457,-139
,463,2023-10-27 10:32:42.32,-120,161,-2042,57,-34,-44,20,196,-176,-108
,464,2023-10-27 10:32:42.33,-112,162,-2036,62,-31,-29,362,-84,446,-139
,465,2023-10-27 10:32:42.34,-116,165,-2024,67,-19,-19,26,184,-158,-105
,466,2023-10-27 10:32:42.35,-124,171,-2022,70,-10,-9,359,-83,442,-138
,467,2023-10-27 10:32:42.36,-121,165,-2020,73,2,-3,30,181,-151,-105
,468,2023-10-27 10:32:42.37,-115,167,-2017,73,9,2,356,-81,437,-137
,469,2023-10-27 10:32:42.38,-110,157,-2025,79,7,7,32,170,-138,-101
,470,2023-10-27 10:32:42.39,-120,158,-2028,80,13,9,342,-74,416,-134
,471,2023-10-27 10:32:42.40,-119,164,-2041,85,6,13,30,169,-139,-99
,472,2023-10-27 10:32:42.41,-119,169,-2040,84,0,15,347,-67,414,-140
,473,2023-10-27 10:32:42.42,-128,162,-2040,80,-7,16,39,165,-126,-102
,474,2023-10-27 10:32:42.43,-115,178,-2042,75,-7,19,335,-56,391,-139
,475,2023-10-27 10:32:42.44,-120,171,-2037,64,-7,16,32,170,-138,-101
,476,2023-10-27 10:32:42.45,-128,178,-2046,56,-5,11,327,-52,379,-137
,477,2023-10-27 10:32:42.46,-118,186,-2039,47,-3,3,44,158,-114,-101
,478,2023-10-27 10:32:42.47,-120,178,-2037,40,-6,-2,331,-52,383,-139
,479,2023-10-27 10:32:42.48,-115,170,-2043,31,-4,-8,53,149,-96,-101
,480,2023-10-27 10:32:42.49,-133,174,-2036,20,-6,-12,324,-45,369,-139
,481,2023-10-27 10:32:42.50,-127,165,-2044,14,-6,-14,60,155,-95,-107
,482,2023-10-27 10:32:42.51,-123,155,-2056,15,-9,-14,312,-43,355,-134
,483,2023-10-27 10:32:42.52,-137,159,-2057,12,-12,-12,57,135,-78,-96
,484,2023-10-27 10:32:42.53,-135,152,-2057,9,-11,-6,301,-46,347,-127
,485,2023-10-27 10:32:42.54,-126,154,-2056,6,-2,-1,64,134,-70,-99
,486,2023-10-27 10:32:42.55,-124,167,-2039,8,5,3,309,-24,333,-142
,487,2023-10-27 10:32:42.56,-121,167,-2045,11,17,11,77,133,-56,-105
,488,2023-10-27 10:32:42.57,-133,169,-2046,16,20,15,296,-19,315,-138
,489,2023-10-27 10:32:42.58,-133,172,-2044,17,25,18,72,123,-51,-97
,490,2023-10-27 10:32:42.59,-131,160,-2039,13,25,20,288,-15,303,-136
,491,2023-10-27 10:32:42.60,-126,151,-2040,15,24,26,81,113,-32,-97
,492,2023-10-27 10:32:42.61,-120,145,-2039,15,16,36,286,-5,291,-140
,493,2023-10-27 10:32:42.62,-123,157,-2039,17,17,42,85,111,-26,-98
,494,2023-10-27 10:32:42.63,-118,161,-2036,20,19,47,280,6,274,-143
,495,2023-10-27 10:32:42.64,-107,175,-2019,20,24,54,97,106,-9,-101
,496,2023-10-27 10:32:42.65,-119,174,-2025,19,29,58,276,14,262,-145
,497,2023-10-27 10:32:42.66,-116,175,-2032,14,27,58,98,100,-2,-99
,498,2023-10-27 10:32:42.67,-125,176,-2036,7,28,58,261,20,241,-140
,499,2023-10-27 10:32:42.68,-119,176,-2042,3,30,54,104,93,11,-98
,500,2023-10-27 10:32:42.69,-117,177,-2051,1,27,55,258,24,234,-141
,501,2023-10-27 10:32:42.70,-124,174,-2047,3,25,59,112,82,30,-97
,502,2023-10-27 10:32:42.71,-102,172,-2042,3,21,59,253,28,225,-140
,503,2023-10-27 10:32:42.72,-121,174,-2050,5,18,60,119,74,45,-96
,504,2023-10-27 10:32:42.73,-104,176,-2053,6,20,61,248,42,206,-145
,505,2023-10-27 10:32:42.74,-106,188,-2051,5,23,62,125,76,49,-100
,506,2023-10-27 10:32:42.75,-124,178,-2053,8,22,60,240,50,190,-145
,507,2023-10-27 10:32:42.76,-116,189,-2066,13,23,61,133,69,64,-101
,508,2023-10-27 10:32:42.77,-107,182,-2069,12,17,57,226,54,172,-140
,509,2023-10-27 10:32:42.78,-109,177,-2069,13,12,54,133,57,76,-95
,510,2023-10-27 10:32:42.79,-103,183,-2061,13,9,52,217,64,153,-140
,511,2023-10-27 10:32:42.80,-109,178,-2060,19,11,52,146,58,88,-102
,512,2023-10-27 10:32:42.81,-100,185,-2056,27,12,52,214,73,141,-143
,513,2023-10-27 10:32:42.82,-117,179,-2042,28,15,47,149,48,101,-98
,514,2023-10-27 10:32:42.83,-119,185,-2036,29,18,43,200,73,127,-136
,515,2023-10-27 10:32:42.84,-110,172,-2040,29,17,44,154,36,118,-95
,516,2023-10-27 10:32:42.85,-105,180,-2044,30,13,39,204,80,124,-142
,517,2023-10-27 10:32:42.86,-107,176,-2038,31,12,41,175,30,145,-102
,518,2023-10-27 10:32:42.87,-104,174,-2044,31,12,36,200,91,109,-145
,519,2023-10-27 10:32:42.88,-103,179,-2034,31,10,36,178,27,151,-102
,520,2023-10-27 10:32:42.89,-101,173,-2040,31,11,32,189,95,94,-142
,521,2023-10-27 10:32:42.90,-106,173,-2042,31,10,29,185,19,166,-102
,522,2023-10-27 10:32:42.91,-104,172,-2040,34,10,27,191,111,80,-151
,523,2023-10-27 10:32:42.92,-106,170,-2043,37,7,25,194,12,182,-103
,524,2023-10-27 10:32:42.93,-101,164,-2045,39,6,24,178,107,71,-142
,525,2023-10-27 10:32:42.94,-109,171,-2050,40,3,23,195,-4,199,-95
,526,2023-10-27 10:32:42.95,-94,170,-2047,37,2,25,172,122,50,-147
,527,2023-10-27 10:32:42.96,-113,174,-2048,38,1,22,209,2,207,-105
,528,2023-10-27 10:32:42.97,-108,168,-2050,33,-1,21,166,125,41,-145
,529,2023-10-27 10:32:42.98,-100,172,-2045,28,-1,17,212,-4,216,-104
,530,2023-10-27 10:32:42.99,-114,169,-2051,22,1,15,152,125,27,-138
,531,2023-10-27 10:32:43.00,-108,163,-2042,14,5,16,216,-11,227,-102
,532,2023-10-27 10:32:43.01,-110,168,-2045,12,6,15,144,133,11,-138
,533,2023-10-27 10:32:43.02,-107,167,-2054,10,8,14,223,-14,237,-104
,534,2023-10-27 10:32:43.03,-110,159,-2040,8,6,14,132,141,-9,-136
,535,2023-10-27 10:32:43.04,-106,171,-2050,5,6,14,224,-22,246,-101
,536,2023-10-27 10:32:43.05,-100,171,-2048,1,6,13,120,138,-18,-129
,537,2023-10-27 10:32:43.06,-108,181,-2049,0,6,14,227,-35,262,-96
,538,2023-10-27 10:32:43.07,-112,180,-2048,-1,7,10,109,143,-34,-126
,539,2023-10-27 10:32:43.08,-109,179,-2051,-5,9,9,232,-32,264,-100
,540,2023-10-27 10:32:43.09,-107,175,-2050,-4,5,9,108,167,-59,-137
,541,2023-10-27 10:32:43.10,-100,181,-2054,-7,3,9,246,-27,273,-109
,542,2023-10-27 10:32:43.11,-112,174,-2047,-5,1,8,106,168,-62,-137
,543,2023-10-27 10:32:43.12,-102,175,-2047,-4,-1,8,255,-38,293,-108
,544,2023-10-27 10:32:43.13,-111,178,-2036,3,-1,10,110,165,-55,-137
,545,2023-10-27 10:32:43.14,-116,170,-2044,4,-1,13,274,-52,326,-111
,546,2023-10-27 10:32:43.15,-112,169,-2041,9,-2,16,103,165,-62,-134
,547,2023-10-27 10:32:43.16,-109,168,-2039,11,0,17,272,-59,331,-106
,548,2023-10-27 10:32:43.17,-109,172,-2043,16,0,18,92,171,-79,-131
,549,2023-10-27 10:32:43.18,-114,174,-2048,20,0,18,279,-60,339,-109
,550,2023-10-27 10:32:43.19,-102,172,-2044,22,5,22,98,176,-78,-137
,551,2023-10-27 10:32:43.20,-117,175,-2049,23,6,24,297,-67,364,-115
,552,2023-10-27 10:32:43.21,-111,179,-2049,23,4,22,96,174,-78,-135
,553,2023-10-27 10:32:43.22,-118,180,-2051,19,3,24,302,-73,375,-114
,554,2023-10-27 10:32:43.23,-117,177,-2053,16,0,24,88,187,-99,-137
,555,2023-10-27 10:32:43.24,-110,180,-2057,13,-4,24,306,-70,376,-118
,556,2023-10-27 10:32:43.25,-110,176,-2054,13,-6,21,77,191,-114,-134
,557,2023-10-27 10:32:43.26,-104,169,-2044,16,-8,18,304,-77,381,-113
,558,2023-10-27 10:32:43.27,-109,169,-2045,19,-5,18,71,197,-126,-134
,559,2023-10-27 10:32:43.28,-109,171,-2040,21,-5,18,313,-82,395,-115
,560,2023-10-27 10:32:43.29,-112,169,-2039,28,-3,20,68,193,-125,-130
,561,2023-10-27 10:32:43.30,-103,161,-2038,37,1,18,317,-90,407,-113
,562,2023-10-27 10:32:43.31,-120,170,-2040,42,3,14,64,194,-130,-129
,563,2023-10-27 10:32:43.32,-106,168,-2046,41,2,16,338,-81,419,-128
,564,2023-10-27 10:32:43.33,-117,168,-2055,40,2,18,68,205,-137,-136
,565,2023-10-27 10:32:43.34,-109,172,-2039,36,3,10,333,-91,424,-121
,566,2023-10-27 10:32:43.35,-101,168,-2045,31,15,8,47,201,-154,-124
,567,2023-10-27 10:32:43.36,-114,173,-2050,33,19,6,330,-92,422,-119
,568,2023-10-27 10:32:43.37,-106,171,-2046,33,21,3,48,210,-162,-129
,569,2023-10-27 10:32:43.38,-116,171,-2045,30,21,0,331,-109,440,-111
,570,2023-10-27 10:32:43.39,-108,159,-2054,30,19,-2,53,206,-153,-129
,571,2023-10-27 10:32:43.40,-115,159,-2046,30,16,-1,348,-106,454,-121
,572,2023-10-27 10:32:43.41,-105,156,-2044,29,15,2,46,209,-163,-127
,573,2023-10-27 10:32:43.42,-103,165,-2043,29,10,4,351,-100,451,-125
,574,2023-10-27 10:32:43.43,-106,168,-2046,26,13,4,42,220,-178,-131
,575,2023-10-27 10:32:43.44,-97,163,-2036,23,12,4,355,-103,458,-126
,576,2023-10-27 10:32:43.45,-110,164,-2037,21,15,11,38,220,-182,-129
,577,2023-10-27 10:32:43.46,-101,158,-2051,18,15,9,355,-106,461,-124
,578,2023-10-27 10:32:43.47,-104,163,-2055,13,15,8,24,223,-199,-123
,579,2023-10-27 10:32:43.48,-97,166,-2050,8,10,12,354,-114,468,-120
,580,2023-10-27 10:32:43.49,-103,163,-2051,5,7,13,33,214,-181,-123
,581,2023-10-27 10:32:43.50,-101,165,-2056,2,5,14,366,-122,488,-122
,582,2023-10-27 10:32:43.51,-112,165,-2050,1,0,13,29,215,-186,-122
,583,2023-10-27 10:32:43.52,-105,170,-2044,2,0,15,364,-113,477,-125
,584,2023-10-27 10:32:43.53,-108,165,-2049,4,0,15,22,231,-209,-126
,585,2023-10-27 10:32:43.54,-111,167,-2040,6,0,17,365,-109,474,-128
,586,2023-10-27 10:32:43.55,-101,174,-2048,10,1,18,11,223,-212,-117
,587,2023-10-27 10:32:43.56,-113,164,-2042,14,4,17,362,-121,483,-120
,588,2023-10-27 10:32:43.57,-117,162,-2045,17,6,20,11,220,-209,-115
,589,2023-10-27 10:32:43.58,-118,165,-2051,20,6,22,365,-123,488,-121
,590,2023-10-27 10:32:43.59,-110,159,-2052,23,3,22,7,220,-213,-113
,591,2023-10-27 10:32:43.60,-112,158,-2047,29,3,23,368,-119,487,-124
,592,2023-10-27 10:32:43.61,-121,162,-2046,31,6,26,12,229,-217,-120
,593,2023-10-27 10:32:43.62,-104,156,-2047,33,12,28,376,-120,496,-128
,594,2023-10-27 10:32:43.63,-104,159,-2044,34,15,28,16,219,-203,-117
,595,2023-10-27 10:32:43.64,-105,165,-2048,35,17,23,385,-122,507,-131
,596,2023-10-27 10:32:43.65,-101,148,-2054,34,18,19,15,228,-213,-121
,597,2023-10-27 10:32:43.66,-107,150,-2052,34,19,22,388,-117,505,-135
,598,2023-10-27 10:32:43.67,-110,153,-2052,37,20,23,16,225,-209,-120
,599,2023-10-27 10:32:43.68,-102,151,-2046,37,14,22,379,-120,499,-129
,600,2023-10-27 10:32:43.69,-119,155,-2047,35,15,24,6,226,-220,-116
,601,2023-10-27 10:32:43.70,-109,153,-2047,30,15,22,375,-114,489,-130
,602,2023-10-27 10:32:43.71,-110,156,-2043,31,14,22,6,229,-223,-117
,603,2023-10-27 10:32:43.72,-119,156,-2047,29,14,15,383,-111,494,-136
,604,2023-10-27 10:32:43.73,-114,152,-2042,29,17,14,21,235,-214,-128
,605,2023-10-27 10:32:43.74,-106,154,-2044,26,17,10,385,-117,502,-134
,606,2023-10-27 10:32:43.75,-107,141,-2048,22,22,11,4,215,-211,-109
,607,2023-10-27 10:32:43.76,-105,146,-2045,21,18,10,372,-126,498,-123
,608,2023-10-27 10:32:43.77,-102,145,-2040,20,17,10,6,217,-211,-111
,609,2023-10-27 10:32:43.78,-114,146,-2047,16,16,17,378,-110,488,-134
,610,2023-10-27 10:32:43.79,-102,151,-2045,13,18,17,6,213,-207,-109
,611,2023-10-27 10:32:43.80,-99,157,-2049,11,18,17,379,-111,490,-134
,612,2023-10-27 10:32:43.81,-103,162,-2047,4,19,16,6,214,-208,-110
,613,2023-10-27 10:32:43.82,-116,160,-2051,1,18,17,374,-105,479,-134
,614,2023-10-27 10:32:43.83,-92,157,-2045,-2,17,13,7,217,-210,-112
,615,2023-10-27 10:32:43.84,-104,160,-2050,-4,19,11,380,-101,481,-139
,616,2023-10-27 10:32:43.85,-108,157,-2055,-4,16,9,16,210,-194,-113
,617,2023-10-27 10:32:43.86,-106,158,-2058,-3,14,10,378,-105,483,-136
,618,2023-10-27 10:32:43.87,-87,163,-2055,-2,14,12,10,206,-196,-108
,619,2023-10-27 10:32:43.88,-104,160,-2049,-3,10,13,370,-102,472,-134
,620,2023-10-27 10:32:43.89,-110,159,-2053,-5,5,13,13,204,-191,-108
,621,2023-10-27 10:32:43.90,-103,151,-2052,-6,4,16,369,-98,467,-135
,622,2023-10-27 10:32:43.91,-109,156,-2046,-5,2,20,16,198,-182,-107
,623,2023-10-27 10:32:43.92,-114,163,-2051,-2,-2,21,366,-93,459,-136
,624,2023-10-27 10:32:43.93,-107,162,-2045,-1,-7,18,16,196,-180,-106
,625,2023-10-27 10:32:43.94,-110,167,-2045,-7,-10,17,362,-91,453,-135
,626,2023-10-27 10:32:43.95,-120,161,-2040,-7,-10,20,16,194,-178,-105
,627,2023-10-27 10:32:43.96,-114,162,-2042,-10,-11,23,362,-84,446,-139
,628,2023-10-27 10:32:43.97,-109,160,-2041,-10,-8,27,22,191,-169,-106
,629,2023-10-27 10:32:43.98,-116,166,-2037,-9,-5,30,364,-84,448,-140
,630,2023-10-27 10:32:43.99,-120,158,-2040,-9,-3,37,32,184,-152,-108
,631,2023-10-27 10:32:44.00,-116,156,-2044,-7,4,41,364,-79,443,-142
,632,2023-10-27 10:32:44.01,-123,164,-2037,-4,8,47,36,186,-150,-111
,633,2023-10-27 10:32:44.02,-115,166,-2030,-3,15,55,358,-70,428,-144
,634,2023-10-27 10:32:44.03,-118,170,-2032,-1,19,56,36,180,-144,-108
,635,2023-10-27 10:32:44.04,-116,179,-2035,0,26,55,351,-65,416,-143
,636,2023-10-27 10:32:44.05,-114,180,-2037,4,30,51,41,175,-134,-108
,637,2023-10-27 10:32:44.06,-105,182,-2039,8,35,45,344,-62,406,-141
,638,2023-10-27 10:32:44.07,-104,182,-2041,6,39,37,36,165,-129,-100
,639,2023-10-27 10:32:44.08,-107,185,-2042,3,44,34,341,-62,403,-139
,640,2023-10-27 10:32:44.09,-108,176,-2046,4,48,29,46,156,-110,-101
,641,2023-10-27 10:32:44.10,-91,168,-2047,6,54,25,336,-60,396,-138
,642,2023-10-27 10:32:44.11,-88,178,-2055,10,58,21,50,151,-101,-100
,643,2023-10-27 10:32:44.12,-97,174,-2050,12,61,18,329,-49,378,-140
,644,2023-10-27 10:32:44.13,-98,177,-2047,16,64,14,54,151,-97,-102
,645,2023-10-27 10:32:44.14,-94,172,-2054,20,64,13,334,-31,365,-151
,646,2023-10-27 10:32:44.15,-98,173,-2046,24,62,10,60,145,-85,-102
,647,2023-10-27 10:32:44.16,-83,169,-2047,27,58,7,325,-40,365,-142
,648,2023-10-27 10:32:44.17,-85,164,-2050,30,55,7,72,127,-55,-99
,649,2023-10-27 10:32:44.18,-72,168,-2061,30,50,2,316,-38,354,-139
,650,2023-10-27 10:32:44.19,-57,153,-2054,34,48,0,64,127,-63,-95
,651,2023-10-27 10:32:44.20,-68,158,-2051,33,54,-3,298,-36,334,-131
,652,2023-10-27 10:32:44.21,-68,158,-2057,40,56,-5,75,118,-43,-96
,653,2023-10-27 10:32:44.22,-69,160,-2062,44,53,-8,305,-26,331,-139
,654,2023-10-27 10:32:44.23,-77,156,-2056,43,51,-10,85,113,-28,-99
,655,2023-10-27 10:32:44.24,-75,141,-2048,39,48,-5,292,-16,308,-138
,656,2023-10-27 10:32:44.25,-73,153,-2051,37,40,-6,83,109,-26,-96
,657,2023-10-27 10:32:44.26,-73,150,-2050,33,35,-1,286,-3,289,-141
,658,2023-10-27 10:32:44.27,-64,140,-2049,21,31,1,92,107,-15,-99
,659,2023-10-27 10:32:44.28,-62,148,-2049,14,29,5,294,3,291,-148
,660,2023-10-27 10:32:44.29,-64,154,-2042,9,31,10,107,98,9,-102
,661,2023-10-27 10:32:44.30,-70,156,-2043,1,30,13,291,10,281,-150
,662,2023-10-27 10:32:44.31,-63,159,-2053,-5,28,15,115,97,18,-106
,663,2023-10-27 10:32:44.32,-72,160,-2054,-8,27,12,284,22,262,-153
,664,2023-10-27 10:32:44.33,-50,155,-2047,-6,27,14,120,96,24,-108
,665,2023-10-27 10:32:44.34,-64,158,-2053,-5,27,16,270,26,244,-148
,666,2023-10-27 10:32:44.35,-68,165,-2049,-2,23,16,117,82,35,-99
,667,2023-10-27 10:32:44.36,-57,163,-2052,2,22,15,252,29,223,-140
,668,2023-10-27 10:32:44.37,-62,155,-2060,6,19,14,123,75,48,-99
,669,2023-10-27 10:32:44.38,-71,160,-2061,5,17,15,250,39,211,-144
,670,2023-10-27 10:32:44.39,-60,161,-2063,7,16,17,132,71,61,-101
,671,2023-10-27 10:32:44.40,-66,161,-2062,8,16,22,243,46,197,-144
,672,2023-10-27 10:32:44.41,-64,150,-2050,16,14,25,136,63,73,-99
,673,2023-10-27 10:32:44.42,-73,150,-2054,19,11,27,230,52,178,-141
,674,2023-10-27 10:32:44.43,-54,139,-2056,21,7,30,145,52,93,-98
,675,2023-10-27 10:32:44.44,-74,146,-2058,23,9,33,228,58,170,-143
,676,2023-10-27 10:32:44.45,-50,150,-2049,32,15,40,150,51,99,-100
,677,2023-10-27 10:32:44.46,-59,149,-2047,34,22,39,222,73,149,-147
,678,2023-10-27 10:32:44.47,-48,159,-2038,43,27,35,164,48,116,-106
,679,2023-10-27 10:32:44.48,-43,162,-2047,45,30,30,218,70,148,-144
,680,2023-10-27 10:32:44.49,-54,152,-2053,47,30,25,169,30,139,-99
,681,2023-10-27 10:32:44.50,-55,146,-2063,48,30,19,211,79,132,-145
,682,2023-10-27 10:32:44.51,-50,149,-2061,50,24,16,179,31,148,-105
,683,2023-10-27 10:32:44.52,-50,135,-2055,51,18,13,201,87,114,-144
,684,2023-10-27 10:32:44.53,-46,148,-2072,55,10,7,178,20,158,-99
,685,2023-10-27 10:32:44.54,-42,140,-2067,50,4,5,188,86,102,-137
,686,2023-10-27 10:32:44.55,-45,147,-2055,47,-1,2,193,21,172,-107
,687,2023-10-27 10:32:44.56,-35,135,-2041,49,-5,-9,184,89,95,-136
,688,2023-10-27 10:32:44.57,-35,129,-2046,46,-11,-10,196,7,189,-101
,689,2023-10-27 10:32:44.58,-54,127,-2047,45,-12,-11,175,92,83,-133
,690,2023-10-27 10:32:44.59,-48,128,-2050,42,-18,-14,204,1,203,-102
,691,2023-10-27 10:32:44.60,-54,120,-2043,41,-16,-18,171,104,67,-137
,692,2023-10-27 10:32:44.61,-63,119,-2043,36,-22,-13,202,-13,215,-94
,693,2023-10-27 10:32:44.62,-59,120,-2049,29,-29,-11,166,113,53,-139
,694,2023-10-27 10:32:44.63,-50,124,-2045,20,-36,-8,216,-8,224,-104
,695,2023-10-27 10:32:44.64,-67,132,-2048,7,-39,-6,154,129,25,-141
,696,2023-10-27 10:32:44.65,-58,134,-2054,-9,-46,-4,221,-11,232,-105
,697,2023-10-27 10:32:44.66,-75,141,-2038,-24,-48,0,150,128,22,-139
,698,2023-10-27 10:32:44.67,-65,151,-2047,-35,-51,0,235,-24,259,-105
,699,2023-10-27 10:32:44.68,-75,161,-2043,-46,-52,-3,139,133,6,-136
,700,2023-10-27 10:32:44.69,-70,168,-2043,-58,-53,-8,232,-22,254,-105
,701,2023-10-27 10:32:44.70,-85,164,-2042,-64,-58,-11,130,150,-20,-140
,702,2023-10-27 10:32:44.71,-97,170,-2042,-70,-56,-12,243,-24,267,-109
,703,2023-10-27 10:32:44.72,-95,166,-2041,-73,-57,-13,128,152,-24,-140
,704,2023-10-27 10:32:44.73,-95,172,-2041,-73,-56,-14,250,-34,284,-108
,705,2023-10-27 10:32:44.74,-93,187,-2052,-78,-53,-13,126,152,-26,-139
,706,2023-10-27 10:32:44.75,-109,188,-2051,-83,-49,-9,257,-43,300,-107
,707,2023-10-27 10:32:44.76,-109,206,-2063,-89,-48,-7,112,149,-37,-130
,708,2023-10-27 10:32:44.77,-114,209,-2057,-100,-42,-5,259,-49,308,-105
,709,2023-10-27 10:32:44.78,-122,209,-2064,-111,-41,-2,106,164,-58,-135
,710,2023-10-27 10:32:44.79,-112,209,-2046,-110,-37,-2,274,-52,326,-111
,711,2023-10-27 10:32:44.80,-128,209,-2055,-111,-36,1,106,163,-57,-134
,712,2023-10-27 10:32:44.81,-122,208,-2051,-107,-34,5,281,-62,343,-109
,713,2023-10-27 10:32:44.82,-128,195,-2046,-96,-29,12,104,170,-66,-137
,714,2023-10-27 10:32:44.83,-141,191,-2040,-85,-25,22,285,-69,354,-108
,715,2023-10-27 10:32:44.84,-141,187,-2036,-70,-25,36,97,166,-69,-131
,716,2023-10-27 10:32:44.85,-130,186,-2036,-49,-16,51,293,-69,362,-112
,717,2023-10-27 10:32:44.86,-126,188,-2040,-33,-9,66,95,184,-89,-139
,718,2023-10-27 10:32:44.87,-118,202,-2036,-15,4,79,300,-66,366,-117
,719,2023-10-27 10:32:44.88,-119,215,-2028,-2,19,87,86,187,-101,-136
,720,2023-10-27 10:32:44.89,-113,228,-2023,6,28,89,305,-78,383,-113
,721,2023-10-27 10:32:44.90,-122,232,-2033,15,39,85,81,185,-104,-133
,722,2023-10-27 10:32:44.91,-110,232,-2038,22,42,78,308,-88,396,-110
,723,2023-10-27 10:32:44.92,-109,225,-2036,29,45,67,74,181,-107,-127
,724,2023-10-27 10:32:44.93,-110,208,-2040,37,48,59,313,-90,403,-111
,725,2023-10-27 10:32:44.94,-101,191,-2037,49,53,54,66,187,-121,-126
,726,2023-10-27 10:32:44.95,-96,191,-2038,68,51,48,317,-91,408,-113
,727,2023-10-27 10:32:44.96,-100,182,-2048,82,52,44,65,206,-141,-135
,728,2023-10-27 10:32:44.97,-97,176,-2039,95,53,40,323,-92,415,-115
,729,2023-10-27 10:32:44.98,-96,168,-2042,101,53,37,55,198,-143,-126
,730,2023-10-27 10:32:44.99,-93,167,-2048,101,52,41,331,-106,437,-112
,731,2023-10-27 10:32:45.00,-100,173,-2040,94,52,42,57,198,-141,-127
,732,2023-10-27 10:32:45.01,-87,166,-2042,84,48,44,334,-104,438,-115
,733,2023-10-27 10:32:45.02,-88,162,-2058,66,45,46,42,194,-152,-118
,734,2023-10-27 10:32:45.03,-80,172,-2057,50,45,47,339,-105,444,-117
,735,2023-10-27 10:32:45.04,-74,167,-2055,28,50,45,50,206,-156,-128
,736,2023-10-27 10:32:45.05,-83,166,-2051,14,65,47,352,-105,457,-123
,737,2023-10-27 10:32:45.06,-78,166,-2054,10,71,46,48,211,-163,-129
,738,2023-10-27 10:32:45.07,-67,175,-2061,10,70,48,351,-113,464,-119
,739,2023-10-27 10:32:45.08,-68,169,-2068,11,70,44,36,204,-168,-120
,740,2023-10-27 10:32:45.09,-65,153,-2061,14,62,39,348,-119,467,-114
,741,2023-10-27 10:32:45.10,-71,160,-2066,22,54,40,41,202,-161,-121
,742,2023-10-27 10:32:45.11,-71,159,-2063,30,48,38,363,-124,487,-119
,743,2023-10-27 10:32:45.12,-69,172,-2052,36,36,33,39,206,-167,-122
,744,2023-10-27 10:32:45.13,-65,179,-2040,39,34,28,365,-120,485,-122
,745,2023-10-27 10:32:45.14,-59,175,-2035,38,32,22,34,213,-179,-123
,746,2023-10-27 10:32:45.15,-57,181,-2033,33,34,18,370,-120,490,-125
,747,2023-10-27 10:32:45.16,-76,177,-2038,26,37,13,33,215,-182,-124
,748,2023-10-27 10:32:45.17,-75,171,-2050,18,36,7,369,-124,493,-122
,749,2023-10-27 10:32:45.18,-71,169,-2054,8,35,3,24,212,-188,-118
,750,2023-10-27 10:32:45.19,-67,168,-2052,4,33,2,367,-128,495,-119
,751,2023-10-27 10:32:45.20,-65,165,-2052,1,28,4,21,211,-190,-116
,752,2023-10-27 10:32:45.21,-73,160,-2052,1,28,7,372,-127,499,-122
,753,2023-10-27 10:32:45.22,-64,158,-2033,3,25,9,17,214,-197,-115
,754,2023-10-27 10:32:45.23,-46,152,-2052,2,29,12,367,-129,496,-119
,755,2023-10-27 10:32:45.24,-67,152,-2036,8,33,20,10,214,-204,-112
,756,2023-10-27 10:32:45.25,-61,159,-2052,10,36,26,373,-125,498,-124
,757,2023-10-27 10:32:45.26,-57,168,-2046,18,41,28,17,225,-208,-121
,758,2023-10-27 10:32:45.27,-60,164,-2050,23,39,29,380,-121,501,-129
,759,2023-10-27 10:32:45.28,-70,176,-2059,21,39,32,14,223,-209,-118
,760,2023-10-27 10:32:45.29,-48,180,-2053,18,40,30,374,-128,502,-123
,761,2023-10-27 10:32:45.30,-61,174,-2048,17,39,30,6,212,-206,-109
,762,2023-10-27 10:32:45.31,-43,178,-2054,9,41,25,374,-127,501,-123
,763,2023-10-27 10:32:45.32,-68,181,-2055,4,45,20,11,219,-208,-115
,764,2023-10-27 10:32:45.33,-74,179,-2062,0,47,19,387,-125,512,-131
,765,2023-10-27 10:32:45.34,-52,175,-2065,-1,44,20,14,215,-201,-114
,766,2023-10-27 10:32:45.35,-57,161,-2063,8,42,26,385,-128,513,-128
,767,2023-10-27 10:32:45.36,-55,161,-2058,13,37,28,11,216,-205,-113
,768,2023-10-27 10:32:45.37,-47,156,-2060,17,34,29,386,-120,506,-133
,769,2023-10-27 10:32:45.38,-46,177,-2048,20,33,29,6,212,-206,-109
,770,2023-10-27 10:32:45.39,-43,177,-2043,24,35,28,380,-126,506,-127
,771,2023-10-27 10:32:45.40,-34,180,-2039,30,35,24,8,207,-199,-107
,772,2023-10-27 10:32:45.41,-54,184,-2039,36,37,18,382,-125,507,-128
,773,2023-10-27 10:32:45.42,-47,190,-2037,38,35,13,7,211,-204,-109
,774,2023-10-27 10:32:45.43,-48,177,-2042,39,35,8,374,-128,502,-123
,775,2023-10-27 10:32:45.44,-52,179,-2042,37,35,1,12,212,-200,-112
,776,2023-10-27 10:32:45.45,-34,179,-2046,35,33,-3,382,-117,499,-132
,777,2023-10-27 10:32:45.46,-45,170,-2052,35,34,-5,10,209,-199,-109
,778,2023-10-27 10:32:45.47,-47,165,-2047,36,34,-7,377,-125,502,-126
,779,2023-10-27 10:32:45.48,-37,164,-2041,33,35,-10,8,193,-185,-100
,780,2023-10-27 10:32:45.49,-52,159,-2045,33,39,-6,379,-122,501,-128
,781,2023-10-27 10:32:45.50,-50,166,-2055,35,41,-6,13,201,-188,-107
,782,2023-10-27 10:32:45.51,-42,162,-2052,32,43,-6,381,-112,493,-134
,783,2023-10-27 10:32:45.52,-49,159,-2051,30,45,-4,10,199,-189,-104
,784,2023-10-27 10:32:45.53,-52,155,-2052,31,46,-4,373,-116,489,-128
,785,2023-10-27 10:32:45.54,-41,157,-2052,29,48,-1,9,193,-184,-101
,786,2023-10-27 10:32:45.55,-31,163,-2058,29,49,1,374,-105,479,-134
,787,2023-10-27 10:32:45.56,-45,164,-2054,31,47,4,21,202,-181,-111
,788,2023-10-27 10:32:45.57,-32,167,-2055,29,42,7,371,-95,466,-138
,789,2023-10-27 10:32:45.58,-44,159,-2060,26,44,9,12,198,-186,-105
,790,2023-10-27 10:32:45.59,-25,160,-2048,26,44,13,364,-97,461,-133
,791,2023-10-27 10:32:45.60,-37,162,-2055,23,43,9,24,186,-162,-105
,792,2023-10-27 10:32:45.61,-32,161,-2061,26,45,11,366,-99,465,-133
,793,2023-10-27 10:32:45.62,-32,166,-2061,26,46,10,24,182,-158,-103
,794,2023-10-27 10:32:45.63,-27,161,-2048,27,53,8,360,-89,449,-135
,795,2023-10-27 10:32:45.64,-32,160,-2044,33,56,5,22,180,-158,-101
,796,2023-10-27 10:32:45.65,-26,164,-2044,37,59,-2,358,-84,442,-137
,797,2023-10-27 10:32:45.66,-26,165,-2040,41,61,-10,27,178,-151,-102
,798,2023-10-27 10:32:45.67,-16,158,-2027,48,64,-14,348,-85,433,-131
,799,2023-10-27 10:32:45.68,-21,150,-2040,54,67,-19,27,169,-142,-98
,800,2023-10-27 10:32:45.69,-9,147,-2033,65,64,-21,347,-70,417,-138
,801,2023-10-27 10:32:45.70,-22,140,-2035,66,65,-25,37,179,-142,-108
,802,2023-10-27 10:32:45.71,-26,146,-2055,71,66,-28,350,-73,423,-138
,803,2023-10-27 10:32:45.72,-9,143,-2045,81,67,-29,38,159,-121,-98
,804,2023-10-27 10:32:45.73,-14,145,-2056,82,72,-30,341,-73,414,-134
,805,2023-10-27 10:32:45.74,-16,139,-2036,84,74,-30,48,152,-104,-100
,806,2023-10-27 10:32:45.75,-8,140,-2025,87,76,-33,339,-65,404,-137
,807,2023-10-27 10:32:45.76,-7,144,-2023,83,89,-39,46,150,-104,-98
,808,2023-10-27 10:32:45.77,6,146,-2024,84,93,-50,328,-57,385,-135
,809,2023-10-27 10:32:45.78,9,145,-2029,82,100,-60,51,151,-100,-101
,810,2023-10-27 10:32:45.79,10,136,-2020,82,113,-71,324,-56,380,-134
,811,2023-10-27 10:32:45.80,18,155,-2049,85,116,-81,52,132,-80,-92
,812,2023-10-27 10:32:45.81,23,157,-2061,82,120,-96,332,-41,373,-145
,813,2023-10-27 10:32:45.82,11,161,-2067,82,134,-109,70,143,-73,-106
,814,2023-10-27 10:32:45.83,26,152,-2068,82,145,-123,317,-43,360,-137
,815,2023-10-27 10:32:45.84,26,140,-2054,73,142,-129,53,119,-66,-86
,816,2023-10-27 10:32:45.85,10,117,-2050,64,154,-131,309,-34,343,-137
,817,2023-10-27 10:32:45.86,22,112,-2058,69,155,-132,76,124,-48,-100
,818,2023-10-27 10:32:45.87,20,115,-2089,70,161,-135,310,-23,333,-143
,819,2023-10-27 10:32:45.88,12,107,-2081,74,151,-126,76,117,-41,-96
,820,2023-10-27 10:32:45.89,16,118,-2075,81,151,-113,295,-23,318,-136
,821,2023-10-27 10:32:45.90,26,127,-2064,78,147,-103,81,102,-21,-91
,822,2023-10-27 10:32:45.91,12,113,-2075,66,136,-96,295,-25,320,-135
,823,2023-10-27 10:32:45.92,25,122,-2089,54,130,-93,94,97,-3,-95
,824,2023-10-27 10:32:45.93,26,133,-2064,42,115,-85,287,-10,297,-138
,825,2023-10-27 10:32:45.94,24,139,-2072,26,101,-75,93,96,-3,-94
,826,2023-10-27 10:32:45.95,22,128,-2072,20,88,-71,274,-4,278,-135
,827,2023-10-27 10:32:45.96,21,131,-2065,10,75,-65,98,85,13,-91
,828,2023-10-27 10:32:45.97,23,137,-2062,-1,61,-66,271,1,270,-136
,829,2023-10-27 10:32:45.98,41,119,-2073,-10,48,-67,108,80,28,-94
,830,2023-10-27 10:32:45.99,47,126,-2063,-15,35,-62,264,10,254,-137
,831,2023-10-27 10:32:46.00,36,115,-2057,-7,26,-62,112,74,38,-93
,832,2023-10-27 10:32:46.01,33,105,-2040,3,15,-61,252,19,233,-135
,833,2023-10-27 10:32:46.02,44,98,-2052,12,11,-54,114,68,46,-91
,834,2023-10-27 10:32:46.03,29,97,-2064,23,10,-47,250,25,225,-137
,835,2023-10-27 10:32:46.04,38,99,-2060,34,9,-37,127,61,66,-94
,836,2023-10-27 10:32:46.05,24,84,-2068,42,17,-27,246,27,219,-136
,837,2023-10-27 10:32:46.06,29,94,-2071,48,21,-17,135,48,87,-91
,838,2023-10-27 10:32:46.07,31,117,-2072,45,26,-8,224,31,193,-127
,839,2023-10-27 10:32:46.08,14,115,-2066,44,28,-2,123,50,73,-86
,840,2023-10-27 10:32:46.09,20,117,-2060,41,30,3,216,43,173,-129
,841,2023-10-27 10:32:46.10,30,121,-2063,29,34,6,147,43,104,-95
,842,2023-10-27 10:32:46.11,40,123,-2062,23,29,4,222,51,171,-136
,843,2023-10-27 10:32:46.12,33,121,-2064,23,27,3,154,35,119,-94
,844,2023-10-27 10:32:46.13,35,124,-2055,27,28,-3,208,59,149,-133
,845,2023-10-27 10:32:46.14,42,114,-2054,40,21,-7,157,28,129,-92
,846,2023-10-27 10:32:46.15,49,105,-2042,60,20,-8,208,67,141,-137
,847,2023-10-27 10:32:46.16,39,95,-2049,70,29,-8,176,24,152,-100
,848,2023-10-27 10:32:46.17,32,111,-2065,84,33,-8,203,70,133,-136
,849,2023-10-27 10:32:46.18,50,107,-2044,93,34,-7,175,16,159,-95
,850,2023-10-27 10:32:46.19,55,101,-2046,98,46,-6,189,84,105,-136
,851,2023-10-27 10:32:46.20,35,107,-2045,100,49,-6,179,13,166,-96
,852,2023-10-27 10:32:46.21,53,97,-2043,97,61,-6,176,84,92,-130
,853,2023-10-27 10:32:46.22,40,118,-2039,97,70,-11,186,7,179,-96
,854,2023-10-27 10:32:46.23,47,105,-2053,96,68,-13,165,94,71,-129
,855,2023-10-27 10:32:46.24,56,105,-2032,102,68,-19,187,4,183,-95
,856,2023-10-27 10:32:46.25,47,94,-2052,103,65,-19,152,98,54,-125
,857,2023-10-27 10:32:46.26,36,88,-2064,105,70,-19,191,-5,196,-93
,858,2023-10-27 10:32:46.27,42,87,-2046,102,71,-18,147,108,39,-127
,859,2023-10-27 10:32:46.28,49,97,-2043,102,65,-15,199,-10,209,-94
,860,2023-10-27 10:32:46.29,59,76,-2064,104,61,-12,139,114,25,-126
,861,2023-10-27 10:32:46.30,61,84,-2065,102,61,-8,202,-18,220,-92
,862,2023-10-27 10:32:46.31,55,80,-2082,95,56,0,128,119,9,-123
,863,2023-10-27 10:32:46.32,58,89,-2085,87,44,6,208,-22,230,-93
,864,2023-10-27 10:32:46.33,52,78,-2096,79,34,11,122,125,-3,-123
,865,2023-10-27 10:32:46.34,68,97,-2088,54,22,15,216,-28,244,-94
,866,2023-10-27 10:32:46.35,65,94,-2086,41,12,20,120,135,-15,-127
,867,2023-10-27 10:32:46.36,63,95,-2084,32,4,22,232,-29,261,-101
,868,2023-10-27 10:32:46.37,53,91,-2074,21,-1,26,112,137,-25,-124
,869,2023-10-27 10:32:46.38,53,89,-2074,9,-4,25,229,-41,270,-94
,870,2023-10-27 10:32:46.39,37,87,-2076,5,-6,23,109,145,-36,-127
,871,2023-10-27 10:32:46.40,55,83,-2069,3,-3,29,243,-41,284,-101
,872,2023-10-27 10:32:46.41,61,86,-2061,-2,5,31,102,150,-48,-126
,873,2023-10-27 10:32:46.42,49,94,-2051,-3,14,32,247,-52,299,-97
,874,2023-10-27 10:32:46.43,53,93,-2038,-8,17,31,92,151,-59,-121
,875,2023-10-27 10:32:46.44,50,100,-2038,-7,23,32,253,-55,308,-99
,876,2023-10-27 10:32:46.45,46,101,-2047,-7,27,29,89,162,-73,-125
,877,2023-10-27 10:32:46.46,64,102,-2045,-5,35,27,263,-57,320,-103
,878,2023-10-27 10:32:46.47,70,96,-2043,0,43,20,84,168,-84,-126
,879,2023-10-27 10:32:46.48,69,92,-2051,5,44,18,270,-66,336,-102
,880,2023-10-27 10:32:46.49,67,88,-2051,11,46,17,76,164,-88,-120
,881,2023-10-27 10:32:46.50,77,89,-2066,18,46,16,271,-71,342,-100
,882,2023-10-27 10:32:46.51,72,88,-2063,22,45,12,67,175,-108,-121
,883,2023-10-27 10:32:46.52,66,92,-2061,25,41,12,276,-71,347,-102
,884,2023-10-27 10:32:46.53,76,93,-2059,33,35,13,60,176,-116,-118
,885,2023-10-27 10:32:46.54,72,85,-2061,34,37,12,278,-83,361,-97
,886,2023-10-27 10:32:46.55,76,83,-2072,35,26,11,57,177,-120,-117
,887,2023-10-27 10:32:46.56,76,80,-2071,37,13,8,290,-83,373,-103
,888,2023-10-27 10:32:46.57,71,78,-2075,38,16,8,60,188,-128,-124
,889,2023-10-27 10:32:46.58,84,77,-2079,38,21,10,298,-86,384,-106
,890,2023-10-27 10:32:46.59,88,77,-2075,42,21,12,54,183,-129,-118
,891,2023-10-27 10:32:46.60,86,85,-2073,41,32,12,300,-95,395,-102
,892,2023-10-27 10:32:46.61,84,83,-2076,37,32,12,55,190,-135,-122
,893,2023-10-27 10:32:46.62,80,75,-2076,35,29,10,316,-97,413,-109
,894,2023-10-27 10:32:46.63,83,66,-2061,34,30,17,50,189,-139,-119
,895,2023-10-27 10:32:46.64,86,49,-2061,33,25,20,315,-104,419,-105
,896,2023-10-27 10:32:46.65,86,52,-2065,38,23,24,44,202,-158,-123
,897,2023-10-27 10:32:46.66,90,55,-2061,41,21,27,322,-98,420,-112
,898,2023-10-27 10:32:46.67,95,61,-2060,44,20,30,43,203,-160,-123
,899,2023-10-27 10:32:46.68,92,76,-2055,45,18,35,329,-105,434,-112
,900,2023-10-27 10:32:46.69,94,63,-2058,45,16,36,32,193,-161,-112
,901,2023-10-27 10:32:46.70,102,63,-2063,40,13,37,334,-110,444,-112
,902,2023-10-27 10:32:46.71,87,57,-2061,37,9,35,31,207,-176,-119
,903,2023-10-27 10:32:46.72,85,56,-2060,33,7,34,332,-106,438,-113
,904,2023-10-27 10:32:46.73,91,61,-2059,32,7,34,17,206,-189,-111
,905,2023-10-27 10:32:46.74,91,59,-2050,33,10,35,335,-113,448,-111
,906,2023-10-27 10:32:46.75,81,47,-2049,33,11,35,28,211,-183,-119
,907,2023-10-27 10:32:46.76,92,51,-2049,34,12,33,348,-114,462,-117
,908,2023-10-27 10:32:46.77,88,44,-2066,34,12,37,25,215,-190,-120
,909,2023-10-27 10:32:46.78,91,49,-2066,34,12,39,351,-118,469,-116
,910,2023-10-27 10:32:46.79,93,52,-2063,33,7,40,25,211,-186,-118
,911,2023-10-27 10:32:46.80,84,56,-2073,36,4,40,359,-119,478,-120
,912,2023-10-27 10:32:46.81,95,56,-2074,40,1,37,25,213,-188,-119
,913,2023-10-27 10:32:46.82,74,49,-2071,38,-7,38,361,-124,485,-118
,914,2023-10-27 10:32:46.83,99,60,-2072,42,-11,32,18,215,-197,-116
,915,2023-10-27 10:32:46.84,97,64,-2067,42,-9,28,359,-123,482,-118
,916,2023-10-27 10:32:46.85,90,64,-2062,41,-7,19,11,214,-203,-112
,917,2023-10-27 10:32:46.86,99,65,-2064,47,-7,10,360,-123,483,-118
,918,2023-10-27 10:32:46.87,108,66,-2061,51,-9,-1,10,221,-211,-115
,919,2023-10-27 10:32:46.88,96,75,-2069,59,-9,-14,363,-125,488,-119
,920,2023-10-27 10:32:46.89,101,56,-2080,69,-6,-29,8,215,-207,-111
,921,2023-10-27 10:32:46.90,107,86,-2059,84,-7,-43,368,-128,496,-120
,922,2023-10-27 10:32:46.91,100,63,-2083,95,-7,-60,11,215,-204,-113
,923,2023-10-27 10:32:46.92,108,58,-2076,102,-14,-80,370,-127,497,-121
,924,2023-10-27 10:32:46.93,102,84,-2092,114,-17,-104,6,218,-212,-112
,925,2023-10-27 10:32:46.94,96,71,-2086,119,-12,-131,367,-127,494,-120
,926,2023-10-27 10:32:46.95,96,55,-2087,142,-23,-155,-2,217,-219,-107
,927,2023-10-27 10:32:46.96,114,79,-2074,152,-30,-181,366,-131,497,-117
,928,2023-10-27 10:32:46.97,107,65,-2058,165,-32,-209,0,219,-219,-109
,929,2023-10-27 10:32:46.98,84,65,-2052,181,-46,-247,373,-122,495,-125
,930,2023-10-27 10:32:46.99,108,65,-1973,205,-64,-289,4,218,-214,-111
,931,2023-10-27 10:32:47.00,105,31,-1968,214,-72,-324,374,-129,503,-122
,932,2023-10-27 10:32:47.01,119,25,-1966,223,-69,-369,-10,206,-216,-98
,933,2023-10-27 10:32:47.02,106,0,-1983,247,-80,-405,367,-130,497,-118
,934,2023-10-27 10:32:47.03,96,8,-1981,272,-84,-446,-5,213,-218,-104
,935,2023-10-27 10:32:47.04,112,-9,-2025,293,-80,-488,376,-118,494,-129
,936,2023-10-27 10:32:47.05,132,5,-2020,312,-77,-524,-1,216,-217,-107
,937,2023-10-27 10:32:47.06,99,-30,-2053,325,-79,-557,370,-120,490,-125
,938,2023-10-27 10:32:47.07,100,-36,-2055,328,-93,-578,-8,212,-220,-102
,939,2023-10-27 10:32:47.08,97,-68,-2087,306,-115,-600,363,-123,486,-120
,940,2023-10-27 10:32:47.09,85,-45,-2119,299,-132,-616,-4,204,-208,-100
,941,2023-10-27 10:32:47.10,71,-75,-2125,295,-164,-622,368,-133,501,-117
,942,2023-10-27 10:32:47.11,82,-89,-2119,270,-176,-633,3,205,-202,-104
,943,2023-10-27 10:32:47.12,102,-94,-2100,238,-179,-644,367,-120,487,-123
,944,2023-10-27 10:32:47.13,81,-117,-2084,212,-195,-652,-2,208,-210,-103
,945,2023-10-27 10:32:47.14,91,-87,-2056,191,-203,-677,361,-119,480,-121
,946,2023-10-27 10:32:47.15,117,-70,-2021,179,-217,-692,-10,202,-212,-96
,947,2023-10-27 10:32:47.16,118,-58,-1995,146,-194,-714,354,-114,468,-120
,948,2023-10-27 10:32:47.17,133,-84,-2011,110,-176,-746,-11,205,-216,-97
,949,2023-10-27 10:32:47.18,112,-72,-2053,78,-156,-777,341,-100,441,-120
,950,2023-10-27 10:32:47.19,65,-84,-2057,42,-152,-807,-23,212,-235,-94
,951,2023-10-27 10:32:47.20,82,-79,-2120,9,-166,-850,336,-95,431,-120
,952,2023-10-27 10:32:47.21,78,-41,-2098,-39,-193,-880,-9,205,-214,-98
,953,2023-10-27 10:32:47.22,52,-56,-2154,-90,-215,-922,353,-102,455,-125
,954,2023-10-27 10:32:47.23,28,-61,-2113,-153,-237,-961,1,194,-193,-97
,955,2023-10-27 10:32:47.24,15,-47,-2105,-212,-250,-1005,360,-93,453,-133
,956,2023-10-27 10:32:47.25,37,-48,-2043,-271,-281,-1048,23,196,-173,-109
,957,2023-10-27 10:32:47.26,37,-46,-2059,-324,-306,-1075,362,-101,463,-130
,958,2023-10-27 10:32:47.27,20,-49,-2121,-372,-325,-1131,16,177,-161,-96
,959,2023-10-27 10:32:47.28,16,-26,-2079,-431,-356,-1184,351,-105,456,-123
,960,2023-10-27 10:32:47.29,24,4,-2099,-493,-356,-1245,24,167,-143,-95
,961,2023-10-27 10:32:47.30,32,5,-2128,-553,-378,-1288,364,-106,470,-129
,962,2023-10-27 10:32:47.31,-9,17,-2160,-633,-370,-1341,41,158,-117,-99
,963,2023-10-27 10:32:47.32,16,39,-2168,-690,-400,-1377,358,-103,461,-127
,964,2023-10-27 10:32:47.33,11,88,-2126,-751,-413,-1401,36,157,-121,-96
,965,2023-10-27 10:32:47.34,14,55,-2088,-834,-408,-1419,337,-96,433,-120
,966,2023-10-27 10:32:47.35,-20,41,-2070,-909,-383,-1457,29,150,-121,-89
,967,2023-10-27 10:32:47.36,-16,25,-2030,-939,-406,-1483,351,-99,450,-126
,968,2023-10-27 10:32:47.37,-15,32,-2006,-954,-415,-1487,61,136,-75,-98
,969,2023-10-27 10:32:47.38,-31,32,-2006,-958,-461,-1487,344,-93,437,-125
,970,2023-10-27 10:32:47.39,-33,79,-2059,-963,-466,-1493,42,144,-102,-93
,971,2023-10-27 10:32:47.40,-49,127,-2114,-952,-443,-1504,313,-75,388,-119
,972,2023-10-27 10:32:47.41,-57,119,-2083,-929,-474,-1491,30,140,-110,-85
,973,2023-10-27 10:32:47.42,-72,154,-2091,-928,-456,-1465,302,-78,380,-112
,974,2023-10-27 10:32:47.43,-74,171,-2088,-921,-474,-1431,49,139,-90,-94
,975,2023-10-27 10:32:47.44,-127,194,-2106,-919,-477,-1399,313,-49,362,-132
,976,2023-10-27 10:32:47.45,-146,245,-2112,-914,-519,-1366,50,149,-99,-99
,977,2023-10-27 10:32:47.46,-249,280,-2118,-927,-544,-1342,304,-36,340,-134
,978,2023-10-27 10:32:47.47,-313,281,-2128,-911,-611,-1322,55,144,-89,-99
,979,2023-10-27 10:32:47.48,-268,309,-2134,-915,-690,-1285,301,-35,336,-133
,980,2023-10-27 10:32:47.49,-270,319,-2115,-944,-757,-1262,68,136,-68,-102
,981,2023-10-27 10:32:47.50,-321,350,-2104,-950,-837,-1232,305,-27,332,-139
,982,2023-10-27 10:32:47.51,-389,332,-2096,-945,-916,-1202,75,128,-53,-101
,983,2023-10-27 10:32:47.52,-475,311,-2012,-944,-968,-1158,296,10,286,-153
,984,2023-10-27 10:32:47.53,-519,306,-2057,-933,-1053,-1134,74,156,-82,-115
,985,2023-10-27 10:32:47.54,-579,262,-1982,-907,-1099,-1101,276,11,265,-143
,986,2023-10-27 10:32:47.55,-571,318,-1892,-848,-1163,-1057,68,133,-65,-100
,987,2023-10-27 10:32:47.56,-599,251,-1870,-777,-1210,-992,266,19,247,-142
,988,2023-10-27 10:32:47.57,-649,202,-1782,-711,-1214,-927,74,135,-61,-104
,989,2023-10-27 10:32:47.58,-697,237,-1710,-651,-1188,-838,265,30,235,-147
,990,2023-10-27 10:32:47.59,-757,289,-1679,-569,-1127,-749,84,128,-44,-106
,991,2023-10-27 10:32:47.60,-854,269,-1687,-482,-1043,-656,264,37,227,-150
,992,2023-10-27 10:32:47.61,-902,269,-1740,-387,-930,-582,93,123,-30,-108
,993,2023-10-27 10:32:47.62,-920,259,-1715,-295,-824,-506,261,42,219,-151
,994,2023-10-27 10:32:47.63,-967,270,-1743,-191,-713,-429,103,112,-9,-107
,995,2023-10-27 10:32:47.64,-1006,273,-1749,-84,-632,-337,247,55,192,-151
,996,2023-10-27 10:32:47.65,-999,263,-1705,-27,-513,-243,100,113,-13,-106
,997,2023-10-27 10:32:47.66,-1009,289,-1741,25,-433,-174,231,64,167,-147
,998,2023-10-27 10:32:47.67,-1003,258,-1736,80,-346,-114,107,105,2,-106
,999,2023-10-27 10:32:47.68,-1007,298,-1742,108,-250,-57,233,69,164,-151
,1000,2023-10-27 10:32:47.69,-978,297,-1761,132,-176,-12,119,103,16,-111
,1001,2023-10-27 10:32:47.70,-974,316,-1733,157,-116,47,229,84,145,-156
,1002,2023-10-27 10:32:47.71,-954,358,-1760,165,-40,94,130,97,33,-113
,1003,2023-10-27 10:32:47.72,-936,369,-1747,147,21,135,221,82,139,-151
,1004,2023-10-27 10:32:47.73,-884,388,-1775,128,87,167,137,81,56,-109
,1005,2023-10-27 10:32:47.74,-867,385,-1751,101,135,188,223,80,143,-151
,1006,2023-10-27 10:32:47.75,-841,416,-1777,63,195,196,150,68,82,-109
,1007,2023-10-27 10:32:47.76,-793,426,-1789,32,236,211,208,64,144,-136
,1008,2023-10-27 10:32:47.77,-764,441,-1810,14,274,209,150,45,105,-97
,1009,2023-10-27 10:32:47.78,-721,447,-1825,-7,304,206,202,102,100,-152
,1010,2023-10-27 10:32:47.79,-700,458,-1847,-28,339,196,158,71,87,-114
,1011,2023-10-27 10:32:47.80,-673,463,-1856,-55,363,185,191,115,76,-153
,1012,2023-10-27 10:32:47.81,-649,444,-1863,-71,376,180,160,57,103,-108
,1013,2023-10-27 10:32:47.82,-620,438,-1875,-93,374,178,172,101,71,-136
,1014,2023-10-27 10:32:47.83,-585,426,-1888,-97,362,176,149,35,114,-92
,1015,2023-10-27 10:32:47.84,-592,426,-1897,-98,362,173,193,112,81,-152
,1016,2023-10-27 10:32:47.85,-549,421,-1897,-102,353,174,197,40,157,-118
,1017,2023-10-27 10:32:47.86,-523,427,-1913,-101,348,179,198,125,73,-161
,1018,2023-10-27 10:32:47.87,-514,442,-1913,-103,345,183,199,27,172,-113
,1019,2023-10-27 10:32:47.88,-507,464,-1921,-109,343,189,178,114,64,-146
,1020,2023-10-27 10:32:47.89,-484,477,-1903,-108,346,190,201,10,191,-105
,1021,2023-10-27 10:32:47.90,-474,495,-1913,-108,337,189,169,133,36,-151
,1022,2023-10-27 10:32:47.91,-477,507,-1911,-109,335,175,208,27,181,-117
,1023,2023-10-27 10:32:47.92,-461,515,-1918,-99,335,156,158,152,6,-155
,1024,2023-10-27 10:32:47.93,-457,513,-1928,-82,330,132,210,22,188,-116
,1025,2023-10-27 10:32:47.94,-459,495,-1936,-67,317,113,152,150,2,-151
,1026,2023-10-27 10:32:47.95,-451,487,-1944,-45,305,105,219,8,211,-113
,1027,2023-10-27 10:32:47.96,-420,474,-1955,-28,284,109,147,155,-8,-151
,1028,2023-10-27 10:32:47.97,-416,478,-1963,-12,255,114,229,4,225,-116
,1029,2023-10-27 10:32:47.98,-423,480,-1942,5,239,122,152,162,-10,-157
,1030,2023-10-27 10:32:47.99,-419,468,-1952,28,222,123,248,0,248,-124
,1031,2023-10-27 10:32:48.00,-425,491,-1958,48,196,121,137,166,-29,-151
,1032,2023-10-27 10:32:48.01,-434,503,-1954,69,176,116,241,-10,251,-115
,1033,2023-10-27 10:32:48.02,-428,501,-1961,74,169,108,130,166,-36,-148
,1034,2023-10-27 10:32:48.03,-431,500,-1960,70,158,103,253,-16,269,-118
,1035,2023-10-27 10:32:48.04,-430,474,-1941,63,152,98,130,176,-46,-153
,1036,2023-10-27 10:32:48.05,-436,467,-1959,73,132,102,265,-18,283,-123
,1037,2023-10-27 10:32:48.06,-433,483,-1948,70,118,106,120,177,-57,-148
,1038,2023-10-27 10:32:48.07,-437,479,-1932,72,108,112,264,-27,291,-118
,1039,2023-10-27 10:32:48.08,-424,472,-1913,71,101,115,115,187,-72,-151
,1040,2023-10-27 10:32:48.09,-428,473,-1910,69,102,113,275,-33,308,-121
,1041,2023-10-27 10:32:48.10,-449,477,-1922,72,103,114,109,166,-57,-137
,1042,2023-10-27 10:32:48.11,-465,479,-1927,81,92,112,278,-58,336,-110
,1043,2023-10-27 10:32:48.12,-454,481,-1941,76,90,111,99,178,-79,-138
,1044,2023-10-27 10:32:48.13,-452,469,-1929,71,86,111,284,-46,330,-119
,1045,2023-10-27 10:32:48.14,-455,474,-1912,68,83,120,96,199,-103,-147
,1046,2023-10-27 10:32:48.15,-447,472,-1909,61,85,121,292,-48,340,-122
,1047,2023-10-27 10:32:48.16,-462,479,-1908,62,87,118,96,184,-88,-140
,1048,2023-10-27 10:32:48.17,-460,510,-1905,69,95,103,303,-62,365,-120
,1049,2023-10-27 10:32:48.18,-471,523,-1914,73,111,81,90,199,-109,-144
,1050,2023-10-27 10:32:48.19,-462,518,-1916,73,123,50,308,-58,366,-125
,1051,2023-10-27 10:32:48.20,-479,514,-1927,77,129,20,87,202,-115,-144
,1052,2023-10-27 10:32:48.21,-467,520,-1934,77,133,-5,319,-66,385,-126
,1053,2023-10-27 10:32:48.22,-469,512,-1938,72,134,-23,73,198,-125,-135
,1054,2023-10-27 10:32:48.23,-471,507,-1940,71,130,-43,310,-73,383,-118
,1055,2023-10-27 10:32:48.24,-471,510,-1940,66,121,-59,56,206,-150,-131
,1056,2023-10-27 10:32:48.25,-469,488,-1942,62,119,-77,319,-70,389,-124
,1057,2023-10-27 10:32:48.26,-470,485,-1946,56,111,-90,64,212,-148,-138
,1058,2023-10-27 10:32:48.27,-467,497,-1941,57,110,-98,329,-70,399,-129
,1059,2023-10-27 10:32:48.28,-453,481,-1938,50,119,-107,62,221,-159,-141
,1060,2023-10-27 10:32:48.29,-448,474,-1917,50,123,-110,328,-83,411,-122
,1061,2023-10-27 10:32:48.30,-452,470,-1932,56,129,-110,52,196,-144,-124
,1062,2023-10-27 10:32:48.31,-448,452,-1938,57,130,-110,335,-92,427,-121
,1063,2023-10-27 10:32:48.32,-452,445,-1952,60,133,-106,55,224,-169,-139
,1064,2023-10-27 10:32:48.33,-455,424,-1970,67,121,-98,349,-76,425,-136
,1065,2023-10-27 10:32:48.34,-457,414,-1979,80,101,-78,60,226,-166,-143
,1066,2023-10-27 10:32:48.35,-436,408,-1979,88,85,-58,347,-93,440,-127
,1067,2023-10-27 10:32:48.36,-465,396,-1985,98,60,-34,45,227,-182,-136
,1068,2023-10-27 10:32:48.37,-449,395,-1986,105,35,-7,353,-91,444,-131
,1069,2023-10-27 10:32:48.38,-457,408,-1963,112,12,13,55,225,-170,-140
,1070,2023-10-27 10:32:48.39,-459,415,-1952,111,-4,29,366,-103,469,-131
,1071,2023-10-27 10:32:48.40,-456,430,-1934,111,-17,33,44,224,-180,-134
,1072,2023-10-27 10:32:48.41,-463,433,-1937,106,-18,34,355,-102,457,-126
,1073,2023-10-27 10:32:48.42,-465,434,-1935,91,-20,32,32,230,-198,-131
,1074,2023-10-27 10:32:48.43,-451,444,-1937,71,-25,32,358,-101,459,-128
,1075,2023-10-27 10:32:48.44,-452,436,-1920,45,-26,33,35,230,-195,-132
,1076,2023-10-27 10:32:48.45,-438,410,-1915,-1,-5,33,365,-105,470,-130
,1077,2023-10-27 10:32:48.46,-437,401,-1936,-6,4,32,27,234,-207,-130
,1078,2023-10-27 10:32:48.47,-432,385,-1932,4,16,36,366,-104,470,-131
,1079,2023-10-27 10:32:48.48,-415,380,-1942,13,26,38,30,231,-201,-130
,1080,2023-10-27 10:32:48.49,-407,371,-1941,27,46,43,376,-111,487,-132
,1081,2023-10-27 10:32:48.50,-409,365,-1944,44,64,53,30,227,-197,-128
,1082,2023-10-27 10:32:48.51,-414,369,-1964,69,79,63,374,-109,483,-132
,1083,2023-10-27 10:32:48.52,-409,368,-1969,95,91,69,27,241,-214,-134
,1084,2023-10-27 10:32:48.53,-416,372,-1975,122,99,72,376,-105,481,-135
,1085,2023-10-27 10:32:48.54,-400,385,-1981,143,102,76,18,237,-219,-127
,1086,2023-10-27 10:32:48.55,-411,379,-1989,159,99,78,379,-105,484,-137
,1087,2023-10-27 10:32:48.56,-409,372,-1984,170,91,81,19,238,-219,-128
,1088,2023-10-27 10:32:48.57,-418,363,-1984,179,86,85,380,-107,487,-136
,1089,2023-10-27 10:32:48.58,-413,353,-1982,183,74,91,18,241,-223,-129
,1090,2023-10-27 10:32:48.59,-409,347,-1995,192,65,95,384,-102,486,-141
,1091,2023-10-27 10:32:48.60,-424,335,-1983,200,52,104,23,243,-220,-133
,1092,2023-10-27 10:32:48.61,-443,328,-1983,209,36,122,390,-114,504,-138
,1093,2023-10-27 10:32:48.62,-444,317,-1985,211,19,145,26,234,-208,-130
,1094,2023-10-27 10:32:48.63,-435,309,-1979,206,4,167,386,-111,497,-137
,1095,2023-10-27 10:32:48.64,-456,304,-1984,196,-3,195,16,239,-223,-127
,1096,2023-10-27 10:32:48.65,-440,310,-1982,179,-16,227,372,-116,488,-128
,1097,2023-10-27 10:32:48.66,-438,295,-1944,174,-18,263,15,234,-219,-124
,1098,2023-10-27 10:32:48.67,-442,285,-1932,151,-15,304,390,-108,498,-141
,1099,2023-10-27 10:32:48.68,-421,276,-1931,137,2,346,21,235,-214,-128
,1100,2023-10-27 10:32:48.69,-419,281,-1929,143,30,389,394,-108,502,-143
,1101,2023-10-27 10:32:48.70,-416,253,-1926,151,51,433,19,234,-215,-126
,1102,2023-10-27 10:32:48.71,-420,231,-1929,159,62,490,382,-112,494,-135
,1103,2023-10-27 10:32:48.72,-397,212,-1942,172,85,552,16,224,-208,-120
,1104,2023-10-27 10:32:48.73,-405,170,-1957,190,99,634,389,-110,499,-139
,1105,2023-10-27 10:32:48.74,-381,163,-1924,207,84,727,8,218,-210,-113
,1106,2023-10-27 10:32:48.75,-378,116,-1987,219,115,834,377,-105,482,-136
,1107,2023-10-27 10:32:48.76,-354,128,-1958,238,79,956,5,227,-222,-116
,1108,2023-10-27 10:32:48.77,-330,109,-2005,266,105,1082,376,-88,464,-144
,1109,2023-10-27 10:32:48.78,-311,119,-1959,291,80,1211,1,239,-238,-120
,1110,2023-10-27 10:32:48.79,-308,141,-2011,311,116,1338,370,-93,463,-138
,1111,2023-10-27 10:32:48.80,-273,165,-2040,354,129,1466,8,223,-215,-115
,1112,2023-10-27 10:32:48.81,-271,156,-2009,409,126,1583,374,-96,470,-139
,1113,2023-10-27 10:32:48.82,-261,193,-2019,454,118,1694,7,222,-215,-114
,1114,2023-10-27 10:32:48.83,-248,200,-2020,474,131,1790,370,-84,454,-143
,1115,2023-10-27 10:32:48.84,-208,233,-2004,492,104,1884,8,227,-219,-117
,1116,2023-10-27 10:32:48.85,-203,226,-1978,493,119,1959,366,-83,449,-141
,1117,2023-10-27 10:32:48.86,-189,273,-2026,493,108,2029,10,222,-212,-116
,1118,2023-10-27 10:32:48.87,-161,292,-1990,483,126,2070,367,-77,444,-145
,1119,2023-10-27 10:32:48.88,-168,330,-1985,492,121,2108,13,222,-209,-117
,1120,2023-10-27 10:32:48.89,-141,351,-2027,506,137,2121,364,-75,439,-144
,1121,2023-10-27 10:32:48.90,-149,363,-2015,502,141,2117,18,213,-195,-115
,1122,2023-10-27 10:32:48.91,-151,379,-2037,501,137,2103,367,-73,440,-147
,1123,2023-10-27 10:32:48.92,-163,392,-2059,501,123,2080,24,209,-185,-116
,1124,2023-10-27 10:32:48.93,-133,398,-2060,483,100,2052,362,-68,430,-147
,1125,2023-10-27 10:32:48.94,-145,386,-2067,462,52,2026,22,202,-180,-112
,1126,2023-10-27 10:32:48.95,-153,397,-2073,430,34,1995,360,-65,425,-147
,1127,2023-10-27 10:32:48.96,-129,378,-2051,399,23,1951,36,206,-170,-121
,1128,2023-10-27 10:32:48.97,-98,383,-2041,383,13,1915,372,-58,430,-157
,1129,2023-10-27 10:32:48.98,-143,425,-2036,356,23,1881,46,196,-150,-121
,1130,2023-10-27 10:32:48.99,-95,417,-2012,341,44,1837,356,-52,408,-152
,1131,2023-10-27 10:32:49.00,-116,407,-2048,342,43,1779,30,199,-169,-114
,1132,2023-10-27 10:32:49.01,-109,425,-1999,325,46,1718,344,-43,387,-150
,1133,2023-10-27 10:32:49.02,-89,434,-1998,295,57,1654,38,193,-155,-115
,1134,2023-10-27 10:32:49.03,-73,418,-1992,274,58,1600,351,-36,387,-157
,1135,2023-10-27 10:32:49.04,-105,428,-1966,255,65,1533,39,185,-146,-112
,1136,2023-10-27 10:32:49.05,-88,419,-2044,253,71,1469,342,-36,378,-153
,1137,2023-10-27 10:32:49.06,-104,421,-2008,250,74,1404,39,164,-125,-101
,1138,2023-10-27 10:32:49.07,-103,396,-2033,255,102,1337,335,-29,364,-153
,1139,2023-10-27 10:32:49.08,-88,398,-2024,248,87,1279,48,179,-131,-113
,1140,2023-10-27 10:32:49.09,-76,385,-2018,252,78,1225,331,-17,348,-157
,1141,2023-10-27 10:32:49.10,-105,382,-2052,240,92,1166,50,163,-113,-106
,1142,2023-10-27 10:32:49.11,-96,371,-2048,224,102,1112,316,-24,340,-146
,1143,2023-10-27 10:32:49.12,-95,388,-2067,230,97,1057,45,158,-113,-101
,1144,2023-10-27 10:32:49.13,-56,349,-2004,235,64,1010,312,-5,317,-153
,1145,2023-10-27 10:32:49.14,-85,347,-2045,241,91,964,64,165,-101,-114
,1146,2023-10-27 10:32:49.15,-46,367,-2022,246,96,915,316,-7,323,-154
,1147,2023-10-27 10:32:49.16,-39,328,-2020,250,121,871,76,148,-72,-112
,1148,2023-10-27 10:32:49.17,-38,328,-1973,266,106,840,312,-3,315,-154
,1149,2023-10-27 10:32:49.18,-13,360,-2045,255,152,798,83,147,-64,-115
,1150,2023-10-27 10:32:49.19,-27,348,-2009,254,179,757,303,7,296,-155
,1151,2023-10-27 10:32:49.20,-13,382,-2025,268,196,698,79,137,-58,-108
,1152,2023-10-27 10:32:49.21,-26,383,-2029,259,215,636,290,12,278,-151
,1153,2023-10-27 10:32:49.22,-29,378,-2046,245,229,567,82,129,-47,-105
,1154,2023-10-27 10:32:49.23,-23,353,-2033,222,229,497,287,18,269,-152
,1155,2023-10-27 10:32:49.24,-13,359,-2049,194,230,428,91,125,-34,-108
,1156,2023-10-27 10:32:49.25,-16,332,-2049,178,222,362,291,18,273,-154
,1157,2023-10-27 10:32:49.26,11,333,-2100,175,208,301,103,110,-7,-106
,1158,2023-10-27 10:32:49.27,6,309,-2066,157,202,234,314,27,287,-170
,1159,2023-10-27 10:32:49.28,20,310,-2089,160,192,185,133,117,16,-125
,1160,2023-10-27 10:32:49.29,37,308,-2061,148,174,139,333,35,298,-184
,1161,2023-10-27 10:32:49.30,35,267,-2089,136,158,103,150,108,42,-129
,1162,2023-10-27 10:32:49.31,26,293,-2062,128,153,55,344,27,317,-185
,1163,2023-10-27 10:32:49.32,43,256,-2081,108,131,16,168,86,82,-127
,1164,2023-10-27 10:32:49.33,38,257,-2092,84,119,-18,346,31,315,-188
,1165,2023-10-27 10:32:49.34,46,246,-2092,73,94,-45,172,88,84,-130
,1166,2023-10-27 10:32:49.35,59,238,-2076,62,74,-67,336,44,292,-190
,1167,2023-10-27 10:32:49.36,57,226,-2081,48,58,-89,181,82,99,-131
,1168,2023-10-27 10:32:49.37,52,220,-2090,41,49,-107,333,38,295,-185
,1169,2023-10-27 10:32:49.38,44,203,-2074,46,16,-120,188,61,127,-124
,1170,2023-10-27 10:32:49.39,41,202,-2088,52,-10,-119,315,50,265,-182
,1171,2023-10-27 10:32:49.40,40,168,-2084,59,-35,-114,184,64,120,-124
,1172,2023-10-27 10:32:49.41,26,168,-2082,61,-57,-104,273,70,203,-171
,1173,2023-10-27 10:32:49.42,27,169,-2080,67,-72,-96,181,56,125,-118
,1174,2023-10-27 10:32:49.43,7,163,-2081,67,-86,-84,215,79,136,-147
,1175,2023-10-27 10:32:49.44,2,172,-2076,57,-95,-68,151,61,90,-106
,1176,2023-10-27 10:32:49.45,-15,165,-2065,42,-93,-56,185,93,92,-139
,1177,2023-10-27 10:32:49.46,5,178,-2062,43,-121,-41,152,47,105,-99
,1178,2023-10-27 10:32:49.47,-1,171,-2047,41,-131,-30,188,82,106,-135
,1179,2023-10-27 10:32:49.48,-13,183,-2051,31,-129,-24,171,41,130,-106
,1180,2023-10-27 10:32:49.49,-11,176,-2041,27,-128,-21,210,101,109,-155
,1181,2023-10-27 10:32:49.50,-23,187,-2051,17,-121,-14,182,36,146,-109
,1182,2023-10-27 10:32:49.51,-22,212,-2033,12,-115,-10,202,108,94,-155
,1183,2023-10-27 10:32:49.52,-32,215,-2025,4,-103,-6,192,27,165,-109
,1184,2023-10-27 10:32:49.53,-33,222,-2029,-7,-91,-12,192,109,83,-150
,1185,2023-10-27 10:32:49.54,-31,235,-2033,-20,-77,-20,196,20,176,-108
,1186,2023-10-27 10:32:49.55,-45,245,-2045,-34,-67,-34,184,116,68,-150
,1187,2023-10-27 10:32:49.56,-42,249,-2042,-43,-65,-45,204,15,189,-109
,1188,2023-10-27 10:32:49.57,-45,237,-2040,-49,-60,-57,182,128,54,-155
,1189,2023-10-27 10:32:49.58,-54,225,-2040,-45,-53,-66,218,7,211,-112
,1190,2023-10-27 10:32:49.59,-34,229,-2021,-38,-50,-70,179,126,53,-152
,1191,2023-10-27 10:32:49.60,-48,220,-2016,-29,-41,-68,222,0,222,-111
,1192,2023-10-27 10:32:49.61,-49,217,-2014,-18,-35,-69,164,135,29,-149
,1193,2023-10-27 10:32:49.62,-39,224,-2025,-6,-27,-64,227,-5,232,-111
,1194,2023-10-27 10:32:49.63,-37,209,-2025,5,-26,-67,159,136,23,-147
,1195,2023-10-27 10:32:49.64,-40,206,-2037,19,-24,-65,239,-17,256,-111
,1196,2023-10-27 10:32:49.65,-34,191,-2052,36,-32,-59,169,144,25,-156
,1197,2023-10-27 10:32:49.66,-41,179,-2057,53,-40,-50,256,-18,274,-119
,1198,2023-10-27 10:32:49.67,-37,160,-2054,63,-38,-40,143,143,0,-143
,1199,2023-10-27 10:32:49.68,-38,147,-2062,69,-26,-35,244,-30,274,-107
,1200,2023-10-27 10:32:49.69,-29,139,-2062,89,-36,-24,134,148,-14,-141
,1201,2023-10-27 10:32:49.70,-26,139,-2056,117,-49,-12,256,-37,293,-109
,1202,2023-10-27 10:32:49.71,-35,131,-2061,135,-53,0,136,155,-19,-145
,1203,2023-10-27 10:32:49.72,-41,127,-2085,153,-51,12,267,-41,308,-113
,1204,2023-10-27 10:32:49.73,-45,125,-2079,173,-57,26,128,158,-30,-143
,1205,2023-10-27 10:32:49.74,-44,123,-2076,186,-56,39,269,-49,318,-110
,1206,2023-10-27 10:32:49.75,-64,132,-2086,187,-62,49,110,151,-41,-130
,1207,2023-10-27 10:32:49.76,-58,150,-2084,179,-77,54,265,-62,327,-101
,1208,2023-10-27 10:32:49.77,-51,156,-2066,163,-88,56,100,157,-57,-128
,1209,2023-10-27 10:32:49.78,-62,167,-2067,145,-98,50,271,-63,334,-104
,1210,2023-10-27 10:32:49.79,-69,168,-2060,125,-104,45,91,167,-76,-129
,1211,2023-10-27 10:32:49.80,-75,182,-2054,107,-108,38,277,-62,339,-107
,1212,2023-10-27 10:32:49.81,-77,169,-2058,89,-118,27,85,176,-91,-130
,1213,2023-10-27 10:32:49.82,-78,156,-2050,69,-122,17,283,-69,352,-107
,1214,2023-10-27 10:32:49.83,-73,159,-2042,58,-121,12,86,178,-92,-132
,1215,2023-10-27 10:32:49.84,-82,153,-2037,48,-121,9,290,-71,361,-109
,1216,2023-10-27 10:32:49.85,-87,152,-2029,40,-110,6,85,194,-109,-139
,1217,2023-10-27 10:32:49.86,-82,151,-2025,39,-102,3,296,-72,368,-112
,1218,2023-10-27 10:32:49.87,-86,154,-2014,33,-90,-4,71,190,-119,-130
,1219,2023-10-27 10:32:49.88,-79,157,-2020,28,-81,-13,293,-94,387,-99
,1220,2023-10-27 10:32:49.89,-94,151,-2012,24,-67,-15,68,192,-124,-130
,1221,2023-10-27 10:32:49.90,-92,149,-2029,19,-56,-20,308,-81,389,-113
,1222,2023-10-27 10:32:49.91,-92,143,-2033,17,-51,-25,50,195,-145,-122
,1223,2023-10-27 10:32:49.92,-91,144,-2041,17,-48,-26,308,-89,397,-109
,1224,2023-10-27 10:32:49.93,-80,125,-2048,14,-41,-28,50,200,-150,-125
,1225,2023-10-27 10:32:49.94,-97,142,-2050,11,-36,-28,316,-95,411,-110
,1226,2023-10-27 10:32:49.95,-83,139,-2030,17,-41,-24,53,198,-145,-125
,1227,2023-10-27 10:32:49.96,-90,129,-2037,17,-35,-23,330,-98,428,-116
,1228,2023-10-27 10:32:49.97,-100,139,-2054,22,-38,-24,57,205,-148,-131
,1229,2023-10-27 10:32:49.98,-96,146,-2046,22,-33,-23,333,-101,434,-116
,1230,2023-10-27 10:32:49.99,-104,137,-2057,23,-30,-21,43,207,-164,-125
,1231,2023-10-27 10:32:50.00,-104,136,-2069,24,-21,-20,334,-103,437,-115
,1232,2023-10-27 10:32:50.01,-102,128,-2057,31,-29,-20,45,208,-163,-126
,1233,2023-10-27 10:32:50.02,-127,119,-2066,35,-27,-20,347,-107,454,-120
,1234,2023-10-27 10:32:50.03,-113,128,-2081,39,-37,-19,39,205,-166,-122
,1235,2023-10-27 10:32:50.04,-140,124,-2077,45,-53,-21,342,-113,455,-114
,1236,2023-10-27 10:32:50.05,-111,123,-2067,49,-64,-22,34,213,-179,-123
,1237,2023-10-27 10:32:50.06,-131,133,-2064,48,-59,-20,351,-113,464,-119
,1238,2023-10-27 10:32:50.07,-123,137,-2051,47,-50,-27,30,209,-179,-119
,1239,2023-10-27 10:32:50.08,-126,145,-2038,46,-47,-29,356,-122,478,-117
,1240,2023-10-27 10:32:50.09,-133,142,-2028,37,-43,-34,34,208,-174,-121
,1241,2023-10-27 10:32:50.10,-135,152,-2024,30,-40,-43,362,-122,484,-120
,1242,2023-10-27 10:32:50.11,-149,156,-2033,15,-36,-60,28,213,-185,-120
,1243,2023-10-27 10:32:50.12,-144,171,-2048,-5,-28,-72,362,-118,480,-122
,1244,2023-10-27 10:32:50.13,-141,192,-2052,-24,-29,-88,24,220,-196,-122
,1245,2023-10-27 10:32:50.14,-141,196,-2040,-47,-26,-106,360,-120,480,-120
,1246,2023-10-27 10:32:50.15,-152,189,-2040,-76,-15,-128,10,218,-208,-114
,1247,2023-10-27 10:32:50.16,-135,199,-2035,-108,-13,-147,358,-122,480,-118
,1248,2023-10-27 10:32:50.17,-132,198,-2041,-137,1,-170,15,220,-205,-117
,1249,2023-10-27 10:32:50.18,-125,183,-2037,-156,11,-185,371,-120,491,-125
,1250,2023-10-27 10:32:50.19,-105,186,-2019,-172,35,-200,15,225,-210,-120
,1251,2023-10-27 10:32:50.20,-112,179,-2015,-182,52,-212,370,-119,489,-125
,1252,2023-10-27 10:32:50.21,-116,179,-2031,-194,71,-218,13,221,-208,-117
,1253,2023-10-27 10:32:50.22,-108,177,-2051,-205,70,-223,372,-127,499,-122
,1254,2023-10-27 10:32:50.23,-90,201,-2037,-227,78,-218,11,217,-206,-114
,1255,2023-10-27 10:32:50.24,-89,211,-2039,-242,96,-214,377,-131,508,-123
,1256,2023-10-27 10:32:50.25,-75,212,-2046,-254,124,-213,10,215,-205,-112
,1257,2023-10-27 10:32:50.26,-74,203,-2025,-255,160,-213,388,-116,504,-136
,1258,2023-10-27 10:32:50.27,-36,202,-2002,-242,185,-206,14,215,-201,-114
,1259,2023-10-27 10:32:50.28,-31,200,-1993,-224,216,-196,381,-130,511,-125
,1260,2023-10-27 10:32:50.29,-26,198,-1967,-205,260,-176,2,197,-195,-99
,1261,2023-10-27 10:32:50.30,-34,187,-1958,-172,290,-163,382,-133,515,-124
,1262,2023-10-27 10:32:50.31,-8,188,-1971,-135,313,-149,10,211,-201,-110
,1263,2023-10-27 10:32:50.32,15,195,-1942,-92,334,-141,372,-138,510,-117
,1264,2023-10-27 10:32:50.33,15,175,-1963,-54,365,-130,3,203,-200,-103
,1265,2023-10-27 10:32:50.34,11,212,-1975,-19,384,-117,382,-130,512,-126
,1266,2023-10-27 10:32:50.35,30,202,-1984,21,393,-111,14,214,-200,-114
,1267,2023-10-27 10:32:50.36,38,222,-1997,48,415,-104,387,-127,514,-130
,1268,2023-10-27 10:32:50.37,40,241,-2034,75,406,-120,6,205,-199,-105
,1269,2023-10-27 10:32:50.38,52,236,-2022,82,436,-123,379,-127,506,-126
,1270,2023-10-27 10:32:50.39,57,232,-2049,102,420,-140,4,209,-205,-106
,1271,2023-10-27 10:32:50.40,53,253,-2045,110,414,-142,381,-124,505,-128
,1272,2023-10-27 10:32:50.41,50,232,-2045,111,387,-154,9,204,-195,-106
,1273,2023-10-27 10:32:50.42,36,225,-2087,107,374,-165,378,-132,510,-123
,1274,2023-10-27 10:32:50.43,51,197,-2103,104,329,-175,7,193,-186,-100
,1275,2023-10-27 10:32:50.44,36,220,-2123,102,289,-189,380,-126,506,-127
,1276,2023-10-27 10:32:50.45,44,196,-2160,96,250,-200,12,199,-187,-105
,1277,2023-10-27 10:32:50.46,37,189,-2163,90,214,-203,384,-123,507,-130
,1278,2023-10-27 10:32:50.47,61,178,-2157,92,166,-198,18,195,-177,-106
,1279,2023-10-27 10:32:50.48,34,160,-2177,92,131,-192,378,-118,496,-130
,1280,2023-10-27 10:32:50.49,36,156,-2162,91,99,-184,8,196,-188,-102
,1281,2023-10-27 10:32:50.50,59,175,-2147,96,59,-174,369,-114,483,-127
,1282,2023-10-27 10:32:50.51,42,160,-2138,90,34,-160,12,191,-179,-101
,1283,2023-10-27 10:32:50.52,38,162,-2118,87,5,-145,373,-112,485,-130
,1284,2023-10-27 10:32:50.53,17,162,-2131,87,-23,-139,14,189,-175,-101
,1285,2023-10-27 10:32:50.54,57,167,-2077,75,-45,-121,364,-107,471,-128
,1286,2023-10-27 10:32:50.55,44,174,-2049,71,-58,-109,12,186,-174,-99
,1287,2023-10-27 10:32:50.56,37,155,-2041,56,-81,-81,364,-104,468,-130
,1288,2023-10-27 10:32:50.57,37,160,-2047,49,-86,-67,17,183,-166,-100
,1289,2023-10-27 10:32:50.58,28,154,-2047,42,-95,-52,366,-100,466,-133
,1290,2023-10-27 10:32:50.59,11,157,-2046,39,-101,-35,25,181,-156,-103
,1291,2023-10-27 10:32:50.60,5,157,-2035,39,-105,-17,362,-96,458,-133
,1292,2023-10-27 10:32:50.61,3,161,-2032,37,-103,-2,27,174,-147,-100
,1293,2023-10-27 10:32:50.62,6,160,-2027,37,-101,8,356,-97,453,-129
,1294,2023-10-27 10:32:50.63,14,161,-2029,36,-102,17,29,167,-138,-98
,1295,2023-10-27 10:32:50.64,-3,161,-2026,37,-99,24,357,-93,450,-132
,1296,2023-10-27 10:32:50.65,3,163,-2025,41,-88,31,41,161,-120,-101
,1297,2023-10-27 10:32:50.66,5,153,-2025,55,-77,37,366,-82,448,-142
,1298,2023-10-27 10:32:50.67,6,150,-2036,59,-69,44,62,174,-112,-118
,1299,2023-10-27 10:32:50.68,-5,151,-2046,64,-62,49,362,-80,442,-141
,1300,2023-10-27 10:32:50.69,-14,157,-2058,68,-59,59,50,150,-100,-100
,1301,2023-10-27 10:32:50.70,-7,163,-2059,67,-55,68,346,-87,433,-129
,1302,2023-10-27 10:32:50.71,-15,167,-2062,61,-50,74,55,147,-92,-101
,1303,2023-10-27 10:32:50.72,-6,167,-2057,52,-45,76,348,-61,409,-143
,1304,2023-10-27 10:32:50.73,-7,175,-2054,43,-41,79,60,155,-95,-107
,1305,2023-10-27 10:32:50.74,-2,175,-2054,31,-34,80,342,-61,403,-140
,1306,2023-10-27 10:32:50.75,1,172,-2053,24,-29,83,62,139,-77,-100
,1307,2023-10-27 10:32:50.76,-1,170,-2057,18,-22,85,315,-63,378,-126
,1308,2023-10-27 10:32:50.77,2,163,-2050,17,-19,87,54,137,-83,-95
,1309,2023-10-27 10:32:50.78,0,162,-2045,20,-10,86,321,-44,365,-138
,1310,2023-10-27 10:32:50.79,12,154,-2046,23,-6,88,68,129,-61,-98
,1311,2023-10-27 10:32:50.80,2,160,-2048,28,-1,84,328,-41,369,-143
,1312,2023-10-27 10:32:50.81,14,153,-2043,38,6,84,82,128,-46,-105
,1313,2023-10-27 10:32:50.82,6,154,-2042,46,9,78,325,-32,357,-146
,1314,2023-10-27 10:32:50.83,-1,161,-2046,55,12,73,90,118,-28,-104
,1315,2023-10-27 10:32:50.84,5,155,-2045,59,7,72,319,-28,347,-145
,1316,2023-10-27 10:32:50.85,-4,156,-2056,62,5,66,93,110,-17,-101
,1317,2023-10-27 10:32:50.86,1,153,-2047,65,0,61,312,-22,334,-145
,1318,2023-10-27 10:32:50.87,-2,156,-2051,64,-1,54,97,106,-9,-101
,1319,2023-10-27 10:32:50.88,-7,150,-2046,64,-3,51,302,-16,318,-143
,1320,2023-10-27 10:32:50.89,7,141,-2053,63,-4,45,100,97,3,-98
,1321,2023-10-27 10:32:50.90,3,150,-2041,63,-8,40,293,-12,305,-140
,1322,2023-10-27 10:32:50.91,7,141,-2058,62,-8,35,101,87,14,-94
,1323,2023-10-27 10:32:50.92,9,145,-2056,60,-8,28,280,-5,285,-137
,1324,2023-10-27 10:32:50.93,0,142,-2059,58,-9,25,112,84,28,-98
,1325,2023-10-27 10:32:50.94,6,138,-2055,56,-9,26,290,3,287,-146
,1326,2023-10-27 10:32:50.95,8,135,-2064,55,-10,28,126,71,55,-98
,1327,2023-10-27 10:32:50.96,2,135,-2072,55,-11,28,276,1,275,-138
,1328,2023-10-27 10:32:50.97,-2,136,-2066,51,-12,24,124,64,60,-94
,1329,2023-10-27 10:32:50.98,4,130,-2064,48,-12,26,263,12,251,-137
,1330,2023-10-27 10:32:50.99,-1,125,-2061,44,-13,29,130,62,68,-96
,1331,2023-10-27 10:32:51.00,3,122,-2062,37,-14,30,264,20,244,-142
,1332,2023-10-27 10:32:51.01,-10,131,-2057,35,-16,35,143,55,88,-99
,1333,2023-10-27 10:32:51.02,-13,127,-2057,33,-17,31,258,24,234,-141
,1334,2023-10-27 10:32:51.03,-7,120,-2058,30,-16,35,153,47,106,-100
,1335,2023-10-27 10:32:51.04,-11,125,-2054,31,-15,37,258,38,220,-148
,1336,2023-10-27 10:32:51.05,-8,124,-2051,29,-11,40,163,44,119,-103
,1337,2023-10-27 10:32:51.06,7,118,-2052,33,-12,42,248,40,208,-144
,1338,2023-10-27 10:32:51.07,-4,124,-2046,30,-12,46,164,32,132,-98
,1339,2023-10-27 10:32:51.08,-6,132,-2048,27,-11,45,248,53,195,-150
,1340,2023-10-27 10:32:51.09,-8,131,-2046,24,-10,46,170,28,142,-99
,1341,2023-10-27 10:32:51.10,4,131,-2043,21,-2,48,226,53,173,-139
,1342,2023-10-27 10:32:51.11,-19,134,-2054,23,-2,48,163,4,159,-83
,1343,2023-10-27 10:32:51.12,-2,133,-2043,23,-4,49,220,66,154,-143
,1344,2023-10-27 10:32:51.13,11,135,-2043,25,-2,46,186,21,165,-103
,1345,2023-10-27 10:32:51.14,-4,132,-2050,28,-2,47,214,77,137,-145
,1346,2023-10-27 10:32:51.15,2,129,-2047,26,1,45,193,11,182,-102
,1347,2023-10-27 10:32:51.16,2,130,-2051,27,7,43,207,77,130,-142
,1348,2023-10-27 10:32:51.17,-8,136,-2052,30,7,43,189,-8,197,-90
,1349,2023-10-27 10:32:51.18,-6,135,-2050,31,8,38,199,76,123,-137
,1350,2023-10-27 10:32:51.19,0,139,-2055,32,6,36,206,-11,217,-97
,1351,2023-10-27 10:32:51.20,9,143,-2062,25,3,35,189,90,99,-139
,1352,2023-10-27 10:32:51.21,0,147,-2065,17,-2,29,206,-10,216,-98
,1353,2023-10-27 10:32:51.22,16,138,-2059,10,2,22,177,90,87,-133
,1354,2023-10-27 10:32:51.23,3,139,-2064,5,6,17,217,-23,240,-97
,1355,2023-10-27 10:32:51.24,5,148,-2065,6,10,15,176,98,78,-137
,1356,2023-10-27 10:32:51.25,15,144,-2068,2,9,9,230,-24,254,-103
,1357,2023-10-27 10:32:51.26,7,142,-2066,1,7,7,158,109,49,-133
,1358,2023-10-27 10:32:51.27,9,133,-2065,0,3,5,218,-24,242,-97
,1359,2023-10-27 10:32:51.28,-3,135,-2058,0,-4,7,154,119,35,-136
,1360,2023-10-27 10:32:51.29,-9,135,-2053,-1,-10,10,240,-30,270,-105
,1361,2023-10-27 10:32:51.30,8,136,-2051,-1,-14,11,143,122,21,-132
,1362,2023-10-27 10:32:51.31,10,142,-2053,-3,-13,13,238,-34,272,-102
,1363,2023-10-27 10:32:51.32,-6,146,-2040,-6,-16,13,131,136,-5,-133
,1364,2023-10-27 10:32:51.33,-10,144,-2045,-8,-14,15,241,-37,278,-102
,1365,2023-10-27 10:32:51.34,-16,144,-2052,-12,-14,14,135,136,-1,-135
,1366,2023-10-27 10:32:51.35,-3,145,-2053,-14,-13,16,260,-48,308,-106
,1367,2023-10-27 10:32:51.36,1,138,-2055,-11,-11,22,128,138,-10,-133
,1368,2023-10-27 10:32:51.37,-20,137,-2053,-9,-13,24,262,-54,316,-104
,1369,2023-10-27 10:32:51.38,-4,144,-2047,-3,-13,27,114,139,-25,-126
,1370,2023-10-27 10:32:51.39,-9,143,-2055,0,-10,30,267,-67,334,-100
,1371,2023-10-27 10:32:51.40,-4,145,-2049,6,-6,32,118,142,-24,-130
,1372,2023-10-27 10:32:51.41,-12,145,-2057,7,-3,33,288,-65,353,-111
,1373,2023-10-27 10:32:51.42,-17,147,-2057,10,-1,32,120,159,-39,-139
,1374,2023-10-27 10:32:51.43,-8,156,-2059,10,0,33,285,-69,354,-108
,1375,2023-10-27 10:32:51.44,-16,150,-2061,9,1,30,98,154,-56,-126
,1376,2023-10-27 10:32:51.45,-16,151,-2064,9,3,29,287,-80,367,-103
,1377,2023-10-27 10:32:51.46,-15,148,-2070,11,-2,30,96,159,-63,-127
,1378,2023-10-27 10:32:51.47,-18,141,-2062,15,-1,27,302,-82,384,-110
,1379,2023-10-27 10:32:51.48,-7,145,-2054,14,1,30,99,166,-67,-132
,1380,2023-10-27 10:32:51.49,-9,139,-2049,20,5,28,318,-78,396,-120
,1381,2023-10-27 10:32:51.50,-7,140,-2050,22,9,29,91,170,-79,-130
,1382,2023-10-27 10:32:51.51,-12,147,-2054,24,16,26,317,-89,406,-114
,1383,2023-10-27 10:32:51.52,-3,148,-2051,25,18,23,80,154,-74,-117
,1384,2023-10-27 10:32:51.53,-16,140,-2060,25,21,19,319,-99,418,-110
,1385,2023-10-27 10:32:51.54,-14,144,-2064,21,20,19,85,178,-93,-131
,1386,2023-10-27 10:32:51.55,-7,140,-2057,23,17,18,327,-91,418,-118
,1387,2023-10-27 10:32:51.56,-1,132,-2054,21,11,17,80,184,-104,-132
,1388,2023-10-27 10:32:51.57,-5,136,-2050,20,7,15,336,-101,437,-117
,1389,2023-10-27 10:32:51.58,-6,135,-2044,17,5,16,62,172,-110,-117
,1390,2023-10-27 10:32:51.59,13,138,-2046,18,4,16,337,-108,445,-114
,1391,2023-10-27 10:32:51.60,3,140,-2047,18,7,14,68,184,-116,-126
,1392,2023-10-27 10:32:51.61,5,138,-2060,19,7,12,341,-109,450,-116
,1393,2023-10-27 10:32:51.62,-1,133,-2061,19,6,11,67,191,-124,-129
,1394,2023-10-27 10:32:51.63,0,130,-2054,20,4,10,346,-112,458,-117
,1395,2023-10-27 10:32:51.64,15,134,-2055,16,7,8,56,191,-135,-123
,1396,2023-10-27 10:32:51.65,-6,134,-2057,20,8,12,345,-118,463,-113
,1397,2023-10-27 10:32:51.66,9,135,-2054,17,6,10,53,191,-138,-122
,1398,2023-10-27 10:32:51.67,9,128,-2059,16,5,8,359,-118,477,-120
,1399,2023-10-27 10:32:51.68,1,130,-2058,14,6,13,55,200,-145,-127
,1400,2023-10-27 10:32:51.69,-1,137,-2065,8,6,14,364,-117,481,-123
,1401,2023-10-27 10:32:51.70,-5,132,-2064,7,5,13,47,204,-157,-125
,1402,2023-10-27 10:32:51.71,0,138,-2065,3,6,16,358,-121,479,-118
,1403,2023-10-27 10:32:51.72,6,134,-2054,-1,6,16,38,202,-164,-120
,1404,2023-10-27 10:32:51.73,7,134,-2057,-5,7,16,363,-127,490,-118
,1405,2023-10-27 10:32:51.74,-3,139,-2060,-2,7,18,30,201,-171,-115
,1406,2023-10-27 10:32:51.75,-9,135,-2054,-2,5,20,364,-132,496,-116
,1407,2023-10-27 10:32:51.76,5,141,-2056,1,3,20,28,200,-172,-114
,1408,2023-10-27 10:32:51.77,-3,133,-2061,6,4,19,361,-130,491,-115
,1409,2023-10-27 10:32:51.78,-3,140,-2057,11,5,22,30,208,-178,-119
,1410,2023-10-27 10:32:51.79,-11,139,-2057,15,6,21,371,-125,496,-123
,1411,2023-10-27 10:32:51.80,5,146,-2049,17,2,22,21,213,-192,-117
,1412,2023-10-27 10:32:51.81,6,144,-2048,19,3,22,369,-128,497,-120
,1413,2023-10-27 10:32:51.82,0,137,-2053,21,3,21,19,210,-191,-114
,1414,2023-10-27 10:32:51.83,-13,139,-2048,22,2,22,368,-131,499,-118
,1415,2023-10-27 10:32:51.84,-8,140,-2051,24,5,21,20,211,-191,-115
,1416,2023-10-27 10:32:51.85,3,138,-2053,21,3,22,385,-130,515,-127
,1417,2023-10-27 10:32:51.86,-1,137,-2053,21,3,22,24,213,-189,-118
,1418,2023-10-27 10:32:51.87,-6,143,-2049,18,2,22,381,-132,513,-124
,1419,2023-10-27 10:32:51.88,5,147,-2054,17,3,21,14,208,-194,-111
,1420,2023-10-27 10:32:51.89,-10,145,-2052,15,5,22,378,-132,510,-123
,1421,2023-10-27 10:32:51.90,-7,143,-2053,11,2,20,23,220,-197,-121
,1422,2023-10-27 10:32:51.91,-14,136,-2055,9,0,18,394,-135,529,-129
,1423,2023-10-27 10:32:51.92,2,144,-2057,6,0,19,30,207,-177,-118
,1424,2023-10-27 10:32:51.93,-8,138,-2052,6,2,16,388,-146,534,-121
,1425,2023-10-27 10:32:51.94,-1,143,-2060,3,3,14,27,209,-182,-118
,1426,2023-10-27 10:32:51.95,-15,140,-2057,3,3,14,398,-129,527,-134
,1427,2023-10-27 10:32:51.96,-3,144,-2057,2,5,12,16,204,-188,-110
,1428,2023-10-27 10:32:51.97,-4,141,-2065,4,7,12,394,-135,529,-129
,1429,2023-10-27 10:32:51.98,-14,139,-2054,8,8,11,12,205,-193,-108
,1430,2023-10-27 10:32:51.99,-5,139,-2056,10,7,9,387,-133,520,-127
,1431,2023-10-27 10:32:52.00,-12,142,-2068,11,3,13,16,207,-191,-111
,1432,2023-10-27 10:32:52.01,-11,139,-2058,12,-1,13,394,-127,521,-133
,1433,2023-10-27 10:32:52.02,5,151,-2054,14,-4,8,19,207,-188,-113
,1434,2023-10-27 10:32:52.03,-4,142,-2043,11,2,5,390,-130,520,-130
,1435,2023-10-27 10:32:52.04,3,149,-2052,11,8,5,17,206,-189,-111
,1436,2023-10-27 10:32:52.05,-4,150,-2064,10,10,2,388,-127,515,-130
,1437,2023-10-27 10:32:52.06,0,144,-2060,13,7,-1,18,201,-183,-109
,1438,2023-10-27 10:32:52.07,-10,141,-2063,11,3,0,391,-126,517,-132
,1439,2023-10-27 10:32:52.08,-19,131,-2067,14,1,6,17,198,-181,-107
,1440,2023-10-27 10:32:52.09,-1,131,-2052,15,-4,9,395,-125,520,-135
,1441,2023-10-27 10:32:52.10,3,135,-2055,16,-7,10,31,195,-164,-113
,1442,2023-10-27 10:32:52.11,-8,133,-2052,17,-10,11,388,-123,511,-132
,1443,2023-10-27 10:32:52.12,1,138,-2046,17,-7,16,17,195,-178,-106
,1444,2023-10-27 10:32:52.13,1,136,-2045,14,-4,18,382,-121,503,-130
,1445,2023-10-27 10:32:52.14,-8,138,-2056,12,1,19,19,191,-172,-105
,1446,2023-10-27 10:32:52.15,-4,140,-2063,14,0,21,376,-120,496,-128
,1447,2023-10-27 10:32:52.16,-11,132,-2064,12,3,22,16,186,-170,-101
,1448,2023-10-27 10:32:52.17,-1,125,-2063,14,-3,23,378,-109,487,-134
,1449,2023-10-27 10:32:52.18,-11,126,-2061,23,-5,24,26,187,-161,-106
,1450,2023-10-27 10:32:52.19,-6,125,-2056,25,-6,29,380,-114,494,-133
,1451,2023-10-27 10:32:52.20,-4,132,-2049,29,-8,27,27,175,-148,-101
,1452,2023-10-27 10:32:52.21,-21,137,-2053,32,-9,29,371,-111,482,-130
,1453,2023-10-27 10:32:52.22,-9,138,-2056,31,-10,29,28,176,-148,-102
,1454,2023-10-27 10:32:52.23,-7,135,-2058,32,-8,28,373,-102,475,-135
,1455,2023-10-27 10:32:52.24,-12,132,-2060,29,-8,30,31,172,-141,-101
,1456,2023-10-27 10:32:52.25,-15,133,-2048,30,-8,32,364,-96,460,-134
,1457,2023-10-27 10:32:52.26,-15,128,-2052,32,-9,33,27,172,-145,-99
,1458,2023-10-27 10:32:52.27,-7,133,-2057,32,-9,36,351,-96,447,-127
,1459,2023-10-27 10:32:52.28,-16,122,-2051,28,-8,38,28,158,-130,-93
,1460,2023-10-27 10:32:52.29,-13,122,-2054,27,-8,37,359,-96,455,-131
,1461,2023-10-27 10:32:52.30,-12,122,-2047,31,-6,37,40,155,-115,-97
,1462,2023-10-27 10:32:52.31,-3,136,-2037,33,-1,36,366,-71,437,-147
,1463,2023-10-27 10:32:52.32,-13,139,-2051,33,6,35,43,164,-121,-103
,1464,2023-10-27 10:32:52.33,-12,129,-2054,30,10,30,341,-73,414,-134
,1465,2023-10-27 10:32:52.34,-12,128,-2050,30,7,29,39,147,-108,-93
,1466,2023-10-27 10:32:52.35,-4,130,-2054,28,8,28,340,-75,415,-132
,1467,2023-10-27 10:32:52.36,-11,135,-2055,26,6,25,42,144,-102,-93
,1468,2023-10-27 10:32:52.37,-9,134,-2060,20,6,24,328,-72,400,-128
,1469,2023-10-27 10:32:52.38,-7,135,-2052,19,5,22,56,142,-86,-99
,1470,2023-10-27 10:32:52.39,-9,130,-2055,16,7,20,339,-59,398,-140
,1471,2023-10-27 10:32:52.40,-15,134,-2048,12,9,17,63,134,-71,-98
,1472,2023-10-27 10:32:52.41,-9,129,-2052,13,10,15,337,-60,397,-138
,1473,2023-10-27 10:32:52.42,-12,129,-2056,13,12,15,71,123,-52,-97
,1474,2023-10-27 10:32:52.43,-17,133,-2054,13,12,14,322,-52,374,-135
,1475,2023-10-27 10:32:52.44,-2,136,-2057,13,11,13,69,118,-49,-93
,1476,2023-10-27 10:32:52.45,-6,132,-2059,9,9,12,321,-46,367,-137
,1477,2023-10-27 10:32:52.46,-9,134,-2054,4,11,11,80,114,-34,-97
,1478,2023-10-27 10:32:52.47,-3,139,-2061,4,11,6,318,-34,352,-142
,1479,2023-10-27 10:32:52.48,-16,135,-2053,2,10,6,84,112,-28,-98
,1480,2023-10-27 10:32:52.49,-4,134,-2058,-2,9,3,305,-30,335,-137
,1481,2023-10-27 10:32:52.50,-15,132,-2051,0,5,6,92,104,-12,-98
,1482,2023-10-27 10:32:52.51,-4,128,-2057,5,5,7,310,-20,330,-145
,1483,2023-10-27 10:32:52.52,-12,132,-2058,7,2,10,99,101,-2,-100
,1484,2023-10-27 10:32:52.53,4,133,-2055,11,4,13,298,-20,318,-139
,1485,2023-10-27 10:32:52.54,-1,126,-2057,13,4,15,100,87,13,-93
,1486,2023-10-27 10:32:52.55,-10,140,-2060,15,6,17,274,0,274,-137
,1487,2023-10-27 10:32:52.56,-9,134,-2055,16,3,16,96,95,1,-95
,1488,2023-10-27 10:32:52.57,3,129,-2063,14,4,19,282,1,281,-141
,1489,2023-10-27 10:32:52.58,-15,133,-2062,16,3,19,116,77,39,-96
,1490,2023-10-27 10:32:52.59,-3,133,-2054,18,2,23,278,6,272,-142
,1491,2023-10-27 10:32:52.60,-12,129,-2059,17,3,21,124,74,50,-99
,1492,2023-10-27 10:32:52.61,-7,135,-2055,16,2,23,266,17,249,-141
,1493,2023-10-27 10:32:52.62,-5,127,-2058,17,3,24,121,68,53,-94
,1494,2023-10-27 10:32:52.63,-9,128,-2056,15,1,25,252,15,237,-133
,1495,2023-10-27 10:32:52.64,-14,131,-2052,17,5,23,129,51,78,-90
,1496,2023-10-27 10:32:52.65,-24,132,-2050,16,6,25,255,26,229,-140
,1497,2023-10-27 10:32:52.66,-15,130,-2052,14,6,25,144,52,92,-98
,1498,2023-10-27 10:32:52.67,-10,123,-2055,17,6,26,248,40,208,-144
,1499,2023-10-27 10:32:52.68,-9,129,-2053,20,7,27,147,49,98,-98
,1500,2023-10-27 10:32:52.69,-3,132,-2048,20,11,27,237,44,193,-140
,1501,2023-10-27 10:32:52.70,-21,136,-2050,20,11,25,157,38,119,-97
,1502,2023-10-27 10:32:52.71,-18,139,-2059,15,11,26,227,42,185,-134
,1503,2023-10-27 10:32:52.72,-20,133,-2057,14,11,25,166,33,133,-99
,1504,2023-10-27 10:32:52.73,-12,136,-2056,11,9,22,221,52,169,-136
,1505,2023-10-27 10:32:52.74,-17,132,-2062,8,8,20,167,27,140,-97
,1506,2023-10-27 10:32:52.75,-8,142,-2062,7,8,19,210,61,149,-135
,1507,2023-10-27 10:32:52.76,1,140,-2064,6,6,22,175,19,156,-97
,1508,2023-10-27 10:32:52.77,-19,135,-2056,5,8,19,206,66,140,-136
,1509,2023-10-27 10:32:52.78,-15,137,-2047,7,9,20,182,11,171,-96
,1510,2023-10-27 10:32:52.79,-14,137,-2055,8,10,19,204,80,124,-142
,1511,2023-10-27 10:32:52.80,-11,135,-2054,11,14,19,189,11,178,-100
,1512,2023-10-27 10:32:52.81,-17,141,-2049,14,20,16,180,71,109,-125
,1513,2023-10-27 10:32:52.82,-24,134,-2045,16,20,17,198,0,198,-99
,1514,2023-10-27 10:32:52.83,-20,127,-2058,22,23,17,180,87,93,-133
,1515,2023-10-27 10:32:52.84,2,129,-2059,27,18,20,208,-2,210,-103
,1516,2023-10-27 10:32:52.85,-7,136,-2054,29,21,18,178,99,79,-138
,1517,2023-10-27 10:32:52.86,-5,137,-2049,27,28,13,213,-11,224,-101
,1518,2023-10-27 10:32:52.87,-9,138,-2054,30,36,11,180,100,80,-140
,1519,2023-10-27 10:32:52.88,-7,133,-2050,34,36,9,231,-22,253,-104
,1520,2023-10-27 10:32:52.89,1,131,-2054,42,36,4,172,110,62,-141
,1521,2023-10-27 10:32:52.90,-11,128,-2065,45,35,-2,233,-23,256,-105
,1522,2023-10-27 10:32:52.91,-16,113,-2049,51,34,-3,168,112,56,-140
,1523,2023-10-27 10:32:52.92,9,106,-2045,59,35,-3,248,-36,284,-106
,1524,2023-10-27 10:32:52.93,8,115,-2040,66,30,-3,181,112,69,-146
,1525,2023-10-27 10:32:52.94,4,119,-2047,67,34,-1,263,-46,309,-108
,1526,2023-10-27 10:32:52.95,-2,118,-2054,63,40,-6,145,113,32,-129
,1527,2023-10-27 10:32:52.96,-5,115,-2052,63,43,-8,245,-53,298,-96
,1528,2023-10-27 10:32:52.97,1,119,-2061,66,42,-8,132,124,8,-128
,1529,2023-10-27 10:32:52.98,3,103,-2058,66,43,-12,250,-51,301,-99
,1530,2023-10-27 10:32:52.99,0,97,-2044,68,44,-15,115,133,-18,-124
,1531,2023-10-27 10:32:53.00,17,85,-2053,72,45,-15,239,-44,283,-97
,1532,2023-10-27 10:32:53.01,17,87,-2050,75,53,-13,75,198,-123,-136
,1533,2023-10-27 10:32:53.02,10,90,-2049,77,59,-10,233,-20,253,-106
,1534,2023-10-27 10:32:53.03,17,96,-2051,75,64,-7,102,147,-45,-124
,1535,2023-10-27 10:32:53.04,18,104,-2059,72,69,-7,274,-80,354,-97
,1536,2023-10-27 10:32:53.05,18,108,-2079,62,69,-8,108,137,-29,-122
,1537,2023-10-27 10:32:53.06,16,112,-2090,49,70,-11,272,-79,351,-96
,1538,2023-10-27 10:32:53.07,-6,119,-2084,36,67,-13,91,150,-59,-120
,1539,2023-10-27 10:32:53.08,9,113,-2083,24,58,-18,277,-75,352,-101
,1540,2023-10-27 10:32:53.09,9,113,-2066,12,48,-20,82,162,-80,-122
,1541,2023-10-27 10:32:53.10,-1,116,-2069,0,36,-20,280,-77,357,-101
,1542,2023-10-27 10:32:53.11,15,102,-2073,-11,29,-17,78,167,-89,-122
,1543,2023-10-27 10:32:53.12,-10,94,-2065,-15,21,-11,287,-85,372,-101
,1544,2023-10-27 10:32:53.13,-2,93,-2061,-19,24,1,74,177,-103,-125
,1545,2023-10-27 10:32:53.14,4,96,-2055,-18,16,10,289,-88,377,-100
,1546,2023-10-27 10:32:53.15,12,102,-2036,-24,15,17,58,182,-124,-120
,1547,2023-10-27 10:32:53.16,17,102,-2043,-30,19,26,290,-87,377,-101
,1548,2023-10-27 10:32:53.17,1,112,-2016,-23,18,31,47,185,-138,-116
,1549,2023-10-27 10:32:53.18,11,107,-2036,-23,18,38,298,-96,394,-101
,1550,2023-10-27 10:32:53.19,13,112,-2040,-28,26,41,53,179,-126,-116
,1551,2023-10-27 10:32:53.20,8,119,-2034,-28,31,46,311,-102,413,-104
,1552,2023-10-27 10:32:53.21,13,122,-2020,-24,36,48,54,189,-135,-121
,1553,2023-10-27 10:32:53.22,23,112,-2035,-25,33,49,306,-112,418,-97
,1554,2023-10-27 10:32:53.23,12,115,-2046,-25,41,51,52,189,-137,-120
,1555,2023-10-27 10:32:53.24,20,111,-2046,-17,47,53,328,-105,433,-111
,1556,2023-10-27 10:32:53.25,23,111,-2055,-11,51,60,44,197,-153,-120
,1557,2023-10-27 10:32:53.26,35,107,-2064,-7,57,62,312,-103,415,-104
,1558,2023-10-27 10:32:53.27,36,121,-2061,-7,58,66,0,206,-206,-103
,1559,2023-10-27 10:32:53.28,30,125,-2063,-2,60,66,289,-108,397,-90
,1560,2023-10-27 10:32:53.29,38,133,-2070,-6,58,66,-13,206,-219,-96
,1561,2023-10-27 10:32:53.30,37,133,-2076,-11,56,62,298,-106,404,-96
,1562,2023-10-27 10:32:53.31,45,131,-2073,-15,54,58,-22,214,-236,-96
,1563,2023-10-27 10:32:53.32,24,139,-2073,-16,56,58,308,-111,419,-98
,1564,2023-10-27 10:32:53.33,41,136,-2084,-17,49,58,26,208,-182,-117
,1565,2023-10-27 10:32:53.34,33,139,-2080,-19,47,54,354,-116,470,-119
,1566,2023-10-27 10:32:53.35,31,135,-2068,-24,42,48,28,207,-179,-117
,1567,2023-10-27 10:32:53.36,36,135,-2066,-19,39,46,353,-121,474,-116
,1568,2023-10-27 10:32:53.37,42,138,-2071,-15,40,37,31,209,-178,-120
,1569,2023-10-27 10:32:53.38,47,143,-2066,-6,36,30,359,-120,479,-119
,1570,2023-10-27 10:32:53.39,36,143,-2057,0,39,25,17,217,-200,-117
,1571,2023-10-27 10:32:53.40,42,144,-2065,6,36,16,353,-116,469,-118
,1572,2023-10-27 10:32:53.41,48,140,-2058,11,38,8,12,216,-204,-114
,1573,2023-10-27 10:32:53.42,49,143,-2065,16,35,2,350,-122,472,-114
,1574,2023-10-27 10:32:53.43,28,137,-2065,15,38,-4,-4,221,-225,-108
,1575,2023-10-27 10:32:53.44,30,145,-2064,16,30,-8,345,-123,468,-111
,1576,2023-10-27 10:32:53.45,40,133,-2062,14,31,-12,0,217,-217,-108
,1577,2023-10-27 10:32:53.46,24,137,-2063,14,30,-14,356,-123,479,-116
,1578,2023-10-27 10:32:53.47,39,126,-2070,16,25,-12,3,219,-216,-111
,1579,2023-10-27 10:32:53.48,36,146,-2063,16,30,-11,362,-125,487,-118
,1580,2023-10-27 10:32:53.49,41,137,-2052,19,30,-15,3,223,-220,-113
,1581,2023-10-27 10:32:53.50,45,127,-2042,20,36,-19,361,-120,481,-120
,1582,2023-10-27 10:32:53.51,40,121,-2037,32,34,-21,-4,220,-224,-108
,1583,2023-10-27 10:32:53.52,48,118,-2041,36,35,-20,359,-128,487,-115
,1584,2023-10-27 10:32:53.53,54,115,-2051,43,35,-23,-7,217,-224,-105
,1585,2023-10-27 10:32:53.54,51,113,-2061,51,38,-20,358,-121,479,-118
,1586,2023-10-27 10:32:53.55,51,113,-2058,53,45,-21,-11,221,-232,-105
,1587,2023-10-27 10:32:53.56,50,119,-2052,56,49,-20,362,-124,486,-119
,1588,2023-10-27 10:32:53.57,47,121,-2057,57,43,-20,-4,217,-221,-106
,1589,2023-10-27 10:32:53.58,53,116,-2060,53,43,-20,363,-125,488,-119
,1590,2023-10-27 10:32:53.59,36,106,-2079,50,41,-15,-9,216,-225,-103
,1591,2023-10-27 10:32:53.60,51,114,-2058,47,43,-13,364,-125,489,-119
,1592,2023-10-27 10:32:53.61,54,111,-2062,44,40,-10,-1,220,-221,-109
,1593,2023-10-27 10:32:53.62,61,114,-2059,43,40,-9,370,-122,492,-124
,1594,2023-10-27 10:32:53.63,46,113,-2044,43,43,-10,-10,202,-212,-96
,1595,2023-10-27 10:32:53.64,52,108,-2050,44,44,-4,371,-127,498,-122
,1596,2023-10-27 10:32:53.65,57,105,-2038,44,49,-2,-2,210,-212,-104
,1597,2023-10-27 10:32:53.66,57,104,-2049,50,53,-3,370,-120,490,-125
,1598,2023-10-27 10:32:53.67,66,110,-2062,51,49,-2,-9,210,-219,-100
,1599,2023-10-27 10:32:53.68,75,111,-2067,50,56,-3,362,-117,479,-122
,1600,2023-10-27 10:32:53.69,70,101,-2059,49,61,-7,-8,210,-218,-101
,1601,2023-10-27 10:32:53.70,62,110,-2060,52,73,-10,362,-120,482,-121
,1602,2023-10-27 10:32:53.71,84,115,-2067,56,73,-12,-4,202,-206,-99
,1603,2023-10-27 10:32:53.72,69,113,-2072,54,80,-7,368,-122,490,-123
,1604,2023-10-27 10:32:53.73,81,102,-2068,54,75,-14,7,199,-192,-103
,1605,2023-10-27 10:32:53.74,72,88,-2070,55,68,-14,372,-113,485,-129
,1606,2023-10-27 10:32:53.75,80,86,-2064,59,60,-7,4,200,-196,-102
,1607,2023-10-27 10:32:53.76,71,75,-2066,60,55,-1,360,-110,470,-125
,1608,2023-10-27 10:32:53.77,78,82,-2059,63,52,-1,-1,196,-197,-97
,1609,2023-10-27 10:32:53.78,85,79,-2057,67,51,5,359,-109,468,-125
,1610,2023-10-27 10:32:53.79,82,77,-2041,64,47,10,4,194,-190,-99
,1611,2023-10-27 10:32:53.80,85,94,-2045,65,49,11,353,-99,452,-127
,1612,2023-10-27 10:32:53.81,87,94,-2052,61,49,12,0,198,-198,-99
,1613,2023-10-27 10:32:53.82,84,81,-2048,52,49,14,342,-94,436,-124
,1614,2023-10-27 10:32:53.83,97,93,-2043,50,53,14,-6,192,-198,-93
,1615,2023-10-27 10:32:53.84,79,81,-2062,46,51,14,337,-93,430,-122
,1616,2023-10-27 10:32:53.85,78,78,-2069,35,53,15,0,186,-186,-93
,1617,2023-10-27 10:32:53.86,89,78,-2051,32,52,17,345,-95,440,-125
,1618,2023-10-27 10:32:53.87,95,76,-2047,30,51,19,11,174,-163,-92
,1619,2023-10-27 10:32:53.88,88,88,-2063,30,52,16,333,-93,426,-120
,1620,2023-10-27 10:32:53.89,88,76,-2068,33,44,14,2,176,-174,-89
,1621,2023-10-27 10:32:53.90,88,79,-2075,35,43,18,316,-76,392,-120
,1622,2023-10-27 10:32:53.91,95,78,-2067,33,39,18,-6,178,-184,-86
,1623,2023-10-27 10:32:53.92,101,82,-2056,34,37,17,305,-72,377,-116
,1624,2023-10-27 10:32:53.93,104,94,-2058,33,30,8,-4,174,-178,-85
,1625,2023-10-27 10:32:53.94,102,103,-2061,34,34,2,297,-63,360,-117
,1626,2023-10-27 10:32:53.95,97,91,-2060,35,33,-6,-10,176,-186,-83
,1627,2023-10-27 10:32:53.96,90,93,-2065,35,37,-9,282,-58,340,-112
,1628,2023-10-27 10:32:53.97,100,99,-2066,35,38,-16,-8,167,-175,-79
,1629,2023-10-27 10:32:53.98,89,95,-2075,34,34,-18,279,-48,327,-115
,1630,2023-10-27 10:32:53.99,91,88,-2093,35,30,-23,-3,162,-165,-79
,1631,2023-10-27 10:32:54.00,92,89,-2090,33,26,-23,277,-46,323,-115
,1632,2023-10-27 10:32:54.01,99,81,-2076,30,15,-20,7,146,-139,-76
,1633,2023-10-27 10:32:54.02,98,75,-2075,30,11,-16,272,-38,310,-117
,1634,2023-10-27 10:32:54.03,91,76,-2090,24,11,-15,8,151,-143,-79
,1635,2023-10-27 10:32:54.04,96,77,-2075,23,7,-15,253,-32,285,-110
,1636,2023-10-27 10:32:54.05,97,81,-2055,23,4,-10,3,140,-137,-71
,1637,2023-10-27 10:32:54.06,93,77,-2054,25,6,-6,232,-34,266,-99
,1638,2023-10-27 10:32:54.07,105,78,-2061,24,7,-4,-3,127,-130,-62
,1639,2023-10-27 10:32:54.08,100,86,-2068,26,8,-1,226,-27,253,-99
,1640,2023-10-27 10:32:54.09,95,82,-2053,24,14,4,9,128,-119,-68
,1641,2023-10-27 10:32:54.10,99,80,-2044,24,17,5,219,-16,235,-101
,1642,2023-10-27 10:32:54.11,107,81,-2050,25,17,10,14,122,-108,-68
,1643,2023-10-27 10:32:54.12,88,81,-2045,23,18,12,214,-9,223,-102
,1644,2023-10-27 10:32:54.13,93,70,-2042,26,21,17,24,117,-93,-70
,1645,2023-10-27 10:32:54.14,90,68,-2049,28,23,19,211,-1,212,-105
,1646,2023-10-27 10:32:54.15,93,75,-2052,32,27,26,31,108,-77,-69
,1647,2023-10-27 10:32:54.16,84,85,-2055,36,23,37,209,4,205,-106
,1648,2023-10-27 10:32:54.17,92,92,-2046,35,20,43,44,101,-57,-72
,1649,2023-10-27 10:32:54.18,100,98,-2046,27,26,45,191,10,181,-100
,1650,2023-10-27 10:32:54.19,104,108,-2048,18,26,48,34,94,-60,-64
,1651,2023-10-27 10:32:54.20,107,108,-2044,6,30,46,168,27,141,-97
,1652,2023-10-27 10:32:54.21,120,109,-2037,0,32,43,26,95,-69,-60
,1653,2023-10-27 10:32:54.22,117,110,-2036,-5,38,41,141,36,105,-88
,1654,2023-10-27 10:32:54.23,119,100,-2039,-6,43,41,24,92,-68,-58
,1655,2023-10-27 10:32:54.24,120,94,-2045,0,51,43,127,50,77,-88
,1656,2023-10-27 10:32:54.25,133,104,-2053,8,57,42,26,90,-64,-58
,1657,2023-10-27 10:32:54.26,125,103,-2060,11,66,42,117,60,57,-88
,1658,2023-10-27 10:32:54.27,129,114,-2073,12,71,41,35,82,-47,-58
,1659,2023-10-27 10:32:54.28,120,113,-2079,14,72,40,110,71,39,-90
,1660,2023-10-27 10:32:54.29,124,117,-2107,14,69,30,45,80,-35,-62
,1661,2023-10-27 10:32:54.30,120,116,-2084,22,64,32,105,71,34,-88
,1662,2023-10-27 10:32:54.31,130,115,-2090,19,60,30,55,68,-13,-61
,1663,2023-10-27 10:32:54.32,133,128,-2096,22,59,20,96,81,15,-88
,1664,2023-10-27 10:32:54.33,115,125,-2084,28,56,12,54,61,-7,-57
,1665,2023-10-27 10:32:54.34,128,129,-2081,36,46,3,85,82,3,-83
,1666,2023-10-27 10:32:54.35,112,115,-2081,43,35,-5,65,47,18,-56
,1667,2023-10-27 10:32:54.36,127,126,-2084,55,27,-17,81,88,-7,-84
,1668,2023-10-27 10:32:54.37,135,123,-2071,66,13,-31,76,36,40,-56
,1669,2023-10-27 10:32:54.38,115,111,-2062,77,9,-43,75,86,-11,-80
,1670,2023-10-27 10:32:54.39,117,121,-2057,87,2,-55,88,35,53,-61
,1671,2023-10-27 10:32:54.40,113,101,-2063,100,-4,-70,72,95,-23,-83
,1672,2023-10-27 10:32:54.41,116,97,-2064,111,-17,-81,94,29,65,-61
,1673,2023-10-27 10:32:54.42,115,87,-2060,121,-33,-89,82,93,-11,-87
,1674,2023-10-27 10:32:54.43,117,71,-2065,128,-40,-99,122,9,113,-65
,1675,2023-10-27 10:32:54.44,117,68,-2076,136,-49,-106,76,95,-19,-85
,1676,2023-10-27 10:32:54.45,105,64,-2078,140,-46,-108,119,7,112,-63
,1677,2023-10-27 10:32:54.46,111,49,-2077,145,-45,-106,62,111,-49,-86
,1678,2023-10-27 10:32:54.47,106,52,-2065,146,-45,-104,123,6,117,-64
,1679,2023-10-27 10:32:54.48,105,31,-2072,147,-50,-99,68,111,-43,-89
,1680,2023-10-27 10:32:54.49,93,22,-2077,146,-58,-94,145,-11,156,-67
,1681,2023-10-27 10:32:54.50,97,-3,-2075,152,-67,-88,78,115,-37,-96
,1682,2023-10-27 10:32:54.51,107,-1,-2067,157,-72,-77,158,-13,171,-72
,1683,2023-10-27 10:32:54.52,112,-19,-2060,163,-79,-64,69,117,-48,-93
,1684,2023-10-27 10:32:54.53,121,-24,-2054,172,-78,-48,161,-24,185,-68
,1685,2023-10-27 10:32:54.54,95,-34,-2043,180,-69,-34,39,132,-93,-85
,1686,2023-10-27 10:32:54.55,107,-31,-2037,189,-67,-24,151,-26,177,-62
,1687,2023-10-27 10:32:54.56,121,-26,-2033,196,-60,-16,18,131,-113,-74
,1688,2023-10-27 10:32:54.57,114,-29,-2040,199,-56,-6,150,-31,181,-59
,1689,2023-10-27 10:32:54.58,117,-11,-2045,202,-46,3,14,140,-126,-77
,1690,2023-10-27 10:32:54.59,105,-19,-2051,201,-50,4,158,-34,192,-62
,1691,2023-10-27 10:32:54.60,101,-16,-2060,190,-44,9,3,160,-157,-81
,1692,2023-10-27 10:32:54.61,113,-7,-2062,177,-46,10,165,-34,199,-65
,1693,2023-10-27 10:32:54.62,99,-12,-2055,162,-40,15,2,156,-154,-79
,1694,2023-10-27 10:32:54.63,96,-13,-2051,140,-40,15,177,-47,224,-65
,1695,2023-10-27 10:32:54.64,100,-3,-2050,118,-42,15,-8,162,-170,-77
,1696,2023-10-27 10:32:54.65,88,-11,-2066,98,-44,19,178,-49,227,-64
,1697,2023-10-27 10:32:54.66,106,-18,-2067,77,-48,20,-19,169,-188,-75
,1698,2023-10-27 10:32:54.67,103,-28,-2065,57,-51,26,178,-53,231,-62
,1699,2023-10-27 10:32:54.68,89,-29,-2071,42,-48,30,-28,176,-204,-74
,1700,2023-10-27 10:32:54.69,112,-22,-2074,32,-45,37,182,-53,235,-64
,1701,2023-10-27 10:32:54.70,110,-24,-2071,23,-40,42,-40,190,-230,-75
,1702,2023-10-27 10:32:54.71,105,-22,-2075,18,-41,48,187,-56,243,-65
,1703,2023-10-27 10:32:54.72,101,-26,-2072,17,-40,53,-43,185,-228,-71
,1704,2023-10-27 10:32:54.73,102,-32,-2077,13,-44,57,193,-68,261,-62
,1705,2023-10-27 10:32:54.74,89,-38,-2079,25,-47,70,-47,196,-243,-74
,1706,2023-10-27 10:32:54.75,79,-48,-2088,32,-54,79,196,-69,265,-63
,1707,2023-10-27 10:32:54.76,74,-42,-2083,33,-59,91,-62,192,-254,-65
,1708,2023-10-27 10:32:54.77,63,-39,-2074,43,-71,100,198,-73,271,-62
,1709,2023-10-27 10:32:54.78,62,-30,-2059,59,-88,111,-61,196,-257,-67
,1710,2023-10-27 10:32:54.79,55,-19,-2057,69,-87,111,208,-76,284,-66
,1711,2023-10-27 10:32:54.80,46,-12,-2044,68,-92,112,-58,209,-267,-75
,1712,2023-10-27 10:32:54.81,33,-18,-2045,63,-93,110,217,-78,295,-69
,1713,2023-10-27 10:32:54.82,39,-16,-2035,60,-95,104,-61,213,-274,-76
,1714,2023-10-27 10:32:54.83,33,-8,-2037,55,-93,95,227,-78,305,-74
,1715,2023-10-27 10:32:54.84,30,-7,-2039,51,-89,88,-61,217,-278,-78
,1716,2023-10-27 10:32:54.85,20,-2,-2038,53,-85,83,234,-84,318,-75
,1717,2023-10-27 10:32:54.86,16,-10,-2040,49,-77,75,-70,202,-272,-66
,1718,2023-10-27 10:32:54.87,25,-10,-2044,43,-68,68,240,-91,331,-74
,1719,2023-10-27 10:32:54.88,26,0,-2036,36,-67,59,-59,218,-277,-79
,1720,2023-10-27 10:32:54.89,19,3,-2050,28,-61,46,247,-96,343,-75
,1721,2023-10-27 10:32:54.90,31,21,-2041,20,-55,31,-56,216,-272,-80
,1722,2023-10-27 10:32:54.91,23,27,-2041,9,-48,17,258,-102,360,-78
,1723,2023-10-27 10:32:54.92,29,21,-2051,-1,-36,6,-54,215,-269,-80
,1724,2023-10-27 10:32:54.93,22,17,-2064,-11,-29,-11,268,-101,369,-83
,1725,2023-10-27 10:32:54.94,20,11,-2076,-16,-28,-25,-53,219,-272,-83
