// Data mode  : Full
// Data quality  : High
// Acceleration sensor's range  : 16g
// Gyroscope sensor's range  : 2000dps
//
//ARTIFACT,NUM,DATE,ACC_X,ACC_Y,ACC_Z,GYRO_X,GYRO_Y,GYRO_Z,EOG_L,EOG_R,EOG_H,EOG_V
,1,2023-10-20 13:12:50.57,153,-444,-1997,0,22,-1,570,-1126,1696,278
,2,2023-10-20 13:12:50.58,150,-453,-2007,2,33,0,703,-1134,1837,215
,3,2023-10-20 13:12:50.59,161,-458,-2006,-1,27,5,584,-1126,1710,271
,4,2023-10-20 13:12:50.60,158,-456,-2009,-12,38,9,702,-1131,1833,214
,5,2023-10-20 13:12:50.61,163,-455,-2016,-20,43,11,576,-1132,1708,278
,6,2023-10-20 13:12:50.62,166,-446,-2030,-22,41,15,687,-1130,1817,221
,7,2023-10-20 13:12:50.63,161,-446,-2027,-22,33,23,580,-1133,1713,276
,8,2023-10-20 13:12:50.64,163,-446,-2012,-29,33,25,689,-1123,1812,217
,9,2023-10-20 13:12:50.65,169,-438,-2017,-19,13,29,589,-1134,1723,272
,10,2023-10-20 13:12:50.66,178,-429,-2009,-14,13,28,694,-1124,1818,215
,11,2023-10-20 13:12:50.67,160,-419,-2005,-9,26,22,592,-1141,1733,274
,12,2023-10-20 13:12:50.68,177,-411,-2007,-9,31,18,672,-1122,1794,225
,13,2023-10-20 13:12:50.69,174,-419,-2022,-4,30,8,582,-1141,1723,279
,14,2023-10-20 13:12:50.70,180,-427,-2038,6,20,3,665,-1118,1783,226
,15,2023-10-20 13:12:50.71,171,-447,-2062,17,5,0,594,-1144,1738,275
,16,2023-10-20 13:12:50.72,158,-456,-2079,23,-10,-2,672,-1116,1788,222
,17,2023-10-20 13:12:50.73,161,-467,-2092,29,-19,4,594,-1147,1741,276
,18,2023-10-20 13:12:50.74,151,-492,-2096,37,-29,13,649,-1113,1762,232
,19,2023-10-20 13:12:50.75,144,-494,-2102,47,-35,24,604,-1148,1752,272
,20,2023-10-20 13:12:50.76,165,-502,-2116,52,-33,31,652,-1107,1759,227
,21,2023-10-20 13:12:50.77,136,-493,-2125,48,-25,46,605,-1149,1754,272
,22,2023-10-20 13:12:50.78,179,-489,-2123,36,-20,52,640,-1102,1742,231
,23,2023-10-20 13:12:50.79,140,-528,-2071,33,18,95,597,-1148,1745,275
,24,2023-10-20 13:12:50.80,161,-498,-2093,51,30,82,625,-1097,1722,236
,25,2023-10-20 13:12:50.81,132,-437,-2061,67,44,87,588,-1147,1735,279
,26,2023-10-20 13:12:50.82,168,-378,-1998,76,41,57,597,-1085,1682,244
,27,2023-10-20 13:12:50.83,167,-366,-1977,58,54,33,536,-1135,1671,299
,28,2023-10-20 13:12:50.84,159,-373,-1949,37,65,15,520,-1057,1577,268
,29,2023-10-20 13:12:50.85,176,-364,-1926,12,69,-3,397,-1121,1518,362
,30,2023-10-20 13:12:50.86,181,-365,-1900,-16,84,-17,362,-1045,1407,341
,31,2023-10-20 13:12:50.87,175,-379,-1897,-40,97,-22,249,-1123,1372,437
,32,2023-10-20 13:12:50.88,192,-395,-1895,-56,104,-24,256,-1047,1303,395
,33,2023-10-20 13:12:50.89,194,-390,-1898,-62,115,-22,169,-1124,1293,477
,34,2023-10-20 13:12:50.90,206,-346,-1874,-59,117,-26,166,-1042,1208,438
,35,2023-10-20 13:12:50.91,194,-383,-1950,-52,120,-30,80,-1124,1204,522
,36,2023-10-20 13:12:50.92,208,-385,-1931,-46,91,-29,85,-1045,1130,480
,37,2023-10-20 13:12:50.93,210,-375,-1958,-18,63,-23,42,-1121,1163,539
,38,2023-10-20 13:12:50.94,186,-382,-1985,1,27,-20,72,-1013,1085,470
,39,2023-10-20 13:12:50.95,191,-381,-1976,16,-12,-17,64,-1071,1135,503
,40,2023-10-20 13:12:50.96,187,-406,-1992,42,-51,-13,95,-955,1050,430
,41,2023-10-20 13:12:50.97,179,-415,-2002,67,-61,-12,134,-1087,1221,476
,42,2023-10-20 13:12:50.98,177,-434,-2015,88,-72,-8,176,-1061,1237,442
,43,2023-10-20 13:12:50.99,160,-447,-2000,114,-86,2,286,-1181,1467,447
,44,2023-10-20 13:12:51.00,153,-482,-1997,144,-84,10,336,-1091,1427,377
,45,2023-10-20 13:12:51.01,143,-497,-2004,166,-73,20,482,-1139,1621,328
,46,2023-10-20 13:12:51.02,150,-505,-2008,179,-49,33,500,-996,1496,248
,47,2023-10-20 13:12:51.03,135,-515,-2021,190,-30,43,636,-1005,1641,184
,48,2023-10-20 13:12:51.04,139,-526,-2015,197,-23,56,608,-857,1465,124
,49,2023-10-20 13:12:51.05,130,-521,-2063,198,12,60,750,-864,1614,57
,50,2023-10-20 13:12:51.06,138,-516,-2095,194,21,60,670,-705,1375,17
,51,2023-10-20 13:12:51.07,156,-508,-2089,181,9,60,811,-638,1449,-86
,52,2023-10-20 13:12:51.08,128,-509,-2079,157,6,61,712,-460,1172,-126
,53,2023-10-20 13:12:51.09,124,-527,-2081,129,1,62,860,-673,1533,-93
,54,2023-10-20 13:12:51.10,139,-540,-2091,98,-22,64,741,-727,1468,-7
,55,2023-10-20 13:12:51.11,155,-532,-2056,66,-28,65,909,-774,1683,-67
,56,2023-10-20 13:12:51.12,149,-540,-2023,27,-12,73,767,-598,1365,-84
,57,2023-10-20 13:12:51.13,137,-541,-2025,1,8,76,941,-730,1671,-105
,58,2023-10-20 13:12:51.14,162,-527,-2019,-4,0,80,793,-735,1528,-29
,59,2023-10-20 13:12:51.15,151,-491,-2032,-14,-8,80,980,-958,1938,-11
,60,2023-10-20 13:12:51.16,150,-475,-2032,-40,-7,75,792,-939,1731,73
,61,2023-10-20 13:12:51.17,138,-451,-2038,-71,2,67,970,-1053,2023,41
,62,2023-10-20 13:12:51.18,138,-428,-2028,-94,-5,51,773,-921,1694,74
,63,2023-10-20 13:12:51.19,141,-425,-2014,-104,-29,31,952,-938,1890,-7
,64,2023-10-20 13:12:51.20,168,-415,-1985,-106,-38,13,754,-792,1546,19
,65,2023-10-20 13:12:51.21,170,-407,-1943,-106,-31,-8,936,-988,1924,26
,66,2023-10-20 13:12:51.22,175,-425,-1949,-96,-11,-26,742,-990,1732,124
,67,2023-10-20 13:12:51.23,202,-470,-1926,-79,9,-37,921,-1122,2043,100
,68,2023-10-20 13:12:51.24,175,-472,-1932,-65,42,-37,710,-992,1702,141
,69,2023-10-20 13:12:51.25,184,-456,-1987,-39,44,-53,911,-981,1892,35
,70,2023-10-20 13:12:51.26,186,-403,-1992,-27,30,-48,676,-804,1480,64
,71,2023-10-20 13:12:51.27,201,-423,-1963,-15,16,-60,846,-952,1798,53
,72,2023-10-20 13:12:51.28,204,-437,-1926,-17,21,-60,621,-919,1540,149
,73,2023-10-20 13:12:51.29,193,-459,-1928,-22,32,-56,819,-1005,1824,93
,74,2023-10-20 13:12:51.30,207,-459,-1937,-16,27,-51,600,-859,1459,129
,75,2023-10-20 13:12:51.31,211,-460,-1940,0,15,-36,767,-983,1750,108
,76,2023-10-20 13:12:51.32,206,-453,-1938,5,12,-23,564,-910,1474,173
,77,2023-10-20 13:12:51.33,205,-456,-1955,0,17,-14,762,-1115,1877,176
,78,2023-10-20 13:12:51.34,204,-456,-1984,-3,18,-7,573,-1058,1631,242
,79,2023-10-20 13:12:51.35,207,-468,-1990,2,12,4,782,-1213,1995,215
,80,2023-10-20 13:12:51.36,202,-461,-1990,6,3,12,578,-1090,1668,256
,81,2023-10-20 13:12:51.37,196,-460,-1989,12,-4,21,782,-1186,1968,202
,82,2023-10-20 13:12:51.38,191,-462,-2006,18,-11,26,569,-1060,1629,245
,83,2023-10-20 13:12:51.39,202,-459,-2008,18,-13,30,774,-1200,1974,213
,84,2023-10-20 13:12:51.40,179,-459,-2005,16,-14,32,558,-1090,1648,266
,85,2023-10-20 13:12:51.41,175,-453,-2010,16,-8,33,765,-1202,1967,218
,86,2023-10-20 13:12:51.42,181,-446,-2023,15,-3,32,554,-1074,1628,260
,87,2023-10-20 13:12:51.43,175,-449,-2039,7,-1,30,770,-1205,1975,217
,88,2023-10-20 13:12:51.44,175,-453,-2046,4,-3,29,554,-1087,1641,266
,89,2023-10-20 13:12:51.45,180,-451,-2040,-3,-2,27,775,-1212,1987,218
,90,2023-10-20 13:12:51.46,168,-456,-2037,-4,4,26,549,-1088,1637,269
,91,2023-10-20 13:12:51.47,166,-457,-2026,-8,3,22,756,-1206,1962,225
,92,2023-10-20 13:12:51.48,158,-443,-2038,-10,5,21,528,-1083,1611,277
,93,2023-10-20 13:12:51.49,165,-436,-2019,-16,8,19,749,-1203,1952,227
,94,2023-10-20 13:12:51.50,187,-436,-2019,-17,19,16,528,-1080,1608,276
,95,2023-10-20 13:12:51.51,164,-447,-2025,-21,26,16,748,-1199,1947,225
,96,2023-10-20 13:12:51.52,183,-438,-2033,-18,29,11,520,-1079,1599,279
,97,2023-10-20 13:12:51.53,183,-434,-2023,-15,23,14,749,-1199,1948,225
,98,2023-10-20 13:12:51.54,183,-450,-2014,-11,25,21,519,-1082,1601,281
,99,2023-10-20 13:12:51.55,175,-445,-2040,-4,16,19,746,-1200,1946,227
,100,2023-10-20 13:12:51.56,156,-444,-2048,3,9,29,516,-1082,1598,283
,101,2023-10-20 13:12:51.57,168,-423,-2040,11,-13,16,748,-1195,1943,223
,102,2023-10-20 13:12:51.58,164,-428,-2031,9,-25,12,516,-1080,1596,282
,103,2023-10-20 13:12:51.59,173,-436,-2033,15,-35,0,737,-1195,1932,229
,104,2023-10-20 13:12:51.60,162,-432,-2033,12,-28,-6,512,-1083,1595,285
,105,2023-10-20 13:12:51.61,166,-452,-2036,9,-27,-9,747,-1194,1941,223
,106,2023-10-20 13:12:51.62,153,-454,-2019,11,-37,-6,520,-1082,1602,281
,107,2023-10-20 13:12:51.63,148,-466,-2000,13,-40,-3,747,-1191,1938,222
,108,2023-10-20 13:12:51.64,159,-469,-2010,19,-32,6,526,-1086,1612,280
,109,2023-10-20 13:12:51.65,150,-467,-2010,14,-26,16,766,-1188,1954,211
,110,2023-10-20 13:12:51.66,161,-468,-2006,11,-13,23,539,-1078,1617,269
,111,2023-10-20 13:12:51.67,154,-458,-1990,13,2,26,748,-1184,1932,218
,112,2023-10-20 13:12:51.68,151,-456,-1990,21,5,27,525,-1086,1611,280
,113,2023-10-20 13:12:51.69,148,-452,-1993,34,6,27,737,-1190,1927,226
,114,2023-10-20 13:12:51.70,143,-442,-2002,36,13,23,540,-1086,1626,273
,115,2023-10-20 13:12:51.71,154,-447,-2001,30,15,19,776,-1178,1954,201
,116,2023-10-20 13:12:51.72,154,-458,-2004,33,8,15,535,-1082,1617,273
,117,2023-10-20 13:12:51.73,152,-467,-2004,37,9,20,756,-1177,1933,210
,118,2023-10-20 13:12:51.74,168,-461,-2007,35,9,21,542,-1091,1633,274
,119,2023-10-20 13:12:51.75,166,-470,-2012,31,15,26,771,-1182,1953,205
,120,2023-10-20 13:12:51.76,153,-431,-1984,28,27,18,551,-1094,1645,271
,121,2023-10-20 13:12:51.77,171,-471,-2018,27,34,13,768,-1179,1947,205
,122,2023-10-20 13:12:51.78,168,-476,-2000,20,38,19,548,-1098,1646,275
,123,2023-10-20 13:12:51.79,173,-475,-2025,25,45,18,762,-1176,1938,207
,124,2023-10-20 13:12:51.80,168,-470,-2039,19,39,20,554,-1097,1651,271
,125,2023-10-20 13:12:51.81,171,-474,-2024,21,26,23,769,-1172,1941,201
,126,2023-10-20 13:12:51.82,181,-471,-2002,27,20,23,552,-1098,1650,273
,127,2023-10-20 13:12:51.83,174,-458,-2008,23,19,22,762,-1173,1935,205
,128,2023-10-20 13:12:51.84,172,-449,-2010,23,15,16,564,-1107,1671,271
,129,2023-10-20 13:12:51.85,176,-440,-2004,23,11,14,761,-1170,1931,204
,130,2023-10-20 13:12:51.86,173,-456,-2006,17,12,9,550,-1102,1652,276
,131,2023-10-20 13:12:51.87,171,-447,-2018,13,13,3,739,-1160,1899,210
,132,2023-10-20 13:12:51.88,176,-447,-2017,5,5,0,556,-1100,1656,272
,133,2023-10-20 13:12:51.89,175,-460,-2027,-4,-9,2,763,-1157,1920,197
,134,2023-10-20 13:12:51.90,176,-461,-2020,-15,-16,4,562,-1105,1667,271
,135,2023-10-20 13:12:51.91,168,-463,-2009,-25,-25,9,752,-1163,1915,205
,136,2023-10-20 13:12:51.92,179,-455,-2013,-38,-28,8,559,-1116,1675,278
,137,2023-10-20 13:12:51.93,167,-462,-2013,-55,-36,9,730,-1161,1891,215
,138,2023-10-20 13:12:51.94,177,-467,-1991,-48,-29,12,558,-1114,1672,278
,139,2023-10-20 13:12:51.95,189,-460,-1987,-44,-15,9,749,-1157,1906,204
,140,2023-10-20 13:12:51.96,183,-468,-2001,-37,-1,8,574,-1116,1690,271
,141,2023-10-20 13:12:51.97,172,-456,-2014,-25,2,15,764,-1159,1923,197
,142,2023-10-20 13:12:51.98,176,-446,-2041,-21,-8,21,597,-1126,1723,264
,143,2023-10-20 13:12:51.99,168,-444,-2041,-10,-24,31,744,-1157,1901,206
,144,2023-10-20 13:12:52.00,176,-435,-2030,1,-39,37,587,-1123,1710,268
,145,2023-10-20 13:12:52.01,175,-437,-2020,3,-44,42,746,-1144,1890,199
,146,2023-10-20 13:12:52.02,174,-427,-2012,20,-57,40,577,-1119,1696,271
,147,2023-10-20 13:12:52.03,176,-436,-2020,33,-64,42,714,-1141,1855,213
,148,2023-10-20 13:12:52.04,180,-476,-1992,48,-67,40,565,-1123,1688,279
,149,2023-10-20 13:12:52.05,178,-454,-1968,60,-51,38,703,-1142,1845,219
,150,2023-10-20 13:12:52.06,144,-423,-2028,57,-29,37,584,-1130,1714,273
,151,2023-10-20 13:12:52.07,145,-413,-2063,52,-59,17,728,-1133,1861,202
,152,2023-10-20 13:12:52.08,153,-392,-2001,54,-77,5,613,-1127,1740,257
,153,2023-10-20 13:12:52.09,153,-433,-1962,47,-64,-7,735,-1132,1867,198
,154,2023-10-20 13:12:52.10,142,-459,-1969,24,-32,-19,596,-1136,1732,270
,155,2023-10-20 13:12:52.11,140,-465,-1980,8,-15,-24,716,-1133,1849,208
,156,2023-10-20 13:12:52.12,135,-476,-1989,7,-4,-15,622,-1137,1759,257
,157,2023-10-20 13:12:52.13,151,-489,-1995,7,4,-6,720,-1128,1848,204
,158,2023-10-20 13:12:52.14,132,-477,-1996,0,3,1,624,-1134,1758,255
,159,2023-10-20 13:12:52.15,145,-463,-2003,-2,8,11,709,-1125,1834,208
,160,2023-10-20 13:12:52.16,134,-458,-2013,-4,7,13,633,-1142,1775,254
,161,2023-10-20 13:12:52.17,139,-455,-2017,-4,7,17,717,-1122,1839,202
,162,2023-10-20 13:12:52.18,156,-446,-2019,-3,1,17,634,-1140,1774,253
,163,2023-10-20 13:12:52.19,144,-447,-2020,2,-7,15,706,-1116,1822,205
,164,2023-10-20 13:12:52.20,152,-449,-2012,7,-8,12,633,-1142,1775,254
,165,2023-10-20 13:12:52.21,144,-457,-2012,14,-11,8,694,-1116,1810,211
,166,2023-10-20 13:12:52.22,155,-452,-2015,23,-18,4,636,-1146,1782,255
,167,2023-10-20 13:12:52.23,149,-455,-2003,26,-6,1,694,-1118,1812,212
,168,2023-10-20 13:12:52.24,148,-453,-2013,20,0,-1,642,-1154,1796,256
,169,2023-10-20 13:12:52.25,154,-461,-2016,17,8,-5,691,-1118,1809,213
,170,2023-10-20 13:12:52.26,148,-470,-2020,7,25,1,660,-1154,1814,247
,171,2023-10-20 13:12:52.27,151,-467,-2022,8,14,5,696,-1110,1806,207
,172,2023-10-20 13:12:52.28,162,-455,-2009,5,22,8,662,-1153,1815,245
,173,2023-10-20 13:12:52.29,171,-473,-1985,6,27,18,685,-1109,1794,212
,174,2023-10-20 13:12:52.30,151,-473,-2015,16,33,28,670,-1160,1830,245
,175,2023-10-20 13:12:52.31,159,-454,-2045,19,13,24,684,-1110,1794,213
,176,2023-10-20 13:12:52.32,165,-442,-2007,32,-4,21,664,-1162,1826,249
,177,2023-10-20 13:12:52.33,168,-457,-2011,34,-7,15,662,-1110,1772,224
,178,2023-10-20 13:12:52.34,164,-462,-2025,37,-1,7,662,-1167,1829,252
,179,2023-10-20 13:12:52.35,168,-450,-2017,41,-3,0,663,-1104,1767,220
,180,2023-10-20 13:12:52.36,168,-450,-1995,51,-11,-11,639,-1165,1804,263
,181,2023-10-20 13:12:52.37,168,-460,-1999,56,-11,-24,628,-1107,1735,239
,182,2023-10-20 13:12:52.38,154,-460,-1987,56,-6,-29,662,-1175,1837,256
,183,2023-10-20 13:12:52.39,158,-465,-2017,52,2,-35,649,-1106,1755,228
,184,2023-10-20 13:12:52.40,136,-474,-2019,40,22,-36,656,-1175,1831,259
,185,2023-10-20 13:12:52.41,155,-477,-2013,31,11,-31,610,-1097,1707,243
,186,2023-10-20 13:12:52.42,147,-492,-2032,22,-3,-20,666,-1170,1836,252
,187,2023-10-20 13:12:52.43,144,-485,-2019,17,-7,-11,630,-1088,1718,229
,188,2023-10-20 13:12:52.44,158,-479,-2003,12,-11,-2,678,-1168,1846,245
,189,2023-10-20 13:12:52.45,153,-477,-2005,3,-20,7,630,-1089,1719,229
,190,2023-10-20 13:12:52.46,147,-458,-2003,-6,-11,15,690,-1175,1865,242
,191,2023-10-20 13:12:52.47,131,-447,-2010,-20,4,17,633,-1093,1726,230
,192,2023-10-20 13:12:52.48,130,-460,-1980,-23,5,17,695,-1178,1873,241
,193,2023-10-20 13:12:52.49,144,-460,-1985,-11,8,17,611,-1092,1703,240
,194,2023-10-20 13:12:52.50,145,-444,-1992,3,14,14,686,-1184,1870,249
,195,2023-10-20 13:12:52.51,134,-439,-1997,9,20,10,593,-1098,1691,252
,196,2023-10-20 13:12:52.52,147,-437,-1997,10,21,6,685,-1186,1871,250
,197,2023-10-20 13:12:52.53,146,-449,-2001,19,31,2,597,-1088,1685,245
,198,2023-10-20 13:12:52.54,145,-442,-2016,27,32,-2,698,-1183,1881,242
,199,2023-10-20 13:12:52.55,149,-438,-1991,32,32,-9,599,-1086,1685,243
,200,2023-10-20 13:12:52.56,147,-469,-2006,38,37,-16,677,-1188,1865,255
,201,2023-10-20 13:12:52.57,168,-486,-2008,35,50,-16,579,-1093,1672,257
,202,2023-10-20 13:12:52.58,163,-478,-2014,38,63,-10,724,-1195,1919,235
,203,2023-10-20 13:12:52.59,167,-467,-2034,33,72,-12,614,-1086,1700,236
,204,2023-10-20 13:12:52.60,171,-464,-2025,24,67,-11,720,-1177,1897,228
,205,2023-10-20 13:12:52.61,179,-477,-2018,24,57,-8,609,-1070,1679,230
,206,2023-10-20 13:12:52.62,173,-469,-2031,26,47,-11,728,-1191,1919,231
,207,2023-10-20 13:12:52.63,186,-459,-2033,25,35,-13,597,-1090,1687,246
,208,2023-10-20 13:12:52.64,167,-472,-2023,31,27,-11,734,-1197,1931,231
,209,2023-10-20 13:12:52.65,174,-472,-2018,33,12,-12,588,-1079,1667,245
,210,2023-10-20 13:12:52.66,172,-468,-2013,36,11,-12,709,-1194,1903,242
,211,2023-10-20 13:12:52.67,169,-470,-1997,37,20,-9,573,-1081,1654,254
,212,2023-10-20 13:12:52.68,176,-470,-2015,34,23,-10,717,-1201,1918,242
,213,2023-10-20 13:12:52.69,164,-464,-2007,31,27,-9,569,-1086,1655,258
,214,2023-10-20 13:12:52.70,174,-465,-2005,26,27,-11,704,-1199,1903,247
,215,2023-10-20 13:12:52.71,166,-471,-2005,26,28,-8,551,-1076,1627,262
,216,2023-10-20 13:12:52.72,169,-464,-2004,20,30,-11,726,-1193,1919,233
,217,2023-10-20 13:12:52.73,164,-459,-2012,19,29,-11,579,-1072,1651,246
,218,2023-10-20 13:12:52.74,162,-457,-2000,14,30,-13,751,-1194,1945,221
,219,2023-10-20 13:12:52.75,162,-460,-2000,7,34,-14,594,-1073,1667,239
,220,2023-10-20 13:12:52.76,169,-450,-2006,-7,37,-13,780,-1197,1977,208
,221,2023-10-20 13:12:52.77,166,-440,-2014,-24,34,-18,606,-1074,1680,234
,222,2023-10-20 13:12:52.78,153,-438,-2029,-50,15,-22,791,-1195,1986,202
,223,2023-10-20 13:12:52.79,165,-462,-2034,-73,-9,-24,597,-1068,1665,235
,224,2023-10-20 13:12:52.80,195,-480,-1994,-88,-18,-17,784,-1191,1975,203
,225,2023-10-20 13:12:52.81,196,-487,-1976,-100,5,-8,595,-1067,1662,236
,226,2023-10-20 13:12:52.82,169,-490,-1981,-104,32,-4,800,-1193,1993,196
,227,2023-10-20 13:12:52.83,176,-459,-2018,-89,35,4,597,-1068,1665,235
,228,2023-10-20 13:12:52.84,170,-443,-2036,-80,16,9,790,-1195,1985,202
,229,2023-10-20 13:12:52.85,174,-425,-2028,-77,12,6,589,-1069,1658,240
,230,2023-10-20 13:12:52.86,173,-406,-2046,-77,-1,-1,800,-1197,1997,198
,231,2023-10-20 13:12:52.87,173,-392,-2041,-73,-18,-7,590,-1073,1663,241
,232,2023-10-20 13:12:52.88,183,-406,-2030,-70,-30,-17,796,-1201,1997,202
,233,2023-10-20 13:12:52.89,191,-415,-2006,-52,-23,-26,594,-1073,1667,239
,234,2023-10-20 13:12:52.90,193,-400,-1993,-41,-18,-29,784,-1199,1983,207
,235,2023-10-20 13:12:52.91,194,-424,-1985,-30,-6,-32,581,-1071,1652,245
,236,2023-10-20 13:12:52.92,204,-459,-1961,-11,13,-25,802,-1199,2001,198
,237,2023-10-20 13:12:52.93,185,-469,-1964,12,35,-17,591,-1069,1660,239
,238,2023-10-20 13:12:52.94,191,-461,-2026,36,30,-15,810,-1197,2007,193
,239,2023-10-20 13:12:52.95,178,-428,-2016,55,13,-1,599,-1073,1672,237
,240,2023-10-20 13:12:52.96,181,-439,-2020,65,-6,0,816,-1196,2012,190
,241,2023-10-20 13:12:52.97,191,-453,-1986,62,-7,6,583,-1069,1652,243
,242,2023-10-20 13:12:52.98,169,-466,-2000,54,1,11,794,-1195,1989,200
,243,2023-10-20 13:12:52.99,185,-487,-1996,60,10,20,577,-1072,1649,247
,244,2023-10-20 13:12:53.00,171,-494,-1997,62,10,28,812,-1196,2008,192
,245,2023-10-20 13:12:53.01,182,-490,-1995,60,6,35,585,-1077,1662,246
,246,2023-10-20 13:12:53.02,181,-471,-2001,50,21,43,816,-1195,2011,189
,247,2023-10-20 13:12:53.03,174,-463,-2011,37,37,43,576,-1074,1650,249
,248,2023-10-20 13:12:53.04,176,-470,-2022,24,39,41,802,-1192,1994,195
,249,2023-10-20 13:12:53.05,177,-462,-2033,14,37,39,572,-1077,1649,252
,250,2023-10-20 13:12:53.06,178,-457,-2029,4,30,36,806,-1192,1998,193
,251,2023-10-20 13:12:53.07,179,-447,-2022,-2,18,29,565,-1076,1641,255
,252,2023-10-20 13:12:53.08,179,-442,-2011,-8,9,22,787,-1189,1976,201
,253,2023-10-20 13:12:53.09,182,-444,-2008,-12,5,13,576,-1075,1651,249
,254,2023-10-20 13:12:53.10,185,-438,-1994,-15,-1,3,825,-1187,2012,181
,255,2023-10-20 13:12:53.11,194,-444,-1985,-14,1,-3,576,-1080,1656,252
,256,2023-10-20 13:12:53.12,180,-437,-1981,-14,8,-13,785,-1190,1975,202
,257,2023-10-20 13:12:53.13,186,-450,-1977,-17,16,-16,565,-1083,1648,259
,258,2023-10-20 13:12:53.14,192,-453,-1987,-14,16,-17,813,-1189,2002,188
,259,2023-10-20 13:12:53.15,205,-462,-2002,1,16,-10,530,-1088,1618,279
,260,2023-10-20 13:12:53.16,194,-462,-1990,9,13,-5,785,-1255,2040,235
,261,2023-10-20 13:12:53.17,200,-461,-2009,13,19,12,583,-1208,1791,312
,262,2023-10-20 13:12:53.18,197,-459,-2036,12,8,16,828,-1325,2153,248
,263,2023-10-20 13:12:53.19,208,-441,-2040,11,-8,18,586,-1224,1810,319
,264,2023-10-20 13:12:53.20,205,-438,-2028,9,-20,20,816,-1308,2124,246
,265,2023-10-20 13:12:53.21,201,-440,-2030,12,-16,15,582,-1208,1790,313
,266,2023-10-20 13:12:53.22,195,-423,-2014,12,-14,2,820,-1293,2113,236
,267,2023-10-20 13:12:53.23,202,-415,-2027,23,-32,-8,582,-1193,1775,305
,268,2023-10-20 13:12:53.24,202,-421,-2024,21,-33,-13,817,-1203,2020,193
,269,2023-10-20 13:12:53.25,192,-442,-2018,4,-14,-12,582,-1083,1665,250
,270,2023-10-20 13:12:53.26,185,-464,-2019,-14,-5,-7,809,-1036,1845,113
,271,2023-10-20 13:12:53.27,186,-477,-2018,-25,-5,13,571,-934,1505,181
,272,2023-10-20 13:12:53.28,169,-479,-2020,-26,-14,33,810,-864,1674,27
,273,2023-10-20 13:12:53.29,168,-463,-2009,-27,-22,53,578,-791,1369,106
,274,2023-10-20 13:12:53.30,174,-453,-2000,-27,-25,67,826,-701,1527,-62
,275,2023-10-20 13:12:53.31,174,-434,-1995,-24,-21,71,534,-695,1229,80
,276,2023-10-20 13:12:53.32,170,-420,-2001,-17,-18,76,682,-961,1643,139
,277,2023-10-20 13:12:53.33,158,-392,-1982,-2,-14,71,886,-1092,1978,103
,278,2023-10-20 13:12:53.34,166,-412,-2026,10,-8,56,1204,-1223,2427,9
,279,2023-10-20 13:12:53.35,164,-420,-1995,15,-20,50,1119,-1150,2269,15
,280,2023-10-20 13:12:53.36,168,-429,-2000,33,-24,47,1141,-1171,2312,15
,281,2023-10-20 13:12:53.37,156,-439,-2012,40,-25,46,1026,-1091,2117,32
,282,2023-10-20 13:12:53.38,160,-438,-2020,47,-24,49,1121,-1142,2263,10
,283,2023-10-20 13:12:53.39,144,-447,-2013,54,-23,54,1047,-1097,2144,25
,284,2023-10-20 13:12:53.40,156,-450,-2020,54,-22,55,1121,-1150,2271,14
,285,2023-10-20 13:12:53.41,149,-450,-2006,48,-16,57,1039,-1104,2143,32
,286,2023-10-20 13:12:53.42,161,-443,-2004,50,-8,56,1111,-1148,2259,18
,287,2023-10-20 13:12:53.43,161,-446,-1991,51,0,56,1054,-1104,2158,25
,288,2023-10-20 13:12:53.44,166,-457,-2001,54,13,52,1104,-1139,2243,17
,289,2023-10-20 13:12:53.45,164,-451,-2014,50,23,49,1037,-1101,2138,32
,290,2023-10-20 13:12:53.46,147,-451,-2021,54,24,44,1083,-1132,2215,24
,291,2023-10-20 13:12:53.47,150,-443,-2011,53,20,40,1026,-1102,2128,38
,292,2023-10-20 13:12:53.48,169,-450,-2006,50,21,33,1072,-1131,2203,29
,293,2023-10-20 13:12:53.49,166,-452,-2015,44,20,29,1033,-1108,2141,37
,294,2023-10-20 13:12:53.50,169,-453,-2009,39,18,24,1066,-1130,2196,32
,295,2023-10-20 13:12:53.51,159,-455,-2019,35,16,25,1021,-1107,2128,43
,296,2023-10-20 13:12:53.52,167,-448,-2016,30,11,27,1108,-1157,2265,24
,297,2023-10-20 13:12:53.53,178,-450,-2010,27,7,27,1100,-1158,2258,29
,298,2023-10-20 13:12:53.54,156,-457,-2014,21,7,30,1210,-1242,2452,16
,299,2023-10-20 13:12:53.55,167,-455,-2022,17,1,32,1067,-1240,2307,86
,300,2023-10-20 13:12:53.56,166,-450,-2023,5,-9,36,1117,-1268,2385,75
,301,2023-10-20 13:12:53.57,159,-455,-2017,-7,-17,41,943,-1235,2178,146
,302,2023-10-20 13:12:53.58,175,-464,-2010,-20,-26,44,1035,-1247,2282,106
,303,2023-10-20 13:12:53.59,168,-464,-1997,-26,-27,42,880,-1215,2095,167
,304,2023-10-20 13:12:53.60,194,-476,-1985,-31,-22,41,984,-1197,2181,106
,305,2023-10-20 13:12:53.61,177,-476,-1989,-20,-4,38,824,-1150,1974,163
,306,2023-10-20 13:12:53.62,168,-445,-2018,-9,3,30,922,-1066,1988,72
,307,2023-10-20 13:12:53.63,174,-437,-2023,-7,2,26,765,-1019,1784,127
,308,2023-10-20 13:12:53.64,166,-437,-2026,-6,-4,19,867,-905,1772,19
,309,2023-10-20 13:12:53.65,165,-435,-2037,-7,-14,17,722,-883,1605,80
,310,2023-10-20 13:12:53.66,159,-426,-2017,-4,-21,14,830,-756,1586,-37
,311,2023-10-20 13:12:53.67,152,-442,-2008,-9,-25,15,688,-759,1447,35
,312,2023-10-20 13:12:53.68,170,-455,-2008,-4,-26,13,790,-623,1413,-83
,313,2023-10-20 13:12:53.69,168,-471,-1996,8,-26,14,674,-651,1325,-11
,314,2023-10-20 13:12:53.70,185,-500,-1961,15,-13,27,768,-513,1281,-127
,315,2023-10-20 13:12:53.71,151,-511,-1961,11,30,40,661,-546,1207,-57
,316,2023-10-20 13:12:53.72,128,-459,-2071,14,26,33,749,-394,1143,-177
,317,2023-10-20 13:12:53.73,149,-390,-2075,31,-16,33,646,-449,1095,-98
,318,2023-10-20 13:12:53.74,177,-401,-1981,42,-38,23,731,-301,1032,-215
,319,2023-10-20 13:12:53.75,171,-447,-1940,14,-1,3,651,-365,1016,-143
,320,2023-10-20 13:12:53.76,171,-446,-1981,-9,27,-13,731,-208,939,-261
,321,2023-10-20 13:12:53.77,167,-460,-2008,-7,26,-12,636,-307,943,-164
,322,2023-10-20 13:12:53.78,163,-473,-2006,5,19,-4,707,-160,867,-273
,323,2023-10-20 13:12:53.79,174,-470,-2001,-1,21,-3,635,-259,894,-188
,324,2023-10-20 13:12:53.80,177,-460,-2015,-7,14,4,696,-110,806,-293
,325,2023-10-20 13:12:53.81,173,-460,-2015,-3,5,7,640,-210,850,-215
,326,2023-10-20 13:12:53.82,182,-448,-2032,-3,1,15,686,-63,749,-311
,327,2023-10-20 13:12:53.83,175,-453,-2031,-7,-8,18,635,-170,805,-232
,328,2023-10-20 13:12:53.84,176,-443,-2032,-9,-14,19,678,-25,703,-326
,329,2023-10-20 13:12:53.85,175,-448,-2017,-9,-13,20,643,-131,774,-256
,330,2023-10-20 13:12:53.86,167,-456,-2005,2,-19,19,678,10,668,-344
,331,2023-10-20 13:12:53.87,163,-460,-2003,15,-33,20,652,-96,748,-278
,332,2023-10-20 13:12:53.88,152,-444,-2007,22,-34,21,677,37,640,-357
,333,2023-10-20 13:12:53.89,158,-440,-2010,20,-23,18,660,-71,731,-294
,334,2023-10-20 13:12:53.90,165,-448,-1997,13,-7,17,674,59,615,-366
,335,2023-10-20 13:12:53.91,150,-455,-2004,9,5,20,672,-44,716,-314
,336,2023-10-20 13:12:53.92,163,-469,-1999,15,11,25,675,81,594,-378
,337,2023-10-20 13:12:53.93,159,-464,-2005,23,8,29,681,-21,702,-330
,338,2023-10-20 13:12:53.94,155,-456,-1995,26,7,32,678,101,577,-389
,339,2023-10-20 13:12:53.95,164,-471,-1978,31,5,35,694,2,692,-348
,340,2023-10-20 13:12:53.96,146,-455,-2016,35,20,49,675,113,562,-394
,341,2023-10-20 13:12:53.97,149,-444,-2049,22,12,43,697,13,684,-355
,342,2023-10-20 13:12:53.98,149,-434,-2026,18,-7,42,675,120,555,-397
,343,2023-10-20 13:12:53.99,147,-456,-1999,13,-5,38,711,29,682,-370
,344,2023-10-20 13:12:54.00,153,-458,-2006,24,-4,30,672,128,544,-400
,345,2023-10-20 13:12:54.01,158,-440,-2007,31,-13,22,712,37,675,-374
,346,2023-10-20 13:12:54.02,136,-427,-2000,35,-14,14,663,133,530,-398
,347,2023-10-20 13:12:54.03,151,-436,-1994,18,-1,8,725,100,625,-412
,348,2023-10-20 13:12:54.04,129,-455,-2001,2,8,4,632,182,450,-407
,349,2023-10-20 13:12:54.05,148,-462,-2012,-19,8,12,701,97,604,-399
,350,2023-10-20 13:12:54.06,145,-474,-2017,-28,9,21,612,136,476,-374
,351,2023-10-20 13:12:54.07,144,-466,-1996,-30,20,32,693,29,664,-361
,352,2023-10-20 13:12:54.08,150,-455,-1999,-26,32,37,593,56,537,-324
,353,2023-10-20 13:12:54.09,163,-437,-2002,-13,33,37,694,-49,743,-322
,354,2023-10-20 13:12:54.10,164,-422,-2008,8,21,33,590,-21,611,-284
,355,2023-10-20 13:12:54.11,158,-418,-2019,21,14,29,685,-136,821,-274
,356,2023-10-20 13:12:54.12,151,-427,-2025,25,17,22,577,-117,694,-230
,357,2023-10-20 13:12:54.13,160,-418,-2032,22,17,19,710,-189,899,-260
,358,2023-10-20 13:12:54.14,158,-432,-2020,13,29,17,582,-102,684,-240
,359,2023-10-20 13:12:54.15,151,-445,-2004,16,32,16,694,-151,845,-271
,360,2023-10-20 13:12:54.16,191,-445,-1992,31,19,14,560,-102,662,-229
,361,2023-10-20 13:12:54.17,156,-433,-1985,50,35,10,706,-144,850,-281
,362,2023-10-20 13:12:54.18,174,-463,-2005,49,63,6,551,-109,660,-221
,363,2023-10-20 13:12:54.19,186,-450,-1983,59,61,12,711,-159,870,-276
,364,2023-10-20 13:12:54.20,184,-446,-2020,71,57,5,557,-121,678,-218
,365,2023-10-20 13:12:54.21,184,-451,-2022,66,51,3,723,-165,888,-279
,366,2023-10-20 13:12:54.22,196,-448,-2012,79,25,3,558,-138,696,-210
,367,2023-10-20 13:12:54.23,187,-450,-2014,75,21,-3,726,-339,1065,-193
,368,2023-10-20 13:12:54.24,186,-455,-2028,64,17,-11,572,-407,979,-82
,369,2023-10-20 13:12:54.25,186,-452,-2031,61,9,-15,714,-549,1263,-82
,370,2023-10-20 13:12:54.26,192,-447,-2030,56,6,-22,580,-475,1055,-52
,371,2023-10-20 13:12:54.27,187,-452,-2033,42,3,-27,744,-444,1188,-150
,372,2023-10-20 13:12:54.28,199,-464,-2028,14,5,-32,592,-314,906,-139
,373,2023-10-20 13:12:54.29,177,-492,-2037,6,-26,-30,749,-296,1045,-226
,374,2023-10-20 13:12:54.30,177,-493,-2027,6,-69,-21,584,-223,807,-180
,375,2023-10-20 13:12:54.31,174,-513,-2001,10,-87,-6,752,-219,971,-266
,376,2023-10-20 13:12:54.32,180,-521,-2001,7,-89,8,578,-163,741,-207
,377,2023-10-20 13:12:54.33,177,-514,-1995,8,-79,22,745,-153,898,-296
,378,2023-10-20 13:12:54.34,161,-509,-1995,14,-69,40,570,-113,683,-228
,379,2023-10-20 13:12:54.35,134,-473,-2013,32,-60,60,749,-96,845,-326
,380,2023-10-20 13:12:54.36,150,-460,-2002,29,-66,63,571,-74,645,-248
,381,2023-10-20 13:12:54.37,127,-457,-2003,28,-68,63,758,-61,819,-348
,382,2023-10-20 13:12:54.38,129,-448,-2001,25,-62,51,574,-52,626,-261
,383,2023-10-20 13:12:54.39,136,-428,-1983,28,-56,37,766,-30,796,-368
,384,2023-10-20 13:12:54.40,144,-455,-1978,35,-50,26,565,-32,597,-266
,385,2023-10-20 13:12:54.41,142,-487,-1988,29,-38,21,775,7,768,-391
,386,2023-10-20 13:12:54.42,160,-503,-1988,25,-20,22,578,0,578,-289
,387,2023-10-20 13:12:54.43,116,-480,-2017,25,1,22,785,43,742,-414
,388,2023-10-20 13:12:54.44,120,-456,-2057,34,-26,8,573,15,558,-294
,389,2023-10-20 13:12:54.45,127,-422,-2011,42,-49,1,780,63,717,-421
,390,2023-10-20 13:12:54.46,137,-459,-1977,33,-55,-7,582,37,545,-309
,391,2023-10-20 13:12:54.47,134,-487,-1985,11,-26,-15,807,94,713,-450
,392,2023-10-20 13:12:54.48,129,-490,-1992,-3,-11,-19,589,49,540,-319
,393,2023-10-20 13:12:54.49,121,-495,-2003,-4,-5,-10,809,111,698,-460
,394,2023-10-20 13:12:54.50,132,-502,-1995,-6,-9,1,589,55,534,-322
,395,2023-10-20 13:12:54.51,126,-486,-1990,-9,-9,9,803,119,684,-461
,396,2023-10-20 13:12:54.52,140,-464,-1998,-14,2,13,579,53,526,-316
,397,2023-10-20 13:12:54.53,145,-457,-1997,-21,17,16,808,127,681,-467
,398,2023-10-20 13:12:54.54,151,-454,-2010,-28,25,16,567,46,521,-306
,399,2023-10-20 13:12:54.55,157,-449,-2020,-34,27,14,789,121,668,-455
,400,2023-10-20 13:12:54.56,157,-449,-2025,-26,19,10,558,41,517,-299
,401,2023-10-20 13:12:54.57,142,-447,-2017,-19,6,7,781,121,660,-451
,402,2023-10-20 13:12:54.58,148,-443,-2017,-7,-14,3,546,38,508,-292
,403,2023-10-20 13:12:54.59,153,-440,-2025,-8,-5,-1,763,120,643,-441
,404,2023-10-20 13:12:54.60,167,-447,-2004,-17,9,-4,539,34,505,-286
,405,2023-10-20 13:12:54.61,156,-456,-2008,-18,-4,-10,771,125,646,-448
,406,2023-10-20 13:12:54.62,155,-465,-2006,-4,0,-10,526,20,506,-273
,407,2023-10-20 13:12:54.63,147,-450,-2011,4,18,-5,764,125,639,-444
,408,2023-10-20 13:12:54.64,157,-464,-1995,7,10,-5,540,30,510,-285
,409,2023-10-20 13:12:54.65,163,-465,-1995,10,9,-3,782,139,643,-460
,410,2023-10-20 13:12:54.66,141,-457,-2018,12,33,5,549,37,512,-293
,411,2023-10-20 13:12:54.67,151,-458,-2001,11,22,3,778,141,637,-459
,412,2023-10-20 13:12:54.68,151,-460,-2005,20,2,5,548,32,516,-290
,413,2023-10-20 13:12:54.69,156,-443,-2011,24,-3,1,788,150,638,-469
,414,2023-10-20 13:12:54.70,161,-438,-2014,23,8,-7,553,35,518,-294
,415,2023-10-20 13:12:54.71,156,-442,-1998,17,9,-15,785,152,633,-468
,416,2023-10-20 13:12:54.72,140,-448,-2009,18,5,-19,553,35,518,-294
,417,2023-10-20 13:12:54.73,141,-456,-2012,14,12,-23,786,157,629,-471
,418,2023-10-20 13:12:54.74,142,-465,-2008,3,18,-25,557,34,523,-295
,419,2023-10-20 13:12:54.75,146,-468,-2004,-5,22,-20,791,169,622,-480
,420,2023-10-20 13:12:54.76,138,-478,-2007,-11,30,-12,561,41,520,-301
,421,2023-10-20 13:12:54.77,140,-474,-2016,-9,35,-6,789,177,612,-483
,422,2023-10-20 13:12:54.78,149,-474,-2028,-7,20,5,555,44,511,-299
,423,2023-10-20 13:12:54.79,147,-451,-2025,0,13,15,780,184,596,-482
,424,2023-10-20 13:12:54.80,152,-442,-2020,-1,14,16,558,45,513,-301
,425,2023-10-20 13:12:54.81,159,-447,-2007,-5,27,20,784,188,596,-486
,426,2023-10-20 13:12:54.82,148,-450,-2007,0,12,20,557,41,516,-299
,427,2023-10-20 13:12:54.83,161,-442,-2000,13,1,22,778,180,598,-479
,428,2023-10-20 13:12:54.84,159,-432,-2001,17,4,23,556,34,522,-295
,429,2023-10-20 13:12:54.85,160,-438,-2001,15,4,18,778,182,596,-480
,430,2023-10-20 13:12:54.86,150,-445,-2004,14,4,17,565,35,530,-300
,431,2023-10-20 13:12:54.87,157,-447,-2005,20,2,16,777,183,594,-480
,432,2023-10-20 13:12:54.88,157,-460,-1996,25,3,15,564,30,534,-297
,433,2023-10-20 13:12:54.89,152,-459,-1994,29,-3,15,779,185,594,-482
,434,2023-10-20 13:12:54.90,161,-461,-1996,37,-11,17,572,36,536,-304
,435,2023-10-20 13:12:54.91,147,-470,-2006,44,-2,17,782,189,593,-485
,436,2023-10-20 13:12:54.92,144,-472,-2003,45,7,17,574,37,537,-305
,437,2023-10-20 13:12:54.93,153,-468,-2005,46,9,16,778,192,586,-485
,438,2023-10-20 13:12:54.94,162,-476,-2014,43,11,17,586,43,543,-314
,439,2023-10-20 13:12:54.95,153,-476,-2022,44,10,17,770,189,581,-479
,440,2023-10-20 13:12:54.96,165,-476,-2021,43,15,15,573,28,545,-300
,441,2023-10-20 13:12:54.97,159,-477,-2016,45,18,15,764,181,583,-472
,442,2023-10-20 13:12:54.98,163,-488,-2014,47,25,11,582,32,550,-307
,443,2023-10-20 13:12:54.99,164,-475,-2011,53,28,9,764,188,576,-476
,444,2023-10-20 13:12:55.00,168,-476,-2028,46,27,9,582,25,557,-303
,445,2023-10-20 13:12:55.01,161,-480,-2017,41,21,8,756,185,571,-470
,446,2023-10-20 13:12:55.02,168,-472,-2004,37,19,2,584,26,558,-305
,447,2023-10-20 13:12:55.03,164,-472,-1998,33,26,-6,744,177,567,-460
,448,2023-10-20 13:12:55.04,162,-469,-1997,25,29,-14,589,22,567,-305
,449,2023-10-20 13:12:55.05,164,-484,-2002,26,37,-19,752,185,567,-468
,450,2023-10-20 13:12:55.06,174,-484,-1993,31,39,-17,593,27,566,-310
,451,2023-10-20 13:12:55.07,167,-489,-2000,39,41,-17,748,186,562,-467
,452,2023-10-20 13:12:55.08,164,-473,-2011,38,38,-18,589,22,567,-305
,453,2023-10-20 13:12:55.09,163,-469,-2014,38,33,-18,740,182,558,-461
,454,2023-10-20 13:12:55.10,162,-464,-2017,33,22,-18,599,25,574,-312
,455,2023-10-20 13:12:55.11,161,-463,-2015,17,14,-17,744,185,559,-464
,456,2023-10-20 13:12:55.12,156,-476,-2003,7,7,-16,609,25,584,-317
,457,2023-10-20 13:12:55.13,157,-478,-2006,-2,2,-13,743,183,560,-463
,458,2023-10-20 13:12:55.14,145,-483,-1999,-8,3,-7,613,25,588,-319
,459,2023-10-20 13:12:55.15,163,-484,-1997,-13,8,-3,739,186,553,-462
,460,2023-10-20 13:12:55.16,162,-500,-1993,-10,19,-2,619,27,592,-323
,461,2023-10-20 13:12:55.17,162,-483,-1993,8,38,2,742,186,556,-464
,462,2023-10-20 13:12:55.18,135,-437,-1984,6,45,-1,630,31,599,-330
,463,2023-10-20 13:12:55.19,172,-479,-2028,5,40,-3,743,188,555,-465
,464,2023-10-20 13:12:55.20,153,-481,-2003,-8,39,9,638,40,598,-339
,465,2023-10-20 13:12:55.21,158,-478,-2028,-5,40,16,737,195,542,-466
,466,2023-10-20 13:12:55.22,159,-469,-2021,-7,30,21,638,43,595,-340
,467,2023-10-20 13:12:55.23,173,-460,-2006,-7,23,25,729,188,541,-458
,468,2023-10-20 13:12:55.24,172,-460,-1995,-7,24,22,649,43,606,-346
,469,2023-10-20 13:12:55.25,168,-455,-2007,-2,30,19,728,193,535,-460
,470,2023-10-20 13:12:55.26,174,-442,-2012,1,24,15,648,43,605,-345
,471,2023-10-20 13:12:55.27,170,-458,-2007,9,16,12,717,191,526,-454
,472,2023-10-20 13:12:55.28,184,-463,-2005,11,14,8,647,44,603,-345
,473,2023-10-20 13:12:55.29,172,-458,-2016,15,6,5,712,183,529,-447
,474,2023-10-20 13:12:55.30,175,-459,-2012,18,-12,2,656,49,607,-352
,475,2023-10-20 13:12:55.31,185,-475,-2011,19,-25,5,709,189,520,-449
,476,2023-10-20 13:12:55.32,174,-469,-2008,16,-27,8,657,53,604,-355
,477,2023-10-20 13:12:55.33,159,-470,-2013,10,-30,8,691,179,512,-435
,478,2023-10-20 13:12:55.34,170,-465,-2010,1,-37,6,650,40,610,-345
,479,2023-10-20 13:12:55.35,160,-465,-2003,-1,-40,-3,696,178,518,-437
,480,2023-10-20 13:12:55.36,161,-473,-1993,-14,-34,-8,666,50,616,-358
,481,2023-10-20 13:12:55.37,175,-479,-1973,-14,-23,-15,682,174,508,-428
,482,2023-10-20 13:12:55.38,175,-493,-1989,-12,-2,-16,663,42,621,-352
,483,2023-10-20 13:12:55.39,168,-483,-1996,1,11,-19,678,165,513,-421
,484,2023-10-20 13:12:55.40,177,-472,-1997,5,20,-19,667,48,619,-357
,485,2023-10-20 13:12:55.41,165,-484,-1996,10,28,-15,662,155,507,-408
,486,2023-10-20 13:12:55.42,176,-483,-2007,5,23,-12,667,45,622,-356
,487,2023-10-20 13:12:55.43,173,-481,-2027,0,16,-3,659,158,501,-408
,488,2023-10-20 13:12:55.44,181,-484,-2009,0,6,-1,676,53,623,-364
,489,2023-10-20 13:12:55.45,177,-484,-2005,2,6,4,664,162,502,-413
,490,2023-10-20 13:12:55.46,175,-460,-1990,9,17,1,685,60,625,-372
,491,2023-10-20 13:12:55.47,166,-447,-2012,6,22,-4,658,161,497,-409
,492,2023-10-20 13:12:55.48,149,-441,-2044,-7,5,-5,693,62,631,-377
,493,2023-10-20 13:12:55.49,165,-460,-2025,-20,-25,-8,654,155,499,-404
,494,2023-10-20 13:12:55.50,175,-465,-2008,-15,-29,-9,699,66,633,-382
,495,2023-10-20 13:12:55.51,152,-458,-1998,-13,-24,-7,652,156,496,-404
,496,2023-10-20 13:12:55.52,164,-451,-1994,-7,-7,-10,705,67,638,-386
,497,2023-10-20 13:12:55.53,167,-459,-1960,3,7,-5,646,148,498,-397
,498,2023-10-20 13:12:55.54,168,-476,-1968,21,39,-8,709,68,641,-388
,499,2023-10-20 13:12:55.55,149,-449,-2004,32,60,-11,640,147,493,-393
,500,2023-10-20 13:12:55.56,168,-436,-2008,43,55,-14,705,71,634,-388
,501,2023-10-20 13:12:55.57,171,-454,-2011,44,49,-11,633,146,487,-389
,502,2023-10-20 13:12:55.58,161,-456,-2018,44,44,-12,709,74,635,-391
,503,2023-10-20 13:12:55.59,165,-455,-2014,40,44,-13,626,137,489,-381
,504,2023-10-20 13:12:55.60,171,-467,-2008,45,44,-12,714,77,637,-395
,505,2023-10-20 13:12:55.61,171,-470,-2014,50,42,-14,627,138,489,-382
,506,2023-10-20 13:12:55.62,178,-450,-2023,43,32,-12,723,83,640,-403
,507,2023-10-20 13:12:55.63,169,-463,-2008,37,14,-11,621,135,486,-378
,508,2023-10-20 13:12:55.64,180,-474,-2001,39,11,-6,731,90,641,-410
,509,2023-10-20 13:12:55.65,180,-470,-2000,32,11,-4,622,140,482,-381
,510,2023-10-20 13:12:55.66,183,-476,-2000,20,15,-2,736,96,640,-416
,511,2023-10-20 13:12:55.67,186,-481,-1999,20,12,-2,613,134,479,-373
,512,2023-10-20 13:12:55.68,175,-482,-2004,13,12,4,736,93,643,-414
,513,2023-10-20 13:12:55.69,172,-478,-2011,12,7,9,603,124,479,-363
,514,2023-10-20 13:12:55.70,185,-477,-2004,12,3,12,728,88,640,-408
,515,2023-10-20 13:12:55.71,191,-475,-2005,7,2,13,600,117,483,-358
,516,2023-10-20 13:12:55.72,185,-486,-1996,8,0,16,736,98,638,-417
,517,2023-10-20 13:12:55.73,178,-487,-2007,7,2,19,597,121,476,-359
,518,2023-10-20 13:12:55.74,186,-488,-2006,8,2,23,738,107,631,-422
,519,2023-10-20 13:12:55.75,199,-475,-2001,7,14,22,582,119,463,-350
,520,2023-10-20 13:12:55.76,193,-491,-1983,8,21,25,740,120,620,-430
,521,2023-10-20 13:12:55.77,195,-479,-2005,8,15,22,578,120,458,-349
,522,2023-10-20 13:12:55.78,192,-462,-2000,11,23,17,741,113,628,-427
,523,2023-10-20 13:12:55.79,198,-466,-2005,10,20,13,579,109,470,-344
,524,2023-10-20 13:12:55.80,191,-478,-2014,8,19,12,744,114,630,-429
,525,2023-10-20 13:12:55.81,198,-478,-2007,11,12,8,575,106,469,-340
,526,2023-10-20 13:12:55.82,201,-479,-2010,13,8,5,747,107,640,-427
,527,2023-10-20 13:12:55.83,189,-480,-2003,16,6,7,583,108,475,-345
,528,2023-10-20 13:12:55.84,184,-480,-2001,14,6,8,765,126,639,-445
,529,2023-10-20 13:12:55.85,197,-486,-2010,8,10,10,580,106,474,-343
,530,2023-10-20 13:12:55.86,190,-477,-2011,6,10,12,767,129,638,-448
,531,2023-10-20 13:12:55.87,188,-478,-2009,6,5,14,573,100,473,-336
,532,2023-10-20 13:12:55.88,186,-477,-2002,5,2,17,764,127,637,-445
,533,2023-10-20 13:12:55.89,187,-474,-2003,2,-1,22,569,94,475,-331
,534,2023-10-20 13:12:55.90,168,-473,-2010,1,-5,25,769,130,639,-449
,535,2023-10-20 13:12:55.91,181,-472,-2003,1,-6,26,566,89,477,-327
,536,2023-10-20 13:12:55.92,186,-470,-1998,-4,-3,25,765,127,638,-446
,537,2023-10-20 13:12:55.93,202,-468,-2010,-13,1,27,566,80,486,-323
,538,2023-10-20 13:12:55.94,173,-465,-2010,-17,-1,28,772,131,641,-451
,539,2023-10-20 13:12:55.95,182,-459,-2008,-18,1,26,568,82,486,-325
,540,2023-10-20 13:12:55.96,171,-457,-2004,-21,3,27,776,136,640,-456
,541,2023-10-20 13:12:55.97,172,-457,-2007,-18,5,25,561,75,486,-318
,542,2023-10-20 13:12:55.98,167,-458,-2006,-18,4,21,774,137,637,-455
,543,2023-10-20 13:12:55.99,174,-461,-2007,-14,1,17,559,74,485,-316
,544,2023-10-20 13:12:56.00,160,-465,-2003,-8,2,16,775,138,637,-456
,545,2023-10-20 13:12:56.01,168,-454,-2008,-2,5,14,551,68,483,-309
,546,2023-10-20 13:12:56.02,178,-458,-2007,-1,4,8,769,137,632,-453
,547,2023-10-20 13:12:56.03,173,-465,-2012,1,4,7,551,61,490,-306
,548,2023-10-20 13:12:56.04,175,-467,-2003,6,5,5,773,140,633,-456
,549,2023-10-20 13:12:56.05,180,-473,-1999,12,11,4,554,60,494,-307
,550,2023-10-20 13:12:56.06,189,-467,-2006,12,17,3,778,146,632,-462
,551,2023-10-20 13:12:56.07,187,-470,-2011,12,19,1,550,59,491,-304
,552,2023-10-20 13:12:56.08,178,-471,-2003,13,23,-1,772,145,627,-458
,553,2023-10-20 13:12:56.09,184,-463,-1997,18,20,0,541,50,491,-295
,554,2023-10-20 13:12:56.10,185,-462,-2003,20,14,-3,774,145,629,-459
,555,2023-10-20 13:12:56.11,186,-467,-2008,19,10,-2,546,48,498,-297
,556,2023-10-20 13:12:56.12,182,-468,-2003,23,1,-5,775,146,629,-460
,557,2023-10-20 13:12:56.13,176,-464,-2007,28,-11,-7,542,47,495,-294
,558,2023-10-20 13:12:56.14,180,-464,-2012,29,-19,-8,772,149,623,-460
,559,2023-10-20 13:12:56.15,190,-477,-2012,30,-29,-9,546,41,505,-293
,560,2023-10-20 13:12:56.16,192,-477,-2009,32,-28,-4,777,150,627,-463
,561,2023-10-20 13:12:56.17,180,-476,-2008,33,-33,-3,550,50,500,-300
,562,2023-10-20 13:12:56.18,171,-473,-1998,34,-31,3,777,158,619,-467
,563,2023-10-20 13:12:56.19,183,-484,-1995,30,-26,4,547,41,506,-294
,564,2023-10-20 13:12:56.20,174,-480,-1998,26,-16,8,784,159,625,-471
,565,2023-10-20 13:12:56.21,164,-475,-1990,27,-6,12,553,46,507,-299
,566,2023-10-20 13:12:56.22,169,-464,-1994,22,-6,12,786,172,614,-479
,567,2023-10-20 13:12:56.23,177,-453,-2015,19,-9,11,546,35,511,-290
,568,2023-10-20 13:12:56.24,185,-463,-2015,19,-11,13,781,164,617,-472
,569,2023-10-20 13:12:56.25,184,-459,-2014,19,-10,16,550,35,515,-292
,570,2023-10-20 13:12:56.26,180,-471,-2012,17,1,12,782,170,612,-476
,571,2023-10-20 13:12:56.27,166,-470,-2005,17,6,14,556,37,519,-296
,572,2023-10-20 13:12:56.28,169,-467,-2001,27,-8,17,786,176,610,-481
,573,2023-10-20 13:12:56.29,169,-472,-2003,35,-8,17,562,38,524,-300
,574,2023-10-20 13:12:56.30,186,-461,-2005,37,0,15,786,175,611,-480
,575,2023-10-20 13:12:56.31,168,-462,-1996,28,6,11,570,26,544,-298
,576,2023-10-20 13:12:56.32,162,-489,-1996,33,20,6,796,168,628,-482
,577,2023-10-20 13:12:56.33,164,-481,-2008,41,13,9,572,28,544,-300
,578,2023-10-20 13:12:56.34,188,-485,-2000,50,5,6,784,176,608,-480
,579,2023-10-20 13:12:56.35,175,-482,-2003,48,3,0,571,27,544,-299
,580,2023-10-20 13:12:56.36,174,-477,-2015,37,26,0,785,176,609,-480
,581,2023-10-20 13:12:56.37,175,-501,-2004,35,25,1,564,20,544,-292
,582,2023-10-20 13:12:56.38,168,-496,-2007,44,4,3,772,172,600,-472
,583,2023-10-20 13:12:56.39,170,-486,-1994,45,-1,5,564,20,544,-292
,584,2023-10-20 13:12:56.40,182,-484,-2004,41,-1,3,771,174,597,-472
,585,2023-10-20 13:12:56.41,180,-482,-2002,30,2,1,565,22,543,-293
,586,2023-10-20 13:12:56.42,187,-479,-1991,12,20,0,766,176,590,-471
,587,2023-10-20 13:12:56.43,180,-476,-2018,-2,30,-5,570,23,547,-296
,588,2023-10-20 13:12:56.44,187,-491,-2004,-3,11,-8,767,182,585,-474
,589,2023-10-20 13:12:56.45,205,-471,-2021,2,-4,-7,580,28,552,-304
,590,2023-10-20 13:12:56.46,200,-482,-1994,-10,-6,-3,773,192,581,-482
,591,2023-10-20 13:12:56.47,179,-473,-1994,-14,9,-4,592,37,555,-314
,592,2023-10-20 13:12:56.48,183,-478,-1984,-3,1,-4,772,199,573,-485
,593,2023-10-20 13:12:56.49,186,-465,-1982,-2,-4,-1,593,38,555,-315
,594,2023-10-20 13:12:56.50,181,-469,-1994,2,-8,-3,774,201,573,-487
,595,2023-10-20 13:12:56.51,188,-468,-2000,1,-2,-2,603,36,567,-319
,596,2023-10-20 13:12:56.52,185,-477,-1999,-2,10,-3,779,210,569,-494
,597,2023-10-20 13:12:56.53,180,-487,-2004,4,2,0,613,48,565,-330
,598,2023-10-20 13:12:56.54,182,-477,-2008,13,-6,1,778,216,562,-497
,599,2023-10-20 13:12:56.55,188,-475,-2008,13,3,4,617,54,563,-335
,600,2023-10-20 13:12:56.56,186,-478,-2009,12,8,9,768,216,552,-492
,601,2023-10-20 13:12:56.57,186,-487,-2002,12,17,12,619,50,569,-334
,602,2023-10-20 13:12:56.58,176,-487,-2008,15,23,13,772,216,556,-494
,603,2023-10-20 13:12:56.59,183,-476,-2003,17,14,17,631,50,581,-340
,604,2023-10-20 13:12:56.60,197,-476,-2009,21,6,18,761,207,554,-484
,605,2023-10-20 13:12:56.61,198,-471,-2006,23,-2,19,633,49,584,-341
,606,2023-10-20 13:12:56.62,182,-478,-2004,16,17,17,761,209,552,-485
,607,2023-10-20 13:12:56.63,191,-487,-2003,23,1,20,636,50,586,-343
,608,2023-10-20 13:12:56.64,189,-478,-2011,26,-5,24,753,205,548,-479
,609,2023-10-20 13:12:56.65,195,-488,-2003,21,0,23,632,44,588,-338
,610,2023-10-20 13:12:56.66,188,-495,-2005,14,-5,32,740,199,541,-469
,611,2023-10-20 13:12:56.67,193,-495,-1999,15,0,34,619,38,581,-328
,612,2023-10-20 13:12:56.68,193,-487,-2000,15,-5,37,731,207,524,-469
,613,2023-10-20 13:12:56.69,190,-485,-2001,11,-14,39,631,54,577,-342
,614,2023-10-20 13:12:56.70,181,-472,-1996,12,-18,39,728,208,520,-468
,615,2023-10-20 13:12:56.71,188,-472,-2006,12,-16,36,644,60,584,-352
,616,2023-10-20 13:12:56.72,189,-482,-2006,9,-16,37,738,216,522,-477
,617,2023-10-20 13:12:56.73,183,-479,-2011,12,-24,35,652,65,587,-358
,618,2023-10-20 13:12:56.74,179,-478,-2014,17,-30,35,724,209,515,-466
,619,2023-10-20 13:12:56.75,178,-484,-2013,14,-35,38,651,57,594,-354
,620,2023-10-20 13:12:56.76,177,-476,-2007,16,-35,37,718,199,519,-458
,621,2023-10-20 13:12:56.77,180,-476,-2001,21,-39,34,652,56,596,-354
,622,2023-10-20 13:12:56.78,174,-474,-1999,22,-40,31,706,197,509,-451
,623,2023-10-20 13:12:56.79,167,-473,-2003,28,-49,31,648,56,592,-352
,624,2023-10-20 13:12:56.80,165,-479,-1994,29,-37,29,699,193,506,-446
,625,2023-10-20 13:12:56.81,168,-484,-1986,34,-41,27,648,56,592,-352
,626,2023-10-20 13:12:56.82,160,-483,-1997,39,-38,21,684,187,497,-435
,627,2023-10-20 13:12:56.83,172,-475,-1990,39,-36,22,660,58,602,-359
,628,2023-10-20 13:12:56.84,167,-491,-1990,34,-26,20,705,196,509,-450
,629,2023-10-20 13:12:56.85,169,-492,-1992,33,-25,14,690,77,613,-383
,630,2023-10-20 13:12:56.86,161,-483,-1995,37,-26,13,704,198,506,-451
,631,2023-10-20 13:12:56.87,157,-487,-1999,40,-30,12,698,76,622,-387
,632,2023-10-20 13:12:56.88,156,-488,-1992,38,-32,12,701,193,508,-447
,633,2023-10-20 13:12:56.89,157,-484,-1983,36,-29,6,724,71,653,-397
,634,2023-10-20 13:12:56.90,170,-480,-1996,36,-19,-2,756,193,563,-474
,635,2023-10-20 13:12:56.91,158,-479,-2008,27,-6,-10,780,81,699,-430
,636,2023-10-20 13:12:56.92,155,-488,-2009,18,0,-16,748,189,559,-468
,637,2023-10-20 13:12:56.93,161,-498,-2015,16,0,-19,742,70,672,-406
,638,2023-10-20 13:12:56.94,146,-509,-2018,16,-1,-19,696,165,531,-430
,639,2023-10-20 13:12:56.95,158,-500,-2013,17,-3,-18,735,67,668,-401
,640,2023-10-20 13:12:56.96,153,-490,-2016,18,-8,-15,714,174,540,-444
,641,2023-10-20 13:12:56.97,162,-491,-2006,16,-11,-15,740,78,662,-409
,642,2023-10-20 13:12:56.98,152,-495,-2016,19,-17,-18,676,162,514,-419
,643,2023-10-20 13:12:56.99,149,-484,-2006,19,-27,-17,716,72,644,-394
,644,2023-10-20 13:12:57.00,139,-490,-1997,23,-26,-21,664,156,508,-410
,645,2023-10-20 13:12:57.01,138,-492,-1992,25,-29,-22,723,68,655,-395
,646,2023-10-20 13:12:57.02,142,-498,-1998,23,-26,-21,650,145,505,-397
,647,2023-10-20 13:12:57.03,137,-501,-1999,20,-19,-16,702,61,641,-381
,648,2023-10-20 13:12:57.04,146,-503,-1991,18,-21,-12,624,132,492,-378
,649,2023-10-20 13:12:57.05,133,-503,-1972,13,-12,-6,704,62,642,-383
,650,2023-10-20 13:12:57.06,143,-506,-1962,18,-8,0,628,135,493,-381
,651,2023-10-20 13:12:57.07,144,-513,-1990,33,-23,6,716,74,642,-395
,652,2023-10-20 13:12:57.08,124,-503,-2001,31,-12,13,607,121,486,-364
,653,2023-10-20 13:12:57.09,144,-494,-2002,21,-9,20,699,67,632,-383
,654,2023-10-20 13:12:57.10,131,-496,-1990,-1,-8,28,590,110,480,-350
,655,2023-10-20 13:12:57.11,116,-512,-2009,-16,4,31,702,70,632,-386
,656,2023-10-20 13:12:57.12,132,-519,-2002,-21,-12,42,601,124,477,-362
,657,2023-10-20 13:12:57.13,150,-510,-1997,-30,-9,50,726,88,638,-407
,658,2023-10-20 13:12:57.14,148,-485,-1985,-47,11,55,608,129,479,-368
,659,2023-10-20 13:12:57.15,162,-468,-1992,-76,35,55,736,94,642,-415
,660,2023-10-20 13:12:57.16,168,-456,-1994,-89,48,47,610,130,480,-370
,661,2023-10-20 13:12:57.17,167,-418,-2005,-83,44,33,748,106,642,-427
,662,2023-10-20 13:12:57.18,183,-401,-2006,-83,39,10,612,133,479,-372
,663,2023-10-20 13:12:57.19,173,-399,-2043,-78,23,-11,757,117,640,-437
,664,2023-10-20 13:12:57.20,177,-409,-2047,-75,22,-33,614,136,478,-375
,665,2023-10-20 13:12:57.21,186,-403,-2029,-68,14,-50,769,125,644,-447
,666,2023-10-20 13:12:57.22,192,-414,-2024,-58,-4,-67,612,131,481,-371
,667,2023-10-20 13:12:57.23,183,-436,-2014,-42,-8,-76,775,125,650,-450
,668,2023-10-20 13:12:57.24,190,-458,-2003,-25,-10,-74,616,132,484,-374
,669,2023-10-20 13:12:57.25,197,-473,-1988,-6,-15,-71,784,134,650,-459
,670,2023-10-20 13:12:57.26,189,-476,-2011,8,-18,-58,610,133,477,-371
,671,2023-10-20 13:12:57.27,180,-485,-2020,18,-35,-47,776,132,644,-454
,672,2023-10-20 13:12:57.28,184,-497,-2028,22,-40,-24,595,115,480,-355
,673,2023-10-20 13:12:57.29,182,-511,-2025,22,-52,-12,770,120,650,-445
,674,2023-10-20 13:12:57.30,175,-504,-2027,22,-58,2,586,102,484,-344
,675,2023-10-20 13:12:57.31,174,-505,-2036,25,-66,17,772,107,665,-439
,676,2023-10-20 13:12:57.32,161,-509,-2022,28,-85,32,582,82,500,-332
,677,2023-10-20 13:12:57.33,162,-509,-1991,33,-88,48,768,94,674,-431
,678,2023-10-20 13:12:57.34,164,-527,-1981,28,-76,59,574,67,507,-320
,679,2023-10-20 13:12:57.35,135,-509,-1993,33,-64,63,765,93,672,-429
,680,2023-10-20 13:12:57.36,132,-504,-1999,35,-58,69,566,69,497,-317
,681,2023-10-20 13:12:57.37,127,-491,-1990,26,-47,69,770,114,656,-442
,682,2023-10-20 13:12:57.38,144,-477,-1979,16,-59,65,575,87,488,-331
,683,2023-10-20 13:12:57.39,141,-479,-1978,5,-49,61,790,138,652,-464
,684,2023-10-20 13:12:57.40,113,-477,-1994,0,-35,58,570,88,482,-329
,685,2023-10-20 13:12:57.41,123,-470,-1977,-8,-31,52,788,139,649,-463
,686,2023-10-20 13:12:57.42,126,-474,-1979,-13,-24,49,574,86,488,-330
,687,2023-10-20 13:12:57.43,122,-474,-1986,-15,-14,43,790,139,651,-464
,688,2023-10-20 13:12:57.44,127,-470,-1993,-14,-5,41,566,74,492,-320
,689,2023-10-20 13:12:57.45,136,-468,-2001,-11,12,37,778,132,646,-455
,690,2023-10-20 13:12:57.46,137,-463,-2003,-16,18,29,558,68,490,-313
,691,2023-10-20 13:12:57.47,139,-456,-1992,-14,30,24,776,135,641,-455
,692,2023-10-20 13:12:57.48,162,-454,-1996,-11,37,19,562,65,497,-313
,693,2023-10-20 13:12:57.49,159,-458,-2014,-12,44,14,785,146,639,-465
,694,2023-10-20 13:12:57.50,155,-458,-2018,-9,43,10,558,69,489,-313
,695,2023-10-20 13:12:57.51,164,-454,-2008,-5,37,4,784,148,636,-466
,696,2023-10-20 13:12:57.52,176,-454,-2008,-4,33,-1,552,62,490,-307
,697,2023-10-20 13:12:57.53,153,-453,-2017,-4,28,-8,776,146,630,-461
,698,2023-10-20 13:12:57.54,160,-449,-2027,-4,19,-9,549,58,491,-303
,699,2023-10-20 13:12:57.55,168,-469,-2020,-4,11,-9,780,150,630,-465
,700,2023-10-20 13:12:57.56,153,-479,-2014,0,4,0,550,57,493,-303
,701,2023-10-20 13:12:57.57,153,-490,-2021,4,-1,7,778,152,626,-465
,702,2023-10-20 13:12:57.58,143,-489,-2026,8,-14,16,545,52,493,-298
,703,2023-10-20 13:12:57.59,151,-486,-2021,7,-21,24,775,145,630,-460
,704,2023-10-20 13:12:57.60,151,-484,-2000,8,-22,32,538,41,497,-289
,705,2023-10-20 13:12:57.61,137,-509,-1979,10,-6,49,774,148,626,-461
,706,2023-10-20 13:12:57.62,129,-469,-2011,19,3,44,546,44,502,-295
,707,2023-10-20 13:12:57.63,124,-449,-2024,13,-3,44,778,151,627,-464
,708,2023-10-20 13:12:57.64,139,-436,-2006,12,-15,32,548,43,505,-295
,709,2023-10-20 13:12:57.65,125,-441,-1994,3,-14,28,776,158,618,-467
,710,2023-10-20 13:12:57.66,122,-452,-2011,-6,-12,24,544,39,505,-291
,711,2023-10-20 13:12:57.67,130,-453,-2005,-16,-11,22,773,156,617,-464
,712,2023-10-20 13:12:57.68,141,-451,-1991,-21,-5,17,539,31,508,-285
,713,2023-10-20 13:12:57.69,142,-456,-1990,-21,8,10,770,158,612,-464
,714,2023-10-20 13:12:57.70,161,-463,-1987,-14,18,8,546,35,511,-290
,715,2023-10-20 13:12:57.71,163,-458,-1996,-2,21,4,780,166,614,-473
,716,2023-10-20 13:12:57.72,141,-462,-2005,8,26,0,550,33,517,-291
,717,2023-10-20 13:12:57.73,142,-462,-2019,23,25,-2,766,155,611,-460
,718,2023-10-20 13:12:57.74,145,-474,-2021,36,14,-5,544,17,527,-280
,719,2023-10-20 13:12:57.75,133,-477,-2030,49,-6,-4,763,156,607,-459
,720,2023-10-20 13:12:57.76,132,-472,-2034,57,-27,-4,548,21,527,-284
,721,2023-10-20 13:12:57.77,142,-482,-2025,68,-43,1,776,166,610,-471
,722,2023-10-20 13:12:57.78,136,-480,-2001,71,-46,5,557,26,531,-291
,723,2023-10-20 13:12:57.79,137,-490,-1997,68,-47,9,780,174,606,-477
,724,2023-10-20 13:12:57.80,130,-486,-1999,60,-37,13,564,31,533,-297
,725,2023-10-20 13:12:57.81,132,-492,-1997,54,-31,18,773,175,598,-474
,726,2023-10-20 13:12:57.82,129,-484,-1998,47,-23,22,570,32,538,-301
,727,2023-10-20 13:12:57.83,154,-478,-2001,40,-21,24,781,183,598,-482
,728,2023-10-20 13:12:57.84,136,-482,-1994,35,-10,20,572,32,540,-302
,729,2023-10-20 13:12:57.85,140,-471,-2013,27,-5,18,771,177,594,-474
,730,2023-10-20 13:12:57.86,133,-474,-2021,19,-3,11,572,24,548,-298
,731,2023-10-20 13:12:57.87,143,-486,-2023,17,-3,9,766,173,593,-469
,732,2023-10-20 13:12:57.88,137,-478,-2024,13,-6,3,564,17,547,-290
,733,2023-10-20 13:12:57.89,141,-477,-2006,7,-6,-1,752,167,585,-459
,734,2023-10-20 13:12:57.90,135,-459,-1998,0,1,-12,558,12,546,-285
,735,2023-10-20 13:12:57.91,141,-461,-1995,-7,6,-20,754,165,589,-459
,736,2023-10-20 13:12:57.92,148,-465,-1985,-4,3,-29,574,18,556,-296
,737,2023-10-20 13:12:57.93,131,-471,-1994,0,6,-36,762,177,585,-469
,738,2023-10-20 13:12:57.94,148,-479,-1999,-1,11,-38,585,23,562,-304
,739,2023-10-20 13:12:57.95,116,-458,-2004,-1,34,-42,775,192,583,-483
,740,2023-10-20 13:12:57.96,137,-497,-2011,-4,32,-43,596,34,562,-315
,741,2023-10-20 13:12:57.97,139,-468,-1996,-11,40,-34,773,199,574,-486
,742,2023-10-20 13:12:57.98,137,-481,-2017,-3,39,-29,596,36,560,-316
,743,2023-10-20 13:12:57.99,140,-461,-2017,-4,29,-26,762,193,569,-477
,744,2023-10-20 13:12:58.00,147,-472,-2017,5,23,-25,592,26,566,-309
,745,2023-10-20 13:12:58.01,128,-466,-2025,13,19,-25,740,181,559,-460
,746,2023-10-20 13:12:58.02,140,-466,-2035,17,8,-26,587,19,568,-303
,747,2023-10-20 13:12:58.03,127,-473,-2017,25,-9,-26,746,186,560,-466
,748,2023-10-20 13:12:58.04,139,-469,-2011,32,-19,-25,595,25,570,-310
,749,2023-10-20 13:12:58.05,136,-456,-1989,31,-13,-37,744,190,554,-467
,750,2023-10-20 13:12:58.06,141,-459,-1995,26,-1,-48,604,34,570,-319
,751,2023-10-20 13:12:58.07,133,-467,-2007,26,-1,-59,745,200,545,-472
,752,2023-10-20 13:12:58.08,134,-473,-2007,29,-6,-64,605,37,568,-321
,753,2023-10-20 13:12:58.09,134,-483,-2020,34,-12,-66,727,188,539,-457
,754,2023-10-20 13:12:58.10,146,-487,-2021,39,-20,-71,590,22,568,-306
,755,2023-10-20 13:12:58.11,126,-488,-2017,41,-25,-71,712,172,540,-442
,756,2023-10-20 13:12:58.12,134,-491,-2003,43,-31,-66,608,28,580,-318
,757,2023-10-20 13:12:58.13,129,-488,-1987,43,-31,-63,729,193,536,-461
,758,2023-10-20 13:12:58.14,130,-482,-1986,40,-26,-65,618,36,582,-327
,759,2023-10-20 13:12:58.15,135,-483,-1994,32,-22,-62,730,196,534,-463
,760,2023-10-20 13:12:58.16,147,-494,-1987,26,-13,-62,628,40,588,-334
,761,2023-10-20 13:12:58.17,119,-493,-1998,15,-4,-55,717,191,526,-454
,762,2023-10-20 13:12:58.18,140,-505,-2008,4,-1,-44,620,39,581,-329
,763,2023-10-20 13:12:58.19,144,-516,-2004,-3,-1,-25,706,185,521,-445
,764,2023-10-20 13:12:58.20,147,-533,-2006,-6,5,-5,621,35,586,-328
,765,2023-10-20 13:12:58.21,140,-524,-2015,-6,10,10,693,174,519,-433
,766,2023-10-20 13:12:58.22,157,-501,-2021,-4,10,20,610,28,582,-319
,767,2023-10-20 13:12:58.23,138,-478,-2012,1,8,27,680,164,516,-422
,768,2023-10-20 13:12:58.24,153,-464,-2002,5,5,23,626,30,596,-328
,769,2023-10-20 13:12:58.25,144,-454,-2007,10,9,15,692,173,519,-432
,770,2023-10-20 13:12:58.26,154,-441,-1999,14,6,0,650,43,607,-346
,771,2023-10-20 13:12:58.27,153,-452,-1999,17,8,-16,706,182,524,-444
,772,2023-10-20 13:12:58.28,131,-448,-2002,16,9,-31,660,47,613,-353
,773,2023-10-20 13:12:58.29,151,-461,-1995,11,10,-41,696,179,517,-437
,774,2023-10-20 13:12:58.30,160,-461,-1977,13,19,-48,671,55,616,-363
,775,2023-10-20 13:12:58.31,166,-465,-1989,6,29,-53,702,183,519,-442
,776,2023-10-20 13:12:58.32,165,-474,-2009,-1,33,-57,681,62,619,-371
,777,2023-10-20 13:12:58.33,160,-474,-2012,2,24,-55,689,184,505,-436
,778,2023-10-20 13:12:58.34,166,-473,-2020,-1,18,-56,684,67,617,-375
,779,2023-10-20 13:12:58.35,157,-476,-2030,-6,7,-53,691,186,505,-438
,780,2023-10-20 13:12:58.36,160,-487,-2023,-7,-1,-47,692,70,622,-381
,781,2023-10-20 13:12:58.37,151,-486,-2024,-6,-1,-39,683,178,505,-430
,782,2023-10-20 13:12:58.38,162,-489,-2013,-5,-4,-30,686,63,623,-374
,783,2023-10-20 13:12:58.39,164,-483,-2013,-3,0,-24,663,160,503,-411
,784,2023-10-20 13:12:58.40,151,-481,-2018,-4,-3,-20,679,50,629,-364
,785,2023-10-20 13:12:58.41,159,-484,-2021,-4,-1,-15,642,139,503,-390
,786,2023-10-20 13:12:58.42,158,-475,-2014,0,-7,-12,670,35,635,-352
,787,2023-10-20 13:12:58.43,131,-474,-2017,5,-10,-3,630,133,497,-381
,788,2023-10-20 13:12:58.44,137,-477,-2015,0,-16,0,673,43,630,-358
,789,2023-10-20 13:12:58.45,136,-476,-2013,0,-25,4,630,135,495,-382
,790,2023-10-20 13:12:58.46,141,-470,-2009,-1,-30,9,679,49,630,-364
,791,2023-10-20 13:12:58.47,127,-464,-2006,-1,-36,11,626,137,489,-381
,792,2023-10-20 13:12:58.48,136,-465,-2002,-4,-45,12,692,61,631,-376
,793,2023-10-20 13:12:58.49,142,-475,-1993,-4,-46,11,634,146,488,-390
,794,2023-10-20 13:12:58.50,141,-481,-1985,-5,-38,10,718,76,642,-397
,795,2023-10-20 13:12:58.51,128,-480,-1991,-2,-28,12,639,150,489,-394
,796,2023-10-20 13:12:58.52,128,-473,-1989,0,-22,14,723,82,641,-402
,797,2023-10-20 13:12:58.53,144,-465,-1991,10,-7,19,634,149,485,-391
,798,2023-10-20 13:12:58.54,134,-471,-1990,13,-1,19,719,80,639,-399
,799,2023-10-20 13:12:58.55,144,-471,-1997,18,8,22,629,142,487,-385
,800,2023-10-20 13:12:58.56,145,-476,-1998,27,12,27,736,91,645,-413
,801,2023-10-20 13:12:58.57,144,-475,-1997,38,16,23,629,142,487,-385
,802,2023-10-20 13:12:58.58,159,-476,-1997,38,24,24,734,97,637,-415
,803,2023-10-20 13:12:58.59,151,-475,-2012,34,30,19,620,144,476,-382
,804,2023-10-20 13:12:58.60,146,-465,-2020,39,27,16,741,100,641,-420
,805,2023-10-20 13:12:58.61,157,-461,-2008,37,20,12,618,139,479,-378
,806,2023-10-20 13:12:58.62,159,-467,-2005,31,15,3,741,102,639,-421
,807,2023-10-20 13:12:58.63,162,-468,-2005,21,16,-7,598,128,470,-363
,808,2023-10-20 13:12:58.64,152,-463,-2004,17,15,-14,742,99,643,-420
,809,2023-10-20 13:12:58.65,152,-482,-2005,15,18,-18,606,129,477,-367
,810,2023-10-20 13:12:58.66,159,-486,-2005,13,17,-19,757,109,648,-433
,811,2023-10-20 13:12:58.67,166,-483,-2003,10,14,-22,601,123,478,-362
,812,2023-10-20 13:12:58.68,169,-482,-2008,12,8,-17,753,103,650,-428
,813,2023-10-20 13:12:58.69,156,-486,-2018,13,3,-14,600,115,485,-357
,814,2023-10-20 13:12:58.70,149,-474,-2020,13,-4,-11,753,108,645,-430
,815,2023-10-20 13:12:58.71,154,-485,-2012,14,-17,-7,591,113,478,-352
,816,2023-10-20 13:12:58.72,149,-495,-2006,16,-23,2,750,104,646,-427
,817,2023-10-20 13:12:58.73,142,-496,-2011,19,-27,8,592,115,477,-353
,818,2023-10-20 13:12:58.74,154,-495,-2005,19,-25,16,761,119,642,-440
,819,2023-10-20 13:12:58.75,154,-493,-1993,22,-17,24,592,114,478,-353
,820,2023-10-20 13:12:58.76,144,-494,-1984,21,-4,32,769,121,648,-445
,821,2023-10-20 13:12:58.77,144,-498,-1995,18,4,36,588,108,480,-348
,822,2023-10-20 13:12:58.78,152,-493,-1994,21,10,41,766,121,645,-443
,823,2023-10-20 13:12:58.79,141,-483,-1995,24,14,39,581,100,481,-340
,824,2023-10-20 13:12:58.80,145,-481,-2000,24,7,38,768,123,645,-445
,825,2023-10-20 13:12:58.81,142,-482,-2015,26,-3,35,579,99,480,-339
,826,2023-10-20 13:12:58.82,150,-473,-2004,35,-17,34,775,129,646,-452
,827,2023-10-20 13:12:58.83,156,-469,-1995,36,-19,27,579,98,481,-338
,828,2023-10-20 13:12:58.84,153,-468,-1984,31,-11,18,777,134,643,-455
,829,2023-10-20 13:12:58.85,155,-471,-2001,28,-7,7,576,94,482,-335
,830,2023-10-20 13:12:58.86,147,-486,-2019,28,-6,1,781,138,643,-459
,831,2023-10-20 13:12:58.87,150,-491,-2030,26,-10,-3,579,96,483,-337
,832,2023-10-20 13:12:58.88,139,-484,-2032,22,-18,-4,792,148,644,-470
,833,2023-10-20 13:12:58.89,144,-486,-2017,16,-20,-4,581,97,484,-339
,834,2023-10-20 13:12:58.90,138,-486,-2003,13,-22,1,792,150,642,-471
,835,2023-10-20 13:12:58.91,128,-486,-2005,11,-19,5,574,89,485,-331
,836,2023-10-20 13:12:58.92,145,-483,-2004,5,-14,7,787,148,639,-467
,837,2023-10-20 13:12:58.93,144,-482,-1996,-3,-4,8,573,86,487,-329
,838,2023-10-20 13:12:58.94,129,-476,-1992,-7,4,11,797,154,643,-475
,839,2023-10-20 13:12:58.95,144,-478,-2003,-10,2,12,574,82,492,-328
,840,2023-10-20 13:12:58.96,138,-469,-2009,-9,-3,12,794,156,638,-475
,841,2023-10-20 13:12:58.97,131,-483,-2008,-9,-7,13,570,82,488,-326
,842,2023-10-20 13:12:58.98,142,-483,-2008,-5,-12,18,792,158,634,-475
,843,2023-10-20 13:12:58.99,127,-490,-2010,-3,-18,19,561,74,487,-317
,844,2023-10-20 13:12:59.00,135,-485,-2008,-1,-19,24,784,155,629,-469
,845,2023-10-20 13:12:59.01,132,-491,-2005,2,-23,23,568,73,495,-320
,846,2023-10-20 13:12:59.02,139,-483,-2009,-2,-18,26,800,170,630,-485
,847,2023-10-20 13:12:59.03,130,-482,-2006,0,-21,31,571,80,491,-325
,848,2023-10-20 13:12:59.04,144,-482,-1996,1,-15,29,790,171,619,-480
,849,2023-10-20 13:12:59.05,152,-481,-1990,3,-2,29,584,83,501,-333
,850,2023-10-20 13:12:59.06,152,-472,-2001,0,6,20,845,214,631,-529
,851,2023-10-20 13:12:59.07,165,-474,-2006,2,12,16,648,149,499,-398
,852,2023-10-20 13:12:59.08,171,-484,-2016,5,11,11,881,292,589,-586
,853,2023-10-20 13:12:59.09,162,-482,-2001,10,19,10,589,130,459,-359
,854,2023-10-20 13:12:59.10,149,-470,-1988,11,24,5,749,153,596,-451
,855,2023-10-20 13:12:59.11,168,-468,-1981,0,7,3,463,-22,485,-220
,856,2023-10-20 13:12:59.12,158,-467,-1952,-4,-5,4,599,3,596,-301
,857,2023-10-20 13:12:59.13,160,-449,-1927,-18,-8,4,365,-126,491,-119
,858,2023-10-20 13:12:59.14,151,-436,-1941,-30,-19,1,561,-39,600,-261
,859,2023-10-20 13:12:59.15,139,-428,-1955,-44,-34,1,378,-124,502,-127
,860,2023-10-20 13:12:59.16,130,-443,-1975,-62,-48,1,611,2,609,-306
,861,2023-10-20 13:12:59.17,128,-447,-2005,-78,-64,8,442,-73,515,-184
,862,2023-10-20 13:12:59.18,125,-463,-2014,-92,-87,22,712,92,620,-402
,863,2023-10-20 13:12:59.19,103,-467,-2036,-109,-90,35,545,20,525,-282
,864,2023-10-20 13:12:59.20,110,-463,-2015,-119,-89,47,842,230,612,-536
,865,2023-10-20 13:12:59.21,108,-458,-1990,-121,-72,61,635,125,510,-380
,866,2023-10-20 13:12:59.22,114,-442,-1977,-117,-61,71,846,265,581,-555
,867,2023-10-20 13:12:59.23,127,-424,-1976,-105,-49,75,585,88,497,-336
,868,2023-10-20 13:12:59.24,133,-415,-1995,-84,-41,79,808,216,592,-512
,869,2023-10-20 13:12:59.25,113,-403,-2031,-75,-25,74,574,52,522,-313
,870,2023-10-20 13:12:59.26,117,-404,-2054,-77,-18,70,791,192,599,-491
,871,2023-10-20 13:12:59.27,103,-402,-2078,-73,-23,70,567,43,524,-305
,872,2023-10-20 13:12:59.28,85,-406,-2081,-74,-20,67,803,202,601,-502
,873,2023-10-20 13:12:59.29,79,-407,-2068,-76,-20,64,590,60,530,-325
,874,2023-10-20 13:12:59.30,98,-412,-2048,-73,-23,59,820,225,595,-522
,875,2023-10-20 13:12:59.31,100,-417,-2025,-60,-19,55,603,77,526,-340
,876,2023-10-20 13:12:59.32,92,-436,-2022,-48,1,47,816,234,582,-525
,877,2023-10-20 13:12:59.33,97,-445,-2019,-29,15,42,608,79,529,-343
,878,2023-10-20 13:12:59.34,111,-440,-2022,-5,26,37,817,242,575,-529
,879,2023-10-20 13:12:59.35,108,-445,-2026,21,28,36,602,74,528,-338
,880,2023-10-20 13:12:59.36,100,-453,-2012,37,29,30,787,217,570,-502
,881,2023-10-20 13:12:59.37,112,-440,-2003,56,37,26,584,46,538,-315
,882,2023-10-20 13:12:59.38,123,-458,-2000,72,39,20,791,211,580,-501
,883,2023-10-20 13:12:59.39,119,-461,-2020,85,48,13,594,50,544,-322
,884,2023-10-20 13:12:59.40,124,-466,-2022,98,54,11,774,206,568,-490
,885,2023-10-20 13:12:59.41,119,-472,-2016,102,56,2,578,37,541,-307
,886,2023-10-20 13:12:59.42,138,-468,-2025,97,54,-3,762,194,568,-478
,887,2023-10-20 13:12:59.43,149,-472,-2037,97,60,-7,555,10,545,-282
,888,2023-10-20 13:12:59.44,127,-476,-2047,95,58,-13,712,152,560,-432
,889,2023-10-20 13:12:59.45,137,-480,-2062,95,38,-19,522,-27,549,-247
,890,2023-10-20 13:12:59.46,129,-464,-2064,89,20,-20,705,139,566,-422
,891,2023-10-20 13:12:59.47,120,-471,-2044,71,19,-23,530,-25,555,-252
,892,2023-10-20 13:12:59.48,105,-478,-2036,52,16,-20,697,143,554,-420
,893,2023-10-20 13:12:59.49,106,-487,-2020,42,3,-17,531,-19,550,-256
,894,2023-10-20 13:12:59.50,120,-480,-2004,47,-18,-7,694,150,544,-422
,895,2023-10-20 13:12:59.51,112,-459,-2004,49,-26,0,550,-1,551,-274
,896,2023-10-20 13:12:59.52,116,-440,-1999,28,-14,6,712,175,537,-443
,897,2023-10-20 13:12:59.53,118,-446,-1989,9,-7,10,572,18,554,-295
,898,2023-10-20 13:12:59.54,116,-439,-1995,-1,3,10,719,182,537,-450
,899,2023-10-20 13:12:59.55,118,-449,-2049,0,-3,10,581,24,557,-302
,900,2023-10-20 13:12:59.56,104,-473,-2088,2,-4,8,702,176,526,-439
,901,2023-10-20 13:12:59.57,98,-469,-2081,17,-27,11,551,0,551,-275
,902,2023-10-20 13:12:59.58,80,-474,-2047,35,-64,13,660,142,518,-401
,903,2023-10-20 13:12:59.59,88,-480,-2021,54,-84,14,524,-28,552,-248
,904,2023-10-20 13:12:59.60,83,-472,-1983,67,-69,21,637,122,515,-379
,905,2023-10-20 13:12:59.61,86,-478,-1946,76,-42,23,532,-29,561,-251
,906,2023-10-20 13:12:59.62,68,-469,-1918,74,-3,28,658,137,521,-397
,907,2023-10-20 13:12:59.63,84,-459,-1909,68,47,28,575,1,574,-288
,908,2023-10-20 13:12:59.64,90,-458,-1916,61,79,30,700,177,523,-438
,909,2023-10-20 13:12:59.65,97,-455,-1926,54,100,30,630,51,579,-340
,910,2023-10-20 13:12:59.66,106,-453,-1941,48,114,28,738,224,514,-481
,911,2023-10-20 13:12:59.67,107,-446,-1961,35,114,24,664,92,572,-378
,912,2023-10-20 13:12:59.68,133,-454,-1967,26,110,22,753,252,501,-502
,913,2023-10-20 13:12:59.69,148,-462,-1970,26,109,20,684,111,573,-397
,914,2023-10-20 13:12:59.70,148,-469,-1996,29,113,14,752,260,492,-506
,915,2023-10-20 13:12:59.71,158,-484,-1997,41,107,10,684,110,574,-397
,916,2023-10-20 13:12:59.72,166,-490,-2014,59,93,5,741,248,493,-494
,917,2023-10-20 13:12:59.73,163,-504,-2029,79,87,4,677,96,581,-386
,918,2023-10-20 13:12:59.74,184,-505,-2025,89,91,1,723,228,495,-475
,919,2023-10-20 13:12:59.75,183,-532,-2030,100,91,0,673,81,592,-377
,920,2023-10-20 13:12:59.76,185,-542,-2034,117,80,4,707,211,496,-459
,921,2023-10-20 13:12:59.77,192,-556,-2044,130,65,9,671,75,596,-373
,922,2023-10-20 13:12:59.78,196,-559,-2039,142,50,19,698,206,492,-452
,923,2023-10-20 13:12:59.79,176,-555,-2031,146,41,24,667,69,598,-368
,924,2023-10-20 13:12:59.80,174,-546,-2014,139,33,30,679,187,492,-433
,925,2023-10-20 13:12:59.81,185,-544,-2000,129,24,34,655,54,601,-354
,926,2023-10-20 13:12:59.82,177,-533,-1993,113,23,34,661,174,487,-417
,927,2023-10-20 13:12:59.83,175,-521,-1990,89,29,33,666,59,607,-362
,928,2023-10-20 13:12:59.84,176,-512,-1995,58,30,29,649,166,483,-407
,929,2023-10-20 13:12:59.85,158,-499,-1977,32,26,23,650,49,601,-349
,930,2023-10-20 13:12:59.86,157,-504,-1980,9,24,20,628,150,478,-389
,931,2023-10-20 13:12:59.87,150,-506,-1972,-9,17,13,655,51,604,-353
,932,2023-10-20 13:12:59.88,158,-498,-1983,-24,6,8,640,160,480,-400
,933,2023-10-20 13:12:59.89,150,-492,-1984,-39,-1,4,664,61,603,-362
,934,2023-10-20 13:12:59.90,161,-502,-1986,-46,-5,-1,642,165,477,-403
,935,2023-10-20 13:12:59.91,167,-499,-2002,-50,-9,-6,679,72,607,-375
,936,2023-10-20 13:12:59.92,166,-525,-2018,-43,-14,-11,640,167,473,-403
,937,2023-10-20 13:12:59.93,158,-533,-2012,-28,-23,-9,693,76,617,-384
,938,2023-10-20 13:12:59.94,165,-522,-2003,-5,-25,-6,632,161,471,-396
,939,2023-10-20 13:12:59.95,161,-541,-2027,25,-19,0,674,64,610,-369
,940,2023-10-20 13:12:59.96,158,-550,-2040,50,-13,6,611,141,470,-376
,941,2023-10-20 13:12:59.97,153,-561,-2016,79,2,14,660,45,615,-352
,942,2023-10-20 13:12:59.98,158,-556,-1987,119,24,20,584,118,466,-351
,943,2023-10-20 13:12:59.99,177,-560,-1978,147,50,27,648,35,613,-341
,944,2023-10-20 13:13:00.00,158,-561,-1973,178,73,37,580,112,468,-346
,945,2023-10-20 13:13:00.01,152,-548,-1962,204,98,43,672,52,620,-362
,946,2023-10-20 13:13:00.02,150,-548,-1937,234,110,46,600,128,472,-364
,947,2023-10-20 13:13:00.03,158,-541,-1930,255,130,46,714,86,628,-400
,948,2023-10-20 13:13:00.04,160,-531,-1954,265,157,41,634,162,472,-398
,949,2023-10-20 13:13:00.05,169,-538,-1989,273,165,38,749,128,621,-438
,950,2023-10-20 13:13:00.06,144,-551,-2017,285,167,39,649,186,463,-417
,951,2023-10-20 13:13:00.07,148,-538,-2015,290,162,37,778,163,615,-470
,952,2023-10-20 13:13:00.08,157,-533,-1973,295,155,32,680,219,461,-449
,953,2023-10-20 13:13:00.09,190,-547,-1955,303,147,26,828,221,607,-524
,954,2023-10-20 13:13:00.10,174,-559,-1949,305,157,15,711,272,439,-491
,955,2023-10-20 13:13:00.11,184,-546,-1959,307,163,8,840,255,585,-547
,956,2023-10-20 13:13:00.12,192,-574,-1934,298,170,2,661,243,418,-452
,957,2023-10-20 13:13:00.13,211,-574,-1960,288,169,-2,758,172,586,-465
,958,2023-10-20 13:13:00.14,211,-570,-1951,270,160,-6,565,130,435,-347
,959,2023-10-20 13:13:00.15,193,-566,-1992,235,174,-16,647,45,602,-346
,960,2023-10-20 13:13:00.16,211,-553,-2022,181,161,-14,499,48,451,-273
,961,2023-10-20 13:13:00.17,207,-569,-2036,112,155,-14,612,7,605,-309
,962,2023-10-20 13:13:00.18,217,-551,-2049,37,144,-11,478,27,451,-252
,963,2023-10-20 13:13:00.19,205,-546,-2060,-36,119,-8,629,17,612,-323
,964,2023-10-20 13:13:00.20,207,-548,-2065,-101,86,-3,502,47,455,-274
,965,2023-10-20 13:13:00.21,221,-541,-2063,-157,47,2,666,48,618,-357
,966,2023-10-20 13:13:00.22,217,-533,-2048,-202,11,10,520,64,456,-292
,967,2023-10-20 13:13:00.23,204,-532,-2028,-235,-22,14,704,76,628,-390
,968,2023-10-20 13:13:00.24,208,-523,-2019,-261,-51,21,577,104,473,-340
,969,2023-10-20 13:13:00.25,211,-517,-2004,-269,-74,27,771,140,631,-455
,970,2023-10-20 13:13:00.26,213,-514,-1980,-268,-93,31,610,144,466,-377
,971,2023-10-20 13:13:00.27,209,-508,-1963,-257,-105,36,788,165,623,-476
,972,2023-10-20 13:13:00.28,203,-507,-1950,-239,-107,39,613,152,461,-382
,973,2023-10-20 13:13:00.29,200,-507,-1945,-219,-106,43,798,177,621,-487
,974,2023-10-20 13:13:00.30,197,-513,-1956,-194,-103,50,589,136,453,-362
,975,2023-10-20 13:13:00.31,192,-520,-1957,-168,-99,57,762,150,612,-456
,976,2023-10-20 13:13:00.32,214,-532,-1951,-143,-90,68,546,101,445,-323
,977,2023-10-20 13:13:00.33,186,-543,-1916,-118,-72,83,692,109,583,-400
,978,2023-10-20 13:13:00.34,195,-549,-1911,-94,-44,99,480,59,421,-269
,979,2023-10-20 13:13:00.35,187,-545,-1922,-74,-15,110,619,65,554,-342
,980,2023-10-20 13:13:00.36,205,-560,-1922,-57,10,125,422,10,412,-216
,981,2023-10-20 13:13:00.37,206,-564,-1925,-32,31,136,590,33,557,-311
,982,2023-10-20 13:13:00.38,199,-555,-1939,-18,55,143,418,-8,426,-205
,983,2023-10-20 13:13:00.39,207,-549,-1963,-10,68,148,605,37,568,-321
,984,2023-10-20 13:13:00.40,200,-566,-1997,2,66,156,440,5,435,-222
,985,2023-10-20 13:13:00.41,214,-578,-2020,18,54,159,672,86,586,-379
,986,2023-10-20 13:13:00.42,207,-565,-2051,30,34,160,510,51,459,-280
