// Data mode  : Full
// Data quality  : High
// Acceleration sensor's range  : 16g
// Gyroscope sensor's range  : 2000dps
//
//ARTIFACT,NUM,DATE,ACC_X,ACC_Y,ACC_Z,GYRO_X,GYRO_Y,GYRO_Z,EOG_L,EOG_R,EOG_H,EOG_V
,1,2023-10-27 11:55:13.98,39,-53,-2075,109,-63,94,-418,-707,289,562
,2,2023-10-27 11:55:13.99,25,-55,-2067,102,-44,97,-456,-769,313,612
,3,2023-10-27 11:55:14.00,26,-57,-2051,98,-42,93,-419,-707,288,563
,4,2023-10-27 11:55:14.01,32,-62,-2063,95,-53,87,-444,-763,319,603
,5,2023-10-27 11:55:14.02,31,-66,-2051,93,-45,87,-414,-708,294,561
,6,2023-10-27 11:55:14.03,21,-71,-2057,94,-46,86,-440,-757,317,598
,7,2023-10-27 11:55:14.04,16,-71,-2065,96,-54,81,-408,-704,296,556
,8,2023-10-27 11:55:14.05,7,-76,-2074,98,-71,78,-427,-746,319,586
,9,2023-10-27 11:55:14.06,7,-87,-2064,103,-85,73,-406,-703,297,554
,10,2023-10-27 11:55:14.07,2,-92,-2059,117,-99,74,-420,-740,320,580
,11,2023-10-27 11:55:14.08,-3,-108,-2058,138,-120,79,-403,-702,299,552
,12,2023-10-27 11:55:14.09,-21,-107,-2048,151,-135,86,-418,-738,320,578
,13,2023-10-27 11:55:14.10,-20,-109,-2046,162,-141,90,-406,-704,298,555
,14,2023-10-27 11:55:14.11,-21,-108,-2048,160,-125,100,-415,-734,319,574
,15,2023-10-27 11:55:14.12,-17,-123,-2048,156,-110,112,-409,-709,300,559
,16,2023-10-27 11:55:14.13,-29,-132,-2051,150,-98,125,-417,-730,313,573
,17,2023-10-27 11:55:14.14,-45,-122,-2057,141,-79,140,-418,-711,293,564
,18,2023-10-27 11:55:14.15,-37,-125,-2037,136,-82,154,-414,-729,315,571
,19,2023-10-27 11:55:14.16,-39,-127,-2026,137,-92,169,-421,-715,294,568
,20,2023-10-27 11:55:14.17,-59,-124,-2030,138,-117,179,-412,-730,318,571
,21,2023-10-27 11:55:14.18,-53,-119,-2049,137,-120,196,-421,-719,298,570
,22,2023-10-27 11:55:14.19,-66,-107,-2058,121,-104,206,-410,-725,315,567
,23,2023-10-27 11:55:14.20,-58,-109,-2070,104,-98,212,-420,-722,302,571
,24,2023-10-27 11:55:14.21,-56,-99,-2055,92,-103,216,-401,-718,317,559
,25,2023-10-27 11:55:14.22,-70,-81,-2043,87,-105,209,-418,-720,302,569
,26,2023-10-27 11:55:14.23,-53,-72,-2045,78,-96,204,-397,-713,316,555
,27,2023-10-27 11:55:14.24,-49,-57,-2043,69,-89,191,-428,-727,299,577
,28,2023-10-27 11:55:14.25,-42,-50,-2041,56,-64,175,-406,-719,313,562
,29,2023-10-27 11:55:14.26,-52,-51,-2041,42,-34,152,-434,-733,299,583
,30,2023-10-27 11:55:14.27,-43,-59,-2044,34,-14,136,-410,-720,310,565
,31,2023-10-27 11:55:14.28,-41,-81,-2048,35,-4,117,-443,-744,301,593
,32,2023-10-27 11:55:14.29,-47,-83,-2039,38,-8,102,-409,-721,312,565
,33,2023-10-27 11:55:14.30,-35,-82,-2036,45,-1,90,-440,-742,302,591
,34,2023-10-27 11:55:14.31,-24,-93,-2038,52,-2,78,-403,-719,316,561
,35,2023-10-27 11:55:14.32,-30,-98,-2041,57,-6,66,-447,-748,301,597
,36,2023-10-27 11:55:14.33,-29,-98,-2044,58,-7,59,-401,-716,315,558
,37,2023-10-27 11:55:14.34,-33,-102,-2044,55,-8,50,-441,-747,306,594
,38,2023-10-27 11:55:14.35,-35,-107,-2050,51,-5,43,-390,-707,317,548
,39,2023-10-27 11:55:14.36,-33,-106,-2064,43,-9,39,-436,-747,311,591
,40,2023-10-27 11:55:14.37,-30,-124,-2053,38,-10,35,-380,-700,320,540
,41,2023-10-27 11:55:14.38,-32,-124,-2053,33,-7,36,-433,-747,314,590
,42,2023-10-27 11:55:14.39,-40,-131,-2054,28,-11,35,-375,-695,320,535
,43,2023-10-27 11:55:14.40,-37,-142,-2054,26,-12,37,-430,-746,316,588
,44,2023-10-27 11:55:14.41,-27,-140,-2045,28,-9,36,-372,-693,321,532
,45,2023-10-27 11:55:14.42,-46,-140,-2056,36,-20,40,-436,-753,317,594
,46,2023-10-27 11:55:14.43,-46,-136,-2047,41,-25,41,-376,-692,316,534
,47,2023-10-27 11:55:14.44,-51,-148,-2050,46,-39,42,-450,-760,310,605
,48,2023-10-27 11:55:14.45,-50,-147,-2051,53,-51,45,-379,-692,313,535
,49,2023-10-27 11:55:14.46,-66,-142,-2050,55,-51,48,-451,-762,311,606
,50,2023-10-27 11:55:14.47,-54,-140,-2044,54,-50,52,-381,-693,312,537
,51,2023-10-27 11:55:14.48,-52,-127,-2048,47,-41,50,-453,-764,311,608
,52,2023-10-27 11:55:14.49,-58,-133,-2048,33,-29,50,-380,-690,310,535
,53,2023-10-27 11:55:14.50,-48,-137,-2050,27,-24,53,-461,-773,312,617
,54,2023-10-27 11:55:14.51,-81,-136,-2053,28,-24,52,-380,-690,310,535
,55,2023-10-27 11:55:14.52,-68,-129,-2045,29,-32,55,-462,-773,311,617
,56,2023-10-27 11:55:14.53,-67,-130,-2043,29,-30,56,-374,-690,316,532
,57,2023-10-27 11:55:14.54,-79,-129,-2037,26,-24,56,-458,-774,316,616
,58,2023-10-27 11:55:14.55,-57,-123,-2040,26,-19,53,-368,-682,314,525
,59,2023-10-27 11:55:14.56,-61,-117,-2034,25,-10,54,-445,-768,323,606
,60,2023-10-27 11:55:14.57,-70,-121,-2042,22,-6,53,-354,-669,315,511
,61,2023-10-27 11:55:14.58,-62,-121,-2046,23,-3,46,-440,-764,324,602
,62,2023-10-27 11:55:14.59,-74,-118,-2045,22,0,44,-344,-662,318,503
,63,2023-10-27 11:55:14.60,-62,-121,-2048,16,7,42,-436,-764,328,600
,64,2023-10-27 11:55:14.61,-69,-119,-2054,15,5,42,-344,-664,320,504
,65,2023-10-27 11:55:14.62,-65,-113,-2050,9,3,32,-438,-766,328,602
,66,2023-10-27 11:55:14.63,-60,-122,-2055,4,5,35,-342,-660,318,501
,67,2023-10-27 11:55:14.64,-69,-118,-2052,3,4,36,-438,-768,330,603
,68,2023-10-27 11:55:14.65,-56,-118,-2039,2,0,28,-340,-658,318,499
,69,2023-10-27 11:55:14.66,-54,-119,-2042,6,11,28,-445,-772,327,608
,70,2023-10-27 11:55:14.67,-63,-119,-2042,7,15,23,-342,-656,314,499
,71,2023-10-27 11:55:14.68,-52,-116,-2046,6,15,18,-447,-773,326,610
,72,2023-10-27 11:55:14.69,-45,-114,-2050,5,30,17,-344,-661,317,502
,73,2023-10-27 11:55:14.70,-54,-116,-2050,2,32,12,-446,-776,330,611
,74,2023-10-27 11:55:14.71,-51,-113,-2057,6,30,11,-336,-650,314,493
,75,2023-10-27 11:55:14.72,-49,-125,-2054,6,23,0,-448,-779,331,613
,76,2023-10-27 11:55:14.73,-42,-126,-2049,12,20,1,-343,-655,312,499
,77,2023-10-27 11:55:14.74,-45,-134,-2056,17,28,6,-450,-780,330,615
,78,2023-10-27 11:55:14.75,-43,-136,-2057,25,8,5,-340,-654,314,497
,79,2023-10-27 11:55:14.76,-40,-134,-2051,31,5,6,-452,-780,328,616
,80,2023-10-27 11:55:14.77,-46,-134,-2054,35,1,9,-343,-652,309,497
,81,2023-10-27 11:55:14.78,-48,-135,-2052,36,1,13,-452,-783,331,617
,82,2023-10-27 11:55:14.79,-50,-133,-2050,36,-2,12,-340,-649,309,494
,83,2023-10-27 11:55:14.80,-48,-138,-2049,38,-7,14,-455,-781,326,618
,84,2023-10-27 11:55:14.81,-46,-138,-2049,39,2,20,-346,-651,305,498
,85,2023-10-27 11:55:14.82,-45,-138,-2044,37,-1,24,-466,-789,323,627
,86,2023-10-27 11:55:14.83,-48,-142,-2047,36,-2,27,-349,-656,307,502
,87,2023-10-27 11:55:14.84,-45,-138,-2049,33,-7,24,-463,-788,325,625
,88,2023-10-27 11:55:14.85,-58,-141,-2047,28,0,24,-349,-653,304,501
,89,2023-10-27 11:55:14.86,-49,-136,-2050,28,6,29,-466,-792,326,629
,90,2023-10-27 11:55:14.87,-46,-141,-2049,26,0,29,-351,-652,301,501
,91,2023-10-27 11:55:14.88,-59,-135,-2058,23,-3,27,-469,-793,324,631
,92,2023-10-27 11:55:14.89,-44,-137,-2045,23,2,29,-348,-655,307,501
,93,2023-10-27 11:55:14.90,-47,-138,-2049,22,-1,32,-469,-792,323,630
,94,2023-10-27 11:55:14.91,-55,-137,-2053,23,-8,26,-349,-652,303,500
,95,2023-10-27 11:55:14.92,-55,-133,-2050,21,0,29,-467,-789,322,628
,96,2023-10-27 11:55:14.93,-47,-133,-2060,20,2,28,-352,-649,297,500
,97,2023-10-27 11:55:14.94,-58,-134,-2048,12,19,24,-468,-793,325,630
,98,2023-10-27 11:55:14.95,-49,-130,-2048,10,23,20,-354,-652,298,503
,99,2023-10-27 11:55:14.96,-43,-143,-2036,9,24,20,-470,-794,324,632
,100,2023-10-27 11:55:14.97,-49,-139,-2044,17,5,20,-347,-648,301,497
,101,2023-10-27 11:55:14.98,-40,-136,-2042,26,-13,22,-466,-791,325,628
,102,2023-10-27 11:55:14.99,-46,-138,-2049,26,-12,22,-348,-649,301,498
,103,2023-10-27 11:55:15.00,-48,-137,-2050,16,2,24,-461,-788,327,624
,104,2023-10-27 11:55:15.01,-60,-139,-2049,7,18,26,-348,-648,300,498
,105,2023-10-27 11:55:15.02,-57,-145,-2045,11,7,32,-463,-792,329,627
,106,2023-10-27 11:55:15.03,-53,-138,-2050,15,-8,32,-347,-647,300,497
,107,2023-10-27 11:55:15.04,-55,-134,-2050,19,-11,37,-457,-790,333,623
,108,2023-10-27 11:55:15.05,-47,-131,-2056,16,-10,32,-339,-642,303,490
,109,2023-10-27 11:55:15.06,-56,-128,-2052,11,-3,34,-454,-787,333,620
,110,2023-10-27 11:55:15.07,-48,-131,-2050,8,6,36,-339,-645,306,492
,111,2023-10-27 11:55:15.08,-50,-139,-2038,11,2,33,-453,-785,332,619
,112,2023-10-27 11:55:15.09,-67,-136,-2035,17,-10,31,-344,-645,301,494
,113,2023-10-27 11:55:15.10,-57,-129,-2042,24,-7,36,-453,-784,331,618
,114,2023-10-27 11:55:15.11,-55,-133,-2042,24,-5,32,-342,-642,300,492
,115,2023-10-27 11:55:15.12,-64,-126,-2046,24,-10,24,-454,-780,326,617
,116,2023-10-27 11:55:15.13,-55,-127,-2041,18,6,26,-348,-646,298,497
,117,2023-10-27 11:55:15.14,-56,-136,-2051,18,9,26,-462,-787,325,624
,118,2023-10-27 11:55:15.15,-57,-132,-2047,13,11,20,-356,-655,299,505
,119,2023-10-27 11:55:15.16,-69,-131,-2049,9,5,17,-466,-791,325,628
,120,2023-10-27 11:55:15.17,-48,-141,-2046,14,2,20,-365,-658,293,511
,121,2023-10-27 11:55:15.18,-56,-132,-2050,14,2,21,-477,-799,322,638
,122,2023-10-27 11:55:15.19,-54,-138,-2048,15,9,16,-365,-660,295,512
,123,2023-10-27 11:55:15.20,-54,-141,-2048,16,13,18,-468,-794,326,631
,124,2023-10-27 11:55:15.21,-53,-139,-2047,22,12,20,-360,-658,298,509
,125,2023-10-27 11:55:15.22,-56,-140,-2041,22,15,15,-459,-785,326,622
,126,2023-10-27 11:55:15.23,-52,-150,-2055,25,19,17,-360,-657,297,508
,127,2023-10-27 11:55:15.24,-58,-143,-2050,27,17,19,-455,-787,332,621
,128,2023-10-27 11:55:15.25,-52,-152,-2051,24,10,17,-357,-656,299,506
,129,2023-10-27 11:55:15.26,-55,-148,-2045,27,3,21,-457,-784,327,620
,130,2023-10-27 11:55:15.27,-43,-147,-2047,27,8,20,-363,-660,297,511
,131,2023-10-27 11:55:15.28,-52,-148,-2051,25,5,22,-459,-783,324,621
,132,2023-10-27 11:55:15.29,-51,-149,-2059,18,4,19,-373,-667,294,520
,133,2023-10-27 11:55:15.30,-61,-143,-2057,15,5,22,-460,-789,329,624
,134,2023-10-27 11:55:15.31,-53,-140,-2049,12,3,21,-371,-667,296,519
,135,2023-10-27 11:55:15.32,-42,-146,-2056,9,10,20,-460,-786,326,623
,136,2023-10-27 11:55:15.33,-51,-151,-2060,6,10,20,-374,-673,299,523
,137,2023-10-27 11:55:15.34,-53,-144,-2059,4,2,18,-461,-785,324,623
,138,2023-10-27 11:55:15.35,-48,-147,-2058,6,4,23,-376,-673,297,524
,139,2023-10-27 11:55:15.36,-62,-151,-2047,9,3,25,-450,-780,330,615
,140,2023-10-27 11:55:15.37,-40,-148,-2049,9,0,23,-376,-672,296,524
,141,2023-10-27 11:55:15.38,-48,-148,-2046,11,1,23,-450,-779,329,614
,142,2023-10-27 11:55:15.39,-45,-147,-2049,11,-3,22,-374,-672,298,523
,143,2023-10-27 11:55:15.40,-49,-146,-2051,10,0,23,-449,-777,328,613
,144,2023-10-27 11:55:15.41,-50,-141,-2048,10,-4,21,-380,-682,302,531
,145,2023-10-27 11:55:15.42,-43,-145,-2052,7,3,22,-454,-779,325,616
,146,2023-10-27 11:55:15.43,-56,-143,-2046,-4,12,23,-386,-684,298,535
,147,2023-10-27 11:55:15.44,-54,-142,-2044,-7,15,22,-447,-776,329,611
,148,2023-10-27 11:55:15.45,-56,-141,-2038,-3,-2,20,-388,-687,299,537
,149,2023-10-27 11:55:15.46,-39,-138,-2039,0,-7,22,-445,-776,331,610
,150,2023-10-27 11:55:15.47,-48,-129,-2033,2,-1,20,-386,-688,302,537
,151,2023-10-27 11:55:15.48,-64,-129,-2039,-2,3,16,-444,-773,329,608
,152,2023-10-27 11:55:15.49,-59,-134,-2037,-2,4,10,-389,-692,303,540
,153,2023-10-27 11:55:15.50,-57,-143,-2044,1,9,11,-440,-770,330,605
,154,2023-10-27 11:55:15.51,-59,-135,-2046,4,7,9,-384,-691,307,537
,155,2023-10-27 11:55:15.52,-68,-143,-2049,8,12,10,-432,-761,329,596
,156,2023-10-27 11:55:15.53,-62,-141,-2048,12,17,14,-387,-688,301,537
,157,2023-10-27 11:55:15.54,-58,-147,-2055,13,15,12,-429,-759,330,594
,158,2023-10-27 11:55:15.55,-59,-146,-2050,13,17,15,-389,-692,303,540
,159,2023-10-27 11:55:15.56,-49,-144,-2048,10,14,15,-425,-757,332,591
,160,2023-10-27 11:55:15.57,-55,-146,-2047,8,23,17,-396,-697,301,546
,161,2023-10-27 11:55:15.58,-42,-144,-2053,5,18,19,-433,-758,325,595
,162,2023-10-27 11:55:15.59,-54,-144,-2054,6,19,22,-402,-708,306,555
,163,2023-10-27 11:55:15.60,-54,-138,-2057,1,12,20,-426,-754,328,590
,164,2023-10-27 11:55:15.61,-52,-141,-2054,0,5,23,-400,-705,305,552
,165,2023-10-27 11:55:15.62,-45,-140,-2053,-2,2,22,-422,-753,331,587
,166,2023-10-27 11:55:15.63,-50,-145,-2054,0,1,21,-405,-708,303,556
,167,2023-10-27 11:55:15.64,-48,-135,-2055,-1,-6,18,-426,-751,325,588
,168,2023-10-27 11:55:15.65,-61,-138,-2052,-1,-12,18,-406,-709,303,557
,169,2023-10-27 11:55:15.66,-54,-136,-2046,-2,-10,13,-422,-747,325,584
,170,2023-10-27 11:55:15.67,-49,-137,-2043,0,-1,14,-404,-709,305,556
,171,2023-10-27 11:55:15.68,-58,-133,-2040,-2,6,15,-412,-738,326,575
,172,2023-10-27 11:55:15.69,-65,-136,-2042,3,13,13,-404,-711,307,557
,173,2023-10-27 11:55:15.70,-49,-136,-2044,-1,15,9,-408,-733,325,570
,174,2023-10-27 11:55:15.71,-50,-142,-2041,0,20,10,-406,-713,307,559
,175,2023-10-27 11:55:15.72,-48,-132,-2042,0,25,6,-406,-735,329,570
,176,2023-10-27 11:55:15.73,-45,-139,-2051,5,28,10,-414,-719,305,566
,177,2023-10-27 11:55:15.74,-54,-148,-2052,9,27,10,-408,-733,325,570
,178,2023-10-27 11:55:15.75,-50,-146,-2051,12,21,10,-411,-719,308,565
,179,2023-10-27 11:55:15.76,-39,-149,-2047,14,15,6,-403,-729,326,566
,180,2023-10-27 11:55:15.77,-45,-140,-2045,16,20,9,-414,-724,310,569
,181,2023-10-27 11:55:15.78,-46,-142,-2055,12,27,14,-397,-720,323,558
,182,2023-10-27 11:55:15.79,-50,-150,-2060,14,16,14,-415,-724,309,569
,183,2023-10-27 11:55:15.80,-57,-144,-2055,14,11,15,-394,-720,326,557
,184,2023-10-27 11:55:15.81,-43,-143,-2060,16,7,14,-417,-728,311,572
,185,2023-10-27 11:55:15.82,-46,-141,-2054,13,10,16,-393,-719,326,556
,186,2023-10-27 11:55:15.83,-42,-142,-2053,12,8,17,-418,-731,313,574
,187,2023-10-27 11:55:15.84,-40,-137,-2059,6,4,15,-395,-717,322,556
,188,2023-10-27 11:55:15.85,-50,-132,-2051,4,4,13,-422,-737,315,579
,189,2023-10-27 11:55:15.86,-44,-141,-2045,4,4,14,-387,-711,324,549
,190,2023-10-27 11:55:15.87,-48,-141,-2044,7,2,14,-420,-736,316,578
,191,2023-10-27 11:55:15.88,-46,-134,-2042,6,-5,12,-381,-709,328,545
,192,2023-10-27 11:55:15.89,-40,-133,-2044,4,-3,11,-421,-739,318,580
,193,2023-10-27 11:55:15.90,-38,-137,-2039,1,-1,7,-380,-706,326,543
,194,2023-10-27 11:55:15.91,-42,-134,-2040,-3,6,6,-421,-738,317,579
,195,2023-10-27 11:55:15.92,-52,-138,-2047,-4,9,6,-378,-701,323,539
,196,2023-10-27 11:55:15.93,-45,-143,-2044,-8,12,6,-427,-743,316,585
,197,2023-10-27 11:55:15.94,-47,-144,-2059,-8,4,7,-380,-696,316,538
,198,2023-10-27 11:55:15.95,-48,-142,-2050,-9,11,8,-431,-747,316,589
,199,2023-10-27 11:55:15.96,-35,-142,-2056,-7,13,11,-372,-695,323,533
,200,2023-10-27 11:55:15.97,-53,-136,-2050,-2,10,11,-426,-745,319,585
,201,2023-10-27 11:55:15.98,-35,-135,-2056,3,13,10,-369,-694,325,531
,202,2023-10-27 11:55:15.99,-47,-130,-2053,6,11,7,-433,-750,317,591
,203,2023-10-27 11:55:16.00,-52,-141,-2054,11,2,7,-372,-689,317,530
,204,2023-10-27 11:55:16.01,-49,-140,-2051,15,5,7,-433,-751,318,592
,205,2023-10-27 11:55:16.02,-56,-139,-2048,19,2,8,-367,-682,315,524
,206,2023-10-27 11:55:16.03,-50,-148,-2051,18,1,8,-437,-753,316,595
,207,2023-10-27 11:55:16.04,-40,-162,-2053,19,10,14,-368,-684,316,526
,208,2023-10-27 11:55:16.05,-46,-151,-2048,17,6,15,-442,-757,315,599
,209,2023-10-27 11:55:16.06,-46,-141,-2046,14,5,17,-371,-685,314,528
,210,2023-10-27 11:55:16.07,-38,-146,-2045,11,12,20,-442,-758,316,600
,211,2023-10-27 11:55:16.08,-52,-138,-2051,4,12,20,-366,-680,314,523
,212,2023-10-27 11:55:16.09,-52,-136,-2052,-4,9,17,-442,-763,321,602
,213,2023-10-27 11:55:16.10,-42,-141,-2052,-5,4,16,-360,-674,314,517
,214,2023-10-27 11:55:16.11,-44,-143,-2054,-5,-3,19,-443,-760,317,601
,215,2023-10-27 11:55:16.12,-51,-143,-2063,-5,-8,19,-355,-672,317,513
,216,2023-10-27 11:55:16.13,-39,-139,-2059,-5,-11,17,-439,-759,320,599
,217,2023-10-27 11:55:16.14,-45,-133,-2059,-5,-13,16,-351,-666,315,508
,218,2023-10-27 11:55:16.15,-55,-135,-2055,-6,-15,17,-435,-760,325,597
,219,2023-10-27 11:55:16.16,-48,-130,-2052,-5,-10,16,-347,-662,315,504
,220,2023-10-27 11:55:16.17,-50,-128,-2050,-8,-16,16,-436,-762,326,599
,221,2023-10-27 11:55:16.18,-41,-131,-2053,-6,-11,12,-343,-656,313,499
,222,2023-10-27 11:55:16.19,-56,-130,-2049,-6,-2,15,-441,-762,321,601
,223,2023-10-27 11:55:16.20,-54,-132,-2038,-2,-4,15,-347,-657,310,502
,224,2023-10-27 11:55:16.21,-48,-135,-2045,-2,6,15,-449,-767,318,608
,225,2023-10-27 11:55:16.22,-57,-134,-2044,2,4,15,-351,-663,312,507
,226,2023-10-27 11:55:16.23,-46,-136,-2042,4,7,15,-454,-772,318,613
,227,2023-10-27 11:55:16.24,-36,-138,-2043,7,11,15,-354,-662,308,508
,228,2023-10-27 11:55:16.25,-49,-138,-2041,7,14,14,-454,-774,320,614
,229,2023-10-27 11:55:16.26,-50,-134,-2046,10,17,14,-352,-661,309,506
,230,2023-10-27 11:55:16.27,-54,-132,-2047,9,14,13,-460,-779,319,619
,231,2023-10-27 11:55:16.28,-48,-130,-2049,8,16,8,-355,-660,305,507
,232,2023-10-27 11:55:16.29,-44,-132,-2050,4,14,5,-464,-782,318,623
,233,2023-10-27 11:55:16.30,-39,-127,-2047,1,13,4,-350,-660,310,505
,234,2023-10-27 11:55:16.31,-36,-133,-2050,1,12,-3,-459,-779,320,619
,235,2023-10-27 11:55:16.32,-42,-137,-2055,2,11,-1,-346,-655,309,500
,236,2023-10-27 11:55:16.33,-48,-138,-2049,8,9,1,-457,-780,323,618
,237,2023-10-27 11:55:16.34,-37,-150,-2049,8,5,2,-349,-655,306,502
,238,2023-10-27 11:55:16.35,-39,-138,-2049,10,4,6,-462,-784,322,623
,239,2023-10-27 11:55:16.36,-41,-144,-2052,7,2,11,-345,-651,306,498
,240,2023-10-27 11:55:16.37,-44,-137,-2061,5,-2,13,-458,-781,323,619
,241,2023-10-27 11:55:16.38,-47,-148,-2049,2,-7,17,-337,-645,308,491
,242,2023-10-27 11:55:16.39,-42,-132,-2053,0,-12,21,-458,-783,325,620
,243,2023-10-27 11:55:16.40,-47,-140,-2049,-3,-14,22,-349,-653,304,501
,244,2023-10-27 11:55:16.41,-51,-135,-2051,-6,-17,24,-466,-788,322,627
,245,2023-10-27 11:55:16.42,-53,-139,-2060,-9,-9,25,-352,-654,302,503
,246,2023-10-27 11:55:16.43,-50,-135,-2051,-12,-8,26,-468,-792,324,630
,247,2023-10-27 11:55:16.44,-52,-127,-2047,-10,-5,22,-349,-652,303,500
,248,2023-10-27 11:55:16.45,-47,-126,-2049,-10,0,18,-464,-793,329,628
,249,2023-10-27 11:55:16.46,-44,-124,-2047,-10,5,13,-344,-653,309,498
,250,2023-10-27 11:55:16.47,-48,-127,-2047,-8,2,7,-465,-791,326,628
,251,2023-10-27 11:55:16.48,-44,-120,-2050,-4,-1,5,-347,-653,306,500
,252,2023-10-27 11:55:16.49,-54,-126,-2048,0,0,5,-466,-792,326,629
,253,2023-10-27 11:55:16.50,-42,-128,-2053,0,-7,2,-350,-653,303,501
,254,2023-10-27 11:55:16.51,-49,-126,-2050,4,1,4,-463,-789,326,626
,255,2023-10-27 11:55:16.52,-51,-132,-2048,6,-1,5,-344,-646,302,495
,256,2023-10-27 11:55:16.53,-41,-129,-2042,4,0,8,-458,-790,332,624
,257,2023-10-27 11:55:16.54,-60,-139,-2041,7,3,12,-343,-646,303,494
,258,2023-10-27 11:55:16.55,-57,-134,-2039,8,1,14,-464,-791,327,627
,259,2023-10-27 11:55:16.56,-48,-136,-2042,9,9,20,-347,-648,301,497
,260,2023-10-27 11:55:16.57,-42,-138,-2050,5,6,19,-468,-794,326,631
,261,2023-10-27 11:55:16.58,-42,-130,-2048,6,10,22,-351,-652,301,501
,262,2023-10-27 11:55:16.59,-41,-129,-2049,4,14,21,-464,-790,326,627
,263,2023-10-27 11:55:16.60,-49,-126,-2055,-1,13,21,-351,-650,299,500
,264,2023-10-27 11:55:16.61,-49,-130,-2057,-1,5,18,-465,-794,329,629
,265,2023-10-27 11:55:16.62,-46,-131,-2059,3,-1,18,-352,-649,297,500
,266,2023-10-27 11:55:16.63,-47,-141,-2063,8,0,20,-466,-793,327,629
,267,2023-10-27 11:55:16.64,-50,-136,-2061,9,-7,18,-350,-650,300,500
,268,2023-10-27 11:55:16.65,-50,-138,-2055,13,-2,18,-466,-793,327,629
,269,2023-10-27 11:55:16.66,-46,-136,-2061,11,-3,17,-348,-651,303,499
,270,2023-10-27 11:55:16.67,-47,-132,-2062,8,-2,18,-460,-790,330,625
,271,2023-10-27 11:55:16.68,-51,-125,-2055,6,0,20,-350,-649,299,499
,272,2023-10-27 11:55:16.69,-48,-122,-2047,8,-1,19,-456,-786,330,621
,273,2023-10-27 11:55:16.70,-49,-130,-2044,11,-1,21,-346,-646,300,496
,274,2023-10-27 11:55:16.71,-65,-129,-2046,9,-4,15,-452,-786,334,619
,275,2023-10-27 11:55:16.72,-54,-119,-2045,8,-2,14,-346,-645,299,495
,276,2023-10-27 11:55:16.73,-42,-124,-2038,6,1,13,-452,-783,331,617
,277,2023-10-27 11:55:16.74,-63,-119,-2049,6,13,15,-342,-645,303,493
,278,2023-10-27 11:55:16.75,-60,-121,-2046,6,8,10,-451,-782,331,616
,279,2023-10-27 11:55:16.76,-54,-135,-2043,4,13,14,-352,-652,300,502
,280,2023-10-27 11:55:16.77,-53,-136,-2050,7,8,11,-450,-782,332,616
,281,2023-10-27 11:55:16.78,-46,-136,-2047,11,5,15,-348,-650,302,499
,282,2023-10-27 11:55:16.79,-54,-129,-2055,12,9,12,-442,-777,335,609
,283,2023-10-27 11:55:16.80,-53,-124,-2051,13,18,19,-350,-650,300,500
,284,2023-10-27 11:55:16.81,-53,-125,-2053,10,16,14,-451,-784,333,617
,285,2023-10-27 11:55:16.82,-60,-125,-2053,8,15,14,-356,-655,299,505
,286,2023-10-27 11:55:16.83,-41,-126,-2053,7,18,10,-449,-781,332,615
,287,2023-10-27 11:55:16.84,-50,-122,-2054,6,24,13,-349,-655,306,502
,288,2023-10-27 11:55:16.85,-46,-131,-2056,4,17,8,-441,-777,336,609
,289,2023-10-27 11:55:16.86,-48,-135,-2056,6,19,11,-353,-659,306,506
,290,2023-10-27 11:55:16.87,-42,-140,-2056,10,14,10,-443,-778,335,610
,291,2023-10-27 11:55:16.88,-40,-139,-2051,13,9,11,-356,-661,305,508
,292,2023-10-27 11:55:16.89,-41,-139,-2046,15,0,11,-441,-778,337,609
,293,2023-10-27 11:55:16.90,-48,-142,-2041,15,-1,10,-357,-660,303,508
,294,2023-10-27 11:55:16.91,-37,-132,-2052,13,7,12,-440,-777,337,608
,295,2023-10-27 11:55:16.92,-33,-128,-2053,5,16,17,-355,-660,305,507
,296,2023-10-27 11:55:16.93,-38,-128,-2053,-1,8,16,-435,-769,334,602
,297,2023-10-27 11:55:16.94,-50,-132,-2049,-7,12,20,-354,-659,305,506
,298,2023-10-27 11:55:16.95,-37,-134,-2056,-8,7,19,-432,-768,336,600
,299,2023-10-27 11:55:16.96,-39,-135,-2065,-11,0,15,-358,-664,306,511
,300,2023-10-27 11:55:16.97,-43,-134,-2060,-7,5,24,-430,-766,336,598
,301,2023-10-27 11:55:16.98,-50,-133,-2056,-2,-4,22,-367,-668,301,517
,302,2023-10-27 11:55:16.99,-40,-132,-2050,3,-10,23,-440,-769,329,604
,303,2023-10-27 11:55:17.00,-37,-117,-2057,2,-10,20,-376,-673,297,524
,304,2023-10-27 11:55:17.01,-47,-127,-2051,3,-4,16,-442,-771,329,606
,305,2023-10-27 11:55:17.02,-49,-114,-2050,0,-1,14,-375,-674,299,524
,306,2023-10-27 11:55:17.03,-52,-118,-2050,-4,0,6,-443,-768,325,605
,307,2023-10-27 11:55:17.04,-50,-121,-2053,-4,3,8,-384,-683,299,533
,308,2023-10-27 11:55:17.05,-48,-126,-2053,-3,3,8,-444,-769,325,606
,309,2023-10-27 11:55:17.06,-47,-135,-2048,-1,1,11,-391,-689,298,540
,310,2023-10-27 11:55:17.07,-49,-131,-2048,2,10,15,-439,-765,326,602
,311,2023-10-27 11:55:17.08,-51,-132,-2044,5,12,13,-387,-684,297,535
,312,2023-10-27 11:55:17.09,-41,-125,-2051,8,12,16,-439,-762,323,600
,313,2023-10-27 11:55:17.10,-55,-124,-2053,9,11,12,-393,-689,296,541
,314,2023-10-27 11:55:17.11,-55,-119,-2056,10,12,11,-437,-760,323,598
,315,2023-10-27 11:55:17.12,-35,-123,-2052,11,5,9,-388,-691,303,539
,316,2023-10-27 11:55:17.13,-42,-115,-2055,11,3,11,-428,-753,325,590
,317,2023-10-27 11:55:17.14,-59,-115,-2051,10,0,7,-393,-693,300,543
,318,2023-10-27 11:55:17.15,-42,-123,-2057,9,-2,3,-428,-755,327,591
,319,2023-10-27 11:55:17.16,-41,-127,-2051,9,-2,6,-394,-694,300,544
,320,2023-10-27 11:55:17.17,-46,-135,-2051,9,-6,11,-426,-752,326,589
,321,2023-10-27 11:55:17.18,-59,-135,-2051,11,-9,12,-392,-694,302,543
,322,2023-10-27 11:55:17.19,-54,-137,-2054,11,-6,16,-422,-746,324,584
,323,2023-10-27 11:55:17.20,-57,-138,-2051,14,-4,20,-393,-699,306,546
,324,2023-10-27 11:55:17.21,-53,-136,-2056,19,-1,27,-418,-741,323,579
,325,2023-10-27 11:55:17.22,-47,-130,-2057,23,-5,30,-408,-706,298,557
,326,2023-10-27 11:55:17.23,-46,-123,-2043,21,-1,29,-433,-750,317,591
,327,2023-10-27 11:55:17.24,-53,-126,-2047,20,11,28,-423,-714,291,568
,328,2023-10-27 11:55:17.25,-53,-128,-2057,20,10,29,-434,-747,313,590
,329,2023-10-27 11:55:17.26,-41,-122,-2064,21,1,26,-416,-712,296,564
,330,2023-10-27 11:55:17.27,-42,-123,-2071,20,-4,26,-421,-738,317,579
,331,2023-10-27 11:55:17.28,-41,-118,-2068,17,-11,21,-413,-716,303,564
,332,2023-10-27 11:55:17.29,-41,-116,-2074,18,-18,17,-418,-735,317,576
,333,2023-10-27 11:55:17.30,-48,-123,-2088,21,-22,16,-416,-717,301,566
,334,2023-10-27 11:55:17.31,-48,-125,-2080,25,-35,13,-409,-730,321,569
,335,2023-10-27 11:55:17.32,-35,-126,-2051,30,-37,11,-414,-719,305,566
,336,2023-10-27 11:55:17.33,-38,-140,-2038,39,-19,6,-403,-726,323,564
,337,2023-10-27 11:55:17.34,-58,-146,-2048,44,1,0,-413,-717,304,565
,338,2023-10-27 11:55:17.35,-46,-148,-2058,54,8,2,-408,-723,315,565
,339,2023-10-27 11:55:17.36,-47,-145,-2038,64,7,6,-420,-724,304,572
,340,2023-10-27 11:55:17.37,-39,-148,-2041,66,13,3,-397,-717,320,557
,341,2023-10-27 11:55:17.38,-34,-143,-2044,62,8,-6,-408,-721,313,564
,342,2023-10-27 11:55:17.39,-50,-139,-2053,55,6,-3,-385,-709,324,547
,343,2023-10-27 11:55:17.40,-45,-139,-2043,47,-6,-10,-420,-723,303,571
,344,2023-10-27 11:55:17.41,-41,-142,-2042,42,-16,-16,-402,-713,311,557
,345,2023-10-27 11:55:17.42,-52,-144,-2050,39,-28,-16,-436,-735,299,585
,346,2023-10-27 11:55:17.43,-42,-157,-2044,34,-32,-22,-399,-714,315,556
,347,2023-10-27 11:55:17.44,-51,-153,-2045,29,-21,-24,-422,-730,308,576
,348,2023-10-27 11:55:17.45,-56,-146,-2041,15,1,-30,-384,-705,321,544
,349,2023-10-27 11:55:17.46,-64,-159,-2034,9,15,-29,-431,-737,306,584
,350,2023-10-27 11:55:17.47,-65,-149,-2040,11,-1,-32,-398,-708,310,553
,351,2023-10-27 11:55:17.48,-60,-142,-2036,14,-16,-31,-435,-740,305,587
,352,2023-10-27 11:55:17.49,-59,-134,-2057,5,-18,-32,-383,-700,317,541
,353,2023-10-27 11:55:17.50,-59,-141,-2060,-8,-8,-32,-435,-743,308,589
,354,2023-10-27 11:55:17.51,-69,-128,-2057,-22,0,-30,-389,-701,312,545
,355,2023-10-27 11:55:17.52,-68,-130,-2052,-31,-1,-30,-439,-746,307,592
,356,2023-10-27 11:55:17.53,-75,-143,-2037,-29,-5,-28,-381,-700,319,540
,357,2023-10-27 11:55:17.54,-67,-135,-2041,-24,-12,-22,-447,-752,305,599
,358,2023-10-27 11:55:17.55,-64,-138,-2026,-19,0,-18,-387,-696,309,541
,359,2023-10-27 11:55:17.56,-58,-146,-2030,-16,8,-12,-438,-746,308,592
,360,2023-10-27 11:55:17.57,-66,-155,-2030,-8,12,-5,-374,-688,314,531
,361,2023-10-27 11:55:17.58,-63,-141,-2042,1,15,0,-443,-748,305,595
,362,2023-10-27 11:55:17.59,-61,-123,-2050,9,16,6,-375,-683,308,529
,363,2023-10-27 11:55:17.60,-64,-123,-2052,10,19,8,-445,-753,308,599
,364,2023-10-27 11:55:17.61,-82,-110,-2049,14,23,1,-372,-685,313,528
,365,2023-10-27 11:55:17.62,-56,-115,-2043,27,20,-5,-446,-757,311,601
,366,2023-10-27 11:55:17.63,-57,-126,-2041,37,30,-12,-368,-685,317,526
,367,2023-10-27 11:55:17.64,-50,-118,-2022,48,40,-24,-455,-764,309,609
,368,2023-10-27 11:55:17.65,-46,-116,-2020,56,52,-40,-373,-681,308,527
,369,2023-10-27 11:55:17.66,-35,-104,-2017,55,67,-57,-449,-757,308,603
,370,2023-10-27 11:55:17.67,-19,-126,-2025,43,92,-72,-373,-677,304,525
,371,2023-10-27 11:55:17.68,-40,-146,-2045,25,98,-85,-455,-767,312,611
,372,2023-10-27 11:55:17.69,-32,-162,-2054,14,102,-89,-370,-678,308,524
,373,2023-10-27 11:55:17.70,-20,-180,-2055,4,101,-85,-455,-767,312,611
,374,2023-10-27 11:55:17.71,-32,-188,-2055,-10,98,-78,-368,-672,304,520
,375,2023-10-27 11:55:17.72,-26,-192,-2041,-25,95,-69,-460,-767,307,613
,376,2023-10-27 11:55:17.73,-21,-182,-2024,-35,84,-60,-368,-673,305,520
,377,2023-10-27 11:55:17.74,-24,-158,-1995,-48,81,-56,-461,-768,307,614
,378,2023-10-27 11:55:17.75,-29,-131,-2009,-60,66,-58,-365,-668,303,516
,379,2023-10-27 11:55:17.76,-44,-121,-2046,-77,52,-60,-455,-767,312,611
,380,2023-10-27 11:55:17.77,-38,-131,-2087,-88,35,-61,-360,-666,306,513
,381,2023-10-27 11:55:17.78,-30,-117,-2070,-104,20,-70,-457,-774,317,615
,382,2023-10-27 11:55:17.79,-22,-103,-2036,-113,13,-81,-361,-665,304,513
,383,2023-10-27 11:55:17.80,11,-87,-1968,-113,21,-97,-466,-778,312,622
,384,2023-10-27 11:55:17.81,-4,-79,-1984,-109,39,-121,-362,-666,304,514
,385,2023-10-27 11:55:17.82,-16,-149,-2079,-102,50,-141,-471,-779,308,625
,386,2023-10-27 11:55:17.83,-38,-204,-2125,-79,41,-140,-363,-664,301,513
,387,2023-10-27 11:55:17.84,-24,-204,-2094,-52,20,-136,-458,-771,313,614
,388,2023-10-27 11:55:17.85,-41,-219,-2081,-35,9,-131,-344,-646,302,495
,389,2023-10-27 11:55:17.86,-59,-217,-2091,-31,15,-119,-426,-755,329,590
,390,2023-10-27 11:55:17.87,-51,-220,-2074,-16,-5,-106,-306,-625,319,465
,391,2023-10-27 11:55:17.88,-64,-206,-2071,2,-23,-96,-412,-753,341,582
,392,2023-10-27 11:55:17.89,-56,-151,-2040,1,-36,-100,-316,-641,325,478
,393,2023-10-27 11:55:17.90,-79,-138,-2060,-3,-24,-112,-467,-789,322,628
,394,2023-10-27 11:55:17.91,-75,-130,-2050,-16,-7,-122,-378,-683,305,530
,395,2023-10-27 11:55:17.92,-97,-86,-2021,-38,12,-142,-523,-823,300,673
,396,2023-10-27 11:55:17.93,-102,-80,-2048,-52,8,-174,-416,-701,285,558
,397,2023-10-27 11:55:17.94,-112,-88,-2088,-55,6,-195,-541,-836,295,688
,398,2023-10-27 11:55:17.95,-111,-78,-2097,-61,6,-214,-424,-707,283,565
,399,2023-10-27 11:55:17.96,-136,-80,-2076,-79,29,-231,-542,-838,296,690
,400,2023-10-27 11:55:17.97,-153,-109,-2074,-93,32,-246,-418,-703,285,560
,401,2023-10-27 11:55:17.98,-150,-140,-2050,-95,38,-251,-542,-841,299,691
,402,2023-10-27 11:55:17.99,-182,-186,-2018,-83,34,-245,-420,-711,291,565
,403,2023-10-27 11:55:18.00,-173,-199,-2005,-71,33,-217,-543,-848,305,695
,404,2023-10-27 11:55:18.01,-192,-230,-2038,-52,21,-172,-402,-703,301,552
,405,2023-10-27 11:55:18.02,-196,-246,-2081,-34,4,-108,-483,-815,332,649
,406,2023-10-27 11:55:18.03,-208,-240,-2087,-17,-11,-38,-344,-662,318,503
,407,2023-10-27 11:55:18.04,-183,-231,-2081,12,-53,96,-458,-798,340,628
,408,2023-10-27 11:55:18.05,-171,-205,-2081,37,-59,150,-349,-669,320,509
,409,2023-10-27 11:55:18.06,-91,-106,-2036,51,-52,173,-466,-817,351,641
,410,2023-10-27 11:55:18.07,116,82,-1824,23,8,139,-328,-667,339,497
,411,2023-10-27 11:55:18.08,337,320,-1641,9,118,23,-410,-790,380,600
,412,2023-10-27 11:55:18.09,466,558,-1561,-16,262,-147,-272,-631,359,451
,413,2023-10-27 11:55:18.10,471,598,-1823,-76,442,-334,-372,-759,387,565
,414,2023-10-27 11:55:18.11,386,388,-2277,-148,542,-455,-248,-600,352,424
,415,2023-10-27 11:55:18.12,254,42,-2638,-178,458,-476,-324,-712,388,518
,416,2023-10-27 11:55:18.13,150,-266,-2781,-157,244,-381,-211,-559,348,385
,417,2023-10-27 11:55:18.14,101,-374,-2655,-99,7,-235,-316,-696,380,506
,418,2023-10-27 11:55:18.15,61,-326,-2413,-42,-152,-75,-231,-564,333,397
,419,2023-10-27 11:55:18.16,23,-284,-2167,6,-249,57,-368,-722,354,545
,420,2023-10-27 11:55:18.17,-10,-268,-1961,102,-314,169,-284,-596,312,440
,421,2023-10-27 11:55:18.18,-62,-280,-1818,230,-312,260,-429,-760,331,594
,422,2023-10-27 11:55:18.19,-93,-206,-1784,321,-230,319,-340,-635,295,487
,423,2023-10-27 11:55:18.20,-134,-87,-1792,324,-102,331,-484,-794,310,639
,424,2023-10-27 11:55:18.21,-157,35,-1841,259,18,312,-384,-661,277,522
,425,2023-10-27 11:55:18.22,-144,74,-1877,200,83,292,-516,-809,293,662
,426,2023-10-27 11:55:18.23,-63,100,-1850,156,111,250,-406,-668,262,537
,427,2023-10-27 11:55:18.24,22,99,-1829,131,137,183,-520,-811,291,665
,428,2023-10-27 11:55:18.25,76,88,-1906,117,180,96,-402,-672,270,537
,429,2023-10-27 11:55:18.26,100,80,-1970,99,197,25,-523,-822,299,672
,430,2023-10-27 11:55:18.27,95,72,-2016,38,263,-29,-399,-680,281,539
,431,2023-10-27 11:55:18.28,82,-41,-2053,-8,307,-63,-485,-802,317,643
,432,2023-10-27 11:55:18.29,58,-107,-2105,-16,258,-67,-348,-647,299,497
,433,2023-10-27 11:55:18.30,31,-142,-2105,16,152,-49,-443,-776,333,609
,434,2023-10-27 11:55:18.31,17,-192,-2116,85,38,-19,-335,-639,304,487
,435,2023-10-27 11:55:18.32,27,-245,-2123,177,-90,-1,-434,-777,343,605
,436,2023-10-27 11:55:18.33,50,-257,-2080,275,-147,4,-324,-638,314,481
,437,2023-10-27 11:55:18.34,65,-198,-2013,328,-104,-19,-417,-767,350,592
,438,2023-10-27 11:55:18.35,78,-145,-1998,318,-9,-61,-307,-621,314,464
,439,2023-10-27 11:55:18.36,84,-155,-2034,272,102,-106,-402,-749,347,575
,440,2023-10-27 11:55:18.37,73,-203,-2116,231,186,-141,-302,-617,315,459
,441,2023-10-27 11:55:18.38,97,-241,-2165,207,197,-165,-413,-753,340,583
,442,2023-10-27 11:55:18.39,82,-263,-2170,201,167,-175,-321,-626,305,473
,443,2023-10-27 11:55:18.40,106,-282,-2192,200,130,-181,-417,-754,337,585
,444,2023-10-27 11:55:18.41,122,-279,-2208,184,128,-181,-310,-620,310,465
,445,2023-10-27 11:55:18.42,129,-256,-2154,143,156,-181,-397,-744,347,570
,446,2023-10-27 11:55:18.43,112,-242,-2174,106,172,-184,-306,-618,312,462
,447,2023-10-27 11:55:18.44,71,-222,-2274,65,177,-181,-401,-747,346,574
,448,2023-10-27 11:55:18.45,46,-163,-2231,13,163,-165,-312,-624,312,468
,449,2023-10-27 11:55:18.46,42,-178,-2118,-19,120,-153,-404,-748,344,576
,450,2023-10-27 11:55:18.47,27,-179,-2054,-28,89,-146,-315,-628,313,471
,451,2023-10-27 11:55:18.48,40,-163,-1998,-8,41,-144,-400,-740,340,570
,452,2023-10-27 11:55:18.49,32,-158,-1977,20,17,-143,-325,-630,305,477
,453,2023-10-27 11:55:18.50,49,-144,-1985,41,-2,-146,-410,-749,339,579
,454,2023-10-27 11:55:18.51,48,-124,-2011,29,11,-146,-338,-640,302,489
,455,2023-10-27 11:55:18.52,68,-163,-2013,15,23,-148,-424,-754,330,589
,456,2023-10-27 11:55:18.53,72,-195,-2019,18,36,-139,-354,-647,293,500
,457,2023-10-27 11:55:18.54,73,-225,-1999,38,29,-136,-441,-758,317,599
,458,2023-10-27 11:55:18.55,71,-250,-1980,60,24,-124,-369,-659,290,514
,459,2023-10-27 11:55:18.56,83,-288,-1947,89,35,-99,-452,-766,314,609
,460,2023-10-27 11:55:18.57,55,-324,-1945,126,56,-74,-382,-670,288,526
,461,2023-10-27 11:55:18.58,49,-329,-1963,163,53,-46,-458,-772,314,615
,462,2023-10-27 11:55:18.59,53,-312,-1991,189,31,-21,-392,-676,284,534
,463,2023-10-27 11:55:18.60,67,-281,-1993,196,11,4,-451,-769,318,610
,464,2023-10-27 11:55:18.61,85,-254,-1994,181,18,17,-387,-675,288,531
,465,2023-10-27 11:55:18.62,86,-215,-2003,130,80,16,-451,-765,314,608
,466,2023-10-27 11:55:18.63,96,-205,-2018,65,126,2,-390,-676,286,533
,467,2023-10-27 11:55:18.64,104,-190,-2040,15,134,-12,-448,-761,313,604
,468,2023-10-27 11:55:18.65,80,-184,-2079,-13,117,-22,-391,-680,289,535
,469,2023-10-27 11:55:18.66,78,-202,-2102,-43,87,-24,-451,-763,312,607
,470,2023-10-27 11:55:18.67,90,-202,-2089,-59,40,-22,-400,-689,289,544
,471,2023-10-27 11:55:18.68,92,-197,-2067,-65,3,-16,-452,-764,312,608
,472,2023-10-27 11:55:18.69,88,-194,-2075,-49,-37,-7,-410,-697,287,553
,473,2023-10-27 11:55:18.70,61,-190,-2067,-33,-76,6,-451,-766,315,608
,474,2023-10-27 11:55:18.71,77,-178,-2050,-6,-112,9,-414,-700,286,557
,475,2023-10-27 11:55:18.72,56,-161,-2058,27,-143,8,-456,-769,313,612
,476,2023-10-27 11:55:18.73,62,-146,-2074,61,-163,1,-418,-709,291,563
,477,2023-10-27 11:55:18.74,69,-145,-2059,81,-167,-19,-454,-772,318,613
,478,2023-10-27 11:55:18.75,53,-139,-2042,94,-130,-33,-415,-716,301,565
,479,2023-10-27 11:55:18.76,55,-150,-2049,94,-83,-54,-446,-766,320,606
,480,2023-10-27 11:55:18.77,58,-176,-2070,78,-23,-76,-420,-714,294,567
,481,2023-10-27 11:55:18.78,33,-216,-2076,57,34,-85,-448,-761,313,604
,482,2023-10-27 11:55:18.79,49,-243,-2104,50,67,-87,-424,-714,290,569
,483,2023-10-27 11:55:18.80,35,-268,-2117,49,74,-74,-432,-751,319,591
,484,2023-10-27 11:55:18.81,25,-284,-2116,51,52,-51,-412,-707,295,559
,485,2023-10-27 11:55:18.82,58,-304,-2086,64,34,-19,-410,-735,325,572
,486,2023-10-27 11:55:18.83,74,-283,-2026,75,23,5,-400,-699,299,549
,487,2023-10-27 11:55:18.84,60,-244,-1974,69,40,17,-412,-730,318,571
,488,2023-10-27 11:55:18.85,78,-219,-1951,59,55,22,-396,-699,303,547
,489,2023-10-27 11:55:18.86,104,-211,-1921,56,65,18,-396,-721,325,558
,490,2023-10-27 11:55:18.87,130,-196,-1929,58,63,3,-392,-702,310,547
,491,2023-10-27 11:55:18.88,147,-165,-1959,50,63,-19,-393,-716,323,554
,492,2023-10-27 11:55:18.89,155,-159,-2005,32,87,-44,-388,-698,310,543
,493,2023-10-27 11:55:18.90,155,-169,-2069,-1,105,-68,-376,-706,330,541
,494,2023-10-27 11:55:18.91,147,-204,-2115,-22,108,-78,-382,-693,311,537
,495,2023-10-27 11:55:18.92,145,-219,-2133,-23,86,-80,-378,-702,324,540
,496,2023-10-27 11:55:18.93,153,-214,-2124,-15,53,-85,-394,-701,307,547
,497,2023-10-27 11:55:18.94,162,-221,-2131,-10,19,-93,-387,-711,324,549
,498,2023-10-27 11:55:18.95,143,-228,-2097,3,0,-97,-396,-708,312,552
,499,2023-10-27 11:55:18.96,137,-222,-2067,28,-18,-98,-377,-702,325,539
,500,2023-10-27 11:55:18.97,133,-216,-2047,47,-35,-103,-394,-705,311,549
,501,2023-10-27 11:55:18.98,107,-212,-2037,56,-48,-107,-376,-695,319,535
,502,2023-10-27 11:55:18.99,95,-210,-2045,53,-61,-111,-408,-711,303,559
,503,2023-10-27 11:55:19.00,55,-240,-2035,44,-70,-112,-393,-706,313,549
,504,2023-10-27 11:55:19.01,42,-274,-2046,41,-103,-104,-435,-726,291,580
,505,2023-10-27 11:55:19.02,29,-291,-2051,52,-159,-89,-410,-711,301,560
,506,2023-10-27 11:55:19.03,21,-284,-2072,57,-190,-63,-435,-730,295,582
,507,2023-10-27 11:55:19.04,0,-280,-2066,42,-192,-39,-395,-706,311,550
,508,2023-10-27 11:55:19.05,12,-278,-2067,17,-177,-15,-427,-734,307,580
,509,2023-10-27 11:55:19.06,17,-279,-2059,-10,-136,7,-392,-704,312,548
,510,2023-10-27 11:55:19.07,7,-285,-2023,-26,-89,30,-441,-746,305,593
,511,2023-10-27 11:55:19.08,4,-274,-2018,-25,-51,50,-405,-711,306,558
,512,2023-10-27 11:55:19.09,14,-281,-2038,0,-53,66,-452,-752,300,602
,513,2023-10-27 11:55:19.10,18,-282,-2056,32,-51,80,-391,-702,311,546
,514,2023-10-27 11:55:19.11,7,-267,-2074,49,-33,93,-430,-738,308,584
,515,2023-10-27 11:55:19.12,24,-257,-2061,56,-9,98,-376,-689,313,532
,516,2023-10-27 11:55:19.13,35,-245,-2031,57,25,98,-429,-738,309,583
,517,2023-10-27 11:55:19.14,41,-243,-2020,59,58,95,-384,-691,307,537
,518,2023-10-27 11:55:19.15,35,-213,-2012,59,62,86,-460,-758,298,609
,519,2023-10-27 11:55:19.16,47,-185,-2011,48,71,69,-406,-702,296,554
,520,2023-10-27 11:55:19.17,53,-160,-2009,21,92,52,-468,-764,296,616
,521,2023-10-27 11:55:19.18,53,-149,-2013,-17,113,35,-395,-697,302,546
,522,2023-10-27 11:55:19.19,54,-152,-2013,-48,117,17,-462,-763,301,612
,523,2023-10-27 11:55:19.20,72,-156,-2025,-68,104,-2,-395,-700,305,547
,524,2023-10-27 11:55:19.21,74,-168,-2036,-79,89,-17,-471,-773,302,622
,525,2023-10-27 11:55:19.22,76,-181,-2032,-75,78,-24,-411,-712,301,561
,526,2023-10-27 11:55:19.23,82,-187,-2029,-59,63,-27,-476,-779,303,627
,527,2023-10-27 11:55:19.24,90,-201,-2030,-37,50,-22,-398,-701,303,549
,528,2023-10-27 11:55:19.25,95,-208,-2037,-9,35,-23,-475,-780,305,627
,529,2023-10-27 11:55:19.26,92,-223,-2065,24,22,-12,-383,-692,309,537
,530,2023-10-27 11:55:19.27,84,-239,-2051,57,6,-3,-457,-772,315,614
,531,2023-10-27 11:55:19.28,94,-244,-2052,94,6,11,-366,-683,317,524
,532,2023-10-27 11:55:19.29,99,-258,-2065,117,2,24,-444,-763,319,603
,533,2023-10-27 11:55:19.30,85,-278,-2066,140,2,36,-356,-670,314,513
,534,2023-10-27 11:55:19.31,97,-284,-2049,166,0,52,-434,-758,324,596
,535,2023-10-27 11:55:19.32,91,-277,-2021,179,9,68,-346,-659,313,502
,536,2023-10-27 11:55:19.33,91,-279,-2022,179,22,76,-437,-754,317,595
,537,2023-10-27 11:55:19.34,98,-279,-2033,172,39,87,-350,-654,304,502
,538,2023-10-27 11:55:19.35,92,-271,-2034,159,55,89,-456,-764,308,610
,539,2023-10-27 11:55:19.36,96,-259,-2053,138,59,88,-365,-666,301,515
,540,2023-10-27 11:55:19.37,99,-257,-2064,112,50,83,-469,-775,306,622
,541,2023-10-27 11:55:19.38,99,-260,-2077,89,39,82,-372,-672,300,522
,542,2023-10-27 11:55:19.39,96,-263,-2086,68,15,79,-481,-784,303,632
,543,2023-10-27 11:55:19.40,94,-262,-2085,46,-13,74,-388,-679,291,533
,544,2023-10-27 11:55:19.41,89,-271,-2085,29,-36,73,-494,-795,301,644
,545,2023-10-27 11:55:19.42,83,-275,-2083,23,-55,77,-394,-683,289,538
,546,2023-10-27 11:55:19.43,86,-278,-2077,28,-74,85,-498,-798,300,648
,547,2023-10-27 11:55:19.44,81,-276,-2077,38,-91,93,-377,-671,294,524
,548,2023-10-27 11:55:19.45,74,-272,-2098,53,-105,98,-480,-789,309,634
,549,2023-10-27 11:55:19.46,61,-262,-2113,39,-61,109,-366,-666,300,516
,550,2023-10-27 11:55:19.47,61,-286,-2105,23,-27,116,-472,-785,313,628
,551,2023-10-27 11:55:19.48,36,-307,-2071,18,5,121,-363,-664,301,513
,552,2023-10-27 11:55:19.49,51,-305,-2006,50,-5,129,-474,-785,311,629
,553,2023-10-27 11:55:19.50,63,-286,-1938,100,-16,131,-358,-652,294,505
,554,2023-10-27 11:55:19.51,75,-247,-1932,130,2,117,-453,-773,320,613
,555,2023-10-27 11:55:19.52,70,-237,-1975,132,43,106,-339,-642,303,490
,556,2023-10-27 11:55:19.53,73,-259,-1996,127,70,97,-449,-771,322,610
,557,2023-10-27 11:55:19.54,56,-270,-2028,122,79,95,-332,-634,302,483
,558,2023-10-27 11:55:19.55,61,-286,-2061,120,53,100,-446,-766,320,606
,559,2023-10-27 11:55:19.56,56,-311,-2064,116,24,107,-331,-634,303,482
,560,2023-10-27 11:55:19.57,47,-315,-2049,116,11,115,-448,-767,319,607
,561,2023-10-27 11:55:19.58,48,-289,-2033,105,-11,122,-331,-630,299,480
,562,2023-10-27 11:55:19.59,72,-277,-2026,90,-27,127,-445,-764,319,604
,563,2023-10-27 11:55:19.60,65,-285,-2034,72,-25,127,-330,-627,297,478
,564,2023-10-27 11:55:19.61,61,-295,-2045,55,-22,124,-455,-773,318,614
,565,2023-10-27 11:55:19.62,72,-301,-2064,45,-32,126,-339,-635,296,487
,566,2023-10-27 11:55:19.63,83,-304,-2047,42,-35,123,-462,-786,324,624
,567,2023-10-27 11:55:19.64,74,-311,-2029,41,-16,118,-339,-640,301,489
,568,2023-10-27 11:55:19.65,88,-300,-2045,37,8,117,-466,-786,320,626
,569,2023-10-27 11:55:19.66,108,-298,-2030,41,12,116,-353,-645,292,499
,570,2023-10-27 11:55:19.67,94,-302,-2057,54,14,115,-474,-789,315,631
,571,2023-10-27 11:55:19.68,114,-318,-2082,66,8,114,-355,-646,291,500
,572,2023-10-27 11:55:19.69,94,-327,-2103,64,16,112,-473,-787,314,630
,573,2023-10-27 11:55:19.70,84,-352,-2092,67,14,120,-358,-643,285,500
,574,2023-10-27 11:55:19.71,83,-374,-2092,86,-9,126,-476,-793,317,634
,575,2023-10-27 11:55:19.72,83,-367,-2074,102,-24,138,-406,-806,400,606
,576,2023-10-27 11:55:19.73,70,-345,-2061,97,-19,146,-575,-1179,604,877
,577,2023-10-27 11:55:19.74,98,-341,-2033,89,-13,157,56,-1188,1244,566
,578,2023-10-27 11:55:19.75,101,-343,-2005,72,7,157,1245,-912,2157,-166
,579,2023-10-27 11:55:19.76,101,-314,-1965,62,18,153,2047,-90,2137,-978
,580,2023-10-27 11:55:19.77,99,-288,-1961,41,38,149,2047,822,1225,-1434
,581,2023-10-27 11:55:19.78,81,-274,-1978,15,54,141,2047,1684,363,-1865
,582,2023-10-27 11:55:19.79,63,-264,-2004,-16,73,139,2047,1792,255,-1919
,583,2023-10-27 11:55:19.80,66,-261,-2062,-48,64,133,2047,1137,910,-1592
,584,2023-10-27 11:55:19.81,41,-265,-2100,-73,37,139,2047,996,1051,-1521
,585,2023-10-27 11:55:19.82,46,-269,-2099,-89,3,140,2047,764,1283,-1405
,586,2023-10-27 11:55:19.83,55,-281,-2094,-84,-30,147,-546,631,-1177,-42
,587,2023-10-27 11:55:19.84,64,-274,-2065,-69,-54,148,-825,427,-1252,199
,588,2023-10-27 11:55:19.85,60,-284,-2067,-47,-49,147,-110,78,-188,16
,589,2023-10-27 11:55:19.86,74,-304,-2101,-16,-60,140,176,-105,281,-35
,590,2023-10-27 11:55:19.87,57,-311,-2123,15,-66,137,-429,-490,61,459
,591,2023-10-27 11:55:19.88,61,-318,-2140,47,-87,125,-811,-587,-224,699
,592,2023-10-27 11:55:19.89,64,-313,-2139,73,-93,115,-1159,-865,-294,1012
,593,2023-10-27 11:55:19.90,65,-300,-2137,81,-95,106,-1120,-841,-279,980
,594,2023-10-27 11:55:19.91,66,-293,-2119,75,-70,101,-1205,-1010,-195,1107
,595,2023-10-27 11:55:19.92,60,-299,-2122,64,-55,89,-1102,-931,-171,1016
,596,2023-10-27 11:55:19.93,62,-294,-2067,53,-46,81,-1214,-1074,-140,1144
,597,2023-10-27 11:55:19.94,50,-302,-2021,48,-32,67,-1133,-981,-152,1057
,598,2023-10-27 11:55:19.95,32,-323,-2014,52,-17,61,-1238,-1106,-132,1172
,599,2023-10-27 11:55:19.96,8,-350,-1991,56,-7,61,-1142,-1001,-141,1071
,600,2023-10-27 11:55:19.97,9,-392,-1978,77,-18,72,-1240,-1117,-123,1178
,601,2023-10-27 11:55:19.98,11,-420,-1968,102,-13,93,-1142,-1014,-128,1078
,602,2023-10-27 11:55:19.99,19,-400,-1942,121,-14,115,-1240,-1128,-112,1184
,603,2023-10-27 11:55:20.00,33,-364,-1890,126,4,130,-1141,-1024,-117,1082
,604,2023-10-27 11:55:20.01,50,-334,-1902,121,31,129,-1231,-1129,-102,1180
,605,2023-10-27 11:55:20.02,55,-299,-1945,98,52,121,-1124,-1019,-105,1071
,606,2023-10-27 11:55:20.03,41,-271,-1966,56,70,113,-1218,-1130,-88,1174
,607,2023-10-27 11:55:20.04,52,-262,-1939,11,84,106,-1099,-1018,-81,1058
,608,2023-10-27 11:55:20.05,42,-232,-1946,-41,83,96,-1153,-1097,-56,1125
,609,2023-10-27 11:55:20.06,33,-238,-1971,-85,55,89,-981,-942,-39,961
,610,2023-10-27 11:55:20.07,10,-236,-1966,-120,12,90,-1012,-1018,6,1015
,611,2023-10-27 11:55:20.08,10,-233,-1964,-139,-29,98,-829,-868,39,848
,612,2023-10-27 11:55:20.09,6,-241,-1978,-150,-70,104,-817,-934,117,875
,613,2023-10-27 11:55:20.10,-27,-246,-2049,-152,-121,122,-580,-759,179,669
,614,2023-10-27 11:55:20.11,-38,-258,-2043,-147,-137,130,-453,-750,297,601
,615,2023-10-27 11:55:20.12,-60,-299,-1988,-110,-184,136,-236,-536,300,386
,616,2023-10-27 11:55:20.13,-49,-326,-1997,-34,-235,141,-214,-552,338,383
,617,2023-10-27 11:55:20.14,-42,-313,-1993,45,-230,151,-163,-437,274,300
,618,2023-10-27 11:55:20.15,-57,-274,-1995,77,-190,148,-280,-549,269,414
,619,2023-10-27 11:55:20.16,-62,-258,-2007,60,-118,139,-292,-518,226,405
,620,2023-10-27 11:55:20.17,-56,-290,-2011,42,-66,123,-434,-687,253,560
,621,2023-10-27 11:55:20.18,-50,-281,-2020,37,-31,109,-455,-674,219,564
,622,2023-10-27 11:55:20.19,-42,-295,-2007,33,-22,103,-590,-828,238,709
,623,2023-10-27 11:55:20.20,-41,-318,-2024,25,-3,104,-538,-762,224,650
,624,2023-10-27 11:55:20.21,-29,-342,-2055,16,-2,104,-578,-843,265,710
,625,2023-10-27 11:55:20.22,-9,-327,-2067,11,-3,108,-477,-728,251,602
,626,2023-10-27 11:55:20.23,11,-314,-2035,-2,8,108,-504,-787,283,645
,627,2023-10-27 11:55:20.24,42,-317,-2017,-4,47,105,-424,-689,265,556
,628,2023-10-27 11:55:20.25,50,-316,-2019,-3,81,89,-464,-757,293,610
,629,2023-10-27 11:55:20.26,58,-318,-2040,4,122,77,-403,-681,278,542
,630,2023-10-27 11:55:20.27,73,-320,-2031,23,131,65,-447,-752,305,599
,631,2023-10-27 11:55:20.28,71,-326,-2044,47,126,60,-411,-689,278,550
,632,2023-10-27 11:55:20.29,63,-332,-2073,72,106,54,-470,-769,299,619
,633,2023-10-27 11:55:20.30,59,-325,-2103,80,89,55,-450,-718,268,584
,634,2023-10-27 11:55:20.31,52,-327,-2124,72,71,57,-502,-797,295,649
,635,2023-10-27 11:55:20.32,32,-321,-2150,49,55,62,-466,-741,275,603
,636,2023-10-27 11:55:20.33,24,-327,-2146,19,21,67,-518,-829,311,673
,637,2023-10-27 11:55:20.34,16,-326,-2126,-12,8,69,-418,-746,328,582
,638,2023-10-27 11:55:20.35,11,-338,-2091,-33,-4,71,-356,-732,376,544
,639,2023-10-27 11:55:20.36,18,-327,-2052,-49,-12,72,-262,-627,365,444
,640,2023-10-27 11:55:20.37,15,-327,-2014,-60,2,69,-245,-640,395,442
,641,2023-10-27 11:55:20.38,-9,-335,-1982,-51,-8,63,-220,-596,376,408
,642,2023-10-27 11:55:20.39,11,-312,-1959,-36,8,57,-213,-626,413,419
,643,2023-10-27 11:55:20.40,19,-304,-1939,-23,33,45,-183,-568,385,375
,644,2023-10-27 11:55:20.41,11,-292,-1937,-11,57,33,-179,-597,418,388
,645,2023-10-27 11:55:20.42,24,-293,-1967,0,81,19,-170,-571,401,370
,646,2023-10-27 11:55:20.43,31,-300,-1986,17,80,10,-178,-621,443,399
,647,2023-10-27 11:55:20.44,30,-293,-2007,29,78,6,-119,-548,429,333
,648,2023-10-27 11:55:20.45,34,-292,-2038,37,56,6,-80,-523,443,301
,649,2023-10-27 11:55:20.46,35,-280,-2045,36,43,2,-72,-465,393,268
,650,2023-10-27 11:55:20.47,42,-279,-2047,23,29,-7,-108,-491,383,299
,651,2023-10-27 11:55:20.48,51,-269,-2049,7,9,-14,-199,-542,343,370
,652,2023-10-27 11:55:20.49,46,-285,-2060,-1,-5,-18,-267,-624,357,445
,653,2023-10-27 11:55:20.50,43,-317,-2094,4,-17,-20,-322,-658,336,490
,654,2023-10-27 11:55:20.51,29,-318,-2099,5,-38,-18,-319,-677,358,498
,655,2023-10-27 11:55:20.52,10,-319,-2070,15,-51,2,-334,-660,326,497
,656,2023-10-27 11:55:20.53,14,-342,-2043,28,-59,22,-313,-643,330,478
,657,2023-10-27 11:55:20.54,-8,-333,-2012,36,-52,46,-356,-647,291,501
,658,2023-10-27 11:55:20.55,12,-292,-1988,39,-41,69,-373,-665,292,519
,659,2023-10-27 11:55:20.56,13,-278,-1972,31,-22,84,-451,-697,246,574
,660,2023-10-27 11:55:20.57,7,-261,-1965,23,-21,89,-495,-727,232,611
,661,2023-10-27 11:55:20.58,5,-244,-1960,12,-8,91,-614,-791,177,702
,662,2023-10-27 11:55:20.59,11,-228,-1959,0,3,86,-655,-824,169,739
,663,2023-10-27 11:55:20.60,10,-208,-1963,-17,17,69,-741,-876,135,808
,664,2023-10-27 11:55:20.61,29,-192,-1991,-34,39,41,-730,-875,145,802
,665,2023-10-27 11:55:20.62,36,-185,-2030,-48,53,11,-768,-902,134,835
,666,2023-10-27 11:55:20.63,49,-190,-2059,-60,69,-26,-713,-879,166,796
,667,2023-10-27 11:55:20.64,59,-221,-2075,-65,84,-58,-733,-897,164,815
,668,2023-10-27 11:55:20.65,70,-246,-2098,-59,93,-90,-672,-864,192,768
,669,2023-10-27 11:55:20.66,76,-267,-2130,-41,98,-114,-691,-885,194,788
,670,2023-10-27 11:55:20.67,83,-279,-2128,-20,87,-136,-610,-828,218,719
,671,2023-10-27 11:55:20.68,64,-311,-2135,16,69,-147,-631,-853,222,742
,672,2023-10-27 11:55:20.69,60,-345,-2138,52,46,-154,-555,-802,247,678
,673,2023-10-27 11:55:20.70,60,-370,-2147,81,24,-153,-573,-835,262,704
,674,2023-10-27 11:55:20.71,57,-387,-2126,100,15,-138,-480,-764,284,622
,675,2023-10-27 11:55:20.72,45,-419,-2093,118,-10,-122,-496,-784,288,640
,676,2023-10-27 11:55:20.73,31,-440,-2076,143,-61,-94,-418,-711,293,564
,677,2023-10-27 11:55:20.74,32,-421,-2049,165,-97,-64,-464,-754,290,609
,678,2023-10-27 11:55:20.75,13,-397,-2022,170,-111,-40,-412,-696,284,554
,679,2023-10-27 11:55:20.76,10,-376,-2006,148,-94,-17,-500,-769,269,634
,680,2023-10-27 11:55:20.77,0,-380,-1988,114,-74,-3,-454,-720,266,587
,681,2023-10-27 11:55:20.78,-9,-361,-1975,74,-32,14,-555,-807,252,681
,682,2023-10-27 11:55:20.79,4,-347,-1955,38,1,28,-498,-751,253,624
,683,2023-10-27 11:55:20.80,-16,-332,-1949,10,16,36,-585,-830,245,707
,684,2023-10-27 11:55:20.81,-27,-332,-1945,-7,10,39,-509,-763,254,636
,685,2023-10-27 11:55:20.82,-10,-329,-1978,-10,-7,40,-581,-837,256,709
,686,2023-10-27 11:55:20.83,10,-305,-2009,-18,-3,43,-480,-752,272,616
,687,2023-10-27 11:55:20.84,4,-293,-2021,-37,32,39,-547,-826,279,686
,688,2023-10-27 11:55:20.85,12,-297,-2033,-55,43,26,-448,-733,285,590
,689,2023-10-27 11:55:20.86,22,-294,-2040,-53,45,20,-521,-815,294,668
,690,2023-10-27 11:55:20.87,14,-302,-2048,-36,35,9,-404,-707,303,555
,691,2023-10-27 11:55:20.88,42,-301,-2056,-15,28,5,-478,-791,313,634
,692,2023-10-27 11:55:20.89,44,-297,-2045,2,26,-5,-365,-686,321,525
,693,2023-10-27 11:55:20.90,35,-301,-2056,23,28,-14,-437,-771,334,604
,694,2023-10-27 11:55:20.91,49,-308,-2048,39,30,-14,-327,-662,335,494
,695,2023-10-27 11:55:20.92,55,-308,-2048,50,33,-20,-389,-743,354,566
,696,2023-10-27 11:55:20.93,56,-312,-2051,52,40,-22,-282,-625,343,453
,697,2023-10-27 11:55:20.94,53,-313,-2052,54,50,-22,-348,-710,362,529
,698,2023-10-27 11:55:20.95,58,-323,-2051,51,45,-21,-254,-596,342,425
,699,2023-10-27 11:55:20.96,70,-324,-2047,47,42,-18,-339,-699,360,519
,700,2023-10-27 11:55:20.97,48,-320,-2056,41,30,-13,-250,-589,339,419
,701,2023-10-27 11:55:20.98,41,-325,-2075,36,12,-1,-348,-706,358,527
,702,2023-10-27 11:55:20.99,51,-325,-2069,35,-14,9,-257,-596,339,426
,703,2023-10-27 11:55:21.00,33,-332,-2080,39,-34,19,-370,-716,346,543
,704,2023-10-27 11:55:21.01,31,-328,-2079,48,-50,24,-284,-610,326,447
,705,2023-10-27 11:55:21.02,32,-321,-2076,57,-45,29,-404,-738,334,571
,706,2023-10-27 11:55:21.03,43,-339,-2077,71,-35,36,-322,-634,312,478
,707,2023-10-27 11:55:21.04,48,-342,-2069,97,-19,37,-448,-767,319,607
,708,2023-10-27 11:55:21.05,61,-346,-2047,123,7,33,-355,-658,303,506
,709,2023-10-27 11:55:21.06,54,-359,-2041,155,23,30,-491,-808,317,649
,710,2023-10-27 11:55:21.07,62,-388,-2047,190,49,24,-375,-690,315,532
,711,2023-10-27 11:55:21.08,58,-396,-2044,230,63,18,-454,-818,364,636
,712,2023-10-27 11:55:21.09,63,-402,-2021,260,86,14,-249,-643,394,446
,713,2023-10-27 11:55:21.10,70,-375,-2002,280,110,8,-170,-666,496,418
,714,2023-10-27 11:55:21.11,72,-383,-1981,285,156,2,29,-431,460,201
,715,2023-10-27 11:55:21.12,67,-395,-1980,282,188,-8,66,-380,446,157
,716,2023-10-27 11:55:21.13,71,-395,-1980,287,184,-9,103,-243,346,70
,717,2023-10-27 11:55:21.14,72,-392,-1997,285,177,-13,-108,-468,360,288
,718,2023-10-27 11:55:21.15,62,-402,-1992,280,153,-17,-111,-440,329,275
,719,2023-10-27 11:55:21.16,49,-412,-2014,264,149,-5,-237,-605,368,421
,720,2023-10-27 11:55:21.17,50,-417,-2018,240,134,5,-174,-485,311,329
,721,2023-10-27 11:55:21.18,44,-403,-2026,204,128,15,-358,-648,290,503
,722,2023-10-27 11:55:21.19,41,-411,-2034,166,100,26,-344,-582,238,463
,723,2023-10-27 11:55:21.20,57,-396,-2046,127,74,36,-594,-813,219,703
,724,2023-10-27 11:55:21.21,61,-383,-2044,101,20,43,-556,-747,191,651
,725,2023-10-27 11:55:21.22,63,-362,-2025,61,8,48,-767,-931,164,849
,726,2023-10-27 11:55:21.23,62,-363,-2022,17,-8,47,-668,-822,154,745
,727,2023-10-27 11:55:21.24,56,-377,-2021,-19,-16,42,-778,-957,179,867
,728,2023-10-27 11:55:21.25,55,-401,-2014,-38,-28,43,-615,-808,193,711
,729,2023-10-27 11:55:21.26,42,-408,-2004,-37,-46,49,-695,-921,226,808
,730,2023-10-27 11:55:21.27,36,-423,-2010,-31,-54,48,-531,-762,231,646
,731,2023-10-27 11:55:21.28,41,-407,-2016,-28,-57,49,-579,-872,293,725
,732,2023-10-27 11:55:21.29,42,-391,-2018,-29,-56,39,-379,-697,318,538
,733,2023-10-27 11:55:21.30,41,-400,-2017,-32,-55,34,-429,-801,372,615
,734,2023-10-27 11:55:21.31,39,-380,-1986,-31,-53,21,-284,-630,346,457
,735,2023-10-27 11:55:21.32,46,-367,-1967,-35,-39,3,-382,-751,369,566
,736,2023-10-27 11:55:21.33,61,-363,-1950,-39,-17,-20,-274,-606,332,440
,737,2023-10-27 11:55:21.34,78,-346,-1959,-39,-4,-44,-392,-751,359,571
,738,2023-10-27 11:55:21.35,77,-323,-1949,-47,1,-74,-299,-616,317,457
,739,2023-10-27 11:55:21.36,91,-317,-1957,-64,29,-103,-449,-782,333,615
,740,2023-10-27 11:55:21.37,99,-320,-1983,-84,49,-134,-368,-667,299,517
,741,2023-10-27 11:55:21.38,102,-333,-2016,-96,66,-156,-530,-842,312,686
,742,2023-10-27 11:55:21.39,105,-349,-2036,-98,80,-165,-426,-716,290,571
,743,2023-10-27 11:55:21.40,115,-354,-2058,-94,72,-174,-548,-855,307,701
,744,2023-10-27 11:55:21.41,104,-375,-2091,-93,83,-174,-415,-706,291,560
,745,2023-10-27 11:55:21.42,118,-387,-2088,-96,77,-167,-500,-826,326,663
,746,2023-10-27 11:55:21.43,118,-405,-2087,-85,56,-153,-361,-667,306,514
,747,2023-10-27 11:55:21.44,110,-415,-2075,-63,34,-131,-447,-786,339,616
,748,2023-10-27 11:55:21.45,94,-403,-2072,-43,10,-106,-320,-634,314,477
,749,2023-10-27 11:55:21.46,107,-409,-2071,-26,-23,-78,-407,-758,351,582
,750,2023-10-27 11:55:21.47,90,-402,-2063,-19,-63,-47,-292,-607,315,449
,751,2023-10-27 11:55:21.48,69,-396,-2045,-16,-98,-12,-369,-735,366,552
,752,2023-10-27 11:55:21.49,63,-391,-2022,-17,-131,24,-230,-586,356,408
,753,2023-10-27 11:55:21.50,56,-378,-1998,-25,-154,61,-281,-701,420,491
,754,2023-10-27 11:55:21.51,47,-363,-1966,-47,-169,94,-157,-550,393,353
,755,2023-10-27 11:55:21.52,28,-355,-1918,-75,-161,121,-220,-666,446,443
,756,2023-10-27 11:55:21.53,17,-350,-1912,-99,-162,146,-103,-521,418,312
,757,2023-10-27 11:55:21.54,31,-351,-1924,-113,-170,168,-130,-644,514,387
,758,2023-10-27 11:55:21.55,22,-354,-1945,-129,-167,185,30,-466,496,218
,759,2023-10-27 11:55:21.56,22,-348,-1984,-156,-171,197,30,-606,636,288
,760,2023-10-27 11:55:21.57,4,-355,-2018,-191,-179,207,266,-322,588,28
,761,2023-10-27 11:55:21.58,-15,-352,-2038,-219,-199,216,501,-19,520,-241
,762,2023-10-27 11:55:21.59,-26,-322,-2054,-247,-221,219,326,35,291,-180
,763,2023-10-27 11:55:21.60,-30,-299,-2033,-269,-238,219,-125,-449,324,287
,764,2023-10-27 11:55:21.61,-49,-305,-2023,-283,-229,217,-217,-576,359,396
,765,2023-10-27 11:55:21.62,-34,-338,-2017,-266,-213,211,-224,-690,466,457
,766,2023-10-27 11:55:21.63,-54,-324,-1959,-240,-183,202,-69,-470,401,269
,767,2023-10-27 11:55:21.64,-45,-315,-1916,-189,-130,193,-100,-471,371,285
,768,2023-10-27 11:55:21.65,-30,-289,-1921,-129,-79,171,-129,-394,265,261
,769,2023-10-27 11:55:21.66,-39,-271,-1926,-72,-19,146,-316,-605,289,460
,770,2023-10-27 11:55:21.67,-23,-254,-1949,-22,31,116,-304,-575,271,439
,771,2023-10-27 11:55:21.68,-35,-255,-1983,16,80,89,-404,-724,320,564
,772,2023-10-27 11:55:21.69,-29,-278,-2049,41,120,64,-368,-633,265,500
,773,2023-10-27 11:55:21.70,-34,-309,-2101,54,147,45,-494,-763,269,628
,774,2023-10-27 11:55:21.71,-36,-340,-2114,63,164,45,-464,-683,219,573
,775,2023-10-27 11:55:21.72,-38,-373,-2120,73,164,53,-564,-800,236,682
,776,2023-10-27 11:55:21.73,-45,-382,-2123,75,164,59,-510,-716,206,613
,777,2023-10-27 11:55:21.74,-21,-385,-2130,83,146,71,-600,-822,222,711
,778,2023-10-27 11:55:21.75,-12,-399,-2102,86,135,83,-541,-735,194,638
,779,2023-10-27 11:55:21.76,12,-390,-2092,83,135,91,-614,-830,216,722
,780,2023-10-27 11:55:21.77,20,-375,-2069,77,142,93,-550,-744,194,647
,781,2023-10-27 11:55:21.78,31,-340,-2057,52,163,90,-612,-835,223,723
,782,2023-10-27 11:55:21.79,45,-310,-2058,20,190,75,-549,-747,198,648
,783,2023-10-27 11:55:21.80,61,-301,-2068,-7,185,58,-606,-832,226,719
,784,2023-10-27 11:55:21.81,61,-290,-2079,-24,180,42,-542,-748,206,645
,785,2023-10-27 11:55:21.82,93,-280,-2063,-35,182,23,-595,-828,233,711
,786,2023-10-27 11:55:21.83,92,-268,-2047,-46,181,0,-534,-749,215,641
,787,2023-10-27 11:55:21.84,92,-263,-2054,-61,196,-28,-576,-818,242,697
,788,2023-10-27 11:55:21.85,110,-272,-2053,-59,197,-54,-522,-745,223,633
,789,2023-10-27 11:55:21.86,104,-268,-2054,-41,186,-71,-561,-811,250,686
,790,2023-10-27 11:55:21.87,114,-287,-2053,-15,164,-93,-517,-742,225,629
