// Data mode  : Full
// Data quality  : High
// Acceleration sensor's range  : 16g
// Gyroscope sensor's range  : 2000dps
//
//ARTIFACT,NUM,DATE,ACC_X,ACC_Y,ACC_Z,GYRO_X,GYRO_Y,GYRO_Z,EOG_L,EOG_R,EOG_H,EOG_V
,1,2023-10-27 12:01:07.15,108,-281,-2035,5,10,16,-204,-361,157,282
,2,2023-10-27 12:01:07.16,83,-286,-2042,5,12,14,-128,-280,152,204
,3,2023-10-27 12:01:07.17,106,-281,-2033,6,7,14,-207,-366,159,286
,4,2023-10-27 12:01:07.18,105,-282,-2040,8,6,10,-136,-288,152,212
,5,2023-10-27 12:01:07.19,101,-279,-2032,7,8,9,-215,-376,161,295
,6,2023-10-27 12:01:07.20,107,-279,-2034,9,13,5,-132,-286,154,209
,7,2023-10-27 12:01:07.21,104,-281,-2041,8,17,4,-218,-374,156,296
,8,2023-10-27 12:01:07.22,98,-281,-2035,5,15,-1,-144,-292,148,218
,9,2023-10-27 12:01:07.23,98,-289,-2045,2,19,2,-234,-383,149,308
,10,2023-10-27 12:01:07.24,103,-291,-2040,1,18,3,-147,-288,141,217
,11,2023-10-27 12:01:07.25,96,-290,-2037,3,12,7,-219,-370,151,294
,12,2023-10-27 12:01:07.26,106,-288,-2040,5,12,8,-139,-282,143,210
,13,2023-10-27 12:01:07.27,121,-287,-2038,3,17,8,-221,-370,149,295
,14,2023-10-27 12:01:07.28,105,-288,-2038,0,20,9,-144,-289,145,216
,15,2023-10-27 12:01:07.29,106,-280,-2055,1,23,6,-223,-378,155,300
,16,2023-10-27 12:01:07.30,97,-282,-2052,-1,19,5,-149,-295,146,222
,17,2023-10-27 12:01:07.31,105,-279,-2048,0,13,4,-229,-379,150,304
,18,2023-10-27 12:01:07.32,101,-292,-2040,5,7,8,-147,-292,145,219
,19,2023-10-27 12:01:07.33,111,-282,-2035,3,6,12,-222,-377,155,299
,20,2023-10-27 12:01:07.34,113,-287,-2033,6,3,15,-150,-294,144,222
,21,2023-10-27 12:01:07.35,107,-288,-2037,3,6,17,-229,-379,150,304
,22,2023-10-27 12:01:07.36,103,-286,-2035,0,4,16,-151,-296,145,223
,23,2023-10-27 12:01:07.37,102,-280,-2031,0,6,20,-221,-379,158,300
,24,2023-10-27 12:01:07.38,119,-278,-2036,-4,9,19,-140,-291,151,215
,25,2023-10-27 12:01:07.39,116,-284,-2040,-4,10,21,-214,-374,160,294
,26,2023-10-27 12:01:07.40,114,-286,-2044,-11,11,23,-144,-294,150,219
,27,2023-10-27 12:01:07.41,110,-292,-2038,-16,10,24,-231,-386,155,308
,28,2023-10-27 12:01:07.42,113,-291,-2035,-16,18,29,-156,-304,148,230
,29,2023-10-27 12:01:07.43,108,-290,-2047,-13,11,32,-227,-386,159,306
,30,2023-10-27 12:01:07.44,106,-282,-2048,-8,7,34,-150,-300,150,225
,31,2023-10-27 12:01:07.45,101,-279,-2047,-4,9,36,-225,-383,158,304
,32,2023-10-27 12:01:07.46,113,-275,-2041,-6,11,33,-146,-301,155,223
,33,2023-10-27 12:01:07.47,109,-265,-2023,-5,8,30,-220,-379,159,299
,34,2023-10-27 12:01:07.48,120,-277,-2034,-2,13,27,-142,-293,151,217
,35,2023-10-27 12:01:07.49,110,-266,-2034,4,9,21,-211,-372,161,291
,36,2023-10-27 12:01:07.50,99,-269,-2032,11,0,16,-136,-288,152,212
,37,2023-10-27 12:01:07.51,119,-266,-2032,16,6,13,-209,-370,161,289
,38,2023-10-27 12:01:07.52,122,-265,-2033,17,8,8,-139,-291,152,215
,39,2023-10-27 12:01:07.53,115,-270,-2055,15,13,-1,-212,-370,158,291
,40,2023-10-27 12:01:07.54,122,-280,-2050,14,17,-3,-133,-286,153,209
,41,2023-10-27 12:01:07.55,114,-278,-2049,17,16,-5,-198,-362,164,280
,42,2023-10-27 12:01:07.56,118,-281,-2047,20,8,-4,-128,-284,156,206
,43,2023-10-27 12:01:07.57,115,-289,-2042,23,2,-2,-199,-365,166,282
,44,2023-10-27 12:01:07.58,107,-277,-2046,21,5,3,-136,-292,156,214
,45,2023-10-27 12:01:07.59,116,-284,-2043,14,8,9,-204,-367,163,285
,46,2023-10-27 12:01:07.60,121,-278,-2036,12,16,13,-136,-291,155,213
,47,2023-10-27 12:01:07.61,111,-276,-2048,11,14,18,-190,-357,167,273
,48,2023-10-27 12:01:07.62,104,-280,-2047,15,6,25,-132,-288,156,210
,49,2023-10-27 12:01:07.63,106,-281,-2050,16,3,31,-195,-360,165,277
,50,2023-10-27 12:01:07.64,104,-280,-2045,19,-2,34,-138,-293,155,215
,51,2023-10-27 12:01:07.65,95,-284,-2037,24,-8,38,-180,-342,162,261
,52,2023-10-27 12:01:07.66,96,-281,-2030,28,-9,42,-117,-270,153,193
,53,2023-10-27 12:01:07.67,104,-280,-2032,32,-9,45,-171,-331,160,251
,54,2023-10-27 12:01:07.68,95,-285,-2023,36,-5,45,-118,-272,154,195
,55,2023-10-27 12:01:07.69,92,-282,-2031,35,-3,42,-184,-345,161,264
,56,2023-10-27 12:01:07.70,87,-288,-2034,35,5,42,-141,-289,148,215
,57,2023-10-27 12:01:07.71,92,-290,-2039,36,12,44,-134,-332,198,233
,58,2023-10-27 12:01:07.72,86,-291,-2027,35,18,43,-30,-253,223,141
,59,2023-10-27 12:01:07.73,87,-300,-2031,33,19,41,16,-285,301,134
,60,2023-10-27 12:01:07.74,91,-281,-2036,31,14,37,91,-213,304,61
,61,2023-10-27 12:01:07.75,87,-290,-2038,34,12,32,124,-252,376,64
,62,2023-10-27 12:01:07.76,105,-289,-2042,33,14,29,166,-190,356,12
,63,2023-10-27 12:01:07.77,113,-291,-2041,29,20,26,193,-226,419,16
,64,2023-10-27 12:01:07.78,109,-295,-2035,25,23,20,224,-167,391,-28
,65,2023-10-27 12:01:07.79,108,-297,-2043,26,24,17,255,-192,447,-31
,66,2023-10-27 12:01:07.80,120,-292,-2032,30,26,19,264,-146,410,-59
,67,2023-10-27 12:01:07.81,111,-301,-2036,34,22,16,298,-179,477,-59
,68,2023-10-27 12:01:07.82,108,-308,-2023,37,23,16,300,-136,436,-82
,69,2023-10-27 12:01:07.83,109,-297,-2033,44,26,17,333,-166,499,-83
,70,2023-10-27 12:01:07.84,93,-299,-2038,50,27,23,330,-128,458,-101
,71,2023-10-27 12:01:07.85,105,-295,-2040,50,27,28,365,-160,525,-102
,72,2023-10-27 12:01:07.86,108,-294,-2035,51,29,30,350,-124,474,-113
,73,2023-10-27 12:01:07.87,110,-295,-2036,46,32,33,381,-150,531,-115
,74,2023-10-27 12:01:07.88,108,-302,-2036,45,30,35,364,-116,480,-124
,75,2023-10-27 12:01:07.89,110,-302,-2027,48,30,35,390,-143,533,-123
,76,2023-10-27 12:01:07.90,121,-295,-2033,49,27,33,368,-117,485,-125
,77,2023-10-27 12:01:07.91,133,-286,-2037,46,32,32,403,-136,539,-133
,78,2023-10-27 12:01:07.92,117,-290,-2040,41,30,27,381,-107,488,-137
,79,2023-10-27 12:01:07.93,111,-300,-2038,38,34,24,412,-129,541,-141
,80,2023-10-27 12:01:07.94,110,-293,-2045,34,34,21,384,-111,495,-136
,81,2023-10-27 12:01:07.95,121,-297,-2039,33,35,18,416,-134,550,-141
,82,2023-10-27 12:01:07.96,123,-297,-2035,29,35,13,390,-110,500,-140
,83,2023-10-27 12:01:07.97,126,-300,-2033,26,35,14,426,-126,552,-150
,84,2023-10-27 12:01:07.98,121,-306,-2030,23,40,10,392,-107,499,-142
,85,2023-10-27 12:01:07.99,117,-306,-2039,21,32,12,423,-129,552,-147
,86,2023-10-27 12:01:08.00,126,-311,-2047,19,36,14,390,-116,506,-137
,87,2023-10-27 12:01:08.01,126,-305,-2040,21,32,17,426,-131,557,-147
,88,2023-10-27 12:01:08.02,122,-304,-2043,20,26,17,409,-102,511,-153
,89,2023-10-27 12:01:08.03,122,-306,-2047,18,24,18,438,-119,557,-159
,90,2023-10-27 12:01:08.04,123,-301,-2042,20,20,22,406,-102,508,-152
,91,2023-10-27 12:01:08.05,121,-299,-2048,19,19,25,423,-127,550,-148
,92,2023-10-27 12:01:08.06,120,-304,-2038,21,22,30,397,-112,509,-142
,93,2023-10-27 12:01:08.07,133,-305,-2032,22,14,28,431,-116,547,-157
,94,2023-10-27 12:01:08.08,114,-296,-2041,21,17,31,392,-109,501,-141
,95,2023-10-27 12:01:08.09,121,-296,-2042,22,16,32,434,-109,543,-162
,96,2023-10-27 12:01:08.10,113,-294,-2039,19,20,35,407,-108,515,-149
,97,2023-10-27 12:01:08.11,117,-298,-2035,14,18,35,443,-117,560,-163
,98,2023-10-27 12:01:08.12,118,-296,-2034,12,20,36,416,-113,529,-151
,99,2023-10-27 12:01:08.13,122,-304,-2031,12,11,36,440,-121,561,-159
,100,2023-10-27 12:01:08.14,125,-297,-2020,14,10,35,392,-130,522,-131
,101,2023-10-27 12:01:08.15,122,-302,-2023,12,17,33,389,-145,534,-122
,102,2023-10-27 12:01:08.16,138,-305,-2030,11,22,31,324,-162,486,-81
,103,2023-10-27 12:01:08.17,119,-301,-2026,13,27,32,308,-174,482,-67
,104,2023-10-27 12:01:08.18,123,-307,-2039,18,27,33,252,-180,432,-36
,105,2023-10-27 12:01:08.19,129,-300,-2036,18,27,32,240,-188,428,-26
,106,2023-10-27 12:01:08.20,120,-304,-2044,16,28,29,195,-194,389,0
,107,2023-10-27 12:01:08.21,125,-301,-2035,20,21,28,180,-201,381,10
,108,2023-10-27 12:01:08.22,130,-300,-2042,25,18,30,139,-212,351,36
,109,2023-10-27 12:01:08.23,137,-302,-2034,27,10,31,121,-218,339,48
,110,2023-10-27 12:01:08.24,131,-310,-2034,29,17,32,84,-230,314,73
,111,2023-10-27 12:01:08.25,128,-293,-2032,29,15,26,77,-232,309,77
,112,2023-10-27 12:01:08.26,134,-311,-2034,29,17,28,44,-242,286,99
,113,2023-10-27 12:01:08.27,134,-320,-2032,32,15,27,36,-242,278,103
,114,2023-10-27 12:01:08.28,127,-320,-2039,40,9,27,10,-253,263,121
,115,2023-10-27 12:01:08.29,142,-316,-2035,39,13,27,9,-246,255,118
,116,2023-10-27 12:01:08.30,140,-318,-2036,37,16,27,-18,-259,241,138
,117,2023-10-27 12:01:08.31,138,-318,-2042,36,11,23,-16,-254,238,135
,118,2023-10-27 12:01:08.32,128,-315,-2042,37,8,23,-47,-274,227,160
,119,2023-10-27 12:01:08.33,126,-316,-2043,34,4,24,-42,-266,224,154
,120,2023-10-27 12:01:08.34,119,-316,-2039,31,-1,21,-66,-284,218,175
,121,2023-10-27 12:01:08.35,127,-318,-2038,31,-6,26,-54,-270,216,162
,122,2023-10-27 12:01:08.36,114,-313,-2039,32,-9,27,-82,-290,208,186
,123,2023-10-27 12:01:08.37,119,-317,-2028,28,-14,27,-65,-274,209,169
,124,2023-10-27 12:01:08.38,123,-307,-2023,30,-9,29,-90,-293,203,191
,125,2023-10-27 12:01:08.39,125,-308,-2028,31,-11,27,-76,-274,198,175
,126,2023-10-27 12:01:08.40,113,-313,-2026,30,-7,29,-104,-301,197,202
,127,2023-10-27 12:01:08.41,121,-310,-2027,30,-2,30,-86,-279,193,182
,128,2023-10-27 12:01:08.42,111,-312,-2038,32,3,32,-117,-307,190,212
,129,2023-10-27 12:01:08.43,118,-315,-2043,34,-5,33,-86,-276,190,181
,130,2023-10-27 12:01:08.44,105,-317,-2034,40,-17,38,-119,-312,193,215
,131,2023-10-27 12:01:08.45,116,-327,-2037,47,-24,44,-89,-281,192,185
,132,2023-10-27 12:01:08.46,110,-317,-2025,53,-16,48,-124,-318,194,221
,133,2023-10-27 12:01:08.47,110,-305,-2015,51,4,50,-94,-281,187,187
,134,2023-10-27 12:01:08.48,112,-298,-2022,41,20,43,-135,-320,185,227
,135,2023-10-27 12:01:08.49,122,-299,-2016,41,29,40,-119,-298,179,208
,136,2023-10-27 12:01:08.50,109,-312,-2014,50,21,39,-153,-329,176,241
,137,2023-10-27 12:01:08.51,125,-320,-2019,61,17,35,-113,-289,176,201
,138,2023-10-27 12:01:08.52,127,-330,-2029,73,20,39,-147,-325,178,236
,139,2023-10-27 12:01:08.53,131,-337,-2026,80,28,44,-115,-288,173,201
,140,2023-10-27 12:01:08.54,137,-341,-2025,83,44,48,-161,-333,172,247
,141,2023-10-27 12:01:08.55,158,-349,-2010,92,58,49,-124,-292,168,208
,142,2023-10-27 12:01:08.56,153,-358,-2012,98,67,45,-163,-331,168,247
,143,2023-10-27 12:01:08.57,169,-372,-2000,111,69,47,-114,-284,170,199
,144,2023-10-27 12:01:08.58,156,-364,-2014,123,79,47,-158,-328,170,243
,145,2023-10-27 12:01:08.59,155,-355,-2025,128,78,43,-121,-286,165,203
,146,2023-10-27 12:01:08.60,163,-353,-2033,128,82,40,-176,-339,163,257
,147,2023-10-27 12:01:08.61,168,-342,-2025,120,87,38,-131,-293,162,212
,148,2023-10-27 12:01:08.62,161,-335,-2044,99,87,29,-177,-340,163,258
,149,2023-10-27 12:01:08.63,174,-348,-2068,81,75,23,-121,-284,163,202
,150,2023-10-27 12:01:08.64,157,-358,-2087,59,55,21,-173,-338,165,255
,151,2023-10-27 12:01:08.65,137,-347,-2092,40,24,26,-123,-284,161,203
,152,2023-10-27 12:01:08.66,127,-354,-2086,18,-12,31,-180,-343,163,261
,153,2023-10-27 12:01:08.67,116,-345,-2087,-1,-41,38,-131,-288,157,209
,154,2023-10-27 12:01:08.68,115,-339,-2070,-23,-52,47,-200,-355,155,277
,155,2023-10-27 12:01:08.69,118,-334,-2049,-43,-64,51,-147,-299,152,223
,156,2023-10-27 12:01:08.70,106,-333,-2022,-59,-62,51,-206,-363,157,284
,157,2023-10-27 12:01:08.71,104,-327,-1998,-70,-63,48,-154,-305,151,229
,158,2023-10-27 12:01:08.72,109,-320,-1983,-71,-48,46,-217,-373,156,295
,159,2023-10-27 12:01:08.73,117,-306,-1979,-69,-31,40,-159,-310,151,234
,160,2023-10-27 12:01:08.74,124,-307,-1982,-63,-16,33,-217,-374,157,295
,161,2023-10-27 12:01:08.75,132,-309,-2004,-59,11,32,-149,-306,157,227
,162,2023-10-27 12:01:08.76,135,-312,-2016,-58,27,32,-204,-365,161,284
,163,2023-10-27 12:01:08.77,134,-319,-2042,-54,42,38,-142,-296,154,219
,164,2023-10-27 12:01:08.78,146,-325,-2062,-46,38,41,-207,-363,156,285
,165,2023-10-27 12:01:08.79,129,-332,-2072,-39,35,54,-143,-296,153,219
,166,2023-10-27 12:01:08.80,135,-336,-2068,-26,24,67,-210,-364,154,287
,167,2023-10-27 12:01:08.81,132,-331,-2047,-13,23,81,-147,-298,151,222
,168,2023-10-27 12:01:08.82,131,-330,-2050,-1,16,87,-208,-362,154,285
,169,2023-10-27 12:01:08.83,135,-323,-2034,11,14,92,-137,-285,148,211
,170,2023-10-27 12:01:08.84,138,-319,-2025,17,16,96,-198,-350,152,274
,171,2023-10-27 12:01:08.85,142,-326,-2023,28,18,98,-137,-290,153,213
,172,2023-10-27 12:01:08.86,129,-334,-2033,36,27,98,-213,-365,152,289
,173,2023-10-27 12:01:08.87,131,-352,-2024,48,25,100,-152,-300,148,226
,174,2023-10-27 12:01:08.88,128,-343,-2021,56,40,99,-218,-368,150,293
,175,2023-10-27 12:01:08.89,122,-347,-1999,66,34,93,-142,-291,149,216
,176,2023-10-27 12:01:08.90,137,-334,-1989,72,43,84,-210,-364,154,287
,177,2023-10-27 12:01:08.91,145,-323,-1981,77,42,71,-130,-281,151,205
,178,2023-10-27 12:01:08.92,152,-312,-1989,79,51,52,-200,-356,156,278
,179,2023-10-27 12:01:08.93,145,-299,-1998,75,56,31,-129,-279,150,204
,180,2023-10-27 12:01:08.94,168,-317,-2009,65,49,9,-207,-360,153,283
,181,2023-10-27 12:01:08.95,155,-316,-2027,57,35,-11,-140,-286,146,213
,182,2023-10-27 12:01:08.96,168,-330,-2036,53,10,-27,-208,-364,156,286
,183,2023-10-27 12:01:08.97,177,-329,-2052,45,5,-36,-133,-284,151,208
,184,2023-10-27 12:01:08.98,174,-347,-2055,33,4,-41,-205,-363,158,284
,185,2023-10-27 12:01:08.99,199,-365,-2057,29,-10,-54,-135,-284,149,209
,186,2023-10-27 12:01:09.00,186,-363,-2054,33,-21,-52,-202,-360,158,281
,187,2023-10-27 12:01:09.01,185,-357,-2045,30,-22,-54,-132,-282,150,207
,188,2023-10-27 12:01:09.02,192,-368,-2060,31,-14,-51,-200,-362,162,281
,189,2023-10-27 12:01:09.03,179,-381,-2061,29,-20,-49,-128,-280,152,204
,190,2023-10-27 12:01:09.04,160,-400,-2047,43,-48,-45,-197,-359,162,278
,191,2023-10-27 12:01:09.05,155,-403,-2043,68,-92,-33,-130,-283,153,206
,192,2023-10-27 12:01:09.06,150,-413,-2040,92,-117,-16,-196,-359,163,277
,193,2023-10-27 12:01:09.07,148,-402,-2028,96,-126,1,-123,-280,157,201
,194,2023-10-27 12:01:09.08,122,-403,-2025,90,-116,14,-191,-359,168,275
,195,2023-10-27 12:01:09.09,110,-396,-2021,86,-104,23,-126,-282,156,204
,196,2023-10-27 12:01:09.10,106,-393,-2012,77,-92,35,-190,-361,171,275
,197,2023-10-27 12:01:09.11,105,-394,-2008,66,-80,38,-120,-280,160,200
,198,2023-10-27 12:01:09.12,85,-392,-2010,56,-68,44,-187,-358,171,272
,199,2023-10-27 12:01:09.13,66,-397,-1999,54,-62,47,-122,-283,161,202
,200,2023-10-27 12:01:09.14,74,-392,-1998,50,-59,50,-194,-361,167,277
,201,2023-10-27 12:01:09.15,68,-392,-1998,53,-60,49,-133,-288,155,210
,202,2023-10-27 12:01:09.16,69,-380,-2002,54,-58,48,-201,-366,165,283
,203,2023-10-27 12:01:09.17,79,-374,-2006,38,-41,45,-138,-290,152,214
,204,2023-10-27 12:01:09.18,70,-376,-2006,16,-15,42,-208,-369,161,288
,205,2023-10-27 12:01:09.19,69,-381,-2012,1,-8,38,-144,-296,152,220
,206,2023-10-27 12:01:09.20,79,-381,-2028,-5,-3,33,-210,-370,160,290
,207,2023-10-27 12:01:09.21,86,-381,-2029,-13,0,31,-144,-296,152,220
,208,2023-10-27 12:01:09.22,87,-388,-2020,-26,11,35,-215,-375,160,295
,209,2023-10-27 12:01:09.23,99,-380,-2023,-38,18,38,-156,-304,148,230
,210,2023-10-27 12:01:09.24,99,-364,-2018,-42,32,39,-218,-375,157,296
,211,2023-10-27 12:01:09.25,107,-353,-2014,-42,37,35,-138,-290,152,214
,212,2023-10-27 12:01:09.26,131,-344,-2020,-44,47,26,-199,-361,162,280
,213,2023-10-27 12:01:09.27,119,-347,-2030,-44,54,17,-136,-292,156,214
,214,2023-10-27 12:01:09.28,138,-336,-2036,-41,55,8,-203,-371,168,287
,215,2023-10-27 12:01:09.29,129,-336,-2036,-35,48,-1,-136,-291,155,213
,216,2023-10-27 12:01:09.30,131,-336,-2042,-24,34,-9,-190,-354,164,272
,217,2023-10-27 12:01:09.31,142,-337,-2044,-18,22,-17,-122,-281,159,201
,218,2023-10-27 12:01:09.32,136,-342,-2045,-12,5,-25,-179,-345,166,262
,219,2023-10-27 12:01:09.33,142,-341,-2041,-8,-6,-27,-122,-279,157,200
,220,2023-10-27 12:01:09.34,138,-349,-2037,-2,-14,-29,-196,-354,158,275
,221,2023-10-27 12:01:09.35,138,-351,-2035,0,-13,-28,-133,-284,151,208
,222,2023-10-27 12:01:09.36,130,-350,-2024,-5,-7,-28,-193,-351,158,272
,223,2023-10-27 12:01:09.37,123,-354,-2019,-9,2,-25,-134,-288,154,211
,224,2023-10-27 12:01:09.38,135,-354,-2024,-13,6,-23,-198,-351,153,274
,225,2023-10-27 12:01:09.39,128,-354,-2023,-18,18,-18,-140,-290,150,215
,226,2023-10-27 12:01:09.40,133,-357,-2019,-19,24,-15,-201,-353,152,277
,227,2023-10-27 12:01:09.41,140,-359,-2024,-21,22,-12,-141,-292,151,216
,228,2023-10-27 12:01:09.42,129,-356,-2028,-20,23,-9,-199,-352,153,275
,229,2023-10-27 12:01:09.43,135,-353,-2019,-18,18,-6,-143,-291,148,217
,230,2023-10-27 12:01:09.44,134,-351,-2031,-15,11,-5,-202,-349,147,275
,231,2023-10-27 12:01:09.45,128,-364,-2032,-12,4,-4,-147,-294,147,220
,232,2023-10-27 12:01:09.46,122,-359,-2040,-6,-2,2,-202,-348,146,275
,233,2023-10-27 12:01:09.47,117,-366,-2045,0,-12,6,-148,-294,146,221
,234,2023-10-27 12:01:09.48,131,-372,-2042,3,-23,14,-201,-350,149,275
,235,2023-10-27 12:01:09.49,117,-366,-2037,8,-18,20,-151,-299,148,225
,236,2023-10-27 12:01:09.50,112,-365,-2034,9,-6,25,-202,-353,151,277
,237,2023-10-27 12:01:09.51,124,-365,-2029,4,10,26,-151,-302,151,226
,238,2023-10-27 12:01:09.52,125,-363,-2020,2,23,23,-201,-348,147,274
,239,2023-10-27 12:01:09.53,127,-355,-2010,3,39,20,-152,-299,147,225
,240,2023-10-27 12:01:09.54,126,-350,-2015,7,47,15,-199,-349,150,274
,241,2023-10-27 12:01:09.55,127,-339,-2027,10,44,7,-153,-302,149,227
,242,2023-10-27 12:01:09.56,129,-344,-2045,12,37,1,-204,-355,151,279
,243,2023-10-27 12:01:09.57,131,-343,-2044,13,28,-1,-167,-311,144,239
,244,2023-10-27 12:01:09.58,126,-338,-2031,13,17,-4,-218,-361,143,289
,245,2023-10-27 12:01:09.59,132,-342,-2026,8,3,-10,-173,-314,141,243
,246,2023-10-27 12:01:09.60,123,-348,-2021,3,1,-11,-201,-353,152,277
,247,2023-10-27 12:01:09.61,116,-357,-2029,1,2,-7,-154,-307,153,230
,248,2023-10-27 12:01:09.62,124,-360,-2019,-2,2,-2,-190,-348,158,269
,249,2023-10-27 12:01:09.63,124,-362,-2013,-8,4,4,-160,-309,149,234
,250,2023-10-27 12:01:09.64,118,-357,-2022,-15,20,9,-189,-344,155,266
,251,2023-10-27 12:01:09.65,127,-359,-2036,-26,16,17,-152,-303,151,227
,252,2023-10-27 12:01:09.66,114,-356,-2038,-28,18,21,-170,-329,159,249
,253,2023-10-27 12:01:09.67,115,-357,-2032,-26,14,28,-152,-304,152,228
,254,2023-10-27 12:01:09.68,124,-342,-2038,-17,-5,28,-182,-338,156,260
,255,2023-10-27 12:01:09.69,130,-345,-2027,-15,-14,27,-164,-319,155,241
,256,2023-10-27 12:01:09.70,131,-334,-2023,-16,-11,26,-180,-338,158,259
,257,2023-10-27 12:01:09.71,130,-327,-2028,-10,-11,23,-159,-311,152,235
,258,2023-10-27 12:01:09.72,122,-325,-2034,-13,-2,15,-176,-332,156,254
,259,2023-10-27 12:01:09.73,126,-330,-2019,-7,-4,8,-163,-315,152,239
,260,2023-10-27 12:01:09.74,132,-321,-2037,-1,-9,5,-194,-344,150,269
,261,2023-10-27 12:01:09.75,136,-327,-2031,4,-17,-1,-187,-334,147,260
,262,2023-10-27 12:01:09.76,125,-337,-2033,12,-24,-6,-195,-345,150,270
,263,2023-10-27 12:01:09.77,133,-333,-2031,15,-17,-5,-170,-325,155,247
,264,2023-10-27 12:01:09.78,132,-344,-2026,20,-4,-9,-178,-335,157,256
,265,2023-10-27 12:01:09.79,126,-341,-2019,25,4,-6,-156,-316,160,236
,266,2023-10-27 12:01:09.80,137,-341,-2036,32,3,-8,-167,-326,159,246
,267,2023-10-27 12:01:09.81,134,-349,-2048,40,-4,-4,-152,-313,161,232
,268,2023-10-27 12:01:09.82,155,-366,-2048,50,-12,6,-159,-320,161,239
,269,2023-10-27 12:01:09.83,128,-359,-2053,64,-29,21,-144,-308,164,226
,270,2023-10-27 12:01:09.84,145,-359,-2045,77,-44,32,-151,-317,166,234
,271,2023-10-27 12:01:09.85,138,-366,-2034,86,-48,48,-147,-315,168,231
,272,2023-10-27 12:01:09.86,130,-361,-2028,95,-51,61,-163,-325,162,244
,273,2023-10-27 12:01:09.87,116,-367,-2029,106,-48,75,-165,-323,158,244
,274,2023-10-27 12:01:09.88,136,-368,-2016,117,-56,86,-173,-332,159,252
,275,2023-10-27 12:01:09.89,121,-356,-2006,125,-55,88,-174,-333,159,253
,276,2023-10-27 12:01:09.90,103,-360,-2003,126,-51,90,-181,-341,160,261
,277,2023-10-27 12:01:09.91,104,-358,-2008,122,-40,87,-180,-328,148,254
,278,2023-10-27 12:01:09.92,95,-360,-2015,111,-27,80,-165,-353,188,259
,279,2023-10-27 12:01:09.93,95,-366,-2008,92,-16,73,-142,-443,301,292
,280,2023-10-27 12:01:09.94,94,-355,-2016,73,-6,61,-122,-627,505,374
,281,2023-10-27 12:01:09.95,92,-368,-2014,58,1,49,-145,-749,604,447
,282,2023-10-27 12:01:09.96,85,-373,-2011,47,2,37,-145,-858,713,501
,283,2023-10-27 12:01:09.97,107,-384,-2022,43,-3,26,-170,-888,718,529
,284,2023-10-27 12:01:09.98,120,-385,-2020,33,-4,13,-164,-924,760,544
,285,2023-10-27 12:01:09.99,109,-388,-2025,25,-11,3,-180,-926,746,553
,286,2023-10-27 12:01:10.00,112,-391,-2031,17,-6,-1,-169,-958,789,563
,287,2023-10-27 12:01:10.01,97,-393,-2043,5,-2,-2,-190,-973,783,581
,288,2023-10-27 12:01:10.02,111,-400,-2045,0,-20,-8,-172,-996,824,584
,289,2023-10-27 12:01:10.03,112,-401,-2040,-3,-24,-2,-194,-1011,817,602
,290,2023-10-27 12:01:10.04,114,-389,-2033,-12,-25,0,-181,-1019,838,600
,291,2023-10-27 12:01:10.05,104,-379,-2031,-21,-22,2,-208,-1023,815,615
,292,2023-10-27 12:01:10.06,119,-375,-2030,-29,-22,4,-179,-1021,842,600
,293,2023-10-27 12:01:10.07,107,-375,-2028,-30,-14,8,-195,-1031,836,613
,294,2023-10-27 12:01:10.08,109,-367,-2028,-29,-16,6,-173,-1036,863,604
,295,2023-10-27 12:01:10.09,108,-367,-2018,-27,-11,8,-207,-1073,866,640
,296,2023-10-27 12:01:10.10,108,-372,-2021,-21,-16,10,-177,-1075,898,626
,297,2023-10-27 12:01:10.11,109,-366,-2021,-15,-15,12,-209,-1086,877,647
,298,2023-10-27 12:01:10.12,104,-370,-2018,-10,-22,13,-177,-1058,881,617
,299,2023-10-27 12:01:10.13,103,-359,-2020,-2,-26,10,-234,-1087,853,660
,300,2023-10-27 12:01:10.14,92,-368,-2017,5,-29,11,-195,-1060,865,627
,301,2023-10-27 12:01:10.15,105,-357,-2012,10,-28,8,-226,-1076,850,651
,302,2023-10-27 12:01:10.16,93,-363,-2007,11,-28,3,-181,-1040,859,610
,303,2023-10-27 12:01:10.17,99,-362,-2006,12,-26,-2,-222,-1065,843,643
,304,2023-10-27 12:01:10.18,94,-365,-2018,16,-27,-5,-179,-1032,853,605
,305,2023-10-27 12:01:10.19,100,-374,-2022,21,-28,-8,-224,-1059,835,641
,306,2023-10-27 12:01:10.20,102,-376,-2015,19,-25,-11,-184,-1025,841,604
,307,2023-10-27 12:01:10.21,104,-372,-2023,13,-23,-15,-227,-1059,832,643
,308,2023-10-27 12:01:10.22,107,-371,-2030,9,-15,-18,-187,-1025,838,606
,309,2023-10-27 12:01:10.23,99,-370,-2028,0,-6,-25,-229,-1068,839,648
,310,2023-10-27 12:01:10.24,101,-378,-2032,-3,3,-24,-192,-1025,833,608
,311,2023-10-27 12:01:10.25,106,-377,-2021,-4,2,-26,-238,-1077,839,657
,312,2023-10-27 12:01:10.26,104,-374,-2040,-8,6,-27,-185,-1035,850,610
,313,2023-10-27 12:01:10.27,100,-378,-2039,-7,-2,-28,-229,-1084,855,656
,314,2023-10-27 12:01:10.28,98,-373,-2045,-11,6,-24,-176,-1038,862,607
,315,2023-10-27 12:01:10.29,96,-386,-2034,-11,-5,-22,-218,-1096,878,657
,316,2023-10-27 12:01:10.30,100,-383,-2027,-6,-7,-15,-160,-1044,884,602
,317,2023-10-27 12:01:10.31,94,-371,-2035,-4,-7,-10,-216,-1098,882,657
,318,2023-10-27 12:01:10.32,83,-373,-2029,-5,-9,-6,-164,-1036,872,600
,319,2023-10-27 12:01:10.33,91,-375,-2021,-7,-17,-5,-224,-1088,864,656
,320,2023-10-27 12:01:10.34,96,-360,-2021,-2,-22,-3,-169,-1028,859,598
,321,2023-10-27 12:01:10.35,91,-359,-2025,-2,-12,-5,-228,-1080,852,654
,322,2023-10-27 12:01:10.36,90,-366,-2023,-4,-2,-8,-174,-1015,841,594
,323,2023-10-27 12:01:10.37,93,-367,-2021,-3,2,-13,-246,-1082,836,664
,324,2023-10-27 12:01:10.38,91,-371,-2019,8,-11,-16,-188,-1013,825,600
,325,2023-10-27 12:01:10.39,91,-370,-2011,23,-18,-21,-232,-1063,831,647
,326,2023-10-27 12:01:10.40,96,-359,-2023,24,-18,-25,-155,-990,835,572
,327,2023-10-27 12:01:10.41,80,-363,-2022,21,-10,-29,-204,-1057,853,630
,328,2023-10-27 12:01:10.42,105,-366,-2020,19,-5,-35,-134,-992,858,563
,329,2023-10-27 12:01:10.43,92,-360,-2026,17,3,-46,-186,-1066,880,626
,330,2023-10-27 12:01:10.44,101,-374,-2019,13,3,-53,-121,-1005,884,563
,331,2023-10-27 12:01:10.45,105,-376,-2013,11,8,-58,-192,-1094,902,643
,332,2023-10-27 12:01:10.46,104,-368,-2019,8,6,-63,-125,-1022,897,573
,333,2023-10-27 12:01:10.47,119,-373,-2016,1,17,-65,-190,-1097,907,643
,334,2023-10-27 12:01:10.48,108,-374,-2022,-3,21,-68,-112,-1007,895,559
,335,2023-10-27 12:01:10.49,110,-376,-2031,-8,16,-63,-182,-1081,899,631
,336,2023-10-27 12:01:10.50,109,-373,-2036,-13,8,-60,-104,-989,885,546
,337,2023-10-27 12:01:10.51,105,-375,-2039,-17,6,-51,-60,-1057,997,558
,338,2023-10-27 12:01:10.52,104,-371,-2040,-20,-5,-47,81,-966,1047,442
,339,2023-10-27 12:01:10.53,106,-378,-2042,-24,-10,-40,60,-1061,1121,500
,340,2023-10-27 12:01:10.54,107,-389,-2039,-23,-13,-34,81,-993,1074,456
,341,2023-10-27 12:01:10.55,106,-386,-2039,-19,-18,-22,-37,-1087,1050,562
,342,2023-10-27 12:01:10.56,107,-377,-2024,-17,-16,-12,-6,-984,978,495
,343,2023-10-27 12:01:10.57,90,-370,-2023,-17,-21,-8,-102,-1058,956,580
,344,2023-10-27 12:01:10.58,101,-364,-2022,-16,-12,-2,-41,-927,886,484
,345,2023-10-27 12:01:10.59,95,-364,-2019,-17,-6,2,-124,-1008,884,566
,346,2023-10-27 12:01:10.60,91,-366,-2022,-18,1,3,-69,-907,838,488
,347,2023-10-27 12:01:10.61,106,-366,-2022,-11,-5,7,-154,-1003,849,578
,348,2023-10-27 12:01:10.62,110,-356,-2019,-6,-10,7,-84,-882,798,483
,349,2023-10-27 12:01:10.63,107,-351,-2016,-8,4,10,-40,-918,878,479
,350,2023-10-27 12:01:10.64,101,-366,-2021,-12,6,4,102,-768,870,333
,351,2023-10-27 12:01:10.65,105,-358,-2024,-2,-8,3,121,-853,974,366
,352,2023-10-27 12:01:10.66,102,-352,-2031,8,-18,2,158,-777,935,309
,353,2023-10-27 12:01:10.67,103,-356,-2036,4,-11,-3,80,-896,976,408
,354,2023-10-27 12:01:10.68,97,-353,-2035,-4,8,-8,91,-801,892,355
,355,2023-10-27 12:01:10.69,102,-367,-2018,-4,10,-8,15,-894,909,439
,356,2023-10-27 12:01:10.70,107,-371,-2028,6,5,-7,45,-785,830,370
,357,2023-10-27 12:01:10.71,113,-358,-2031,14,2,-9,-29,-893,864,461
,358,2023-10-27 12:01:10.72,104,-349,-2031,10,14,-14,9,-806,815,398
,359,2023-10-27 12:01:10.73,102,-363,-2029,9,12,-16,-74,-916,842,495
,360,2023-10-27 12:01:10.74,103,-371,-2040,16,17,-16,-35,-811,776,423
,361,2023-10-27 12:01:10.75,114,-364,-2034,17,3,-14,-119,-910,791,514
,362,2023-10-27 12:01:10.76,95,-354,-2029,18,-7,-14,-67,-801,734,434
,363,2023-10-27 12:01:10.77,110,-337,-2015,16,3,-13,-129,-933,804,531
,364,2023-10-27 12:01:10.78,103,-353,-2015,8,6,-19,-71,-863,792,467
,365,2023-10-27 12:01:10.79,97,-360,-2039,4,0,-18,-154,-996,842,575
,366,2023-10-27 12:01:10.80,111,-367,-2050,9,-10,-11,-95,-898,803,496
,367,2023-10-27 12:01:10.81,88,-367,-2049,2,1,-7,-168,-1015,847,591
,368,2023-10-27 12:01:10.82,94,-374,-2041,-2,-3,-3,-98,-912,814,505
,369,2023-10-27 12:01:10.83,93,-378,-2037,3,-15,3,-177,-1016,839,596
,370,2023-10-27 12:01:10.84,100,-383,-2029,13,-23,9,-114,-897,783,505
,371,2023-10-27 12:01:10.85,95,-370,-2034,16,-20,14,-200,-1003,803,601
,372,2023-10-27 12:01:10.86,93,-366,-2022,12,-9,16,-124,-876,752,500
,373,2023-10-27 12:01:10.87,94,-372,-2024,15,4,16,-191,-997,806,594
,374,2023-10-27 12:01:10.88,107,-366,-2024,18,4,15,-124,-903,779,513
,375,2023-10-27 12:01:10.89,99,-367,-2021,24,2,12,-210,-1029,819,619
,376,2023-10-27 12:01:10.90,98,-362,-2042,29,11,12,-158,-926,768,542
,377,2023-10-27 12:01:10.91,104,-352,-2053,23,13,7,-249,-1036,787,642
,378,2023-10-27 12:01:10.92,111,-369,-2058,20,4,4,-190,-917,727,553
,379,2023-10-27 12:01:10.93,119,-368,-2053,18,2,1,-280,-1016,736,648
,380,2023-10-27 12:01:10.94,105,-364,-2060,17,-7,1,-214,-884,670,549
,381,2023-10-27 12:01:10.95,105,-370,-2049,15,-13,3,-289,-1012,723,650
,382,2023-10-27 12:01:10.96,108,-375,-2055,10,-12,8,-217,-913,696,565
,383,2023-10-27 12:01:10.97,109,-379,-2046,5,-9,12,-301,-1028,727,664
,384,2023-10-27 12:01:10.98,106,-364,-2056,2,-12,18,-251,-901,650,576
,385,2023-10-27 12:01:10.99,106,-359,-2034,-4,4,18,-358,-989,631,673
,386,2023-10-27 12:01:11.00,111,-357,-2018,-8,9,19,-304,-857,553,580
,387,2023-10-27 12:01:11.01,105,-357,-2004,-6,15,21,-398,-956,558,677
,388,2023-10-27 12:01:11.02,120,-364,-1995,3,21,24,-330,-838,508,584
,389,2023-10-27 12:01:11.03,122,-350,-1992,14,26,23,-411,-926,515,668
,390,2023-10-27 12:01:11.04,109,-349,-1998,22,27,17,-334,-803,469,568
,391,2023-10-27 12:01:11.05,120,-357,-2008,31,35,13,-400,-905,505,652
,392,2023-10-27 12:01:11.06,111,-360,-2023,39,30,12,-315,-805,490,560
,393,2023-10-27 12:01:11.07,113,-365,-2041,45,21,14,-367,-930,563,648
,394,2023-10-27 12:01:11.08,115,-356,-2063,40,16,11,-286,-839,553,562
,395,2023-10-27 12:01:11.09,108,-365,-2057,37,4,11,-339,-933,594,636
,396,2023-10-27 12:01:11.10,105,-365,-2075,34,-2,14,-261,-821,560,541
,397,2023-10-27 12:01:11.11,105,-374,-2070,37,-10,14,-304,-880,576,592
,398,2023-10-27 12:01:11.12,95,-376,-2074,33,-12,13,-214,-748,534,481
,399,2023-10-27 12:01:11.13,99,-379,-2055,32,-8,18,-239,-831,592,535
,400,2023-10-27 12:01:11.14,108,-381,-2040,39,-9,13,-168,-746,578,457
,401,2023-10-27 12:01:11.15,96,-376,-2017,42,-2,12,-208,-880,672,544
,402,2023-10-27 12:01:11.16,106,-370,-2007,47,4,10,-166,-820,654,493
,403,2023-10-27 12:01:11.17,103,-362,-2003,50,12,9,-232,-904,672,568
,404,2023-10-27 12:01:11.18,107,-354,-2004,47,19,7,-192,-776,584,484
,405,2023-10-27 12:01:11.19,92,-354,-2009,38,23,6,-243,-808,565,525
,406,2023-10-27 12:01:11.20,99,-347,-2013,25,15,0,-202,-691,489,446
,407,2023-10-27 12:01:11.21,83,-345,-2013,13,5,-1,-257,-766,509,511
,408,2023-10-27 12:01:11.22,96,-346,-1991,3,-2,0,-220,-687,467,453
,409,2023-10-27 12:01:11.23,95,-341,-1974,-1,-6,-7,-276,-764,488,520
,410,2023-10-27 12:01:11.24,89,-345,-1977,-7,-9,-10,-249,-689,440,469
,411,2023-10-27 12:01:11.25,100,-351,-1972,-4,-15,-15,-313,-749,436,531
,412,2023-10-27 12:01:11.26,90,-354,-1972,-1,-6,-17,-286,-657,371,471
,413,2023-10-27 12:01:11.27,85,-364,-1988,2,-2,-18,-344,-702,358,523
,414,2023-10-27 12:01:11.28,94,-369,-2005,3,-10,-14,-315,-628,313,471
,415,2023-10-27 12:01:11.29,76,-377,-2027,13,-25,-14,-370,-682,312,526
,416,2023-10-27 12:01:11.30,76,-381,-2038,21,-43,-6,-331,-603,272,467
,417,2023-10-27 12:01:11.31,90,-373,-2047,21,-57,0,-375,-646,271,510
,418,2023-10-27 12:01:11.32,83,-370,-2036,14,-48,1,-332,-582,250,457
,419,2023-10-27 12:01:11.33,83,-367,-2018,5,-32,4,-361,-673,312,517
,420,2023-10-27 12:01:11.34,93,-376,-2000,4,-12,8,-316,-645,329,480
,421,2023-10-27 12:01:11.35,79,-381,-1993,10,8,6,-322,-735,413,528
,422,2023-10-27 12:01:11.36,85,-390,-1989,21,17,4,-262,-696,434,479
,423,2023-10-27 12:01:11.37,84,-386,-1997,37,17,5,-248,-791,543,519
,424,2023-10-27 12:01:11.38,91,-383,-1995,49,19,7,-185,-752,567,468
,425,2023-10-27 12:01:11.39,84,-387,-2018,57,17,9,-171,-897,726,534
,426,2023-10-27 12:01:11.40,79,-364,-2025,47,33,13,-114,-892,778,503
,427,2023-10-27 12:01:11.41,100,-357,-2048,23,45,8,-79,-1006,927,542
,428,2023-10-27 12:01:11.42,125,-344,-2035,6,45,1,-40,-958,918,499
,429,2023-10-27 12:01:11.43,131,-317,-2033,-10,43,-20,-21,-1014,993,517
,430,2023-10-27 12:01:11.44,147,-314,-2040,-25,51,-45,0,-949,949,474
,431,2023-10-27 12:01:11.45,149,-310,-2046,-39,52,-67,24,-1005,1029,490
,432,2023-10-27 12:01:11.46,143,-340,-2043,-37,47,-88,28,-944,972,458
,433,2023-10-27 12:01:11.47,137,-347,-2025,-22,33,-104,31,-972,1003,470
,434,2023-10-27 12:01:11.48,133,-350,-1998,-14,11,-111,6,-903,909,448
,435,2023-10-27 12:01:11.49,123,-383,-1999,6,0,-111,-14,-931,917,472
,436,2023-10-27 12:01:11.50,111,-387,-2011,20,-17,-108,-30,-884,854,457
,437,2023-10-27 12:01:11.51,98,-385,-2032,25,-37,-102,-19,-904,885,461
,438,2023-10-27 12:01:11.52,83,-382,-2036,25,-56,-89,-29,-840,811,434
,439,2023-10-27 12:01:11.53,81,-368,-2047,9,-66,-83,-38,-851,813,444
,440,2023-10-27 12:01:11.54,69,-367,-2062,-13,-61,-74,-66,-808,742,437
,441,2023-10-27 12:01:11.55,63,-379,-2039,-30,-61,-67,-82,-818,736,450
,442,2023-10-27 12:01:11.56,50,-377,-2025,-38,-61,-59,-87,-766,679,426
,443,2023-10-27 12:01:11.57,59,-365,-2008,-37,-68,-52,-79,-773,694,426
,444,2023-10-27 12:01:11.58,65,-360,-1995,-33,-61,-51,-91,-764,673,427
,445,2023-10-27 12:01:11.59,70,-369,-2005,-23,-46,-50,-107,-847,740,477
,446,2023-10-27 12:01:11.60,69,-373,-2017,-9,-42,-51,-129,-871,742,500
,447,2023-10-27 12:01:11.61,68,-378,-2016,15,-31,-47,-110,-910,800,510
,448,2023-10-27 12:01:11.62,72,-386,-2034,30,-22,-48,-119,-881,762,500
,449,2023-10-27 12:01:11.63,77,-380,-2039,41,-11,-51,-104,-870,766,487
,450,2023-10-27 12:01:11.64,92,-378,-2028,48,10,-49,-147,-840,693,493
,451,2023-10-27 12:01:11.65,77,-385,-2031,53,27,-48,-148,-804,656,476
,452,2023-10-27 12:01:11.66,92,-382,-2033,54,40,-52,-171,-761,590,466
,453,2023-10-27 12:01:11.67,88,-392,-2023,52,47,-47,-146,-745,599,445
,454,2023-10-27 12:01:11.68,101,-388,-2021,53,54,-41,-164,-760,596,462
,455,2023-10-27 12:01:11.69,99,-377,-2014,44,60,-41,-159,-790,631,474
,456,2023-10-27 12:01:11.70,118,-374,-2002,31,64,-42,-212,-832,620,522
,457,2023-10-27 12:01:11.71,110,-379,-2008,22,71,-47,-192,-812,620,502
,458,2023-10-27 12:01:11.72,119,-372,-2022,17,65,-47,-201,-786,585,493
,459,2023-10-27 12:01:11.73,130,-384,-2027,16,53,-52,-156,-767,611,461
,460,2023-10-27 12:01:11.74,125,-388,-2047,13,43,-47,-181,-791,610,486
,461,2023-10-27 12:01:11.75,127,-380,-2043,3,35,-46,-184,-798,614,491
,462,2023-10-27 12:01:11.76,127,-372,-2032,-4,30,-45,-232,-840,608,536
,463,2023-10-27 12:01:11.77,125,-375,-2032,-15,31,-45,-217,-836,619,526
,464,2023-10-27 12:01:11.78,130,-364,-2025,-24,25,-42,-241,-848,607,544
,465,2023-10-27 12:01:11.79,131,-359,-2026,-23,6,-41,-199,-824,625,511
,466,2023-10-27 12:01:11.80,124,-352,-2024,-23,-10,-40,-234,-856,622,545
,467,2023-10-27 12:01:11.81,127,-360,-2043,-28,-15,-37,-201,-844,643,522
,468,2023-10-27 12:01:11.82,131,-352,-2035,-31,-10,-30,-242,-889,647,565
,469,2023-10-27 12:01:11.83,131,-352,-2036,-40,-1,-26,-208,-875,667,541
,470,2023-10-27 12:01:11.84,138,-374,-2037,-35,-2,-24,-238,-906,668,572
,471,2023-10-27 12:01:11.85,134,-368,-2027,-24,-5,-19,-183,-864,681,523
,472,2023-10-27 12:01:11.86,149,-372,-2012,-8,-4,-10,-211,-869,658,540
,473,2023-10-27 12:01:11.87,130,-373,-2019,10,-2,-5,-170,-813,643,491
,474,2023-10-27 12:01:11.88,146,-375,-2028,26,0,-3,-227,-834,607,530
,475,2023-10-27 12:01:11.89,143,-373,-2028,37,4,1,-193,-777,584,485
,476,2023-10-27 12:01:11.90,130,-379,-2044,43,8,8,-254,-805,551,529
,477,2023-10-27 12:01:11.91,130,-391,-2050,46,5,15,-216,-731,515,473
,478,2023-10-27 12:01:11.92,124,-391,-2053,48,-4,25,-251,-781,530,516
,479,2023-10-27 12:01:11.93,124,-380,-2047,49,-12,33,-190,-775,585,482
,480,2023-10-27 12:01:11.94,134,-380,-2040,46,-23,34,-230,-862,632,546
,481,2023-10-27 12:01:11.95,125,-378,-2025,43,-31,34,-179,-846,667,512
,482,2023-10-27 12:01:11.96,128,-373,-2017,36,-37,28,-235,-909,674,572
,483,2023-10-27 12:01:11.97,121,-370,-2018,34,-39,26,-186,-853,667,519
,484,2023-10-27 12:01:11.98,112,-378,-2019,35,-48,23,-238,-897,659,567
,485,2023-10-27 12:01:11.99,103,-379,-2019,37,-64,17,-181,-839,658,510
,486,2023-10-27 12:01:12.00,96,-377,-2016,40,-70,15,-239,-904,665,571
,487,2023-10-27 12:01:12.01,107,-387,-2027,36,-79,11,-187,-861,674,524
,488,2023-10-27 12:01:12.02,93,-386,-2030,32,-83,9,-263,-922,659,592
,489,2023-10-27 12:01:12.03,96,-386,-2039,29,-85,12,-215,-836,621,525
,490,2023-10-27 12:01:12.04,89,-395,-2032,27,-88,21,-295,-874,579,584
,491,2023-10-27 12:01:12.05,88,-383,-2014,22,-83,24,-235,-774,539,504
,492,2023-10-27 12:01:12.06,85,-391,-2016,23,-74,28,-294,-828,534,561
,493,2023-10-27 12:01:12.07,73,-391,-2018,23,-83,29,-218,-769,551,493
,494,2023-10-27 12:01:12.08,67,-388,-2012,27,-85,35,-276,-854,578,565
,495,2023-10-27 12:01:12.09,75,-399,-2026,29,-83,46,-202,-772,570,487
,496,2023-10-27 12:01:12.10,69,-392,-2027,26,-65,53,-275,-813,538,544
,497,2023-10-27 12:01:12.11,60,-384,-2025,21,-54,57,-210,-687,477,448
,498,2023-10-27 12:01:12.12,52,-369,-2030,7,-46,63,-280,-724,444,502
,499,2023-10-27 12:01:12.13,53,-370,-2029,-8,-29,66,-204,-632,428,418
,500,2023-10-27 12:01:12.14,69,-359,-2017,-17,-19,68,-277,-697,420,487
,501,2023-10-27 12:01:12.15,55,-353,-2010,-18,-21,60,-196,-597,401,396
,502,2023-10-27 12:01:12.16,60,-352,-2018,-15,-22,53,-269,-631,362,450
,503,2023-10-27 12:01:12.17,65,-339,-2019,-7,-21,43,-193,-522,329,357
,504,2023-10-27 12:01:12.18,82,-331,-2027,-7,-14,30,-258,-597,339,427
,505,2023-10-27 12:01:12.19,63,-336,-2016,-8,0,16,-174,-512,338,343
,506,2023-10-27 12:01:12.20,73,-341,-2017,-8,5,2,-240,-569,329,404
,507,2023-10-27 12:01:12.21,73,-359,-2007,-1,10,-13,-168,-469,301,318
,508,2023-10-27 12:01:12.22,78,-359,-1994,12,12,-21,-247,-560,313,403
,509,2023-10-27 12:01:12.23,79,-350,-1993,24,14,-32,-179,-504,325,341
,510,2023-10-27 12:01:12.24,78,-356,-1987,32,25,-38,-266,-633,367,449
,511,2023-10-27 12:01:12.25,88,-359,-2005,37,21,-46,-203,-576,373,389
,512,2023-10-27 12:01:12.26,91,-372,-2024,40,22,-51,-281,-703,422,492
,513,2023-10-27 12:01:12.27,89,-387,-2041,37,11,-49,-208,-640,432,424
,514,2023-10-27 12:01:12.28,70,-405,-2054,39,8,-37,-280,-734,454,507
,515,2023-10-27 12:01:12.29,72,-415,-2056,39,-4,-25,-200,-624,424,412
,516,2023-10-27 12:01:12.30,72,-410,-2056,35,-12,-14,-255,-696,441,475
,517,2023-10-27 12:01:12.31,75,-416,-2055,30,-17,1,-169,-603,434,386
,518,2023-10-27 12:01:12.32,68,-417,-2040,25,-14,20,-238,-754,516,496
,519,2023-10-27 12:01:12.33,71,-417,-2023,24,-18,31,-173,-722,549,447
,520,2023-10-27 12:01:12.34,72,-399,-1998,19,-2,40,-261,-905,644,583
,521,2023-10-27 12:01:12.35,86,-399,-1994,19,4,44,-195,-859,664,527
,522,2023-10-27 12:01:12.36,73,-380,-2013,16,19,44,-270,-998,728,634
,523,2023-10-27 12:01:12.37,86,-374,-2023,17,18,46,-188,-902,714,545
,524,2023-10-27 12:01:12.38,82,-369,-2034,12,31,44,-262,-1008,746,635
,525,2023-10-27 12:01:12.39,87,-358,-2039,14,27,38,-179,-891,712,535
,526,2023-10-27 12:01:12.40,83,-366,-2024,17,25,31,-252,-1000,748,626
,527,2023-10-27 12:01:12.41,80,-376,-2019,25,21,22,-176,-905,729,540
,528,2023-10-27 12:01:12.42,94,-390,-2026,43,18,14,-247,-1034,787,640
,529,2023-10-27 12:01:12.43,94,-381,-2007,57,21,8,-164,-938,774,551
,530,2023-10-27 12:01:12.44,90,-372,-1983,64,23,-3,-235,-1063,828,649
,531,2023-10-27 12:01:12.45,121,-380,-1954,66,48,-10,-134,-942,808,538
,532,2023-10-27 12:01:12.46,111,-384,-1965,75,69,-18,-174,-997,823,585
,533,2023-10-27 12:01:12.47,113,-385,-1998,79,78,-27,-127,-936,809,531
,534,2023-10-27 12:01:12.48,101,-402,-2026,80,78,-26,-238,-1137,899,687
,535,2023-10-27 12:01:12.49,102,-410,-2042,73,77,-23,-161,-1058,897,609
,536,2023-10-27 12:01:12.50,93,-419,-2063,62,54,-19,-204,-1166,962,685
,537,2023-10-27 12:01:12.51,96,-428,-2069,51,33,-8,-119,-1037,918,578
,538,2023-10-27 12:01:12.52,93,-427,-2052,42,13,5,-206,-1155,949,680
,539,2023-10-27 12:01:12.53,90,-426,-2031,26,14,14,-131,-1026,895,578
,540,2023-10-27 12:01:12.54,100,-411,-2015,15,4,21,-195,-1143,948,669
,541,2023-10-27 12:01:12.55,98,-410,-1996,6,9,29,-123,-1028,905,575
,542,2023-10-27 12:01:12.56,100,-412,-1993,2,14,32,-218,-1149,931,683
,543,2023-10-27 12:01:12.57,99,-406,-2005,-5,23,31,-166,-1008,842,587
,544,2023-10-27 12:01:12.58,94,-408,-2019,-8,21,31,-231,-1093,862,662
,545,2023-10-27 12:01:12.59,108,-405,-2034,-7,19,31,-154,-949,795,551
,546,2023-10-27 12:01:12.60,116,-405,-2036,-10,28,34,-210,-1033,823,621
,547,2023-10-27 12:01:12.61,105,-419,-2024,-11,28,33,-146,-899,753,522
,548,2023-10-27 12:01:12.62,102,-419,-2019,-6,24,35,-214,-992,778,603
,549,2023-10-27 12:01:12.63,98,-418,-2012,11,17,43,-152,-866,714,509
,550,2023-10-27 12:01:12.64,122,-411,-2013,18,9,45,-223,-968,745,595
,551,2023-10-27 12:01:12.65,123,-399,-2021,25,11,47,-167,-859,692,513
,552,2023-10-27 12:01:12.66,119,-397,-2036,29,15,45,-242,-975,733,608
,553,2023-10-27 12:01:12.67,130,-404,-2038,32,10,46,-173,-865,692,519
,554,2023-10-27 12:01:12.68,119,-402,-2031,40,-3,44,-228,-1003,775,615
,555,2023-10-27 12:01:12.69,125,-392,-2031,44,-6,41,-171,-918,747,544
,556,2023-10-27 12:01:12.70,108,-377,-2032,35,-18,35,-246,-1032,786,639
,557,2023-10-27 12:01:12.71,113,-378,-2034,24,-17,28,-186,-898,712,542
,558,2023-10-27 12:01:12.72,124,-376,-2025,16,-15,19,-241,-997,756,619
,559,2023-10-27 12:01:12.73,119,-381,-2020,2,-8,10,-179,-888,709,533
,560,2023-10-27 12:01:12.74,98,-386,-2024,-10,-10,-2,-244,-1004,760,624
,561,2023-10-27 12:01:12.75,89,-390,-2036,-18,-22,-8,-191,-895,704,543
,562,2023-10-27 12:01:12.76,80,-391,-2045,-14,-34,-6,-256,-986,730,621
,563,2023-10-27 12:01:12.77,78,-401,-2035,-21,-39,-4,-195,-860,665,527
,564,2023-10-27 12:01:12.78,80,-405,-2025,-26,-36,-1,-250,-960,710,605
,565,2023-10-27 12:01:12.79,78,-415,-2024,-24,-33,5,-189,-865,676,527
,566,2023-10-27 12:01:12.80,63,-413,-2022,-10,-45,8,-252,-994,742,623
,567,2023-10-27 12:01:12.81,68,-422,-2010,17,-54,20,-200,-906,706,553
,568,2023-10-27 12:01:12.82,49,-417,-1997,42,-60,25,-260,-1026,766,643
,569,2023-10-27 12:01:12.83,53,-416,-1992,54,-64,26,-200,-932,732,566
,570,2023-10-27 12:01:12.84,44,-419,-1999,66,-57,30,-257,-1035,778,646
,571,2023-10-27 12:01:12.85,62,-424,-2008,78,-42,36,-201,-932,731,566
,572,2023-10-27 12:01:12.86,56,-425,-2011,80,-23,42,-260,-1012,752,636
,573,2023-10-27 12:01:12.87,54,-418,-2016,72,-8,46,-200,-887,687,543
,574,2023-10-27 12:01:12.88,56,-427,-2022,63,0,45,-249,-978,729,613
,575,2023-10-27 12:01:12.89,59,-415,-2015,52,17,50,-205,-893,688,549
,576,2023-10-27 12:01:12.90,58,-416,-2022,39,29,47,-261,-979,718,620
,577,2023-10-27 12:01:12.91,58,-413,-2018,24,38,46,-208,-863,655,535
,578,2023-10-27 12:01:12.92,77,-409,-2020,13,46,42,-251,-925,674,588
,579,2023-10-27 12:01:12.93,65,-405,-2021,-3,47,34,-202,-819,617,510
,580,2023-10-27 12:01:12.94,69,-400,-2018,-16,54,28,-245,-891,646,568
,581,2023-10-27 12:01:12.95,71,-398,-2023,-27,64,21,-203,-805,602,504
,582,2023-10-27 12:01:12.96,83,-383,-2024,-40,70,11,-240,-886,646,563
,583,2023-10-27 12:01:12.97,92,-387,-2020,-49,68,-4,-195,-804,609,499
,584,2023-10-27 12:01:12.98,93,-384,-2019,-53,71,-12,-235,-898,663,566
,585,2023-10-27 12:01:12.99,92,-388,-2019,-54,67,-25,-200,-830,630,515
,586,2023-10-27 12:01:13.00,105,-389,-2019,-50,67,-34,-237,-930,693,583
,587,2023-10-27 12:01:13.01,101,-388,-2025,-43,55,-37,-206,-862,656,534
,588,2023-10-27 12:01:13.02,114,-391,-2020,-33,52,-43,-240,-912,672,576
,589,2023-10-27 12:01:13.03,107,-390,-2018,-29,46,-45,-201,-813,612,507
,590,2023-10-27 12:01:13.04,114,-393,-2019,-22,39,-48,-220,-887,667,553
,591,2023-10-27 12:01:13.05,115,-393,-2011,-14,41,-48,-190,-839,649,514
,592,2023-10-27 12:01:13.06,131,-390,-2014,-9,42,-50,-220,-931,711,575
,593,2023-10-27 12:01:13.07,115,-393,-2015,-6,51,-46,-208,-878,670,543
,594,2023-10-27 12:01:13.08,109,-398,-2024,4,47,-42,-232,-925,693,578
,595,2023-10-27 12:01:13.09,129,-396,-2036,10,41,-39,-208,-843,635,525
,596,2023-10-27 12:01:13.10,120,-402,-2030,9,44,-29,-230,-864,634,547
,597,2023-10-27 12:01:13.11,111,-409,-2029,14,37,-20,-207,-795,588,501
,598,2023-10-27 12:01:13.12,118,-397,-2014,18,26,-5,-222,-867,645,544
,599,2023-10-27 12:01:13.13,123,-393,-2015,15,24,2,-194,-842,648,518
,600,2023-10-27 12:01:13.14,135,-393,-2018,9,29,7,-213,-934,721,573
,601,2023-10-27 12:01:13.15,127,-396,-2018,8,30,11,-205,-909,704,557
,602,2023-10-27 12:01:13.16,120,-397,-2022,7,27,13,-226,-955,729,590
,603,2023-10-27 12:01:13.17,120,-402,-2018,7,22,17,-216,-890,674,553
,604,2023-10-27 12:01:13.18,121,-402,-2027,6,19,17,-224,-887,663,555
,605,2023-10-27 12:01:13.19,130,-394,-2026,4,18,21,-201,-808,607,504
,606,2023-10-27 12:01:13.20,133,-395,-2028,1,16,19,-204,-853,649,528
,607,2023-10-27 12:01:13.21,117,-392,-2028,-6,22,21,-202,-833,631,517
,608,2023-10-27 12:01:13.22,117,-404,-2018,-9,20,20,-217,-862,645,539
,609,2023-10-27 12:01:13.23,119,-404,-2035,-6,6,14,-218,-810,592,514
,610,2023-10-27 12:01:13.24,123,-403,-2039,-6,1,18,-221,-812,591,516
,611,2023-10-27 12:01:13.25,126,-412,-2039,-1,-2,20,-211,-767,556,489
,612,2023-10-27 12:01:13.26,107,-413,-2034,-3,-17,18,-206,-800,594,503
,613,2023-10-27 12:01:13.27,113,-418,-2035,1,-19,23,-203,-793,590,498
,614,2023-10-27 12:01:13.28,108,-415,-2032,4,-25,29,-199,-874,675,536
,615,2023-10-27 12:01:13.29,106,-413,-2028,8,-30,32,-207,-902,695,554
,616,2023-10-27 12:01:13.30,97,-412,-2013,14,-29,34,-199,-955,756,577
,617,2023-10-27 12:01:13.31,94,-408,-2029,22,-34,36,-208,-940,732,574
,618,2023-10-27 12:01:13.32,78,-407,-2042,31,-34,44,-193,-940,747,566
,619,2023-10-27 12:01:13.33,94,-412,-2036,44,-39,44,-202,-905,703,553
,620,2023-10-27 12:01:13.34,93,-418,-2023,62,-39,47,-192,-909,717,550
,621,2023-10-27 12:01:13.35,108,-424,-2031,80,-23,47,-216,-897,681,556
,622,2023-10-27 12:01:13.36,113,-424,-2040,100,-8,45,-198,-901,703,549
,623,2023-10-27 12:01:13.37,105,-434,-2043,120,3,46,-220,-895,675,557
,624,2023-10-27 12:01:13.38,109,-447,-2032,134,38,44,-200,-887,687,543
,625,2023-10-27 12:01:13.39,117,-452,-2040,152,53,40,-222,-895,673,558
,626,2023-10-27 12:01:13.40,110,-451,-2029,170,67,38,-205,-942,737,573
,627,2023-10-27 12:01:13.41,117,-448,-2010,187,70,36,-231,-984,753,607
,628,2023-10-27 12:01:13.42,141,-455,-1969,200,92,33,-210,-992,782,601
,629,2023-10-27 12:01:13.43,144,-439,-1951,204,127,26,-218,-990,772,604
,630,2023-10-27 12:01:13.44,145,-441,-1944,204,154,10,-183,-977,794,580
,631,2023-10-27 12:01:13.45,140,-444,-1975,208,152,7,-190,-981,791,585
,632,2023-10-27 12:01:13.46,119,-463,-2012,202,159,4,-170,-982,812,576
,633,2023-10-27 12:01:13.47,126,-460,-2041,188,144,4,-212,-1010,798,611
,634,2023-10-27 12:01:13.48,121,-448,-2035,162,116,5,-195,-990,795,592
,635,2023-10-27 12:01:13.49,117,-473,-2021,128,105,9,-238,-996,758,617
,636,2023-10-27 12:01:13.50,108,-445,-2027,90,102,12,-206,-953,747,579
,637,2023-10-27 12:01:13.51,129,-427,-2036,45,71,16,-268,-954,686,611
,638,2023-10-27 12:01:13.52,129,-434,-2025,-2,60,19,-255,-902,647,578
,639,2023-10-27 12:01:13.53,121,-444,-2006,-33,43,17,-316,-908,592,612
,640,2023-10-27 12:01:13.54,121,-437,-2024,-48,54,16,-289,-861,572,575
,641,2023-10-27 12:01:13.55,119,-446,-2010,-73,56,14,-329,-883,554,606
,642,2023-10-27 12:01:13.56,110,-422,-2024,-93,47,5,-269,-849,580,559
,643,2023-10-27 12:01:13.57,126,-415,-2018,-94,17,-5,-301,-874,573,587
,644,2023-10-27 12:01:13.58,128,-396,-2025,-90,-1,-16,-238,-823,585,530
,645,2023-10-27 12:01:13.59,136,-385,-2032,-103,-11,-32,-270,-848,578,559
,646,2023-10-27 12:01:13.60,121,-401,-2072,-115,-13,-48,-204,-811,607,507
,647,2023-10-27 12:01:13.61,104,-412,-2052,-125,-6,-57,-257,-893,636,575
,648,2023-10-27 12:01:13.62,103,-413,-2048,-127,-24,-57,-210,-879,669,544
,649,2023-10-27 12:01:13.63,96,-423,-2053,-129,-27,-50,-260,-950,690,605
,650,2023-10-27 12:01:13.64,88,-369,-2061,-138,-38,-41,-191,-925,734,558
,651,2023-10-27 12:01:13.65,89,-340,-2026,-159,-50,-32,-238,-986,748,612
,652,2023-10-27 12:01:13.66,106,-316,-1999,-180,-53,-32,-175,-924,749,549
,653,2023-10-27 12:01:13.67,119,-287,-1967,-198,-54,-42,-231,-955,724,593
