// Data mode  : Full
// Data quality  : High
// Acceleration sensor's range  : 16g
// Gyroscope sensor's range  : 2000dps
//
//ARTIFACT,NUM,DATE,ACC_X,ACC_Y,ACC_Z,GYRO_X,GYRO_Y,GYRO_Z,EOG_L,EOG_R,EOG_H,EOG_V
,1,2023-10-20 13:55:59.38,341,-304,-1980,-18,44,-114,-634,-698,64,666
,2,2023-10-20 13:55:59.39,342,-315,-1980,-19,35,-122,-372,-793,421,582
,3,2023-10-20 13:55:59.40,333,-319,-2001,-26,31,-121,-624,-673,49,648
,4,2023-10-20 13:55:59.41,344,-315,-1997,-26,29,-121,-374,-724,350,549
,5,2023-10-20 13:55:59.42,350,-309,-2017,-20,23,-120,-629,-565,-64,597
,6,2023-10-20 13:55:59.43,351,-306,-2010,-17,9,-118,-381,-574,193,477
,7,2023-10-20 13:55:59.44,348,-294,-2014,-18,-1,-119,-625,-498,-127,561
,8,2023-10-20 13:55:59.45,336,-286,-2029,-23,-11,-116,-381,-677,296,529
,9,2023-10-20 13:55:59.46,347,-298,-2032,-35,-24,-107,-622,-610,-12,616
,10,2023-10-20 13:55:59.47,345,-298,-2037,-44,-25,-99,-381,-709,328,545
,11,2023-10-20 13:55:59.48,338,-289,-2027,-53,-24,-92,-620,-593,-27,606
,12,2023-10-20 13:55:59.49,338,-274,-2054,-55,-26,-79,-380,-723,343,551
,13,2023-10-20 13:55:59.50,348,-257,-2041,-79,-34,-64,-615,-628,13,621
,14,2023-10-20 13:55:59.51,350,-256,-2035,-100,-31,-62,-381,-759,378,570
,15,2023-10-20 13:55:59.52,324,-261,-2081,-108,-26,-56,-612,-653,41,632
,16,2023-10-20 13:55:59.53,340,-257,-2072,-101,-25,-49,-392,-786,394,589
,17,2023-10-20 13:55:59.54,338,-246,-2075,-101,-16,-43,-620,-651,31,635
,18,2023-10-20 13:55:59.55,329,-239,-2076,-109,-3,-35,-400,-727,327,563
,19,2023-10-20 13:55:59.56,327,-240,-2046,-107,11,-30,-612,-625,13,618
,20,2023-10-20 13:55:59.57,323,-223,-2020,-113,13,-20,-400,-791,391,595
,21,2023-10-20 13:55:59.58,331,-221,-1984,-125,19,-17,-604,-689,85,646
,22,2023-10-20 13:55:59.59,353,-199,-1973,-134,23,-26,-398,-805,407,601
,23,2023-10-20 13:55:59.60,349,-196,-1989,-149,41,-51,-598,-663,65,630
,24,2023-10-20 13:55:59.61,360,-170,-2008,-169,69,-70,-400,-780,380,590
,25,2023-10-20 13:55:59.62,344,-169,-2031,-194,83,-71,-591,-641,50,616
,26,2023-10-20 13:55:59.63,338,-158,-2000,-211,90,-79,-406,-745,339,575
,27,2023-10-20 13:55:59.64,334,-162,-2004,-224,89,-89,-591,-618,27,604
,28,2023-10-20 13:55:59.65,343,-150,-1977,-218,87,-108,-407,-757,350,582
,29,2023-10-20 13:55:59.66,362,-101,-1974,-211,76,-134,-585,-626,41,605
,30,2023-10-20 13:55:59.67,391,-77,-1988,-227,88,-163,-407,-742,335,574
,31,2023-10-20 13:55:59.68,385,-70,-2010,-250,113,-200,-579,-626,47,602
,32,2023-10-20 13:55:59.69,392,-69,-2053,-260,126,-229,-399,-766,367,582
,33,2023-10-20 13:55:59.70,407,-63,-2060,-239,108,-246,-566,-630,64,598
,34,2023-10-20 13:55:59.71,424,-96,-2052,-203,85,-257,-416,-736,320,576
,35,2023-10-20 13:55:59.72,423,-136,-2072,-160,66,-279,-572,-608,36,590
,36,2023-10-20 13:55:59.73,442,-146,-2080,-131,73,-296,-422,-745,323,583
,37,2023-10-20 13:55:59.74,474,-133,-2058,-109,86,-297,-559,-652,93,605
,38,2023-10-20 13:55:59.75,492,-121,-2044,-98,99,-306,-415,-817,402,616
,39,2023-10-20 13:55:59.76,498,-147,-2022,-81,115,-327,-548,-705,157,626
,40,2023-10-20 13:55:59.77,499,-174,-2044,-47,126,-348,-426,-827,401,626
,41,2023-10-20 13:55:59.78,476,-201,-2071,-2,131,-353,-549,-633,84,591
,42,2023-10-20 13:55:59.79,469,-250,-2056,59,114,-335,-430,-691,261,560
,43,2023-10-20 13:55:59.80,434,-316,-2000,138,95,-295,-542,-577,35,559
,44,2023-10-20 13:55:59.81,400,-348,-1988,227,68,-227,-432,-742,310,587
,45,2023-10-20 13:55:59.82,399,-386,-1959,301,33,-155,-540,-636,96,588
,46,2023-10-20 13:55:59.83,409,-369,-1941,346,-7,-82,-444,-763,319,603
,47,2023-10-20 13:55:59.84,379,-334,-1904,350,-17,-14,-539,-647,108,593
,48,2023-10-20 13:55:59.85,392,-318,-1925,356,-17,43,-449,-762,313,605
,49,2023-10-20 13:55:59.86,359,-329,-1974,362,-16,91,-533,-654,121,593
,50,2023-10-20 13:55:59.87,349,-327,-2029,335,-17,147,-458,-781,323,619
,51,2023-10-20 13:55:59.88,359,-306,-2050,285,-41,210,-533,-636,103,584
,52,2023-10-20 13:55:59.89,337,-321,-2073,250,-60,246,-465,-717,252,591
,53,2023-10-20 13:55:59.90,343,-318,-2105,237,-91,270,-522,-595,73,558
,54,2023-10-20 13:55:59.91,336,-323,-2119,230,-118,286,-460,-725,265,592
,55,2023-10-20 13:55:59.92,322,-334,-2137,211,-141,300,-509,-606,97,557
,56,2023-10-20 13:55:59.93,322,-308,-2174,165,-157,315,-472,-707,235,589
,57,2023-10-20 13:55:59.94,317,-305,-2167,122,-154,318,-516,-593,77,554
,58,2023-10-20 13:55:59.95,294,-303,-2189,97,-154,310,-474,-710,236,592
,59,2023-10-20 13:55:59.96,283,-277,-2169,93,-163,308,-499,-597,98,548
,60,2023-10-20 13:55:59.97,271,-269,-2083,78,-158,318,-480,-709,229,594
,61,2023-10-20 13:55:59.98,266,-238,-2045,54,-135,313,-502,-618,116,560
,62,2023-10-20 13:55:59.99,258,-215,-2045,25,-117,301,-486,-736,250,611
,63,2023-10-20 13:56:00.00,253,-202,-2051,5,-103,277,-493,-641,148,567
,64,2023-10-20 13:56:00.01,247,-167,-2054,-12,-96,252,-500,-754,254,627
,65,2023-10-20 13:56:00.02,236,-186,-2008,-30,-91,213,-497,-610,113,553
,66,2023-10-20 13:56:00.03,242,-195,-2023,-52,-97,182,-501,-681,180,591
,67,2023-10-20 13:56:00.04,250,-187,-1990,-78,-96,143,-486,-565,79,525
,68,2023-10-20 13:56:00.05,268,-188,-1939,-111,-78,124,-508,-670,162,589
,69,2023-10-20 13:56:00.06,267,-192,-1919,-120,-70,89,-478,-558,80,518
,70,2023-10-20 13:56:00.07,296,-172,-1949,-136,-45,67,-513,-655,142,584
,71,2023-10-20 13:56:00.08,309,-149,-2007,-146,-45,37,-476,-605,129,540
,72,2023-10-20 13:56:00.09,328,-126,-2089,-154,-59,-1,-525,-717,192,621
,73,2023-10-20 13:56:00.10,358,-116,-2107,-181,-67,-47,-476,-597,121,536
,74,2023-10-20 13:56:00.11,365,-159,-2120,-192,-58,-75,-530,-668,138,599
,75,2023-10-20 13:56:00.12,378,-292,-2078,-105,-26,-41,-468,-616,148,542
,76,2023-10-20 13:56:00.13,389,-332,-2063,-11,-8,12,-534,-731,197,632
,77,2023-10-20 13:56:00.14,373,-335,-2018,96,12,53,-466,-643,177,554
,78,2023-10-20 13:56:00.15,380,-380,-2017,190,22,109,-550,-698,148,624
,79,2023-10-20 13:56:00.16,321,-382,-2047,266,21,153,-465,-641,176,553
,80,2023-10-20 13:56:00.17,280,-371,-2080,294,-12,196,-552,-719,167,635
,81,2023-10-20 13:56:00.18,261,-316,-2060,292,-59,220,-457,-653,196,555
,82,2023-10-20 13:56:00.19,249,-264,-2062,263,-106,227,-558,-728,170,643
,83,2023-10-20 13:56:00.20,217,-239,-2020,198,-147,222,-448,-642,194,545
,84,2023-10-20 13:56:00.21,199,-257,-1984,138,-171,192,-556,-698,142,627
,85,2023-10-20 13:56:00.22,193,-257,-1939,80,-171,179,-450,-663,213,556
,86,2023-10-20 13:56:00.23,178,-291,-1933,28,-160,183,-568,-735,167,651
,87,2023-10-20 13:56:00.24,180,-299,-1936,-7,-129,188,-450,-650,200,550
,88,2023-10-20 13:56:00.25,152,-295,-1974,-35,-115,187,-573,-680,107,626
,89,2023-10-20 13:56:00.26,169,-316,-1937,-69,-80,181,-443,-578,135,510
,90,2023-10-20 13:56:00.27,183,-315,-1967,-85,-35,177,-581,-622,41,601
,91,2023-10-20 13:56:00.28,185,-255,-2010,-107,-3,167,-442,-594,152,518
,92,2023-10-20 13:56:00.29,223,-196,-1990,-136,30,153,-588,-667,79,627
,93,2023-10-20 13:56:00.30,236,-166,-2056,-153,56,123,-435,-633,198,534
,94,2023-10-20 13:56:00.31,251,-192,-2066,-168,85,93,-592,-688,96,640
,95,2023-10-20 13:56:00.32,253,-228,-2056,-158,99,83,-445,-696,251,570
,96,2023-10-20 13:56:00.33,268,-244,-2055,-132,107,94,-614,-736,122,675
,97,2023-10-20 13:56:00.34,280,-251,-2033,-93,106,117,-437,-658,221,547
,98,2023-10-20 13:56:00.35,287,-238,-2022,-52,96,138,-598,-652,54,625
,99,2023-10-20 13:56:00.36,334,-224,-2001,-23,92,164,-421,-596,175,508
,100,2023-10-20 13:56:00.37,346,-202,-2015,1,75,186,-606,-631,25,618
,101,2023-10-20 13:56:00.38,375,-191,-2010,-14,82,212,-420,-612,192,516
,102,2023-10-20 13:56:00.39,364,-165,-2031,-13,75,239,-611,-649,38,630
,103,2023-10-20 13:56:00.40,368,-167,-2005,-10,62,259,-417,-593,176,505
,104,2023-10-20 13:56:00.41,349,-166,-2013,-5,39,272,-616,-611,-5,613
,105,2023-10-20 13:56:00.42,333,-173,-2000,-6,21,289,-420,-649,229,534
,106,2023-10-20 13:56:00.43,314,-184,-1999,0,2,308,-626,-686,60,656
,107,2023-10-20 13:56:00.44,325,-206,-1965,14,-1,323,-418,-650,232,534
,108,2023-10-20 13:56:00.45,295,-216,-1942,37,19,333,-630,-638,8,634
,109,2023-10-20 13:56:00.46,279,-195,-1965,51,9,356,-421,-665,244,543
,110,2023-10-20 13:56:00.47,268,-160,-1974,35,16,367,-637,-684,47,660
,111,2023-10-20 13:56:00.48,247,-165,-1986,16,32,361,-408,-710,302,559
,112,2023-10-20 13:56:00.49,230,-164,-2039,2,28,355,-629,-701,72,665
,113,2023-10-20 13:56:00.50,228,-181,-2028,-16,31,344,-405,-729,324,567
,114,2023-10-20 13:56:00.51,226,-176,-2082,-35,31,327,-638,-707,69,672
,115,2023-10-20 13:56:00.52,228,-167,-2079,-59,37,304,-408,-725,317,566
,116,2023-10-20 13:56:00.53,238,-182,-2102,-79,45,270,-640,-690,50,665
,117,2023-10-20 13:56:00.54,247,-153,-2105,-79,53,236,-399,-684,285,541
,118,2023-10-20 13:56:00.55,271,-129,-2095,-92,71,200,-639,-644,5,641
,119,2023-10-20 13:56:00.56,271,-105,-2147,-120,95,153,-396,-676,280,536
,120,2023-10-20 13:56:00.57,284,-72,-2117,-132,98,92,-642,-661,19,651
,121,2023-10-20 13:56:00.58,288,-97,-2089,-139,93,33,-396,-721,325,558
,122,2023-10-20 13:56:00.59,315,-111,-2045,-128,83,-10,-647,-690,43,668
,123,2023-10-20 13:56:00.60,328,-135,-2032,-125,97,-60,-399,-757,358,578
,124,2023-10-20 13:56:00.61,324,-125,-2041,-96,91,-92,-646,-704,58,675
,125,2023-10-20 13:56:00.62,328,-123,-2050,-68,85,-122,-396,-733,337,564
,126,2023-10-20 13:56:00.63,339,-133,-2064,-55,73,-153,-653,-684,31,668
,127,2023-10-20 13:56:00.64,339,-120,-2048,-33,53,-181,-395,-782,387,588
,128,2023-10-20 13:56:00.65,337,-138,-2034,-11,36,-209,-647,-735,88,691
,129,2023-10-20 13:56:00.66,344,-171,-2036,9,23,-224,-388,-785,397,586
,130,2023-10-20 13:56:00.67,317,-193,-2040,43,5,-223,-645,-707,62,676
,131,2023-10-20 13:56:00.68,310,-209,-2041,84,-6,-218,-389,-754,365,571
,132,2023-10-20 13:56:00.69,318,-218,-2029,121,-26,-205,-646,-678,32,662
,133,2023-10-20 13:56:00.70,290,-212,-2032,151,-41,-196,-387,-728,341,557
,134,2023-10-20 13:56:00.71,277,-244,-2038,179,-38,-192,-650,-658,8,654
,135,2023-10-20 13:56:00.72,293,-245,-2044,193,-53,-171,-386,-734,348,560
,136,2023-10-20 13:56:00.73,281,-267,-2046,198,-56,-154,-644,-659,15,651
,137,2023-10-20 13:56:00.74,275,-234,-2110,185,-93,-132,-376,-739,363,557
,138,2023-10-20 13:56:00.75,264,-306,-2018,189,-64,-128,-644,-661,17,652
,139,2023-10-20 13:56:00.76,277,-319,-2028,209,-65,-113,-383,-704,321,543
,140,2023-10-20 13:56:00.77,273,-313,-2026,214,-62,-91,-649,-627,-22,638
,141,2023-10-20 13:56:00.78,277,-322,-2000,214,-38,-72,-380,-710,330,545
,142,2023-10-20 13:56:00.79,290,-320,-2024,226,-26,-56,-641,-649,8,645
,143,2023-10-20 13:56:00.80,284,-348,-2019,228,-9,-38,-379,-765,386,572
,144,2023-10-20 13:56:00.81,293,-336,-2026,224,-4,-17,-641,-672,31,656
,145,2023-10-20 13:56:00.82,275,-307,-2030,222,-9,-3,-383,-741,358,562
,146,2023-10-20 13:56:00.83,274,-302,-2014,213,-8,1,-644,-638,-6,641
,147,2023-10-20 13:56:00.84,298,-312,-2010,199,-3,7,-384,-723,339,553
,148,2023-10-20 13:56:00.85,305,-304,-1994,185,7,4,-642,-620,-22,631
,149,2023-10-20 13:56:00.86,302,-294,-2005,173,12,0,-382,-699,317,540
,150,2023-10-20 13:56:00.87,314,-298,-1983,154,27,2,-640,-619,-21,629
,151,2023-10-20 13:56:00.88,331,-297,-1958,124,42,13,-395,-753,358,574
,152,2023-10-20 13:56:00.89,321,-317,-2001,116,52,23,-645,-662,17,653
,153,2023-10-20 13:56:00.90,308,-323,-2030,108,48,42,-392,-755,363,573
,154,2023-10-20 13:56:00.91,298,-317,-2044,96,28,67,-638,-636,-2,637
,155,2023-10-20 13:56:00.92,288,-310,-2034,83,7,83,-396,-727,331,561
,156,2023-10-20 13:56:00.93,305,-299,-2031,70,-5,90,-637,-606,-31,621
,157,2023-10-20 13:56:00.94,309,-291,-2024,69,-16,81,-402,-686,284,544
,158,2023-10-20 13:56:00.95,326,-264,-2011,72,-27,64,-635,-585,-50,610
,159,2023-10-20 13:56:00.96,308,-269,-2005,61,-2,40,-395,-699,304,547
,160,2023-10-20 13:56:00.97,305,-269,-2038,42,12,16,-623,-617,-6,620
,161,2023-10-20 13:56:00.98,303,-277,-2023,28,1,4,-396,-759,363,577
,162,2023-10-20 13:56:00.99,277,-306,-2010,24,5,-6,-621,-638,17,629
,163,2023-10-20 13:56:01.00,287,-292,-2036,30,-3,-22,-398,-733,335,565
,164,2023-10-20 13:56:01.01,326,-284,-2054,9,-21,-42,-625,-603,-22,614
,165,2023-10-20 13:56:01.02,320,-291,-2022,-12,-20,-80,-402,-712,310,557
,166,2023-10-20 13:56:01.03,305,-292,-2011,-20,-16,-103,-619,-592,-27,605
,167,2023-10-20 13:56:01.04,303,-352,-1986,-39,-3,-113,-404,-702,298,553
,168,2023-10-20 13:56:01.05,290,-368,-2004,-28,5,-120,-616,-584,-32,600
,169,2023-10-20 13:56:01.06,271,-358,-2050,-15,-5,-115,-406,-729,323,567
,170,2023-10-20 13:56:01.07,245,-399,-2033,-6,-16,-109,-608,-577,-31,592
,171,2023-10-20 13:56:01.08,249,-360,-2069,13,-42,-93,-404,-632,228,518
,172,2023-10-20 13:56:01.09,274,-337,-2047,-11,-48,-82,-600,-534,-66,567
,173,2023-10-20 13:56:01.10,271,-377,-2018,-34,-31,-92,-405,-708,303,556
,174,2023-10-20 13:56:01.11,305,-360,-2010,-39,-21,-104,-589,-610,21,599
,175,2023-10-20 13:56:01.12,243,-367,-2025,-58,11,-113,-410,-722,312,566
,176,2023-10-20 13:56:01.13,242,-334,-2038,-54,36,-112,-592,-613,21,602
,177,2023-10-20 13:56:01.14,252,-254,-2033,-29,45,-132,-425,-769,344,597
,178,2023-10-20 13:56:01.15,252,-246,-2022,-44,31,-161,-595,-646,51,620
,179,2023-10-20 13:56:01.16,255,-258,-2007,-88,22,-208,-427,-753,326,590
,180,2023-10-20 13:56:01.17,254,-326,-1985,-122,15,-235,-585,-610,25,597
,181,2023-10-20 13:56:01.18,266,-363,-2012,-128,22,-225,-423,-749,326,586
,182,2023-10-20 13:56:01.19,273,-362,-2011,-141,42,-196,-576,-633,57,604
,183,2023-10-20 13:56:01.20,285,-342,-2013,-135,61,-166,-434,-768,334,601
,184,2023-10-20 13:56:01.21,286,-320,-1998,-113,76,-145,-582,-655,73,618
,185,2023-10-20 13:56:01.22,286,-282,-2016,-104,78,-132,-436,-800,364,618
,186,2023-10-20 13:56:01.23,293,-251,-2031,-113,69,-131,-567,-678,111,622
,187,2023-10-20 13:56:01.24,309,-241,-2008,-120,62,-139,-434,-787,353,610
,188,2023-10-20 13:56:01.25,298,-275,-1979,-131,56,-138,-565,-631,66,598
,189,2023-10-20 13:56:01.26,302,-272,-2021,-130,61,-120,-447,-733,286,590
,190,2023-10-20 13:56:01.27,326,-241,-2026,-106,49,-109,-559,-588,29,573
,191,2023-10-20 13:56:01.28,314,-226,-2032,-79,32,-109,-448,-692,244,570
,192,2023-10-20 13:56:01.29,315,-231,-2024,-85,51,-107,-554,-604,50,579
,193,2023-10-20 13:56:01.30,320,-253,-2050,-86,70,-94,-455,-764,309,609
,194,2023-10-20 13:56:01.31,321,-243,-2049,-78,83,-75,-550,-664,114,607
,195,2023-10-20 13:56:01.32,334,-262,-2014,-62,86,-58,-460,-790,330,625
,196,2023-10-20 13:56:01.33,341,-268,-2004,-52,84,-40,-552,-673,121,612
,197,2023-10-20 13:56:01.34,338,-252,-2040,-59,93,-20,-471,-790,319,630
,198,2023-10-20 13:56:01.35,346,-219,-2025,-69,106,1,-537,-692,155,614
,199,2023-10-20 13:56:01.36,364,-203,-2042,-77,119,6,-460,-815,355,637
,200,2023-10-20 13:56:01.37,375,-235,-2057,-90,120,-6,-527,-679,152,603
,201,2023-10-20 13:56:01.38,365,-217,-2065,-88,122,-19,-471,-770,299,620
,202,2023-10-20 13:56:01.39,363,-215,-2047,-79,115,-18,-530,-618,88,574
,203,2023-10-20 13:56:01.40,379,-216,-2030,-80,103,-6,-478,-701,223,589
,204,2023-10-20 13:56:01.41,397,-210,-1983,-87,96,0,-521,-605,84,563
,205,2023-10-20 13:56:01.42,395,-192,-1981,-91,105,5,-478,-748,270,613
,206,2023-10-20 13:56:01.43,412,-215,-1990,-88,122,6,-511,-680,169,595
,207,2023-10-20 13:56:01.44,387,-194,-2014,-88,141,6,-484,-800,316,642
,208,2023-10-20 13:56:01.45,382,-189,-2023,-81,126,10,-506,-664,158,585
,209,2023-10-20 13:56:01.46,397,-143,-2031,-95,108,6,-490,-730,240,610
,210,2023-10-20 13:56:01.47,401,-154,-2014,-103,86,-8,-500,-560,60,530
,211,2023-10-20 13:56:01.48,405,-205,-2037,-101,68,-22,-505,-640,135,572
,212,2023-10-20 13:56:01.49,392,-198,-2058,-107,58,-17,-505,-525,20,515
,213,2023-10-20 13:56:01.50,400,-179,-2063,-106,43,1,-509,-633,124,571
,214,2023-10-20 13:56:01.51,401,-203,-2037,-94,17,29,-495,-567,72,531
,215,2023-10-20 13:56:01.52,387,-163,-2062,-87,-7,51,-506,-693,187,599
,216,2023-10-20 13:56:01.53,381,-221,-2080,-83,-30,65,-486,-640,154,563
,217,2023-10-20 13:56:01.54,362,-202,-2117,-79,-56,84,-517,-752,235,634
,218,2023-10-20 13:56:01.55,367,-148,-2105,-96,-59,107,-484,-641,157,562
,219,2023-10-20 13:56:01.56,381,-157,-2099,-105,-74,119,-528,-701,173,614
,220,2023-10-20 13:56:01.57,380,-137,-2031,-107,-78,120,-474,-584,110,529
,221,2023-10-20 13:56:01.58,365,-128,-1997,-99,-70,105,-522,-671,149,596
,222,2023-10-20 13:56:01.59,361,-104,-2008,-98,-62,92,-469,-590,121,529
,223,2023-10-20 13:56:01.60,369,-72,-2006,-106,-53,71,-540,-680,140,610
,224,2023-10-20 13:56:01.61,353,-49,-2025,-114,-38,45,-470,-610,140,540
,225,2023-10-20 13:56:01.62,370,-34,-2020,-129,-36,16,-539,-699,160,619
,226,2023-10-20 13:56:01.63,368,-44,-2020,-144,-38,-14,-460,-650,190,555
,227,2023-10-20 13:56:01.64,369,-91,-2031,-161,-47,-24,-542,-730,188,636
,228,2023-10-20 13:56:01.65,360,-80,-2024,-171,-45,-21,-455,-647,192,551
,229,2023-10-20 13:56:01.66,345,-55,-2019,-160,-51,-14,-550,-692,142,621
,230,2023-10-20 13:56:01.67,360,-45,-2026,-151,-68,-14,-452,-611,159,531
,231,2023-10-20 13:56:01.68,367,-43,-2016,-148,-87,-26,-554,-671,117,612
,232,2023-10-20 13:56:01.69,388,-36,-2012,-145,-92,-49,-446,-634,188,540
,233,2023-10-20 13:56:01.70,398,-55,-2023,-134,-85,-69,-564,-702,138,633
,234,2023-10-20 13:56:01.71,386,-86,-2045,-113,-69,-80,-439,-626,187,532
,235,2023-10-20 13:56:01.72,389,-110,-2057,-91,-63,-69,-566,-664,98,615
,236,2023-10-20 13:56:01.73,370,-89,-2126,-71,-71,-49,-435,-634,199,534
,237,2023-10-20 13:56:01.74,373,-114,-2092,-78,-75,-34,-582,-713,131,647
,238,2023-10-20 13:56:01.75,372,-99,-2095,-69,-86,-26,-434,-685,251,559
,239,2023-10-20 13:56:01.76,367,-104,-2045,-52,-99,-23,-578,-715,137,646
,240,2023-10-20 13:56:01.77,356,-106,-2041,-44,-96,-21,-423,-593,170,508
,241,2023-10-20 13:56:01.78,346,-120,-2039,-28,-94,-22,-578,-613,35,595
,242,2023-10-20 13:56:01.79,343,-122,-2042,-14,-93,-20,-422,-610,188,516
,243,2023-10-20 13:56:01.80,333,-120,-2024,-10,-96,-16,-588,-683,95,635
,244,2023-10-20 13:56:01.81,350,-121,-2052,-15,-97,-5,-429,-609,180,519
,245,2023-10-20 13:56:01.82,324,-126,-2045,-25,-100,11,-598,-617,19,607
,246,2023-10-20 13:56:01.83,318,-110,-2029,-24,-111,26,-419,-536,117,477
,247,2023-10-20 13:56:01.84,331,-105,-2005,-23,-116,36,-594,-569,-25,581
,248,2023-10-20 13:56:01.85,331,-100,-1989,-13,-122,41,-412,-600,188,506
,249,2023-10-20 13:56:01.86,294,-83,-2022,0,-126,40,-601,-663,62,632
,250,2023-10-20 13:56:01.87,314,-81,-2036,2,-130,40,-410,-669,259,539
,251,2023-10-20 13:56:01.88,312,-99,-2030,1,-114,39,-607,-676,69,641
,252,2023-10-20 13:56:01.89,317,-80,-2042,-5,-112,37,-408,-603,195,505
,253,2023-10-20 13:56:01.90,318,-104,-2033,-6,-98,30,-613,-605,-8,609
,254,2023-10-20 13:56:01.91,320,-104,-2063,3,-86,37,-411,-589,178,500
,255,2023-10-20 13:56:01.92,311,-83,-2078,7,-86,47,-625,-617,-8,621
,256,2023-10-20 13:56:01.93,304,-94,-2083,1,-93,51,-410,-658,248,534
,257,2023-10-20 13:56:01.94,308,-87,-2080,-4,-113,55,-623,-679,56,651
,258,2023-10-20 13:56:01.95,300,-89,-2096,-11,-124,63,-408,-668,260,538
,259,2023-10-20 13:56:01.96,292,-78,-2075,-30,-138,72,-631,-648,17,639
,260,2023-10-20 13:56:01.97,286,-65,-2031,-42,-148,73,-405,-685,280,545
,261,2023-10-20 13:56:01.98,296,-88,-2026,-47,-161,69,-625,-677,52,651
,262,2023-10-20 13:56:01.99,274,-94,-2058,-44,-177,69,-396,-620,224,508
,263,2023-10-20 13:56:02.00,265,-72,-2064,-46,-184,76,-626,-582,-44,604
,264,2023-10-20 13:56:02.01,257,-57,-2092,-57,-185,79,-394,-601,207,497
,265,2023-10-20 13:56:02.02,240,-43,-2092,-75,-207,88,-629,-613,-16,621
,266,2023-10-20 13:56:02.03,225,-27,-2083,-100,-220,98,-388,-682,294,535
,267,2023-10-20 13:56:02.04,212,-34,-2047,-117,-234,100,-633,-672,39,652
,268,2023-10-20 13:56:02.05,213,-33,-2041,-118,-247,97,-389,-681,292,535
,269,2023-10-20 13:56:02.06,198,-23,-2019,-120,-256,95,-632,-622,-10,627
,270,2023-10-20 13:56:02.07,183,-13,-2024,-112,-253,89,-382,-610,228,496
,271,2023-10-20 13:56:02.08,171,10,-2048,-119,-255,89,-635,-587,-48,611
,272,2023-10-20 13:56:02.09,160,-1,-2026,-140,-247,89,-387,-690,303,538
,273,2023-10-20 13:56:02.10,155,-4,-2021,-141,-249,89,-642,-667,25,654
,274,2023-10-20 13:56:02.11,123,-21,-2041,-150,-263,76,-384,-686,302,535
,275,2023-10-20 13:56:02.12,132,-8,-2091,-177,-273,68,-635,-615,-20,625
,276,2023-10-20 13:56:02.13,113,-16,-2107,-205,-283,95,-383,-618,235,500
,277,2023-10-20 13:56:02.14,117,-12,-2108,-237,-292,110,-644,-573,-71,608
,278,2023-10-20 13:56:02.15,119,11,-2082,-256,-309,112,-397,-668,271,532
,279,2023-10-20 13:56:02.16,129,32,-2075,-278,-327,102,-647,-641,-6,644
,280,2023-10-20 13:56:02.17,168,43,-2089,-317,-326,87,-392,-731,339,561
,281,2023-10-20 13:56:02.18,163,71,-2074,-351,-293,71,-649,-652,3,650
,282,2023-10-20 13:56:02.19,170,76,-2023,-362,-265,66,-389,-677,288,533
,283,2023-10-20 13:56:02.20,182,51,-1994,-353,-240,60,-648,-586,-62,617
,284,2023-10-20 13:56:02.21,146,52,-2029,-333,-195,-8,-391,-652,261,521
,285,2023-10-20 13:56:02.22,125,67,-2039,-349,-179,-31,-646,-584,-62,615
,286,2023-10-20 13:56:02.23,131,106,-2045,-358,-161,-41,-385,-653,268,519
,287,2023-10-20 13:56:02.24,134,126,-2020,-352,-145,-61,-648,-596,-52,622
,288,2023-10-20 13:56:02.25,124,121,-2025,-342,-122,-89,-381,-675,294,528
,289,2023-10-20 13:56:02.26,121,103,-2037,-339,-98,-111,-643,-606,-37,624
,290,2023-10-20 13:56:02.27,115,117,-2007,-336,-64,-126,-383,-704,321,543
,291,2023-10-20 13:56:02.28,120,112,-1998,-318,-44,-133,-644,-621,-23,632
,292,2023-10-20 13:56:02.29,117,125,-2016,-294,-29,-136,-378,-692,314,535
,293,2023-10-20 13:56:02.30,124,77,-2017,-269,-15,-144,-641,-612,-29,626
,294,2023-10-20 13:56:02.31,131,146,-2033,-237,-6,-144,-385,-725,340,555
,295,2023-10-20 13:56:02.32,142,126,-2002,-216,-1,-148,-645,-618,-27,631
,296,2023-10-20 13:56:02.33,129,105,-2001,-204,29,-169,-386,-647,261,516
,297,2023-10-20 13:56:02.34,139,67,-2021,-188,53,-180,-639,-554,-85,596
,298,2023-10-20 13:56:02.35,140,34,-2058,-168,71,-174,-380,-668,288,524
,299,2023-10-20 13:56:02.36,139,-12,-2064,-130,73,-150,-630,-601,-29,615
,300,2023-10-20 13:56:02.37,173,-18,-2053,-84,73,-120,-380,-709,329,544
,301,2023-10-20 13:56:02.38,178,23,-2005,-63,81,-98,-630,-603,-27,616
,302,2023-10-20 13:56:02.39,166,-5,-2070,-59,103,-66,-382,-689,307,535
,303,2023-10-20 13:56:02.40,182,-1,-2073,-57,116,-35,-627,-569,-58,598
,304,2023-10-20 13:56:02.41,151,-29,-2130,-37,146,-6,-385,-652,267,518
,305,2023-10-20 13:56:02.42,138,29,-2127,-1,160,5,-626,-551,-75,588
,306,2023-10-20 13:56:02.43,139,59,-2110,62,153,-12,-386,-665,279,525
,307,2023-10-20 13:56:02.44,131,74,-2113,110,127,-32,-627,-567,-60,597
,308,2023-10-20 13:56:02.45,135,72,-2092,118,85,-42,-391,-674,283,532
,309,2023-10-20 13:56:02.46,127,74,-2066,87,65,-53,-625,-566,-59,595
,310,2023-10-20 13:56:02.47,126,65,-2024,69,43,-45,-391,-657,266,524
,311,2023-10-20 13:56:02.48,124,69,-2026,66,51,-18,-620,-519,-101,569
,312,2023-10-20 13:56:02.49,126,69,-2011,64,61,21,-395,-590,195,492
,313,2023-10-20 13:56:02.50,121,91,-2004,64,70,61,-617,-518,-99,567
,314,2023-10-20 13:56:02.51,126,107,-1993,73,84,85,-400,-694,294,547
,315,2023-10-20 13:56:02.52,130,98,-2017,75,98,94,-609,-587,-22,598
,316,2023-10-20 13:56:02.53,144,99,-2021,95,110,96,-390,-687,297,538
,317,2023-10-20 13:56:02.54,143,108,-2019,123,119,94,-600,-553,-47,576
,318,2023-10-20 13:56:02.55,147,76,-2048,136,131,105,-397,-654,257,525
,319,2023-10-20 13:56:02.56,151,81,-2075,143,148,121,-607,-562,-45,584
,320,2023-10-20 13:56:02.57,159,86,-2084,159,161,129,-407,-717,310,562
,321,2023-10-20 13:56:02.58,165,88,-2068,180,175,128,-598,-608,10,603
,322,2023-10-20 13:56:02.59,174,96,-2032,190,188,120,-396,-725,329,560
,323,2023-10-20 13:56:02.60,183,98,-2037,187,196,110,-579,-603,24,591
,324,2023-10-20 13:56:02.61,210,106,-2029,168,207,93,-404,-745,341,574
,325,2023-10-20 13:56:02.62,206,120,-2034,154,220,71,-586,-613,27,599
,326,2023-10-20 13:56:02.63,230,110,-2064,150,224,44,-420,-710,290,565
,327,2023-10-20 13:56:02.64,254,124,-2044,154,227,25,-588,-555,-33,571
,328,2023-10-20 13:56:02.65,244,117,-2034,167,227,5,-416,-658,242,537
,329,2023-10-20 13:56:02.66,268,94,-2026,175,233,-15,-572,-492,-80,532
,330,2023-10-20 13:56:02.67,284,66,-2023,187,239,-39,-417,-576,159,496
,331,2023-10-20 13:56:02.68,293,58,-2016,205,250,-60,-564,-437,-127,500
,332,2023-10-20 13:56:02.69,313,50,-2007,233,268,-71,-422,-557,135,489
,333,2023-10-20 13:56:02.70,315,59,-2018,257,290,-78,-561,-465,-96,513
,334,2023-10-20 13:56:02.71,326,50,-2026,279,302,-86,-432,-624,192,528
,335,2023-10-20 13:56:02.72,328,41,-2026,290,310,-96,-562,-551,-11,556
,336,2023-10-20 13:56:02.73,338,40,-2028,294,306,-109,-437,-727,290,582
,337,2023-10-20 13:56:02.74,326,22,-2073,312,289,-128,-552,-595,43,573
,338,2023-10-20 13:56:02.75,342,26,-2060,300,281,-138,-439,-699,260,569
,339,2023-10-20 13:56:02.76,339,-25,-2056,302,273,-138,-547,-587,40,567
,340,2023-10-20 13:56:02.77,334,-26,-2073,317,255,-128,-439,-734,295,586
,341,2023-10-20 13:56:02.78,339,-20,-2064,335,225,-126,-539,-618,79,578
,342,2023-10-20 13:56:02.79,351,-40,-2060,352,203,-132,-446,-737,291,591
,343,2023-10-20 13:56:02.80,341,-51,-2061,367,182,-140,-540,-614,74,577
,344,2023-10-20 13:56:02.81,344,-57,-2068,384,161,-151,-455,-744,289,599
,345,2023-10-20 13:56:02.82,352,-80,-2059,390,146,-148,-535,-623,88,579
,346,2023-10-20 13:56:02.83,349,-99,-2068,391,134,-127,-460,-740,280,600
,347,2023-10-20 13:56:02.84,327,-123,-2080,401,115,-105,-526,-610,84,568
,348,2023-10-20 13:56:02.85,330,-124,-2090,414,100,-79,-466,-718,252,592
,349,2023-10-20 13:56:02.86,316,-122,-2069,442,83,-53,-520,-608,88,564
,350,2023-10-20 13:56:02.87,302,-132,-2076,479,50,-33,-469,-725,256,597
,351,2023-10-20 13:56:02.88,277,-163,-2098,486,26,-14,-513,-615,102,564
,352,2023-10-20 13:56:02.89,278,-176,-2088,473,2,16,-473,-733,260,603
,353,2023-10-20 13:56:02.90,267,-162,-2076,469,-27,28,-508,-628,120,568
,354,2023-10-20 13:56:02.91,282,-172,-2077,458,-42,40,-480,-746,266,613
,355,2023-10-20 13:56:02.92,258,-169,-2066,433,-44,52,-502,-640,138,571
,356,2023-10-20 13:56:02.93,263,-190,-2078,412,-56,74,-481,-747,266,614
,357,2023-10-20 13:56:02.94,249,-210,-2096,385,-71,88,-491,-640,149,565
,358,2023-10-20 13:56:02.95,223,-170,-2127,339,-84,115,-485,-743,258,614
,359,2023-10-20 13:56:02.96,243,-213,-2052,282,-82,147,-490,-652,162,571
,360,2023-10-20 13:56:02.97,251,-205,-2020,247,-92,173,-498,-763,265,630
,361,2023-10-20 13:56:02.98,252,-206,-2000,243,-96,179,-486,-630,144,558
,362,2023-10-20 13:56:02.99,258,-179,-1977,240,-77,184,-501,-706,205,603
,363,2023-10-20 13:56:03.00,259,-169,-2032,210,-57,187,-478,-607,129,542
,364,2023-10-20 13:56:03.01,245,-232,-2010,177,-27,177,-505,-710,205,607
,365,2023-10-20 13:56:03.02,241,-231,-2062,173,-26,161,-474,-622,148,548
,366,2023-10-20 13:56:03.03,245,-252,-2078,171,-37,160,-510,-701,191,605
,367,2023-10-20 13:56:03.04,250,-235,-2080,162,-39,167,-469,-589,120,529
,368,2023-10-20 13:56:03.05,251,-221,-2066,149,-42,174,-520,-672,152,596
,369,2023-10-20 13:56:03.06,255,-193,-2029,149,-47,172,-465,-607,142,536
,370,2023-10-20 13:56:03.07,266,-202,-1984,136,-36,155,-530,-705,175,617
,371,2023-10-20 13:56:03.08,268,-215,-1986,124,-27,137,-462,-629,167,545
,372,2023-10-20 13:56:03.09,268,-233,-2002,116,-21,116,-531,-707,176,619
,373,2023-10-20 13:56:03.10,249,-249,-2024,120,-15,106,-446,-584,138,515
,374,2023-10-20 13:56:03.11,257,-240,-2040,122,-13,105,-530,-651,121,590
,375,2023-10-20 13:56:03.12,248,-247,-2048,121,-12,103,-444,-571,127,507
,376,2023-10-20 13:56:03.13,236,-227,-2061,110,-20,99,-539,-653,114,596
,377,2023-10-20 13:56:03.14,250,-230,-2042,94,-25,96,-441,-576,135,508
,378,2023-10-20 13:56:03.15,235,-209,-2035,87,-32,85,-548,-646,98,597
,379,2023-10-20 13:56:03.16,242,-212,-1999,91,-33,71,-446,-605,159,525
,380,2023-10-20 13:56:03.17,246,-228,-2013,78,-24,58,-557,-684,127,620
,381,2023-10-20 13:56:03.18,253,-221,-2006,68,-11,45,-435,-594,159,514
,382,2023-10-20 13:56:03.19,259,-220,-2021,67,-3,38,-559,-641,82,600
,383,2023-10-20 13:56:03.20,252,-235,-2027,77,7,35,-432,-601,169,516
,384,2023-10-20 13:56:03.21,252,-246,-2033,86,18,30,-569,-670,101,619
,385,2023-10-20 13:56:03.22,240,-225,-2110,91,14,33,-431,-626,195,528
,386,2023-10-20 13:56:03.23,247,-239,-2047,84,14,29,-569,-671,102,620
,387,2023-10-20 13:56:03.24,267,-247,-2024,83,11,25,-425,-653,228,539
,388,2023-10-20 13:56:03.25,267,-263,-2004,84,14,16,-579,-703,124,641
,389,2023-10-20 13:56:03.26,269,-241,-2009,82,14,17,-430,-702,272,566
,390,2023-10-20 13:56:03.27,271,-259,-2020,78,13,20,-592,-734,142,663
,391,2023-10-20 13:56:03.28,260,-241,-2052,59,13,24,-426,-683,257,554
,392,2023-10-20 13:56:03.29,271,-253,-2024,31,16,30,-596,-685,89,640
,393,2023-10-20 13:56:03.30,263,-279,-2015,19,22,41,-419,-630,211,524
,394,2023-10-20 13:56:03.31,267,-280,-2032,11,17,48,-599,-651,52,625
,395,2023-10-20 13:56:03.32,268,-253,-2039,0,13,56,-412,-611,199,511
,396,2023-10-20 13:56:03.33,275,-246,-2020,-12,14,66,-601,-638,37,619
,397,2023-10-20 13:56:03.34,272,-252,-2047,-24,17,72,-412,-613,201,512
,398,2023-10-20 13:56:03.35,274,-243,-2039,-36,15,76,-606,-637,31,621
,399,2023-10-20 13:56:03.36,280,-240,-2024,-49,15,81,-413,-623,210,518
,400,2023-10-20 13:56:03.37,292,-225,-2023,-52,16,81,-616,-645,29,630
,401,2023-10-20 13:56:03.38,285,-229,-2032,-58,22,78,-416,-639,223,527
,402,2023-10-20 13:56:03.39,285,-238,-2043,-62,30,75,-610,-644,34,627
,403,2023-10-20 13:56:03.40,279,-241,-2045,-57,30,73,-400,-657,257,528
,404,2023-10-20 13:56:03.41,280,-240,-2041,-50,27,78,-616,-664,48,640
,405,2023-10-20 13:56:03.42,284,-234,-2036,-40,21,83,-402,-649,247,525
,406,2023-10-20 13:56:03.43,297,-217,-2025,-26,21,84,-622,-631,9,626
,407,2023-10-20 13:56:03.44,297,-212,-2034,-19,22,78,-400,-631,231,515
,408,2023-10-20 13:56:03.45,287,-213,-2034,-17,27,72,-623,-626,3,624
,409,2023-10-20 13:56:03.46,300,-216,-2046,-15,29,70,-397,-639,242,518
,410,2023-10-20 13:56:03.47,297,-221,-2041,-18,28,73,-626,-629,3,627
,411,2023-10-20 13:56:03.48,290,-237,-2053,-13,25,75,-392,-648,256,520
,412,2023-10-20 13:56:03.49,286,-238,-2054,-12,18,78,-631,-627,-4,629
,413,2023-10-20 13:56:03.50,283,-225,-2036,-5,9,82,-398,-624,226,511
,414,2023-10-20 13:56:03.51,289,-222,-2028,-6,6,79,-639,-591,-48,615
,415,2023-10-20 13:56:03.52,304,-212,-2027,-10,5,73,-387,-560,173,473
,416,2023-10-20 13:56:03.53,308,-200,-2019,-6,11,61,-631,-548,-83,589
,417,2023-10-20 13:56:03.54,304,-216,-2023,1,14,56,-379,-636,257,507
,418,2023-10-20 13:56:03.55,297,-217,-2035,3,19,58,-636,-642,6,639
,419,2023-10-20 13:56:03.56,301,-224,-2041,6,15,57,-391,-694,303,542
,420,2023-10-20 13:56:03.57,294,-228,-2043,8,11,59,-647,-649,2,648
,421,2023-10-20 13:56:03.58,304,-224,-2051,11,10,64,-389,-676,287,532
,422,2023-10-20 13:56:03.59,295,-225,-2051,11,-1,62,-645,-624,-21,634
,423,2023-10-20 13:56:03.60,301,-219,-2033,9,-10,60,-388,-655,267,521
,424,2023-10-20 13:56:03.61,282,-225,-2036,3,-11,61,-649,-609,-40,629
,425,2023-10-20 13:56:03.62,295,-223,-2035,3,-14,63,-388,-662,274,525
,426,2023-10-20 13:56:03.63,284,-218,-2042,8,-13,63,-646,-604,-42,625
,427,2023-10-20 13:56:03.64,297,-217,-2036,6,-8,64,-380,-611,231,495
,428,2023-10-20 13:56:03.65,293,-217,-2035,7,-7,65,-642,-560,-82,601
,429,2023-10-20 13:56:03.66,280,-223,-2038,10,-7,62,-386,-650,264,518
,430,2023-10-20 13:56:03.67,292,-233,-2035,9,-10,62,-648,-612,-36,630
,431,2023-10-20 13:56:03.68,283,-225,-2052,7,-12,67,-382,-679,297,530
,432,2023-10-20 13:56:03.69,280,-223,-2041,10,-16,64,-639,-607,-32,623
,433,2023-10-20 13:56:03.70,274,-219,-2036,12,-14,63,-380,-656,276,518
,434,2023-10-20 13:56:03.71,278,-210,-2032,15,-16,58,-648,-589,-59,618
,435,2023-10-20 13:56:03.72,278,-224,-2035,16,-12,52,-389,-690,301,539
,436,2023-10-20 13:56:03.73,280,-222,-2031,21,-7,54,-651,-610,-41,630
,437,2023-10-20 13:56:03.74,266,-233,-2049,33,-4,61,-390,-644,254,517
,438,2023-10-20 13:56:03.75,267,-232,-2026,46,-5,68,-653,-572,-81,612
,439,2023-10-20 13:56:03.76,264,-224,-2023,57,-5,71,-382,-700,318,541
,440,2023-10-20 13:56:03.77,266,-216,-2031,64,1,67,-647,-633,-14,640
,441,2023-10-20 13:56:03.78,269,-204,-2034,70,5,64,-389,-699,310,544
,442,2023-10-20 13:56:03.79,265,-206,-2042,68,7,57,-655,-604,-51,629
,443,2023-10-20 13:56:03.80,271,-227,-2044,61,6,58,-388,-688,300,538
,444,2023-10-20 13:56:03.81,265,-233,-2030,60,2,53,-645,-594,-51,619
,445,2023-10-20 13:56:03.82,280,-229,-2014,56,0,48,-394,-673,279,533
,446,2023-10-20 13:56:03.83,277,-247,-2008,46,11,55,-648,-565,-83,606
,447,2023-10-20 13:56:03.84,286,-251,-2020,44,22,64,-388,-631,243,509
,448,2023-10-20 13:56:03.85,282,-254,-2030,42,30,75,-639,-523,-116,581
,449,2023-10-20 13:56:03.86,286,-257,-2039,36,30,90,-381,-592,211,486
,450,2023-10-20 13:56:03.87,288,-253,-2046,29,28,98,-631,-504,-127,567
,451,2023-10-20 13:56:03.88,289,-256,-2048,27,22,105,-390,-603,213,496
,452,2023-10-20 13:56:03.89,286,-252,-2042,28,17,111,-637,-532,-105,584
,453,2023-10-20 13:56:03.90,293,-240,-2035,27,12,119,-400,-674,274,537
,454,2023-10-20 13:56:03.91,287,-239,-2043,20,9,124,-639,-614,-25,626
,455,2023-10-20 13:56:03.92,292,-235,-2042,11,7,120,-391,-760,369,575
,456,2023-10-20 13:56:03.93,276,-226,-2046,2,0,124,-621,-613,-8,617
,457,2023-10-20 13:56:03.94,279,-220,-2034,-5,-7,116,-388,-640,252,514
,458,2023-10-20 13:56:03.95,268,-225,-2042,-9,-10,108,-619,-486,-133,552
,459,2023-10-20 13:56:03.96,259,-236,-2045,-13,-16,102,-393,-559,166,476
,460,2023-10-20 13:56:03.97,261,-245,-2054,-22,-18,113,-617,-474,-143,545
,461,2023-10-20 13:56:03.98,256,-249,-2038,-35,-26,125,-403,-618,215,510
,462,2023-10-20 13:56:03.99,246,-263,-2041,-42,-23,140,-616,-537,-79,576
,463,2023-10-20 13:56:04.00,241,-263,-2037,-51,-19,161,-401,-664,263,532
,464,2023-10-20 13:56:04.01,252,-248,-2008,-57,-11,187,-608,-534,-74,571
,465,2023-10-20 13:56:04.02,253,-251,-1996,-57,0,209,-407,-615,208,511
,466,2023-10-20 13:56:04.03,248,-243,-1995,-56,15,223,-607,-486,-121,546
,467,2023-10-20 13:56:04.04,227,-238,-2013,-58,37,233,-409,-594,185,501
,468,2023-10-20 13:56:04.05,283,-237,-2011,-59,38,256,-596,-491,-105,543
,469,2023-10-20 13:56:04.06,216,-298,-2065,-71,62,269,-410,-629,219,519
,470,2023-10-20 13:56:04.07,255,-261,-2068,-61,76,293,-592,-527,-65,559
,471,2023-10-20 13:56:04.08,238,-182,-2025,8,96,277,-418,-660,242,539
,472,2023-10-20 13:56:04.09,231,-156,-2002,60,114,249,-593,-545,-48,569
,473,2023-10-20 13:56:04.10,255,-174,-1999,58,112,231,-433,-663,230,548
,474,2023-10-20 13:56:04.11,233,-194,-2017,28,88,200,-595,-517,-78,556
,475,2023-10-20 13:56:04.12,255,-209,-2059,13,51,161,-424,-631,207,527
,476,2023-10-20 13:56:04.13,273,-220,-2040,1,57,138,-573,-525,-48,549
,477,2023-10-20 13:56:04.14,270,-246,-2027,7,81,142,-423,-676,253,549
,478,2023-10-20 13:56:04.15,277,-224,-2021,29,104,145,-575,-525,-50,550
,479,2023-10-20 13:56:04.16,297,-219,-2006,45,115,135,-435,-624,189,529
,480,2023-10-20 13:56:04.17,286,-220,-2021,55,120,112,-565,-480,-85,522
,481,2023-10-20 13:56:04.18,289,-244,-2033,53,109,101,-433,-622,189,527
,482,2023-10-20 13:56:04.19,305,-252,-2037,40,107,101,-561,-527,-34,544
,483,2023-10-20 13:56:04.20,310,-253,-2038,37,107,108,-444,-681,237,562
,484,2023-10-20 13:56:04.21,306,-251,-2025,44,111,115,-556,-561,5,558
,485,2023-10-20 13:56:04.22,315,-253,-2020,56,102,119,-439,-705,266,572
,486,2023-10-20 13:56:04.23,306,-265,-2034,57,102,124,-554,-543,-11,548
,487,2023-10-20 13:56:04.24,310,-253,-2045,52,95,139,-444,-623,179,533
,488,2023-10-20 13:56:04.25,321,-241,-2026,62,82,144,-544,-458,-86,501
,489,2023-10-20 13:56:04.26,323,-236,-2050,63,71,143,-445,-587,142,516
,490,2023-10-20 13:56:04.27,327,-228,-2055,56,66,140,-529,-521,-8,525
,491,2023-10-20 13:56:04.28,342,-227,-2047,55,53,126,-442,-699,257,570
,492,2023-10-20 13:56:04.29,331,-287,-2040,34,34,107,-527,-562,35,544
,493,2023-10-20 13:56:04.30,344,-301,-2045,26,32,130,-454,-641,187,547
,494,2023-10-20 13:56:04.31,335,-287,-2023,28,26,149,-528,-502,-26,515
,495,2023-10-20 13:56:04.32,338,-295,-2020,37,32,167,-460,-643,183,551
,496,2023-10-20 13:56:04.33,313,-279,-2031,54,43,190,-517,-607,90,562
,497,2023-10-20 13:56:04.34,323,-257,-2039,66,47,211,-458,-769,311,613
,498,2023-10-20 13:56:04.35,331,-257,-2035,77,34,214,-510,-629,119,569
,499,2023-10-20 13:56:04.36,330,-243,-2062,83,28,205,-466,-704,238,585
,500,2023-10-20 13:56:04.37,318,-252,-2039,86,23,196,-509,-561,52,535
,501,2023-10-20 13:56:04.38,327,-258,-2017,95,24,189,-472,-665,193,568
,502,2023-10-20 13:56:04.39,326,-263,-2023,95,31,187,-504,-567,63,535
,503,2023-10-20 13:56:04.40,329,-256,-2016,86,25,192,-484,-682,198,583
,504,2023-10-20 13:56:04.41,308,-278,-2036,74,17,202,-504,-528,24,516
,505,2023-10-20 13:56:04.42,322,-280,-2042,67,4,215,-490,-616,126,553
,506,2023-10-20 13:56:04.43,318,-251,-2032,66,-10,210,-493,-553,60,523
,507,2023-10-20 13:56:04.44,330,-269,-2044,49,-23,204,-490,-694,204,592
,508,2023-10-20 13:56:04.45,320,-271,-2041,39,-29,198,-485,-558,73,521
,509,2023-10-20 13:56:04.46,334,-265,-2036,40,-37,191,-492,-637,145,564
,510,2023-10-20 13:56:04.47,333,-270,-2018,46,-38,175,-480,-562,82,521
,511,2023-10-20 13:56:04.48,324,-272,-2024,51,-37,165,-509,-688,179,598
,512,2023-10-20 13:56:04.49,338,-275,-2024,60,-40,159,-482,-600,118,541
,513,2023-10-20 13:56:04.50,307,-281,-2039,65,-37,146,-517,-679,162,598
,514,2023-10-20 13:56:04.51,320,-237,-2090,60,-45,138,-473,-541,68,507
,515,2023-10-20 13:56:04.52,304,-274,-2047,62,-34,132,-513,-623,110,568
,516,2023-10-20 13:56:04.53,303,-292,-2034,80,-53,119,-468,-600,132,534
,517,2023-10-20 13:56:04.54,308,-270,-2041,92,-57,104,-524,-728,204,626
,518,2023-10-20 13:56:04.55,299,-273,-2052,95,-62,92,-464,-631,167,547
,519,2023-10-20 13:56:04.56,301,-283,-2020,93,-66,88,-537,-675,138,606
,520,2023-10-20 13:56:04.57,296,-297,-2011,100,-71,79,-461,-542,81,501
,521,2023-10-20 13:56:04.58,294,-300,-2044,102,-70,75,-526,-609,83,567
,522,2023-10-20 13:56:04.59,292,-307,-2052,97,-75,75,-447,-580,133,513
,523,2023-10-20 13:56:04.60,291,-306,-2000,94,-71,71,-538,-684,146,611
,524,2023-10-20 13:56:04.61,292,-306,-2014,98,-70,63,-452,-576,124,514
,525,2023-10-20 13:56:04.62,292,-284,-2013,89,-69,66,-542,-612,70,577
,526,2023-10-20 13:56:04.63,320,-309,-1996,79,-63,75,-441,-539,98,490
,527,2023-10-20 13:56:04.64,294,-329,-2000,76,-52,83,-550,-632,82,591
,528,2023-10-20 13:56:04.65,305,-336,-2033,84,-44,98,-436,-546,110,491
,529,2023-10-20 13:56:04.66,264,-375,-2026,88,-41,117,-550,-597,47,573
,530,2023-10-20 13:56:04.67,292,-372,-2077,107,-46,137,-430,-494,64,462
,531,2023-10-20 13:56:04.68,287,-323,-2044,154,-43,124,-557,-563,6,560
,532,2023-10-20 13:56:04.69,274,-304,-2016,210,-44,101,-431,-496,65,463
,533,2023-10-20 13:56:04.70,269,-279,-2000,251,-37,79,-567,-576,9,571
,534,2023-10-20 13:56:04.71,268,-297,-1990,245,-41,62,-424,-534,110,479
,535,2023-10-20 13:56:04.72,266,-335,-1979,219,-54,42,-568,-609,41,588
,536,2023-10-20 13:56:04.73,268,-347,-1975,209,-41,19,-416,-623,207,519
,537,2023-10-20 13:56:04.74,262,-383,-1960,216,-19,20,-568,-688,120,628
,538,2023-10-20 13:56:04.75,259,-406,-1976,228,4,38,-411,-642,231,526
,539,2023-10-20 13:56:04.76,251,-405,-1989,240,21,55,-577,-670,93,623
,540,2023-10-20 13:56:04.77,275,-410,-1987,241,31,70,-405,-712,307,558
,541,2023-10-20 13:56:04.78,264,-432,-2010,227,43,93,-577,-763,186,670
,542,2023-10-20 13:56:04.79,270,-442,-2013,206,54,120,-400,-762,362,581
,543,2023-10-20 13:56:04.80,261,-451,-2024,182,60,148,-589,-757,168,673
,544,2023-10-20 13:56:04.81,245,-426,-2034,148,63,175,-408,-722,314,565
,545,2023-10-20 13:56:04.82,249,-428,-2029,112,59,202,-593,-712,119,652
,546,2023-10-20 13:56:04.83,249,-436,-2027,81,60,219,-397,-716,319,556
,547,2023-10-20 13:56:04.84,242,-448,-2032,57,58,231,-591,-726,135,658
,548,2023-10-20 13:56:04.85,242,-444,-2023,37,55,239,-394,-742,348,568
,549,2023-10-20 13:56:04.86,223,-461,-2015,13,50,262,-595,-733,138,664
,550,2023-10-20 13:56:04.87,218,-424,-2013,-1,39,285,-388,-807,419,597
,551,2023-10-20 13:56:04.88,210,-382,-2021,-30,32,297,-597,-813,216,705
,552,2023-10-20 13:56:04.89,180,-345,-2109,-86,8,300,-387,-925,538,656
,553,2023-10-20 13:56:04.90,233,-409,-2029,-163,-9,286,-602,-898,296,750
,554,2023-10-20 13:56:04.91,235,-431,-2027,-167,-22,248,-384,-966,582,675
,555,2023-10-20 13:56:04.92,233,-399,-1986,-116,-12,198,-605,-892,287,748
,556,2023-10-20 13:56:04.93,235,-358,-1962,-87,21,179,-381,-943,562,662
,557,2023-10-20 13:56:04.94,252,-348,-1914,-96,59,189,-606,-871,265,738
