// Data mode  : Full
// Data quality  : High
// Acceleration sensor's range  : 16g
// Gyroscope sensor's range  : 2000dps
//
//ARTIFACT,NUM,DATE,ACC_X,ACC_Y,ACC_Z,GYRO_X,GYRO_Y,GYRO_Z,EOG_L,EOG_R,EOG_H,EOG_V
,1,2023-10-27 12:30:19.87,277,-320,-2005,41,150,-190,55,503,-448,-279
,2,2023-10-27 12:30:19.88,285,-319,-1998,52,163,-178,-24,269,-293,-122
,3,2023-10-27 12:30:19.89,295,-320,-2009,60,183,-172,43,501,-458,-272
,4,2023-10-27 12:30:19.90,296,-308,-2019,65,208,-166,-21,261,-282,-120
,5,2023-10-27 12:30:19.91,305,-311,-2025,65,212,-168,38,496,-458,-267
,6,2023-10-27 12:30:19.92,323,-312,-2035,76,234,-165,-20,268,-288,-124
,7,2023-10-27 12:30:19.93,325,-327,-1998,86,249,-164,13,481,-468,-247
,8,2023-10-27 12:30:19.94,331,-329,-1996,120,257,-165,-17,269,-286,-126
,9,2023-10-27 12:30:19.95,354,-328,-1989,163,257,-166,24,497,-473,-260
,10,2023-10-27 12:30:19.96,349,-340,-2012,200,259,-170,-4,275,-279,-135
,11,2023-10-27 12:30:19.97,374,-358,-1998,240,265,-176,15,494,-479,-254
,12,2023-10-27 12:30:19.98,385,-359,-1990,296,267,-190,-8,283,-291,-137
,13,2023-10-27 12:30:19.99,387,-359,-1995,359,282,-198,-5,486,-491,-240
,14,2023-10-27 12:30:20.00,395,-370,-1989,422,278,-219,-11,280,-291,-134
,15,2023-10-27 12:30:20.01,409,-347,-1978,490,290,-237,-11,495,-506,-242
,16,2023-10-27 12:30:20.02,415,-344,-1989,544,291,-256,-129,297,-426,-84
,17,2023-10-27 12:30:20.03,404,-352,-2023,584,288,-266,-489,496,-985,-3
,18,2023-10-27 12:30:20.04,417,-355,-2025,619,256,-282,-380,299,-679,40
,19,2023-10-27 12:30:20.05,408,-354,-2024,623,236,-296,-587,493,-1080,47
,20,2023-10-27 12:30:20.06,395,-334,-2037,616,212,-301,-396,303,-699,46
,21,2023-10-27 12:30:20.07,387,-344,-2046,590,184,-307,-585,489,-1074,48
,22,2023-10-27 12:30:20.08,387,-358,-2050,544,145,-309,-400,311,-711,44
,23,2023-10-27 12:30:20.09,385,-372,-2058,491,115,-309,-606,483,-1089,61
,24,2023-10-27 12:30:20.10,382,-383,-2053,448,75,-315,-411,311,-722,50
,25,2023-10-27 12:30:20.11,369,-398,-2049,395,38,-309,-614,482,-1096,66
,26,2023-10-27 12:30:20.12,378,-395,-2033,336,-6,-312,-416,318,-734,49
,27,2023-10-27 12:30:20.13,418,-409,-2025,287,-41,-308,-622,478,-1100,72
,28,2023-10-27 12:30:20.14,388,-430,-2021,239,-62,-307,-416,324,-740,46
,29,2023-10-27 12:30:20.15,387,-454,-2021,190,-91,-315,-629,476,-1105,76
,30,2023-10-27 12:30:20.16,405,-457,-2011,156,-126,-303,-424,327,-751,48
,31,2023-10-27 12:30:20.17,400,-463,-2004,125,-145,-304,-634,470,-1104,82
,32,2023-10-27 12:30:20.18,395,-460,-2001,83,-153,-300,-426,335,-761,45
,33,2023-10-27 12:30:20.19,390,-471,-2008,48,-172,-302,-648,469,-1117,89
,34,2023-10-27 12:30:20.20,389,-465,-2009,19,-183,-291,-434,337,-771,48
,35,2023-10-27 12:30:20.21,405,-466,-2013,-10,-199,-279,-656,464,-1120,96
,36,2023-10-27 12:30:20.22,396,-462,-2000,-39,-216,-271,-439,344,-783,47
,37,2023-10-27 12:30:20.23,400,-478,-2002,-65,-213,-253,-659,457,-1116,101
,38,2023-10-27 12:30:20.24,396,-481,-1999,-88,-227,-237,-436,353,-789,41
,39,2023-10-27 12:30:20.25,392,-478,-2003,-110,-221,-217,-654,468,-1122,93
,40,2023-10-27 12:30:20.26,381,-482,-1989,-129,-231,-194,-437,353,-790,42
,41,2023-10-27 12:30:20.27,376,-485,-1972,-139,-218,-171,-657,453,-1110,102
,42,2023-10-27 12:30:20.28,375,-486,-1977,-147,-221,-149,-430,357,-787,36
,43,2023-10-27 12:30:20.29,369,-490,-1956,-154,-220,-128,-657,445,-1102,106
,44,2023-10-27 12:30:20.30,361,-481,-1960,-157,-205,-99,-427,362,-789,32
,45,2023-10-27 12:30:20.31,354,-488,-1960,-162,-193,-76,-660,434,-1094,113
,46,2023-10-27 12:30:20.32,360,-481,-1968,-158,-178,-53,-429,371,-800,29
,47,2023-10-27 12:30:20.33,360,-471,-1972,-155,-165,-35,-658,434,-1092,112
,48,2023-10-27 12:30:20.34,365,-461,-1969,-159,-150,-14,-426,384,-810,21
,49,2023-10-27 12:30:20.35,365,-441,-1972,-162,-136,2,-658,436,-1094,111
,50,2023-10-27 12:30:20.36,365,-427,-1977,-165,-118,20,-431,385,-816,23
,51,2023-10-27 12:30:20.37,358,-422,-1981,-172,-108,24,-660,430,-1090,115
,52,2023-10-27 12:30:20.38,373,-427,-1984,-167,-100,40,-433,388,-821,22
,53,2023-10-27 12:30:20.39,364,-405,-2005,-161,-90,49,-664,417,-1081,123
,54,2023-10-27 12:30:20.40,361,-379,-2003,-167,-83,53,-433,394,-827,19
,55,2023-10-27 12:30:20.41,359,-372,-1997,-172,-83,56,-663,416,-1079,123
,56,2023-10-27 12:30:20.42,383,-351,-1998,-170,-94,60,-437,396,-833,20
,57,2023-10-27 12:30:20.43,362,-352,-1994,-171,-102,60,-666,402,-1068,132
,58,2023-10-27 12:30:20.44,361,-354,-2003,-172,-99,57,-437,398,-835,19
,59,2023-10-27 12:30:20.45,367,-350,-2002,-178,-91,54,-664,404,-1068,130
,60,2023-10-27 12:30:20.46,350,-334,-2001,-178,-94,51,-440,407,-847,16
,61,2023-10-27 12:30:20.47,360,-348,-1986,-178,-96,42,-663,396,-1059,133
,62,2023-10-27 12:30:20.48,352,-335,-1981,-171,-96,35,-439,418,-857,10
,63,2023-10-27 12:30:20.49,348,-333,-1971,-162,-106,27,-665,390,-1055,137
,64,2023-10-27 12:30:20.50,341,-326,-1973,-150,-107,13,-439,416,-855,11
,65,2023-10-27 12:30:20.51,349,-331,-1983,-141,-100,7,-661,392,-1053,134
,66,2023-10-27 12:30:20.52,342,-342,-2009,-136,-105,1,-439,428,-867,5
,67,2023-10-27 12:30:20.53,339,-329,-2004,-132,-115,-4,-660,384,-1044,138
,68,2023-10-27 12:30:20.54,320,-329,-2011,-130,-121,-13,-432,434,-866,-1
,69,2023-10-27 12:30:20.55,315,-320,-2011,-130,-118,-16,-655,382,-1037,136
,70,2023-10-27 12:30:20.56,303,-321,-2017,-135,-115,-22,-437,437,-874,0
,71,2023-10-27 12:30:20.57,299,-319,-2007,-140,-112,-15,-655,372,-1027,141
,72,2023-10-27 12:30:20.58,309,-311,-2012,-148,-128,-20,-440,446,-886,-3
,73,2023-10-27 12:30:20.59,306,-316,-2022,-153,-135,-14,-651,367,-1018,142
,74,2023-10-27 12:30:20.60,288,-306,-2024,-166,-133,-15,-432,447,-879,-7
,75,2023-10-27 12:30:20.61,285,-301,-2034,-184,-133,-19,-647,366,-1013,140
,76,2023-10-27 12:30:20.62,277,-310,-2035,-193,-140,-20,-438,454,-892,-8
,77,2023-10-27 12:30:20.63,289,-304,-2044,-195,-146,-22,-649,359,-1008,145
,78,2023-10-27 12:30:20.64,289,-309,-2042,-196,-138,-18,-442,463,-905,-10
,79,2023-10-27 12:30:20.65,280,-308,-2044,-204,-142,-23,-645,358,-1003,143
,80,2023-10-27 12:30:20.66,260,-304,-2053,-206,-153,-18,-435,473,-908,-19
,81,2023-10-27 12:30:20.67,273,-305,-2058,-212,-154,-11,-635,353,-988,141
,82,2023-10-27 12:30:20.68,278,-301,-2041,-213,-158,-10,-431,469,-900,-19
,83,2023-10-27 12:30:20.69,267,-287,-2019,-213,-145,-7,-633,343,-976,145
,84,2023-10-27 12:30:20.70,265,-295,-2028,-209,-156,-10,-441,474,-915,-16
,85,2023-10-27 12:30:20.71,278,-292,-2023,-208,-152,-11,-635,338,-973,148
,86,2023-10-27 12:30:20.72,271,-292,-2021,-213,-122,-9,-441,476,-917,-17
,87,2023-10-27 12:30:20.73,244,-286,-2026,-212,-129,-11,-628,341,-969,143
,88,2023-10-27 12:30:20.74,264,-283,-2024,-201,-131,-12,-441,482,-923,-20
,89,2023-10-27 12:30:20.75,251,-273,-2044,-190,-127,-6,-638,321,-959,158
,90,2023-10-27 12:30:20.76,244,-268,-2043,-191,-130,-8,-447,484,-931,-18
,91,2023-10-27 12:30:20.77,228,-262,-2055,-205,-123,-5,-633,329,-962,152
,92,2023-10-27 12:30:20.78,223,-261,-2076,-214,-133,-4,-448,491,-939,-21
,93,2023-10-27 12:30:20.79,224,-258,-2085,-214,-147,-2,-627,323,-950,152
,94,2023-10-27 12:30:20.80,222,-232,-2058,-216,-166,11,-449,492,-941,-21
,95,2023-10-27 12:30:20.81,230,-220,-2044,-220,-170,10,-619,315,-934,152
,96,2023-10-27 12:30:20.82,219,-210,-2024,-229,-145,5,-440,489,-929,-24
,97,2023-10-27 12:30:20.83,229,-192,-2019,-235,-144,-8,-612,311,-923,150
,98,2023-10-27 12:30:20.84,240,-191,-2002,-236,-123,-16,-447,491,-938,-22
,99,2023-10-27 12:30:20.85,225,-186,-1988,-238,-113,-30,-613,302,-915,155
,100,2023-10-27 12:30:20.86,229,-184,-1989,-231,-93,-42,-444,499,-943,-27
,101,2023-10-27 12:30:20.87,229,-182,-1981,-218,-98,-46,-597,303,-900,147
,102,2023-10-27 12:30:20.88,242,-191,-2000,-197,-90,-57,-424,505,-929,-40
,103,2023-10-27 12:30:20.89,215,-175,-1989,-178,-81,-54,-578,311,-889,133
,104,2023-10-27 12:30:20.90,207,-177,-1992,-175,-91,-59,-419,512,-931,-46
,105,2023-10-27 12:30:20.91,231,-179,-1979,-160,-81,-66,-575,296,-871,139
,106,2023-10-27 12:30:20.92,216,-186,-2013,-135,-69,-74,-417,509,-926,-46
,107,2023-10-27 12:30:20.93,208,-200,-2032,-113,-83,-76,-561,294,-855,133
,108,2023-10-27 12:30:20.94,206,-219,-2027,-88,-92,-70,-401,512,-913,-55
,109,2023-10-27 12:30:20.95,208,-208,-2031,-66,-99,-65,-544,295,-839,124
,110,2023-10-27 12:30:20.96,219,-221,-2039,-30,-114,-58,-394,516,-910,-61
,111,2023-10-27 12:30:20.97,189,-233,-2053,-20,-96,-48,-538,288,-826,125
,112,2023-10-27 12:30:20.98,200,-244,-2079,1,-108,-43,-368,514,-882,-73
,113,2023-10-27 12:30:20.99,166,-240,-2063,28,-111,-31,-511,285,-796,113
,114,2023-10-27 12:30:21.00,188,-218,-2078,39,-119,-18,-345,514,-859,-84
,115,2023-10-27 12:30:21.01,168,-219,-2087,26,-99,-11,-498,270,-768,114
,116,2023-10-27 12:30:21.02,149,-209,-2090,8,-108,-9,-304,516,-820,-106
,117,2023-10-27 12:30:21.03,168,-196,-2086,-19,-93,-5,-454,282,-736,86
,118,2023-10-27 12:30:21.04,156,-192,-2059,-37,-100,-4,-220,522,-742,-151
,119,2023-10-27 12:30:21.05,158,-196,-2023,-44,-87,0,-390,280,-670,55
,120,2023-10-27 12:30:21.06,152,-168,-2059,-57,-80,-2,-100,522,-622,-211
,121,2023-10-27 12:30:21.07,162,-168,-2041,-82,-59,1,-293,280,-573,6
,122,2023-10-27 12:30:21.08,145,-168,-2040,-111,-50,-1,40,521,-481,-280
,123,2023-10-27 12:30:21.09,154,-186,-2007,-123,-35,2,-240,266,-506,-13
,124,2023-10-27 12:30:21.10,154,-184,-2016,-132,-22,5,188,518,-330,-353
,125,2023-10-27 12:30:21.11,168,-184,-2009,-132,-15,11,50,258,-208,-154
,126,2023-10-27 12:30:21.12,166,-183,-1995,-126,2,17,362,519,-157,-440
,127,2023-10-27 12:30:21.13,168,-175,-2017,-123,11,23,53,253,-200,-153
,128,2023-10-27 12:30:21.14,155,-178,-2021,-120,30,26,314,517,-203,-415
,129,2023-10-27 12:30:21.15,189,-167,-2028,-111,36,28,30,256,-226,-143
,130,2023-10-27 12:30:21.16,183,-169,-2047,-99,59,24,312,514,-202,-413
,131,2023-10-27 12:30:21.17,190,-153,-2049,-92,65,25,32,240,-208,-136
,132,2023-10-27 12:30:21.18,182,-130,-2038,-85,71,15,309,509,-200,-409
,133,2023-10-27 12:30:21.19,199,-132,-2048,-73,84,6,30,244,-214,-137
,134,2023-10-27 12:30:21.20,200,-122,-2066,-73,88,-5,315,514,-199,-414
,135,2023-10-27 12:30:21.21,199,-111,-2054,-79,94,-20,51,250,-199,-150
,136,2023-10-27 12:30:21.22,212,-92,-2065,-76,99,-30,333,519,-186,-426
,137,2023-10-27 12:30:21.23,201,-107,-2070,-72,96,-42,56,248,-192,-152
,138,2023-10-27 12:30:21.24,202,-96,-2062,-75,100,-48,341,523,-182,-432
,139,2023-10-27 12:30:21.25,193,-93,-2063,-72,87,-53,68,249,-181,-158
,140,2023-10-27 12:30:21.26,207,-101,-2052,-72,79,-58,341,518,-177,-429
,141,2023-10-27 12:30:21.27,220,-96,-2045,-67,67,-63,73,250,-177,-161
,142,2023-10-27 12:30:21.28,221,-104,-2046,-54,68,-62,351,525,-174,-438
,143,2023-10-27 12:30:21.29,206,-102,-2035,-39,72,-61,81,247,-166,-164
,144,2023-10-27 12:30:21.30,214,-113,-2023,-18,61,-63,358,521,-163,-439
,145,2023-10-27 12:30:21.31,216,-114,-2031,6,42,-55,84,239,-155,-161
,146,2023-10-27 12:30:21.32,196,-109,-2034,24,35,-44,355,517,-162,-436
,147,2023-10-27 12:30:21.33,210,-99,-2063,25,32,-28,94,243,-149,-168
,148,2023-10-27 12:30:21.34,205,-99,-2036,32,20,-17,362,522,-160,-442
,149,2023-10-27 12:30:21.35,213,-99,-2051,43,3,1,98,242,-144,-170
,150,2023-10-27 12:30:21.36,208,-84,-2057,40,-4,21,369,506,-137,-437
,151,2023-10-27 12:30:21.37,208,-99,-2054,34,-18,43,104,230,-126,-167
,152,2023-10-27 12:30:21.38,220,-263,-2077,29,-8,57,370,502,-132,-436
,153,2023-10-27 12:30:21.39,210,-122,-2049,19,-9,78,110,222,-112,-166
,154,2023-10-27 12:30:21.40,178,-118,-2075,30,-20,87,384,499,-115,-441
,155,2023-10-27 12:30:21.41,190,-139,-2079,31,-18,106,130,223,-93,-176
,156,2023-10-27 12:30:21.42,191,-149,-2086,18,-4,128,406,494,-88,-450
,157,2023-10-27 12:30:21.43,201,-152,-2062,9,-7,142,152,226,-74,-189
,158,2023-10-27 12:30:21.44,205,-141,-2052,-1,10,157,464,497,-33,-480
,159,2023-10-27 12:30:21.45,209,-138,-2046,-7,27,165,236,222,14,-229
,160,2023-10-27 12:30:21.46,204,-139,-2039,-16,39,168,536,503,33,-519
,161,2023-10-27 12:30:21.47,214,-121,-2050,-24,46,168,279,233,46,-256
,162,2023-10-27 12:30:21.48,194,-120,-2040,-37,57,163,535,496,39,-515
,163,2023-10-27 12:30:21.49,215,-122,-2021,-49,70,162,270,223,47,-246
,164,2023-10-27 12:30:21.50,211,-110,-2034,-52,85,161,527,493,34,-510
,165,2023-10-27 12:30:21.51,200,-101,-2047,-63,94,152,266,232,34,-249
,166,2023-10-27 12:30:21.52,206,-99,-2030,-73,89,147,521,496,25,-508
,167,2023-10-27 12:30:21.53,202,-87,-2043,-80,90,138,268,232,36,-250
,168,2023-10-27 12:30:21.54,205,-83,-2036,-95,91,130,502,480,22,-491
,169,2023-10-27 12:30:21.55,200,-81,-2040,-110,97,127,260,234,26,-247
,170,2023-10-27 12:30:21.56,220,-95,-2039,-120,92,124,496,485,11,-490
,171,2023-10-27 12:30:21.57,199,-85,-2055,-132,83,122,257,234,23,-245
,172,2023-10-27 12:30:21.58,205,-83,-2042,-139,82,124,492,488,4,-490
,173,2023-10-27 12:30:21.59,221,-83,-2051,-146,85,125,250,236,14,-243
,174,2023-10-27 12:30:21.60,224,-83,-2050,-148,79,128,469,490,-21,-479
,175,2023-10-27 12:30:21.61,223,-84,-2054,-141,73,136,246,251,-5,-248
,176,2023-10-27 12:30:21.62,220,-77,-2060,-144,82,145,463,486,-23,-474
,177,2023-10-27 12:30:21.63,228,-80,-2041,-149,87,153,242,237,5,-239
,178,2023-10-27 12:30:21.64,269,-69,-2047,-147,90,160,449,475,-26,-462
,179,2023-10-27 12:30:21.65,237,-78,-2052,-146,92,168,230,242,-12,-236
,180,2023-10-27 12:30:21.66,234,-74,-2064,-134,93,176,430,480,-50,-455
,181,2023-10-27 12:30:21.67,243,-52,-2066,-123,88,178,234,253,-19,-243
,182,2023-10-27 12:30:21.68,233,-64,-2059,-101,77,181,432,480,-48,-456
,183,2023-10-27 12:30:21.69,239,-62,-2062,-77,71,185,240,254,-14,-247
,184,2023-10-27 12:30:21.70,241,-61,-2059,-59,56,189,434,480,-46,-457
,185,2023-10-27 12:30:21.71,252,-57,-2051,-45,49,193,245,265,-20,-255
,186,2023-10-27 12:30:21.72,250,-61,-2056,-29,50,191,424,482,-58,-453
,187,2023-10-27 12:30:21.73,240,-63,-2047,-10,45,193,246,262,-16,-254
,188,2023-10-27 12:30:21.74,251,-60,-2049,4,40,191,424,483,-59,-453
,189,2023-10-27 12:30:21.75,243,-65,-2036,20,45,192,258,274,-16,-266
,190,2023-10-27 12:30:21.76,243,-68,-2028,34,47,188,426,480,-54,-453
,191,2023-10-27 12:30:21.77,249,-67,-2049,43,51,188,264,278,-14,-271
,192,2023-10-27 12:30:21.78,241,-77,-2051,44,41,182,417,476,-59,-446
,193,2023-10-27 12:30:21.79,238,-78,-2054,55,36,178,258,276,-18,-267
,194,2023-10-27 12:30:21.80,235,-78,-2055,62,31,177,410,477,-67,-443
,195,2023-10-27 12:30:21.81,243,-71,-2050,62,34,173,269,289,-20,-279
,196,2023-10-27 12:30:21.82,238,-72,-2057,59,44,168,406,472,-66,-439
,197,2023-10-27 12:30:21.83,237,-73,-2055,52,40,159,280,293,-13,-286
,198,2023-10-27 12:30:21.84,238,-66,-2047,48,42,149,398,465,-67,-431
,199,2023-10-27 12:30:21.85,255,-59,-2057,40,43,142,274,291,-17,-282
,200,2023-10-27 12:30:21.86,251,-78,-2028,30,50,138,397,460,-63,-428
,201,2023-10-27 12:30:21.87,261,-63,-2039,22,54,129,282,298,-16,-290
,202,2023-10-27 12:30:21.88,242,-61,-2047,10,60,117,386,460,-74,-423
,203,2023-10-27 12:30:21.89,257,-66,-2035,10,65,112,283,305,-22,-294
,204,2023-10-27 12:30:21.90,270,-67,-2043,7,62,98,368,464,-96,-416
,205,2023-10-27 12:30:21.91,251,-77,-2034,6,63,85,277,315,-38,-296
,206,2023-10-27 12:30:21.92,260,-83,-2055,12,62,79,361,465,-104,-413
,207,2023-10-27 12:30:21.93,253,-76,-2058,15,49,73,280,325,-45,-302
,208,2023-10-27 12:30:21.94,266,-87,-2050,21,40,74,350,461,-111,-405
,209,2023-10-27 12:30:21.95,274,-86,-2057,27,26,75,281,318,-37,-299
,210,2023-10-27 12:30:21.96,276,-90,-2062,31,23,71,342,456,-114,-399
,211,2023-10-27 12:30:21.97,286,-91,-2066,41,21,74,288,331,-43,-309
,212,2023-10-27 12:30:21.98,262,-96,-2057,50,2,68,330,444,-114,-387
,213,2023-10-27 12:30:21.99,272,-92,-2056,61,5,72,294,333,-39,-313
,214,2023-10-27 12:30:22.00,264,-99,-2049,65,-9,70,331,440,-109,-385
,215,2023-10-27 12:30:22.01,258,-100,-2047,64,-12,69,300,334,-34,-317
,216,2023-10-27 12:30:22.02,268,-106,-2051,63,-11,75,326,439,-113,-382
,217,2023-10-27 12:30:22.03,260,-98,-2056,55,-15,72,307,344,-37,-325
,218,2023-10-27 12:30:22.04,258,-91,-2039,49,-20,76,319,433,-114,-376
,219,2023-10-27 12:30:22.05,244,-99,-2044,43,-24,81,316,354,-38,-335
,220,2023-10-27 12:30:22.06,261,-101,-2039,28,-29,83,315,427,-112,-371
,221,2023-10-27 12:30:22.07,251,-107,-2059,15,-25,94,320,353,-33,-336
,222,2023-10-27 12:30:22.08,268,-90,-2056,2,-30,100,315,429,-114,-372
,223,2023-10-27 12:30:22.09,263,-85,-2040,-9,-19,96,328,365,-37,-346
,224,2023-10-27 12:30:22.10,254,-85,-2040,-8,-13,96,308,422,-114,-365
,225,2023-10-27 12:30:22.11,263,-84,-2067,-22,-23,92,340,374,-34,-357
,226,2023-10-27 12:30:22.12,253,-82,-2056,-26,-26,98,305,418,-113,-361
,227,2023-10-27 12:30:22.13,252,-81,-2060,-36,-20,98,337,373,-36,-355
,228,2023-10-27 12:30:22.14,260,-79,-2040,-39,-27,92,294,412,-118,-353
,229,2023-10-27 12:30:22.15,262,-72,-2052,-34,-25,95,342,377,-35,-359
,230,2023-10-27 12:30:22.16,245,-64,-2055,-38,-30,91,286,401,-115,-343
,231,2023-10-27 12:30:22.17,265,-73,-2064,-43,-31,88,355,389,-34,-372
,232,2023-10-27 12:30:22.18,256,-78,-2051,-42,-37,85,286,402,-116,-344
,233,2023-10-27 12:30:22.19,260,-66,-2054,-39,-41,91,355,391,-36,-373
,234,2023-10-27 12:30:22.20,238,-71,-2047,-39,-34,97,280,398,-118,-339
,235,2023-10-27 12:30:22.21,236,-80,-2044,-44,-43,95,357,400,-43,-378
,236,2023-10-27 12:30:22.22,239,-64,-2063,-41,-44,100,270,392,-122,-331
,237,2023-10-27 12:30:22.23,241,-76,-2055,-33,-46,102,366,400,-34,-383
,238,2023-10-27 12:30:22.24,231,-72,-2053,-22,-53,102,259,389,-130,-324
,239,2023-10-27 12:30:22.25,238,-75,-2049,-13,-47,105,360,407,-47,-383
,240,2023-10-27 12:30:22.26,237,-75,-2046,-5,-52,105,251,376,-125,-313
,241,2023-10-27 12:30:22.27,232,-74,-2040,0,-56,103,366,411,-45,-388
,242,2023-10-27 12:30:22.28,229,-73,-2036,10,-51,106,245,372,-127,-308
,243,2023-10-27 12:30:22.29,241,-75,-2040,15,-49,107,373,413,-40,-393
,244,2023-10-27 12:30:22.30,230,-76,-2030,18,-46,102,232,369,-137,-300
,245,2023-10-27 12:30:22.31,234,-77,-2041,21,-39,106,373,422,-49,-397
,246,2023-10-27 12:30:22.32,230,-74,-2042,25,-37,102,238,364,-126,-301
,247,2023-10-27 12:30:22.33,234,-77,-2042,27,-24,105,386,434,-48,-410
,248,2023-10-27 12:30:22.34,238,-75,-2041,30,-25,105,228,354,-126,-291
,249,2023-10-27 12:30:22.35,228,-80,-2044,31,-27,98,386,427,-41,-406
,250,2023-10-27 12:30:22.36,225,-77,-2048,32,-19,103,226,352,-126,-289
,251,2023-10-27 12:30:22.37,232,-82,-2041,32,-20,100,391,436,-45,-413
,252,2023-10-27 12:30:22.38,222,-83,-2037,32,-14,97,225,351,-126,-288
,253,2023-10-27 12:30:22.39,234,-88,-2044,30,-11,96,392,437,-45,-414
,254,2023-10-27 12:30:22.40,226,-91,-2042,27,-7,96,220,343,-123,-281
,255,2023-10-27 12:30:22.41,223,-86,-2039,29,-10,99,399,443,-44,-421
,256,2023-10-27 12:30:22.42,218,-96,-2042,24,-3,97,222,347,-125,-284
,257,2023-10-27 12:30:22.43,225,-85,-2038,20,-5,94,405,455,-50,-430
,258,2023-10-27 12:30:22.44,240,-80,-2039,15,-4,94,212,336,-124,-274
,259,2023-10-27 12:30:22.45,233,-69,-2048,7,-1,90,413,458,-45,-435
,260,2023-10-27 12:30:22.46,238,-69,-2051,-3,6,85,209,330,-121,-269
,261,2023-10-27 12:30:22.47,247,-73,-2074,-14,14,80,412,458,-46,-435
,262,2023-10-27 12:30:22.48,235,-63,-2045,-18,17,79,209,322,-113,-265
,263,2023-10-27 12:30:22.49,232,-71,-2042,-21,15,76,416,465,-49,-440
,264,2023-10-27 12:30:22.50,224,-64,-2049,-35,11,79,198,321,-123,-259
,265,2023-10-27 12:30:22.51,243,-80,-2058,-47,0,78,420,465,-45,-442
,266,2023-10-27 12:30:22.52,233,-75,-2055,-46,-11,79,197,316,-119,-256
,267,2023-10-27 12:30:22.53,235,-68,-2057,-44,-14,82,423,472,-49,-447
,268,2023-10-27 12:30:22.54,231,-77,-2071,-40,-15,86,192,310,-118,-251
,269,2023-10-27 12:30:22.55,238,-67,-2078,-41,-35,84,426,478,-52,-452
,270,2023-10-27 12:30:22.56,233,-61,-2082,-44,-39,89,187,310,-123,-248
,271,2023-10-27 12:30:22.57,212,-58,-2062,-48,-44,87,425,479,-54,-452
,272,2023-10-27 12:30:22.58,225,-51,-2088,-48,-44,89,183,307,-124,-245
,273,2023-10-27 12:30:22.59,206,-54,-2061,-53,-48,90,425,484,-59,-454
,274,2023-10-27 12:30:22.60,208,-69,-2049,-47,-69,91,178,303,-125,-240
,275,2023-10-27 12:30:22.61,198,-60,-2070,-42,-82,95,429,495,-66,-462
,276,2023-10-27 12:30:22.62,203,-56,-2071,-38,-93,98,170,298,-128,-234
,277,2023-10-27 12:30:22.63,200,-67,-2060,-34,-98,105,424,491,-67,-457
,278,2023-10-27 12:30:22.64,189,-68,-2050,-30,-103,117,171,299,-128,-235
,279,2023-10-27 12:30:22.65,198,-64,-2040,-24,-104,118,430,498,-68,-464
,280,2023-10-27 12:30:22.66,187,-72,-2036,-16,-99,125,166,288,-122,-227
,281,2023-10-27 12:30:22.67,199,-75,-2041,-13,-95,126,431,500,-69,-465
,282,2023-10-27 12:30:22.68,190,-73,-2039,-4,-96,129,162,290,-128,-226
,283,2023-10-27 12:30:22.69,190,-78,-2033,7,-80,133,424,501,-77,-462
,284,2023-10-27 12:30:22.70,187,-93,-2040,11,-75,141,155,285,-130,-220
,285,2023-10-27 12:30:22.71,187,-87,-2040,16,-71,145,416,499,-83,-457
,286,2023-10-27 12:30:22.72,188,-87,-2054,20,-72,155,151,279,-128,-215
,287,2023-10-27 12:30:22.73,190,-81,-2044,21,-57,164,427,504,-77,-465
,288,2023-10-27 12:30:22.74,206,-87,-2052,22,-45,174,147,286,-139,-216
,289,2023-10-27 12:30:22.75,188,-82,-2059,23,-42,177,418,509,-91,-463
,290,2023-10-27 12:30:22.76,202,-78,-2050,19,-29,188,136,270,-134,-203
,291,2023-10-27 12:30:22.77,194,-77,-2051,20,-23,194,414,511,-97,-462
,292,2023-10-27 12:30:22.78,203,-68,-2038,23,-15,199,130,277,-147,-203
,293,2023-10-27 12:30:22.79,204,-87,-2055,23,-9,202,415,516,-101,-465
,294,2023-10-27 12:30:22.80,199,-79,-2059,25,-17,197,124,265,-141,-194
,295,2023-10-27 12:30:22.81,186,-68,-2080,17,-1,206,410,510,-100,-460
,296,2023-10-27 12:30:22.82,200,-56,-2056,16,-3,204,125,260,-135,-192
,297,2023-10-27 12:30:22.83,200,-57,-2066,19,0,203,426,523,-97,-474
,298,2023-10-27 12:30:22.84,209,-45,-2054,7,0,200,134,263,-129,-198
,299,2023-10-27 12:30:22.85,190,-43,-2036,-8,12,188,424,519,-95,-471
,300,2023-10-27 12:30:22.86,201,-54,-2010,-14,21,176,136,266,-130,-201
,301,2023-10-27 12:30:22.87,187,-54,-2027,-15,33,165,421,523,-102,-472
,302,2023-10-27 12:30:22.88,199,-41,-2012,-12,41,156,124,259,-135,-191
,303,2023-10-27 12:30:22.89,206,-61,-2013,1,46,144,415,528,-113,-471
,304,2023-10-27 12:30:22.90,215,-79,-2048,25,25,130,120,269,-149,-194
,305,2023-10-27 12:30:22.91,204,-60,-2068,27,39,124,406,527,-121,-466
,306,2023-10-27 12:30:22.92,209,-54,-2069,33,31,114,127,261,-134,-194
,307,2023-10-27 12:30:22.93,210,-55,-2047,45,27,111,416,526,-110,-471
,308,2023-10-27 12:30:22.94,201,-50,-2057,56,19,99,138,270,-132,-204
,309,2023-10-27 12:30:22.95,204,-53,-2053,62,2,93,428,541,-113,-484
,310,2023-10-27 12:30:22.96,218,-70,-2050,70,-12,84,136,266,-130,-201
,311,2023-10-27 12:30:22.97,219,-71,-2060,82,-9,80,414,535,-121,-474
,312,2023-10-27 12:30:22.98,208,-81,-2069,94,-22,70,134,270,-136,-202
,313,2023-10-27 12:30:22.99,202,-83,-2083,108,-22,65,410,542,-132,-476
,314,2023-10-27 12:30:23.00,200,-75,-2070,126,-29,61,130,270,-140,-200
,315,2023-10-27 12:30:23.01,180,-91,-2061,142,-45,49,407,539,-132,-473
,316,2023-10-27 12:30:23.02,185,-92,-2062,152,-45,51,125,270,-145,-197
,317,2023-10-27 12:30:23.03,168,-108,-2077,157,-63,45,402,544,-142,-473
,318,2023-10-27 12:30:23.04,178,-121,-2078,168,-69,45,128,266,-138,-197
,319,2023-10-27 12:30:23.05,156,-125,-2058,184,-78,49,391,541,-150,-466
,320,2023-10-27 12:30:23.06,148,-147,-2056,197,-94,49,117,263,-146,-190
,321,2023-10-27 12:30:23.07,140,-151,-2044,205,-95,60,380,534,-154,-457
,322,2023-10-27 12:30:23.08,145,-158,-2030,215,-101,62,121,263,-142,-192
,323,2023-10-27 12:30:23.09,154,-166,-2032,224,-96,65,383,535,-152,-459
,324,2023-10-27 12:30:23.10,148,-151,-2018,232,-86,73,127,266,-139,-196
,325,2023-10-27 12:30:23.11,156,-160,-2017,241,-76,70,392,540,-148,-466
,326,2023-10-27 12:30:23.12,156,-178,-2036,255,-69,76,128,251,-123,-189
,327,2023-10-27 12:30:23.13,138,-181,-2053,263,-75,83,391,533,-142,-462
,328,2023-10-27 12:30:23.14,135,-192,-2033,272,-65,92,145,272,-127,-208
,329,2023-10-27 12:30:23.15,144,-206,-2032,281,-60,105,376,538,-162,-457
,330,2023-10-27 12:30:23.16,142,-208,-2046,282,-59,113,128,256,-128,-192
,331,2023-10-27 12:30:23.17,137,-212,-2034,277,-28,123,382,534,-152,-458
,332,2023-10-27 12:30:23.18,134,-196,-2027,264,-12,128,126,259,-133,-192
,333,2023-10-27 12:30:23.19,137,-204,-2024,250,2,126,359,542,-183,-450
,334,2023-10-27 12:30:23.20,142,-208,-2030,235,29,130,113,269,-156,-191
,335,2023-10-27 12:30:23.21,145,-196,-2050,219,58,129,343,543,-200,-443
,336,2023-10-27 12:30:23.22,132,-199,-2038,201,60,129,98,260,-162,-179
,337,2023-10-27 12:30:23.23,136,-198,-2034,190,75,130,331,538,-207,-434
,338,2023-10-27 12:30:23.24,142,-198,-2029,174,86,129,92,258,-166,-175
,339,2023-10-27 12:30:23.25,151,-193,-2004,157,93,131,314,531,-217,-422
,340,2023-10-27 12:30:23.26,151,-201,-1988,140,108,132,97,262,-165,-179
,341,2023-10-27 12:30:23.27,160,-213,-1993,124,120,124,318,522,-204,-420
,342,2023-10-27 12:30:23.28,166,-213,-2004,110,133,122,113,254,-141,-183
,343,2023-10-27 12:30:23.29,164,-220,-1989,99,145,120,327,515,-188,-421
,344,2023-10-27 12:30:23.30,178,-224,-2004,92,154,119,127,260,-133,-193
,345,2023-10-27 12:30:23.31,173,-215,-2023,75,168,117,330,519,-189,-424
,346,2023-10-27 12:30:23.32,184,-195,-2025,53,187,109,142,269,-127,-205
,347,2023-10-27 12:30:23.33,187,-194,-2033,31,204,100,329,528,-199,-428
,348,2023-10-27 12:30:23.34,191,-195,-2059,10,219,88,145,276,-131,-210
,349,2023-10-27 12:30:23.35,206,-195,-2074,-15,229,82,319,524,-205,-421
,350,2023-10-27 12:30:23.36,218,-189,-2050,-37,230,78,142,278,-136,-210
,351,2023-10-27 12:30:23.37,225,-196,-2044,-51,237,75,291,520,-229,-405
,352,2023-10-27 12:30:23.38,238,-190,-2055,-67,251,70,130,277,-147,-203
,353,2023-10-27 12:30:23.39,243,-199,-2020,-77,261,65,268,519,-251,-393
,354,2023-10-27 12:30:23.40,271,-201,-2047,-77,273,58,120,274,-154,-197
,355,2023-10-27 12:30:23.41,237,-199,-2039,-78,277,51,255,509,-254,-382
,356,2023-10-27 12:30:23.42,260,-210,-2024,-70,276,47,122,282,-160,-202
,357,2023-10-27 12:30:23.43,252,-200,-2041,-68,290,37,237,508,-271,-372
,358,2023-10-27 12:30:23.44,265,-201,-2031,-63,276,34,124,283,-159,-203
,359,2023-10-27 12:30:23.45,273,-202,-2025,-52,281,34,221,513,-292,-367
,360,2023-10-27 12:30:23.46,278,-212,-1993,-40,273,25,121,290,-169,-205
,361,2023-10-27 12:30:23.47,304,-207,-2037,-27,269,21,215,503,-288,-359
,362,2023-10-27 12:30:23.48,301,-207,-2042,-17,265,18,123,293,-170,-208
,363,2023-10-27 12:30:23.49,294,-222,-2036,0,251,17,203,502,-299,-352
,364,2023-10-27 12:30:23.50,302,-206,-2031,12,233,12,126,299,-173,-212
,365,2023-10-27 12:30:23.51,305,-209,-2040,19,230,12,187,503,-316,-345
,366,2023-10-27 12:30:23.52,303,-205,-2045,21,219,8,128,301,-173,-214
,367,2023-10-27 12:30:23.53,298,-213,-2043,22,206,9,182,497,-315,-339
,368,2023-10-27 12:30:23.54,300,-202,-2038,31,180,8,133,313,-180,-223
,369,2023-10-27 12:30:23.55,304,-195,-2026,40,169,8,178,496,-318,-337
,370,2023-10-27 12:30:23.56,321,-207,-2025,41,170,3,137,325,-188,-231
,371,2023-10-27 12:30:23.57,314,-225,-2054,43,157,2,174,484,-310,-329
,372,2023-10-27 12:30:23.58,322,-224,-2055,49,140,-4,151,308,-157,-229
,373,2023-10-27 12:30:23.59,316,-234,-2052,56,132,-2,167,473,-306,-320
,374,2023-10-27 12:30:23.60,314,-235,-2066,58,119,-3,154,322,-168,-238
,375,2023-10-27 12:30:23.61,318,-228,-2058,51,111,2,172,480,-308,-326
,376,2023-10-27 12:30:23.62,332,-243,-2075,53,103,7,168,337,-169,-252
,377,2023-10-27 12:30:23.63,312,-238,-2075,46,96,6,162,480,-318,-321
,378,2023-10-27 12:30:23.64,307,-226,-2049,32,89,11,176,339,-163,-257
,379,2023-10-27 12:30:23.65,315,-224,-2039,24,86,16,162,481,-319,-321
,380,2023-10-27 12:30:23.66,327,-228,-2046,15,70,14,181,349,-168,-265
,381,2023-10-27 12:30:23.67,316,-222,-2030,0,68,19,154,476,-322,-315
,382,2023-10-27 12:30:23.68,321,-232,-2022,-8,64,23,180,355,-175,-267
,383,2023-10-27 12:30:23.69,321,-232,-2023,-14,58,29,138,474,-336,-306
,384,2023-10-27 12:30:23.70,322,-227,-2008,-18,54,36,181,358,-177,-269
,385,2023-10-27 12:30:23.71,327,-236,-2016,-21,47,39,127,472,-345,-299
,386,2023-10-27 12:30:23.72,341,-228,-2017,-26,44,45,180,366,-186,-273
,387,2023-10-27 12:30:23.73,340,-240,-2028,-29,52,50,120,463,-343,-291
,388,2023-10-27 12:30:23.74,338,-243,-2029,-32,51,53,183,373,-190,-278
,389,2023-10-27 12:30:23.75,341,-232,-2027,-31,59,57,112,461,-349,-286
,390,2023-10-27 12:30:23.76,350,-226,-2035,-34,74,63,204,381,-177,-292
,391,2023-10-27 12:30:23.77,347,-221,-2029,-40,68,62,123,455,-332,-289
,392,2023-10-27 12:30:23.78,349,-217,-2020,-45,74,68,222,387,-165,-304
,393,2023-10-27 12:30:23.79,363,-217,-2018,-49,74,71,165,462,-297,-313
,394,2023-10-27 12:30:23.80,354,-220,-2018,-54,75,73,280,425,-145,-352
,395,2023-10-27 12:30:23.81,355,-213,-2031,-58,76,77,140,457,-317,-298
,396,2023-10-27 12:30:23.82,356,-210,-2042,-59,64,81,218,392,-174,-305
,397,2023-10-27 12:30:23.83,350,-202,-2046,-61,55,84,82,432,-350,-257
,398,2023-10-27 12:30:23.84,360,-201,-2049,-61,49,91,200,395,-195,-297
,399,2023-10-27 12:30:23.85,354,-197,-2054,-67,40,93,62,436,-374,-249
,400,2023-10-27 12:30:23.86,357,-179,-2054,-75,23,98,183,406,-223,-294
,401,2023-10-27 12:30:23.87,346,-182,-2030,-90,17,100,35,426,-391,-230
,402,2023-10-27 12:30:23.88,351,-177,-2044,-96,8,100,171,400,-229,-285
,403,2023-10-27 12:30:23.89,343,-191,-2037,-100,-13,106,20,418,-398,-219
,404,2023-10-27 12:30:23.90,334,-193,-2024,-95,-20,110,171,404,-233,-287
,405,2023-10-27 12:30:23.91,329,-193,-2031,-85,-25,118,27,409,-382,-218
,406,2023-10-27 12:30:23.92,346,-205,-2038,-81,-47,119,186,413,-227,-299
,407,2023-10-27 12:30:23.93,339,-195,-2030,-77,-55,122,25,401,-376,-213
,408,2023-10-27 12:30:23.94,344,-186,-2040,-71,-41,127,188,411,-223,-299
,409,2023-10-27 12:30:23.95,335,-187,-2049,-68,-48,131,24,400,-376,-212
,410,2023-10-27 12:30:23.96,342,-188,-2055,-69,-53,130,213,424,-211,-318
,411,2023-10-27 12:30:23.97,340,-178,-2048,-69,-45,133,39,401,-362,-220
,412,2023-10-27 12:30:23.98,326,-177,-2051,-71,-44,133,220,434,-214,-327
,413,2023-10-27 12:30:23.99,336,-181,-2059,-70,-57,135,26,388,-362,-207
,414,2023-10-27 12:30:24.00,331,-179,-2044,-69,-59,142,216,430,-214,-323
,415,2023-10-27 12:30:24.01,329,-177,-2044,-72,-61,143,10,390,-380,-200
,416,2023-10-27 12:30:24.02,330,-160,-2051,-75,-71,143,209,442,-233,-325
,417,2023-10-27 12:30:24.03,330,-163,-2052,-78,-74,141,3,383,-380,-193
,418,2023-10-27 12:30:24.04,328,-146,-2051,-82,-87,138,204,448,-244,-326
,419,2023-10-27 12:30:24.05,325,-136,-2047,-89,-90,134,-20,371,-391,-175
,420,2023-10-27 12:30:24.06,326,-128,-2049,-96,-96,130,197,450,-253,-323
,421,2023-10-27 12:30:24.07,322,-137,-2057,-101,-103,120,-47,391,-438,-172
,422,2023-10-27 12:30:24.08,318,-128,-2058,-107,-105,116,128,451,-323,-289
,423,2023-10-27 12:30:24.09,308,-125,-2037,-113,-117,115,-87,358,-445,-135
,424,2023-10-27 12:30:24.10,331,-119,-2022,-117,-117,106,184,452,-268,-318
,425,2023-10-27 12:30:24.11,323,-128,-2010,-120,-113,97,6,341,-335,-173
,426,2023-10-27 12:30:24.12,324,-138,-2020,-121,-100,94,282,466,-184,-374
,427,2023-10-27 12:30:24.13,330,-136,-2018,-113,-99,87,53,360,-307,-206
,428,2023-10-27 12:30:24.14,317,-149,-2029,-104,-97,78,289,478,-189,-383
,429,2023-10-27 12:30:24.15,329,-140,-2039,-92,-82,75,36,355,-319,-195
,430,2023-10-27 12:30:24.16,320,-135,-2036,-83,-84,62,278,486,-208,-382
,431,2023-10-27 12:30:24.17,325,-118,-2026,-66,-64,43,27,351,-324,-189
,432,2023-10-27 12:30:24.18,310,-120,-2042,-67,-58,29,274,496,-222,-385
,433,2023-10-27 12:30:24.19,324,-116,-2041,-68,-55,23,12,352,-340,-182
,434,2023-10-27 12:30:24.20,318,-111,-2041,-69,-48,16,260,491,-231,-375
,435,2023-10-27 12:30:24.21,314,-100,-2047,-75,-63,3,-5,344,-349,-169
,436,2023-10-27 12:30:24.22,308,-98,-2042,-84,-56,-4,250,495,-245,-372
,437,2023-10-27 12:30:24.23,290,-105,-2037,-84,-65,-7,-15,332,-347,-158
,438,2023-10-27 12:30:24.24,288,-101,-2046,-86,-80,-10,244,501,-257,-372
,439,2023-10-27 12:30:24.25,285,-115,-2043,-85,-92,-15,-25,333,-358,-154
,440,2023-10-27 12:30:24.26,281,-125,-2047,-80,-99,-10,243,501,-258,-372
,441,2023-10-27 12:30:24.27,280,-128,-2055,-74,-117,-5,-25,329,-354,-152
,442,2023-10-27 12:30:24.28,271,-124,-2054,-70,-128,-2,240,505,-265,-372
,443,2023-10-27 12:30:24.29,285,-119,-2055,-66,-132,7,-25,322,-347,-148
,444,2023-10-27 12:30:24.30,260,-124,-2054,-64,-127,12,251,512,-261,-381
,445,2023-10-27 12:30:24.31,267,-131,-2048,-62,-135,16,-23,316,-339,-146
,446,2023-10-27 12:30:24.32,253,-130,-2037,-62,-123,25,259,513,-254,-386
,447,2023-10-27 12:30:24.33,258,-122,-2037,-60,-125,32,-30,316,-346,-143
,448,2023-10-27 12:30:24.34,248,-122,-2041,-64,-108,33,231,515,-284,-373
,449,2023-10-27 12:30:24.35,261,-108,-2025,-69,-106,43,-64,292,-356,-114
,450,2023-10-27 12:30:24.36,256,-106,-2026,-73,-100,44,222,513,-291,-367
,451,2023-10-27 12:30:24.37,252,-110,-2045,-77,-85,52,-55,298,-353,-121
,452,2023-10-27 12:30:24.38,242,-109,-2049,-76,-86,57,232,521,-289,-376
,453,2023-10-27 12:30:24.39,251,-95,-2038,-78,-87,60,-55,301,-356,-123
,454,2023-10-27 12:30:24.40,259,-91,-2042,-79,-76,68,224,518,-294,-371
,455,2023-10-27 12:30:24.41,250,-86,-2035,-81,-73,68,-52,291,-343,-119
,456,2023-10-27 12:30:24.42,254,-90,-2037,-76,-71,67,235,528,-293,-381
,457,2023-10-27 12:30:24.43,243,-104,-2038,-72,-71,70,-45,295,-340,-125
,458,2023-10-27 12:30:24.44,232,-93,-2054,-72,-68,71,236,518,-282,-377
,459,2023-10-27 12:30:24.45,238,-82,-2061,-72,-68,74,-41,293,-334,-126
,460,2023-10-27 12:30:24.46,231,-54,-2063,-74,-75,74,238,528,-290,-383
,461,2023-10-27 12:30:24.47,237,-64,-2071,-78,-85,70,-34,293,-327,-129
,462,2023-10-27 12:30:24.48,219,-42,-2063,-90,-89,66,240,533,-293,-386
,463,2023-10-27 12:30:24.49,237,-30,-2044,-101,-83,63,-36,284,-320,-124
,464,2023-10-27 12:30:24.50,219,-31,-2035,-105,-83,55,250,529,-279,-389
,465,2023-10-27 12:30:24.51,228,-43,-2033,-107,-77,45,-36,282,-318,-123
,466,2023-10-27 12:30:24.52,232,-47,-2037,-111,-67,40,234,532,-298,-383
,467,2023-10-27 12:30:24.53,223,-48,-2043,-112,-66,36,-44,279,-323,-117
,468,2023-10-27 12:30:24.54,224,-36,-2058,-104,-72,32,226,537,-311,-381
,469,2023-10-27 12:30:24.55,218,-30,-2053,-104,-73,32,-48,273,-321,-112
,470,2023-10-27 12:30:24.56,208,-3,-2058,-106,-81,27,227,534,-307,-380
,471,2023-10-27 12:30:24.57,228,-20,-2054,-110,-82,20,-47,269,-316,-111
,472,2023-10-27 12:30:24.58,200,-19,-2055,-111,-82,17,222,527,-305,-374
,473,2023-10-27 12:30:24.59,195,-27,-2068,-111,-97,15,-40,269,-309,-114
,474,2023-10-27 12:30:24.60,213,-27,-2051,-104,-100,22,230,534,-304,-382
,475,2023-10-27 12:30:24.61,219,-20,-2050,-103,-105,23,-35,265,-300,-115
,476,2023-10-27 12:30:24.62,223,-17,-2048,-99,-104,27,234,537,-303,-385
,477,2023-10-27 12:30:24.63,196,-18,-2045,-98,-101,30,-29,269,-298,-120
,478,2023-10-27 12:30:24.64,194,-34,-2046,-91,-101,32,227,536,-309,-381
,479,2023-10-27 12:30:24.65,207,-36,-2041,-85,-101,40,-30,269,-299,-119
,480,2023-10-27 12:30:24.66,199,-39,-2051,-76,-99,46,224,538,-314,-381
,481,2023-10-27 12:30:24.67,192,-41,-2054,-67,-99,58,-27,263,-290,-118
,482,2023-10-27 12:30:24.68,194,-37,-2062,-55,-98,68,230,540,-310,-385
,483,2023-10-27 12:30:24.69,181,-37,-2059,-49,-102,72,-20,265,-285,-122
,484,2023-10-27 12:30:24.70,179,-23,-2052,-38,-103,78,230,538,-308,-384
,485,2023-10-27 12:30:24.71,190,-33,-2053,-31,-94,85,-11,268,-279,-128
,486,2023-10-27 12:30:24.72,180,-35,-2044,-28,-92,91,231,542,-311,-386
,487,2023-10-27 12:30:24.73,187,-38,-2044,-27,-91,95,-3,268,-271,-132
,488,2023-10-27 12:30:24.74,183,-37,-2046,-22,-81,97,232,542,-310,-387
,489,2023-10-27 12:30:24.75,183,-30,-2046,-17,-77,100,-4,268,-272,-132
,490,2023-10-27 12:30:24.76,185,-35,-2047,-15,-72,106,214,528,-314,-371
,491,2023-10-27 12:30:24.77,174,-30,-2049,-11,-64,106,1,271,-270,-136
,492,2023-10-27 12:30:24.78,174,-45,-2058,-8,-64,103,228,543,-315,-385
,493,2023-10-27 12:30:24.79,189,-36,-2048,-2,-54,102,13,270,-257,-141
,494,2023-10-27 12:30:24.80,176,-42,-2050,-1,-46,99,228,541,-313,-384
,495,2023-10-27 12:30:24.81,170,-39,-2045,9,-45,97,9,264,-255,-136
,496,2023-10-27 12:30:24.82,176,-60,-2037,19,-35,96,223,533,-310,-378
,497,2023-10-27 12:30:24.83,191,-57,-2046,29,-30,95,13,270,-257,-141
,498,2023-10-27 12:30:24.84,183,-63,-2038,38,-29,97,216,538,-322,-377
,499,2023-10-27 12:30:24.85,184,-57,-2033,51,-25,93,7,259,-252,-133
,500,2023-10-27 12:30:24.86,185,-66,-2048,59,-16,96,209,540,-331,-374
,501,2023-10-27 12:30:24.87,178,-65,-2038,66,-22,94,12,265,-253,-138
,502,2023-10-27 12:30:24.88,184,-58,-2050,73,-22,92,207,534,-327,-370
,503,2023-10-27 12:30:24.89,182,-68,-2047,79,-11,88,19,269,-250,-144
,504,2023-10-27 12:30:24.90,181,-72,-2054,83,-13,84,200,534,-334,-367
,505,2023-10-27 12:30:24.91,185,-59,-2059,85,-14,82,18,269,-251,-143
,506,2023-10-27 12:30:24.92,190,-64,-2049,91,-17,81,201,535,-334,-368
,507,2023-10-27 12:30:24.93,180,-65,-2050,92,-19,73,30,269,-239,-149
,508,2023-10-27 12:30:24.94,174,-70,-2050,91,-18,70,207,528,-321,-367
,509,2023-10-27 12:30:24.95,177,-69,-2063,93,-25,67,43,272,-229,-157
,510,2023-10-27 12:30:24.96,164,-68,-2057,93,-35,65,204,526,-322,-365
,511,2023-10-27 12:30:24.97,176,-69,-2063,88,-31,63,49,272,-223,-160
,512,2023-10-27 12:30:24.98,168,-73,-2061,86,-35,63,204,529,-325,-366
,513,2023-10-27 12:30:24.99,160,-67,-2066,80,-54,59,53,275,-222,-164
,514,2023-10-27 12:30:25.00,168,-57,-2070,72,-50,55,201,525,-324,-363
,515,2023-10-27 12:30:25.01,157,-61,-2058,65,-57,59,58,280,-222,-169
,516,2023-10-27 12:30:25.02,152,-57,-2047,56,-64,57,194,522,-328,-358
,517,2023-10-27 12:30:25.03,155,-57,-2062,49,-63,56,66,275,-209,-170
,518,2023-10-27 12:30:25.04,142,-68,-2060,40,-71,58,190,524,-334,-357
,519,2023-10-27 12:30:25.05,149,-61,-2057,36,-85,59,62,281,-219,-171
,520,2023-10-27 12:30:25.06,143,-56,-2039,34,-78,60,183,521,-338,-352
,521,2023-10-27 12:30:25.07,140,-72,-2043,34,-67,65,72,286,-214,-179
,522,2023-10-27 12:30:25.08,146,-59,-2058,33,-70,64,183,515,-332,-349
,523,2023-10-27 12:30:25.09,155,-59,-2053,35,-68,66,83,290,-207,-186
,524,2023-10-27 12:30:25.10,132,-75,-2046,29,-58,71,178,516,-338,-347
,525,2023-10-27 12:30:25.11,112,-78,-2029,32,-64,75,87,287,-200,-187
,526,2023-10-27 12:30:25.12,132,-60,-2060,34,-53,85,184,517,-333,-350
,527,2023-10-27 12:30:25.13,139,-60,-2054,29,-65,90,99,299,-200,-199
,528,2023-10-27 12:30:25.14,131,-62,-2050,16,-64,88,185,522,-337,-353
,529,2023-10-27 12:30:25.15,141,-59,-2055,20,-53,100,105,304,-199,-204
,530,2023-10-27 12:30:25.16,126,-50,-2058,15,-53,98,173,514,-341,-343
,531,2023-10-27 12:30:25.17,142,-54,-2052,10,-48,97,92,288,-196,-190
,532,2023-10-27 12:30:25.18,129,-62,-2049,8,-37,98,166,512,-346,-339
,533,2023-10-27 12:30:25.19,130,-60,-2052,10,-44,101,111,308,-197,-209
,534,2023-10-27 12:30:25.20,126,-63,-2052,9,-47,100,158,504,-346,-331
,535,2023-10-27 12:30:25.21,123,-58,-2048,14,-39,104,119,313,-194,-216
,536,2023-10-27 12:30:25.22,126,-55,-2030,17,-45,105,157,502,-345,-329
,537,2023-10-27 12:30:25.23,126,-55,-2045,22,-33,103,116,306,-190,-211
,538,2023-10-27 12:30:25.24,125,-62,-2046,30,-28,105,152,495,-343,-323
,539,2023-10-27 12:30:25.25,116,-76,-2028,39,-23,101,131,318,-187,-224
,540,2023-10-27 12:30:25.26,114,-63,-2056,47,-19,98,147,493,-346,-320
,541,2023-10-27 12:30:25.27,113,-77,-2031,55,-26,100,137,325,-188,-231
,542,2023-10-27 12:30:25.28,132,-64,-2054,64,-26,102,144,492,-348,-318
,543,2023-10-27 12:30:25.29,127,-69,-2049,70,-18,103,139,325,-186,-232
,544,2023-10-27 12:30:25.30,133,-85,-2032,75,-15,109,139,486,-347,-312
,545,2023-10-27 12:30:25.31,122,-74,-2057,78,-15,107,146,331,-185,-238
,546,2023-10-27 12:30:25.32,130,-85,-2044,86,-16,108,132,482,-350,-307
,547,2023-10-27 12:30:25.33,139,-83,-2041,94,-14,107,153,338,-185,-245
,548,2023-10-27 12:30:25.34,130,-80,-2052,95,0,104,123,475,-352,-299
,549,2023-10-27 12:30:25.35,134,-84,-2056,97,-2,102,154,337,-183,-245
,550,2023-10-27 12:30:25.36,127,-84,-2053,102,-3,96,127,471,-344,-299
,551,2023-10-27 12:30:25.37,114,-97,-2047,111,5,94,164,348,-184,-256
,552,2023-10-27 12:30:25.38,121,-81,-2062,113,5,90,119,467,-348,-293
,553,2023-10-27 12:30:25.39,138,-90,-2045,113,0,84,174,349,-175,-261
,554,2023-10-27 12:30:25.40,136,-96,-2041,121,9,83,116,462,-346,-289
,555,2023-10-27 12:30:25.41,133,-103,-2056,128,5,78,177,357,-180,-267
,556,2023-10-27 12:30:25.42,149,-113,-2054,141,5,79,118,457,-339,-287
,557,2023-10-27 12:30:25.43,120,-90,-2053,136,17,68,186,365,-179,-275
,558,2023-10-27 12:30:25.44,129,-107,-2046,135,0,64,108,452,-344,-280
,559,2023-10-27 12:30:25.45,143,-99,-2061,143,6,59,189,366,-177,-277
,560,2023-10-27 12:30:25.46,126,-117,-2047,140,19,54,102,449,-347,-275
,561,2023-10-27 12:30:25.47,144,-112,-2051,143,17,51,194,375,-181,-284
,562,2023-10-27 12:30:25.48,108,-121,-2047,141,22,45,102,444,-342,-273
,563,2023-10-27 12:30:25.49,139,-135,-2051,143,13,52,197,383,-186,-290
,564,2023-10-27 12:30:25.50,131,-123,-2046,141,22,46,90,439,-349,-264
,565,2023-10-27 12:30:25.51,132,-134,-2039,140,17,47,206,384,-178,-295
,566,2023-10-27 12:30:25.52,133,-132,-2047,139,19,46,88,434,-346,-261
,567,2023-10-27 12:30:25.53,151,-126,-2059,143,18,49,208,392,-184,-300
,568,2023-10-27 12:30:25.54,122,-133,-2064,132,25,41,86,427,-341,-256
,569,2023-10-27 12:30:25.55,131,-138,-2039,125,24,42,226,407,-181,-316
,570,2023-10-27 12:30:25.56,131,-147,-2048,121,27,43,79,420,-341,-249
,571,2023-10-27 12:30:25.57,155,-155,-2064,129,25,55,220,404,-184,-312
,572,2023-10-27 12:30:25.58,125,-147,-2055,122,32,54,61,402,-341,-231
,573,2023-10-27 12:30:25.59,139,-151,-2049,118,23,54,224,407,-183,-315
,574,2023-10-27 12:30:25.60,138,-151,-2060,114,30,56,68,412,-344,-240
,575,2023-10-27 12:30:25.61,142,-153,-2044,115,25,60,218,413,-195,-315
,576,2023-10-27 12:30:25.62,140,-152,-2049,117,24,63,57,401,-344,-229
,577,2023-10-27 12:30:25.63,168,-158,-2066,123,15,65,224,419,-195,-321
,578,2023-10-27 12:30:25.64,141,-171,-2043,123,24,64,48,397,-349,-222
,579,2023-10-27 12:30:25.65,150,-174,-2045,128,23,67,229,422,-193,-325
,580,2023-10-27 12:30:25.66,150,-179,-2033,136,22,72,50,395,-345,-222
,581,2023-10-27 12:30:25.67,137,-189,-2049,140,14,75,236,431,-195,-333
,582,2023-10-27 12:30:25.68,135,-196,-2060,144,15,84,50,386,-336,-218
,583,2023-10-27 12:30:25.69,138,-194,-2053,153,4,91,242,438,-196,-340
,584,2023-10-27 12:30:25.70,144,-196,-2052,161,-6,93,37,383,-346,-210
,585,2023-10-27 12:30:25.71,144,-189,-2058,162,-7,96,238,443,-205,-340
,586,2023-10-27 12:30:25.72,150,-192,-2057,161,-7,97,32,381,-349,-206
,587,2023-10-27 12:30:25.73,137,-197,-2064,162,-9,95,239,444,-205,-341
,588,2023-10-27 12:30:25.74,163,-182,-2063,171,-19,105,29,365,-336,-197
,589,2023-10-27 12:30:25.75,94,-215,-2046,166,-6,105,244,449,-205,-346
,590,2023-10-27 12:30:25.76,130,-200,-2049,161,-24,102,22,363,-341,-192
,591,2023-10-27 12:30:25.77,126,-211,-2046,155,-17,111,249,451,-202,-350
