// Data mode  : Full
// Data quality  : High
// Acceleration sensor's range  : 16g
// Gyroscope sensor's range  : 2000dps
//
//ARTIFACT,NUM,DATE,ACC_X,ACC_Y,ACC_Z,GYRO_X,GYRO_Y,GYRO_Z,EOG_L,EOG_R,EOG_H,EOG_V
,1,2023-10-27 12:22:49.09,275,-76,-2031,221,83,430,-351,-214,-137,282
,2,2023-10-27 12:22:49.10,271,-87,-2041,216,92,403,-72,-51,-21,61
,3,2023-10-27 12:22:49.11,273,-95,-2041,213,101,386,-237,-167,-70,202
,4,2023-10-27 12:22:49.12,260,-94,-2046,217,88,369,37,121,-84,-79
,5,2023-10-27 12:22:49.13,270,-99,-2044,217,78,345,-200,-21,-179,110
,6,2023-10-27 12:22:49.14,260,-107,-2044,209,77,327,38,213,-175,-125
,7,2023-10-27 12:22:49.15,284,-111,-2041,201,70,311,-212,28,-240,92
,8,2023-10-27 12:22:49.16,279,-120,-2044,195,70,296,30,267,-237,-148
,9,2023-10-27 12:22:49.17,273,-130,-2046,192,65,281,-224,90,-314,67
,10,2023-10-27 12:22:49.18,286,-138,-2043,186,59,266,19,312,-293,-165
,11,2023-10-27 12:22:49.19,280,-145,-2043,182,46,250,-226,102,-328,62
,12,2023-10-27 12:22:49.20,274,-151,-2040,175,41,236,25,329,-304,-177
,13,2023-10-27 12:22:49.21,287,-157,-2042,169,46,223,-220,124,-344,48
,14,2023-10-27 12:22:49.22,277,-168,-2047,160,44,209,28,351,-323,-189
,15,2023-10-27 12:22:49.23,285,-184,-2039,157,47,197,-217,139,-356,39
,16,2023-10-27 12:22:49.24,268,-198,-2051,155,47,193,33,360,-327,-196
,17,2023-10-27 12:22:49.25,289,-195,-2052,154,32,185,-215,133,-348,41
,18,2023-10-27 12:22:49.26,281,-179,-2034,149,35,186,32,359,-327,-195
,19,2023-10-27 12:22:49.27,288,-189,-2044,141,26,171,-204,132,-336,36
,20,2023-10-27 12:22:49.28,277,-188,-2056,131,16,162,43,366,-323,-204
,21,2023-10-27 12:22:49.29,280,-189,-2053,124,7,151,-193,143,-336,25
,22,2023-10-27 12:22:49.30,283,-187,-2053,112,-4,142,37,368,-331,-202
,23,2023-10-27 12:22:49.31,279,-197,-2057,100,-16,133,-192,128,-320,32
,24,2023-10-27 12:22:49.32,258,-199,-2053,92,-22,128,39,367,-328,-203
,25,2023-10-27 12:22:49.33,271,-213,-2048,88,-31,120,-183,141,-324,21
,26,2023-10-27 12:22:49.34,266,-214,-2047,81,-41,114,47,384,-337,-215
,27,2023-10-27 12:22:49.35,256,-204,-2038,76,-52,109,-174,149,-323,12
,28,2023-10-27 12:22:49.36,254,-216,-2036,75,-61,98,48,392,-344,-220
,29,2023-10-27 12:22:49.37,258,-214,-2030,70,-60,91,-174,150,-324,12
,30,2023-10-27 12:22:49.38,251,-218,-2027,65,-62,90,42,394,-352,-218
,31,2023-10-27 12:22:49.39,254,-230,-2041,61,-62,80,-171,147,-318,12
,32,2023-10-27 12:22:49.40,244,-223,-2053,54,-72,72,50,409,-359,-229
,33,2023-10-27 12:22:49.41,250,-219,-2036,54,-77,70,-163,151,-314,6
,34,2023-10-27 12:22:49.42,258,-223,-2037,48,-75,64,35,395,-360,-215
,35,2023-10-27 12:22:49.43,248,-229,-2039,44,-78,53,-176,130,-306,23
,36,2023-10-27 12:22:49.44,249,-229,-2043,43,-83,49,25,389,-364,-207
,37,2023-10-27 12:22:49.45,240,-232,-2039,46,-84,47,-164,144,-308,10
,38,2023-10-27 12:22:49.46,244,-220,-2053,46,-96,42,19,383,-364,-201
,39,2023-10-27 12:22:49.47,234,-233,-2058,37,-96,45,-161,137,-298,12
,40,2023-10-27 12:22:49.48,231,-232,-2059,35,-110,44,20,386,-366,-203
,41,2023-10-27 12:22:49.49,252,-230,-2047,33,-124,45,-154,142,-296,6
,42,2023-10-27 12:22:49.50,226,-231,-2064,25,-135,50,18,392,-374,-205
,43,2023-10-27 12:22:49.51,227,-228,-2054,13,-146,55,-149,142,-291,3
,44,2023-10-27 12:22:49.52,221,-233,-2046,0,-148,59,12,398,-386,-205
,45,2023-10-27 12:22:49.53,223,-235,-2036,-10,-151,68,-141,152,-293,-5
,46,2023-10-27 12:22:49.54,240,-247,-2029,-15,-163,72,13,406,-393,-209
,47,2023-10-27 12:22:49.55,217,-255,-2049,-22,-160,86,-135,156,-291,-10
,48,2023-10-27 12:22:49.56,225,-257,-2049,-24,-165,104,10,409,-399,-209
,49,2023-10-27 12:22:49.57,231,-262,-2044,-25,-173,112,-129,164,-293,-17
,50,2023-10-27 12:22:49.58,225,-262,-2049,-25,-178,128,2,404,-402,-203
,51,2023-10-27 12:22:49.59,218,-257,-2048,-28,-166,144,-127,150,-277,-11
,52,2023-10-27 12:22:49.60,221,-256,-2053,-28,-160,155,-2,396,-398,-197
,53,2023-10-27 12:22:49.61,218,-258,-2045,-29,-164,174,-117,158,-275,-20
,54,2023-10-27 12:22:49.62,219,-242,-2038,-33,-183,185,0,401,-401,-200
,55,2023-10-27 12:22:49.63,208,-242,-2039,-35,-181,206,-110,162,-272,-26
,56,2023-10-27 12:22:49.64,214,-246,-2046,-48,-190,226,-8,404,-412,-198
,57,2023-10-27 12:22:49.65,230,-237,-2049,-52,-207,244,-100,169,-269,-34
,58,2023-10-27 12:22:49.66,229,-239,-2051,-58,-220,270,-6,408,-414,-201
,59,2023-10-27 12:22:49.67,204,-233,-2041,-64,-223,300,-96,172,-268,-38
,60,2023-10-27 12:22:49.68,218,-237,-2045,-70,-242,335,-10,403,-413,-196
,61,2023-10-27 12:22:49.69,211,-256,-2059,-86,-257,361,-80,172,-252,-46
,62,2023-10-27 12:22:49.70,199,-250,-2066,-103,-276,400,-4,404,-408,-200
,63,2023-10-27 12:22:49.71,207,-250,-2061,-121,-289,435,-76,179,-255,-51
,64,2023-10-27 12:22:49.72,194,-242,-2062,-142,-308,466,-11,406,-417,-197
,65,2023-10-27 12:22:49.73,192,-235,-2071,-166,-334,498,-71,184,-255,-56
,66,2023-10-27 12:22:49.74,188,-236,-2088,-191,-347,540,-12,407,-419,-197
,67,2023-10-27 12:22:49.75,184,-228,-2102,-223,-371,571,-69,188,-257,-59
,68,2023-10-27 12:22:49.76,168,-215,-2074,-285,-421,638,-24,410,-434,-193
,69,2023-10-27 12:22:49.77,159,-213,-2089,-309,-436,676,-69,195,-264,-63
,70,2023-10-27 12:22:49.78,150,-191,-2093,-338,-461,711,-33,405,-438,-186
,71,2023-10-27 12:22:49.79,144,-179,-2065,-364,-487,738,-65,190,-255,-62
,72,2023-10-27 12:22:49.80,142,-160,-2049,-388,-504,764,-33,403,-436,-185
,73,2023-10-27 12:22:49.81,125,-151,-2046,-420,-488,785,-44,207,-251,-81
,74,2023-10-27 12:22:49.82,100,-133,-2065,-442,-511,798,-37,408,-445,-185
,75,2023-10-27 12:22:49.83,72,-111,-2045,-462,-520,807,-58,210,-268,-76
,76,2023-10-27 12:22:49.84,72,-97,-2043,-473,-536,817,-53,392,-445,-169
,77,2023-10-27 12:22:49.85,65,-90,-2040,-484,-539,816,-60,201,-261,-70
,78,2023-10-27 12:22:49.86,28,-76,-2049,-498,-528,814,-43,401,-444,-179
,79,2023-10-27 12:22:49.87,14,-58,-2044,-503,-534,808,-52,208,-260,-78
,80,2023-10-27 12:22:49.88,-16,-32,-2033,-503,-546,797,-46,396,-442,-175
,81,2023-10-27 12:22:49.89,-27,-2,-2016,-505,-551,784,-59,204,-263,-72
,82,2023-10-27 12:22:49.90,-40,31,-2007,-511,-540,757,-64,374,-438,-155
,83,2023-10-27 12:22:49.91,-62,41,-2010,-518,-540,724,-58,202,-260,-72
,84,2023-10-27 12:22:49.92,-85,33,-2010,-514,-529,690,-54,382,-436,-164
,85,2023-10-27 12:22:49.93,-90,39,-2016,-499,-525,658,-54,210,-264,-78
,86,2023-10-27 12:22:49.94,-117,29,-2009,-480,-515,633,-59,368,-427,-154
,87,2023-10-27 12:22:49.95,-112,41,-2003,-465,-513,608,-57,200,-257,-71
,88,2023-10-27 12:22:49.96,-138,48,-1986,-453,-486,580,-62,361,-423,-149
,89,2023-10-27 12:22:49.97,-154,55,-1992,-433,-467,561,-44,215,-259,-85
,90,2023-10-27 12:22:49.98,-171,46,-1994,-407,-456,541,-49,365,-414,-158
,91,2023-10-27 12:22:49.99,-185,44,-2007,-383,-459,528,-32,226,-258,-97
,92,2023-10-27 12:22:50.00,-203,43,-2000,-351,-466,521,-49,365,-414,-158
,93,2023-10-27 12:22:50.01,-215,64,-2003,-325,-464,515,-24,229,-253,-102
,94,2023-10-27 12:22:50.02,-235,82,-1987,-312,-454,513,-39,368,-407,-164
,95,2023-10-27 12:22:50.03,-250,118,-1976,-298,-453,512,-4,243,-247,-119
,96,2023-10-27 12:22:50.04,-282,146,-1982,-282,-457,490,-34,365,-399,-165
,97,2023-10-27 12:22:50.05,-294,147,-2004,-270,-451,465,4,248,-244,-126
,98,2023-10-27 12:22:50.06,-324,150,-1986,-266,-428,447,-27,345,-372,-159
,99,2023-10-27 12:22:50.07,-335,163,-1971,-257,-406,421,15,238,-223,-126
,100,2023-10-27 12:22:50.08,-360,170,-1968,-242,-384,400,-20,331,-351,-155
,101,2023-10-27 12:22:50.09,-377,176,-1979,-233,-354,370,29,242,-213,-135
,102,2023-10-27 12:22:50.10,-399,181,-1974,-222,-332,342,-13,326,-339,-156
,103,2023-10-27 12:22:50.11,-399,186,-1978,-209,-318,310,39,244,-205,-141
,104,2023-10-27 12:22:50.12,-411,197,-1973,-192,-303,272,4,325,-321,-164
,105,2023-10-27 12:22:50.13,-429,195,-1965,-176,-277,239,60,255,-195,-157
,106,2023-10-27 12:22:50.14,-434,192,-1960,-155,-250,202,13,322,-309,-167
,107,2023-10-27 12:22:50.15,-450,190,-1986,-131,-214,167,70,262,-192,-166
,108,2023-10-27 12:22:50.16,-463,189,-2003,-108,-201,133,2,317,-315,-159
,109,2023-10-27 12:22:50.17,-463,202,-1995,-87,-188,98,65,266,-201,-165
,110,2023-10-27 12:22:50.18,-460,224,-1982,-64,-167,57,-6,304,-310,-149
,111,2023-10-27 12:22:50.19,-467,223,-1980,-48,-126,11,75,268,-193,-171
,112,2023-10-27 12:22:50.20,-483,210,-1989,-31,-91,-39,2,305,-303,-153
,113,2023-10-27 12:22:50.21,-480,209,-1998,-12,-73,-89,82,277,-195,-179
,114,2023-10-27 12:22:50.22,-492,204,-2003,13,-68,-135,-23,282,-305,-129
,115,2023-10-27 12:22:50.23,-506,201,-2010,31,-50,-179,61,253,-192,-157
,116,2023-10-27 12:22:50.24,-492,207,-2014,39,-41,-224,-4,283,-287,-139
,117,2023-10-27 12:22:50.25,-504,212,-2010,47,-33,-269,102,281,-179,-191
,118,2023-10-27 12:22:50.26,-503,210,-2004,51,-11,-313,21,305,-284,-163
,119,2023-10-27 12:22:50.27,-492,204,-1998,58,4,-359,117,306,-189,-211
,120,2023-10-27 12:22:50.28,-490,206,-1977,56,37,-400,-14,278,-292,-132
,121,2023-10-27 12:22:50.29,-475,201,-1972,67,41,-449,99,287,-188,-193
,122,2023-10-27 12:22:50.30,-479,179,-1991,79,70,-492,-9,274,-283,-132
,123,2023-10-27 12:22:50.31,-463,168,-1992,93,82,-529,110,296,-186,-203
,124,2023-10-27 12:22:50.32,-459,154,-1985,117,90,-557,-9,283,-292,-137
,125,2023-10-27 12:22:50.33,-447,151,-1988,138,111,-595,115,315,-200,-215
,126,2023-10-27 12:22:50.34,-454,142,-1987,151,141,-628,-23,267,-290,-122
,127,2023-10-27 12:22:50.35,-437,148,-1992,162,179,-664,110,308,-198,-209
,128,2023-10-27 12:22:50.36,-418,137,-1980,178,200,-703,-40,256,-296,-108
,129,2023-10-27 12:22:50.37,-415,125,-1973,210,222,-744,114,318,-204,-216
,130,2023-10-27 12:22:50.38,-411,106,-1970,244,253,-777,-29,264,-293,-117
,131,2023-10-27 12:22:50.39,-398,83,-1973,275,280,-815,127,330,-203,-228
,132,2023-10-27 12:22:50.40,-388,75,-1988,302,310,-851,-45,256,-301,-105
,133,2023-10-27 12:22:50.41,-379,51,-1980,331,338,-879,125,332,-207,-228
,134,2023-10-27 12:22:50.42,-381,32,-1980,362,353,-910,-36,256,-292,-110
,135,2023-10-27 12:22:50.43,-371,26,-1991,387,364,-933,147,352,-205,-249
,136,2023-10-27 12:22:50.44,-336,0,-1988,409,372,-950,-27,265,-292,-119
,137,2023-10-27 12:22:50.45,-332,-10,-1999,426,388,-966,150,361,-211,-255
,138,2023-10-27 12:22:50.46,-323,-36,-1992,436,409,-974,-39,262,-301,-111
,139,2023-10-27 12:22:50.47,-310,-26,-2000,439,424,-980,151,368,-217,-259
,140,2023-10-27 12:22:50.48,-294,-52,-2004,440,427,-985,-39,265,-304,-113
,141,2023-10-27 12:22:50.49,-289,-69,-2013,437,443,-974,170,377,-207,-273
,142,2023-10-27 12:22:50.50,-294,-94,-2021,429,433,-962,-19,264,-283,-122
,143,2023-10-27 12:22:50.51,-260,-96,-2012,424,414,-953,178,388,-210,-283
,144,2023-10-27 12:22:50.52,-257,-124,-2020,418,406,-940,-30,269,-299,-119
,145,2023-10-27 12:22:50.53,-245,-137,-2020,410,393,-912,174,394,-220,-284
,146,2023-10-27 12:22:50.54,-215,-147,-2024,394,388,-892,-34,261,-295,-113
,147,2023-10-27 12:22:50.55,-206,-159,-2016,379,380,-863,185,397,-212,-291
,148,2023-10-27 12:22:50.56,-195,-179,-2037,362,384,-834,-28,267,-295,-119
,149,2023-10-27 12:22:50.57,-188,-195,-2037,352,369,-803,192,412,-220,-302
,150,2023-10-27 12:22:50.58,-180,-200,-2032,340,357,-773,-30,264,-294,-117
,151,2023-10-27 12:22:50.59,-166,-202,-2052,322,349,-738,191,410,-219,-300
,152,2023-10-27 12:22:50.60,-157,-219,-2062,303,350,-708,-36,254,-290,-109
,153,2023-10-27 12:22:50.61,-153,-213,-2065,280,333,-682,186,407,-221,-296
,154,2023-10-27 12:22:50.62,-132,-225,-2072,260,324,-651,-44,246,-290,-101
,155,2023-10-27 12:22:50.63,-132,-217,-2046,232,330,-628,199,419,-220,-309
,156,2023-10-27 12:22:50.64,-114,-231,-2044,216,319,-608,-47,244,-291,-98
,157,2023-10-27 12:22:50.65,-106,-222,-2055,202,316,-587,184,412,-228,-298
,158,2023-10-27 12:22:50.66,-93,-226,-2057,180,319,-564,-63,220,-283,-78
,159,2023-10-27 12:22:50.67,-84,-245,-2049,164,318,-539,176,408,-232,-292
,160,2023-10-27 12:22:50.68,-76,-241,-2054,158,308,-519,-66,225,-291,-79
,161,2023-10-27 12:22:50.69,-68,-249,-2053,154,299,-495,173,416,-243,-294
,162,2023-10-27 12:22:50.70,-53,-239,-2054,153,286,-475,-70,221,-291,-75
,163,2023-10-27 12:22:50.71,-49,-232,-2042,146,274,-457,166,414,-248,-290
,164,2023-10-27 12:22:50.72,-29,-231,-2040,145,269,-445,-96,201,-297,-52
,165,2023-10-27 12:22:50.73,-31,-252,-2052,139,263,-429,162,410,-248,-286
,166,2023-10-27 12:22:50.74,-32,-245,-2046,135,257,-416,-84,206,-290,-61
,167,2023-10-27 12:22:50.75,-14,-254,-2036,122,254,-400,160,414,-254,-287
,168,2023-10-27 12:22:50.76,-1,-259,-2043,121,241,-381,-99,201,-300,-51
,169,2023-10-27 12:22:50.77,-20,-268,-2053,112,243,-368,142,409,-267,-275
,170,2023-10-27 12:22:50.78,-7,-249,-2044,109,238,-347,-118,190,-308,-36
,171,2023-10-27 12:22:50.79,5,-258,-2047,107,219,-337,128,403,-275,-265
,172,2023-10-27 12:22:50.80,10,-247,-2050,114,215,-321,-125,179,-304,-27
,173,2023-10-27 12:22:50.81,5,-243,-2050,116,210,-309,122,402,-280,-262
,174,2023-10-27 12:22:50.82,19,-233,-2038,109,211,-303,-130,181,-311,-25
,175,2023-10-27 12:22:50.83,45,-230,-2024,106,219,-303,116,405,-289,-260
,176,2023-10-27 12:22:50.84,31,-226,-2022,105,229,-303,-134,178,-312,-22
,177,2023-10-27 12:22:50.85,30,-239,-2037,111,221,-308,113,405,-292,-259
,178,2023-10-27 12:22:50.86,28,-251,-2028,122,221,-309,-136,172,-308,-18
,179,2023-10-27 12:22:50.87,27,-276,-2048,130,217,-310,104,405,-301,-254
,180,2023-10-27 12:22:50.88,53,-272,-2043,141,204,-308,-147,170,-317,-11
,181,2023-10-27 12:22:50.89,39,-267,-2041,151,208,-299,84,401,-317,-242
,182,2023-10-27 12:22:50.90,63,-279,-2044,169,201,-296,-160,157,-317,1
,183,2023-10-27 12:22:50.91,62,-273,-2039,188,188,-292,63,393,-330,-228
,184,2023-10-27 12:22:50.92,61,-275,-2051,211,189,-283,-175,153,-328,11
,185,2023-10-27 12:22:50.93,69,-259,-2054,230,176,-280,45,390,-345,-217
,186,2023-10-27 12:22:50.94,69,-243,-2049,239,175,-277,-189,146,-335,21
,187,2023-10-27 12:22:50.95,68,-250,-2049,242,169,-283,35,392,-357,-213
,188,2023-10-27 12:22:50.96,75,-265,-2066,246,161,-283,-188,148,-336,20
,189,2023-10-27 12:22:50.97,76,-289,-2045,253,159,-274,32,399,-367,-215
,190,2023-10-27 12:22:50.98,82,-303,-2041,264,146,-264,-187,154,-341,16
,191,2023-10-27 12:22:50.99,90,-322,-2043,280,143,-243,27,412,-385,-219
,192,2023-10-27 12:22:51.00,90,-331,-2055,290,138,-212,-180,169,-349,5
,193,2023-10-27 12:22:51.01,106,-333,-2032,292,133,-188,15,415,-400,-215
,194,2023-10-27 12:22:51.02,101,-327,-2024,295,129,-163,-206,150,-356,28
,195,2023-10-27 12:22:51.03,110,-321,-2017,289,138,-134,-12,405,-417,-196
,196,2023-10-27 12:22:51.04,100,-345,-2014,273,148,-109,-196,171,-367,12
,197,2023-10-27 12:22:51.05,115,-346,-2017,259,152,-88,-9,424,-433,-207
,198,2023-10-27 12:22:51.06,90,-355,-2016,254,155,-54,-195,175,-370,10
,199,2023-10-27 12:22:51.07,93,-359,-2024,246,162,-21,-44,410,-454,-183
,200,2023-10-27 12:22:51.08,106,-378,-2024,228,157,11,-217,174,-391,21
,201,2023-10-27 12:22:51.09,115,-371,-2027,213,153,35,-24,418,-442,-197
,202,2023-10-27 12:22:51.10,111,-377,-2020,201,161,60,-180,160,-340,10
,203,2023-10-27 12:22:51.11,118,-372,-2018,188,175,84,-16,403,-419,-193
,204,2023-10-27 12:22:51.12,124,-364,-2012,170,183,101,-180,151,-331,14
,205,2023-10-27 12:22:51.13,128,-364,-2010,151,182,113,-27,398,-425,-185
,206,2023-10-27 12:22:51.14,136,-354,-2019,136,190,125,-166,151,-317,7
,207,2023-10-27 12:22:51.15,138,-367,-2027,119,183,126,-23,396,-419,-186
,208,2023-10-27 12:22:51.16,152,-369,-2026,105,180,134,-162,147,-309,7
,209,2023-10-27 12:22:51.17,146,-370,-2035,91,173,134,-27,393,-420,-183
,210,2023-10-27 12:22:51.18,157,-372,-2043,77,164,136,-154,151,-305,1
,211,2023-10-27 12:22:51.19,157,-366,-2050,65,158,140,-32,403,-435,-185
,212,2023-10-27 12:22:51.20,173,-357,-2059,57,136,139,-149,163,-312,-7
,213,2023-10-27 12:22:51.21,176,-367,-2057,46,130,139,-36,400,-436,-182
,214,2023-10-27 12:22:51.22,186,-349,-2057,35,104,127,-139,157,-296,-9
,215,2023-10-27 12:22:51.23,182,-359,-2052,27,109,124,-39,396,-435,-178
,216,2023-10-27 12:22:51.24,183,-361,-2047,23,91,123,-133,160,-293,-13
,217,2023-10-27 12:22:51.25,185,-366,-2030,15,79,114,-48,400,-448,-176
,218,2023-10-27 12:22:51.26,195,-364,-2028,10,66,109,-128,171,-299,-21
,219,2023-10-27 12:22:51.27,186,-368,-2017,4,63,103,-49,396,-445,-173
,220,2023-10-27 12:22:51.28,183,-366,-2024,-3,59,101,-108,167,-275,-29
,221,2023-10-27 12:22:51.29,181,-381,-2029,-6,51,97,-46,393,-439,-173
,222,2023-10-27 12:22:51.30,187,-375,-2038,-13,52,94,-105,174,-279,-34
,223,2023-10-27 12:22:51.31,194,-377,-2043,-21,55,103,-52,401,-453,-174
,224,2023-10-27 12:22:51.32,194,-366,-2027,-26,43,101,-95,184,-279,-44
,225,2023-10-27 12:22:51.33,184,-368,-2019,-26,37,100,-56,404,-460,-174
,226,2023-10-27 12:22:51.34,204,-357,-2022,-25,25,99,-93,187,-280,-47
,227,2023-10-27 12:22:51.35,195,-351,-2012,-35,33,96,-67,401,-468,-167
,228,2023-10-27 12:22:51.36,200,-340,-2002,-41,33,96,-88,187,-275,-49
,229,2023-10-27 12:22:51.37,184,-344,-2009,-48,31,89,-64,405,-469,-170
,230,2023-10-27 12:22:51.38,189,-352,-2023,-56,29,81,-79,198,-277,-59
,231,2023-10-27 12:22:51.39,194,-350,-2032,-59,25,83,-78,404,-482,-163
,232,2023-10-27 12:22:51.40,190,-338,-2034,-60,15,75,-90,198,-288,-54
,233,2023-10-27 12:22:51.41,184,-335,-2032,-68,6,64,-91,399,-490,-154
,234,2023-10-27 12:22:51.42,184,-326,-2030,-74,-4,50,-84,201,-285,-58
,235,2023-10-27 12:22:51.43,173,-333,-2023,-78,4,41,-95,399,-494,-152
,236,2023-10-27 12:22:51.44,193,-326,-2026,-73,-6,29,-77,208,-285,-65
,237,2023-10-27 12:22:51.45,197,-323,-2022,-75,-5,20,-86,414,-500,-164
,238,2023-10-27 12:22:51.46,183,-322,-2014,-78,-7,6,-64,218,-282,-77
,239,2023-10-27 12:22:51.47,173,-324,-2025,-85,-11,-5,-91,403,-494,-156
,240,2023-10-27 12:22:51.48,188,-322,-2028,-86,-12,-18,-57,217,-274,-80
,241,2023-10-27 12:22:51.49,167,-320,-2035,-83,-21,-25,-104,395,-499,-145
,242,2023-10-27 12:22:51.50,169,-320,-2040,-84,-36,-30,-54,224,-278,-85
,243,2023-10-27 12:22:51.51,151,-325,-2055,-91,-41,-40,-112,392,-504,-140
,244,2023-10-27 12:22:51.52,151,-315,-2048,-95,-55,-42,-48,235,-283,-93
,245,2023-10-27 12:22:51.53,148,-314,-2047,-100,-61,-47,-110,399,-509,-144
,246,2023-10-27 12:22:51.54,146,-312,-2055,-103,-77,-56,-38,244,-282,-103
,247,2023-10-27 12:22:51.55,141,-304,-2062,-109,-71,-54,-112,392,-504,-140
,248,2023-10-27 12:22:51.56,137,-304,-2073,-125,-87,-59,-21,243,-264,-111
,249,2023-10-27 12:22:51.57,105,-299,-2070,-135,-103,-56,-103,392,-495,-144
,250,2023-10-27 12:22:51.58,107,-282,-2076,-152,-117,-59,-18,258,-276,-120
,251,2023-10-27 12:22:51.59,98,-270,-2081,-177,-128,-63,-113,400,-513,-143
,252,2023-10-27 12:22:51.60,99,-277,-2083,-205,-143,-60,-16,268,-284,-126
,253,2023-10-27 12:22:51.61,81,-274,-2092,-237,-170,-57,-114,403,-517,-144
,254,2023-10-27 12:22:51.62,79,-282,-2098,-264,-198,-53,-11,274,-285,-131
,255,2023-10-27 12:22:51.63,85,-260,-2127,-288,-228,-37,-111,400,-511,-144
,256,2023-10-27 12:22:51.64,73,-242,-2110,-328,-257,-26,-7,277,-284,-135
,257,2023-10-27 12:22:51.65,75,-233,-2076,-373,-282,-17,-118,407,-525,-144
,258,2023-10-27 12:22:51.66,76,-233,-2088,-415,-299,-9,-4,297,-301,-146
,259,2023-10-27 12:22:51.67,66,-236,-2078,-455,-313,1,-117,402,-519,-142
,260,2023-10-27 12:22:51.68,68,-236,-2072,-492,-331,16,5,296,-291,-150
,261,2023-10-27 12:22:51.69,63,-238,-2054,-523,-339,36,-110,447,-557,-168
,262,2023-10-27 12:22:51.70,54,-258,-2057,-548,-332,61,21,358,-337,-189
,263,2023-10-27 12:22:51.71,62,-261,-2043,-565,-357,100,-73,531,-604,-229
,264,2023-10-27 12:22:51.72,80,-258,-2023,-577,-360,143,62,426,-364,-244
,265,2023-10-27 12:22:51.73,63,-261,-2057,-583,-356,195,-30,584,-614,-277
,266,2023-10-27 12:22:51.74,71,-248,-2044,-595,-365,251,98,467,-369,-282
,267,2023-10-27 12:22:51.75,86,-236,-2025,-601,-370,302,0,614,-614,-307
,268,2023-10-27 12:22:51.76,105,-208,-2015,-597,-363,360,129,492,-363,-310
,269,2023-10-27 12:22:51.77,104,-199,-2008,-589,-351,405,36,640,-604,-338
,270,2023-10-27 12:22:51.78,100,-191,-2022,-583,-343,450,170,527,-357,-348
,271,2023-10-27 12:22:51.79,119,-186,-2031,-572,-320,498,66,654,-588,-360
,272,2023-10-27 12:22:51.80,107,-179,-2055,-560,-315,555,197,543,-346,-370
,273,2023-10-27 12:22:51.81,116,-178,-2094,-525,-343,687,88,657,-569,-372
,274,2023-10-27 12:22:51.82,122,-164,-2080,-500,-359,764,216,549,-333,-382
,275,2023-10-27 12:22:51.83,124,-151,-2091,-464,-371,843,85,654,-569,-369
,276,2023-10-27 12:22:51.84,127,-133,-2074,-437,-377,910,199,551,-352,-375
,277,2023-10-27 12:22:51.85,138,-99,-2056,-416,-380,974,-18,549,-567,-265
,278,2023-10-27 12:22:51.86,117,-93,-2043,-390,-371,1034,112,464,-352,-288
,279,2023-10-27 12:22:51.87,106,-63,-2025,-360,-360,1086,-131,423,-554,-146
,280,2023-10-27 12:22:51.88,88,-34,-2019,-333,-354,1126,40,387,-347,-213
,281,2023-10-27 12:22:51.89,89,-14,-2010,-307,-339,1154,-190,395,-585,-102
,282,2023-10-27 12:22:51.90,48,-37,-1987,-279,-318,1180,-27,363,-390,-168
,283,2023-10-27 12:22:51.91,40,-35,-1981,-231,-305,1207,-182,298,-480,-58
,284,2023-10-27 12:22:51.92,37,-23,-1992,-173,-306,1224,64,324,-260,-194
,285,2023-10-27 12:22:51.93,22,8,-1998,-132,-291,1243,-114,290,-404,-88
,286,2023-10-27 12:22:51.94,24,11,-2015,-98,-278,1248,88,338,-250,-213
,287,2023-10-27 12:22:51.95,11,30,-2017,-68,-266,1249,-138,278,-416,-70
,288,2023-10-27 12:22:51.96,5,45,-2011,-36,-258,1236,78,344,-266,-211
,289,2023-10-27 12:22:51.97,2,52,-2005,-9,-244,1221,-137,276,-413,-69
,290,2023-10-27 12:22:51.98,-20,78,-2011,9,-231,1199,80,344,-264,-212
,291,2023-10-27 12:22:51.99,-14,99,-2008,18,-220,1172,-142,259,-401,-58
,292,2023-10-27 12:22:52.00,-55,104,-2026,21,-216,1133,70,340,-270,-205
,293,2023-10-27 12:22:52.01,-72,106,-2045,25,-219,1100,-145,255,-400,-55
,294,2023-10-27 12:22:52.02,-70,110,-2054,24,-220,1060,79,353,-274,-216
,295,2023-10-27 12:22:52.03,-107,135,-2059,22,-226,1025,-144,256,-400,-56
,296,2023-10-27 12:22:52.04,-115,118,-2062,11,-233,976,78,357,-279,-217
,297,2023-10-27 12:22:52.05,-124,132,-2056,4,-245,930,-160,238,-398,-39
,298,2023-10-27 12:22:52.06,-137,147,-2045,-1,-251,885,62,347,-285,-204
,299,2023-10-27 12:22:52.07,-146,146,-2002,-7,-265,835,-172,236,-408,-32
,300,2023-10-27 12:22:52.08,-148,180,-1989,-20,-255,776,52,355,-303,-203
,301,2023-10-27 12:22:52.09,-153,186,-1993,-41,-241,708,-183,224,-407,-20
,302,2023-10-27 12:22:52.10,-187,205,-1999,-56,-226,634,46,346,-300,-196
,303,2023-10-27 12:22:52.11,-189,185,-2011,-61,-218,544,-183,208,-391,-12
,304,2023-10-27 12:22:52.12,-208,169,-2034,-53,-199,466,49,340,-291,-194
,305,2023-10-27 12:22:52.13,-218,139,-2048,-38,-189,385,-181,195,-376,-7
,306,2023-10-27 12:22:52.14,-236,125,-2060,-10,-178,306,57,338,-281,-197
,307,2023-10-27 12:22:52.15,-253,122,-2062,30,-191,233,-181,185,-366,-2
,308,2023-10-27 12:22:52.16,-256,126,-2045,67,-199,151,53,337,-284,-195
,309,2023-10-27 12:22:52.17,-259,132,-2044,95,-193,69,-184,168,-352,8
,310,2023-10-27 12:22:52.18,-260,149,-2045,115,-181,-19,57,332,-275,-194
,311,2023-10-27 12:22:52.19,-296,147,-2042,128,-166,-116,-175,170,-345,2
,312,2023-10-27 12:22:52.20,-293,151,-2036,145,-164,-209,67,340,-273,-203
,313,2023-10-27 12:22:52.21,-318,147,-2034,159,-170,-304,-170,164,-334,3
,314,2023-10-27 12:22:52.22,-318,145,-2032,168,-165,-395,74,340,-266,-207
,315,2023-10-27 12:22:52.23,-337,122,-2015,170,-160,-484,-164,163,-327,0
,316,2023-10-27 12:22:52.24,-353,126,-2023,169,-155,-568,81,345,-264,-213
,317,2023-10-27 12:22:52.25,-359,114,-2018,163,-140,-650,-156,156,-312,0
,318,2023-10-27 12:22:52.26,-375,101,-2037,143,-123,-729,94,348,-254,-221
,319,2023-10-27 12:22:52.27,-386,76,-2024,115,-107,-797,-135,170,-305,-17
,320,2023-10-27 12:22:52.28,-386,66,-2001,95,-84,-860,103,366,-263,-234
,321,2023-10-27 12:22:52.29,-380,52,-1983,80,-59,-920,-143,167,-310,-12
,322,2023-10-27 12:22:52.30,-377,48,-1988,62,-12,-973,98,360,-262,-229
,323,2023-10-27 12:22:52.31,-374,17,-1982,47,42,-1021,-153,152,-305,0
,324,2023-10-27 12:22:52.32,-350,24,-1973,44,77,-1071,84,352,-268,-218
,325,2023-10-27 12:22:52.33,-362,38,-1982,51,111,-1115,-160,138,-298,11
,326,2023-10-27 12:22:52.34,-361,27,-1980,55,135,-1168,80,349,-269,-214
,327,2023-10-27 12:22:52.35,-370,48,-1986,69,167,-1211,-165,134,-299,15
,328,2023-10-27 12:22:52.36,-375,30,-2007,75,184,-1262,72,338,-266,-205
,329,2023-10-27 12:22:52.37,-372,6,-2011,82,196,-1297,-158,135,-293,11
,330,2023-10-27 12:22:52.38,-361,10,-1993,94,204,-1326,102,365,-263,-233
,331,2023-10-27 12:22:52.39,-353,18,-2009,107,209,-1356,-134,148,-282,-7
,332,2023-10-27 12:22:52.40,-341,4,-1986,113,220,-1377,118,386,-268,-252
,333,2023-10-27 12:22:52.41,-332,2,-1979,119,243,-1398,-92,203,-295,-55
,334,2023-10-27 12:22:52.42,-315,-38,-1987,118,262,-1422,103,385,-282,-244
,335,2023-10-27 12:22:52.43,-292,-52,-1994,121,293,-1424,-195,89,-284,53
,336,2023-10-27 12:22:52.44,-277,-53,-1984,126,309,-1429,72,321,-249,-196
,337,2023-10-27 12:22:52.45,-264,-69,-1980,133,333,-1424,-169,86,-255,41
,338,2023-10-27 12:22:52.46,-223,-102,-2013,131,357,-1417,65,324,-259,-194
,339,2023-10-27 12:22:52.47,-222,-114,-2049,117,370,-1404,-183,98,-281,42
,340,2023-10-27 12:22:52.48,-193,-125,-2049,107,384,-1378,69,349,-280,-209
,341,2023-10-27 12:22:52.49,-177,-140,-2026,112,395,-1344,-160,118,-278,21
,342,2023-10-27 12:22:52.50,-160,-143,-2019,120,397,-1310,85,358,-273,-221
,343,2023-10-27 12:22:52.51,-126,-154,-2028,120,392,-1287,-149,118,-267,15
,344,2023-10-27 12:22:52.52,-126,-152,-2037,110,396,-1255,101,357,-256,-229
,345,2023-10-27 12:22:52.53,-115,-151,-2031,104,400,-1232,-123,128,-251,-2
,346,2023-10-27 12:22:52.54,-99,-154,-2045,98,394,-1209,120,374,-254,-247
,347,2023-10-27 12:22:52.55,-88,-143,-2055,89,393,-1186,-110,135,-245,-12
,348,2023-10-27 12:22:52.56,-79,-132,-2054,73,387,-1173,129,378,-249,-253
,349,2023-10-27 12:22:52.57,-62,-121,-2058,59,364,-1171,-96,142,-238,-23
,350,2023-10-27 12:22:52.58,-57,-117,-2074,44,356,-1174,142,383,-241,-262
,351,2023-10-27 12:22:52.59,-42,-115,-2081,30,336,-1185,-90,142,-232,-26
,352,2023-10-27 12:22:52.60,-33,-106,-2076,20,314,-1208,151,388,-237,-269
,353,2023-10-27 12:22:52.61,-33,-125,-2076,10,292,-1231,-80,147,-227,-33
,354,2023-10-27 12:22:52.62,-12,-128,-2075,1,268,-1252,148,389,-241,-268
,355,2023-10-27 12:22:52.63,0,-150,-2083,-11,240,-1264,-85,140,-225,-27
,356,2023-10-27 12:22:52.64,21,-169,-2061,-30,223,-1261,139,384,-245,-261
,357,2023-10-27 12:22:52.65,33,-198,-2067,-41,193,-1252,-84,138,-222,-27
,358,2023-10-27 12:22:52.66,53,-214,-2084,-39,173,-1230,140,379,-239,-259
,359,2023-10-27 12:22:52.67,64,-218,-2086,-46,150,-1196,-88,134,-222,-23
,360,2023-10-27 12:22:52.68,79,-228,-2076,-57,138,-1151,134,390,-256,-262
,361,2023-10-27 12:22:52.69,96,-228,-2057,-66,121,-1109,-91,139,-230,-24
,362,2023-10-27 12:22:52.70,92,-236,-2036,-62,118,-1060,115,383,-268,-249
,363,2023-10-27 12:22:52.71,120,-236,-2029,-41,114,-1006,-92,138,-230,-23
,364,2023-10-27 12:22:52.72,120,-230,-2025,-32,126,-945,123,378,-255,-250
,365,2023-10-27 12:22:52.73,135,-236,-2019,-37,131,-894,-79,138,-217,-29
,366,2023-10-27 12:22:52.74,129,-212,-2020,-50,144,-830,123,379,-256,-251
,367,2023-10-27 12:22:52.75,134,-197,-2018,-58,162,-771,-76,142,-218,-33
,368,2023-10-27 12:22:52.76,138,-196,-2000,-64,165,-713,114,380,-266,-247
,369,2023-10-27 12:22:52.77,152,-167,-2025,-70,173,-666,-84,129,-213,-22
,370,2023-10-27 12:22:52.78,140,-182,-2009,-65,187,-620,117,376,-259,-246
,371,2023-10-27 12:22:52.79,154,-173,-2020,-47,172,-574,-60,140,-200,-40
,372,2023-10-27 12:22:52.80,126,-152,-2045,-29,169,-537,119,357,-238,-238
,373,2023-10-27 12:22:52.81,133,-146,-2078,-45,183,-503,-68,120,-188,-26
,374,2023-10-27 12:22:52.82,136,-157,-2057,-63,168,-465,111,358,-247,-234
,375,2023-10-27 12:22:52.83,135,-163,-2046,-53,161,-437,-57,138,-195,-40
,376,2023-10-27 12:22:52.84,135,-165,-2045,-22,139,-409,115,373,-258,-244
,377,2023-10-27 12:22:52.85,154,-137,-2048,-10,130,-379,-64,141,-205,-38
,378,2023-10-27 12:22:52.86,165,-133,-2061,-28,144,-353,82,340,-258,-211
,379,2023-10-27 12:22:52.87,155,-143,-2080,-61,148,-328,-67,124,-191,-28
,380,2023-10-27 12:22:52.88,153,-149,-2068,-86,151,-305,97,321,-224,-209
,381,2023-10-27 12:22:52.89,167,-176,-2055,-83,146,-271,-25,125,-150,-50
,382,2023-10-27 12:22:52.90,173,-165,-2077,-72,138,-231,131,345,-214,-238
,383,2023-10-27 12:22:52.91,191,-168,-2017,-65,139,-198,-7,152,-159,-72
,384,2023-10-27 12:22:52.92,188,-152,-2021,-35,144,-172,138,362,-224,-250
,385,2023-10-27 12:22:52.93,185,-128,-2070,-6,142,-148,-5,162,-167,-78
,386,2023-10-27 12:22:52.94,181,-122,-2078,8,138,-133,119,352,-233,-235
,387,2023-10-27 12:22:52.95,179,-92,-2093,13,141,-120,-11,154,-165,-71
,388,2023-10-27 12:22:52.96,172,-109,-2120,14,118,-122,128,343,-215,-235
,389,2023-10-27 12:22:52.97,153,-141,-2109,6,108,-123,6,159,-153,-82
,390,2023-10-27 12:22:52.98,138,-145,-2130,27,75,-110,134,341,-207,-237
,391,2023-10-27 12:22:52.99,141,-144,-2102,53,38,-97,8,158,-150,-83
,392,2023-10-27 12:22:53.00,121,-135,-2119,69,10,-84,120,326,-206,-223
,393,2023-10-27 12:22:53.01,110,-134,-2084,62,-4,-73,3,147,-144,-75
,394,2023-10-27 12:22:53.02,102,-128,-2078,56,-16,-64,124,319,-195,-221
,395,2023-10-27 12:22:53.03,102,-126,-2050,38,-18,-51,21,155,-134,-88
,396,2023-10-27 12:22:53.04,113,-124,-2057,20,-24,-31,148,293,-145,-220
,397,2023-10-27 12:22:53.05,87,-97,-2040,-11,-24,-28,-86,43,-129,21
,398,2023-10-27 12:22:53.06,94,-100,-2019,-44,-17,-27,-320,-371,51,345
,399,2023-10-27 12:22:53.07,87,-104,-2019,-74,-30,-35,-313,-480,167,396
,400,2023-10-27 12:22:53.08,81,-115,-2044,-98,-38,-36,-122,-311,189,216
,401,2023-10-27 12:22:53.09,81,-113,-2064,-117,-45,-22,-47,-167,120,107
,402,2023-10-27 12:22:53.10,73,-117,-2093,-132,-48,-14,5,-55,60,25
,403,2023-10-27 12:22:53.11,72,-116,-2085,-141,-45,0,-38,-74,36,56
,404,2023-10-27 12:22:53.12,64,-97,-2084,-139,-52,12,29,16,13,-22
,405,2023-10-27 12:22:53.13,59,-86,-2077,-137,-69,30,5,-7,12,1
,406,2023-10-27 12:22:53.14,52,-74,-2082,-147,-90,47,60,115,-55,-87
,407,2023-10-27 12:22:53.15,47,-80,-2064,-170,-110,64,24,67,-43,-45
,408,2023-10-27 12:22:53.16,54,-81,-2035,-192,-118,80,65,171,-106,-118
,409,2023-10-27 12:22:53.17,49,-79,-2045,-204,-108,104,41,104,-63,-72
,410,2023-10-27 12:22:53.18,65,-91,-2034,-203,-89,124,68,195,-127,-131
,411,2023-10-27 12:22:53.19,58,-105,-2024,-190,-89,148,41,125,-84,-83
,412,2023-10-27 12:22:53.20,59,-91,-2026,-166,-65,175,60,202,-142,-131
,413,2023-10-27 12:22:53.21,57,-100,-2023,-148,-37,202,48,132,-84,-90
,414,2023-10-27 12:22:53.22,62,-93,-2030,-137,-31,231,77,214,-137,-145
,415,2023-10-27 12:22:53.23,58,-94,-2035,-138,-2,258,64,155,-91,-109
,416,2023-10-27 12:22:53.24,70,-95,-2037,-141,14,286,56,206,-150,-131
,417,2023-10-27 12:22:53.25,77,-78,-2036,-148,34,320,51,146,-95,-98
,418,2023-10-27 12:22:53.26,59,-67,-2038,-156,50,342,63,189,-126,-126
,419,2023-10-27 12:22:53.27,62,-55,-2032,-169,66,370,74,149,-75,-111
,420,2023-10-27 12:22:53.28,68,-32,-2038,-187,91,393,65,192,-127,-128
,421,2023-10-27 12:22:53.29,81,-42,-2038,-201,104,412,77,158,-81,-117
,422,2023-10-27 12:22:53.30,82,-17,-2060,-206,106,432,50,192,-142,-121
,423,2023-10-27 12:22:53.31,104,-11,-2054,-210,127,448,76,163,-87,-119
,424,2023-10-27 12:22:53.32,97,-10,-2037,-214,145,461,37,181,-144,-109
,425,2023-10-27 12:22:53.33,123,23,-2078,-202,190,484,68,160,-92,-114
,426,2023-10-27 12:22:53.34,100,31,-2072,-201,200,502,13,167,-154,-90
,427,2023-10-27 12:22:53.35,124,22,-2067,-191,203,530,50,160,-110,-105
,428,2023-10-27 12:22:53.36,122,-7,-2028,-160,193,550,-33,169,-202,-68
,429,2023-10-27 12:22:53.37,144,-25,-1968,-113,180,575,25,169,-144,-97
,430,2023-10-27 12:22:53.38,154,-4,-2026,-70,188,603,-52,173,-225,-60
,431,2023-10-27 12:22:53.39,168,37,-2008,-30,208,632,26,186,-160,-106
,432,2023-10-27 12:22:53.40,173,58,-2040,12,239,645,-59,182,-241,-61
,433,2023-10-27 12:22:53.41,170,88,-2037,63,238,643,33,199,-166,-116
,434,2023-10-27 12:22:53.42,164,96,-2045,107,238,634,-54,199,-253,-72
,435,2023-10-27 12:22:53.43,168,97,-2035,141,229,624,50,227,-177,-138
,436,2023-10-27 12:22:53.44,151,108,-2053,172,235,613,-46,220,-266,-87
,437,2023-10-27 12:22:53.45,154,104,-2061,195,225,592,68,248,-180,-158
,438,2023-10-27 12:22:53.46,155,113,-2085,215,197,569,-27,241,-268,-107
,439,2023-10-27 12:22:53.47,161,105,-2089,233,193,536,94,275,-181,-184
,440,2023-10-27 12:22:53.48,152,101,-2091,241,176,499,-17,253,-270,-118
,441,2023-10-27 12:22:53.49,146,85,-2093,249,164,462,100,291,-191,-195
,442,2023-10-27 12:22:53.50,145,82,-2090,257,147,428,-30,256,-286,-113
,443,2023-10-27 12:22:53.51,152,75,-2091,255,140,391,99,290,-191,-194
,444,2023-10-27 12:22:53.52,157,75,-2100,243,114,355,-28,254,-282,-113
,445,2023-10-27 12:22:53.53,148,81,-2066,231,116,328,118,312,-194,-215
,446,2023-10-27 12:22:53.54,152,64,-2061,216,116,301,-49,258,-307,-104
,447,2023-10-27 12:22:53.55,165,48,-2060,197,116,278,92,321,-229,-206
,448,2023-10-27 12:22:53.56,177,51,-2057,175,112,257,-82,241,-323,-79
,449,2023-10-27 12:22:53.57,185,49,-2050,162,117,231,86,317,-231,-201
,450,2023-10-27 12:22:53.58,185,44,-2063,150,115,210,-77,250,-327,-86
,451,2023-10-27 12:22:53.59,179,38,-2059,130,117,191,91,329,-238,-210
,452,2023-10-27 12:22:53.60,194,27,-2069,117,125,176,-98,250,-348,-76
,453,2023-10-27 12:22:53.61,204,1,-2055,107,129,166,78,338,-260,-208
,454,2023-10-27 12:22:53.62,194,-10,-2068,106,120,157,-119,244,-363,-62
,455,2023-10-27 12:22:53.63,195,-7,-2043,106,112,159,67,339,-272,-203
,456,2023-10-27 12:22:53.64,221,-14,-2041,116,99,161,-129,240,-369,-55
,457,2023-10-27 12:22:53.65,220,-10,-2042,119,97,156,62,346,-284,-204
,458,2023-10-27 12:22:53.66,230,-25,-2035,120,99,154,-143,248,-391,-52
,459,2023-10-27 12:22:53.67,227,-46,-2029,129,106,150,62,355,-293,-208
,460,2023-10-27 12:22:53.68,240,-66,-2035,152,94,146,-152,242,-394,-45
,461,2023-10-27 12:22:53.69,240,-96,-2031,184,85,143,56,357,-301,-206
,462,2023-10-27 12:22:53.70,247,-106,-2024,215,69,145,-169,230,-399,-30
,463,2023-10-27 12:22:53.71,244,-111,-2030,231,67,148,47,357,-310,-202
,464,2023-10-27 12:22:53.72,237,-151,-2031,244,70,150,-168,231,-399,-31
,465,2023-10-27 12:22:53.73,237,-148,-2032,265,78,155,61,369,-308,-215
,466,2023-10-27 12:22:53.74,246,-182,-2046,283,87,165,-166,238,-404,-36
,467,2023-10-27 12:22:53.75,239,-183,-2036,293,82,170,62,378,-316,-220
,468,2023-10-27 12:22:53.76,242,-188,-2032,295,85,172,-168,229,-397,-30
,469,2023-10-27 12:22:53.77,244,-189,-2030,297,90,176,62,378,-316,-220
,470,2023-10-27 12:22:53.78,246,-198,-2042,293,87,176,-169,223,-392,-27
,471,2023-10-27 12:22:53.79,250,-191,-2063,287,89,176,64,378,-314,-221
,472,2023-10-27 12:22:53.80,234,-201,-2070,277,87,174,-178,215,-393,-18
,473,2023-10-27 12:22:53.81,243,-195,-2065,269,77,173,57,379,-322,-218
,474,2023-10-27 12:22:53.82,228,-181,-2074,253,88,173,-179,212,-391,-16
,475,2023-10-27 12:22:53.83,234,-185,-2069,236,68,168,62,384,-322,-223
,476,2023-10-27 12:22:53.84,257,-184,-2059,219,55,155,-178,204,-382,-13
,477,2023-10-27 12:22:53.85,231,-186,-2068,198,55,146,65,385,-320,-225
,478,2023-10-27 12:22:53.86,247,-202,-2066,186,48,145,-176,213,-389,-18
,479,2023-10-27 12:22:53.87,247,-205,-2061,159,33,136,70,399,-329,-234
,480,2023-10-27 12:22:53.88,222,-219,-2065,144,20,139,-172,208,-380,-18
,481,2023-10-27 12:22:53.89,216,-230,-2067,131,-2,137,71,398,-327,-234
,482,2023-10-27 12:22:53.90,227,-212,-2063,119,-8,135,-172,202,-374,-15
,483,2023-10-27 12:22:53.91,229,-210,-2064,105,-19,136,76,406,-330,-241
,484,2023-10-27 12:22:53.92,225,-207,-2058,88,-24,134,-176,203,-379,-13
,485,2023-10-27 12:22:53.93,236,-208,-2059,70,-29,125,73,406,-333,-239
,486,2023-10-27 12:22:53.94,234,-208,-2064,56,-34,129,-170,199,-369,-14
,487,2023-10-27 12:22:53.95,225,-204,-2061,41,-39,129,68,408,-340,-238
,488,2023-10-27 12:22:53.96,216,-212,-2059,21,-56,123,-180,196,-376,-8
,489,2023-10-27 12:22:53.97,222,-220,-2061,14,-62,127,70,409,-339,-239
,490,2023-10-27 12:22:53.98,218,-215,-2057,5,-69,131,-172,199,-371,-13
,491,2023-10-27 12:22:53.99,223,-219,-2057,-3,-75,139,72,416,-344,-244
,492,2023-10-27 12:22:54.00,207,-222,-2044,-17,-72,145,-182,185,-367,-1
,493,2023-10-27 12:22:54.01,214,-229,-2051,-24,-75,154,66,418,-352,-242
,494,2023-10-27 12:22:54.02,212,-234,-2029,-31,-64,165,-180,197,-377,-8
,495,2023-10-27 12:22:54.03,212,-243,-2030,-31,-58,175,59,416,-357,-237
,496,2023-10-27 12:22:54.04,210,-251,-2036,-25,-61,186,-190,176,-366,7
,497,2023-10-27 12:22:54.05,207,-244,-2032,-23,-72,200,53,414,-361,-233
,498,2023-10-27 12:22:54.06,201,-245,-2029,-9,-70,217,-184,188,-372,-2
,499,2023-10-27 12:22:54.07,207,-250,-2035,2,-71,230,53,423,-370,-238
,500,2023-10-27 12:22:54.08,206,-250,-2037,9,-75,248,-182,183,-365,0
,501,2023-10-27 12:22:54.09,204,-248,-2041,9,-70,262,48,414,-366,-231
,502,2023-10-27 12:22:54.10,207,-237,-2032,6,-64,281,-189,174,-363,7
,503,2023-10-27 12:22:54.11,213,-219,-2010,-14,-42,293,39,414,-375,-226
,504,2023-10-27 12:22:54.12,203,-225,-2017,-28,-22,310,-191,182,-373,4
,505,2023-10-27 12:22:54.13,212,-226,-2021,-40,-6,313,35,421,-386,-228
,506,2023-10-27 12:22:54.14,217,-207,-1983,-42,11,316,-188,174,-362,7
,507,2023-10-27 12:22:54.15,241,-207,-1980,-49,39,315,31,411,-380,-221
,508,2023-10-27 12:22:54.16,222,-215,-1973,-67,95,315,-191,163,-354,14
,509,2023-10-27 12:22:54.17,240,-199,-1987,-70,122,311,24,402,-378,-213
,510,2023-10-27 12:22:54.18,223,-193,-1989,-63,144,300,-193,160,-353,16
,511,2023-10-27 12:22:54.19,216,-173,-1998,-66,174,288,17,396,-379,-206
,512,2023-10-27 12:22:54.20,232,-150,-1996,-79,195,265,-184,149,-333,17
,513,2023-10-27 12:22:54.21,254,-149,-1983,-87,231,245,23,398,-375,-210
,514,2023-10-27 12:22:54.22,261,-136,-1989,-90,252,219,-181,152,-333,14
,515,2023-10-27 12:22:54.23,256,-125,-2007,-96,283,195,16,395,-379,-205
,516,2023-10-27 12:22:54.24,260,-118,-1990,-113,300,162,-176,155,-331,10
,517,2023-10-27 12:22:54.25,281,-119,-2020,-129,315,139,14,402,-388,-208
,518,2023-10-27 12:22:54.26,271,-118,-2058,-143,312,116,-186,148,-334,19
,519,2023-10-27 12:22:54.27,287,-114,-2037,-156,305,100,5,395,-390,-200
,520,2023-10-27 12:22:54.28,304,-101,-2035,-168,304,79,-178,147,-325,15
,521,2023-10-27 12:22:54.29,322,-107,-2028,-182,292,65,2,397,-395,-199
,522,2023-10-27 12:22:54.30,330,-125,-2044,-190,283,51,-176,156,-332,10
,523,2023-10-27 12:22:54.31,315,-139,-2068,-200,272,43,-6,396,-402,-195
,524,2023-10-27 12:22:54.32,330,-135,-2061,-206,268,44,-178,150,-328,14
,525,2023-10-27 12:22:54.33,348,-143,-2047,-206,260,39,-7,390,-397,-191
,526,2023-10-27 12:22:54.34,354,-153,-2033,-196,256,42,-167,158,-325,4
,527,2023-10-27 12:22:54.35,351,-164,-2020,-190,241,43,-5,405,-410,-200
,528,2023-10-27 12:22:54.36,356,-178,-2008,-179,249,51,-160,164,-324,-2
,529,2023-10-27 12:22:54.37,373,-189,-1995,-160,252,59,-12,406,-418,-197
,530,2023-10-27 12:22:54.38,359,-208,-1996,-139,270,68,-156,167,-323,-5
,531,2023-10-27 12:22:54.39,376,-218,-1993,-112,269,78,-12,411,-423,-199
,532,2023-10-27 12:22:54.40,363,-199,-2010,-82,279,84,-150,179,-329,-14
,533,2023-10-27 12:22:54.41,376,-190,-2016,-50,274,96,-26,409,-435,-191
,534,2023-10-27 12:22:54.42,385,-187,-2019,-28,278,98,-147,179,-326,-16
,535,2023-10-27 12:22:54.43,381,-188,-2026,-12,273,98,-22,418,-440,-198
,536,2023-10-27 12:22:54.44,386,-170,-2014,9,279,98,-137,184,-321,-23
,537,2023-10-27 12:22:54.45,374,-176,-2014,32,284,95,-18,422,-440,-202
,538,2023-10-27 12:22:54.46,386,-207,-2007,50,293,94,-131,187,-318,-28
,539,2023-10-27 12:22:54.47,372,-216,-2009,74,285,96,-30,394,-424,-182
,540,2023-10-27 12:22:54.48,387,-219,-2021,106,277,98,-109,162,-271,-26
,541,2023-10-27 12:22:54.49,370,-230,-2024,143,265,111,-24,363,-387,-169
,542,2023-10-27 12:22:54.50,381,-224,-2031,160,237,110,-110,137,-247,-13
,543,2023-10-27 12:22:54.51,381,-224,-2051,175,226,121,-31,353,-384,-161
,544,2023-10-27 12:22:54.52,380,-207,-2054,179,209,122,-111,140,-251,-14
,545,2023-10-27 12:22:54.53,383,-202,-2059,178,184,117,-48,341,-389,-146
,546,2023-10-27 12:22:54.54,400,-202,-2075,176,179,116,-110,127,-237,-8
,547,2023-10-27 12:22:54.55,400,-185,-2064,175,162,112,-54,320,-374,-133
,548,2023-10-27 12:22:54.56,397,-190,-2048,183,140,108,-102,119,-221,-8
,549,2023-10-27 12:22:54.57,407,-203,-2047,187,132,105,-48,313,-361,-132
,550,2023-10-27 12:22:54.58,405,-207,-2047,192,118,103,-73,136,-209,-31
,551,2023-10-27 12:22:54.59,414,-220,-2034,192,106,89,-32,335,-367,-151
,552,2023-10-27 12:22:54.60,416,-214,-2033,193,102,83,-55,159,-214,-52
,553,2023-10-27 12:22:54.61,424,-216,-2021,199,94,71,-31,339,-370,-154
,554,2023-10-27 12:22:54.62,424,-194,-2034,200,84,59,-39,167,-206,-64
,555,2023-10-27 12:22:54.63,419,-224,-2052,193,86,45,-23,334,-357,-155
,556,2023-10-27 12:22:54.64,420,-215,-2075,187,77,31,-16,169,-185,-76
,557,2023-10-27 12:22:54.65,423,-211,-2053,184,65,23,-22,349,-371,-163
,558,2023-10-27 12:22:54.66,422,-218,-2040,189,47,10,-17,194,-211,-88
,559,2023-10-27 12:22:54.67,423,-234,-2029,189,32,4,-36,357,-393,-160
,560,2023-10-27 12:22:54.68,419,-242,-2023,188,25,-2,-16,195,-211,-89
,561,2023-10-27 12:22:54.69,410,-247,-2020,194,20,-5,-44,353,-397,-154
,562,2023-10-27 12:22:54.70,410,-266,-2016,204,3,-1,-22,198,-220,-88
,563,2023-10-27 12:22:54.71,411,-267,-2024,204,-11,-5,-61,345,-406,-142
,564,2023-10-27 12:22:54.72,410,-270,-2035,210,-25,-3,-16,201,-217,-92
,565,2023-10-27 12:22:54.73,401,-262,-2042,211,-47,-2,-77,338,-415,-130
,566,2023-10-27 12:22:54.74,408,-269,-2036,209,-62,0,-20,194,-214,-87
,567,2023-10-27 12:22:54.75,409,-264,-2029,208,-80,-2,-78,329,-407,-125
,568,2023-10-27 12:22:54.76,417,-285,-2017,205,-88,-6,-12,210,-222,-99
,569,2023-10-27 12:22:54.77,403,-293,-2014,211,-97,-2,-100,331,-431,-115
,570,2023-10-27 12:22:54.78,406,-312,-1998,218,-108,-1,-23,210,-233,-93
,571,2023-10-27 12:22:54.79,411,-317,-2009,228,-120,5,-101,329,-430,-114
,572,2023-10-27 12:22:54.80,414,-320,-2013,232,-120,8,0,227,-227,-113
,573,2023-10-27 12:22:54.81,415,-330,-2029,234,-113,9,-97,333,-430,-118
,574,2023-10-27 12:22:54.82,416,-343,-2019,230,-108,16,-5,223,-228,-109
,575,2023-10-27 12:22:54.83,407,-349,-2028,226,-94,20,-113,334,-447,-110
,576,2023-10-27 12:22:54.84,405,-345,-2021,227,-78,32,-11,232,-243,-110
,577,2023-10-27 12:22:54.85,403,-355,-2016,221,-79,41,-124,326,-450,-101
,578,2023-10-27 12:22:54.86,396,-360,-2008,222,-88,52,6,239,-233,-122
,579,2023-10-27 12:22:54.87,396,-372,-2010,222,-80,61,-127,341,-468,-107
,580,2023-10-27 12:22:54.88,395,-372,-2001,224,-78,72,-16,258,-274,-121
,581,2023-10-27 12:22:54.89,392,-362,-1998,222,-83,80,-150,348,-498,-99
,582,2023-10-27 12:22:54.90,381,-373,-1989,217,-75,93,-8,279,-287,-135
,583,2023-10-27 12:22:54.91,384,-378,-2001,215,-81,101,-140,362,-502,-111
,584,2023-10-27 12:22:54.92,383,-348,-1999,210,-80,111,0,287,-287,-143
,585,2023-10-27 12:22:54.93,397,-351,-1989,200,-92,108,-142,358,-500,-108
,586,2023-10-27 12:22:54.94,387,-354,-1988,181,-70,111,11,300,-289,-155
,587,2023-10-27 12:22:54.95,374,-344,-1991,160,-64,107,-146,362,-508,-108
,588,2023-10-27 12:22:54.96,389,-346,-1993,144,-60,100,15,305,-290,-160
,589,2023-10-27 12:22:54.97,380,-350,-2003,130,-57,101,-149,361,-510,-106
,590,2023-10-27 12:22:54.98,374,-361,-1992,121,-66,97,13,318,-305,-165
,591,2023-10-27 12:22:54.99,373,-361,-1991,113,-60,96,-158,351,-509,-96
,592,2023-10-27 12:22:55.00,369,-366,-1994,104,-57,91,15,312,-297,-163
,593,2023-10-27 12:22:55.01,386,-384,-1992,101,-61,92,-164,347,-511,-91
,594,2023-10-27 12:22:55.02,378,-364,-1992,98,-54,91,19,326,-307,-172
,595,2023-10-27 12:22:55.03,370,-368,-1989,93,-52,88,-176,343,-519,-83
,596,2023-10-27 12:22:55.04,367,-382,-2000,88,-52,84,10,327,-317,-168
,597,2023-10-27 12:22:55.05,359,-379,-1989,87,-46,86,-184,343,-527,-79
,598,2023-10-27 12:22:55.06,357,-370,-2003,88,-48,83,21,337,-316,-179
,599,2023-10-27 12:22:55.07,358,-377,-1990,84,-50,86,-174,337,-511,-81
,600,2023-10-27 12:22:55.08,346,-389,-1986,81,-54,85,32,343,-311,-187
,601,2023-10-27 12:22:55.09,343,-395,-2011,82,-58,80,-180,336,-516,-78
,602,2023-10-27 12:22:55.10,354,-390,-2021,88,-75,80,25,349,-324,-187
,603,2023-10-27 12:22:55.11,350,-390,-2012,88,-72,78,-181,326,-507,-72
,604,2023-10-27 12:22:55.12,347,-393,-2012,87,-62,75,32,353,-321,-192
,605,2023-10-27 12:22:55.13,340,-381,-2008,82,-51,68,-188,323,-511,-67
,606,2023-10-27 12:22:55.14,350,-377,-2004,76,-48,63,25,356,-331,-190
,607,2023-10-27 12:22:55.15,330,-376,-1993,74,-41,57,-190,319,-509,-64
,608,2023-10-27 12:22:55.16,340,-388,-1990,71,-38,55,29,361,-332,-195
,609,2023-10-27 12:22:55.17,328,-392,-1986,67,-38,56,-197,312,-509,-57
,610,2023-10-27 12:22:55.18,329,-383,-1984,66,-33,57,28,366,-338,-197
,611,2023-10-27 12:22:55.19,321,-399,-1987,66,-37,60,-201,298,-499,-48
,612,2023-10-27 12:22:55.20,333,-397,-1978,66,-35,58,28,359,-331,-193
,613,2023-10-27 12:22:55.21,322,-397,-1964,72,-27,56,-203,298,-501,-47
,614,2023-10-27 12:22:55.22,328,-401,-1987,75,-15,50,34,374,-340,-204
,615,2023-10-27 12:22:55.23,342,-392,-1982,77,-14,42,-198,292,-490,-47
,616,2023-10-27 12:22:55.24,328,-394,-1993,78,-5,34,45,381,-336,-213
,617,2023-10-27 12:22:55.25,323,-383,-1989,79,-8,30,-197,300,-497,-51
,618,2023-10-27 12:22:55.26,333,-384,-2003,74,-6,19,38,396,-358,-217
,619,2023-10-27 12:22:55.27,332,-388,-2019,69,-8,8,-212,291,-503,-39
,620,2023-10-27 12:22:55.28,322,-386,-2013,66,0,-6,32,387,-355,-209
,621,2023-10-27 12:22:55.29,339,-393,-2026,74,-12,-17,-216,278,-494,-31
,622,2023-10-27 12:22:55.30,333,-395,-2019,81,-18,-35,32,386,-354,-209
,623,2023-10-27 12:22:55.31,334,-405,-2022,86,-15,-45,-223,273,-496,-25
,624,2023-10-27 12:22:55.32,341,-401,-2002,90,-17,-55,22,392,-370,-207
,625,2023-10-27 12:22:55.33,342,-388,-2025,94,-24,-76,-232,269,-501,-18
,626,2023-10-27 12:22:55.34,344,-376,-1989,94,-14,-102,17,393,-376,-205
,627,2023-10-27 12:22:55.35,346,-373,-1979,100,-10,-122,-232,262,-494,-15
,628,2023-10-27 12:22:55.36,348,-380,-1986,98,-13,-147,18,394,-376,-206
,629,2023-10-27 12:22:55.37,343,-381,-1997,101,-15,-164,-225,253,-478,-14
,630,2023-10-27 12:22:55.38,339,-392,-2010,106,-32,-181,33,392,-359,-212
,631,2023-10-27 12:22:55.39,363,-388,-1999,108,-39,-198,-219,244,-463,-12
,632,2023-10-27 12:22:55.40,346,-400,-2004,108,-49,-208,30,394,-364,-212
,633,2023-10-27 12:22:55.41,344,-397,-2009,111,-52,-220,-223,243,-466,-10
,634,2023-10-27 12:22:55.42,345,-399,-2001,109,-58,-232,29,400,-371,-214
,635,2023-10-27 12:22:55.43,349,-394,-1970,105,-50,-241,-218,236,-454,-9
,636,2023-10-27 12:22:55.44,350,-394,-1980,102,-45,-252,36,396,-360,-216
,637,2023-10-27 12:22:55.45,347,-410,-1984,90,-41,-256,-220,226,-446,-3
,638,2023-10-27 12:22:55.46,346,-403,-1990,78,-40,-262,26,400,-374,-213
,639,2023-10-27 12:22:55.47,350,-396,-1981,68,-28,-260,-226,229,-455,-1
,640,2023-10-27 12:22:55.48,356,-403,-1971,56,-31,-264,22,403,-381,-212
,641,2023-10-27 12:22:55.49,341,-408,-1976,43,-30,-261,-222,213,-435,4
,642,2023-10-27 12:22:55.50,353,-415,-1988,35,-20,-262,22,399,-377,-210
,643,2023-10-27 12:22:55.51,352,-411,-1987,28,-17,-259,-216,218,-434,-1
,644,2023-10-27 12:22:55.52,367,-412,-1980,24,-8,-256,32,416,-384,-224
,645,2023-10-27 12:22:55.53,370,-404,-1979,20,7,-254,-216,224,-440,-4
,646,2023-10-27 12:22:55.54,365,-412,-1989,15,9,-259,22,426,-404,-224
,647,2023-10-27 12:22:55.55,361,-416,-2002,12,17,-257,-224,222,-446,1
,648,2023-10-27 12:22:55.56,376,-413,-1991,5,25,-254,18,428,-410,-223
,649,2023-10-27 12:22:55.57,374,-404,-1981,7,24,-253,-227,218,-445,4
,650,2023-10-27 12:22:55.58,363,-420,-1969,12,28,-251,10,424,-414,-217
,651,2023-10-27 12:22:55.59,381,-418,-1979,13,37,-239,-239,201,-440,19
,652,2023-10-27 12:22:55.60,381,-422,-1989,15,42,-235,-12,415,-427,-201
,653,2023-10-27 12:22:55.61,395,-422,-1972,13,54,-227,-244,199,-443,22
,654,2023-10-27 12:22:55.62,385,-422,-1982,14,49,-225,-10,422,-432,-206
,655,2023-10-27 12:22:55.63,400,-422,-1974,19,62,-218,-237,190,-427,23
,656,2023-10-27 12:22:55.64,396,-417,-1970,25,62,-214,-11,412,-423,-200
,657,2023-10-27 12:22:55.65,399,-424,-1974,32,71,-206,-234,184,-418,25
,658,2023-10-27 12:22:55.66,413,-451,-1959,40,89,-196,-14,413,-427,-199
,659,2023-10-27 12:22:55.67,409,-441,-1943,56,90,-191,-227,187,-414,20
,660,2023-10-27 12:22:55.68,419,-464,-1974,70,90,-185,-7,412,-419,-202
,661,2023-10-27 12:22:55.69,405,-464,-1981,85,92,-174,-224,173,-397,25
,662,2023-10-27 12:22:55.70,433,-464,-1962,100,99,-166,-18,396,-414,-189
,663,2023-10-27 12:22:55.71,425,-457,-1972,111,107,-158,-225,160,-385,32
,664,2023-10-27 12:22:55.72,430,-463,-1970,111,127,-150,-20,392,-412,-186
,665,2023-10-27 12:22:55.73,415,-455,-1970,118,137,-148,-221,154,-375,33
,666,2023-10-27 12:22:55.74,427,-450,-1964,123,136,-143,-22,392,-414,-185
,667,2023-10-27 12:22:55.75,423,-446,-1955,120,127,-136,-218,156,-374,31
,668,2023-10-27 12:22:55.76,434,-443,-1946,114,118,-137,-30,398,-428,-184
,669,2023-10-27 12:22:55.77,436,-438,-1959,109,129,-133,-216,164,-380,26
,670,2023-10-27 12:22:55.78,433,-445,-1972,97,130,-126,-31,402,-433,-185
,671,2023-10-27 12:22:55.79,430,-451,-2003,85,125,-123,-202,166,-368,18
,672,2023-10-27 12:22:55.80,435,-455,-2004,81,110,-124,-15,415,-430,-200
,673,2023-10-27 12:22:55.81,430,-465,-2014,77,91,-111,-181,181,-362,0
,674,2023-10-27 12:22:55.82,429,-464,-1995,71,82,-98,-10,418,-428,-204
,675,2023-10-27 12:22:55.83,436,-462,-1983,70,65,-93,-172,176,-348,-2
,676,2023-10-27 12:22:55.84,432,-467,-1990,63,55,-90,-15,420,-435,-202
,677,2023-10-27 12:22:55.85,448,-468,-1982,57,64,-79,-176,181,-357,-2
,678,2023-10-27 12:22:55.86,438,-464,-1995,49,48,-71,-26,416,-442,-195
,679,2023-10-27 12:22:55.87,433,-477,-1985,47,48,-60,-174,174,-348,0
,680,2023-10-27 12:22:55.88,437,-471,-1984,45,43,-54,-36,416,-452,-190
,681,2023-10-27 12:22:55.89,441,-466,-1997,50,35,-41,-184,169,-353,7
,682,2023-10-27 12:22:55.90,440,-461,-1993,45,40,-35,-55,413,-468,-179
,683,2023-10-27 12:22:55.91,447,-463,-1991,39,34,-30,-181,176,-357,2
,684,2023-10-27 12:22:55.92,449,-444,-1997,29,20,-33,-50,414,-464,-182
,685,2023-10-27 12:22:55.93,437,-438,-1965,25,6,-30,-160,183,-343,-11
,686,2023-10-27 12:22:55.94,448,-447,-1971,26,-5,-31,-47,413,-460,-183
,687,2023-10-27 12:22:55.95,459,-446,-1973,29,-24,-33,-160,171,-331,-5
,688,2023-10-27 12:22:55.96,450,-445,-1973,33,-23,-33,-67,399,-466,-166
,689,2023-10-27 12:22:55.97,451,-437,-1960,33,-19,-34,-169,170,-339,0
,690,2023-10-27 12:22:55.98,460,-451,-1985,28,-15,-36,-78,417,-495,-169
,691,2023-10-27 12:22:55.99,460,-440,-1981,26,-18,-48,-158,194,-352,-18
,692,2023-10-27 12:22:56.00,448,-457,-1982,34,-34,-50,-69,410,-479,-170
,693,2023-10-27 12:22:56.01,448,-450,-1982,39,-32,-53,-160,169,-329,-4
,694,2023-10-27 12:22:56.02,444,-456,-1986,41,-33,-59,-84,392,-476,-154
,695,2023-10-27 12:22:56.03,453,-458,-1983,49,-42,-62,-153,163,-316,-5
,696,2023-10-27 12:22:56.04,438,-452,-1975,55,-45,-64,-86,386,-472,-150
,697,2023-10-27 12:22:56.05,458,-452,-1981,59,-58,-74,-147,151,-298,-2
,698,2023-10-27 12:22:56.06,452,-458,-1981,57,-64,-79,-83,381,-464,-149
,699,2023-10-27 12:22:56.07,448,-457,-1964,56,-60,-78,-137,160,-297,-11
,700,2023-10-27 12:22:56.08,451,-471,-1953,50,-77,-81,-90,387,-477,-148
,701,2023-10-27 12:22:56.09,453,-466,-1955,51,-72,-81,-138,166,-304,-14
,702,2023-10-27 12:22:56.10,439,-460,-1961,42,-70,-77,-101,371,-472,-135
,703,2023-10-27 12:22:56.11,449,-464,-1963,30,-72,-81,-137,147,-284,-5
,704,2023-10-27 12:22:56.12,429,-453,-1984,13,-72,-85,-106,368,-474,-131
,705,2023-10-27 12:22:56.13,424,-454,-1987,-6,-61,-83,-130,161,-291,-15
,706,2023-10-27 12:22:56.14,422,-448,-1983,-23,-64,-84,-110,385,-495,-137
,707,2023-10-27 12:22:56.15,434,-438,-2007,-34,-71,-79,-124,176,-300,-26
,708,2023-10-27 12:22:56.16,430,-441,-1984,-56,-71,-81,-114,366,-480,-126
,709,2023-10-27 12:22:56.17,427,-442,-1986,-74,-71,-80,-126,153,-279,-13
,710,2023-10-27 12:22:56.18,424,-435,-1995,-84,-73,-72,-119,344,-463,-112
,711,2023-10-27 12:22:56.19,425,-424,-1990,-90,-74,-71,-108,150,-258,-21
,712,2023-10-27 12:22:56.20,422,-439,-1993,-95,-84,-62,-114,350,-464,-118
,713,2023-10-27 12:22:56.21,429,-436,-1996,-98,-88,-63,-109,161,-270,-26
,714,2023-10-27 12:22:56.22,412,-439,-1991,-98,-90,-58,-128,337,-465,-104
,715,2023-10-27 12:22:56.23,414,-438,-1995,-98,-84,-49,-110,150,-260,-20
,716,2023-10-27 12:22:56.24,396,-434,-1981,-94,-89,-48,-131,325,-456,-97
,717,2023-10-27 12:22:56.25,414,-437,-1984,-92,-85,-38,-98,153,-251,-27
,718,2023-10-27 12:22:56.26,406,-438,-1971,-89,-98,-36,-128,325,-453,-98
,719,2023-10-27 12:22:56.27,422,-421,-1968,-82,-85,-30,-100,156,-256,-28
,720,2023-10-27 12:22:56.28,424,-411,-1965,-83,-77,-36,-150,320,-470,-85
,721,2023-10-27 12:22:56.29,430,-413,-1973,-86,-58,-37,-95,161,-256,-33
,722,2023-10-27 12:22:56.30,416,-389,-1974,-87,-50,-43,-147,314,-461,-83
,723,2023-10-27 12:22:56.31,409,-412,-1978,-88,-37,-48,-90,156,-246,-33
,724,2023-10-27 12:22:56.32,405,-401,-1988,-87,-47,-41,-149,308,-457,-79
,725,2023-10-27 12:22:56.33,410,-417,-1986,-90,-46,-35,-78,173,-251,-47
,726,2023-10-27 12:22:56.34,406,-408,-1997,-87,-57,-25,-137,312,-449,-87
,727,2023-10-27 12:22:56.35,410,-410,-1985,-84,-65,-20,-76,171,-247,-47
,728,2023-10-27 12:22:56.36,413,-385,-1990,-84,-70,-17,-162,309,-471,-73
,729,2023-10-27 12:22:56.37,419,-402,-2001,-91,-76,-12,-80,172,-252,-46
,730,2023-10-27 12:22:56.38,409,-402,-1999,-96,-85,-12,-149,308,-457,-79
,731,2023-10-27 12:22:56.39,405,-403,-2014,-98,-78,-3,-54,190,-244,-68
,732,2023-10-27 12:22:56.40,415,-403,-2009,-94,-89,3,-150,328,-478,-89
,733,2023-10-27 12:22:56.41,400,-400,-2014,-95,-99,9,-60,210,-270,-75
,734,2023-10-27 12:22:56.42,403,-397,-2011,-98,-112,15,-162,326,-488,-82
,735,2023-10-27 12:22:56.43,420,-402,-2007,-99,-120,22,-54,205,-259,-75
,736,2023-10-27 12:22:56.44,401,-401,-2005,-99,-113,35,-165,316,-481,-75
,737,2023-10-27 12:22:56.45,395,-405,-1999,-102,-121,37,-45,214,-259,-84
,738,2023-10-27 12:22:56.46,399,-398,-2002,-101,-122,47,-162,304,-466,-71
,739,2023-10-27 12:22:56.47,390,-400,-1995,-99,-125,50,-35,217,-252,-91
,740,2023-10-27 12:22:56.48,387,-404,-1986,-98,-131,54,-165,306,-471,-70
,741,2023-10-27 12:22:56.49,394,-395,-1969,-93,-128,58,-39,218,-257,-89
,742,2023-10-27 12:22:56.50,386,-397,-1984,-89,-123,63,-174,286,-460,-56
,743,2023-10-27 12:22:56.51,390,-389,-1987,-90,-121,65,-38,209,-247,-85
,744,2023-10-27 12:22:56.52,390,-380,-1978,-98,-113,65,-181,295,-476,-57
,745,2023-10-27 12:22:56.53,378,-390,-1959,-105,-112,65,-35,231,-266,-98
,746,2023-10-27 12:22:56.54,403,-369,-1978,-98,-117,68,-185,289,-474,-52
,747,2023-10-27 12:22:56.55,394,-366,-1966,-102,-101,72,-42,226,-268,-92
,748,2023-10-27 12:22:56.56,383,-359,-1977,-111,-88,64,-189,284,-473,-47
,749,2023-10-27 12:22:56.57,384,-365,-2000,-116,-73,61,-24,237,-261,-106
,750,2023-10-27 12:22:56.58,385,-363,-2002,-111,-75,60,-179,290,-469,-55
,751,2023-10-27 12:22:56.59,388,-359,-1992,-102,-82,58,-17,249,-266,-116
,752,2023-10-27 12:22:56.60,380,-348,-1988,-99,-81,49,-186,297,-483,-55
,753,2023-10-27 12:22:56.61,383,-344,-1991,-97,-71,41,-18,261,-279,-121
,754,2023-10-27 12:22:56.62,384,-330,-1990,-98,-67,30,-185,291,-476,-53
,755,2023-10-27 12:22:56.63,380,-344,-1994,-96,-68,22,0,274,-274,-137
,756,2023-10-27 12:22:56.64,380,-354,-2010,-89,-62,16,-168,420,-588,-126
,757,2023-10-27 12:22:56.65,372,-355,-2023,-83,-67,15,12,396,-384,-204
,758,2023-10-27 12:22:56.66,361,-365,-2001,-72,-69,16,-177,312,-489,-67
,759,2023-10-27 12:22:56.67,362,-357,-2021,-62,-84,16,11,252,-241,-131
,760,2023-10-27 12:22:56.68,336,-363,-2024,-56,-93,22,-181,242,-423,-30
,761,2023-10-27 12:22:56.69,327,-363,-2040,-50,-110,24,10,263,-253,-136
,762,2023-10-27 12:22:56.70,322,-356,-2040,-44,-107,19,-194,268,-462,-37
,763,2023-10-27 12:22:56.71,309,-352,-2028,-40,-132,15,5,281,-276,-143
,764,2023-10-27 12:22:56.72,312,-334,-2035,-34,-145,6,-196,259,-455,-31
,765,2023-10-27 12:22:56.73,307,-307,-2015,-35,-157,-4,4,278,-274,-141
,766,2023-10-27 12:22:56.74,322,-321,-2006,-47,-140,-12,-200,246,-446,-23
,767,2023-10-27 12:22:56.75,298,-308,-2022,-67,-131,-23,12,280,-268,-146
,768,2023-10-27 12:22:56.76,304,-314,-2021,-88,-119,-38,-200,257,-457,-28
,769,2023-10-27 12:22:56.77,285,-310,-2023,-95,-122,-44,10,300,-290,-155
,770,2023-10-27 12:22:56.78,298,-290,-2006,-102,-120,-54,-217,240,-457,-11
,771,2023-10-27 12:22:56.79,295,-302,-2018,-115,-120,-63,16,301,-285,-158
,772,2023-10-27 12:22:56.80,284,-286,-2018,-128,-117,-64,-192,259,-451,-33
,773,2023-10-27 12:22:56.81,296,-290,-2006,-131,-109,-63,32,323,-291,-177
,774,2023-10-27 12:22:56.82,283,-283,-1992,-133,-106,-69,-196,252,-448,-28
,775,2023-10-27 12:22:56.83,286,-292,-1998,-131,-106,-71,24,311,-287,-167
,776,2023-10-27 12:22:56.84,287,-309,-2025,-124,-106,-76,-208,237,-445,-14
,777,2023-10-27 12:22:56.85,296,-300,-2028,-117,-115,-74,22,317,-295,-169
,778,2023-10-27 12:22:56.86,299,-308,-2023,-106,-122,-69,-205,232,-437,-13
,779,2023-10-27 12:22:56.87,294,-310,-2036,-104,-121,-64,30,313,-283,-171
,780,2023-10-27 12:22:56.88,287,-305,-2023,-104,-118,-61,-193,232,-425,-19
,781,2023-10-27 12:22:56.89,298,-295,-2021,-101,-100,-48,47,335,-288,-191
,782,2023-10-27 12:22:56.90,285,-284,-2009,-102,-86,-45,-191,248,-439,-28
,783,2023-10-27 12:22:56.91,291,-279,-1995,-106,-71,-37,44,349,-305,-196
,784,2023-10-27 12:22:56.92,293,-274,-2003,-111,-73,-42,-195,235,-430,-20
,785,2023-10-27 12:22:56.93,285,-275,-2023,-118,-62,-37,50,347,-297,-198
,786,2023-10-27 12:22:56.94,282,-265,-2021,-117,-66,-32,-192,234,-426,-21
,787,2023-10-27 12:22:56.95,275,-273,-2032,-115,-60,-32,54,353,-299,-203
,788,2023-10-27 12:22:56.96,264,-278,-2053,-113,-61,-25,-194,238,-432,-22
,789,2023-10-27 12:22:56.97,274,-270,-2069,-118,-69,-17,51,361,-310,-206
,790,2023-10-27 12:22:56.98,257,-261,-2048,-118,-79,-11,-197,221,-418,-12
,791,2023-10-27 12:22:56.99,251,-253,-2036,-116,-80,-8,47,356,-309,-201
,792,2023-10-27 12:22:57.00,269,-247,-2015,-122,-84,-5,-206,229,-435,-11
,793,2023-10-27 12:22:57.01,267,-241,-2020,-128,-81,-5,42,370,-328,-206
,794,2023-10-27 12:22:57.02,267,-240,-2029,-126,-81,-1,-206,218,-424,-6
,795,2023-10-27 12:22:57.03,270,-227,-2023,-123,-76,-2,52,364,-312,-208
,796,2023-10-27 12:22:57.04,279,-226,-2029,-127,-76,-7,-208,214,-422,-3
,797,2023-10-27 12:22:57.05,256,-223,-2051,-132,-67,-6,48,376,-328,-212
,798,2023-10-27 12:22:57.06,249,-228,-2050,-139,-68,-9,-208,215,-423,-3
,799,2023-10-27 12:22:57.07,247,-223,-2039,-141,-80,-10,55,385,-330,-220
,800,2023-10-27 12:22:57.08,243,-226,-2024,-147,-81,-9,-197,238,-435,-20
,801,2023-10-27 12:22:57.09,256,-221,-2016,-146,-80,-6,54,404,-350,-229
,802,2023-10-27 12:22:57.10,249,-197,-2017,-144,-76,-5,-207,229,-436,-11
,803,2023-10-27 12:22:57.11,253,-194,-2015,-154,-58,-14,55,392,-337,-223
,804,2023-10-27 12:22:57.12,241,-174,-2022,-166,-39,-25,-197,213,-410,-8
,805,2023-10-27 12:22:57.13,253,-184,-2018,-166,-24,-36,62,395,-333,-228
,806,2023-10-27 12:22:57.14,249,-179,-2032,-163,-18,-46,-202,218,-420,-8
,807,2023-10-27 12:22:57.15,250,-173,-2049,-166,-26,-58,52,405,-353,-228
,808,2023-10-27 12:22:57.16,248,-177,-2053,-170,-20,-71,-197,221,-418,-12
,809,2023-10-27 12:22:57.17,233,-184,-2054,-169,-17,-78,58,411,-353,-234
,810,2023-10-27 12:22:57.18,221,-182,-2041,-165,-24,-77,-191,221,-412,-15
,811,2023-10-27 12:22:57.19,231,-181,-2033,-156,-31,-76,57,410,-353,-233
,812,2023-10-27 12:22:57.20,247,-169,-2018,-145,-36,-72,-188,217,-405,-14
,813,2023-10-27 12:22:57.21,247,-158,-2005,-144,-30,-72,65,419,-354,-242
,814,2023-10-27 12:22:57.22,252,-143,-2011,-150,-30,-71,-186,221,-407,-17
,815,2023-10-27 12:22:57.23,247,-154,-2024,-156,-19,-66,62,429,-367,-245
,816,2023-10-27 12:22:57.24,250,-160,-2021,-155,-14,-68,-190,227,-417,-18
,817,2023-10-27 12:22:57.25,246,-158,-2039,-147,-10,-65,62,435,-373,-248
,818,2023-10-27 12:22:57.26,238,-152,-2051,-142,-15,-61,-186,227,-413,-20
,819,2023-10-27 12:22:57.27,232,-152,-2059,-135,-16,-55,63,446,-383,-254
,820,2023-10-27 12:22:57.28,235,-150,-2060,-131,-18,-49,-189,225,-414,-18
,821,2023-10-27 12:22:57.29,236,-144,-2070,-128,-14,-48,59,440,-381,-249
,822,2023-10-27 12:22:57.30,230,-141,-2076,-124,-12,-45,-175,218,-393,-21
,823,2023-10-27 12:22:57.31,221,-126,-2068,-124,-17,-39,70,446,-376,-258
,824,2023-10-27 12:22:57.32,220,-151,-2078,-120,-11,-32,-174,222,-396,-24
,825,2023-10-27 12:22:57.33,219,-145,-2081,-111,-19,-26,61,448,-387,-254
,826,2023-10-27 12:22:57.34,209,-143,-2081,-100,-20,-17,-210,200,-410,5
,827,2023-10-27 12:22:57.35,212,-153,-2078,-84,-29,-8,89,460,-371,-274
,828,2023-10-27 12:22:57.36,193,-155,-2074,-70,-39,0,-154,257,-411,-51
,829,2023-10-27 12:22:57.37,200,-164,-2064,-61,-36,4,112,518,-406,-315
,830,2023-10-27 12:22:57.38,182,-164,-2064,-49,-40,12,-156,288,-444,-66
,831,2023-10-27 12:22:57.39,195,-156,-2044,-41,-38,21,112,541,-429,-326
,832,2023-10-27 12:22:57.40,188,-155,-2026,-31,-38,31,-142,311,-453,-84
,833,2023-10-27 12:22:57.41,186,-145,-2009,-26,-37,38,128,559,-431,-343
,834,2023-10-27 12:22:57.42,191,-142,-2019,-28,-37,44,-122,331,-453,-104
,835,2023-10-27 12:22:57.43,186,-140,-1998,-32,-16,50,136,577,-441,-356
,836,2023-10-27 12:22:57.44,196,-140,-2002,-31,3,56,-108,351,-459,-121
,837,2023-10-27 12:22:57.45,203,-135,-2022,-31,8,63,143,597,-454,-370
,838,2023-10-27 12:22:57.46,200,-144,-2030,-37,25,72,-99,358,-457,-129
,839,2023-10-27 12:22:57.47,190,-134,-2027,-35,32,77,154,606,-452,-380
,840,2023-10-27 12:22:57.48,192,-136,-2027,-33,35,84,-88,358,-446,-135
,841,2023-10-27 12:22:57.49,194,-135,-2024,-37,42,93,160,612,-452,-386
,842,2023-10-27 12:22:57.50,191,-161,-2047,-42,50,102,-79,364,-443,-142
,843,2023-10-27 12:22:57.51,198,-154,-2051,-46,51,117,165,621,-456,-393
,844,2023-10-27 12:22:57.52,213,-159,-2055,-48,50,129,-74,370,-444,-148
,845,2023-10-27 12:22:57.53,207,-150,-2054,-47,56,139,161,625,-464,-393
,846,2023-10-27 12:22:57.54,225,-130,-2055,-54,63,148,-74,368,-442,-147
,847,2023-10-27 12:22:57.55,231,-124,-2055,-62,73,150,160,622,-462,-391
,848,2023-10-27 12:22:57.56,240,-116,-2064,-65,83,154,-66,371,-437,-152
,849,2023-10-27 12:22:57.57,240,-88,-2063,-65,80,155,163,629,-466,-396
,850,2023-10-27 12:22:57.58,249,-80,-2040,-67,77,158,-63,372,-435,-154
,851,2023-10-27 12:22:57.59,269,-82,-2015,-68,81,154,148,621,-473,-384
,852,2023-10-27 12:22:57.60,272,-94,-2022,-70,89,153,-72,360,-432,-144
,853,2023-10-27 12:22:57.61,270,-106,-2022,-60,93,158,149,626,-477,-387
,854,2023-10-27 12:22:57.62,264,-142,-2033,-38,92,167,-52,376,-428,-162
,855,2023-10-27 12:22:57.63,250,-150,-2075,-16,75,183,144,638,-494,-391
,856,2023-10-27 12:22:57.64,254,-132,-2066,-14,62,200,-50,368,-418,-159
,857,2023-10-27 12:22:57.65,234,-131,-2053,-12,56,215,144,629,-485,-386
,858,2023-10-27 12:22:57.66,238,-96,-2032,-10,47,225,-48,365,-413,-158
,859,2023-10-27 12:22:57.67,251,-58,-2018,-12,29,229,149,630,-481,-389
,860,2023-10-27 12:22:57.68,247,-51,-2029,-17,25,221,-28,366,-394,-169
,861,2023-10-27 12:22:57.69,252,-46,-2021,-33,29,214,162,636,-474,-399
,862,2023-10-27 12:22:57.70,238,-54,-2018,-35,17,204,-26,376,-402,-175
,863,2023-10-27 12:22:57.71,232,-68,-2038,-31,-13,193,147,634,-487,-390
,864,2023-10-27 12:22:57.72,213,-88,-2077,-21,-33,185,-13,380,-393,-183
,865,2023-10-27 12:22:57.73,219,-70,-2148,-3,-89,177,176,627,-451,-401
,866,2023-10-27 12:22:57.74,214,-78,-2188,-1,-142,169,24,358,-334,-191
,867,2023-10-27 12:22:57.75,199,-53,-2220,-38,-175,157,191,606,-415,-398
,868,2023-10-27 12:22:57.76,214,-56,-2230,-110,-157,145,26,343,-317,-184
,869,2023-10-27 12:22:57.77,216,-41,-2246,-187,-182,137,186,607,-421,-396
,870,2023-10-27 12:22:57.78,213,-75,-2201,-267,-209,137,20,350,-330,-185
,871,2023-10-27 12:22:57.79,231,-110,-2131,-314,-216,143,153,591,-438,-372
,872,2023-10-27 12:22:57.80,229,-105,-2086,-336,-229,148,12,345,-333,-178
,873,2023-10-27 12:22:57.81,237,-141,-2078,-358,-257,159,166,578,-412,-372
,874,2023-10-27 12:22:57.82,257,-148,-2000,-380,-256,172,66,335,-269,-200
,875,2023-10-27 12:22:57.83,259,-215,-1988,-387,-223,186,201,596,-395,-398
,876,2023-10-27 12:22:57.84,253,-240,-2077,-392,-189,210,147,444,-297,-295
,877,2023-10-27 12:22:57.85,240,-228,-2084,-385,-187,238,279,564,-285,-421
,878,2023-10-27 12:22:57.86,201,-212,-2106,-363,-194,262,143,247,-104,-195
,879,2023-10-27 12:22:57.87,175,-177,-2084,-342,-215,281,107,490,-383,-298
,880,2023-10-27 12:22:57.88,151,-174,-2023,-337,-236,291,-75,288,-363,-106
,881,2023-10-27 12:22:57.89,141,-133,-1996,-340,-265,295,-25,547,-572,-261
,882,2023-10-27 12:22:57.90,106,-91,-1959,-359,-278,288,-105,324,-429,-109
,883,2023-10-27 12:22:57.91,107,-61,-1915,-396,-258,274,-12,559,-571,-273
,884,2023-10-27 12:22:57.92,109,-39,-1925,-426,-267,253,-88,327,-415,-119
,885,2023-10-27 12:22:57.93,111,-11,-1952,-472,-265,225,-10,537,-547,-263
,886,2023-10-27 12:22:57.94,110,31,-1946,-524,-247,209,-63,310,-373,-123
,887,2023-10-27 12:22:57.95,90,42,-1981,-568,-248,190,47,567,-520,-307
,888,2023-10-27 12:22:57.96,68,35,-2011,-612,-238,180,-11,359,-370,-174
,889,2023-10-27 12:22:57.97,95,57,-2013,-643,-255,187,70,644,-574,-357
,890,2023-10-27 12:22:57.98,68,57,-1983,-652,-257,191,-23,429,-452,-203
,891,2023-10-27 12:22:57.99,56,97,-2011,-638,-265,222,44,738,-694,-391
,892,2023-10-27 12:22:58.00,65,118,-1985,-621,-290,242,-29,536,-565,-253
,893,2023-10-27 12:22:58.01,76,122,-2003,-580,-277,258,32,692,-660,-362
,894,2023-10-27 12:22:58.02,86,123,-2073,-527,-264,276,3,417,-414,-210
,895,2023-10-27 12:22:58.03,109,181,-2086,-470,-258,296,57,631,-574,-344
,896,2023-10-27 12:22:58.04,114,193,-2072,-429,-234,304,26,415,-389,-220
,897,2023-10-27 12:22:58.05,119,193,-2083,-393,-203,300,130,891,-761,-510
,898,2023-10-27 12:22:58.06,122,192,-2097,-363,-147,287,51,755,-704,-403
,899,2023-10-27 12:22:58.07,146,201,-2090,-310,-114,277,27,677,-650,-352
,900,2023-10-27 12:22:58.08,136,198,-2051,-254,-64,263,98,316,-218,-207
,901,2023-10-27 12:22:58.09,139,189,-2067,-193,-32,246,169,459,-290,-314
,902,2023-10-27 12:22:58.10,132,265,-2036,-134,-26,228,232,353,-121,-292
,903,2023-10-27 12:22:58.11,115,216,-2097,-95,-14,208,204,556,-352,-380
,904,2023-10-27 12:22:58.12,119,246,-2082,-81,-2,191,223,401,-178,-312
,905,2023-10-27 12:22:58.13,80,267,-2077,-76,10,165,144,547,-403,-345
,906,2023-10-27 12:22:58.14,77,291,-2055,-76,9,143,170,392,-222,-281
,907,2023-10-27 12:22:58.15,76,294,-2013,-73,-3,122,82,538,-456,-310
,908,2023-10-27 12:22:58.16,71,302,-1997,-69,-18,106,129,395,-266,-262
,909,2023-10-27 12:22:58.17,58,320,-2009,-74,-26,97,39,534,-495,-286
,910,2023-10-27 12:22:58.18,57,321,-2009,-81,-29,90,102,400,-298,-251
,911,2023-10-27 12:22:58.19,58,339,-1979,-87,-34,81,3,538,-535,-270
,912,2023-10-27 12:22:58.20,57,309,-1988,-81,-45,75,82,410,-328,-246
,913,2023-10-27 12:22:58.21,31,293,-1995,-75,-47,75,-20,531,-551,-255
,914,2023-10-27 12:22:58.22,41,281,-1996,-45,-58,82,72,410,-338,-241
,915,2023-10-27 12:22:58.23,51,247,-1990,-5,-63,89,-40,528,-568,-244
,916,2023-10-27 12:22:58.24,49,244,-2026,31,-50,97,68,421,-353,-244
,917,2023-10-27 12:22:58.25,56,232,-2052,60,-37,109,-48,524,-572,-238
,918,2023-10-27 12:22:58.26,66,231,-2053,83,-21,117,79,417,-338,-248
,919,2023-10-27 12:22:58.27,58,214,-2049,121,-13,123,-42,509,-551,-233
,920,2023-10-27 12:22:58.28,57,207,-2064,162,2,129,93,423,-330,-258
,921,2023-10-27 12:22:58.29,64,201,-2074,192,10,133,-42,510,-552,-234
,922,2023-10-27 12:22:58.30,57,193,-2088,209,14,137,100,430,-330,-265
,923,2023-10-27 12:22:58.31,60,200,-2069,222,19,144,-48,510,-558,-231
,924,2023-10-27 12:22:58.32,67,198,-2065,244,34,146,100,442,-342,-271
,925,2023-10-27 12:22:58.33,50,191,-2083,255,39,152,-59,509,-568,-225
,926,2023-10-27 12:22:58.34,63,201,-2066,270,23,157,97,449,-352,-273
,927,2023-10-27 12:22:58.35,69,207,-2042,284,26,158,-70,512,-582,-221
,928,2023-10-27 12:22:58.36,81,213,-2034,296,35,151,100,461,-361,-280
,929,2023-10-27 12:22:58.37,67,212,-2036,310,37,145,-69,509,-578,-220
,930,2023-10-27 12:22:58.38,78,213,-2019,319,44,140,108,462,-354,-285
,931,2023-10-27 12:22:58.39,66,205,-2007,330,59,131,-65,505,-570,-220
,932,2023-10-27 12:22:58.40,62,205,-2008,336,70,124,111,464,-353,-287
,933,2023-10-27 12:22:58.41,62,215,-2008,344,87,114,-72,484,-556,-206
,934,2023-10-27 12:22:58.42,82,225,-2005,351,99,106,116,442,-326,-279
,935,2023-10-27 12:22:58.43,89,223,-2003,351,109,95,-67,478,-545,-205
,936,2023-10-27 12:22:58.44,82,205,-2008,350,122,82,131,469,-338,-300
,937,2023-10-27 12:22:58.45,109,205,-2023,356,140,65,-63,484,-547,-210
,938,2023-10-27 12:22:58.46,114,191,-2012,366,161,48,141,474,-333,-307
,939,2023-10-27 12:22:58.47,127,191,-2014,372,178,36,-74,474,-548,-200
,940,2023-10-27 12:22:58.48,123,171,-2018,376,199,22,125,472,-347,-298
,941,2023-10-27 12:22:58.49,129,149,-2030,381,220,7,-92,456,-548,-182
,942,2023-10-27 12:22:58.50,149,134,-2043,388,229,0,125,470,-345,-297
,943,2023-10-27 12:22:58.51,156,132,-2035,397,236,-5,-92,465,-557,-186
,944,2023-10-27 12:22:58.52,159,126,-2035,400,247,-12,127,499,-372,-313
,945,2023-10-27 12:22:58.53,176,105,-2050,401,261,-14,-105,457,-562,-176
,946,2023-10-27 12:22:58.54,176,94,-2059,402,269,-16,129,484,-355,-306
,947,2023-10-27 12:22:58.55,189,62,-2061,409,275,-20,-93,418,-511,-162
,948,2023-10-27 12:22:58.56,198,48,-2061,420,284,-18,147,471,-324,-309
,949,2023-10-27 12:22:58.57,207,39,-2063,428,289,-17,-92,406,-498,-157
,950,2023-10-27 12:22:58.58,216,9,-2073,434,287,-14,150,466,-316,-308
,951,2023-10-27 12:22:58.59,216,3,-2077,443,274,-4,-121,395,-516,-137
,952,2023-10-27 12:22:58.60,229,-3,-2088,452,267,7,105,474,-369,-289
,953,2023-10-27 12:22:58.61,239,4,-2083,454,261,20,-165,389,-554,-112
,954,2023-10-27 12:22:58.62,248,7,-2065,455,264,25,70,468,-398,-269
,955,2023-10-27 12:22:58.63,251,8,-2078,456,259,24,-196,352,-548,-78
,956,2023-10-27 12:22:58.64,245,12,-2082,455,242,21,42,442,-400,-242
,957,2023-10-27 12:22:58.65,255,-1,-2090,454,223,18,-232,322,-554,-45
,958,2023-10-27 12:22:58.66,249,-15,-2089,452,202,13,11,425,-414,-218
,959,2023-10-27 12:22:58.67,260,-42,-2090,455,191,14,-261,288,-549,-13
,960,2023-10-27 12:22:58.68,262,-61,-2088,469,179,14,-16,404,-420,-194
,961,2023-10-27 12:22:58.69,265,-82,-2099,478,175,7,-279,259,-538,10
,962,2023-10-27 12:22:58.70,245,-106,-2100,487,167,5,-26,391,-417,-182
,963,2023-10-27 12:22:58.71,261,-112,-2068,507,153,7,-286,243,-529,21
,964,2023-10-27 12:22:58.72,252,-141,-2037,529,148,3,-33,391,-424,-179
,965,2023-10-27 12:22:58.73,241,-154,-2035,556,130,-2,-289,243,-532,23
,966,2023-10-27 12:22:58.74,246,-170,-2029,579,117,-8,-21,403,-424,-191
,967,2023-10-27 12:22:58.75,250,-190,-2019,596,107,-9,-273,253,-526,10
,968,2023-10-27 12:22:58.76,232,-202,-2013,616,93,-12,2,426,-424,-214
,969,2023-10-27 12:22:58.77,225,-232,-2013,634,72,-18,-256,272,-528,-8
,970,2023-10-27 12:22:58.78,227,-246,-2004,654,48,-15,15,449,-434,-232
,971,2023-10-27 12:22:58.79,213,-275,-2001,672,26,-11,-254,286,-540,-16
,972,2023-10-27 12:22:58.80,210,-280,-2008,684,6,-6,25,469,-444,-247
,973,2023-10-27 12:22:58.81,209,-293,-2017,690,-19,0,-237,289,-526,-26
,974,2023-10-27 12:22:58.82,207,-324,-2011,691,-41,3,52,477,-425,-264
,975,2023-10-27 12:22:58.83,204,-344,-1988,701,-58,9,-221,285,-506,-32
,976,2023-10-27 12:22:58.84,200,-363,-1991,709,-60,17,67,489,-422,-278
,977,2023-10-27 12:22:58.85,209,-384,-1985,714,-59,23,-199,306,-505,-53
,978,2023-10-27 12:22:58.86,231,-419,-1962,720,-52,27,82,507,-425,-294
,979,2023-10-27 12:22:58.87,217,-427,-1974,728,-19,33,-199,309,-508,-55
,980,2023-10-27 12:22:58.88,187,-385,-1995,713,-3,40,78,514,-436,-296
,981,2023-10-27 12:22:58.89,199,-405,-2027,677,-1,37,-213,319,-532,-53
,982,2023-10-27 12:22:58.90,228,-457,-2022,649,14,27,64,528,-464,-296
,983,2023-10-27 12:22:58.91,222,-484,-2034,631,41,28,-212,332,-544,-60
,984,2023-10-27 12:22:58.92,205,-472,-1985,620,73,32,65,538,-473,-301
,985,2023-10-27 12:22:58.93,191,-470,-1979,586,87,34,-226,337,-563,-55
,986,2023-10-27 12:22:58.94,200,-462,-1987,548,89,30,45,542,-497,-293
,987,2023-10-27 12:22:58.95,207,-490,-2004,517,78,30,-229,338,-567,-54
,988,2023-10-27 12:22:58.96,209,-509,-2019,477,71,33,62,554,-492,-308
,989,2023-10-27 12:22:58.97,204,-520,-1990,439,64,41,-205,345,-550,-70
,990,2023-10-27 12:22:58.98,214,-544,-1979,404,63,51,55,549,-494,-302
,991,2023-10-27 12:22:58.99,213,-537,-1959,381,60,56,-222,298,-520,-38
,992,2023-10-27 12:22:59.00,220,-545,-1961,359,59,57,45,506,-461,-275
,993,2023-10-27 12:22:59.01,224,-561,-1959,339,51,61,-222,270,-492,-24
,994,2023-10-27 12:22:59.02,215,-588,-1978,315,47,65,39,497,-458,-268
,995,2023-10-27 12:22:59.03,221,-563,-1965,295,38,71,-216,262,-478,-23
,996,2023-10-27 12:22:59.04,243,-596,-1959,281,41,76,41,482,-441,-261
,997,2023-10-27 12:22:59.05,240,-565,-1918,279,29,79,-207,237,-444,-15
,998,2023-10-27 12:22:59.06,256,-593,-1934,272,47,83,54,468,-414,-261
,999,2023-10-27 12:22:59.07,246,-615,-1954,269,40,89,-177,239,-416,-31
,1000,2023-10-27 12:22:59.08,225,-632,-1978,268,45,100,88,486,-398,-287
,1001,2023-10-27 12:22:59.09,243,-619,-1986,258,35,115,-140,260,-400,-60
,1002,2023-10-27 12:22:59.10,250,-644,-2013,242,34,128,117,518,-401,-317
,1003,2023-10-27 12:22:59.11,255,-636,-2029,230,36,144,-92,297,-389,-102
,1004,2023-10-27 12:22:59.12,241,-658,-1999,218,41,160,147,566,-419,-356
,1005,2023-10-27 12:22:59.13,222,-633,-1980,200,36,183,-88,341,-429,-126
,1006,2023-10-27 12:22:59.14,219,-607,-1990,175,30,199,114,592,-478,-353
,1007,2023-10-27 12:22:59.15,203,-630,-1983,143,27,214,-126,336,-462,-105
,1008,2023-10-27 12:22:59.16,221,-623,-1973,109,15,232,84,581,-497,-332
,1009,2023-10-27 12:22:59.17,215,-639,-1957,81,7,253,-147,318,-465,-85
,1010,2023-10-27 12:22:59.18,195,-639,-1945,57,-5,275,53,557,-504,-305
,1011,2023-10-27 12:22:59.19,189,-639,-1965,24,-11,289,-154,284,-438,-65
,1012,2023-10-27 12:22:59.20,208,-612,-1995,-16,-13,305,43,534,-491,-288
,1013,2023-10-27 12:22:59.21,196,-631,-1998,-57,-10,317,-146,277,-423,-65
,1014,2023-10-27 12:22:59.22,196,-627,-1965,-92,-17,334,32,524,-492,-278
,1015,2023-10-27 12:22:59.23,196,-629,-1978,-130,-6,337,-152,257,-409,-52
,1016,2023-10-27 12:22:59.24,197,-577,-1990,-168,-1,341,18,503,-485,-260
,1017,2023-10-27 12:22:59.25,205,-609,-1979,-209,22,335,-159,239,-398,-40
,1018,2023-10-27 12:22:59.26,209,-609,-1984,-239,36,335,11,509,-498,-260
,1019,2023-10-27 12:22:59.27,209,-624,-1996,-257,47,337,-165,233,-398,-34
,1020,2023-10-27 12:22:59.28,217,-613,-1959,-264,59,344,-7,509,-516,-251
,1021,2023-10-27 12:22:59.29,213,-605,-1965,-281,85,343,-174,236,-410,-31
,1022,2023-10-27 12:22:59.30,206,-579,-1973,-303,94,338,-18,501,-519,-241
,1023,2023-10-27 12:22:59.31,232,-555,-1973,-322,99,333,-162,233,-395,-35
,1024,2023-10-27 12:22:59.32,238,-533,-1966,-346,114,322,-19,495,-514,-238
,1025,2023-10-27 12:22:59.33,256,-535,-1947,-372,137,305,-158,225,-383,-33
,1026,2023-10-27 12:22:59.34,257,-532,-1961,-386,157,291,-21,485,-506,-232
,1027,2023-10-27 12:22:59.35,257,-535,-1935,-401,177,282,-146,221,-367,-37
,1028,2023-10-27 12:22:59.36,262,-517,-1945,-408,183,274,-24,479,-503,-227
,1029,2023-10-27 12:22:59.37,271,-505,-1942,-411,180,261,-142,217,-359,-37
,1030,2023-10-27 12:22:59.38,283,-515,-1955,-411,180,253,-43,465,-508,-211
