// Data mode  : Full
// Data quality  : High
// Acceleration sensor's range  : 16g
// Gyroscope sensor's range  : 2000dps
//
//ARTIFACT,NUM,DATE,ACC_X,ACC_Y,ACC_Z,GYRO_X,GYRO_Y,GYRO_Z,EOG_L,EOG_R,EOG_H,EOG_V
,1,2023-10-27 11:22:38.02,215,-233,-2042,-32,37,-3,-525,-460,-65,492
,2,2023-10-27 11:22:38.03,218,-227,-2043,-30,26,-5,-696,-612,-84,654
,3,2023-10-27 11:22:38.04,211,-227,-2043,-39,35,-12,-527,-462,-65,494
,4,2023-10-27 11:22:38.05,207,-217,-2042,-52,49,-19,-698,-613,-85,655
,5,2023-10-27 11:22:38.06,226,-220,-2035,-55,44,-23,-522,-461,-61,491
,6,2023-10-27 11:22:38.07,224,-228,-2032,-50,37,-30,-700,-612,-88,656
,7,2023-10-27 11:22:38.08,222,-238,-2037,-46,36,-32,-521,-460,-61,490
,8,2023-10-27 11:22:38.09,216,-235,-2052,-38,23,-31,-699,-611,-88,655
,9,2023-10-27 11:22:38.10,219,-242,-2051,-36,25,-32,-528,-464,-64,496
,10,2023-10-27 11:22:38.11,209,-239,-2059,-29,21,-28,-703,-610,-93,656
,11,2023-10-27 11:22:38.12,216,-246,-2056,-21,16,-24,-524,-461,-63,492
,12,2023-10-27 11:22:38.13,222,-236,-2047,-15,7,-23,-700,-606,-94,653
,13,2023-10-27 11:22:38.14,223,-235,-2041,-11,2,-17,-522,-462,-60,492
,14,2023-10-27 11:22:38.15,213,-235,-2049,-7,-2,-13,-698,-603,-95,650
,15,2023-10-27 11:22:38.16,221,-239,-2036,-4,-3,-11,-516,-455,-61,485
,16,2023-10-27 11:22:38.17,223,-245,-2036,3,0,-7,-692,-596,-96,644
,17,2023-10-27 11:22:38.18,219,-240,-2041,8,4,-6,-517,-459,-58,488
,18,2023-10-27 11:22:38.19,210,-238,-2039,8,5,0,-696,-600,-96,648
,19,2023-10-27 11:22:38.20,224,-242,-2038,9,9,0,-517,-461,-56,489
,20,2023-10-27 11:22:38.21,217,-241,-2044,8,13,2,-693,-592,-101,642
,21,2023-10-27 11:22:38.22,205,-237,-2035,7,17,7,-516,-454,-62,485
,22,2023-10-27 11:22:38.23,210,-239,-2042,5,19,10,-691,-587,-104,639
,23,2023-10-27 11:22:38.24,208,-237,-2040,4,23,13,-516,-457,-59,486
,24,2023-10-27 11:22:38.25,213,-238,-2044,4,22,14,-693,-585,-108,639
,25,2023-10-27 11:22:38.26,211,-242,-2043,2,22,18,-519,-459,-60,489
,26,2023-10-27 11:22:38.27,222,-242,-2042,4,21,19,-692,-585,-107,638
,27,2023-10-27 11:22:38.28,221,-253,-2041,10,22,25,-514,-460,-54,487
,28,2023-10-27 11:22:38.29,222,-238,-2027,12,24,25,-688,-581,-107,634
,29,2023-10-27 11:22:38.30,225,-234,-2032,14,29,24,-516,-459,-57,487
,30,2023-10-27 11:22:38.31,229,-233,-2038,12,29,24,-688,-578,-110,633
,31,2023-10-27 11:22:38.32,220,-232,-2045,18,26,23,-518,-461,-57,489
,32,2023-10-27 11:22:38.33,226,-229,-2044,20,17,23,-688,-578,-110,633
,33,2023-10-27 11:22:38.34,212,-240,-2043,25,10,21,-519,-464,-55,491
,34,2023-10-27 11:22:38.35,220,-247,-2049,29,-1,23,-694,-585,-109,639
,35,2023-10-27 11:22:38.36,220,-232,-2044,37,-6,20,-525,-480,-45,502
,36,2023-10-27 11:22:38.37,226,-230,-2045,44,-7,17,-690,-594,-96,642
,37,2023-10-27 11:22:38.38,208,-226,-2047,49,-9,16,-524,-486,-38,505
,38,2023-10-27 11:22:38.39,216,-239,-2054,51,-15,8,-682,-588,-94,635
,39,2023-10-27 11:22:38.40,209,-249,-2058,52,-16,12,-520,-482,-38,501
,40,2023-10-27 11:22:38.41,206,-248,-2046,56,-26,15,-678,-580,-98,629
,41,2023-10-27 11:22:38.42,215,-234,-2043,57,-31,14,-521,-477,-44,499
,42,2023-10-27 11:22:38.43,213,-235,-2035,50,-35,17,-672,-569,-103,620
,43,2023-10-27 11:22:38.44,214,-244,-2036,47,-28,21,-525,-478,-47,501
,44,2023-10-27 11:22:38.45,211,-243,-2030,41,-25,21,-678,-569,-109,623
,45,2023-10-27 11:22:38.46,222,-242,-2037,39,-19,25,-532,-486,-46,509
,46,2023-10-27 11:22:38.47,227,-247,-2028,36,-13,26,-674,-564,-110,619
,47,2023-10-27 11:22:38.48,211,-250,-2028,34,-7,30,-530,-481,-49,505
,48,2023-10-27 11:22:38.49,208,-250,-2037,29,2,34,-671,-557,-114,614
,49,2023-10-27 11:22:38.50,198,-259,-2046,29,4,39,-534,-483,-51,508
,50,2023-10-27 11:22:38.51,205,-257,-2044,30,10,44,-669,-552,-117,610
,51,2023-10-27 11:22:38.52,201,-251,-2038,33,13,45,-539,-488,-51,513
,52,2023-10-27 11:22:38.53,201,-257,-2041,36,16,49,-668,-554,-114,611
,53,2023-10-27 11:22:38.54,209,-252,-2043,36,15,50,-539,-489,-50,514
,54,2023-10-27 11:22:38.55,211,-253,-2039,38,16,53,-667,-549,-118,608
,55,2023-10-27 11:22:38.56,209,-248,-2037,44,16,51,-546,-494,-52,520
,56,2023-10-27 11:22:38.57,221,-257,-2039,46,15,49,-664,-547,-117,605
,57,2023-10-27 11:22:38.58,207,-256,-2041,52,15,49,-547,-497,-50,522
,58,2023-10-27 11:22:38.59,218,-256,-2038,58,15,46,-660,-546,-114,603
,59,2023-10-27 11:22:38.60,220,-264,-2038,65,12,41,-550,-501,-49,525
,60,2023-10-27 11:22:38.61,208,-258,-2038,67,12,38,-660,-542,-118,601
,61,2023-10-27 11:22:38.62,220,-258,-2037,64,8,35,-557,-506,-51,531
,62,2023-10-27 11:22:38.63,214,-265,-2042,70,8,31,-657,-540,-117,598
,63,2023-10-27 11:22:38.64,200,-272,-2037,71,5,31,-559,-508,-51,533
,64,2023-10-27 11:22:38.65,210,-264,-2027,72,1,31,-654,-537,-117,595
,65,2023-10-27 11:22:38.66,207,-267,-2027,67,4,27,-560,-511,-49,535
,66,2023-10-27 11:22:38.67,220,-266,-2031,61,7,27,-650,-535,-115,592
,67,2023-10-27 11:22:38.68,220,-275,-2032,62,7,23,-564,-514,-50,539
,68,2023-10-27 11:22:38.69,211,-276,-2031,61,10,22,-649,-534,-115,591
,69,2023-10-27 11:22:38.70,212,-285,-2033,60,9,22,-574,-523,-51,548
,70,2023-10-27 11:22:38.71,219,-287,-2032,58,10,22,-646,-533,-113,589
,71,2023-10-27 11:22:38.72,220,-290,-2040,55,9,25,-575,-528,-47,551
,72,2023-10-27 11:22:38.73,202,-292,-2044,52,8,27,-638,-522,-116,580
,73,2023-10-27 11:22:38.74,211,-282,-2039,54,5,31,-576,-525,-51,550
,74,2023-10-27 11:22:38.75,203,-281,-2034,48,5,35,-633,-520,-113,576
,75,2023-10-27 11:22:38.76,201,-285,-2031,43,2,32,-589,-534,-55,561
,76,2023-10-27 11:22:38.77,204,-273,-2035,40,8,33,-636,-518,-118,577
,77,2023-10-27 11:22:38.78,200,-279,-2031,34,6,31,-589,-535,-54,562
,78,2023-10-27 11:22:38.79,220,-285,-2039,31,7,30,-628,-510,-118,569
,79,2023-10-27 11:22:38.80,218,-283,-2034,32,7,30,-586,-534,-52,560
,80,2023-10-27 11:22:38.81,213,-286,-2038,29,8,25,-626,-508,-118,567
,81,2023-10-27 11:22:38.82,205,-284,-2032,25,9,26,-596,-539,-57,567
,82,2023-10-27 11:22:38.83,210,-282,-2031,19,7,24,-623,-506,-117,564
,83,2023-10-27 11:22:38.84,214,-277,-2033,18,8,22,-598,-541,-57,569
,84,2023-10-27 11:22:38.85,221,-275,-2035,17,9,19,-619,-504,-115,561
,85,2023-10-27 11:22:38.86,221,-290,-2028,15,13,15,-604,-546,-58,575
,86,2023-10-27 11:22:38.87,215,-285,-2020,14,15,13,-615,-502,-113,558
,87,2023-10-27 11:22:38.88,218,-296,-2035,11,15,11,-604,-549,-55,576
,88,2023-10-27 11:22:38.89,211,-291,-2044,11,16,11,-610,-499,-111,554
,89,2023-10-27 11:22:38.90,222,-285,-2044,14,14,11,-609,-552,-57,580
,90,2023-10-27 11:22:38.91,212,-283,-2039,16,11,13,-607,-499,-108,553
,91,2023-10-27 11:22:38.92,218,-289,-2031,16,9,10,-612,-554,-58,583
,92,2023-10-27 11:22:38.93,216,-288,-2027,12,8,12,-604,-493,-111,548
,93,2023-10-27 11:22:38.94,217,-289,-2035,12,5,11,-622,-561,-61,591
,94,2023-10-27 11:22:38.95,218,-281,-2027,10,4,12,-602,-496,-106,549
,95,2023-10-27 11:22:38.96,221,-283,-2029,9,5,10,-623,-569,-54,596
,96,2023-10-27 11:22:38.97,225,-282,-2027,9,9,8,-596,-495,-101,545
,97,2023-10-27 11:22:38.98,223,-286,-2023,6,10,5,-626,-568,-58,597
,98,2023-10-27 11:22:38.99,221,-292,-2036,4,10,8,-592,-488,-104,540
,99,2023-10-27 11:22:39.00,214,-291,-2035,3,9,6,-629,-570,-59,599
,100,2023-10-27 11:22:39.01,218,-280,-2044,2,7,6,-593,-488,-105,540
,101,2023-10-27 11:22:39.02,221,-287,-2033,1,6,4,-636,-575,-61,605
,102,2023-10-27 11:22:39.03,214,-281,-2040,-5,1,3,-585,-482,-103,533
,103,2023-10-27 11:22:39.04,213,-277,-2039,-6,-6,6,-635,-570,-65,602
,104,2023-10-27 11:22:39.05,225,-282,-2030,-8,-12,5,-579,-474,-105,526
,105,2023-10-27 11:22:39.06,222,-285,-2038,-8,-13,8,-637,-572,-65,604
,106,2023-10-27 11:22:39.07,207,-284,-2039,-8,-16,8,-573,-470,-103,521
,107,2023-10-27 11:22:39.08,212,-285,-2036,-5,-20,10,-641,-575,-66,608
,108,2023-10-27 11:22:39.09,221,-284,-2028,-3,-23,11,-570,-468,-102,519
,109,2023-10-27 11:22:39.10,220,-281,-2028,-3,-15,16,-641,-574,-67,607
,110,2023-10-27 11:22:39.11,212,-284,-2032,-4,-10,13,-564,-463,-101,513
,111,2023-10-27 11:22:39.12,218,-284,-2020,-3,-4,14,-645,-576,-69,610
,112,2023-10-27 11:22:39.13,211,-293,-2031,2,-2,15,-563,-465,-98,514
,113,2023-10-27 11:22:39.14,217,-289,-2033,5,2,17,-647,-582,-65,614
,114,2023-10-27 11:22:39.15,213,-290,-2031,6,0,19,-563,-465,-98,514
,115,2023-10-27 11:22:39.16,205,-275,-2039,7,3,21,-659,-588,-71,623
,116,2023-10-27 11:22:39.17,214,-267,-2036,8,6,17,-571,-473,-98,522
,117,2023-10-27 11:22:39.18,226,-263,-2046,5,6,15,-660,-590,-70,625
,118,2023-10-27 11:22:39.19,198,-264,-2053,1,2,10,-558,-463,-95,510
,119,2023-10-27 11:22:39.20,205,-266,-2051,-1,-8,9,-663,-590,-73,626
,120,2023-10-27 11:22:39.21,220,-271,-2036,1,-15,9,-553,-461,-92,507
,121,2023-10-27 11:22:39.22,204,-274,-2029,1,-19,6,-664,-592,-72,628
,122,2023-10-27 11:22:39.23,204,-271,-2032,0,-14,4,-551,-460,-91,505
,123,2023-10-27 11:22:39.24,208,-276,-2025,-5,-12,3,-667,-593,-74,630
,124,2023-10-27 11:22:39.25,213,-269,-2029,-5,-7,2,-550,-459,-91,504
,125,2023-10-27 11:22:39.26,216,-262,-2032,3,-4,-4,-674,-600,-74,637
,126,2023-10-27 11:22:39.27,210,-259,-2036,11,-9,-9,-545,-456,-89,500
,127,2023-10-27 11:22:39.28,205,-267,-2038,12,-9,-13,-672,-595,-77,633
,128,2023-10-27 11:22:39.29,206,-255,-2047,16,-11,-16,-541,-450,-91,495
,129,2023-10-27 11:22:39.30,208,-264,-2050,22,-18,-16,-676,-598,-78,637
,130,2023-10-27 11:22:39.31,207,-263,-2044,22,-23,-17,-540,-451,-89,495
,131,2023-10-27 11:22:39.32,205,-265,-2032,24,-26,-16,-679,-599,-80,639
,132,2023-10-27 11:22:39.33,200,-275,-2037,23,-23,-17,-541,-454,-87,497
,133,2023-10-27 11:22:39.34,210,-276,-2044,26,-18,-17,-681,-601,-80,641
,134,2023-10-27 11:22:39.35,215,-276,-2041,30,-18,-15,-536,-452,-84,494
,135,2023-10-27 11:22:39.36,199,-279,-2045,30,-20,-16,-681,-602,-79,641
,136,2023-10-27 11:22:39.37,211,-276,-2037,30,-20,-16,-533,-452,-81,492
,137,2023-10-27 11:22:39.38,207,-278,-2029,33,-15,-17,-686,-604,-82,645
,138,2023-10-27 11:22:39.39,212,-277,-2030,36,-11,-16,-534,-453,-81,493
,139,2023-10-27 11:22:39.40,223,-290,-2026,37,-5,-14,-688,-606,-82,647
,140,2023-10-27 11:22:39.41,205,-262,-2026,37,-1,-20,-534,-452,-82,493
,141,2023-10-27 11:22:39.42,222,-269,-2031,38,0,-17,-690,-604,-86,647
,142,2023-10-27 11:22:39.43,207,-292,-2034,32,5,-12,-532,-454,-78,493
,143,2023-10-27 11:22:39.44,202,-288,-2042,30,7,-10,-692,-607,-85,649
,144,2023-10-27 11:22:39.45,218,-281,-2039,31,9,-5,-527,-453,-74,490
,145,2023-10-27 11:22:39.46,213,-283,-2034,33,12,-1,-688,-606,-82,647
,146,2023-10-27 11:22:39.47,210,-277,-2038,34,6,2,-523,-452,-71,487
,147,2023-10-27 11:22:39.48,214,-261,-2036,34,2,3,-690,-603,-87,646
,148,2023-10-27 11:22:39.49,223,-261,-2042,34,8,2,-522,-448,-74,485
,149,2023-10-27 11:22:39.50,211,-267,-2052,30,9,3,-690,-602,-88,646
,150,2023-10-27 11:22:39.51,230,-272,-2055,21,22,-1,-518,-447,-71,482
,151,2023-10-27 11:22:39.52,195,-280,-2047,18,24,3,-691,-600,-91,645
,152,2023-10-27 11:22:39.53,226,-279,-2044,24,15,5,-519,-447,-72,483
,153,2023-10-27 11:22:39.54,222,-274,-2040,39,2,7,-689,-599,-90,644
,154,2023-10-27 11:22:39.55,224,-281,-2036,51,-9,7,-510,-443,-67,476
,155,2023-10-27 11:22:39.56,221,-274,-2026,54,-6,5,-691,-598,-93,644
,156,2023-10-27 11:22:39.57,215,-264,-2027,58,-9,4,-515,-445,-70,480
,157,2023-10-27 11:22:39.58,219,-264,-2033,63,-5,1,-701,-606,-95,653
,158,2023-10-27 11:22:39.59,208,-269,-2029,68,-5,-3,-519,-448,-71,483
,159,2023-10-27 11:22:39.60,214,-267,-2031,69,3,-6,-693,-596,-97,644
,160,2023-10-27 11:22:39.61,195,-280,-2020,72,9,-12,-510,-441,-69,475
,161,2023-10-27 11:22:39.62,215,-280,-2032,76,1,-10,-692,-595,-97,643
,162,2023-10-27 11:22:39.63,207,-284,-2036,87,-1,-13,-514,-453,-61,483
,163,2023-10-27 11:22:39.64,199,-294,-2032,96,-9,-10,-693,-600,-93,646
,164,2023-10-27 11:22:39.65,210,-297,-2035,102,-10,-9,-512,-449,-63,480
,165,2023-10-27 11:22:39.66,218,-297,-2030,102,-2,-9,-692,-594,-98,643
,166,2023-10-27 11:22:39.67,207,-310,-2032,106,7,-8,-513,-451,-62,482
,167,2023-10-27 11:22:39.68,198,-316,-2030,116,-8,-6,-692,-594,-98,643
,168,2023-10-27 11:22:39.69,226,-310,-2041,129,-7,-1,-518,-454,-64,486
,169,2023-10-27 11:22:39.70,208,-323,-2029,137,-8,-6,-696,-592,-104,644
,170,2023-10-27 11:22:39.71,213,-328,-2028,144,-10,-3,-519,-456,-63,487
,171,2023-10-27 11:22:39.72,214,-328,-2030,149,4,-5,-692,-592,-100,642
,172,2023-10-27 11:22:39.73,197,-340,-2027,154,-1,-2,-516,-454,-62,485
,173,2023-10-27 11:22:39.74,217,-339,-2025,170,-14,0,-694,-591,-103,642
,174,2023-10-27 11:22:39.75,209,-344,-2026,177,-6,3,-524,-464,-60,494
,175,2023-10-27 11:22:39.76,191,-351,-2024,177,-5,2,-702,-596,-106,649
,176,2023-10-27 11:22:39.77,196,-355,-2029,180,-2,2,-533,-477,-56,505
,177,2023-10-27 11:22:39.78,192,-353,-2029,186,-4,2,-719,-620,-99,669
,178,2023-10-27 11:22:39.79,191,-367,-2029,193,-17,5,-558,-509,-49,533
,179,2023-10-27 11:22:39.80,199,-363,-2025,203,-32,7,-743,-651,-92,697
,180,2023-10-27 11:22:39.81,199,-371,-2021,200,-19,4,-584,-542,-42,563
,181,2023-10-27 11:22:39.82,182,-360,-2010,191,-10,3,-753,-664,-89,708
,182,2023-10-27 11:22:39.83,203,-376,-2026,191,-22,3,-585,-547,-38,566
,183,2023-10-27 11:22:39.84,186,-374,-2031,190,-15,0,-744,-652,-92,698
,184,2023-10-27 11:22:39.85,192,-383,-2028,189,-23,3,-572,-532,-40,552
,185,2023-10-27 11:22:39.86,188,-396,-2014,191,-31,1,-724,-629,-95,676
,186,2023-10-27 11:22:39.87,187,-395,-2021,188,-28,4,-550,-509,-41,529
,187,2023-10-27 11:22:39.88,188,-397,-2013,190,-33,6,-697,-598,-99,647
,188,2023-10-27 11:22:39.89,193,-410,-2026,188,-36,4,-530,-484,-46,507
,189,2023-10-27 11:22:39.90,203,-405,-2033,181,-22,-1,-681,-573,-108,627
,190,2023-10-27 11:22:39.91,174,-415,-2004,179,-25,-2,-520,-473,-47,496
,191,2023-10-27 11:22:39.92,196,-421,-2023,183,-33,1,-667,-555,-112,611
,192,2023-10-27 11:22:39.93,185,-426,-2025,186,-45,3,-512,-460,-52,486
,193,2023-10-27 11:22:39.94,173,-426,-2019,184,-43,4,-661,-546,-115,603
,194,2023-10-27 11:22:39.95,189,-416,-2027,183,-44,3,-512,-460,-52,486
,195,2023-10-27 11:22:39.96,204,-418,-2036,178,-51,0,-649,-535,-114,592
,196,2023-10-27 11:22:39.97,193,-407,-2022,174,-56,-7,-514,-463,-51,488
,197,2023-10-27 11:22:39.98,193,-396,-2008,174,-63,-14,-658,-538,-120,598
,198,2023-10-27 11:22:39.99,215,-418,-1963,166,-59,-23,-528,-474,-54,501
,199,2023-10-27 11:22:40.00,196,-402,-2012,148,-7,-37,-657,-538,-119,597
,200,2023-10-27 11:22:40.01,178,-414,-2011,118,-13,-43,-526,-472,-54,499
,201,2023-10-27 11:22:40.02,209,-423,-1977,110,-21,-44,-659,-538,-121,598
,202,2023-10-27 11:22:40.03,190,-415,-1985,110,-17,-50,-536,-486,-50,511
,203,2023-10-27 11:22:40.04,190,-422,-1980,110,-34,-53,-664,-549,-115,606
,204,2023-10-27 11:22:40.05,214,-415,-1977,100,-29,-58,-547,-500,-47,523
,205,2023-10-27 11:22:40.06,211,-423,-1988,85,-13,-68,-669,-553,-116,611
,206,2023-10-27 11:22:40.07,195,-431,-2001,74,-5,-72,-550,-502,-48,526
,207,2023-10-27 11:22:40.08,187,-441,-2012,65,-8,-73,-662,-547,-115,604
,208,2023-10-27 11:22:40.09,203,-436,-1996,62,4,-76,-551,-504,-47,527
,209,2023-10-27 11:22:40.10,184,-443,-2059,50,8,-75,-661,-546,-115,603
,210,2023-10-27 11:22:40.11,183,-461,-2048,33,-15,-66,-556,-510,-46,533
,211,2023-10-27 11:22:40.12,202,-453,-2018,20,-11,-58,-661,-546,-115,603
,212,2023-10-27 11:22:40.13,183,-464,-2010,20,-21,-52,-560,-515,-45,537
,213,2023-10-27 11:22:40.14,193,-462,-2009,20,-35,-43,-658,-544,-114,601
,214,2023-10-27 11:22:40.15,206,-468,-1977,28,-32,-39,-564,-518,-46,541
,215,2023-10-27 11:22:40.16,187,-446,-2020,30,-19,-36,-649,-537,-112,593
,216,2023-10-27 11:22:40.17,175,-467,-2037,16,-28,-28,-563,-517,-46,540
,217,2023-10-27 11:22:40.18,203,-463,-2001,7,-30,-23,-650,-534,-116,592
,218,2023-10-27 11:22:40.19,186,-464,-2004,9,-18,-20,-572,-526,-46,549
,219,2023-10-27 11:22:40.20,189,-465,-2007,-1,-9,-19,-650,-536,-114,593
,220,2023-10-27 11:22:40.21,192,-449,-1994,-2,-11,-12,-577,-532,-45,554
,221,2023-10-27 11:22:40.22,188,-459,-2000,0,-11,-11,-646,-528,-118,587
,222,2023-10-27 11:22:40.23,192,-460,-2014,2,-15,-9,-576,-528,-48,552
,223,2023-10-27 11:22:40.24,186,-446,-1997,0,-14,-6,-639,-524,-115,581
,224,2023-10-27 11:22:40.25,186,-441,-2004,-6,-8,-10,-582,-533,-49,557
,225,2023-10-27 11:22:40.26,177,-449,-2017,-13,-6,-9,-639,-524,-115,581
,226,2023-10-27 11:22:40.27,185,-445,-2016,-13,-9,-10,-589,-540,-49,564
,227,2023-10-27 11:22:40.28,189,-439,-2023,-12,-9,-15,-632,-518,-114,575
,228,2023-10-27 11:22:40.29,188,-440,-2010,-10,-12,-18,-585,-538,-47,561
,229,2023-10-27 11:22:40.30,189,-441,-2011,-13,-16,-18,-623,-511,-112,567
,230,2023-10-27 11:22:40.31,173,-441,-2011,-14,-20,-16,-590,-539,-51,564
,231,2023-10-27 11:22:40.32,177,-437,-2015,-22,-23,-17,-627,-510,-117,568
,232,2023-10-27 11:22:40.33,175,-438,-2016,-27,-27,-14,-597,-543,-54,570
,233,2023-10-27 11:22:40.34,178,-442,-2007,-27,-35,-14,-617,-504,-113,560
,234,2023-10-27 11:22:40.35,189,-443,-2004,-29,-38,-16,-599,-544,-55,571
,235,2023-10-27 11:22:40.36,196,-446,-2001,-32,-35,-16,-619,-504,-115,561
,236,2023-10-27 11:22:40.37,191,-447,-2009,-33,-27,-16,-599,-544,-55,571
,237,2023-10-27 11:22:40.38,179,-443,-2002,-33,-23,-16,-616,-502,-114,559
,238,2023-10-27 11:22:40.39,179,-439,-2005,-31,-19,-17,-610,-553,-57,581
,239,2023-10-27 11:22:40.40,184,-441,-2008,-33,-16,-18,-618,-506,-112,562
,240,2023-10-27 11:22:40.41,192,-446,-2001,-29,-13,-17,-612,-553,-59,582
,241,2023-10-27 11:22:40.42,192,-443,-2007,-24,-12,-17,-606,-492,-114,549
,242,2023-10-27 11:22:40.43,190,-437,-2004,-20,-15,-17,-623,-562,-61,592
,243,2023-10-27 11:22:40.44,174,-426,-2007,-15,-15,-16,-610,-496,-114,553
,244,2023-10-27 11:22:40.45,180,-428,-2005,-11,-20,-18,-626,-565,-61,595
,245,2023-10-27 11:22:40.46,185,-433,-2020,-4,-28,-15,-603,-490,-113,546
,246,2023-10-27 11:22:40.47,166,-434,-2020,0,-33,-12,-627,-565,-62,596
,247,2023-10-27 11:22:40.48,179,-438,-2019,5,-40,-10,-594,-485,-109,539
,248,2023-10-27 11:22:40.49,196,-456,-1983,9,-39,-9,-630,-568,-62,599
,249,2023-10-27 11:22:40.50,162,-422,-1998,21,-15,-12,-596,-484,-112,540
,250,2023-10-27 11:22:40.51,167,-419,-2035,24,-22,-11,-636,-570,-66,603
,251,2023-10-27 11:22:40.52,184,-433,-2026,18,-40,-7,-592,-479,-113,535
,252,2023-10-27 11:22:40.53,186,-427,-2010,22,-42,-8,-637,-569,-68,603
,253,2023-10-27 11:22:40.54,180,-434,-2006,27,-41,-3,-583,-478,-105,530
,254,2023-10-27 11:22:40.55,175,-442,-2021,27,-38,-3,-637,-575,-62,606
,255,2023-10-27 11:22:40.56,177,-433,-2021,23,-40,-1,-582,-475,-107,528
,256,2023-10-27 11:22:40.57,161,-436,-2001,23,-42,-1,-645,-580,-65,612
,257,2023-10-27 11:22:40.58,168,-425,-2033,19,-38,2,-578,-473,-105,525
,258,2023-10-27 11:22:40.59,156,-435,-2068,-6,-27,2,-646,-579,-67,612
,259,2023-10-27 11:22:40.60,176,-446,-1995,-34,-15,-1,-573,-471,-102,522
,260,2023-10-27 11:22:40.61,141,-428,-2007,-30,-13,8,-644,-580,-64,612
,261,2023-10-27 11:22:40.62,152,-444,-2011,-16,-49,14,-567,-467,-100,517
,262,2023-10-27 11:22:40.63,184,-434,-2014,-1,-60,19,-653,-584,-69,618
,263,2023-10-27 11:22:40.64,175,-422,-2005,0,-53,20,-568,-467,-101,517
,264,2023-10-27 11:22:40.65,187,-422,-2001,-17,-18,14,-655,-585,-70,620
,265,2023-10-27 11:22:40.66,147,-431,-1998,-34,6,10,-563,-462,-101,512
,266,2023-10-27 11:22:40.67,136,-433,-2018,-26,-19,12,-656,-584,-72,620
,267,2023-10-27 11:22:40.68,164,-440,-2030,-9,-33,15,-555,-457,-98,506
,268,2023-10-27 11:22:40.69,149,-433,-2012,3,-38,17,-657,-583,-74,620
,269,2023-10-27 11:22:40.70,159,-440,-2002,1,-27,20,-555,-457,-98,506
,270,2023-10-27 11:22:40.71,169,-429,-2008,-5,-13,18,-661,-587,-74,624
,271,2023-10-27 11:22:40.72,182,-425,-2007,-9,12,15,-547,-451,-96,499
,272,2023-10-27 11:22:40.73,169,-418,-2019,-6,22,10,-659,-583,-76,621
,273,2023-10-27 11:22:40.74,160,-415,-2017,-8,23,4,-544,-447,-97,495
,274,2023-10-27 11:22:40.75,154,-414,-2017,-9,21,2,-666,-587,-79,626
,275,2023-10-27 11:22:40.76,156,-420,-2009,-6,15,3,-543,-446,-97,494
,276,2023-10-27 11:22:40.77,155,-421,-2005,-3,13,3,-667,-586,-81,626
,277,2023-10-27 11:22:40.78,151,-413,-2002,-5,12,2,-531,-437,-94,484
,278,2023-10-27 11:22:40.79,158,-416,-2005,-9,12,6,-667,-584,-83,625
,279,2023-10-27 11:22:40.80,151,-416,-2015,-12,14,8,-538,-442,-96,490
,280,2023-10-27 11:22:40.81,153,-422,-2012,-9,14,11,-679,-597,-82,638
,281,2023-10-27 11:22:40.82,156,-424,-2010,-6,15,14,-537,-445,-92,491
,282,2023-10-27 11:22:40.83,150,-423,-2010,-7,18,11,-678,-596,-82,637
,283,2023-10-27 11:22:40.84,153,-416,-2013,-8,26,14,-547,-457,-90,502
,284,2023-10-27 11:22:40.85,157,-414,-2014,-8,31,14,-682,-601,-81,641
,285,2023-10-27 11:22:40.86,157,-416,-2009,-6,33,13,-531,-444,-87,487
,286,2023-10-27 11:22:40.87,141,-432,-1993,9,14,18,-676,-590,-86,633
,287,2023-10-27 11:22:40.88,162,-429,-2014,29,-13,26,-528,-441,-87,484
,288,2023-10-27 11:22:40.89,173,-435,-2026,34,10,25,-675,-587,-88,631
,289,2023-10-27 11:22:40.90,151,-436,-2014,38,13,26,-514,-425,-89,469
,290,2023-10-27 11:22:40.91,176,-436,-2013,37,24,25,-667,-580,-87,623
,291,2023-10-27 11:22:40.92,145,-439,-2009,49,16,24,-514,-431,-83,472
,292,2023-10-27 11:22:40.93,177,-433,-2013,61,6,22,-676,-587,-89,631
,293,2023-10-27 11:22:40.94,160,-430,-2008,62,21,14,-522,-437,-85,479
,294,2023-10-27 11:22:40.95,158,-428,-2012,65,13,7,-684,-593,-91,638
,295,2023-10-27 11:22:40.96,172,-426,-2006,60,22,1,-521,-442,-79,481
,296,2023-10-27 11:22:40.97,158,-420,-1999,57,26,-6,-685,-600,-85,642
,297,2023-10-27 11:22:40.98,169,-430,-2005,52,35,-17,-524,-447,-77,485
,298,2023-10-27 11:22:40.99,160,-433,-2011,47,30,-21,-693,-602,-91,647
,299,2023-10-27 11:22:41.00,159,-416,-1999,46,23,-26,-528,-454,-74,491
,300,2023-10-27 11:22:41.01,167,-431,-2010,48,15,-28,-701,-608,-93,654
,301,2023-10-27 11:22:41.02,177,-420,-2014,46,5,-33,-532,-457,-75,494
,302,2023-10-27 11:22:41.03,174,-432,-2006,33,26,-40,-703,-615,-88,659
,303,2023-10-27 11:22:41.04,165,-434,-2020,23,22,-47,-532,-464,-68,498
,304,2023-10-27 11:22:41.05,173,-431,-2020,11,22,-47,-704,-616,-88,660
,305,2023-10-27 11:22:41.06,152,-445,-2016,6,15,-49,-531,-465,-66,498
,306,2023-10-27 11:22:41.07,180,-431,-2025,4,7,-48,-704,-614,-90,659
,307,2023-10-27 11:22:41.08,175,-430,-2025,-4,9,-50,-529,-464,-65,496
,308,2023-10-27 11:22:41.09,168,-432,-2021,-14,10,-48,-704,-613,-91,658
,309,2023-10-27 11:22:41.10,180,-426,-2021,-23,-4,-49,-529,-464,-65,496
,310,2023-10-27 11:22:41.11,177,-422,-2022,-26,-4,-46,-708,-614,-94,661
,311,2023-10-27 11:22:41.12,170,-430,-2025,-29,-6,-49,-536,-475,-61,505
,312,2023-10-27 11:22:41.13,167,-427,-2025,-32,-14,-47,-713,-625,-88,669
,313,2023-10-27 11:22:41.14,166,-419,-2032,-36,-21,-47,-538,-482,-56,510
,314,2023-10-27 11:22:41.15,169,-421,-2035,-35,-25,-43,-712,-624,-88,668
,315,2023-10-27 11:22:41.16,163,-423,-2033,-35,-30,-44,-535,-480,-55,507
,316,2023-10-27 11:22:41.17,173,-430,-2019,-32,-35,-41,-709,-619,-90,664
,317,2023-10-27 11:22:41.18,170,-417,-2019,-30,-33,-41,-530,-477,-53,503
,318,2023-10-27 11:22:41.19,175,-414,-2011,-30,-27,-46,-707,-613,-94,660
,319,2023-10-27 11:22:41.20,178,-407,-2005,-27,-23,-47,-538,-484,-54,511
,320,2023-10-27 11:22:41.21,166,-410,-2004,-25,-21,-52,-713,-619,-94,666
,321,2023-10-27 11:22:41.22,166,-411,-2010,-24,-14,-57,-540,-492,-48,516
,322,2023-10-27 11:22:41.23,169,-403,-2007,-23,-8,-62,-710,-613,-97,661
,323,2023-10-27 11:22:41.24,179,-404,-2015,-26,1,-65,-536,-482,-54,509
,324,2023-10-27 11:22:41.25,171,-406,-2006,-28,2,-68,-711,-613,-98,662
,325,2023-10-27 11:22:41.26,170,-406,-2006,-27,9,-71,-534,-481,-53,507
,326,2023-10-27 11:22:41.27,168,-411,-2019,-30,12,-73,-706,-607,-99,656
,327,2023-10-27 11:22:41.28,181,-415,-2012,-27,15,-71,-534,-482,-52,508
,328,2023-10-27 11:22:41.29,178,-415,-2010,-28,23,-71,-704,-603,-101,653
,329,2023-10-27 11:22:41.30,172,-421,-2025,-26,23,-71,-533,-480,-53,506
,330,2023-10-27 11:22:41.31,183,-419,-2020,-24,22,-68,-702,-598,-104,650
,331,2023-10-27 11:22:41.32,179,-419,-2011,-20,19,-65,-534,-478,-56,506
,332,2023-10-27 11:22:41.33,155,-412,-1997,0,-16,-55,-701,-591,-110,646
,333,2023-10-27 11:22:41.34,209,-413,-1993,-3,25,-53,-534,-477,-57,505
,334,2023-10-27 11:22:41.35,155,-424,-1986,-3,41,-57,-693,-583,-110,638
,335,2023-10-27 11:22:41.36,195,-442,-2006,10,11,-46,-528,-473,-55,500
,336,2023-10-27 11:22:41.37,205,-429,-1995,14,32,-44,-690,-580,-110,635
,337,2023-10-27 11:22:41.38,178,-433,-1990,24,43,-35,-521,-467,-54,494
,338,2023-10-27 11:22:41.39,185,-448,-2005,34,33,-28,-678,-567,-111,622
,339,2023-10-27 11:22:41.40,204,-439,-2015,38,45,-21,-521,-469,-52,495
,340,2023-10-27 11:22:41.41,191,-442,-2004,49,51,-14,-674,-563,-111,618
,341,2023-10-27 11:22:41.42,204,-429,-1998,62,46,-10,-518,-465,-53,491
,342,2023-10-27 11:22:41.43,196,-438,-1999,67,57,-13,-672,-556,-116,614
,343,2023-10-27 11:22:41.44,206,-439,-2011,72,65,-10,-519,-468,-51,493
,344,2023-10-27 11:22:41.45,197,-440,-2007,74,67,-7,-668,-554,-114,611
,345,2023-10-27 11:22:41.46,217,-447,-2009,76,69,-3,-518,-466,-52,492
,346,2023-10-27 11:22:41.47,206,-443,-1997,82,68,2,-665,-549,-116,607
,347,2023-10-27 11:22:41.48,194,-444,-1996,82,59,5,-522,-476,-46,499
,348,2023-10-27 11:22:41.49,207,-431,-2004,77,61,9,-666,-556,-110,611
,349,2023-10-27 11:22:41.50,210,-438,-2010,67,71,10,-529,-480,-49,504
,350,2023-10-27 11:22:41.51,200,-436,-2013,59,72,5,-666,-555,-111,610
,351,2023-10-27 11:22:41.52,213,-429,-2017,54,64,8,-533,-488,-45,510
,352,2023-10-27 11:22:41.53,200,-434,-2018,49,60,8,-667,-558,-109,612
,353,2023-10-27 11:22:41.54,199,-443,-2010,50,45,9,-542,-497,-45,519
,354,2023-10-27 11:22:41.55,188,-447,-2018,52,25,15,-675,-561,-114,618
,355,2023-10-27 11:22:41.56,198,-451,-2012,59,5,22,-553,-505,-48,529
,356,2023-10-27 11:22:41.57,175,-452,-2013,61,-10,24,-676,-559,-117,617
,357,2023-10-27 11:22:41.58,173,-450,-2022,63,-23,29,-557,-510,-47,533
,358,2023-10-27 11:22:41.59,188,-451,-2018,62,-32,34,-673,-560,-113,616
,359,2023-10-27 11:22:41.60,187,-458,-2020,60,-43,36,-554,-511,-43,532
,360,2023-10-27 11:22:41.61,191,-460,-2022,59,-47,39,-679,-569,-110,624
,361,2023-10-27 11:22:41.62,191,-454,-2021,54,-52,39,-575,-531,-44,553
,362,2023-10-27 11:22:41.63,211,-448,-2044,40,-38,34,-684,-573,-111,628
,363,2023-10-27 11:22:41.64,179,-457,-2025,13,-16,21,-571,-526,-45,548
,364,2023-10-27 11:22:41.65,164,-450,-2024,0,-16,19,-666,-554,-112,610
,365,2023-10-27 11:22:41.66,185,-462,-2030,4,-25,23,-562,-517,-45,539
,366,2023-10-27 11:22:41.67,186,-457,-2006,10,-34,23,-659,-544,-115,601
,367,2023-10-27 11:22:41.68,177,-461,-2006,15,-45,27,-573,-524,-49,548
,368,2023-10-27 11:22:41.69,177,-462,-2013,14,-54,28,-666,-553,-113,609
,369,2023-10-27 11:22:41.70,190,-446,-2011,4,-37,27,-576,-531,-45,553
,370,2023-10-27 11:22:41.71,170,-449,-1986,-12,-19,20,-656,-543,-113,599
,371,2023-10-27 11:22:41.72,184,-445,-2004,-17,-24,17,-579,-534,-45,556
,372,2023-10-27 11:22:41.73,170,-465,-2021,-23,-21,13,-654,-543,-111,598
,373,2023-10-27 11:22:41.74,195,-451,-2022,-26,-7,8,-588,-541,-47,564
,374,2023-10-27 11:22:41.75,150,-465,-2015,-27,-7,4,-659,-546,-113,602
,375,2023-10-27 11:22:41.76,178,-457,-2017,-22,-16,7,-601,-557,-44,579
,376,2023-10-27 11:22:41.77,192,-450,-1989,-25,-3,5,-657,-551,-106,604
,377,2023-10-27 11:22:41.78,181,-438,-1981,-34,15,-7,-600,-558,-42,579
,378,2023-10-27 11:22:41.79,181,-435,-1990,-47,29,-17,-651,-541,-110,596
,379,2023-10-27 11:22:41.80,168,-439,-1997,-53,39,-22,-601,-554,-47,577
,380,2023-10-27 11:22:41.81,173,-441,-1999,-53,43,-28,-641,-532,-109,586
,381,2023-10-27 11:22:41.82,193,-442,-2007,-55,46,-32,-604,-556,-48,580
,382,2023-10-27 11:22:41.83,191,-433,-1991,-65,54,-38,-639,-531,-108,585
,383,2023-10-27 11:22:41.84,202,-420,-1983,-77,68,-45,-605,-560,-45,582
,384,2023-10-27 11:22:41.85,210,-406,-1986,-91,85,-57,-636,-526,-110,581
,385,2023-10-27 11:22:41.86,199,-401,-1990,-101,95,-67,-612,-562,-50,587
,386,2023-10-27 11:22:41.87,201,-401,-1988,-108,100,-73,-624,-516,-108,570
,387,2023-10-27 11:22:41.88,201,-406,-1971,-108,89,-84,-602,-554,-48,578
,388,2023-10-27 11:22:41.89,180,-399,-1992,-85,47,-82,-616,-509,-107,562
,389,2023-10-27 11:22:41.90,224,-405,-2017,-75,28,-82,-606,-556,-50,581
,390,2023-10-27 11:22:41.91,228,-411,-2040,-82,49,-90,-614,-501,-113,557
,391,2023-10-27 11:22:41.92,195,-427,-2046,-98,78,-97,-615,-558,-57,586
,392,2023-10-27 11:22:41.93,190,-437,-2046,-111,82,-95,-615,-504,-111,559
,393,2023-10-27 11:22:41.94,201,-441,-2062,-105,59,-82,-616,-561,-55,588
,394,2023-10-27 11:22:41.95,207,-425,-2039,-92,29,-73,-604,-495,-109,549
,395,2023-10-27 11:22:41.96,202,-399,-2024,-81,8,-68,-616,-560,-56,588
,396,2023-10-27 11:22:41.97,220,-388,-2019,-84,6,-65,-601,-493,-108,547
,397,2023-10-27 11:22:41.98,214,-386,-2014,-96,13,-67,-626,-570,-56,598
,398,2023-10-27 11:22:41.99,219,-374,-2008,-100,2,-71,-611,-505,-106,558
,399,2023-10-27 11:22:42.00,254,-365,-2006,-103,14,-76,-640,-585,-55,612
,400,2023-10-27 11:22:42.01,229,-363,-1989,-116,43,-87,-602,-498,-104,550
,401,2023-10-27 11:22:42.02,226,-365,-1990,-119,36,-95,-638,-583,-55,610
,402,2023-10-27 11:22:42.03,236,-374,-2006,-128,44,-98,-592,-494,-98,543
,403,2023-10-27 11:22:42.04,212,-387,-2023,-125,43,-98,-636,-587,-49,611
,404,2023-10-27 11:22:42.05,217,-392,-2041,-112,22,-95,-583,-483,-100,533
,405,2023-10-27 11:22:42.06,249,-380,-2028,-108,20,-93,-632,-573,-59,602
,406,2023-10-27 11:22:42.07,229,-363,-2020,-106,16,-93,-575,-472,-103,523
,407,2023-10-27 11:22:42.08,242,-368,-2020,-107,12,-93,-631,-572,-59,601
,408,2023-10-27 11:22:42.09,238,-360,-2033,-111,17,-97,-572,-475,-97,523
,409,2023-10-27 11:22:42.10,226,-362,-2025,-109,9,-96,-650,-589,-61,619
,410,2023-10-27 11:22:42.11,255,-351,-2010,-109,1,-95,-581,-483,-98,532
,411,2023-10-27 11:22:42.12,245,-335,-2011,-109,-4,-95,-651,-592,-59,621
,412,2023-10-27 11:22:42.13,245,-343,-2018,-110,-4,-97,-575,-480,-95,527
,413,2023-10-27 11:22:42.14,247,-339,-2030,-116,5,-99,-650,-586,-64,618
,414,2023-10-27 11:22:42.15,247,-333,-2041,-110,-7,-98,-571,-476,-95,523
,415,2023-10-27 11:22:42.16,254,-331,-2028,-110,2,-101,-657,-592,-65,624
,416,2023-10-27 11:22:42.17,233,-331,-2031,-113,9,-104,-568,-473,-95,520
,417,2023-10-27 11:22:42.18,237,-346,-2033,-109,5,-105,-659,-593,-66,626
,418,2023-10-27 11:22:42.19,229,-347,-2043,-102,-4,-107,-562,-467,-95,514
,419,2023-10-27 11:22:42.20,226,-352,-2048,-90,-19,-101,-659,-588,-71,623
,420,2023-10-27 11:22:42.21,220,-348,-2038,-79,-32,-89,-554,-457,-97,505
,421,2023-10-27 11:22:42.22,217,-336,-2023,-72,-47,-83,-659,-586,-73,622
,422,2023-10-27 11:22:42.23,227,-333,-2017,-65,-52,-77,-552,-454,-98,503
,423,2023-10-27 11:22:42.24,247,-324,-2010,-63,-51,-71,-664,-589,-75,626
,424,2023-10-27 11:22:42.25,228,-321,-2006,-61,-56,-65,-551,-456,-95,503
,425,2023-10-27 11:22:42.26,228,-324,-2021,-57,-53,-63,-664,-590,-74,627
,426,2023-10-27 11:22:42.27,219,-333,-2030,-55,-49,-58,-547,-453,-94,500
,427,2023-10-27 11:22:42.28,214,-335,-2044,-53,-49,-52,-668,-593,-75,630
,428,2023-10-27 11:22:42.29,223,-326,-2041,-47,-54,-44,-544,-452,-92,498
,429,2023-10-27 11:22:42.30,224,-319,-2032,-44,-52,-36,-670,-592,-78,631
,430,2023-10-27 11:22:42.31,219,-319,-2012,-41,-47,-32,-541,-452,-89,496
,431,2023-10-27 11:22:42.32,223,-314,-2012,-40,-37,-27,-669,-593,-76,631
,432,2023-10-27 11:22:42.33,248,-334,-1956,-35,-31,-29,-535,-444,-91,489
,433,2023-10-27 11:22:42.34,217,-302,-2031,-29,6,-28,-671,-589,-82,630
,434,2023-10-27 11:22:42.35,205,-308,-2072,-38,-5,-22,-533,-442,-91,487
,435,2023-10-27 11:22:42.36,222,-337,-2038,-41,-11,-12,-673,-592,-81,632
,436,2023-10-27 11:22:42.37,223,-323,-2037,-28,1,-5,-527,-444,-83,485
,437,2023-10-27 11:22:42.38,218,-322,-2020,-26,5,0,-670,-591,-79,630
,438,2023-10-27 11:22:42.39,220,-313,-2022,-28,22,4,-523,-440,-83,481
,439,2023-10-27 11:22:42.40,226,-308,-2026,-30,30,6,-675,-592,-83,633
,440,2023-10-27 11:22:42.41,233,-298,-2026,-28,34,7,-520,-442,-78,481
,441,2023-10-27 11:22:42.42,229,-297,-2019,-24,33,8,-666,-587,-79,626
,442,2023-10-27 11:22:42.43,226,-311,-2029,-18,31,8,-518,-442,-76,480
,443,2023-10-27 11:22:42.44,219,-303,-2049,-15,26,11,-676,-597,-79,636
,444,2023-10-27 11:22:42.45,233,-300,-2043,-9,18,11,-524,-453,-71,488
,445,2023-10-27 11:22:42.46,211,-302,-2040,-4,15,14,-679,-596,-83,637
,446,2023-10-27 11:22:42.47,223,-296,-2032,0,11,13,-516,-440,-76,478
,447,2023-10-27 11:22:42.48,223,-294,-2036,4,9,12,-684,-601,-83,642
,448,2023-10-27 11:22:42.49,223,-299,-2037,9,5,9,-516,-444,-72,480
,449,2023-10-27 11:22:42.50,227,-297,-2035,15,-1,10,-684,-596,-88,640
,450,2023-10-27 11:22:42.51,216,-297,-2029,23,-6,9,-524,-449,-75,486
,451,2023-10-27 11:22:42.52,227,-300,-2030,27,-7,6,-693,-606,-87,649
,452,2023-10-27 11:22:42.53,226,-293,-2017,28,-6,6,-524,-454,-70,489
,453,2023-10-27 11:22:42.54,224,-289,-2023,28,-5,0,-695,-606,-89,650
,454,2023-10-27 11:22:42.55,228,-294,-2025,28,-9,0,-525,-454,-71,489
,455,2023-10-27 11:22:42.56,211,-298,-2031,33,-16,-1,-700,-606,-94,653
,456,2023-10-27 11:22:42.57,215,-305,-2033,37,-19,-2,-533,-458,-75,495
,457,2023-10-27 11:22:42.58,214,-307,-2043,42,-29,-2,-700,-606,-94,653
,458,2023-10-27 11:22:42.59,209,-312,-2040,47,-38,3,-518,-451,-67,484
,459,2023-10-27 11:22:42.60,211,-312,-2028,50,-42,4,-688,-596,-92,642
,460,2023-10-27 11:22:42.61,223,-312,-2028,52,-34,2,-514,-448,-66,481
,461,2023-10-27 11:22:42.62,247,-305,-2013,39,-7,-8,-694,-599,-95,646
,462,2023-10-27 11:22:42.63,168,-321,-2031,19,3,-13,-520,-453,-67,486
,463,2023-10-27 11:22:42.64,223,-320,-2034,21,-5,-9,-695,-597,-98,646
,464,2023-10-27 11:22:42.65,191,-330,-2049,34,-7,-9,-512,-445,-67,478
,465,2023-10-27 11:22:42.66,208,-329,-2035,45,-20,-6,-688,-593,-95,640
,466,2023-10-27 11:22:42.67,201,-320,-2034,43,-25,-2,-510,-443,-67,476
,467,2023-10-27 11:22:42.68,195,-314,-2031,31,-13,-5,-688,-587,-101,637
,468,2023-10-27 11:22:42.69,214,-315,-2017,27,-18,-4,-514,-450,-64,482
,469,2023-10-27 11:22:42.70,222,-300,-2016,25,-7,-7,-694,-596,-98,645
,470,2023-10-27 11:22:42.71,227,-291,-2029,11,0,-15,-518,-457,-61,487
,471,2023-10-27 11:22:42.72,227,-297,-2010,-9,8,-20,-698,-597,-101,647
,472,2023-10-27 11:22:42.73,238,-296,-2018,-16,25,-29,-527,-464,-63,495
,473,2023-10-27 11:22:42.74,219,-305,-2020,-22,31,-36,-702,-603,-99,652
,474,2023-10-27 11:22:42.75,243,-304,-2017,-26,32,-41,-526,-471,-55,498
,475,2023-10-27 11:22:42.76,232,-297,-2015,-27,32,-43,-706,-607,-99,656
,476,2023-10-27 11:22:42.77,229,-314,-2022,-21,28,-43,-534,-477,-57,505
,477,2023-10-27 11:22:42.78,219,-307,-2014,-13,19,-42,-703,-604,-99,653
,478,2023-10-27 11:22:42.79,236,-308,-2009,-3,11,-45,-521,-465,-56,493
,479,2023-10-27 11:22:42.80,240,-313,-2025,5,10,-44,-692,-590,-102,641
,480,2023-10-27 11:22:42.81,232,-328,-2026,9,2,-46,-520,-466,-54,493
,481,2023-10-27 11:22:42.82,237,-325,-2050,26,2,-44,-694,-589,-105,641
,482,2023-10-27 11:22:42.83,222,-317,-2045,37,-9,-46,-520,-464,-56,492
,483,2023-10-27 11:22:42.84,223,-329,-2029,40,-9,-45,-701,-598,-103,649
,484,2023-10-27 11:22:42.85,237,-322,-2043,37,0,-47,-539,-485,-54,512
,485,2023-10-27 11:22:42.86,228,-323,-2032,33,13,-50,-710,-610,-100,660
,486,2023-10-27 11:22:42.87,217,-333,-2027,33,12,-46,-535,-484,-51,509
,487,2023-10-27 11:22:42.88,212,-336,-2049,41,-12,-39,-697,-595,-102,646
,488,2023-10-27 11:22:42.89,228,-334,-2050,43,-7,-31,-537,-490,-47,513
,489,2023-10-27 11:22:42.90,217,-349,-2040,41,-17,-25,-700,-597,-103,648
,490,2023-10-27 11:22:42.91,219,-343,-2032,33,-12,-17,-538,-493,-45,515
,491,2023-10-27 11:22:42.92,218,-335,-2039,29,-16,-12,-692,-589,-103,640
,492,2023-10-27 11:22:42.93,216,-335,-2025,34,-18,-7,-529,-482,-47,505
,493,2023-10-27 11:22:42.94,224,-326,-2029,34,-26,1,-688,-582,-106,635
,494,2023-10-27 11:22:42.95,250,-313,-1967,33,-15,-3,-530,-485,-45,507
,495,2023-10-27 11:22:42.96,211,-313,-2041,19,20,-12,-685,-578,-107,631
,496,2023-10-27 11:22:42.97,215,-341,-2026,-3,10,-9,-534,-486,-48,510
,497,2023-10-27 11:22:42.98,211,-347,-2040,-10,9,-2,-685,-574,-111,629
,498,2023-10-27 11:22:42.99,218,-350,-2056,3,2,4,-536,-486,-50,511
,499,2023-10-27 11:22:43.00,221,-334,-2027,14,-11,7,-681,-569,-112,625
,500,2023-10-27 11:22:43.01,221,-329,-2023,8,8,7,-537,-487,-50,512
,501,2023-10-27 11:22:43.02,214,-343,-2019,4,5,6,-680,-567,-113,623
,502,2023-10-27 11:22:43.03,214,-337,-2033,5,1,8,-542,-491,-51,516
,503,2023-10-27 11:22:43.04,215,-331,-2044,11,-11,8,-681,-567,-114,624
,504,2023-10-27 11:22:43.05,208,-346,-2027,15,-22,9,-543,-496,-47,519
,505,2023-10-27 11:22:43.06,206,-339,-2022,15,-15,13,-676,-564,-112,620
,506,2023-10-27 11:22:43.07,199,-313,-2062,2,-12,14,-546,-499,-47,522
,507,2023-10-27 11:22:43.08,219,-314,-2037,-14,-25,16,-674,-563,-111,618
,508,2023-10-27 11:22:43.09,219,-296,-2020,-20,-28,11,-548,-503,-45,525
,509,2023-10-27 11:22:43.10,201,-305,-2032,-25,-31,5,-672,-559,-113,615
,510,2023-10-27 11:22:43.11,210,-317,-2030,-33,-40,5,-556,-508,-48,532
,511,2023-10-27 11:22:43.12,219,-324,-1996,-23,-42,1,-672,-560,-112,616
,512,2023-10-27 11:22:43.13,203,-307,-2041,-13,-42,0,-553,-512,-41,532
,513,2023-10-27 11:22:43.14,208,-317,-2042,-15,-53,1,-666,-557,-109,611
,514,2023-10-27 11:22:43.15,211,-309,-2029,-18,-56,1,-559,-516,-43,537
,515,2023-10-27 11:22:43.16,213,-314,-2039,-11,-52,2,-665,-558,-107,611
,516,2023-10-27 11:22:43.17,205,-311,-2100,-56,-3,-2,-563,-523,-40,543
,517,2023-10-27 11:22:43.18,191,-346,-1983,-74,-13,1,-663,-555,-108,609
,518,2023-10-27 11:22:43.19,179,-330,-2023,-50,-25,15,-568,-525,-43,546
,519,2023-10-27 11:22:43.20,210,-323,-2050,-28,-44,21,-663,-550,-113,606
,520,2023-10-27 11:22:43.21,199,-311,-2048,-33,-37,26,-574,-527,-47,550
,521,2023-10-27 11:22:43.22,183,-290,-2057,-62,-23,28,-659,-546,-113,602
,522,2023-10-27 11:22:43.23,214,-279,-2042,-93,5,27,-579,-532,-47,555
,523,2023-10-27 11:22:43.24,223,-229,-2012,-109,16,16,-656,-540,-116,598
,524,2023-10-27 11:22:43.25,234,-230,-1974,-125,22,3,-588,-540,-48,564
,525,2023-10-27 11:22:43.26,226,-216,-1975,-139,30,-15,-657,-546,-111,601
,526,2023-10-27 11:22:43.27,203,-239,-1989,-142,32,-29,-588,-549,-39,568
,527,2023-10-27 11:22:43.28,260,-262,-2018,-127,20,-33,-644,-532,-112,588
,528,2023-10-27 11:22:43.29,257,-255,-2009,-103,25,-48,-575,-522,-53,548
,529,2023-10-27 11:22:43.30,245,-259,-2012,-73,27,-59,-639,-518,-121,578
,530,2023-10-27 11:22:43.31,239,-281,-2025,-56,27,-72,-585,-533,-52,559
,531,2023-10-27 11:22:43.32,249,-286,-2047,-43,35,-81,-624,-514,-110,569
,532,2023-10-27 11:22:43.33,239,-290,-2025,-20,41,-85,-567,-519,-48,543
,533,2023-10-27 11:22:43.34,226,-278,-2016,16,21,-91,-614,-498,-116,556
,534,2023-10-27 11:22:43.35,233,-300,-2028,44,-12,-87,-579,-520,-59,549
,535,2023-10-27 11:22:43.36,232,-327,-2053,63,-27,-80,-626,-505,-121,565
,536,2023-10-27 11:22:43.37,218,-332,-2053,82,-36,-71,-596,-535,-61,565
,537,2023-10-27 11:22:43.38,213,-298,-2063,112,-55,-62,-614,-500,-114,557
,538,2023-10-27 11:22:43.39,258,-302,-2079,114,-51,-60,-582,-531,-51,556
,539,2023-10-27 11:22:43.40,243,-308,-2038,91,-28,-69,-619,-511,-108,565
,540,2023-10-27 11:22:43.41,214,-302,-2074,82,-35,-69,-611,-563,-48,587
,541,2023-10-27 11:22:43.42,201,-298,-2062,86,-68,-70,-637,-537,-100,587
,542,2023-10-27 11:22:43.43,204,-292,-2073,78,-75,-74,-634,-594,-40,614
,543,2023-10-27 11:22:43.44,204,-277,-2075,62,-85,-76,-651,-557,-94,604
,544,2023-10-27 11:22:43.45,185,-286,-2093,56,-105,-77,-649,-608,-41,628
,545,2023-10-27 11:22:43.46,202,-286,-2093,42,-94,-85,-651,-553,-98,602
,546,2023-10-27 11:22:43.47,194,-296,-2084,19,-85,-94,-653,-604,-49,628
,547,2023-10-27 11:22:43.48,192,-303,-2072,-7,-73,-97,-648,-547,-101,597
,548,2023-10-27 11:22:43.49,183,-311,-2080,-19,-66,-102,-659,-610,-49,634
,549,2023-10-27 11:22:43.50,181,-316,-2070,-20,-68,-103,-640,-539,-101,589
,550,2023-10-27 11:22:43.51,189,-327,-2050,-9,-70,-100,-651,-598,-53,624
,551,2023-10-27 11:22:43.52,191,-319,-2030,2,-72,-101,-623,-513,-110,568
,552,2023-10-27 11:22:43.53,186,-291,-2013,-3,-61,-102,-639,-574,-65,606
,553,2023-10-27 11:22:43.54,183,-284,-1988,-7,-39,-108,-594,-477,-117,535
,554,2023-10-27 11:22:43.55,170,-251,-2070,-25,-12,-105,-616,-546,-70,581
,555,2023-10-27 11:22:43.56,203,-302,-2026,-49,-29,-105,-572,-448,-124,510
,556,2023-10-27 11:22:43.57,224,-311,-1959,-48,-11,-108,-613,-525,-88,569
,557,2023-10-27 11:22:43.58,170,-307,-1863,-16,-7,-117,-551,-415,-136,483
,558,2023-10-27 11:22:43.59,154,-284,-1951,57,-59,-103,-595,-504,-91,549
,559,2023-10-27 11:22:43.60,230,-305,-2021,68,-69,-94,-534,-397,-137,465
,560,2023-10-27 11:22:43.61,197,-274,-1969,52,-16,-101,-595,-502,-93,548
,561,2023-10-27 11:22:43.62,163,-261,-2001,58,-15,-104,-522,-393,-129,457
,562,2023-10-27 11:22:43.63,189,-258,-2010,46,-43,-101,-590,-505,-85,547
,563,2023-10-27 11:22:43.64,200,-236,-2013,21,-19,-111,-524,-408,-116,466
,564,2023-10-27 11:22:43.65,187,-236,-2036,-2,2,-124,-611,-536,-75,573
,565,2023-10-27 11:22:43.66,159,-251,-2094,-14,-21,-126,-543,-438,-105,490
,566,2023-10-27 11:22:43.67,185,-263,-2087,-26,-43,-132,-628,-559,-69,593
,567,2023-10-27 11:22:43.68,183,-260,-2101,-31,-51,-133,-544,-447,-97,495
,568,2023-10-27 11:22:43.69,169,-283,-2090,-38,-54,-141,-633,-564,-69,598
,569,2023-10-27 11:22:43.70,157,-274,-2110,-42,-79,-143,-539,-437,-102,488
,570,2023-10-27 11:22:43.71,179,-271,-2096,-39,-93,-146,-632,-557,-75,594
,571,2023-10-27 11:22:43.72,172,-276,-2103,-35,-95,-150,-540,-436,-104,488
,572,2023-10-27 11:22:43.73,158,-296,-2105,-36,-92,-154,-645,-571,-74,608
,573,2023-10-27 11:22:43.74,154,-312,-2068,-40,-78,-154,-555,-460,-95,507
,574,2023-10-27 11:22:43.75,168,-323,-2071,-35,-73,-146,-652,-580,-72,616
,575,2023-10-27 11:22:43.76,155,-347,-2057,-20,-63,-140,-526,-435,-91,480
,576,2023-10-27 11:22:43.77,186,-350,-2029,-10,-38,-132,-626,-556,-70,591
,577,2023-10-27 11:22:43.78,180,-343,-2039,1,-5,-123,-516,-428,-88,472
,578,2023-10-27 11:22:43.79,195,-322,-2036,17,4,-117,-642,-576,-66,609
,579,2023-10-27 11:22:43.80,188,-343,-2029,31,31,-117,-528,-438,-90,483
,580,2023-10-27 11:22:43.81,178,-352,-2072,46,38,-111,-647,-572,-75,609
,581,2023-10-27 11:22:43.82,189,-346,-2076,47,64,-102,-531,-442,-89,486
,582,2023-10-27 11:22:43.83,179,-338,-2042,45,104,-91,-659,-590,-69,624
,583,2023-10-27 11:22:43.84,160,-365,-2063,54,87,-80,-521,-440,-81,480
,584,2023-10-27 11:22:43.85,189,-346,-2122,61,48,-60,-650,-577,-73,613
,585,2023-10-27 11:22:43.86,179,-332,-2086,49,94,-58,-519,-442,-77,480
,586,2023-10-27 11:22:43.87,150,-316,-2113,50,93,-51,-653,-596,-57,624
,587,2023-10-27 11:22:43.88,154,-353,-2096,45,61,-35,-516,-467,-49,491
,588,2023-10-27 11:22:43.89,168,-366,-2066,48,40,-19,-690,-658,-32,674
,589,2023-10-27 11:22:43.90,158,-372,-2043,57,23,-7,-596,-565,-31,580
,590,2023-10-27 11:22:43.91,144,-355,-2050,65,-8,8,-759,-722,-37,740
,591,2023-10-27 11:22:43.92,159,-336,-2011,55,0,13,-633,-591,-42,612
,592,2023-10-27 11:22:43.93,139,-344,-2008,48,15,19,-769,-724,-45,746
,593,2023-10-27 11:22:43.94,151,-356,-1983,46,-3,26,-609,-564,-45,586
,594,2023-10-27 11:22:43.95,135,-339,-1950,44,-6,31,-748,-697,-51,722
,595,2023-10-27 11:22:43.96,136,-301,-1930,43,-21,32,-604,-556,-48,580
,596,2023-10-27 11:22:43.97,148,-303,-1917,32,-17,31,-750,-696,-54,723
,597,2023-10-27 11:22:43.98,130,-309,-1916,12,-5,25,-582,-532,-50,557
,598,2023-10-27 11:22:43.99,132,-307,-1893,-6,-9,24,-729,-669,-60,699
,599,2023-10-27 11:22:44.00,148,-314,-1878,-14,-5,23,-565,-511,-54,538
,600,2023-10-27 11:22:44.01,130,-321,-1865,-17,-9,20,-715,-646,-69,680
,601,2023-10-27 11:22:44.02,135,-321,-1871,-14,-15,19,-528,-467,-61,497
,602,2023-10-27 11:22:44.03,148,-327,-1888,-15,-14,20,-676,-589,-87,632
,603,2023-10-27 11:22:44.04,146,-317,-1908,-8,-28,19,-472,-397,-75,434
,604,2023-10-27 11:22:44.05,120,-304,-1953,7,-53,18,-616,-516,-100,566
,605,2023-10-27 11:22:44.06,130,-309,-1955,15,-75,22,-420,-339,-81,379
,606,2023-10-27 11:22:44.07,129,-317,-1987,21,-85,28,-594,-492,-102,543
,607,2023-10-27 11:22:44.08,197,-342,-1941,19,-92,21,-400,-325,-75,362
,608,2023-10-27 11:22:44.09,214,-241,-1975,-1,-31,3,-569,-474,-95,521
,609,2023-10-27 11:22:44.10,157,-228,-2045,-37,-2,-15,-392,-322,-70,357
,610,2023-10-27 11:22:44.11,233,-270,-2078,-74,28,-29,-582,-495,-87,538
,611,2023-10-27 11:22:44.12,214,-267,-2154,-104,79,-55,-409,-352,-57,380
,612,2023-10-27 11:22:44.13,198,-303,-2157,-125,84,-65,-597,-512,-85,554
,613,2023-10-27 11:22:44.14,245,-323,-2090,-127,106,-69,-426,-371,-55,398
,614,2023-10-27 11:22:44.15,239,-304,-2067,-114,121,-79,-628,-543,-85,585
,615,2023-10-27 11:22:44.16,281,-302,-2086,-93,124,-79,-438,-381,-57,409
,616,2023-10-27 11:22:44.17,263,-290,-2107,-99,178,-97,-625,-537,-88,581
,617,2023-10-27 11:22:44.18,250,-291,-2107,-112,212,-104,-448,-392,-56,420
,618,2023-10-27 11:22:44.19,264,-282,-2079,-122,234,-104,-645,-554,-91,599
,619,2023-10-27 11:22:44.20,266,-272,-2064,-122,242,-101,-469,-408,-61,438
,620,2023-10-27 11:22:44.21,283,-264,-2045,-126,248,-100,-652,-557,-95,604
,621,2023-10-27 11:22:44.22,256,-247,-2007,-136,251,-95,-470,-415,-55,442
,622,2023-10-27 11:22:44.23,213,-242,-2050,-150,236,-77,-661,-567,-94,614
,623,2023-10-27 11:22:44.24,247,-256,-1984,-141,156,-60,-481,-424,-57,452
,624,2023-10-27 11:22:44.25,287,-227,-1956,-116,135,-48,-660,-563,-97,611
,625,2023-10-27 11:22:44.26,252,-211,-1961,-104,133,-48,-468,-409,-59,438
,626,2023-10-27 11:22:44.27,256,-204,-1968,-111,101,-40,-652,-543,-109,597
,627,2023-10-27 11:22:44.28,250,-209,-1978,-111,64,-31,-479,-413,-66,446
,628,2023-10-27 11:22:44.29,277,-199,-2018,-107,40,-24,-653,-547,-106,600
,629,2023-10-27 11:22:44.30,295,-203,-2037,-116,44,-21,-471,-415,-56,443
,630,2023-10-27 11:22:44.31,242,-194,-2052,-135,30,-17,-653,-547,-106,600
,631,2023-10-27 11:22:44.32,271,-167,-2023,-141,-20,-8,-472,-416,-56,444
,632,2023-10-27 11:22:44.33,247,-176,-2062,-134,-49,-6,-650,-545,-105,597
,633,2023-10-27 11:22:44.34,239,-209,-2106,-128,-89,3,-469,-414,-55,441
,634,2023-10-27 11:22:44.35,220,-203,-2131,-120,-131,16,-644,-534,-110,589
,635,2023-10-27 11:22:44.36,234,-180,-2113,-112,-165,28,-470,-409,-61,439
,636,2023-10-27 11:22:44.37,317,-193,-2096,-111,-171,31,-646,-532,-114,589
,637,2023-10-27 11:22:44.38,285,-114,-2132,-165,-73,1,-477,-416,-61,446
,638,2023-10-27 11:22:44.39,185,-168,-2077,-208,-87,-14,-651,-541,-110,596
,639,2023-10-27 11:22:44.40,253,-199,-2083,-203,-83,-9,-482,-427,-55,454
,640,2023-10-27 11:22:44.41,227,-173,-2099,-156,-100,-16,-651,-540,-111,595
,641,2023-10-27 11:22:44.42,229,-186,-2100,-106,-142,-12,-481,-424,-57,452
,642,2023-10-27 11:22:44.43,243,-174,-2057,-90,-140,-20,-647,-536,-111,591
,643,2023-10-27 11:22:44.44,236,-151,-2053,-88,-110,-32,-486,-430,-56,458
,644,2023-10-27 11:22:44.45,218,-160,-2069,-85,-90,-46,-657,-544,-113,600
,645,2023-10-27 11:22:44.46,215,-162,-2079,-66,-89,-52,-500,-445,-55,472
,646,2023-10-27 11:22:44.47,198,-160,-2068,-50,-99,-52,-661,-546,-115,603
,647,2023-10-27 11:22:44.48,194,-172,-2059,-39,-104,-54,-504,-448,-56,476
,648,2023-10-27 11:22:44.49,185,-161,-2028,-45,-95,-55,-663,-547,-116,605
,649,2023-10-27 11:22:44.50,209,-153,-2003,-43,-95,-56,-508,-455,-53,481
,650,2023-10-27 11:22:44.51,204,-148,-2006,-43,-79,-65,-668,-556,-112,612
,651,2023-10-27 11:22:44.52,194,-158,-2025,-46,-62,-71,-519,-469,-50,494
,652,2023-10-27 11:22:44.53,184,-171,-2034,-49,-53,-77,-674,-564,-110,619
,653,2023-10-27 11:22:44.54,174,-183,-2067,-38,-67,-73,-518,-472,-46,495
,654,2023-10-27 11:22:44.55,187,-172,-2050,-22,-69,-70,-663,-561,-102,612
,655,2023-10-27 11:22:44.56,178,-183,-2028,0,-85,-66,-523,-490,-33,506
,656,2023-10-27 11:22:44.57,190,-195,-2026,3,-71,-64,-667,-576,-91,621
,657,2023-10-27 11:22:44.58,179,-217,-2020,12,-62,-65,-530,-499,-31,514
,658,2023-10-27 11:22:44.59,207,-224,-2001,38,-53,-65,-667,-569,-98,618
,659,2023-10-27 11:22:44.60,187,-199,-2040,69,-44,-66,-528,-488,-40,508
,660,2023-10-27 11:22:44.61,166,-214,-2059,94,-60,-61,-660,-553,-107,606
,661,2023-10-27 11:22:44.62,180,-201,-2088,94,-42,-54,-531,-486,-45,508
,662,2023-10-27 11:22:44.63,168,-193,-2098,87,-38,-54,-657,-554,-103,605
,663,2023-10-27 11:22:44.64,192,-219,-2028,75,-30,-49,-536,-498,-38,517
,664,2023-10-27 11:22:44.65,167,-218,-2007,81,-30,-45,-660,-559,-101,609
,665,2023-10-27 11:22:44.66,205,-201,-2023,83,-30,-40,-546,-512,-34,529
,666,2023-10-27 11:22:44.67,163,-202,-2035,74,-13,-41,-665,-563,-102,614
,667,2023-10-27 11:22:44.68,179,-176,-2026,57,-9,-41,-554,-517,-37,535
,668,2023-10-27 11:22:44.69,178,-172,-2027,49,-12,-44,-666,-561,-105,613
,669,2023-10-27 11:22:44.70,183,-179,-2035,37,-19,-44,-559,-520,-39,539
,670,2023-10-27 11:22:44.71,198,-177,-2029,25,-23,-45,-660,-558,-102,609
,671,2023-10-27 11:22:44.72,178,-183,-2039,17,-25,-48,-561,-522,-39,541
,672,2023-10-27 11:22:44.73,162,-176,-2060,6,-34,-50,-654,-549,-105,601
,673,2023-10-27 11:22:44.74,166,-186,-2069,1,-53,-43,-557,-516,-41,536
,674,2023-10-27 11:22:44.75,165,-191,-2069,6,-73,-36,-649,-541,-108,595
,675,2023-10-27 11:22:44.76,168,-202,-2055,11,-90,-30,-564,-520,-44,542
,676,2023-10-27 11:22:44.77,190,-226,-2013,23,-86,-31,-650,-542,-108,596
,677,2023-10-27 11:22:44.78,157,-174,-2098,24,-71,-29,-569,-525,-44,547
,678,2023-10-27 11:22:44.79,154,-176,-2131,-23,-37,-28,-645,-539,-106,592
,679,2023-10-27 11:22:44.80,152,-228,-2036,-26,-64,-21,-569,-526,-43,547
,680,2023-10-27 11:22:44.81,147,-205,-2057,-16,-44,-15,-642,-533,-109,587
,681,2023-10-27 11:22:44.82,143,-231,-2042,9,-77,-6,-575,-527,-48,551
,682,2023-10-27 11:22:44.83,185,-210,-2040,19,-70,3,-638,-526,-112,582
,683,2023-10-27 11:22:44.84,155,-198,-2034,24,-56,5,-580,-532,-48,556
,684,2023-10-27 11:22:44.85,166,-200,-2020,27,-44,6,-634,-528,-106,581
,685,2023-10-27 11:22:44.86,164,-217,-2035,28,-24,9,-582,-536,-46,559
,686,2023-10-27 11:22:44.87,159,-218,-2040,41,-22,13,-630,-525,-105,577
,687,2023-10-27 11:22:44.88,185,-213,-2029,46,-8,17,-583,-540,-43,561
,688,2023-10-27 11:22:44.89,170,-209,-2023,48,7,15,-632,-528,-104,580
,689,2023-10-27 11:22:44.90,159,-205,-2035,49,18,18,-597,-551,-46,574
,690,2023-10-27 11:22:44.91,148,-220,-2044,49,22,19,-630,-533,-97,581
,691,2023-10-27 11:22:44.92,145,-222,-2051,60,21,22,-601,-556,-45,578
,692,2023-10-27 11:22:44.93,152,-224,-2059,66,13,26,-624,-521,-103,572
,693,2023-10-27 11:22:44.94,152,-214,-2044,69,7,32,-605,-557,-48,581
,694,2023-10-27 11:22:44.95,164,-215,-2043,66,6,33,-618,-507,-111,562
,695,2023-10-27 11:22:44.96,159,-212,-2042,65,12,33,-592,-534,-58,563
,696,2023-10-27 11:22:44.97,161,-219,-2037,60,16,31,-581,-471,-110,526
,697,2023-10-27 11:22:44.98,168,-215,-2034,57,19,29,-576,-520,-56,548
,698,2023-10-27 11:22:44.99,177,-215,-2031,56,26,26,-581,-477,-104,529
,699,2023-10-27 11:22:45.00,174,-208,-2034,52,34,19,-598,-552,-46,575
,700,2023-10-27 11:22:45.01,171,-210,-2034,44,38,18,-602,-505,-97,553
,701,2023-10-27 11:22:45.02,170,-214,-2040,40,43,14,-618,-570,-48,594
,702,2023-10-27 11:22:45.03,169,-221,-2045,40,44,13,-607,-508,-99,557
,703,2023-10-27 11:22:45.04,158,-217,-2051,40,39,15,-624,-570,-54,597
,704,2023-10-27 11:22:45.05,165,-216,-2061,37,32,16,-606,-496,-110,551
,705,2023-10-27 11:22:45.06,153,-222,-2058,37,20,17,-628,-561,-67,594
,706,2023-10-27 11:22:45.07,168,-215,-2054,40,8,17,-593,-480,-113,536
,707,2023-10-27 11:22:45.08,174,-220,-2057,42,0,18,-622,-556,-66,589
,708,2023-10-27 11:22:45.09,181,-214,-2052,41,-7,16,-582,-469,-113,525
,709,2023-10-27 11:22:45.10,177,-207,-2047,37,-11,11,-618,-547,-71,582
,710,2023-10-27 11:22:45.11,175,-213,-2042,32,-9,9,-571,-458,-113,514
,711,2023-10-27 11:22:45.12,173,-211,-2050,29,-6,4,-618,-548,-70,583
,712,2023-10-27 11:22:45.13,176,-214,-2047,26,-1,5,-560,-448,-112,504
,713,2023-10-27 11:22:45.14,176,-211,-2040,24,-1,0,-605,-531,-74,568
,714,2023-10-27 11:22:45.15,178,-211,-2047,19,1,-3,-536,-425,-111,480
,715,2023-10-27 11:22:45.16,178,-210,-2048,14,1,-6,-602,-535,-67,568
,716,2023-10-27 11:22:45.17,178,-210,-2053,14,-5,-11,-544,-442,-102,493
,717,2023-10-27 11:22:45.18,170,-205,-2050,12,-8,-7,-621,-556,-65,588
,718,2023-10-27 11:22:45.19,169,-214,-2057,12,-14,-5,-552,-453,-99,502
,719,2023-10-27 11:22:45.20,170,-214,-2054,11,-27,-5,-627,-565,-62,596
,720,2023-10-27 11:22:45.21,165,-211,-2054,12,-38,2,-550,-454,-96,502
,721,2023-10-27 11:22:45.22,170,-218,-2050,15,-49,9,-635,-571,-64,603
,722,2023-10-27 11:22:45.23,164,-230,-2041,15,-53,17,-552,-458,-94,505
,723,2023-10-27 11:22:45.24,177,-217,-2049,8,-46,22,-640,-579,-61,609
,724,2023-10-27 11:22:45.25,171,-220,-2015,-32,25,8,-550,-460,-90,505
,725,2023-10-27 11:22:45.26,119,-243,-2045,-22,-22,26,-648,-580,-68,614
,726,2023-10-27 11:22:45.27,176,-247,-2061,-11,-23,37,-550,-459,-91,504
,727,2023-10-27 11:22:45.28,165,-224,-2035,7,-27,48,-652,-588,-64,620
,728,2023-10-27 11:22:45.29,174,-234,-2038,7,-14,52,-555,-464,-91,509
,729,2023-10-27 11:22:45.30,145,-231,-2004,-10,15,50,-674,-612,-62,643
,730,2023-10-27 11:22:45.31,150,-229,-2039,-2,9,59,-571,-493,-78,532
,731,2023-10-27 11:22:45.32,150,-244,-2045,14,3,64,-679,-624,-55,651
,732,2023-10-27 11:22:45.33,166,-231,-2037,32,2,70,-565,-491,-74,528
,733,2023-10-27 11:22:45.34,151,-245,-2033,34,12,70,-686,-628,-58,657
,734,2023-10-27 11:22:45.35,169,-242,-2033,26,27,72,-573,-499,-74,536
,735,2023-10-27 11:22:45.36,160,-226,-2042,29,35,70,-691,-630,-61,660
,736,2023-10-27 11:22:45.37,157,-220,-2054,36,38,65,-564,-488,-76,526
,737,2023-10-27 11:22:45.38,170,-210,-2058,40,36,60,-689,-625,-64,657
,738,2023-10-27 11:22:45.39,171,-218,-2062,42,34,51,-562,-486,-76,524
,739,2023-10-27 11:22:45.40,161,-214,-2064,36,31,39,-693,-626,-67,659
,740,2023-10-27 11:22:45.41,169,-227,-2063,43,29,35,-560,-483,-77,521
,741,2023-10-27 11:22:45.42,175,-228,-2060,45,29,28,-694,-626,-68,660
,742,2023-10-27 11:22:45.43,174,-233,-2039,39,32,21,-552,-478,-74,515
,743,2023-10-27 11:22:45.44,177,-237,-2047,33,36,13,-691,-620,-71,655
,744,2023-10-27 11:22:45.45,167,-226,-2044,26,43,12,-549,-472,-77,510
,745,2023-10-27 11:22:45.46,177,-217,-2053,26,38,4,-692,-621,-71,656
,746,2023-10-27 11:22:45.47,161,-208,-2063,22,15,9,-543,-474,-69,508
,747,2023-10-27 11:22:45.48,169,-241,-2009,24,-2,8,-699,-624,-75,661
,748,2023-10-27 11:22:45.49,149,-226,-2045,23,-12,6,-545,-475,-70,510
,749,2023-10-27 11:22:45.50,165,-232,-2044,15,-24,14,-694,-625,-69,659
,750,2023-10-27 11:22:45.51,156,-229,-2045,20,-36,20,-543,-473,-70,508
,751,2023-10-27 11:22:45.52,160,-232,-2038,18,-48,27,-700,-625,-75,662
,752,2023-10-27 11:22:45.53,155,-248,-2034,14,-43,34,-538,-473,-65,505
,753,2023-10-27 11:22:45.54,170,-232,-2037,6,-39,41,-703,-630,-73,666
,754,2023-10-27 11:22:45.55,177,-238,-2039,6,-32,44,-544,-483,-61,513
,755,2023-10-27 11:22:45.56,167,-227,-2035,3,-28,46,-707,-645,-62,676
,756,2023-10-27 11:22:45.57,162,-234,-2037,2,-18,45,-545,-500,-45,522
,757,2023-10-27 11:22:45.58,166,-228,-2036,-4,-8,45,-711,-652,-59,681
,758,2023-10-27 11:22:45.59,170,-232,-2047,-9,5,43,-546,-497,-49,521
,759,2023-10-27 11:22:45.60,169,-231,-2057,-13,7,44,-712,-641,-71,676
,760,2023-10-27 11:22:45.61,174,-225,-2060,-17,10,46,-544,-486,-58,515
,761,2023-10-27 11:22:45.62,157,-209,-2054,-20,6,42,-716,-644,-72,680
,762,2023-10-27 11:22:45.63,170,-214,-2043,-19,4,37,-553,-501,-52,527
,763,2023-10-27 11:22:45.64,161,-219,-2054,-13,-3,32,-724,-651,-73,687
,764,2023-10-27 11:22:45.65,171,-208,-2062,-6,-15,29,-540,-491,-49,515
,765,2023-10-27 11:22:45.66,169,-212,-2052,4,-38,23,-707,-632,-75,669
,766,2023-10-27 11:22:45.67,164,-208,-2054,14,-50,23,-532,-478,-54,505
,767,2023-10-27 11:22:45.68,155,-207,-2041,25,-66,17,-709,-630,-79,669
,768,2023-10-27 11:22:45.69,162,-229,-2048,34,-69,16,-531,-479,-52,505
,769,2023-10-27 11:22:45.70,156,-242,-2060,44,-79,19,-709,-624,-85,666
,770,2023-10-27 11:22:45.71,185,-229,-2086,47,-69,21,-536,-482,-54,509
,771,2023-10-27 11:22:45.72,144,-243,-2029,19,-17,7,-712,-632,-80,672
,772,2023-10-27 11:22:45.73,117,-255,-2031,19,-35,18,-528,-484,-44,506
,773,2023-10-27 11:22:45.74,149,-277,-2044,28,-39,32,-705,-626,-79,665
,774,2023-10-27 11:22:45.75,128,-269,-2037,43,-43,49,-525,-477,-48,501
,775,2023-10-27 11:22:45.76,153,-275,-2033,48,-41,63,-705,-620,-85,662
,776,2023-10-27 11:22:45.77,163,-267,-2021,30,-4,72,-528,-477,-51,502
,777,2023-10-27 11:22:45.78,162,-253,-2011,3,37,73,-710,-621,-89,665
,778,2023-10-27 11:22:45.79,167,-236,-2007,-16,69,72,-539,-492,-47,515
,779,2023-10-27 11:22:45.80,118,-198,-2112,-34,92,74,-710,-622,-88,666
,780,2023-10-27 11:22:45.81,139,-237,-2116,-72,62,86,-530,-484,-46,507
,781,2023-10-27 11:22:45.82,179,-237,-2018,-87,42,92,-707,-618,-89,662
,782,2023-10-27 11:22:45.83,169,-210,-1985,-62,58,84,-534,-490,-44,512
,783,2023-10-27 11:22:45.84,156,-213,-2019,-52,62,79,-711,-624,-87,667
,784,2023-10-27 11:22:45.85,137,-216,-2054,-66,54,79,-538,-497,-41,517
,785,2023-10-27 11:22:45.86,188,-215,-2025,-69,45,82,-714,-621,-93,667
,786,2023-10-27 11:22:45.87,174,-227,-2041,-56,40,79,-531,-484,-47,507
,787,2023-10-27 11:22:45.88,155,-232,-2055,-48,29,76,-700,-611,-89,655
,788,2023-10-27 11:22:45.89,165,-213,-2059,-56,16,74,-529,-489,-40,509
,789,2023-10-27 11:22:45.90,193,-198,-2013,-52,15,72,-711,-617,-94,664
,790,2023-10-27 11:22:45.91,194,-163,-2033,-37,25,59,-542,-498,-44,520
,791,2023-10-27 11:22:45.92,161,-156,-2068,-42,13,45,-707,-613,-94,660
,792,2023-10-27 11:22:45.93,150,-160,-2063,-46,-13,38,-530,-487,-43,508
,793,2023-10-27 11:22:45.94,171,-160,-2080,-31,-45,34,-702,-604,-98,653
,794,2023-10-27 11:22:45.95,183,-157,-2094,-35,-48,27,-541,-495,-46,518
,795,2023-10-27 11:22:45.96,155,-172,-2056,-54,-54,12,-708,-604,-104,656
,796,2023-10-27 11:22:45.97,163,-184,-2062,-63,-63,11,-539,-489,-50,514
,797,2023-10-27 11:22:45.98,153,-190,-2080,-47,-92,12,-697,-592,-105,644
,798,2023-10-27 11:22:45.99,180,-182,-2066,-26,-108,8,-531,-483,-48,507
,799,2023-10-27 11:22:46.00,144,-179,-2050,-15,-113,3,-691,-585,-106,638
,800,2023-10-27 11:22:46.01,153,-181,-2047,-14,-110,1,-538,-488,-50,513
,801,2023-10-27 11:22:46.02,153,-199,-2052,-11,-109,3,-696,-589,-107,642
,802,2023-10-27 11:22:46.03,151,-196,-2052,4,-111,4,-540,-493,-47,516
,803,2023-10-27 11:22:46.04,154,-192,-2039,17,-105,0,-689,-580,-109,634
,804,2023-10-27 11:22:46.05,144,-193,-2032,23,-96,-4,-531,-480,-51,505
,805,2023-10-27 11:22:46.06,121,-195,-2034,24,-86,-5,-686,-569,-117,627
,806,2023-10-27 11:22:46.07,137,-202,-2051,32,-84,-5,-542,-486,-56,514
,807,2023-10-27 11:22:46.08,119,-204,-2054,43,-90,-3,-686,-572,-114,629
,808,2023-10-27 11:22:46.09,112,-205,-2050,56,-100,3,-543,-493,-50,518
,809,2023-10-27 11:22:46.10,133,-231,-2016,65,-112,9,-680,-573,-107,626
,810,2023-10-27 11:22:46.11,120,-206,-2017,72,-103,7,-543,-500,-43,521
,811,2023-10-27 11:22:46.12,122,-180,-2029,79,-103,1,-680,-581,-99,630
,812,2023-10-27 11:22:46.13,129,-189,-2046,82,-98,-4,-548,-520,-28,534
,813,2023-10-27 11:22:46.14,127,-219,-2033,93,-100,-13,-677,-586,-91,631
,814,2023-10-27 11:22:46.15,118,-213,-2039,109,-99,-18,-549,-521,-28,535
,815,2023-10-27 11:22:46.16,99,-223,-2042,124,-96,-24,-672,-576,-96,624
,816,2023-10-27 11:22:46.17,89,-250,-2055,137,-102,-17,-551,-516,-35,533
,817,2023-10-27 11:22:46.18,99,-260,-2055,149,-105,-10,-667,-568,-99,617
,818,2023-10-27 11:22:46.19,109,-254,-2071,158,-95,-6,-548,-517,-31,532
,819,2023-10-27 11:22:46.20,97,-266,-2073,156,-87,-2,-672,-568,-104,620
,820,2023-10-27 11:22:46.21,91,-274,-2044,152,-87,4,-559,-518,-41,538
,821,2023-10-27 11:22:46.22,68,-289,-2031,150,-81,16,-666,-560,-106,613
,822,2023-10-27 11:22:46.23,88,-298,-2026,152,-74,24,-559,-525,-34,542
,823,2023-10-27 11:22:46.24,72,-292,-2002,161,-67,32,-661,-554,-107,607
,824,2023-10-27 11:22:46.25,89,-286,-2028,166,-58,45,-565,-523,-42,544
,825,2023-10-27 11:22:46.26,87,-267,-2057,151,-41,51,-663,-555,-108,609
,826,2023-10-27 11:22:46.27,112,-268,-2082,102,1,49,-571,-530,-41,550
,827,2023-10-27 11:22:46.28,61,-301,-2004,77,2,50,-660,-553,-107,606
,828,2023-10-27 11:22:46.29,83,-275,-2040,75,9,58,-572,-536,-36,554
,829,2023-10-27 11:22:46.30,27,-291,-2031,80,-30,62,-657,-549,-108,603
,830,2023-10-27 11:22:46.31,78,-269,-2054,88,-60,75,-579,-535,-44,557
,831,2023-10-27 11:22:46.32,97,-266,-2059,73,-43,70,-655,-547,-108,601
,832,2023-10-27 11:22:46.33,47,-269,-2048,51,-38,62,-582,-537,-45,559
,833,2023-10-27 11:22:46.34,92,-269,-2066,29,-29,65,-656,-539,-117,597
,834,2023-10-27 11:22:46.35,57,-277,-2044,5,-3,55,-590,-543,-47,566
,835,2023-10-27 11:22:46.36,67,-270,-2045,5,-37,59,-655,-542,-113,598
,836,2023-10-27 11:22:46.37,85,-273,-2046,18,-55,58,-597,-548,-49,572
,837,2023-10-27 11:22:46.38,62,-276,-2030,17,-39,50,-656,-536,-120,596
,838,2023-10-27 11:22:46.39,65,-268,-2031,17,-47,44,-598,-542,-56,570
,839,2023-10-27 11:22:46.40,107,-253,-2045,-4,-9,39,-645,-524,-121,584
,840,2023-10-27 11:22:46.41,29,-273,-2034,-18,6,22,-601,-542,-59,571
,841,2023-10-27 11:22:46.42,81,-264,-2054,-6,-24,29,-645,-520,-125,582
,842,2023-10-27 11:22:46.43,66,-281,-2040,1,-16,19,-605,-547,-58,576
,843,2023-10-27 11:22:46.44,49,-267,-2032,7,-28,19,-638,-517,-121,577
,844,2023-10-27 11:22:46.45,63,-269,-2031,1,-23,18,-604,-548,-56,576
,845,2023-10-27 11:22:46.46,87,-258,-2038,-14,6,12,-625,-512,-113,568
,846,2023-10-27 11:22:46.47,40,-275,-2048,-19,7,6,-601,-549,-52,575
,847,2023-10-27 11:22:46.48,74,-269,-2038,-18,6,11,-623,-510,-113,566
,848,2023-10-27 11:22:46.49,63,-272,-2028,-12,3,10,-606,-556,-50,581
,849,2023-10-27 11:22:46.50,85,-266,-2016,-8,13,10,-616,-510,-106,563
,850,2023-10-27 11:22:46.51,74,-265,-2023,-14,25,2,-612,-560,-52,586
,851,2023-10-27 11:22:46.52,74,-267,-2038,-15,36,1,-617,-504,-113,560
,852,2023-10-27 11:22:46.53,78,-261,-2048,-12,37,3,-612,-560,-52,586
,853,2023-10-27 11:22:46.54,76,-269,-2050,-6,37,4,-609,-501,-108,555
,854,2023-10-27 11:22:46.55,81,-273,-2045,-5,37,5,-615,-565,-50,590
,855,2023-10-27 11:22:46.56,69,-266,-2041,-6,38,9,-603,-502,-101,552
,856,2023-10-27 11:22:46.57,74,-257,-2039,-9,41,8,-623,-571,-52,597
,857,2023-10-27 11:22:46.58,73,-256,-2045,-6,38,8,-606,-505,-101,555
,858,2023-10-27 11:22:46.59,82,-258,-2049,-4,31,10,-621,-572,-49,596
,859,2023-10-27 11:22:46.60,81,-265,-2053,-1,26,12,-596,-495,-101,545
,860,2023-10-27 11:22:46.61,87,-266,-2045,5,21,15,-626,-575,-51,600
,861,2023-10-27 11:22:46.62,96,-264,-2032,12,25,13,-590,-494,-96,542
,862,2023-10-27 11:22:46.63,98,-276,-2032,15,29,20,-632,-579,-53,605
,863,2023-10-27 11:22:46.64,84,-273,-2032,12,35,24,-591,-495,-96,543
,864,2023-10-27 11:22:46.65,84,-260,-2041,4,42,30,-635,-583,-52,609
,865,2023-10-27 11:22:46.66,89,-260,-2045,1,46,37,-588,-488,-100,538
,866,2023-10-27 11:22:46.67,87,-265,-2048,-1,41,45,-639,-584,-55,611
,867,2023-10-27 11:22:46.68,81,-260,-2050,-8,36,53,-583,-491,-92,537
,868,2023-10-27 11:22:46.69,92,-259,-2039,-11,32,62,-640,-589,-51,614
,869,2023-10-27 11:22:46.70,74,-260,-2043,-13,26,70,-578,-485,-93,531
,870,2023-10-27 11:22:46.71,86,-263,-2045,-15,13,77,-646,-590,-56,618
,871,2023-10-27 11:22:46.72,77,-249,-2054,-20,-3,86,-577,-487,-90,532
,872,2023-10-27 11:22:46.73,92,-251,-2036,-19,-9,90,-651,-596,-55,623
,873,2023-10-27 11:22:46.74,107,-252,-2025,-10,-6,89,-576,-485,-91,530
,874,2023-10-27 11:22:46.75,104,-256,-2023,-5,0,88,-655,-597,-58,626
,875,2023-10-27 11:22:46.76,112,-249,-2036,-2,13,84,-575,-481,-94,528
,876,2023-10-27 11:22:46.77,109,-241,-2021,-24,68,63,-660,-598,-62,629
,877,2023-10-27 11:22:46.78,83,-243,-2038,-15,47,61,-566,-480,-86,523
,878,2023-10-27 11:22:46.79,119,-244,-2038,-5,56,57,-660,-599,-61,629
,879,2023-10-27 11:22:46.80,81,-261,-2052,22,28,51,-565,-472,-93,518
,880,2023-10-27 11:22:46.81,119,-250,-2050,30,33,48,-662,-598,-64,630
,881,2023-10-27 11:22:46.82,95,-253,-2048,29,38,43,-563,-477,-86,520
,882,2023-10-27 11:22:46.83,110,-241,-2053,25,41,34,-669,-606,-63,637
,883,2023-10-27 11:22:46.84,124,-242,-2050,29,38,28,-566,-476,-90,521
,884,2023-10-27 11:22:46.85,109,-234,-2054,28,38,20,-675,-607,-68,641
,885,2023-10-27 11:22:46.86,103,-238,-2047,24,34,13,-560,-474,-86,517
,886,2023-10-27 11:22:46.87,113,-243,-2054,20,30,7,-677,-612,-65,644
,887,2023-10-27 11:22:46.88,107,-238,-2048,20,25,0,-565,-483,-82,524
,888,2023-10-27 11:22:46.89,106,-246,-2041,19,16,-1,-685,-618,-67,651
,889,2023-10-27 11:22:46.90,120,-250,-2035,18,14,-2,-556,-470,-86,513
,890,2023-10-27 11:22:46.91,106,-262,-2035,14,18,-4,-679,-606,-73,642
,891,2023-10-27 11:22:46.92,120,-258,-2015,9,28,-4,-543,-461,-82,502
,892,2023-10-27 11:22:46.93,124,-266,-2013,9,43,-3,-676,-605,-71,640
,893,2023-10-27 11:22:46.94,132,-270,-2031,4,59,-2,-536,-454,-82,495
,894,2023-10-27 11:22:46.95,103,-252,-2075,-8,57,3,-675,-598,-77,636
,895,2023-10-27 11:22:46.96,125,-283,-2047,-14,45,11,-536,-443,-93,489
,896,2023-10-27 11:22:46.97,121,-262,-2023,-1,48,16,-680,-596,-84,638
,897,2023-10-27 11:22:46.98,100,-258,-2052,16,44,18,-534,-449,-85,491
,898,2023-10-27 11:22:46.99,88,-277,-2062,15,28,25,-680,-598,-82,639
,899,2023-10-27 11:22:47.00,101,-257,-2078,19,13,31,-527,-437,-90,482
,900,2023-10-27 11:22:47.01,118,-255,-2067,22,0,37,-677,-585,-92,631
,901,2023-10-27 11:22:47.02,114,-240,-2059,26,-12,42,-529,-438,-91,483
,902,2023-10-27 11:22:47.03,106,-245,-2056,19,-17,45,-682,-597,-85,639
,903,2023-10-27 11:22:47.04,104,-244,-2049,8,-20,45,-528,-444,-84,486
,904,2023-10-27 11:22:47.05,114,-247,-2041,8,-17,46,-680,-597,-83,638
,905,2023-10-27 11:22:47.06,122,-248,-2051,-8,8,43,-529,-448,-81,488
,906,2023-10-27 11:22:47.07,72,-298,-2012,-15,-13,53,-691,-607,-84,649
,907,2023-10-27 11:22:47.08,124,-285,-2051,-12,-1,77,-526,-450,-76,488
,908,2023-10-27 11:22:47.09,100,-283,-2044,-15,18,85,-689,-603,-86,646
,909,2023-10-27 11:22:47.10,95,-305,-2031,-28,26,108,-530,-451,-79,490
,910,2023-10-27 11:22:47.11,95,-304,-2044,-41,28,139,-707,-617,-90,662
,911,2023-10-27 11:22:47.12,105,-297,-2028,-52,47,164,-555,-477,-78,516
,912,2023-10-27 11:22:47.13,84,-284,-2019,-50,64,186,-723,-634,-89,678
,913,2023-10-27 11:22:47.14,83,-325,-2069,-59,54,225,-548,-477,-71,512
,914,2023-10-27 11:22:47.15,98,-315,-2060,-92,60,262,-717,-628,-89,672
,915,2023-10-27 11:22:47.16,82,-315,-1992,-95,47,289,-549,-473,-76,511
,916,2023-10-27 11:22:47.17,105,-286,-1994,-72,54,319,-721,-621,-100,671
,917,2023-10-27 11:22:47.18,93,-270,-2035,-69,58,346,-549,-465,-84,507
,918,2023-10-27 11:22:47.19,100,-273,-2057,-101,59,373,-718,-616,-102,667
,919,2023-10-27 11:22:47.20,99,-259,-2055,-130,63,395,-536,-463,-73,499
,920,2023-10-27 11:22:47.21,109,-248,-2050,-143,67,413,-702,-607,-95,654
,921,2023-10-27 11:22:47.22,116,-233,-2030,-153,82,424,-527,-456,-71,491
,922,2023-10-27 11:22:47.23,105,-225,-2043,-162,85,432,-700,-606,-94,653
,923,2023-10-27 11:22:47.24,120,-233,-2049,-170,89,445,-514,-451,-63,482
,924,2023-10-27 11:22:47.25,130,-231,-2037,-165,92,451,-688,-600,-88,644
,925,2023-10-27 11:22:47.26,129,-237,-2053,-146,92,453,-506,-453,-53,479
,926,2023-10-27 11:22:47.27,137,-247,-2059,-124,92,455,-688,-600,-88,644
,927,2023-10-27 11:22:47.28,130,-229,-2091,-104,95,452,-501,-441,-60,471
,928,2023-10-27 11:22:47.29,139,-240,-2104,-84,90,448,-677,-566,-111,621
,929,2023-10-27 11:22:47.30,130,-237,-2138,-55,77,448,-476,-392,-84,434
,930,2023-10-27 11:22:47.31,143,-236,-2124,-27,51,446,-626,-502,-124,564
,931,2023-10-27 11:22:47.32,158,-230,-2166,-5,41,443,-420,-340,-80,380
,932,2023-10-27 11:22:47.33,164,-229,-2224,2,42,433,-610,-479,-131,544
,933,2023-10-27 11:22:47.34,152,-181,-2267,-13,62,420,-445,-338,-107,391
,934,2023-10-27 11:22:47.35,148,-163,-2175,-25,62,407,-630,-460,-170,545
,935,2023-10-27 11:22:47.36,196,-250,-2127,-17,82,394,-439,-310,-129,374
,936,2023-10-27 11:22:47.37,173,-335,-2148,-3,101,381,-594,-432,-162,513
,937,2023-10-27 11:22:47.38,158,-304,-2076,24,114,370,-389,-291,-98,340
,938,2023-10-27 11:22:47.39,222,-274,-2071,75,155,357,-556,-429,-127,492
,939,2023-10-27 11:22:47.40,223,-302,-2074,110,213,331,-418,-364,-54,391
,940,2023-10-27 11:22:47.41,202,-285,-2078,126,253,313,-661,-586,-75,623
,941,2023-10-27 11:22:47.42,159,-275,-2199,112,269,312,-545,-529,-16,537
,942,2023-10-27 11:22:47.43,191,-319,-2089,92,249,307,-757,-698,-59,727
,943,2023-10-27 11:22:47.44,209,-284,-1934,116,240,295,-608,-594,-14,601
,944,2023-10-27 11:22:47.45,180,-249,-1780,182,205,279,-793,-735,-58,764
,945,2023-10-27 11:22:47.46,157,-244,-1750,276,153,268,-632,-623,-9,627
,946,2023-10-27 11:22:47.47,137,-205,-1940,344,125,257,-821,-754,-67,787
,947,2023-10-27 11:22:47.48,166,-180,-2061,311,105,236,-648,-618,-30,633
,948,2023-10-27 11:22:47.49,163,-198,-2016,254,117,209,-796,-708,-88,752
,949,2023-10-27 11:22:47.50,157,-209,-2034,206,124,187,-584,-541,-43,562
,950,2023-10-27 11:22:47.51,102,-238,-1981,169,64,169,-721,-611,-110,666
,951,2023-10-27 11:22:47.52,131,-237,-1975,154,7,166,-522,-463,-59,492
,952,2023-10-27 11:22:47.53,130,-254,-1949,158,-54,163,-654,-551,-103,602
,953,2023-10-27 11:22:47.54,130,-269,-1905,163,-84,158,-478,-440,-38,459
,954,2023-10-27 11:22:47.55,130,-287,-1850,170,-92,155,-634,-546,-88,590
,955,2023-10-27 11:22:47.56,153,-304,-1809,170,-63,142,-483,-451,-32,467
,956,2023-10-27 11:22:47.57,139,-333,-1871,167,-45,132,-651,-568,-83,609
,957,2023-10-27 11:22:47.58,133,-300,-1948,153,-29,128,-523,-497,-26,510
,958,2023-10-27 11:22:47.59,115,-271,-1961,140,-24,126,-664,-548,-116,606
,959,2023-10-27 11:22:47.60,147,-252,-1997,133,-12,125,-442,-361,-81,401
,960,2023-10-27 11:22:47.61,108,-252,-2004,106,-2,113,-513,-368,-145,440
,961,2023-10-27 11:22:47.62,134,-234,-1993,75,-21,105,-352,-283,-69,317
,962,2023-10-27 11:22:47.63,120,-242,-2054,53,-35,93,-532,-402,-130,467
,963,2023-10-27 11:22:47.64,112,-230,-2092,28,-35,81,-404,-331,-73,367
,964,2023-10-27 11:22:47.65,156,-249,-2087,19,-47,65,-564,-405,-159,484
,965,2023-10-27 11:22:47.66,149,-226,-2164,6,-20,46,-424,-321,-103,372
,966,2023-10-27 11:22:47.67,94,-222,-2246,-39,-19,33,-567,-404,-163,485
,967,2023-10-27 11:22:47.68,112,-244,-2223,-103,-24,24,-438,-345,-93,391
,968,2023-10-27 11:22:47.69,136,-245,-2136,-149,-18,13,-588,-435,-153,511
,969,2023-10-27 11:22:47.70,117,-240,-2060,-168,-2,-2,-452,-364,-88,408
,970,2023-10-27 11:22:47.71,146,-214,-2053,-199,9,-18,-582,-434,-148,508
,971,2023-10-27 11:22:47.72,132,-200,-2032,-241,27,-39,-448,-369,-79,408
,972,2023-10-27 11:22:47.73,122,-165,-2023,-273,40,-56,-584,-452,-132,518
,973,2023-10-27 11:22:47.74,103,-126,-1994,-297,36,-73,-465,-393,-72,429
,974,2023-10-27 11:22:47.75,86,-84,-1990,-332,22,-87,-618,-474,-144,546
,975,2023-10-27 11:22:47.76,85,-91,-2085,-384,-7,-79,-495,-414,-81,454
,976,2023-10-27 11:22:47.77,101,-124,-1999,-420,-64,-87,-615,-469,-146,542
,977,2023-10-27 11:22:47.78,105,-108,-1955,-395,-71,-99,-483,-405,-78,444
,978,2023-10-27 11:22:47.79,100,-115,-2078,-372,-92,-97,-592,-452,-140,522
,979,2023-10-27 11:22:47.80,77,-122,-2060,-380,-137,-95,-476,-405,-71,440
,980,2023-10-27 11:22:47.81,104,-107,-2069,-377,-146,-87,-580,-452,-128,516
,981,2023-10-27 11:22:47.82,108,-118,-2095,-361,-156,-82,-476,-415,-61,445
,982,2023-10-27 11:22:47.83,173,-151,-2122,-347,-143,-75,-580,-451,-129,515
,983,2023-10-27 11:22:47.84,107,-197,-2061,-342,-112,-82,-498,-433,-65,465
,984,2023-10-27 11:22:47.85,124,-200,-2057,-309,-105,-67,-595,-459,-136,527
,985,2023-10-27 11:22:47.86,129,-244,-2079,-265,-80,-54,-516,-444,-72,480
,986,2023-10-27 11:22:47.87,110,-218,-2077,-204,-69,-43,-605,-470,-135,537
,987,2023-10-27 11:22:47.88,91,-229,-2074,-127,-98,-21,-527,-459,-68,493
,988,2023-10-27 11:22:47.89,133,-220,-2094,-59,-109,10,-608,-472,-136,540
,989,2023-10-27 11:22:47.90,147,-222,-2045,-18,-92,21,-538,-466,-72,502
,990,2023-10-27 11:22:47.91,117,-212,-2077,12,-56,28,-609,-471,-138,540
,991,2023-10-27 11:22:47.92,94,-185,-2102,22,-41,40,-541,-470,-71,505
,992,2023-10-27 11:22:47.93,109,-199,-2100,39,-33,52,-590,-454,-136,522
,993,2023-10-27 11:22:47.94,128,-207,-2076,63,-25,64,-531,-461,-70,496
,994,2023-10-27 11:22:47.95,128,-210,-2075,66,9,71,-582,-452,-130,517
,995,2023-10-27 11:22:47.96,99,-214,-2045,75,16,78,-533,-466,-67,499
,996,2023-10-27 11:22:47.97,119,-227,-2029,94,33,87,-563,-436,-127,499
,997,2023-10-27 11:22:47.98,118,-224,-2001,117,53,86,-518,-450,-68,484
,998,2023-10-27 11:22:47.99,134,-231,-2016,143,64,90,-546,-415,-131,480
,999,2023-10-27 11:22:48.00,141,-222,-2032,148,78,89,-511,-436,-75,473
,1000,2023-10-27 11:22:48.01,121,-212,-2029,143,89,88,-529,-398,-131,463
,1001,2023-10-27 11:22:48.02,131,-220,-2027,151,97,85,-503,-431,-72,467
,1002,2023-10-27 11:22:48.03,135,-227,-2032,162,102,81,-521,-373,-148,447
,1003,2023-10-27 11:22:48.04,130,-227,-2018,169,104,73,-505,-415,-90,460
,1004,2023-10-27 11:22:48.05,142,-240,-2017,163,114,70,-503,-361,-142,432
,1005,2023-10-27 11:22:48.06,131,-230,-2025,161,124,64,-501,-417,-84,459
,1006,2023-10-27 11:22:48.07,130,-221,-2023,159,125,57,-506,-374,-132,440
,1007,2023-10-27 11:22:48.08,120,-227,-2044,148,116,54,-518,-444,-74,481
,1008,2023-10-27 11:22:48.09,121,-230,-2061,134,100,52,-520,-394,-126,457
,1009,2023-10-27 11:22:48.10,136,-229,-2062,124,82,51,-540,-465,-75,502
,1010,2023-10-27 11:22:48.11,147,-229,-2032,124,81,44,-528,-414,-114,471
,1011,2023-10-27 11:22:48.12,144,-217,-2078,111,77,36,-546,-489,-57,517
,1012,2023-10-27 11:22:48.13,163,-229,-2035,87,64,26,-529,-428,-101,478
,1013,2023-10-27 11:22:48.14,151,-217,-2035,72,70,12,-563,-508,-55,535
,1014,2023-10-27 11:22:48.15,145,-225,-2051,69,71,0,-540,-438,-102,489
,1015,2023-10-27 11:22:48.16,150,-221,-2075,61,66,-8,-581,-523,-58,552
,1016,2023-10-27 11:22:48.17,132,-224,-2078,48,44,-14,-546,-443,-103,494
,1017,2023-10-27 11:22:48.18,150,-227,-2067,35,31,-17,-591,-528,-63,559
,1018,2023-10-27 11:22:48.19,153,-233,-2047,26,16,-24,-553,-445,-108,499
,1019,2023-10-27 11:22:48.20,139,-232,-2049,22,6,-26,-605,-537,-68,571
,1020,2023-10-27 11:22:48.21,143,-233,-2056,11,-4,-27,-557,-445,-112,501
,1021,2023-10-27 11:22:48.22,139,-232,-2051,5,-14,-27,-611,-542,-69,576
,1022,2023-10-27 11:22:48.23,134,-232,-2051,4,-23,-27,-554,-440,-114,497
,1023,2023-10-27 11:22:48.24,144,-242,-2043,4,-27,-23,-612,-537,-75,574
,1024,2023-10-27 11:22:48.25,144,-247,-2031,7,-24,-20,-547,-434,-113,490
,1025,2023-10-27 11:22:48.26,145,-243,-2029,6,-22,-20,-614,-532,-82,573
,1026,2023-10-27 11:22:48.27,155,-230,-2033,7,-15,-19,-548,-424,-124,486
,1027,2023-10-27 11:22:48.28,143,-222,-2031,6,-11,-17,-625,-538,-87,581
,1028,2023-10-27 11:22:48.29,131,-227,-2034,6,-5,-16,-551,-431,-120,491
,1029,2023-10-27 11:22:48.30,137,-222,-2031,5,4,-15,-633,-546,-87,589
,1030,2023-10-27 11:22:48.31,145,-222,-2027,8,8,-20,-546,-429,-117,487
,1031,2023-10-27 11:22:48.32,147,-228,-2022,15,16,-24,-635,-548,-87,591
,1032,2023-10-27 11:22:48.33,147,-225,-2023,23,22,-26,-550,-431,-119,490
,1033,2023-10-27 11:22:48.34,142,-232,-2023,32,35,-33,-644,-557,-87,600
,1034,2023-10-27 11:22:48.35,148,-218,-2034,43,48,-39,-551,-434,-117,492
,1035,2023-10-27 11:22:48.36,148,-225,-2037,52,64,-49,-656,-564,-92,610
,1036,2023-10-27 11:22:48.37,144,-225,-2042,66,75,-57,-557,-439,-118,498
,1037,2023-10-27 11:22:48.38,159,-227,-2028,78,87,-69,-663,-573,-90,618
,1038,2023-10-27 11:22:48.39,144,-220,-2025,100,103,-83,-570,-454,-116,512
,1039,2023-10-27 11:22:48.40,167,-232,-2021,124,119,-95,-696,-610,-86,653
,1040,2023-10-27 11:22:48.41,164,-231,-2017,154,136,-112,-609,-510,-99,559
,1041,2023-10-27 11:22:48.42,143,-206,-2094,185,148,-130,-735,-663,-72,699
,1042,2023-10-27 11:22:48.43,173,-218,-2079,208,130,-143,-636,-551,-85,593
,1043,2023-10-27 11:22:48.44,187,-219,-2021,255,123,-158,-764,-706,-58,735
,1044,2023-10-27 11:22:48.45,197,-239,-1972,312,130,-177,-683,-623,-60,653
,1045,2023-10-27 11:22:48.46,190,-244,-1993,352,154,-195,-822,-802,-20,812
,1046,2023-10-27 11:22:48.47,160,-272,-2015,377,156,-202,-757,-753,-4,755
,1047,2023-10-27 11:22:48.48,167,-282,-2031,395,149,-197,-888,-917,29,902
,1048,2023-10-27 11:22:48.49,147,-304,-2078,405,134,-183,-792,-845,53,818
,1049,2023-10-27 11:22:48.50,150,-341,-2085,392,124,-150,-895,-958,63,926
,1050,2023-10-27 11:22:48.51,132,-357,-2117,365,130,-99,-754,-811,57,782
,1051,2023-10-27 11:22:48.52,131,-417,-2141,321,126,-36,-847,-886,39,866
,1052,2023-10-27 11:22:48.53,140,-456,-2077,291,119,34,-685,-708,23,696
,1053,2023-10-27 11:22:48.54,158,-431,-2037,285,113,115,-776,-778,2,777
,1054,2023-10-27 11:22:48.55,147,-436,-1981,294,90,193,-592,-581,-11,586
,1055,2023-10-27 11:22:48.56,158,-422,-2023,294,89,269,-698,-671,-27,684
,1056,2023-10-27 11:22:48.57,195,-392,-2023,270,90,337,-517,-482,-35,499
,1057,2023-10-27 11:22:48.58,197,-387,-2021,234,114,391,-631,-579,-52,605
,1058,2023-10-27 11:22:48.59,207,-386,-2016,192,147,435,-435,-377,-58,406
,1059,2023-10-27 11:22:48.60,199,-396,-2032,158,175,471,-568,-489,-79,528
,1060,2023-10-27 11:22:48.61,167,-414,-2031,137,191,505,-373,-296,-77,334
,1061,2023-10-27 11:22:48.62,182,-422,-2073,115,205,542,-520,-428,-92,474
,1062,2023-10-27 11:22:48.63,166,-449,-2060,87,195,580,-326,-254,-72,290
,1063,2023-10-27 11:22:48.64,176,-429,-2042,62,194,617,-498,-405,-93,451
,1064,2023-10-27 11:22:48.65,161,-411,-1998,54,176,649,-314,-235,-79,274
,1065,2023-10-27 11:22:48.66,193,-388,-1962,46,173,669,-487,-386,-101,436
,1066,2023-10-27 11:22:48.67,192,-389,-1969,48,172,682,-306,-224,-82,265
,1067,2023-10-27 11:22:48.68,190,-361,-1997,37,175,689,-508,-403,-105,455
,1068,2023-10-27 11:22:48.69,185,-362,-1992,13,167,689,-342,-258,-84,300
,1069,2023-10-27 11:22:48.70,214,-353,-2017,-17,168,694,-541,-436,-105,488
,1070,2023-10-27 11:22:48.71,171,-352,-2044,-63,174,692,-368,-276,-92,322
,1071,2023-10-27 11:22:48.72,208,-372,-2017,-96,165,696,-571,-445,-126,508
,1072,2023-10-27 11:22:48.73,197,-369,-2001,-124,165,694,-394,-284,-110,339
,1073,2023-10-27 11:22:48.74,195,-361,-1977,-135,141,693,-592,-449,-143,520
,1074,2023-10-27 11:22:48.75,224,-317,-2025,-140,122,686,-406,-288,-118,347
,1075,2023-10-27 11:22:48.76,223,-279,-2047,-174,113,673,-595,-444,-151,519
,1076,2023-10-27 11:22:48.77,248,-258,-2038,-223,116,646,-402,-282,-120,342
,1077,2023-10-27 11:22:48.78,245,-259,-2051,-267,118,616,-591,-442,-149,516
,1078,2023-10-27 11:22:48.79,258,-240,-2075,-305,139,578,-395,-281,-114,338
,1079,2023-10-27 11:22:48.80,249,-252,-2043,-323,131,530,-582,-439,-143,510
,1080,2023-10-27 11:22:48.81,234,-228,-2054,-326,119,481,-393,-284,-109,338
,1081,2023-10-27 11:22:48.82,257,-208,-2075,-333,95,425,-587,-445,-142,516
