// Data mode  : Full
// Data quality  : High
// Acceleration sensor's range  : 16g
// Gyroscope sensor's range  : 2000dps
//
//ARTIFACT,NUM,DATE,ACC_X,ACC_Y,ACC_Z,GYRO_X,GYRO_Y,GYRO_Z,EOG_L,EOG_R,EOG_H,EOG_V
,1,2023-10-27 11:14:08.91,187,-183,-2049,-8,19,-20,-306,-51,-255,178
,2,2023-10-27 11:14:08.92,192,-191,-2044,-5,17,-16,-314,-156,-158,235
,3,2023-10-27 11:14:08.93,194,-187,-2046,0,13,-12,-305,-51,-254,178
,4,2023-10-27 11:14:08.94,185,-180,-2052,0,10,-8,-323,-165,-158,244
,5,2023-10-27 11:14:08.95,190,-180,-2055,-7,7,-3,-302,-51,-251,176
,6,2023-10-27 11:14:08.96,199,-175,-2030,-7,-1,0,-328,-167,-161,247
,7,2023-10-27 11:14:08.97,192,-174,-2029,-6,6,3,-307,-43,-264,175
,8,2023-10-27 11:14:08.98,194,-174,-2041,-5,8,5,-341,-160,-181,250
,9,2023-10-27 11:14:08.99,193,-178,-2043,-9,3,3,-304,-23,-281,163
,10,2023-10-27 11:14:09.00,190,-180,-2048,-9,2,9,-341,-151,-190,246
,11,2023-10-27 11:14:09.01,201,-170,-2035,-5,-1,9,-300,-16,-284,158
,12,2023-10-27 11:14:09.02,190,-164,-2048,-2,3,7,-340,-157,-183,248
,13,2023-10-27 11:14:09.03,188,-170,-2051,-3,-1,8,-292,-32,-260,162
,14,2023-10-27 11:14:09.04,199,-169,-2038,-6,-8,7,-336,-173,-163,254
,15,2023-10-27 11:14:09.05,190,-166,-2037,-1,-3,6,-281,-34,-247,157
,16,2023-10-27 11:14:09.06,180,-169,-2055,0,-5,3,-336,-158,-178,247
,17,2023-10-27 11:14:09.07,195,-175,-2056,0,-10,6,-278,-16,-262,147
,18,2023-10-27 11:14:09.08,188,-166,-2056,0,-11,4,-346,-156,-190,251
,19,2023-10-27 11:14:09.09,193,-163,-2051,-3,-13,4,-272,-11,-261,141
,20,2023-10-27 11:14:09.10,190,-170,-2045,-2,-14,3,-344,-161,-183,252
,21,2023-10-27 11:14:09.11,190,-164,-2048,-3,-16,3,-270,-13,-257,141
,22,2023-10-27 11:14:09.12,180,-160,-2043,-4,-20,0,-356,-154,-202,255
,23,2023-10-27 11:14:09.13,195,-157,-2048,-4,-19,0,-269,4,-273,132
,24,2023-10-27 11:14:09.14,174,-162,-2051,-7,-21,-2,-349,-148,-201,248
,25,2023-10-27 11:14:09.15,181,-169,-2055,-6,-27,0,-263,1,-264,131
,26,2023-10-27 11:14:09.16,190,-166,-2054,-9,-31,2,-357,-146,-211,251
,27,2023-10-27 11:14:09.17,184,-166,-2047,-10,-37,4,-262,11,-273,125
,28,2023-10-27 11:14:09.18,181,-158,-2052,-8,-39,5,-345,-135,-210,240
,29,2023-10-27 11:14:09.19,177,-155,-2049,-7,-43,5,-252,8,-260,122
,30,2023-10-27 11:14:09.20,166,-165,-2051,-10,-43,5,-359,-146,-213,252
,31,2023-10-27 11:14:09.21,174,-169,-2058,-6,-45,7,-258,2,-260,128
,32,2023-10-27 11:14:09.22,172,-167,-2047,-1,-45,9,-364,-143,-221,253
,33,2023-10-27 11:14:09.23,182,-180,-2058,2,-45,13,-250,19,-269,115
,34,2023-10-27 11:14:09.24,177,-175,-2056,6,-45,13,-374,-151,-223,262
,35,2023-10-27 11:14:09.25,175,-167,-2057,9,-41,10,-252,18,-270,117
,36,2023-10-27 11:14:09.26,189,-165,-2049,12,-36,9,-371,-143,-228,257
,37,2023-10-27 11:14:09.27,183,-153,-2040,13,-27,7,-259,22,-281,118
,38,2023-10-27 11:14:09.28,173,-164,-2049,14,-25,3,-383,-144,-239,263
,39,2023-10-27 11:14:09.29,174,-180,-2056,14,-28,0,-257,15,-272,121
,40,2023-10-27 11:14:09.30,174,-194,-2066,19,-31,4,-381,-150,-231,265
,41,2023-10-27 11:14:09.31,182,-191,-2057,24,-35,7,-252,9,-261,121
,42,2023-10-27 11:14:09.32,176,-197,-2045,27,-32,7,-388,-154,-234,271
,43,2023-10-27 11:14:09.33,180,-183,-2022,34,-23,4,-262,8,-270,127
,44,2023-10-27 11:14:09.34,185,-184,-2018,35,-14,-1,-398,-150,-248,274
,45,2023-10-27 11:14:09.35,185,-183,-2023,33,-7,-7,-246,17,-263,114
,46,2023-10-27 11:14:09.36,178,-185,-2037,29,1,-9,-388,-153,-235,270
,47,2023-10-27 11:14:09.37,177,-192,-2050,21,2,-11,-254,9,-263,122
,48,2023-10-27 11:14:09.38,168,-192,-2050,13,-5,-11,-404,-157,-247,280
,49,2023-10-27 11:14:09.39,168,-197,-2060,10,-13,-9,-251,11,-262,120
,50,2023-10-27 11:14:09.40,175,-204,-2053,1,-24,-6,-393,-151,-242,272
,51,2023-10-27 11:14:09.41,165,-197,-2055,-5,-34,-4,-247,10,-257,118
,52,2023-10-27 11:14:09.42,173,-196,-2050,-18,-43,-3,-407,-148,-259,277
,53,2023-10-27 11:14:09.43,166,-190,-2049,-27,-49,2,-255,4,-259,125
,54,2023-10-27 11:14:09.44,168,-189,-2042,-40,-58,5,-414,-156,-258,285
,55,2023-10-27 11:14:09.45,164,-190,-2051,-56,-67,10,-249,1,-250,124
,56,2023-10-27 11:14:09.46,167,-178,-2055,-74,-76,12,-410,-156,-254,283
,57,2023-10-27 11:14:09.47,159,-173,-2062,-91,-85,16,-250,8,-258,121
,58,2023-10-27 11:14:09.48,184,-159,-2093,-114,-87,22,-409,-152,-257,280
,59,2023-10-27 11:14:09.49,144,-164,-2070,-139,-85,17,-244,7,-251,118
,60,2023-10-27 11:14:09.50,138,-150,-2062,-152,-112,27,-414,-144,-270,279
,61,2023-10-27 11:14:09.51,157,-151,-2075,-161,-123,37,-254,16,-270,119
,62,2023-10-27 11:14:09.52,131,-160,-2080,-175,-128,39,-411,-134,-277,272
,63,2023-10-27 11:14:09.53,135,-147,-2063,-188,-134,44,-231,20,-251,105
,64,2023-10-27 11:14:09.54,157,-145,-2080,-199,-123,52,-400,-123,-277,261
,65,2023-10-27 11:14:09.55,134,-145,-2072,-215,-110,49,-225,31,-256,97
,66,2023-10-27 11:14:09.56,109,-150,-2050,-217,-115,52,-395,-116,-279,255
,67,2023-10-27 11:14:09.57,124,-136,-2055,-209,-122,58,-211,39,-250,86
,68,2023-10-27 11:14:09.58,121,-132,-2041,-191,-138,65,-393,-105,-288,249
,69,2023-10-27 11:14:09.59,149,-128,-2054,-173,-140,71,-209,56,-265,76
,70,2023-10-27 11:14:09.60,138,-118,-2048,-170,-112,60,-384,-99,-285,241
,71,2023-10-27 11:14:09.61,100,-115,-2037,-161,-104,61,-194,44,-238,75
,72,2023-10-27 11:14:09.62,121,-113,-2056,-144,-106,59,-387,-107,-280,247
,73,2023-10-27 11:14:09.63,104,-113,-2064,-124,-106,58,-224,34,-258,95
,74,2023-10-27 11:14:09.64,117,-100,-2058,-103,-99,56,-404,-102,-302,253
,75,2023-10-27 11:14:09.65,100,-108,-2052,-97,-84,51,-225,27,-252,99
,76,2023-10-27 11:14:09.66,88,-110,-2057,-81,-85,50,-404,-113,-291,258
,77,2023-10-27 11:14:09.67,88,-118,-2056,-58,-90,48,-227,24,-251,101
,78,2023-10-27 11:14:09.68,123,-115,-2063,-34,-84,47,-406,-111,-295,258
,79,2023-10-27 11:14:09.69,93,-122,-2050,-18,-70,43,-217,19,-236,99
,80,2023-10-27 11:14:09.70,102,-104,-2052,-4,-57,40,-402,-110,-292,256
,81,2023-10-27 11:14:09.71,97,-117,-2054,6,-44,38,-228,18,-246,105
,82,2023-10-27 11:14:09.72,94,-117,-2064,19,-29,33,-412,-110,-302,261
,83,2023-10-27 11:14:09.73,83,-115,-2063,30,-18,31,-236,12,-248,112
,84,2023-10-27 11:14:09.74,87,-125,-2068,40,-9,28,-421,-107,-314,264
,85,2023-10-27 11:14:09.75,66,-135,-2072,49,-6,31,-240,9,-249,115
,86,2023-10-27 11:14:09.76,68,-143,-2074,59,-5,35,-412,-96,-316,254
,87,2023-10-27 11:14:09.77,78,-140,-2058,67,-8,38,-236,16,-252,110
,88,2023-10-27 11:14:09.78,76,-130,-2061,71,-8,40,-414,-93,-321,253
,89,2023-10-27 11:14:09.79,81,-122,-2050,69,-6,42,-236,14,-250,111
,90,2023-10-27 11:14:09.80,73,-96,-2051,63,-8,42,-413,-91,-322,252
,91,2023-10-27 11:14:09.81,72,-88,-2052,51,-10,38,-230,16,-246,107
,92,2023-10-27 11:14:09.82,63,-70,-2046,36,-17,31,-404,-91,-313,247
,93,2023-10-27 11:14:09.83,70,-58,-2060,17,-22,24,-227,4,-231,111
,94,2023-10-27 11:14:09.84,63,-54,-2055,-4,-32,16,-405,-89,-316,247
,95,2023-10-27 11:14:09.85,64,-57,-2057,-28,-33,11,-236,9,-245,113
,96,2023-10-27 11:14:09.86,86,-64,-2064,-53,-24,2,-411,-79,-332,245
,97,2023-10-27 11:14:09.87,49,-74,-2045,-76,-18,-5,-247,3,-250,122
,98,2023-10-27 11:14:09.88,74,-67,-2056,-82,-37,-4,-422,-85,-337,253
,99,2023-10-27 11:14:09.89,84,-93,-2063,-89,-33,-5,-252,-4,-248,128
,100,2023-10-27 11:14:09.90,65,-83,-2052,-96,-25,-8,-409,-81,-328,245
,101,2023-10-27 11:14:09.91,81,-83,-2054,-96,-22,-10,-235,3,-238,116
,102,2023-10-27 11:14:09.92,79,-83,-2057,-98,-13,-9,-405,-71,-334,238
,103,2023-10-27 11:14:09.93,68,-66,-2041,-94,-12,-10,-241,3,-244,119
,104,2023-10-27 11:14:09.94,74,-69,-2041,-89,-6,-13,-414,-70,-344,242
,105,2023-10-27 11:14:09.95,85,-75,-2051,-86,1,-11,-256,-2,-254,129
,106,2023-10-27 11:14:09.96,80,-74,-2050,-82,14,-15,-409,-60,-349,234
,107,2023-10-27 11:14:09.97,93,-63,-2053,-77,27,-19,-253,0,-253,126
,108,2023-10-27 11:14:09.98,93,-56,-2055,-74,42,-24,-412,-64,-348,238
,109,2023-10-27 11:14:09.99,87,-48,-2062,-72,48,-30,-261,-16,-245,138
,110,2023-10-27 11:14:10.00,95,-49,-2068,-65,54,-35,-408,-63,-345,235
,111,2023-10-27 11:14:10.01,92,-51,-2060,-55,52,-42,-254,-16,-238,135
,112,2023-10-27 11:14:10.02,99,-55,-2049,-51,50,-45,-408,-60,-348,234
,113,2023-10-27 11:14:10.03,99,-54,-2038,-43,57,-45,-257,-19,-238,138
,114,2023-10-27 11:14:10.04,99,-73,-2046,-35,64,-45,-411,-60,-351,235
,115,2023-10-27 11:14:10.05,105,-73,-2053,-30,73,-43,-268,-23,-245,145
,116,2023-10-27 11:14:10.06,106,-64,-2049,-23,72,-40,-404,-49,-355,226
,117,2023-10-27 11:14:10.07,99,-57,-2049,-11,58,-31,-261,-13,-248,137
,118,2023-10-27 11:14:10.08,114,-57,-2055,-2,52,-23,-398,-40,-358,219
,119,2023-10-27 11:14:10.09,121,-57,-2066,3,56,-19,-261,-15,-246,138
,120,2023-10-27 11:14:10.10,116,-64,-2061,1,61,-15,-393,-44,-349,218
,121,2023-10-27 11:14:10.11,114,-72,-2060,8,49,-7,-252,-26,-226,139
,122,2023-10-27 11:14:10.12,118,-66,-2062,11,41,1,-390,-34,-356,212
,123,2023-10-27 11:14:10.13,106,-68,-2065,11,48,4,-263,-18,-245,140
,124,2023-10-27 11:14:10.14,115,-68,-2064,15,43,10,-392,-33,-359,212
,125,2023-10-27 11:14:10.15,130,-64,-2055,16,42,12,-271,-20,-251,145
,126,2023-10-27 11:14:10.16,128,-68,-2068,19,42,15,-390,-23,-367,206
,127,2023-10-27 11:14:10.17,125,-69,-2065,22,32,19,-271,-25,-246,148
,128,2023-10-27 11:14:10.18,135,-62,-2060,17,44,21,-396,-19,-377,207
,129,2023-10-27 11:14:10.19,113,-62,-2061,17,48,22,-287,-26,-261,156
,130,2023-10-27 11:14:10.20,132,-73,-2067,23,33,24,-412,-15,-397,213
,131,2023-10-27 11:14:10.21,131,-60,-2070,24,33,25,-298,-19,-279,158
,132,2023-10-27 11:14:10.22,116,-55,-2058,23,35,25,-404,-6,-398,205
,133,2023-10-27 11:14:10.23,112,-59,-2064,19,38,21,-287,-21,-266,154
,134,2023-10-27 11:14:10.24,122,-68,-2074,21,30,20,-384,-11,-373,197
,135,2023-10-27 11:14:10.25,121,-63,-2063,21,16,24,-288,-35,-253,161
,136,2023-10-27 11:14:10.26,140,-66,-2055,24,14,23,-386,-5,-381,195
,137,2023-10-27 11:14:10.27,128,-65,-2058,22,15,25,-290,-33,-257,161
,138,2023-10-27 11:14:10.28,120,-58,-2051,23,16,21,-374,-5,-369,189
,139,2023-10-27 11:14:10.29,123,-65,-2055,22,15,17,-289,-39,-250,164
,140,2023-10-27 11:14:10.30,120,-64,-2063,25,11,17,-372,4,-376,184
,141,2023-10-27 11:14:10.31,120,-71,-2062,24,9,14,-292,-37,-255,164
,142,2023-10-27 11:14:10.32,125,-79,-2062,26,7,13,-374,2,-376,186
,143,2023-10-27 11:14:10.33,118,-77,-2065,30,1,18,-298,-45,-253,171
,144,2023-10-27 11:14:10.34,129,-77,-2065,29,-5,17,-368,-1,-367,184
,145,2023-10-27 11:14:10.35,128,-75,-2057,31,-9,24,-300,-52,-248,176
,146,2023-10-27 11:14:10.36,128,-73,-2058,33,-12,26,-361,4,-365,178
,147,2023-10-27 11:14:10.37,120,-78,-2055,32,-13,27,-298,-54,-244,176
,148,2023-10-27 11:14:10.38,128,-78,-2063,32,-14,27,-359,8,-367,175
,149,2023-10-27 11:14:10.39,118,-82,-2054,33,-11,29,-301,-54,-247,177
,150,2023-10-27 11:14:10.40,128,-84,-2046,33,-8,30,-358,13,-371,172
,151,2023-10-27 11:14:10.41,118,-79,-2052,33,-6,30,-300,-48,-252,174
,152,2023-10-27 11:14:10.42,124,-87,-2054,35,-5,29,-346,12,-358,167
,153,2023-10-27 11:14:10.43,118,-77,-2048,37,-2,29,-303,-55,-248,179
,154,2023-10-27 11:14:10.44,122,-80,-2053,40,-1,28,-350,16,-366,167
,155,2023-10-27 11:14:10.45,122,-80,-2056,39,1,25,-312,-64,-248,188
,156,2023-10-27 11:14:10.46,128,-81,-2057,38,3,26,-340,19,-359,160
,157,2023-10-27 11:14:10.47,105,-86,-2064,38,0,21,-315,-67,-248,191
,158,2023-10-27 11:14:10.48,119,-82,-2064,43,-2,22,-339,28,-367,155
,159,2023-10-27 11:14:10.49,98,-92,-2061,42,-9,22,-312,-61,-251,186
,160,2023-10-27 11:14:10.50,107,-91,-2062,44,-14,26,-326,24,-350,151
,161,2023-10-27 11:14:10.51,109,-102,-2062,43,-21,24,-310,-65,-245,187
,162,2023-10-27 11:14:10.52,113,-94,-2067,48,-24,25,-328,30,-358,149
,163,2023-10-27 11:14:10.53,106,-99,-2058,48,-26,29,-322,-74,-248,198
,164,2023-10-27 11:14:10.54,117,-98,-2062,47,-25,30,-334,37,-371,148
,165,2023-10-27 11:14:10.55,118,-98,-2063,47,-27,31,-327,-70,-257,198
,166,2023-10-27 11:14:10.56,112,-102,-2062,47,-31,31,-328,31,-359,148
,167,2023-10-27 11:14:10.57,109,-101,-2057,48,-34,36,-325,-82,-243,203
,168,2023-10-27 11:14:10.58,111,-106,-2059,48,-36,38,-326,26,-352,150
,169,2023-10-27 11:14:10.59,107,-100,-2055,48,-36,39,-337,-77,-260,207
,170,2023-10-27 11:14:10.60,109,-108,-2059,46,-32,38,-325,36,-361,144
,171,2023-10-27 11:14:10.61,130,-98,-2049,42,-22,37,-340,-88,-252,214
,172,2023-10-27 11:14:10.62,112,-102,-2055,32,-3,32,-316,39,-355,138
,173,2023-10-27 11:14:10.63,110,-100,-2041,28,-2,32,-334,-76,-258,205
,174,2023-10-27 11:14:10.64,111,-107,-2052,34,-4,30,-311,48,-359,131
,175,2023-10-27 11:14:10.65,101,-110,-2048,39,-21,34,-342,-80,-262,211
,176,2023-10-27 11:14:10.66,104,-108,-2058,41,-16,34,-312,42,-354,135
,177,2023-10-27 11:14:10.67,100,-108,-2067,38,-13,30,-343,-81,-262,212
,178,2023-10-27 11:14:10.68,114,-93,-2064,32,0,28,-308,50,-358,129
,179,2023-10-27 11:14:10.69,113,-93,-2061,21,17,21,-348,-87,-261,217
,180,2023-10-27 11:14:10.70,97,-95,-2070,20,10,18,-304,53,-357,125
,181,2023-10-27 11:14:10.71,90,-109,-2060,23,-15,17,-353,-89,-264,221
,182,2023-10-27 11:14:10.72,100,-106,-2068,25,-21,21,-301,40,-341,130
,183,2023-10-27 11:14:10.73,116,-100,-2064,17,-10,18,-349,-98,-251,223
,184,2023-10-27 11:14:10.74,81,-100,-2036,8,-2,16,-303,35,-338,134
,185,2023-10-27 11:14:10.75,90,-105,-2039,2,-5,15,-362,-116,-246,239
,186,2023-10-27 11:14:10.76,89,-95,-2046,10,-23,20,-290,12,-302,139
,187,2023-10-27 11:14:10.77,93,-106,-2046,13,-23,18,-360,-127,-233,243
,188,2023-10-27 11:14:10.78,99,-97,-2051,6,-10,21,-284,28,-312,128
,189,2023-10-27 11:14:10.79,97,-102,-2055,-3,-4,18,-357,-113,-244,235
,190,2023-10-27 11:14:10.80,88,-108,-2051,-7,-6,22,-287,39,-326,124
,191,2023-10-27 11:14:10.81,94,-112,-2061,-5,-7,27,-362,-105,-257,233
,192,2023-10-27 11:14:10.82,99,-107,-2062,-5,-8,31,-278,55,-333,111
,193,2023-10-27 11:14:10.83,102,-98,-2060,-8,-3,34,-368,-106,-262,237
,194,2023-10-27 11:14:10.84,98,-100,-2049,-9,0,34,-266,47,-313,109
,195,2023-10-27 11:14:10.85,99,-97,-2049,-8,4,33,-353,-107,-246,230
,196,2023-10-27 11:14:10.86,100,-93,-2055,-8,11,33,-256,62,-318,97
,197,2023-10-27 11:14:10.87,105,-95,-2054,-4,13,31,-358,-99,-259,228
,198,2023-10-27 11:14:10.88,104,-98,-2055,0,18,29,-276,52,-328,112
,199,2023-10-27 11:14:10.89,109,-97,-2057,3,21,25,-374,-97,-277,235
,200,2023-10-27 11:14:10.90,103,-94,-2051,4,23,22,-274,59,-333,107
,201,2023-10-27 11:14:10.91,110,-95,-2058,9,23,18,-376,-95,-281,235
,202,2023-10-27 11:14:10.92,94,-82,-2049,13,21,13,-259,62,-321,98
,203,2023-10-27 11:14:10.93,103,-96,-2053,16,17,9,-372,-99,-273,235
,204,2023-10-27 11:14:10.94,92,-108,-2075,21,10,10,-258,61,-319,98
,205,2023-10-27 11:14:10.95,100,-101,-2063,23,3,10,-385,-104,-281,244
,206,2023-10-27 11:14:10.96,104,-104,-2062,25,5,11,-275,64,-339,105
,207,2023-10-27 11:14:10.97,109,-100,-2048,25,6,14,-392,-101,-291,246
,208,2023-10-27 11:14:10.98,118,-103,-2059,20,12,11,-262,60,-322,101
,209,2023-10-27 11:14:10.99,87,-103,-2053,17,24,8,-386,-107,-279,246
,210,2023-10-27 11:14:11.00,105,-101,-2060,23,11,13,-263,51,-314,106
,211,2023-10-27 11:14:11.01,109,-110,-2050,25,11,16,-397,-104,-293,250
,212,2023-10-27 11:14:11.02,108,-104,-2048,25,13,20,-262,61,-323,100
,213,2023-10-27 11:14:11.03,111,-107,-2052,21,17,20,-396,-101,-295,248
,214,2023-10-27 11:14:11.04,113,-106,-2058,20,17,20,-254,61,-315,96
,215,2023-10-27 11:14:11.05,105,-97,-2061,18,14,24,-398,-102,-296,250
,216,2023-10-27 11:14:11.06,107,-98,-2051,17,12,25,-257,60,-317,98
,217,2023-10-27 11:14:11.07,116,-98,-2051,15,9,26,-400,-102,-298,251
,218,2023-10-27 11:14:11.08,107,-93,-2056,10,10,24,-244,62,-306,91
,219,2023-10-27 11:14:11.09,110,-101,-2053,8,7,20,-395,-100,-295,247
,220,2023-10-27 11:14:11.10,116,-94,-2062,7,6,20,-248,61,-309,93
,221,2023-10-27 11:14:11.11,114,-105,-2052,8,3,19,-398,-93,-305,245
,222,2023-10-27 11:14:11.12,106,-98,-2061,4,1,21,-251,60,-311,95
,223,2023-10-27 11:14:11.13,102,-104,-2061,9,-3,18,-405,-101,-304,253
,224,2023-10-27 11:14:11.14,111,-98,-2062,9,-7,19,-242,59,-301,91
,225,2023-10-27 11:14:11.15,97,-106,-2065,9,-5,17,-405,-98,-307,251
,226,2023-10-27 11:14:11.16,106,-108,-2055,9,1,16,-240,64,-304,88
,227,2023-10-27 11:14:11.17,100,-105,-2050,15,-5,18,-406,-101,-305,253
,228,2023-10-27 11:14:11.18,113,-103,-2055,17,-8,20,-248,53,-301,97
,229,2023-10-27 11:14:11.19,106,-106,-2053,17,-6,18,-405,-103,-302,254
,230,2023-10-27 11:14:11.20,108,-107,-2058,16,-2,21,-238,55,-293,91
,231,2023-10-27 11:14:11.21,114,-102,-2055,19,0,21,-407,-98,-309,252
,232,2023-10-27 11:14:11.22,91,-103,-2055,18,3,21,-241,52,-293,94
,233,2023-10-27 11:14:11.23,104,-106,-2057,18,2,21,-403,-86,-317,244
,234,2023-10-27 11:14:11.24,97,-97,-2056,17,1,20,-231,58,-289,86
,235,2023-10-27 11:14:11.25,109,-101,-2069,18,2,18,-404,-99,-305,251
,236,2023-10-27 11:14:11.26,92,-100,-2068,15,-4,17,-225,47,-272,89
,237,2023-10-27 11:14:11.27,95,-105,-2070,19,-7,15,-407,-99,-308,253
,238,2023-10-27 11:14:11.28,81,-106,-2064,19,-14,15,-239,49,-288,95
,239,2023-10-27 11:14:11.29,109,-109,-2053,12,2,12,-415,-106,-309,260
,240,2023-10-27 11:14:11.30,101,-103,-2047,10,5,13,-242,40,-282,101
,241,2023-10-27 11:14:11.31,98,-109,-2038,12,-3,12,-417,-99,-318,258
,242,2023-10-27 11:14:11.32,95,-115,-2053,15,-1,11,-234,41,-275,96
,243,2023-10-27 11:14:11.33,95,-104,-2048,15,8,12,-408,-99,-309,253
,244,2023-10-27 11:14:11.34,100,-121,-2050,14,15,12,-228,44,-272,92
,245,2023-10-27 11:14:11.35,95,-120,-2050,12,20,13,-406,-96,-310,251
,246,2023-10-27 11:14:11.36,92,-124,-2062,12,26,15,-228,38,-266,95
,247,2023-10-27 11:14:11.37,93,-120,-2059,9,32,17,-410,-89,-321,249
,248,2023-10-27 11:14:11.38,102,-111,-2055,4,39,20,-236,38,-274,99
,249,2023-10-27 11:14:11.39,95,-114,-2057,0,43,15,-413,-88,-325,250
,250,2023-10-27 11:14:11.40,93,-107,-2069,-6,45,15,-229,38,-267,95
,251,2023-10-27 11:14:11.41,101,-100,-2065,-11,37,14,-413,-86,-327,249
,252,2023-10-27 11:14:11.42,89,-101,-2055,-16,35,16,-235,30,-265,102
,253,2023-10-27 11:14:11.43,94,-108,-2050,-19,36,12,-424,-102,-322,263
,254,2023-10-27 11:14:11.44,109,-98,-2053,-24,38,14,-248,15,-263,116
,255,2023-10-27 11:14:11.45,96,-95,-2049,-31,41,11,-423,-101,-322,262
,256,2023-10-27 11:14:11.46,104,-82,-2050,-32,41,11,-247,18,-265,114
,257,2023-10-27 11:14:11.47,115,-83,-2045,-36,44,6,-428,-95,-333,261
,258,2023-10-27 11:14:11.48,90,-82,-2075,-54,41,9,-261,0,-261,130
,259,2023-10-27 11:14:11.49,117,-113,-2021,-57,38,7,-434,-101,-333,267
,260,2023-10-27 11:14:11.50,108,-93,-2040,-43,54,2,-252,12,-264,120
,261,2023-10-27 11:14:11.51,93,-83,-2074,-41,56,-3,-432,-91,-341,261
,262,2023-10-27 11:14:11.52,100,-97,-2027,-42,34,-2,-260,7,-267,126
,263,2023-10-27 11:14:11.53,108,-86,-2034,-16,23,2,-429,-104,-325,266
,264,2023-10-27 11:14:11.54,127,-85,-2069,-11,29,-1,-254,-6,-248,130
,265,2023-10-27 11:14:11.55,117,-79,-2057,-19,46,-9,-422,-99,-323,260
,266,2023-10-27 11:14:11.56,113,-86,-2052,-20,53,-10,-250,-5,-245,127
,267,2023-10-27 11:14:11.57,112,-86,-2058,-11,30,-11,-416,-85,-331,250
,268,2023-10-27 11:14:11.58,133,-87,-2068,-2,29,-9,-241,-4,-237,122
,269,2023-10-27 11:14:11.59,121,-86,-2056,-3,49,-15,-411,-84,-327,247
,270,2023-10-27 11:14:11.60,118,-85,-2048,-8,54,-15,-243,-1,-242,122
,271,2023-10-27 11:14:11.61,123,-91,-2043,-6,52,-18,-410,-84,-326,247
,272,2023-10-27 11:14:11.62,141,-93,-2053,2,45,-18,-241,-5,-236,123
,273,2023-10-27 11:14:11.63,147,-91,-2059,7,53,-18,-410,-77,-333,243
,274,2023-10-27 11:14:11.64,120,-91,-2062,10,48,-18,-252,-10,-242,131
,275,2023-10-27 11:14:11.65,141,-89,-2070,9,46,-18,-414,-72,-342,243
,276,2023-10-27 11:14:11.66,132,-88,-2059,11,50,-16,-249,-5,-244,127
,277,2023-10-27 11:14:11.67,134,-92,-2059,15,40,-18,-406,-68,-338,237
,278,2023-10-27 11:14:11.68,144,-82,-2062,13,34,-15,-250,-5,-245,127
,279,2023-10-27 11:14:11.69,147,-82,-2057,3,51,-17,-405,-74,-331,239
,280,2023-10-27 11:14:11.70,136,-90,-2046,-1,45,-16,-258,-25,-233,141
,281,2023-10-27 11:14:11.71,145,-92,-2045,-4,35,-16,-405,-67,-338,236
,282,2023-10-27 11:14:11.72,139,-96,-2055,-4,32,-14,-255,-21,-234,138
,283,2023-10-27 11:14:11.73,132,-83,-2067,-10,33,-12,-391,-64,-327,227
,284,2023-10-27 11:14:11.74,145,-90,-2073,-20,36,-7,-248,-27,-221,137
,285,2023-10-27 11:14:11.75,138,-105,-2064,-25,30,-4,-394,-58,-336,226
,286,2023-10-27 11:14:11.76,138,-93,-2056,-23,17,0,-250,-22,-228,136
,287,2023-10-27 11:14:11.77,139,-97,-2053,-17,13,-1,-400,-54,-346,227
,288,2023-10-27 11:14:11.78,148,-85,-2047,-13,16,-5,-262,-28,-234,145
,289,2023-10-27 11:14:11.79,165,-70,-2055,-16,20,-10,-392,-48,-344,220
,290,2023-10-27 11:14:11.80,151,-73,-2060,-21,23,-15,-256,-20,-236,138
,291,2023-10-27 11:14:11.81,141,-69,-2060,-30,18,-19,-386,-44,-342,215
,292,2023-10-27 11:14:11.82,156,-80,-2055,-39,11,-21,-258,-28,-230,143
,293,2023-10-27 11:14:11.83,155,-82,-2058,-40,8,-21,-394,-44,-350,219
,294,2023-10-27 11:14:11.84,153,-89,-2052,-38,6,-24,-271,-31,-240,151
,295,2023-10-27 11:14:11.85,165,-82,-2066,-40,2,-25,-385,-42,-343,213
,296,2023-10-27 11:14:11.86,152,-81,-2059,-41,1,-22,-260,-32,-228,146
,297,2023-10-27 11:14:11.87,157,-93,-2055,-42,-2,-21,-381,-40,-341,210
,298,2023-10-27 11:14:11.88,154,-88,-2055,-43,-4,-21,-271,-37,-234,154
,299,2023-10-27 11:14:11.89,153,-93,-2053,-47,-5,-18,-380,-22,-358,201
,300,2023-10-27 11:14:11.90,147,-95,-2055,-42,-4,-12,-268,-28,-240,148
,301,2023-10-27 11:14:11.91,157,-84,-2053,-40,-2,-8,-378,-24,-354,201
,302,2023-10-27 11:14:11.92,145,-86,-2054,-41,-1,-6,-272,-46,-226,159
,303,2023-10-27 11:14:11.93,155,-87,-2060,-48,-1,0,-389,-34,-355,211
,304,2023-10-27 11:14:11.94,126,-86,-2072,-46,-2,2,-284,-47,-237,165
,305,2023-10-27 11:14:11.95,136,-70,-2070,-47,-14,10,-375,-16,-359,195
,306,2023-10-27 11:14:11.96,136,-75,-2067,-46,-29,12,-279,-31,-248,155
,307,2023-10-27 11:14:11.97,131,-71,-2068,-47,-37,19,-366,-5,-361,185
,308,2023-10-27 11:14:11.98,133,-66,-2067,-45,-45,23,-277,-43,-234,160
,309,2023-10-27 11:14:11.99,139,-64,-2061,-45,-48,27,-365,-8,-357,186
,310,2023-10-27 11:14:12.00,134,-69,-2058,-46,-52,30,-282,-47,-235,164
,311,2023-10-27 11:14:12.01,140,-56,-2058,-46,-47,31,-367,-4,-363,185
,312,2023-10-27 11:14:12.02,126,-58,-2059,-43,-51,30,-286,-45,-241,165
,313,2023-10-27 11:14:12.03,129,-65,-2056,-39,-47,32,-363,-12,-351,187
,314,2023-10-27 11:14:12.04,124,-59,-2054,-32,-47,29,-288,-58,-230,173
,315,2023-10-27 11:14:12.05,124,-54,-2060,-26,-48,32,-362,-5,-357,183
,316,2023-10-27 11:14:12.06,116,-60,-2060,-22,-51,32,-298,-58,-240,178
,317,2023-10-27 11:14:12.07,138,-40,-2031,-15,-45,28,-352,0,-352,176
,318,2023-10-27 11:14:12.08,138,-25,-2049,-5,-33,25,-291,-57,-234,174
,319,2023-10-27 11:14:12.09,120,-39,-2070,-9,-29,21,-355,1,-356,177
,320,2023-10-27 11:14:12.10,110,-41,-2064,-17,-31,20,-297,-60,-237,178
,321,2023-10-27 11:14:12.11,116,-47,-2044,-7,-35,18,-347,2,-349,172
,322,2023-10-27 11:14:12.12,101,-42,-2065,0,-31,16,-290,-58,-232,174
,323,2023-10-27 11:14:12.13,104,-45,-2073,-7,-31,17,-329,8,-337,160
,324,2023-10-27 11:14:12.14,111,-41,-2082,-16,-23,19,-295,-64,-231,179
,325,2023-10-27 11:14:12.15,108,-33,-2053,-20,-23,18,-343,7,-350,168
,326,2023-10-27 11:14:12.16,106,-35,-2045,-16,-24,21,-308,-79,-229,193
,327,2023-10-27 11:14:12.17,114,-41,-2039,-14,-29,23,-340,9,-349,165
,328,2023-10-27 11:14:12.18,109,-32,-2044,-9,-25,24,-310,-78,-232,194
,329,2023-10-27 11:14:12.19,116,-42,-2046,-8,-19,26,-339,8,-347,165
,330,2023-10-27 11:14:12.20,118,-43,-2049,-8,-5,24,-314,-83,-231,198
,331,2023-10-27 11:14:12.21,94,-54,-2060,-6,-9,28,-329,8,-337,160
,332,2023-10-27 11:14:12.22,111,-52,-2058,-1,-17,35,-310,-82,-228,196
,333,2023-10-27 11:14:12.23,115,-47,-2061,5,-15,38,-331,16,-347,157
,334,2023-10-27 11:14:12.24,122,-44,-2044,14,-12,40,-323,-82,-241,202
,335,2023-10-27 11:14:12.25,116,-38,-2058,16,-6,42,-326,15,-341,155
,336,2023-10-27 11:14:12.26,116,-46,-2061,17,-7,45,-324,-88,-236,206
,337,2023-10-27 11:14:12.27,112,-44,-2060,23,-6,45,-332,19,-351,156
,338,2023-10-27 11:14:12.28,126,-48,-2047,27,2,47,-336,-92,-244,214
,339,2023-10-27 11:14:12.29,112,-51,-2051,29,5,45,-336,19,-355,158
,340,2023-10-27 11:14:12.30,109,-52,-2054,33,12,45,-340,-88,-252,214
,341,2023-10-27 11:14:12.31,111,-52,-2056,43,17,44,-340,27,-367,156
,342,2023-10-27 11:14:12.32,109,-48,-2051,47,16,43,-349,-85,-264,217
,343,2023-10-27 11:14:12.33,117,-53,-2057,48,14,41,-320,38,-358,141
,344,2023-10-27 11:14:12.34,103,-64,-2059,52,10,37,-342,-79,-263,210
,345,2023-10-27 11:14:12.35,110,-61,-2067,50,2,39,-325,42,-367,141
,346,2023-10-27 11:14:12.36,123,-58,-2054,52,-2,40,-358,-90,-268,224
,347,2023-10-27 11:14:12.37,129,-59,-2054,53,3,39,-325,41,-366,142
,348,2023-10-27 11:14:12.38,128,-62,-2046,48,2,38,-357,-85,-272,221
,349,2023-10-27 11:14:12.39,117,-64,-2057,44,5,35,-317,55,-372,131
,350,2023-10-27 11:14:12.40,114,-64,-2065,44,8,35,-354,-77,-277,215
,351,2023-10-27 11:14:12.41,125,-64,-2062,42,2,37,-305,59,-364,123
,352,2023-10-27 11:14:12.42,116,-63,-2072,40,-3,42,-343,-79,-264,211
,353,2023-10-27 11:14:12.43,118,-59,-2075,35,-7,42,-286,53,-339,116
,354,2023-10-27 11:14:12.44,111,-60,-2070,32,-17,44,-348,-91,-257,219
,355,2023-10-27 11:14:12.45,97,-63,-2076,32,-25,53,-282,46,-328,118
,356,2023-10-27 11:14:12.46,105,-59,-2065,33,-31,51,-352,-91,-261,221
,357,2023-10-27 11:14:12.47,125,-61,-2063,33,-33,52,-284,49,-333,117
,358,2023-10-27 11:14:12.48,146,-52,-2083,15,4,50,-345,-95,-250,220
,359,2023-10-27 11:14:12.49,89,-54,-2050,13,-4,44,-271,67,-338,102
,360,2023-10-27 11:14:12.50,117,-63,-2046,22,-25,50,-346,-99,-247,222
,361,2023-10-27 11:14:12.51,109,-72,-2064,27,-33,59,-262,34,-296,114
,362,2023-10-27 11:14:12.52,108,-58,-2068,31,-35,55,-352,-116,-236,234
,363,2023-10-27 11:14:12.53,121,-62,-2074,28,-18,56,-264,48,-312,108
,364,2023-10-27 11:14:12.54,96,-54,-2061,24,-24,53,-349,-106,-243,227
,365,2023-10-27 11:14:12.55,113,-57,-2065,29,-32,57,-262,49,-311,106
,366,2023-10-27 11:14:12.56,103,-61,-2065,32,-35,58,-357,-106,-251,231
,367,2023-10-27 11:14:12.57,88,-63,-2055,35,-36,57,-266,40,-306,113
,368,2023-10-27 11:14:12.58,116,-67,-2045,24,-26,60,-362,-115,-247,238
,369,2023-10-27 11:14:12.59,93,-73,-2060,25,-24,64,-249,43,-292,103
,370,2023-10-27 11:14:12.60,99,-66,-2060,30,-36,67,-348,-103,-245,225
,371,2023-10-27 11:14:12.61,110,-61,-2064,33,-31,71,-243,69,-312,87
,372,2023-10-27 11:14:12.62,101,-49,-2041,29,-23,69,-347,-99,-248,223
,373,2023-10-27 11:14:12.63,90,-66,-2051,26,-23,67,-224,51,-275,86
,374,2023-10-27 11:14:12.64,101,-70,-2054,23,-28,73,-344,-101,-243,222
,375,2023-10-27 11:14:12.65,128,-65,-2076,26,-22,77,-240,62,-302,89
,376,2023-10-27 11:14:12.66,94,-79,-2071,28,-17,81,-360,-91,-269,225
,377,2023-10-27 11:14:12.67,88,-71,-2063,27,-16,88,-226,88,-314,69
,378,2023-10-27 11:14:12.68,94,-86,-2065,33,-22,99,-336,-74,-262,205
,379,2023-10-27 11:14:12.69,104,-94,-2049,37,-38,120,-194,101,-295,46
,380,2023-10-27 11:14:12.70,97,-104,-2058,44,-25,129,-318,-53,-265,185
,381,2023-10-27 11:14:12.71,83,-90,-2046,42,-25,146,-186,115,-301,35
,382,2023-10-27 11:14:12.72,103,-67,-2045,41,-25,158,-318,-44,-274,181
,383,2023-10-27 11:14:12.73,95,-70,-2050,38,-23,167,-184,121,-305,31
,384,2023-10-27 11:14:12.74,109,-81,-2037,35,-20,173,-322,-40,-282,181
,385,2023-10-27 11:14:12.75,109,-87,-2040,43,-17,172,-176,135,-311,20
,386,2023-10-27 11:14:12.76,107,-90,-2045,49,-8,177,-333,-20,-313,176
,387,2023-10-27 11:14:12.77,94,-84,-2050,49,-9,174,-197,154,-351,21
,388,2023-10-27 11:14:12.78,99,-71,-2072,48,-13,174,-350,-13,-337,181
,389,2023-10-27 11:14:12.79,110,-78,-2072,44,-23,174,-206,161,-367,22
,390,2023-10-27 11:14:12.80,107,-82,-2069,48,-25,167,-374,3,-377,185
,391,2023-10-27 11:14:12.81,88,-83,-2067,58,-31,158,-228,166,-394,31
,392,2023-10-27 11:14:12.82,86,-87,-2054,65,-35,148,-384,0,-384,192
,393,2023-10-27 11:14:12.83,70,-74,-2062,69,-44,140,-245,167,-412,39
,394,2023-10-27 11:14:12.84,92,-79,-2060,64,-44,129,-409,2,-411,203
,395,2023-10-27 11:14:12.85,88,-80,-2052,70,-47,115,-266,156,-422,55
,396,2023-10-27 11:14:12.86,87,-78,-2051,79,-51,100,-431,-4,-427,217
,397,2023-10-27 11:14:12.87,91,-70,-2049,84,-50,82,-286,147,-433,69
,398,2023-10-27 11:14:12.88,97,-73,-2050,88,-40,61,-446,-19,-427,232
,399,2023-10-27 11:14:12.89,88,-80,-2051,86,-31,46,-284,140,-424,72
,400,2023-10-27 11:14:12.90,74,-90,-2050,94,-39,33,-436,-6,-430,221
,401,2023-10-27 11:14:12.91,97,-109,-2039,93,-31,22,-276,150,-426,63
,402,2023-10-27 11:14:12.92,80,-114,-2039,93,-23,11,-438,-7,-431,222
,403,2023-10-27 11:14:12.93,67,-124,-2042,95,-21,2,-285,134,-419,75
,404,2023-10-27 11:14:12.94,82,-102,-2061,98,-19,-6,-448,-14,-434,231
,405,2023-10-27 11:14:12.95,68,-103,-2058,98,-26,-11,-286,131,-417,77
,406,2023-10-27 11:14:12.96,62,-109,-2046,83,-19,-17,-456,-39,-417,247
,407,2023-10-27 11:14:12.97,84,-109,-2066,77,-25,-23,-280,89,-369,95
,408,2023-10-27 11:14:12.98,61,-128,-2045,72,-23,-26,-454,-77,-377,265
,409,2023-10-27 11:14:12.99,68,-127,-2054,69,-15,-30,-290,56,-346,117
,410,2023-10-27 11:14:13.00,61,-144,-2048,69,-13,-33,-450,-101,-349,275
,411,2023-10-27 11:14:13.01,61,-131,-2073,56,-3,-37,-266,43,-309,111
,412,2023-10-27 11:14:13.02,48,-121,-2072,50,-5,-39,-430,-117,-313,273
,413,2023-10-27 11:14:13.03,66,-114,-2074,42,-5,-42,-249,12,-261,118
,414,2023-10-27 11:14:13.04,40,-126,-2071,39,-11,-50,-420,-99,-321,259
,415,2023-10-27 11:14:13.05,37,-122,-2063,30,-8,-54,-236,59,-295,88
,416,2023-10-27 11:14:13.06,47,-112,-2035,17,-1,-54,-421,-75,-346,248
,417,2023-10-27 11:14:13.07,47,-110,-2043,6,10,-63,-251,66,-317,92
,418,2023-10-27 11:14:13.08,53,-121,-2043,-2,26,-69,-424,-70,-354,247
,419,2023-10-27 11:14:13.09,33,-113,-2043,-13,30,-76,-242,58,-300,92
,420,2023-10-27 11:14:13.10,41,-98,-2059,-28,31,-77,-413,-74,-339,243
,421,2023-10-27 11:14:13.11,39,-97,-2068,-45,38,-87,-237,48,-285,94
,422,2023-10-27 11:14:13.12,31,-86,-2072,-62,45,-95,-420,-70,-350,245
,423,2023-10-27 11:14:13.13,27,-88,-2069,-82,52,-103,-241,54,-295,93
,424,2023-10-27 11:14:13.14,34,-76,-2057,-97,59,-109,-416,-83,-333,249
,425,2023-10-27 11:14:13.15,43,-76,-2063,-119,68,-116,-237,33,-270,102
,426,2023-10-27 11:14:13.16,30,-56,-2024,-135,65,-119,-419,-83,-336,251
,427,2023-10-27 11:14:13.17,40,-62,-2029,-132,56,-114,-253,27,-280,113
,428,2023-10-27 11:14:13.18,65,-81,-2032,-141,75,-116,-429,-91,-338,260
,429,2023-10-27 11:14:13.19,59,-77,-2033,-143,89,-117,-245,13,-258,116
,430,2023-10-27 11:14:13.20,64,-80,-2035,-128,83,-115,-432,-88,-344,260
,431,2023-10-27 11:14:13.21,65,-69,-2038,-114,84,-113,-267,24,-291,121
,432,2023-10-27 11:14:13.22,74,-68,-2039,-102,87,-108,-439,-80,-359,259
,433,2023-10-27 11:14:13.23,88,-49,-2045,-102,97,-106,-256,17,-273,119
,434,2023-10-27 11:14:13.24,91,-49,-2046,-97,93,-102,-424,-89,-335,256
,435,2023-10-27 11:14:13.25,78,-46,-2062,-93,92,-104,-258,7,-265,125
,436,2023-10-27 11:14:13.26,103,-59,-2067,-79,94,-102,-428,-80,-348,254
,437,2023-10-27 11:14:13.27,105,-51,-2079,-65,86,-99,-249,12,-261,118
,438,2023-10-27 11:14:13.28,101,-57,-2070,-49,75,-94,-425,-71,-354,248
,439,2023-10-27 11:14:13.29,95,-54,-2062,-32,73,-90,-254,18,-272,118
,440,2023-10-27 11:14:13.30,118,-56,-2061,-17,66,-87,-435,-77,-358,256
,441,2023-10-27 11:14:13.31,129,-55,-2059,-1,64,-82,-260,6,-266,127
,442,2023-10-27 11:14:13.32,108,-59,-2064,10,59,-80,-428,-71,-357,249
,443,2023-10-27 11:14:13.33,121,-57,-2072,29,48,-74,-263,17,-280,123
,444,2023-10-27 11:14:13.34,120,-65,-2067,47,47,-72,-422,-58,-364,240
,445,2023-10-27 11:14:13.35,120,-68,-2065,64,49,-65,-243,13,-256,115
,446,2023-10-27 11:14:13.36,140,-73,-2061,71,56,-61,-407,-53,-354,230
,447,2023-10-27 11:14:13.37,142,-75,-2055,80,61,-57,-243,18,-261,112
,448,2023-10-27 11:14:13.38,135,-79,-2056,93,53,-50,-394,-41,-353,217
,449,2023-10-27 11:14:13.39,148,-90,-2058,111,43,-43,-231,27,-258,102
,450,2023-10-27 11:14:13.40,142,-89,-2051,125,46,-38,-374,-19,-355,196
,451,2023-10-27 11:14:13.41,138,-101,-2071,138,47,-33,-215,27,-242,94
,452,2023-10-27 11:14:13.42,128,-98,-2057,147,45,-30,-361,-12,-349,186
,453,2023-10-27 11:14:13.43,135,-105,-2061,156,40,-25,-203,31,-234,86
,454,2023-10-27 11:14:13.44,122,-108,-2064,168,34,-23,-338,-15,-323,176
,455,2023-10-27 11:14:13.45,145,-119,-2066,169,30,-19,-185,29,-214,78
,456,2023-10-27 11:14:13.46,130,-115,-2059,170,32,-20,-326,-10,-316,168
,457,2023-10-27 11:14:13.47,132,-118,-2046,174,37,-22,-189,23,-212,83
,458,2023-10-27 11:14:13.48,143,-121,-2031,187,43,-31,-330,-16,-314,173
,459,2023-10-27 11:14:13.49,125,-148,-2068,187,57,-40,-204,4,-208,100
,460,2023-10-27 11:14:13.50,118,-148,-2080,194,45,-44,-354,-28,-326,191
,461,2023-10-27 11:14:13.51,143,-135,-2083,199,39,-46,-220,-10,-210,115
,462,2023-10-27 11:14:13.52,119,-137,-2068,194,32,-49,-358,-41,-317,199
,463,2023-10-27 11:14:13.53,113,-149,-2063,186,12,-50,-233,-19,-214,126
,464,2023-10-27 11:14:13.54,135,-148,-2055,185,-6,-50,-368,-38,-330,203
,465,2023-10-27 11:14:13.55,126,-153,-2046,178,-7,-53,-247,-22,-225,134
,466,2023-10-27 11:14:13.56,125,-158,-2037,167,-8,-55,-370,-25,-345,197
,467,2023-10-27 11:14:13.57,133,-156,-2035,156,-6,-57,-251,-20,-231,135
,468,2023-10-27 11:14:13.58,125,-162,-2044,141,-4,-55,-369,-29,-340,199
,469,2023-10-27 11:14:13.59,131,-166,-2045,129,-1,-53,-256,-28,-228,142
,470,2023-10-27 11:14:13.60,140,-177,-2052,119,6,-51,-380,-32,-348,206
,471,2023-10-27 11:14:13.61,127,-189,-2046,110,6,-45,-275,-35,-240,155
,472,2023-10-27 11:14:13.62,127,-198,-2053,99,13,-37,-386,-45,-341,215
,473,2023-10-27 11:14:13.63,142,-198,-2052,90,20,-28,-282,-58,-224,170
,474,2023-10-27 11:14:13.64,139,-182,-2056,78,33,-23,-392,-51,-341,221
,475,2023-10-27 11:14:13.65,133,-195,-2048,67,38,-19,-292,-63,-229,177
,476,2023-10-27 11:14:13.66,152,-185,-2051,59,46,-12,-385,-40,-345,212
,477,2023-10-27 11:14:13.67,147,-191,-2051,58,49,-6,-285,-59,-226,172
,478,2023-10-27 11:14:13.68,138,-193,-2040,56,61,-3,-381,-33,-348,207
,479,2023-10-27 11:14:13.69,150,-184,-2049,49,69,0,-296,-59,-237,177
,480,2023-10-27 11:14:13.70,158,-183,-2048,39,80,1,-375,-23,-352,199
,481,2023-10-27 11:14:13.71,157,-168,-2046,36,83,1,-286,-51,-235,168
,482,2023-10-27 11:14:13.72,155,-180,-2035,36,79,0,-355,-11,-344,183
,483,2023-10-27 11:14:13.73,148,-175,-2053,36,77,3,-277,-53,-224,165
,484,2023-10-27 11:14:13.74,165,-170,-2047,37,64,1,-355,-10,-345,182
,485,2023-10-27 11:14:13.75,170,-163,-2057,33,62,-3,-284,-54,-230,169
,486,2023-10-27 11:14:13.76,165,-175,-2062,35,55,-7,-360,-7,-353,183
,487,2023-10-27 11:14:13.77,167,-177,-2067,41,50,-8,-289,-50,-239,169
,488,2023-10-27 11:14:13.78,169,-175,-2067,44,44,-13,-351,-2,-349,176
,489,2023-10-27 11:14:13.79,147,-180,-2051,46,44,-15,-286,-62,-224,174
,490,2023-10-27 11:14:13.80,177,-177,-2065,49,30,-14,-352,-1,-351,176
,491,2023-10-27 11:14:13.81,178,-184,-2056,49,27,-15,-298,-60,-238,179
,492,2023-10-27 11:14:13.82,155,-177,-2065,47,20,-15,-362,-2,-360,182
,493,2023-10-27 11:14:13.83,165,-184,-2054,46,13,-15,-311,-65,-246,188
,494,2023-10-27 11:14:13.84,154,-180,-2056,44,11,-17,-359,3,-362,178
,495,2023-10-27 11:14:13.85,149,-183,-2055,41,5,-16,-313,-58,-255,185
,496,2023-10-27 11:14:13.86,163,-176,-2045,38,-2,-16,-346,27,-373,159
,497,2023-10-27 11:14:13.87,160,-187,-2049,35,-7,-16,-303,-46,-257,174
,498,2023-10-27 11:14:13.88,154,-191,-2056,34,-12,-12,-332,38,-370,147
,499,2023-10-27 11:14:13.89,157,-199,-2048,35,-16,-9,-298,-49,-249,173
,500,2023-10-27 11:14:13.90,148,-199,-2054,35,-17,-2,-334,39,-373,147
,501,2023-10-27 11:14:13.91,159,-199,-2046,34,-23,0,-302,-45,-257,173
,502,2023-10-27 11:14:13.92,156,-210,-2045,34,-22,2,-326,40,-366,143
,503,2023-10-27 11:14:13.93,161,-205,-2054,32,-19,6,-304,-49,-255,176
,504,2023-10-27 11:14:13.94,162,-198,-2050,29,-16,9,-324,44,-368,140
,505,2023-10-27 11:14:13.95,170,-203,-2009,32,-16,5,-312,-60,-252,186
,506,2023-10-27 11:14:13.96,125,-187,-2064,31,4,8,-322,37,-359,142
,507,2023-10-27 11:14:13.97,135,-196,-2073,21,-9,11,-314,-69,-245,191
,508,2023-10-27 11:14:13.98,154,-205,-2053,16,-14,14,-329,36,-365,146
,509,2023-10-27 11:14:13.99,143,-199,-2038,21,-16,17,-330,-69,-261,199
,510,2023-10-27 11:14:14.00,140,-188,-2056,19,-11,18,-329,39,-368,145
,511,2023-10-27 11:14:14.01,137,-190,-2058,11,-12,17,-330,-75,-255,202
,512,2023-10-27 11:14:14.02,143,-196,-2041,5,-9,16,-327,28,-355,149
,513,2023-10-27 11:14:14.03,140,-200,-2052,5,-5,15,-338,-87,-251,212
,514,2023-10-27 11:14:14.04,132,-193,-2047,-1,-5,16,-320,28,-348,146
,515,2023-10-27 11:14:14.05,149,-202,-2039,-4,-2,15,-343,-91,-252,217
,516,2023-10-27 11:14:14.06,135,-204,-2058,-5,4,10,-325,28,-353,148
,517,2023-10-27 11:14:14.07,138,-174,-2047,-8,-1,9,-338,-95,-243,216
,518,2023-10-27 11:14:14.08,145,-170,-2040,-9,-4,1,-316,25,-341,145
,519,2023-10-27 11:14:14.09,136,-179,-2044,-8,-9,-5,-350,-100,-250,225
,520,2023-10-27 11:14:14.10,148,-178,-2034,1,-15,-16,-336,16,-352,160
,521,2023-10-27 11:14:14.11,132,-165,-2070,4,-15,-26,-364,-104,-260,234
,522,2023-10-27 11:14:14.12,144,-164,-2054,6,-25,-38,-318,29,-347,144
,523,2023-10-27 11:14:14.13,150,-184,-2030,13,-26,-42,-355,-106,-249,230
,524,2023-10-27 11:14:14.14,151,-176,-2080,12,-16,-55,-316,22,-338,147
,525,2023-10-27 11:14:14.15,130,-177,-2131,-21,-4,-63,-364,-115,-249,239
,526,2023-10-27 11:14:14.16,131,-191,-2037,-39,-21,-65,-323,10,-333,156
,527,2023-10-27 11:14:14.17,143,-177,-2054,-26,-24,-65,-376,-118,-258,247
,528,2023-10-27 11:14:14.18,146,-183,-2039,-21,-33,-70,-314,19,-333,147
,529,2023-10-27 11:14:14.19,140,-181,-2037,-25,-25,-74,-375,-122,-253,248
,530,2023-10-27 11:14:14.20,134,-180,-2050,-24,-31,-76,-312,22,-334,145
,531,2023-10-27 11:14:14.21,149,-186,-2048,-26,-25,-75,-380,-125,-255,252
,532,2023-10-27 11:14:14.22,138,-181,-2044,-22,-23,-75,-313,22,-335,145
,533,2023-10-27 11:14:14.23,132,-190,-2044,-26,-21,-73,-384,-122,-262,253
,534,2023-10-27 11:14:14.24,133,-188,-2049,-27,-16,-71,-312,22,-334,145
,535,2023-10-27 11:14:14.25,135,-178,-2057,-30,-10,-66,-395,-127,-268,261
,536,2023-10-27 11:14:14.26,136,-186,-2052,-32,-18,-62,-309,26,-335,141
,537,2023-10-27 11:14:14.27,133,-181,-2046,-35,-14,-57,-391,-119,-272,255
,538,2023-10-27 11:14:14.28,135,-182,-2039,-37,-3,-53,-304,40,-344,132
,539,2023-10-27 11:14:14.29,142,-185,-2045,-34,-6,-46,-397,-117,-280,257
,540,2023-10-27 11:14:14.30,124,-188,-2050,-31,0,-43,-292,42,-334,125
,541,2023-10-27 11:14:14.31,136,-180,-2045,-33,7,-38,-383,-112,-271,247
,542,2023-10-27 11:14:14.32,152,-177,-2058,-28,7,-30,-275,44,-319,115
,543,2023-10-27 11:14:14.33,132,-185,-2050,-27,10,-27,-380,-112,-268,246
,544,2023-10-27 11:14:14.34,130,-170,-2050,-29,11,-19,-274,50,-324,112
,545,2023-10-27 11:14:14.35,133,-163,-2046,-26,5,-15,-386,-109,-277,247
,546,2023-10-27 11:14:14.36,129,-168,-2052,-25,-1,-11,-264,50,-314,107
,547,2023-10-27 11:14:14.37,120,-169,-2059,-25,-4,-10,-378,-109,-269,243
,548,2023-10-27 11:14:14.38,146,-165,-2053,-28,-3,-3,-240,66,-306,87
,549,2023-10-27 11:14:14.39,136,-165,-2055,-29,0,0,-354,-99,-255,226
,550,2023-10-27 11:14:14.40,130,-152,-2057,-31,-3,4,-215,67,-282,74
,551,2023-10-27 11:14:14.41,126,-157,-2054,-34,-5,9,-341,-92,-249,216
,552,2023-10-27 11:14:14.42,134,-163,-2055,-35,-6,11,-204,80,-284,62
,553,2023-10-27 11:14:14.43,140,-169,-2052,-32,-6,14,-342,-86,-256,214
,554,2023-10-27 11:14:14.44,145,-165,-2042,-38,8,14,-202,78,-280,62
,555,2023-10-27 11:14:14.45,140,-163,-2043,-31,11,16,-334,-90,-244,212
,556,2023-10-27 11:14:14.46,119,-153,-2046,-19,2,15,-176,79,-255,48
,557,2023-10-27 11:14:14.47,147,-159,-2057,-14,-3,18,-312,-87,-225,199
,558,2023-10-27 11:14:14.48,135,-137,-2049,-17,-4,16,-165,82,-247,41
,559,2023-10-27 11:14:14.49,141,-147,-2045,-16,-2,14,-330,-91,-239,210
,560,2023-10-27 11:14:14.50,147,-143,-2050,-18,5,9,-183,74,-257,54
,561,2023-10-27 11:14:14.51,145,-141,-2047,-19,7,4,-344,-96,-248,220
,562,2023-10-27 11:14:14.52,136,-144,-2051,-16,4,3,-166,78,-244,44
,563,2023-10-27 11:14:14.53,146,-148,-2056,-13,10,0,-320,-86,-234,203
,564,2023-10-27 11:14:14.54,144,-150,-2053,-11,13,-3,-168,82,-250,43
,565,2023-10-27 11:14:14.55,144,-151,-2046,-9,14,-2,-337,-85,-252,211
,566,2023-10-27 11:14:14.56,144,-156,-2049,-5,19,-5,-175,77,-252,49
,567,2023-10-27 11:14:14.57,149,-153,-2049,-2,21,-6,-352,-86,-266,219
,568,2023-10-27 11:14:14.58,148,-154,-2051,4,20,-5,-191,76,-267,57
,569,2023-10-27 11:14:14.59,147,-154,-2055,6,23,-6,-363,-89,-274,226
,570,2023-10-27 11:14:14.60,145,-155,-2054,9,23,-6,-204,70,-274,67
,571,2023-10-27 11:14:14.61,133,-150,-2053,13,21,-4,-377,-97,-280,237
,572,2023-10-27 11:14:14.62,161,-154,-2057,16,21,-4,-216,59,-275,78
,573,2023-10-27 11:14:14.63,155,-157,-2061,15,19,-3,-394,-99,-295,246
,574,2023-10-27 11:14:14.64,131,-154,-2050,16,14,1,-230,56,-286,87
,575,2023-10-27 11:14:14.65,144,-169,-2058,20,10,2,-416,-104,-312,260
,576,2023-10-27 11:14:14.66,142,-163,-2066,21,2,7,-259,44,-303,107
,577,2023-10-27 11:14:14.67,141,-164,-2062,21,-6,11,-442,-119,-323,280
,578,2023-10-27 11:14:14.68,140,-164,-2051,24,-11,15,-278,32,-310,123
,579,2023-10-27 11:14:14.69,141,-158,-2046,22,-12,19,-456,-114,-342,285
,580,2023-10-27 11:14:14.70,148,-168,-2045,20,-8,24,-298,30,-328,134
,581,2023-10-27 11:14:14.71,138,-170,-2045,18,-5,24,-481,-120,-361,300
,582,2023-10-27 11:14:14.72,161,-170,-2061,16,-2,25,-318,16,-334,151
,583,2023-10-27 11:14:14.73,141,-162,-2048,2,22,22,-500,-132,-368,316
,584,2023-10-27 11:14:14.74,129,-159,-2039,7,8,28,-329,10,-339,159
,585,2023-10-27 11:14:14.75,153,-171,-2058,10,1,28,-505,-138,-367,321
,586,2023-10-27 11:14:14.76,141,-162,-2056,9,-2,30,-337,4,-341,166
,587,2023-10-27 11:14:14.77,161,-149,-2046,9,-2,30,-501,-133,-368,317
,588,2023-10-27 11:14:14.78,166,-142,-2040,5,8,23,-320,2,-322,159
,589,2023-10-27 11:14:14.79,144,-143,-2048,-1,12,17,-491,-134,-357,312
,590,2023-10-27 11:14:14.80,127,-163,-2068,-4,6,14,-316,-9,-307,162
,591,2023-10-27 11:14:14.81,126,-158,-2074,-2,-5,15,-492,-135,-357,313
,592,2023-10-27 11:14:14.82,126,-168,-2073,4,-15,20,-309,-5,-304,157
,593,2023-10-27 11:14:14.83,157,-162,-2072,-10,1,21,-484,-128,-356,306
,594,2023-10-27 11:14:14.84,100,-161,-2043,-14,-6,25,-299,-1,-298,150
,595,2023-10-27 11:14:14.85,147,-161,-2049,-13,-15,27,-467,-118,-349,292
,596,2023-10-27 11:14:14.86,158,-158,-2048,-18,6,30,-281,3,-284,139
,597,2023-10-27 11:14:14.87,135,-158,-2015,-17,6,30,-456,-112,-344,284
,598,2023-10-27 11:14:14.88,152,-153,-2028,-21,16,31,-271,4,-275,133
,599,2023-10-27 11:14:14.89,141,-154,-2045,-29,29,31,-446,-109,-337,277
,600,2023-10-27 11:14:14.90,139,-152,-2052,-32,34,29,-268,5,-273,131
,601,2023-10-27 11:14:14.91,142,-138,-2051,-32,38,31,-450,-111,-339,280
,602,2023-10-27 11:14:14.92,143,-139,-2054,-34,37,30,-279,-11,-268,145
,603,2023-10-27 11:14:14.93,134,-144,-2054,-34,32,29,-444,-112,-332,278
,604,2023-10-27 11:14:14.94,144,-132,-2052,-29,31,29,-271,-17,-254,144
,605,2023-10-27 11:14:14.95,148,-137,-2054,-25,23,25,-441,-110,-331,275
,606,2023-10-27 11:14:14.96,143,-133,-2054,-18,17,18,-262,-20,-242,141
,607,2023-10-27 11:14:14.97,146,-127,-2051,-13,13,15,-440,-119,-321,279
,608,2023-10-27 11:14:14.98,159,-139,-2059,-6,10,13,-263,-28,-235,145
,609,2023-10-27 11:14:14.99,145,-135,-2055,-1,7,7,-434,-115,-319,274
,610,2023-10-27 11:14:15.00,161,-142,-2057,5,6,4,-258,-23,-235,140
,611,2023-10-27 11:14:15.01,152,-145,-2056,8,5,3,-426,-106,-320,266
,612,2023-10-27 11:14:15.02,139,-144,-2050,12,7,4,-256,-22,-234,139
,613,2023-10-27 11:14:15.03,142,-149,-2054,11,9,2,-426,-100,-326,263
,614,2023-10-27 11:14:15.04,138,-150,-2059,14,10,2,-256,-19,-237,137
,615,2023-10-27 11:14:15.05,156,-145,-2053,16,9,6,-428,-87,-341,257
,616,2023-10-27 11:14:15.06,159,-149,-2047,16,15,10,-256,-15,-241,135
,617,2023-10-27 11:14:15.07,142,-144,-2051,16,19,11,-421,-92,-329,256
,618,2023-10-27 11:14:15.08,152,-140,-2050,11,18,14,-257,-26,-231,141
,619,2023-10-27 11:14:15.09,149,-149,-2055,8,19,17,-428,-91,-337,259
,620,2023-10-27 11:14:15.10,154,-156,-2058,6,17,22,-268,-32,-236,150
,621,2023-10-27 11:14:15.11,145,-155,-2053,11,13,27,-429,-83,-346,256
,622,2023-10-27 11:14:15.12,163,-150,-2043,10,7,29,-266,-27,-239,146
,623,2023-10-27 11:14:15.13,148,-150,-2051,11,9,33,-422,-75,-347,248
,624,2023-10-27 11:14:15.14,140,-144,-2053,9,7,35,-264,-22,-242,143
,625,2023-10-27 11:14:15.15,156,-145,-2057,7,0,38,-418,-75,-343,246
,626,2023-10-27 11:14:15.16,143,-144,-2055,9,-5,41,-268,-30,-238,149
,627,2023-10-27 11:14:15.17,162,-141,-2056,11,-5,37,-413,-63,-350,238
,628,2023-10-27 11:14:15.18,163,-143,-2054,11,-8,37,-268,-23,-245,145
,629,2023-10-27 11:14:15.19,154,-141,-2051,10,-5,37,-414,-57,-357,235
,630,2023-10-27 11:14:15.20,150,-142,-2055,13,-8,33,-267,-28,-239,147
,631,2023-10-27 11:14:15.21,144,-144,-2054,12,-12,34,-410,-57,-353,233
,632,2023-10-27 11:14:15.22,145,-137,-2051,14,-13,33,-269,-30,-239,149
,633,2023-10-27 11:14:15.23,160,-142,-2048,14,-12,30,-412,-59,-353,235
,634,2023-10-27 11:14:15.24,165,-139,-2045,18,-6,27,-285,-39,-246,162
,635,2023-10-27 11:14:15.25,159,-148,-2042,18,-2,21,-412,-48,-364,230
,636,2023-10-27 11:14:15.26,162,-147,-2043,23,0,19,-273,-30,-243,151
,637,2023-10-27 11:14:15.27,154,-151,-2047,29,2,18,-399,-40,-359,219
,638,2023-10-27 11:14:15.28,147,-156,-2059,32,1,14,-275,-35,-240,155
,639,2023-10-27 11:14:15.29,142,-158,-2054,38,1,17,-401,-48,-353,224
,640,2023-10-27 11:14:15.30,140,-161,-2057,38,-4,20,-274,-41,-233,157
,641,2023-10-27 11:14:15.31,138,-155,-2062,38,-9,27,-401,-43,-358,222
,642,2023-10-27 11:14:15.32,129,-156,-2062,37,-19,32,-280,-42,-238,161
,643,2023-10-27 11:14:15.33,143,-151,-2065,33,-22,37,-400,-50,-350,225
,644,2023-10-27 11:14:15.34,134,-157,-2059,13,-4,35,-278,-54,-224,166
,645,2023-10-27 11:14:15.35,149,-154,-2055,10,-15,44,-396,-39,-357,217
,646,2023-10-27 11:14:15.36,149,-161,-2034,12,-19,45,-284,-49,-235,166
,647,2023-10-27 11:14:15.37,147,-158,-2038,16,-8,46,-388,-40,-348,214
,648,2023-10-27 11:14:15.38,151,-164,-2035,18,0,47,-282,-56,-226,169
,649,2023-10-27 11:14:15.39,147,-165,-2047,15,9,48,-386,-40,-346,213
,650,2023-10-27 11:14:15.40,152,-164,-2058,16,16,51,-291,-60,-231,175
,651,2023-10-27 11:14:15.41,139,-169,-2048,22,11,53,-388,-30,-358,209
,652,2023-10-27 11:14:15.42,142,-169,-2053,26,9,55,-299,-64,-235,181
,653,2023-10-27 11:14:15.43,130,-162,-2057,26,6,53,-391,-35,-356,213
,654,2023-10-27 11:14:15.44,127,-158,-2064,26,-5,59,-302,-73,-229,187
,655,2023-10-27 11:14:15.45,143,-159,-2069,30,-12,61,-384,-33,-351,208
,656,2023-10-27 11:14:15.46,132,-148,-2058,23,-3,57,-300,-68,-232,184
,657,2023-10-27 11:14:15.47,128,-142,-2059,12,4,52,-378,-26,-352,202
,658,2023-10-27 11:14:15.48,131,-146,-2058,4,1,51,-306,-82,-224,194
,659,2023-10-27 11:14:15.49,153,-148,-2062,5,-1,46,-379,-32,-347,205
,660,2023-10-27 11:14:15.50,141,-142,-2055,1,-5,45,-310,-88,-222,199
,661,2023-10-27 11:14:15.51,149,-145,-2043,-5,-3,42,-377,-28,-349,202
,662,2023-10-27 11:14:15.52,132,-151,-2047,-13,1,39,-313,-82,-231,197
,663,2023-10-27 11:14:15.53,133,-143,-2047,-13,5,37,-371,-20,-351,195
,664,2023-10-27 11:14:15.54,144,-146,-2042,-12,3,34,-315,-79,-236,197
,665,2023-10-27 11:14:15.55,133,-138,-2044,-12,1,31,-371,-17,-354,194
,666,2023-10-27 11:14:15.56,132,-135,-2053,-11,-4,28,-324,-91,-233,207
,667,2023-10-27 11:14:15.57,129,-145,-2057,-3,-19,28,-366,-15,-351,190
,668,2023-10-27 11:14:15.58,123,-150,-2061,-1,-25,29,-318,-95,-223,206
,669,2023-10-27 11:14:15.59,141,-158,-2059,1,-27,30,-364,-18,-346,191
,670,2023-10-27 11:14:15.60,138,-148,-2060,2,-28,32,-327,-99,-228,213
,671,2023-10-27 11:14:15.61,160,-160,-1988,19,-28,28,-360,-17,-343,188
,672,2023-10-27 11:14:15.62,131,-144,-2069,32,-2,28,-329,-97,-232,213
,673,2023-10-27 11:14:15.63,132,-164,-2065,25,-22,31,-353,-4,-349,178
,674,2023-10-27 11:14:15.64,143,-160,-2032,27,-20,29,-330,-100,-230,215
,675,2023-10-27 11:14:15.65,135,-156,-2058,35,-3,26,-351,-7,-344,179
,676,2023-10-27 11:14:15.66,124,-153,-2062,31,3,25,-340,-107,-233,223
,677,2023-10-27 11:14:15.67,137,-155,-2037,30,1,23,-362,-16,-346,189
,678,2023-10-27 11:14:15.68,134,-155,-2063,36,2,18,-348,-115,-233,231
,679,2023-10-27 11:14:15.69,130,-158,-2046,40,-4,16,-352,-14,-338,183
,680,2023-10-27 11:14:15.70,139,-163,-2039,43,-8,17,-347,-110,-237,228
,681,2023-10-27 11:14:15.71,134,-166,-2049,40,-5,16,-339,6,-345,166
,682,2023-10-27 11:14:15.72,142,-163,-2046,40,-8,13,-347,-115,-232,231
,683,2023-10-27 11:14:15.73,138,-176,-2047,37,3,14,-333,3,-336,165
,684,2023-10-27 11:14:15.74,143,-172,-2056,35,8,18,-340,-125,-215,232
,685,2023-10-27 11:14:15.75,138,-174,-2056,33,8,20,-320,8,-328,156
,686,2023-10-27 11:14:15.76,122,-173,-2064,31,0,21,-330,-112,-218,221
,687,2023-10-27 11:14:15.77,133,-165,-2056,28,0,25,-316,12,-328,152
,688,2023-10-27 11:14:15.78,142,-159,-2049,25,-3,24,-339,-123,-216,231
,689,2023-10-27 11:14:15.79,134,-160,-2053,18,0,22,-312,-3,-309,157
,690,2023-10-27 11:14:15.80,133,-165,-2067,12,-6,20,-342,-132,-210,237
,691,2023-10-27 11:14:15.81,118,-163,-2058,8,-13,18,-318,2,-320,158
,692,2023-10-27 11:14:15.82,143,-152,-2053,5,-12,17,-362,-128,-234,245
,693,2023-10-27 11:14:15.83,141,-147,-2047,7,-24,15,-322,12,-334,155
,694,2023-10-27 11:14:15.84,141,-161,-2016,8,-17,10,-351,-123,-228,237
,695,2023-10-27 11:14:15.85,137,-158,-2035,12,-11,8,-299,14,-313,142
,696,2023-10-27 11:14:15.86,137,-164,-2063,8,-13,5,-346,-124,-222,235
,697,2023-10-27 11:14:15.87,134,-166,-2061,3,-8,2,-289,20,-309,134
,698,2023-10-27 11:14:15.88,106,-164,-2053,-1,-10,0,-339,-121,-218,230
,699,2023-10-27 11:14:15.89,144,-158,-2049,1,-14,3,-274,35,-309,119
,700,2023-10-27 11:14:15.90,126,-152,-2052,1,-10,1,-336,-118,-218,227
,701,2023-10-27 11:14:15.91,118,-153,-2063,-3,-7,-1,-269,33,-302,118
,702,2023-10-27 11:14:15.92,125,-154,-2062,-9,-8,1,-334,-121,-213,227
,703,2023-10-27 11:14:15.93,124,-164,-2056,-11,-10,1,-262,36,-298,113
,704,2023-10-27 11:14:15.94,129,-159,-2065,-13,-8,4,-336,-118,-218,227
,705,2023-10-27 11:14:15.95,135,-163,-2053,-17,-8,7,-260,37,-297,111
,706,2023-10-27 11:14:15.96,123,-165,-2048,-18,-4,8,-341,-120,-221,230
,707,2023-10-27 11:14:15.97,134,-157,-2049,-16,1,9,-255,42,-297,106
,708,2023-10-27 11:14:15.98,130,-156,-2042,-18,1,11,-344,-126,-218,235
,709,2023-10-27 11:14:15.99,127,-152,-2053,-15,4,12,-253,33,-286,110
,710,2023-10-27 11:14:16.00,126,-147,-2054,-14,2,10,-347,-132,-215,239
,711,2023-10-27 11:14:16.01,124,-151,-2055,-9,-2,12,-253,36,-289,108
,712,2023-10-27 11:14:16.02,123,-147,-2056,-10,-6,15,-349,-123,-226,236
,713,2023-10-27 11:14:16.03,119,-149,-2054,-6,-14,13,-246,41,-287,102
,714,2023-10-27 11:14:16.04,108,-159,-2056,-1,-24,16,-349,-125,-224,237
,715,2023-10-27 11:14:16.05,123,-160,-2044,7,-28,17,-239,36,-275,101
,716,2023-10-27 11:14:16.06,133,-156,-2026,18,-12,13,-352,-131,-221,241
,717,2023-10-27 11:14:16.07,110,-156,-2070,21,-9,14,-240,44,-284,98
,718,2023-10-27 11:14:16.08,123,-160,-2050,14,-13,19,-356,-126,-230,241
,719,2023-10-27 11:14:16.09,125,-163,-2050,18,-5,18,-244,45,-289,99
,720,2023-10-27 11:14:16.10,123,-164,-2060,19,3,17,-364,-128,-236,246
,721,2023-10-27 11:14:16.11,119,-160,-2051,14,7,22,-238,38,-276,100
,722,2023-10-27 11:14:16.12,122,-158,-2051,9,18,23,-357,-121,-236,239
,723,2023-10-27 11:14:16.13,125,-165,-2051,9,23,24,-232,47,-279,92
,724,2023-10-27 11:14:16.14,120,-158,-2051,8,26,30,-368,-126,-242,247
,725,2023-10-27 11:14:16.15,122,-136,-2051,6,25,22,-242,34,-276,104
,726,2023-10-27 11:14:16.16,142,-130,-2045,9,23,17,-368,-125,-243,246
,727,2023-10-27 11:14:16.17,138,-141,-2047,12,32,10,-232,44,-276,94
,728,2023-10-27 11:14:16.18,138,-154,-2042,13,31,1,-367,-117,-250,242
,729,2023-10-27 11:14:16.19,131,-151,-2047,17,30,-7,-221,49,-270,86
,730,2023-10-27 11:14:16.20,129,-151,-2059,20,22,-13,-368,-119,-249,243
,731,2023-10-27 11:14:16.21,139,-149,-2054,24,8,-13,-227,48,-275,89
,732,2023-10-27 11:14:16.22,126,-155,-2050,29,0,-14,-382,-124,-258,253
,733,2023-10-27 11:14:16.23,129,-160,-2050,30,-10,-11,-233,45,-278,94
,734,2023-10-27 11:14:16.24,128,-154,-2050,26,-15,-12,-375,-131,-244,253
,735,2023-10-27 11:14:16.25,132,-157,-2047,15,-7,-10,-193,42,-235,75
,736,2023-10-27 11:14:16.26,127,-156,-2049,4,1,-11,-325,-108,-217,216
,737,2023-10-27 11:14:16.27,116,-161,-2054,0,-3,-6,-153,69,-222,42
,738,2023-10-27 11:14:16.28,139,-164,-2064,-3,3,-4,-340,-119,-221,229
,739,2023-10-27 11:14:16.29,109,-173,-2062,-6,8,0,-188,36,-224,76
,740,2023-10-27 11:14:16.30,128,-172,-2055,-6,-7,8,-365,-139,-226,252
,741,2023-10-27 11:14:16.31,132,-173,-2033,3,-13,16,-200,25,-225,87
,742,2023-10-27 11:14:16.32,124,-159,-2053,12,-2,19,-371,-143,-228,257
,743,2023-10-27 11:14:16.33,129,-156,-2075,5,-3,20,-207,23,-230,92
,744,2023-10-27 11:14:16.34,138,-159,-2052,-4,-5,23,-381,-144,-237,262
,745,2023-10-27 11:14:16.35,121,-156,-2058,-4,5,22,-210,15,-225,97
,746,2023-10-27 11:14:16.36,137,-157,-2059,-1,7,22,-389,-145,-244,267
,747,2023-10-27 11:14:16.37,135,-157,-2056,0,11,20,-216,16,-232,100
,748,2023-10-27 11:14:16.38,134,-156,-2052,0,14,16,-391,-151,-240,271
,749,2023-10-27 11:14:16.39,142,-157,-2055,1,18,13,-217,10,-227,103
,750,2023-10-27 11:14:16.40,133,-152,-2054,4,19,10,-394,-145,-249,269
,751,2023-10-27 11:14:16.41,120,-148,-2051,3,18,10,-217,10,-227,103
,752,2023-10-27 11:14:16.42,125,-164,-2059,6,16,8,-397,-143,-254,270
,753,2023-10-27 11:14:16.43,119,-162,-2064,7,12,9,-218,6,-224,106
,754,2023-10-27 11:14:16.44,125,-156,-2044,8,8,10,-402,-145,-257,273
,755,2023-10-27 11:14:16.45,132,-159,-2048,10,9,9,-219,6,-225,106
,756,2023-10-27 11:14:16.46,126,-159,-2054,11,7,12,-407,-149,-258,278
,757,2023-10-27 11:14:16.47,126,-156,-2047,12,4,9,-224,0,-224,112
,758,2023-10-27 11:14:16.48,130,-157,-2066,13,2,8,-407,-144,-263,275
,759,2023-10-27 11:14:16.49,128,-156,-2059,18,-8,7,-225,-4,-221,114
,760,2023-10-27 11:14:16.50,124,-159,-2055,21,-16,10,-409,-144,-265,276
,761,2023-10-27 11:14:16.51,104,-165,-2056,23,-19,10,-225,-7,-218,116
,762,2023-10-27 11:14:16.52,124,-165,-2055,23,-21,12,-411,-146,-265,278
,763,2023-10-27 11:14:16.53,114,-161,-2051,20,-20,13,-215,2,-217,106
,764,2023-10-27 11:14:16.54,121,-166,-2050,22,-22,13,-412,-144,-268,278
,765,2023-10-27 11:14:16.55,123,-159,-2044,22,-15,15,-226,-8,-218,117
,766,2023-10-27 11:14:16.56,131,-167,-2043,19,-5,13,-418,-155,-263,286
,767,2023-10-27 11:14:16.57,123,-164,-2036,13,7,12,-222,-16,-206,119
,768,2023-10-27 11:14:16.58,107,-162,-2059,6,21,13,-410,-142,-268,276
,769,2023-10-27 11:14:16.59,119,-164,-2041,-2,24,13,-226,-19,-207,122
,770,2023-10-27 11:14:16.60,121,-159,-2043,-9,35,12,-415,-141,-274,278
,771,2023-10-27 11:14:16.61,122,-158,-2055,-14,40,10,-225,-20,-205,122
,772,2023-10-27 11:14:16.62,116,-154,-2048,-21,43,8,-415,-144,-271,279
,773,2023-10-27 11:14:16.63,117,-155,-2053,-23,48,7,-229,-26,-203,127
,774,2023-10-27 11:14:16.64,121,-153,-2049,-23,47,6,-410,-136,-274,273
,775,2023-10-27 11:14:16.65,133,-158,-2056,-21,40,5,-222,-20,-202,121
,776,2023-10-27 11:14:16.66,128,-157,-2049,-17,36,2,-406,-130,-276,268
,777,2023-10-27 11:14:16.67,117,-140,-2052,-4,18,3,-223,-26,-197,124
,778,2023-10-27 11:14:16.68,158,-149,-2054,-6,23,-6,-406,-130,-276,268
,779,2023-10-27 11:14:16.69,131,-138,-2060,-6,33,-13,-221,-25,-196,123
,780,2023-10-27 11:14:16.70,135,-130,-2045,1,16,-18,-404,-125,-279,264
,781,2023-10-27 11:14:16.71,148,-140,-2058,4,11,-23,-219,-22,-197,120
,782,2023-10-27 11:14:16.72,136,-134,-2036,5,15,-30,-411,-142,-269,276
,783,2023-10-27 11:14:16.73,145,-121,-2033,10,11,-41,-247,-69,-178,158
,784,2023-10-27 11:14:16.74,138,-139,-2032,10,13,-48,-410,-151,-259,280
,785,2023-10-27 11:14:16.75,154,-143,-2051,9,18,-54,-207,-51,-156,129
,786,2023-10-27 11:14:16.76,159,-150,-2051,9,28,-62,-364,-119,-245,241
,787,2023-10-27 11:14:16.77,147,-150,-2060,12,38,-64,-186,-32,-154,109
,788,2023-10-27 11:14:16.78,149,-151,-2061,17,27,-66,-373,-117,-256,245
,789,2023-10-27 11:14:16.79,155,-140,-2052,21,23,-69,-212,-42,-170,127
,790,2023-10-27 11:14:16.80,150,-137,-2048,20,17,-73,-393,-124,-269,258
,791,2023-10-27 11:14:16.81,148,-138,-2045,17,20,-75,-241,-54,-187,147
,792,2023-10-27 11:14:16.82,157,-135,-2062,18,16,-78,-403,-117,-286,260
,793,2023-10-27 11:14:16.83,144,-146,-2069,19,12,-80,-241,-52,-189,146
,794,2023-10-27 11:14:16.84,161,-144,-2063,22,0,-85,-408,-116,-292,262
,795,2023-10-27 11:14:16.85,168,-143,-2063,23,-2,-85,-255,-57,-198,156
,796,2023-10-27 11:14:16.86,166,-138,-2048,27,-8,-91,-428,-118,-310,273
,797,2023-10-27 11:14:16.87,163,-140,-2060,28,-3,-99,-278,-64,-214,171
,798,2023-10-27 11:14:16.88,157,-146,-2076,28,5,-106,-439,-113,-326,276
,799,2023-10-27 11:14:16.89,153,-150,-2065,27,1,-109,-290,-67,-223,178
,800,2023-10-27 11:14:16.90,157,-160,-2065,28,3,-107,-445,-113,-332,279
,801,2023-10-27 11:14:16.91,147,-180,-2065,32,-5,-106,-296,-74,-222,185
,802,2023-10-27 11:14:16.92,139,-171,-2070,46,-23,-102,-451,-112,-339,281
,803,2023-10-27 11:14:16.93,145,-176,-2060,56,-31,-94,-307,-72,-235,189
,804,2023-10-27 11:14:16.94,151,-176,-2054,62,-39,-91,-437,-87,-350,262
,805,2023-10-27 11:14:16.95,140,-170,-2057,68,-44,-86,-292,-55,-237,173
,806,2023-10-27 11:14:16.96,130,-177,-2065,66,-44,-81,-417,-70,-347,243
,807,2023-10-27 11:14:16.97,117,-177,-2063,61,-48,-75,-286,-55,-231,170
,808,2023-10-27 11:14:16.98,128,-174,-2060,54,-52,-68,-413,-53,-360,233
,809,2023-10-27 11:14:16.99,120,-152,-2065,47,-58,-65,-276,-42,-234,159
,810,2023-10-27 11:14:17.00,118,-148,-2052,38,-62,-68,-404,-58,-346,231
,811,2023-10-27 11:14:17.01,135,-142,-2066,27,-61,-71,-261,-40,-221,150
,812,2023-10-27 11:14:17.02,135,-116,-2067,23,-60,-82,-390,-48,-342,219
,813,2023-10-27 11:14:17.03,141,-109,-2054,13,-57,-99,-267,-45,-222,156
,814,2023-10-27 11:14:17.04,139,-105,-2058,1,-40,-122,-385,-43,-342,214
,815,2023-10-27 11:14:17.05,135,-115,-2065,-11,-28,-141,-270,-47,-223,158
,816,2023-10-27 11:14:17.06,118,-134,-2077,-22,-28,-154,-393,-46,-347,219
,817,2023-10-27 11:14:17.07,116,-143,-2080,-21,-40,-167,-287,-58,-229,172
,818,2023-10-27 11:14:17.08,111,-140,-2087,-5,-70,-173,-405,-51,-354,228
,819,2023-10-27 11:14:17.09,122,-149,-2086,11,-86,-179,-293,-70,-223,181
,820,2023-10-27 11:14:17.10,130,-147,-2065,19,-82,-186,-392,-55,-337,223
,821,2023-10-27 11:14:17.11,132,-156,-2051,29,-79,-195,-291,-69,-222,180
,822,2023-10-27 11:14:17.12,134,-165,-2034,37,-79,-199,-394,-47,-347,220
,823,2023-10-27 11:14:17.13,134,-184,-2027,50,-68,-200,-306,-77,-229,191
,824,2023-10-27 11:14:17.14,128,-185,-2012,63,-51,-203,-406,-60,-346,233
,825,2023-10-27 11:14:17.15,125,-197,-2011,71,-35,-197,-315,-96,-219,205
,826,2023-10-27 11:14:17.16,123,-211,-2005,82,-23,-191,-405,-61,-344,233
,827,2023-10-27 11:14:17.17,112,-229,-2023,89,-7,-183,-308,-89,-219,198
,828,2023-10-27 11:14:17.18,110,-237,-2023,95,5,-167,-394,-58,-336,226
,829,2023-10-27 11:14:17.19,104,-239,-2025,97,19,-149,-324,-96,-228,210
,830,2023-10-27 11:14:17.20,107,-233,-2020,96,23,-134,-408,-57,-351,232
,831,2023-10-27 11:14:17.21,116,-210,-2015,90,30,-117,-330,-105,-225,217
,832,2023-10-27 11:14:17.22,94,-219,-1982,85,27,-107,-392,-48,-344,220
,833,2023-10-27 11:14:17.23,110,-211,-2029,86,9,-92,-314,-101,-213,207
,834,2023-10-27 11:14:17.24,122,-209,-2041,80,16,-83,-389,-51,-338,220
,835,2023-10-27 11:14:17.25,124,-181,-2053,67,24,-76,-336,-103,-233,219
,836,2023-10-27 11:14:17.26,128,-178,-2053,56,23,-76,-396,-37,-359,216
,837,2023-10-27 11:14:17.27,130,-163,-2039,32,27,-79,-331,-98,-233,214
,838,2023-10-27 11:14:17.28,123,-156,-2057,13,37,-81,-378,-28,-350,203
,839,2023-10-27 11:14:17.29,107,-170,-2064,0,27,-85,-324,-99,-225,211
,840,2023-10-27 11:14:17.30,152,-167,-2079,-25,42,-87,-380,-40,-340,210
,841,2023-10-27 11:14:17.31,96,-170,-2067,-42,60,-91,-346,-115,-231,230
,842,2023-10-27 11:14:17.32,121,-183,-2078,-42,26,-83,-384,-31,-353,207
,843,2023-10-27 11:14:17.33,132,-191,-2058,-42,16,-78,-331,-109,-222,220
,844,2023-10-27 11:14:17.34,110,-183,-2051,-34,7,-72,-371,-42,-329,206
,845,2023-10-27 11:14:17.35,121,-203,-2046,-30,-5,-61,-348,-115,-233,231
,846,2023-10-27 11:14:17.36,120,-204,-2059,-33,13,-53,-386,-33,-353,209
,847,2023-10-27 11:14:17.37,99,-208,-2046,-32,13,-45,-349,-128,-221,238
,848,2023-10-27 11:14:17.38,105,-204,-2054,-19,-8,-28,-377,-49,-328,213
,849,2023-10-27 11:14:17.39,125,-192,-2051,-9,-8,-15,-347,-127,-220,237
,850,2023-10-27 11:14:17.40,112,-172,-2054,-10,8,-19,-371,-34,-337,202
,851,2023-10-27 11:14:17.41,117,-166,-2052,-17,-2,-17,-371,-133,-238,252
,852,2023-10-27 11:14:17.42,123,-180,-2044,-16,-7,-11,-378,-34,-344,206
,853,2023-10-27 11:14:17.43,117,-176,-2049,-1,-19,-9,-374,-133,-241,253
,854,2023-10-27 11:14:17.44,106,-184,-2048,7,-24,-9,-365,-21,-344,193
,855,2023-10-27 11:14:17.45,109,-183,-2048,9,-31,-8,-358,-130,-228,244
,856,2023-10-27 11:14:17.46,114,-180,-2059,13,-35,-6,-354,-18,-336,186
,857,2023-10-27 11:14:17.47,114,-181,-2052,21,-38,-8,-357,-130,-227,243
,858,2023-10-27 11:14:17.48,119,-186,-2056,31,-43,-5,-351,-22,-329,186
,859,2023-10-27 11:14:17.49,124,-183,-2050,34,-39,-10,-367,-132,-235,249
,860,2023-10-27 11:14:17.50,120,-182,-2044,33,-28,-13,-358,-18,-340,188
,861,2023-10-27 11:14:17.51,122,-173,-2040,31,-18,-16,-390,-138,-252,264
,862,2023-10-27 11:14:17.52,117,-174,-2051,27,-10,-17,-373,-19,-354,196
,863,2023-10-27 11:14:17.53,113,-188,-2063,23,-8,-19,-395,-145,-250,270
,864,2023-10-27 11:14:17.54,102,-195,-2069,24,-12,-16,-356,-12,-344,184
,865,2023-10-27 11:14:17.55,114,-198,-2055,26,-20,-10,-378,-136,-242,257
,866,2023-10-27 11:14:17.56,118,-204,-2036,33,-14,-7,-333,-2,-331,167
,867,2023-10-27 11:14:17.57,92,-186,-2078,26,-2,-3,-369,-133,-236,251
,868,2023-10-27 11:14:17.58,126,-189,-2058,4,-8,-1,-325,-2,-323,163
,869,2023-10-27 11:14:17.59,127,-185,-2037,-9,13,1,-375,-138,-237,256
,870,2023-10-27 11:14:17.60,114,-181,-2045,-13,27,0,-322,6,-328,158
,871,2023-10-27 11:14:17.61,121,-179,-2043,-23,30,2,-376,-139,-237,257
,872,2023-10-27 11:14:17.62,131,-176,-2034,-29,44,1,-326,-2,-324,164
,873,2023-10-27 11:14:17.63,120,-194,-2058,-29,45,-3,-394,-146,-248,270
,874,2023-10-27 11:14:17.64,120,-181,-2056,-31,45,2,-343,-11,-332,177
,875,2023-10-27 11:14:17.65,107,-205,-2063,-24,39,3,-412,-151,-261,281
,876,2023-10-27 11:14:17.66,117,-187,-2058,-17,19,11,-333,0,-333,166
,877,2023-10-27 11:14:17.67,109,-172,-2050,-2,1,12,-403,-149,-254,276
,878,2023-10-27 11:14:17.68,129,-162,-2052,1,-3,11,-333,-7,-326,170
,879,2023-10-27 11:14:17.69,127,-157,-2048,-8,9,6,-413,-159,-254,286
,880,2023-10-27 11:14:17.70,119,-169,-2068,-13,8,0,-326,-3,-323,164
,881,2023-10-27 11:14:17.71,120,-171,-2077,-16,-2,-2,-401,-156,-245,278
,882,2023-10-27 11:14:17.72,114,-179,-2069,-13,-17,2,-311,-2,-309,156
,883,2023-10-27 11:14:17.73,121,-169,-2054,-12,-22,5,-401,-159,-242,280
,884,2023-10-27 11:14:17.74,109,-166,-2039,-24,-15,2,-308,-9,-299,158
,885,2023-10-27 11:14:17.75,114,-165,-2039,-29,-8,1,-416,-172,-244,294
,886,2023-10-27 11:14:17.76,120,-162,-2037,-34,2,-1,-320,-22,-298,171
,887,2023-10-27 11:14:17.77,128,-163,-2040,-37,-2,-5,-434,-184,-250,309
,888,2023-10-27 11:14:17.78,116,-157,-2046,-35,0,-11,-318,-20,-298,169
,889,2023-10-27 11:14:17.79,112,-172,-2053,-24,-15,-12,-424,-178,-246,301
,890,2023-10-27 11:14:17.80,109,-173,-2053,-6,-29,-12,-296,1,-297,147
,891,2023-10-27 11:14:17.81,109,-191,-2060,9,-47,-7,-408,-156,-252,282
,892,2023-10-27 11:14:17.82,98,-183,-2053,23,-61,-3,-287,11,-298,138
,893,2023-10-27 11:14:17.83,149,-202,-1911,58,-65,-9,-409,-159,-250,284
,894,2023-10-27 11:14:17.84,107,-169,-2001,88,-21,-11,-287,5,-292,141
,895,2023-10-27 11:14:17.85,82,-175,-2108,75,-23,-6,-423,-164,-259,293
,896,2023-10-27 11:14:17.86,107,-199,-2079,59,-40,7,-295,10,-305,142
,897,2023-10-27 11:14:17.87,125,-188,-2073,61,-29,9,-420,-149,-271,284
,898,2023-10-27 11:14:17.88,140,-153,-2094,44,2,2,-285,13,-298,136
,899,2023-10-27 11:14:17.89,120,-178,-2011,1,19,-8,-419,-152,-267,285
,900,2023-10-27 11:14:17.90,113,-164,-1998,-9,51,-13,-281,16,-297,132
,901,2023-10-27 11:14:17.91,133,-158,-2077,-10,67,-22,-418,-148,-270,283
,902,2023-10-27 11:14:17.92,129,-162,-2086,-16,74,-32,-275,24,-299,125
,903,2023-10-27 11:14:17.93,134,-140,-2066,-21,81,-41,-419,-147,-272,283
,904,2023-10-27 11:14:17.94,136,-142,-2062,-26,86,-51,-270,18,-288,126
,905,2023-10-27 11:14:17.95,125,-160,-2077,-34,83,-59,-418,-149,-269,283
,906,2023-10-27 11:14:17.96,131,-153,-2061,-35,71,-62,-264,21,-285,121
,907,2023-10-27 11:14:17.97,145,-140,-2086,-29,61,-61,-416,-148,-268,282
,908,2023-10-27 11:14:17.98,144,-164,-2061,-24,43,-64,-260,24,-284,118
,909,2023-10-27 11:14:17.99,146,-190,-2011,-16,45,-66,-420,-140,-280,280
,910,2023-10-27 11:14:18.00,134,-166,-2023,-5,57,-68,-266,25,-291,120
,911,2023-10-27 11:14:18.01,114,-177,-2064,1,31,-63,-423,-140,-283,281
,912,2023-10-27 11:14:18.02,166,-180,-2067,6,26,-55,-262,24,-286,119
,913,2023-10-27 11:14:18.03,122,-176,-2066,8,38,-52,-421,-135,-286,278
,914,2023-10-27 11:14:18.04,122,-181,-2061,6,19,-41,-264,20,-284,122
,915,2023-10-27 11:14:18.05,129,-177,-2053,1,10,-34,-428,-139,-289,283
,916,2023-10-27 11:14:18.06,126,-170,-2051,2,-2,-26,-259,19,-278,120
,917,2023-10-27 11:14:18.07,134,-172,-2055,3,-15,-18,-431,-139,-292,285
,918,2023-10-27 11:14:18.08,122,-168,-2056,-3,-23,-10,-261,20,-281,120
,919,2023-10-27 11:14:18.09,119,-159,-2050,-11,-26,-5,-435,-141,-294,288
,920,2023-10-27 11:14:18.10,137,-160,-2047,-15,-29,1,-267,14,-281,126
,921,2023-10-27 11:14:18.11,134,-157,-2039,-21,-26,3,-438,-142,-296,290
,922,2023-10-27 11:14:18.12,138,-158,-2040,-23,-21,8,-267,8,-275,129
,923,2023-10-27 11:14:18.13,123,-163,-2050,-26,-12,9,-438,-143,-295,290
,924,2023-10-27 11:14:18.14,116,-163,-2059,-29,-14,13,-264,6,-270,129
,925,2023-10-27 11:14:18.15,118,-157,-2053,-28,-14,16,-444,-140,-304,292
,926,2023-10-27 11:14:18.16,142,-158,-2051,-22,-12,17,-270,8,-278,131
,927,2023-10-27 11:14:18.17,131,-154,-2049,-26,-1,18,-443,-136,-307,289
,928,2023-10-27 11:14:18.18,135,-152,-2053,-28,13,17,-271,2,-273,134
,929,2023-10-27 11:14:18.19,134,-157,-2051,-26,21,18,-446,-141,-305,293
,930,2023-10-27 11:14:18.20,142,-160,-2049,-15,25,17,-274,-10,-264,142
,931,2023-10-27 11:14:18.21,137,-152,-2065,-9,27,17,-444,-138,-306,291
,932,2023-10-27 11:14:18.22,123,-147,-2049,-7,30,16,-263,-2,-261,132
,933,2023-10-27 11:14:18.23,136,-143,-2055,-10,37,15,-445,-134,-311,289
,934,2023-10-27 11:14:18.24,131,-148,-2064,-8,35,12,-264,5,-269,129
,935,2023-10-27 11:14:18.25,126,-142,-2061,-5,31,11,-448,-131,-317,289
,936,2023-10-27 11:14:18.26,132,-140,-2050,-1,27,11,-274,-7,-267,140
,937,2023-10-27 11:14:18.27,128,-137,-2046,-2,24,10,-446,-136,-310,291
,938,2023-10-27 11:14:18.28,116,-126,-2082,-9,17,12,-268,-8,-260,138
,939,2023-10-27 11:14:18.29,136,-157,-2044,-9,-2,14,-446,-130,-316,288
,940,2023-10-27 11:14:18.30,151,-160,-2033,1,8,15,-257,-5,-252,131
,941,2023-10-27 11:14:18.31,135,-144,-2047,7,7,14,-440,-130,-310,285
,942,2023-10-27 11:14:18.32,126,-150,-2046,3,5,15,-254,-4,-250,129
,943,2023-10-27 11:14:18.33,133,-147,-2050,3,12,14,-443,-126,-317,284
,944,2023-10-27 11:14:18.34,144,-148,-2050,7,15,12,-262,-7,-255,134
,945,2023-10-27 11:14:18.35,139,-150,-2073,6,17,9,-441,-123,-318,282
,946,2023-10-27 11:14:18.36,124,-136,-2059,-4,11,12,-257,-10,-247,133
,947,2023-10-27 11:14:18.37,142,-160,-2037,-1,9,13,-438,-120,-318,279
,948,2023-10-27 11:14:18.38,146,-173,-2032,11,18,10,-254,-8,-246,131
,949,2023-10-27 11:14:18.39,129,-169,-2068,18,25,13,-440,-121,-319,280
,950,2023-10-27 11:14:18.40,138,-165,-2067,19,24,14,-261,-17,-244,139
,951,2023-10-27 11:14:18.41,132,-142,-2086,19,22,21,-438,-115,-323,276
,952,2023-10-27 11:14:18.42,145,-163,-2068,14,2,31,-258,-14,-244,136
,953,2023-10-27 11:14:18.43,154,-165,-2032,19,6,31,-437,-112,-325,274
,954,2023-10-27 11:14:18.44,128,-160,-2060,24,23,31,-257,-23,-234,140
,955,2023-10-27 11:14:18.45,139,-159,-2042,19,19,34,-437,-118,-319,277
,956,2023-10-27 11:14:18.46,145,-155,-2057,12,20,37,-259,-23,-236,141
,957,2023-10-27 11:14:18.47,111,-173,-2031,21,0,39,-435,-115,-320,275
,958,2023-10-27 11:14:18.48,123,-167,-2063,54,-53,59,-261,-27,-234,144
,959,2023-10-27 11:14:18.49,170,-155,-2074,50,-29,57,-433,-113,-320,273
,960,2023-10-27 11:14:18.50,127,-131,-2031,29,-4,51,-257,-35,-222,146
,961,2023-10-27 11:14:18.51,135,-147,-2034,8,18,48,-438,-116,-322,277
,962,2023-10-27 11:14:18.52,140,-146,-2065,-1,19,47,-268,-41,-227,154
,963,2023-10-27 11:14:18.53,140,-149,-2056,11,8,47,-437,-121,-316,279
,964,2023-10-27 11:14:18.54,129,-144,-2058,25,-10,50,-267,-45,-222,156
,965,2023-10-27 11:14:18.55,139,-142,-2049,21,-12,47,-435,-114,-321,274
,966,2023-10-27 11:14:18.56,142,-138,-2052,11,8,37,-269,-50,-219,159
,967,2023-10-27 11:14:18.57,136,-144,-2055,9,9,30,-437,-112,-325,274
,968,2023-10-27 11:14:18.58,133,-147,-2061,23,-12,29,-266,-40,-226,153
,969,2023-10-27 11:14:18.59,164,-144,-2070,36,-16,26,-438,-113,-325,275
,970,2023-10-27 11:14:18.60,122,-154,-2068,35,-15,22,-285,-57,-228,171
,971,2023-10-27 11:14:18.61,138,-166,-2046,37,-20,24,-447,-117,-330,282
,972,2023-10-27 11:14:18.62,146,-161,-2055,39,-8,24,-289,-60,-229,174
,973,2023-10-27 11:14:18.63,132,-160,-2033,44,-6,22,-444,-106,-338,275
,974,2023-10-27 11:14:18.64,153,-150,-2033,41,0,22,-290,-61,-229,175
,975,2023-10-27 11:14:18.65,140,-139,-2030,43,11,8,-447,-108,-339,277
,976,2023-10-27 11:14:18.66,135,-150,-2062,45,12,2,-299,-69,-230,184
,977,2023-10-27 11:14:18.67,129,-158,-2061,47,-1,-2,-442,-106,-336,274
,978,2023-10-27 11:14:18.68,133,-168,-2064,59,-10,0,-299,-71,-228,185
,979,2023-10-27 11:14:18.69,152,-159,-2045,62,-15,-1,-444,-103,-341,273
,980,2023-10-27 11:14:18.70,137,-160,-2053,61,-10,-4,-298,-75,-223,186
,981,2023-10-27 11:14:18.71,136,-172,-2054,58,-9,-6,-440,-101,-339,270
,982,2023-10-27 11:14:18.72,126,-165,-2069,51,-15,-10,-302,-76,-226,189
,983,2023-10-27 11:14:18.73,135,-172,-2064,52,-21,-8,-434,-93,-341,263
,984,2023-10-27 11:14:18.74,130,-176,-2050,54,-23,-8,-302,-80,-222,191
,985,2023-10-27 11:14:18.75,141,-182,-2030,51,-16,-9,-433,-92,-341,262
,986,2023-10-27 11:14:18.76,132,-187,-2051,44,-2,-11,-300,-76,-224,188
,987,2023-10-27 11:14:18.77,134,-179,-2028,37,9,-12,-437,-95,-342,266
,988,2023-10-27 11:14:18.78,140,-182,-2046,38,21,-11,-318,-96,-222,207
,989,2023-10-27 11:14:18.79,131,-189,-2055,33,18,-8,-445,-103,-342,274
,990,2023-10-27 11:14:18.80,134,-182,-2050,34,10,-6,-334,-113,-221,223
,991,2023-10-27 11:14:18.81,127,-192,-2053,32,8,-1,-478,-142,-336,310
,992,2023-10-27 11:14:18.82,126,-189,-2046,31,6,7,-380,-169,-211,274
,993,2023-10-27 11:14:18.83,129,-200,-2046,25,12,12,-532,-205,-327,368
,994,2023-10-27 11:14:18.84,130,-195,-2047,16,15,13,-435,-218,-217,326
,995,2023-10-27 11:14:18.85,123,-194,-2052,11,20,23,-536,-196,-340,366
,996,2023-10-27 11:14:18.86,135,-195,-2060,7,14,29,-413,-182,-231,297
,997,2023-10-27 11:14:18.87,135,-176,-2051,0,8,33,-493,-133,-360,313
,998,2023-10-27 11:14:18.88,130,-171,-2054,-1,-1,33,-372,-129,-243,250
,999,2023-10-27 11:14:18.89,119,-178,-2068,-3,-7,32,-452,-87,-365,269
,1000,2023-10-27 11:14:18.90,130,-177,-2062,-2,-14,34,-342,-103,-239,222
,1001,2023-10-27 11:14:18.91,138,-178,-2060,-3,-20,34,-417,-50,-367,233
,1002,2023-10-27 11:14:18.92,124,-182,-2050,-1,-21,35,-324,-79,-245,201
,1003,2023-10-27 11:14:18.93,133,-180,-2050,-5,-18,34,-400,-27,-373,213
,1004,2023-10-27 11:14:18.94,132,-172,-2045,-4,-16,27,-313,-77,-236,195
,1005,2023-10-27 11:14:18.95,125,-169,-2053,-2,-14,26,-388,-24,-364,206
,1006,2023-10-27 11:14:18.96,134,-173,-2057,-2,-14,22,-310,-72,-238,191
,1007,2023-10-27 11:14:18.97,128,-177,-2051,-1,-14,20,-379,-18,-361,198
,1008,2023-10-27 11:14:18.98,118,-182,-2047,2,-12,20,-312,-73,-239,192
,1009,2023-10-27 11:14:18.99,117,-176,-2046,-1,-13,16,-374,-6,-368,190
,1010,2023-10-27 11:14:19.00,121,-172,-2038,-5,-13,12,-324,-88,-236,206
,1011,2023-10-27 11:14:19.01,123,-165,-2047,-4,-7,11,-380,-23,-357,201
,1012,2023-10-27 11:14:19.02,128,-174,-2045,-4,-6,9,-326,-101,-225,213
,1013,2023-10-27 11:14:19.03,126,-179,-2053,-5,-3,3,-381,-21,-360,201
,1014,2023-10-27 11:14:19.04,126,-180,-2059,-1,-7,4,-327,-93,-234,210
,1015,2023-10-27 11:14:19.05,123,-185,-2051,5,-11,5,-380,-29,-351,204
,1016,2023-10-27 11:14:19.06,133,-182,-2040,6,-8,6,-337,-101,-236,219
,1017,2023-10-27 11:14:19.07,127,-182,-2039,5,1,5,-382,-23,-359,202
,1018,2023-10-27 11:14:19.08,127,-190,-2050,1,8,6,-342,-112,-230,227
,1019,2023-10-27 11:14:19.09,137,-175,-2057,0,9,7,-384,-30,-354,207
,1020,2023-10-27 11:14:19.10,141,-167,-2057,8,7,6,-350,-119,-231,234
,1021,2023-10-27 11:14:19.11,133,-174,-2058,13,2,7,-380,-31,-349,205
,1022,2023-10-27 11:14:19.12,119,-176,-2052,10,-5,8,-353,-119,-234,236
,1023,2023-10-27 11:14:19.13,120,-184,-2062,8,-5,8,-378,-26,-352,202
,1024,2023-10-27 11:14:19.14,127,-178,-2064,7,-12,11,-364,-128,-236,246
,1025,2023-10-27 11:14:19.15,127,-176,-2059,6,-19,14,-378,-26,-352,202
,1026,2023-10-27 11:14:19.16,121,-167,-2051,4,-18,18,-361,-126,-235,243
,1027,2023-10-27 11:14:19.17,119,-166,-2046,-3,-17,16,-373,-26,-347,199
,1028,2023-10-27 11:14:19.18,127,-170,-2036,-10,-11,15,-366,-130,-236,248
,1029,2023-10-27 11:14:19.19,135,-159,-2039,-16,-5,15,-367,-21,-346,194
,1030,2023-10-27 11:14:19.20,120,-168,-2043,-20,1,12,-369,-134,-235,251
,1031,2023-10-27 11:14:19.21,135,-168,-2040,-23,3,11,-368,-22,-346,195
,1032,2023-10-27 11:14:19.22,130,-158,-2055,-25,2,12,-373,-136,-237,254
,1033,2023-10-27 11:14:19.23,128,-154,-2058,-26,1,11,-368,-25,-343,196
,1034,2023-10-27 11:14:19.24,123,-159,-2062,-25,-5,8,-380,-141,-239,260
,1035,2023-10-27 11:14:19.25,120,-160,-2056,-26,-8,11,-363,-16,-347,189
,1036,2023-10-27 11:14:19.26,133,-159,-2064,-27,-7,5,-383,-142,-241,262
,1037,2023-10-27 11:14:19.27,128,-163,-2059,-27,-8,7,-360,-18,-342,189
,1038,2023-10-27 11:14:19.28,128,-164,-2057,-24,-9,5,-385,-143,-242,264
,1039,2023-10-27 11:14:19.29,119,-167,-2053,-24,-10,5,-361,-18,-343,189
,1040,2023-10-27 11:14:19.30,123,-163,-2053,-20,-9,4,-388,-148,-240,268
,1041,2023-10-27 11:14:19.31,133,-170,-2051,-13,-7,1,-351,-17,-334,184
,1042,2023-10-27 11:14:19.32,126,-161,-2043,-8,-10,-1,-392,-154,-238,273
,1043,2023-10-27 11:14:19.33,120,-158,-2042,-5,-6,2,-349,-14,-335,181
,1044,2023-10-27 11:14:19.34,123,-169,-2050,0,-4,0,-393,-152,-241,272
,1045,2023-10-27 11:14:19.35,119,-195,-2040,7,-6,-1,-348,-20,-328,184
,1046,2023-10-27 11:14:19.36,132,-164,-2050,14,3,2,-398,-159,-239,278
,1047,2023-10-27 11:14:19.37,121,-146,-2062,16,-1,1,-340,-20,-320,180
,1048,2023-10-27 11:14:19.38,134,-180,-2044,16,-6,4,-400,-169,-231,284
,1049,2023-10-27 11:14:19.39,136,-177,-2047,20,-1,3,-336,-27,-309,181
,1050,2023-10-27 11:14:19.40,123,-182,-2044,23,0,6,-393,-166,-227,279
,1051,2023-10-27 11:14:19.41,127,-189,-2051,24,5,8,-333,-28,-305,180
,1052,2023-10-27 11:14:19.42,119,-171,-2061,25,4,15,-401,-170,-231,285
,1053,2023-10-27 11:14:19.43,119,-167,-2058,24,-6,21,-325,-25,-300,175
,1054,2023-10-27 11:14:19.44,129,-176,-2047,22,-6,22,-405,-165,-240,285
,1055,2023-10-27 11:14:19.45,130,-156,-2041,19,2,23,-325,-10,-315,167
,1056,2023-10-27 11:14:19.46,107,-156,-2066,9,4,21,-417,-170,-247,293
,1057,2023-10-27 11:14:19.47,121,-166,-2063,-2,-3,21,-329,-7,-322,168
,1058,2023-10-27 11:14:19.48,121,-159,-2058,-1,-4,18,-415,-159,-256,287
,1059,2023-10-27 11:14:19.49,119,-156,-2055,-2,-7,14,-323,-5,-318,164
,1060,2023-10-27 11:14:19.50,126,-141,-2055,-8,-7,8,-420,-158,-262,289
,1061,2023-10-27 11:14:19.51,132,-144,-2054,-14,-6,1,-321,1,-322,160
,1062,2023-10-27 11:14:19.52,122,-144,-2059,-14,-12,-7,-427,-159,-268,293
,1063,2023-10-27 11:14:19.53,117,-167,-2051,-8,-16,-11,-321,2,-323,159
,1064,2023-10-27 11:14:19.54,129,-157,-2054,0,-16,-16,-421,-157,-264,289
,1065,2023-10-27 11:14:19.55,109,-160,-2055,2,-19,-19,-316,0,-316,158
,1066,2023-10-27 11:14:19.56,109,-161,-2050,2,-24,-19,-425,-161,-264,293
,1067,2023-10-27 11:14:19.57,110,-162,-2039,0,-22,-19,-309,3,-312,153
,1068,2023-10-27 11:14:19.58,116,-164,-2034,6,-15,-20,-428,-162,-266,295
,1069,2023-10-27 11:14:19.59,118,-161,-2051,5,-5,-18,-312,2,-314,155
,1070,2023-10-27 11:14:19.60,112,-163,-2048,-1,-3,-14,-432,-163,-269,297
,1071,2023-10-27 11:14:19.61,119,-167,-2045,-3,1,-10,-309,-3,-306,156
,1072,2023-10-27 11:14:19.62,105,-172,-2056,-1,0,-1,-435,-163,-272,299
,1073,2023-10-27 11:14:19.63,107,-169,-2047,1,3,7,-304,5,-309,149
,1074,2023-10-27 11:14:19.64,113,-161,-2055,-2,5,12,-441,-161,-280,301
,1075,2023-10-27 11:14:19.65,143,-165,-2059,-17,35,14,-306,3,-309,151
,1076,2023-10-27 11:14:19.66,84,-169,-2052,-16,23,19,-441,-162,-279,301
,1077,2023-10-27 11:14:19.67,133,-164,-2032,-7,7,32,-308,-2,-306,155
,1078,2023-10-27 11:14:19.68,117,-174,-2050,-1,20,33,-448,-163,-285,305
,1079,2023-10-27 11:14:19.69,106,-172,-2054,-4,17,34,-302,2,-304,150
,1080,2023-10-27 11:14:19.70,109,-153,-2052,-6,19,38,-447,-164,-283,305
,1081,2023-10-27 11:14:19.71,129,-162,-2053,0,21,40,-294,5,-299,144
,1082,2023-10-27 11:14:19.72,110,-172,-2055,7,22,39,-437,-164,-273,300
,1083,2023-10-27 11:14:19.73,117,-148,-2044,4,24,38,-291,2,-293,144
,1084,2023-10-27 11:14:19.74,125,-146,-2042,6,30,37,-444,-160,-284,302
,1085,2023-10-27 11:14:19.75,122,-142,-2057,10,32,25,-290,-8,-282,149
,1086,2023-10-27 11:14:19.76,113,-159,-2070,12,28,23,-447,-177,-270,312
,1087,2023-10-27 11:14:19.77,110,-164,-2067,13,17,22,-287,-15,-272,151
,1088,2023-10-27 11:14:19.78,115,-159,-2059,20,3,24,-443,-176,-267,309
,1089,2023-10-27 11:14:19.79,118,-152,-2051,22,-2,23,-283,-9,-274,146
,1090,2023-10-27 11:14:19.80,122,-151,-2044,15,1,22,-444,-166,-278,305
,1091,2023-10-27 11:14:19.81,116,-152,-2053,9,1,21,-273,0,-273,136
,1092,2023-10-27 11:14:19.82,121,-152,-2043,6,1,20,-445,-164,-281,304
,1093,2023-10-27 11:14:19.83,123,-161,-2035,5,4,21,-278,-1,-277,139
,1094,2023-10-27 11:14:19.84,126,-165,-2045,3,8,22,-447,-164,-283,305
,1095,2023-10-27 11:14:19.85,123,-159,-2042,-6,13,21,-278,-2,-276,140
,1096,2023-10-27 11:14:19.86,124,-166,-2060,-7,16,25,-446,-157,-289,301
,1097,2023-10-27 11:14:19.87,115,-158,-2060,-6,11,27,-278,-4,-274,141
,1098,2023-10-27 11:14:19.88,120,-160,-2050,-4,11,32,-448,-155,-293,301
,1099,2023-10-27 11:14:19.89,119,-153,-2051,-3,10,28,-271,1,-272,135
,1100,2023-10-27 11:14:19.90,121,-149,-2053,-6,11,28,-458,-161,-297,309
,1101,2023-10-27 11:14:19.91,120,-151,-2048,-1,9,27,-275,-6,-269,140
,1102,2023-10-27 11:14:19.92,131,-148,-2046,0,7,23,-449,-161,-288,305
,1103,2023-10-27 11:14:19.93,116,-157,-2054,4,11,19,-272,-7,-265,139
,1104,2023-10-27 11:14:19.94,125,-159,-2059,6,8,17,-458,-149,-309,303
,1105,2023-10-27 11:14:19.95,126,-148,-2065,13,3,16,-287,-14,-273,150
,1106,2023-10-27 11:14:19.96,124,-147,-2060,19,-5,15,-462,-158,-304,310
,1107,2023-10-27 11:14:19.97,127,-144,-2063,21,-10,12,-282,-13,-269,147
,1108,2023-10-27 11:14:19.98,150,-145,-2062,17,1,7,-462,-150,-312,306
,1109,2023-10-27 11:14:19.99,124,-164,-2047,7,28,-2,-283,-9,-274,146
,1110,2023-10-27 11:14:20.00,127,-143,-2054,15,-5,3,-464,-146,-318,305
,1111,2023-10-27 11:14:20.01,156,-157,-2046,19,-3,3,-290,-20,-270,155
,1112,2023-10-27 11:14:20.02,128,-146,-2048,25,4,2,-467,-152,-315,309
,1113,2023-10-27 11:14:20.03,128,-155,-2042,20,6,0,-277,-17,-260,147
,1114,2023-10-27 11:14:20.04,122,-155,-2058,12,15,2,-458,-144,-314,301
,1115,2023-10-27 11:14:20.05,127,-153,-2065,14,9,0,-276,-12,-264,144
,1116,2023-10-27 11:14:20.06,121,-154,-2055,19,1,3,-462,-146,-316,304
,1117,2023-10-27 11:14:20.07,126,-151,-2060,18,-4,4,-288,-24,-264,156
,1118,2023-10-27 11:14:20.08,131,-169,-2064,17,-5,10,-468,-145,-323,306
,1119,2023-10-27 11:14:20.09,111,-176,-2070,22,-13,14,-285,-28,-257,156
,1120,2023-10-27 11:14:20.10,122,-177,-2072,29,-26,22,-462,-143,-319,302
,1121,2023-10-27 11:14:20.11,144,-203,-2009,41,-35,28,-276,-26,-250,151
,1122,2023-10-27 11:14:20.12,119,-171,-2045,53,-6,30,-464,-142,-322,303
,1123,2023-10-27 11:14:20.13,100,-156,-2086,39,-13,32,-284,-28,-256,156
,1124,2023-10-27 11:14:20.14,136,-183,-2050,30,-22,42,-463,-139,-324,301
,1125,2023-10-27 11:14:20.15,132,-158,-2057,36,-3,44,-285,-34,-251,159
,1126,2023-10-27 11:14:20.16,93,-176,-2021,25,15,40,-463,-139,-324,301
,1127,2023-10-27 11:14:20.17,117,-164,-2038,25,0,47,-285,-39,-246,162
,1128,2023-10-27 11:14:20.18,116,-167,-2051,22,12,45,-462,-137,-325,299
,1129,2023-10-27 11:14:20.19,106,-159,-2056,18,7,44,-283,-35,-248,159
,1130,2023-10-27 11:14:20.20,119,-162,-2054,18,2,46,-461,-134,-327,297
,1131,2023-10-27 11:14:20.21,105,-157,-2057,12,-1,46,-282,-41,-241,161
,1132,2023-10-27 11:14:20.22,108,-158,-2051,7,-6,44,-454,-128,-326,291
,1133,2023-10-27 11:14:20.23,119,-161,-2056,6,-9,41,-289,-52,-237,170
,1134,2023-10-27 11:14:20.24,130,-155,-2053,-5,6,36,-460,-134,-326,297
,1135,2023-10-27 11:14:20.25,103,-155,-2056,-5,-9,32,-283,-47,-236,165
,1136,2023-10-27 11:14:20.26,135,-159,-2058,-2,-16,32,-459,-129,-330,294
,1137,2023-10-27 11:14:20.27,109,-165,-2060,-7,-5,28,-287,-48,-239,167
,1138,2023-10-27 11:14:20.28,102,-174,-2046,-3,-21,30,-457,-126,-331,291
,1139,2023-10-27 11:14:20.29,123,-170,-2054,7,-26,32,-295,-56,-239,175
,1140,2023-10-27 11:14:20.30,127,-163,-2051,5,-12,29,-466,-126,-340,296
,1141,2023-10-27 11:14:20.31,116,-170,-2036,2,-5,26,-315,-73,-242,194
,1142,2023-10-27 11:14:20.32,99,-166,-2045,5,-7,30,-477,-128,-349,302
,1143,2023-10-27 11:14:20.33,122,-170,-2048,12,-4,30,-311,-61,-250,186
,1144,2023-10-27 11:14:20.34,122,-171,-2045,18,1,31,-464,-118,-346,291
,1145,2023-10-27 11:14:20.35,121,-178,-2052,19,5,31,-301,-57,-244,179
,1146,2023-10-27 11:14:20.36,118,-175,-2052,14,11,34,-455,-107,-348,281
,1147,2023-10-27 11:14:20.37,110,-164,-2054,17,18,33,-301,-58,-243,179
,1148,2023-10-27 11:14:20.38,117,-160,-2046,18,18,31,-455,-107,-348,281
,1149,2023-10-27 11:14:20.39,132,-153,-2054,20,16,29,-294,-59,-235,176
,1150,2023-10-27 11:14:20.40,105,-162,-2062,17,12,26,-445,-110,-335,277
,1151,2023-10-27 11:14:20.41,112,-163,-2061,18,7,25,-300,-70,-230,185
,1152,2023-10-27 11:14:20.42,111,-167,-2061,17,0,24,-448,-103,-345,275
,1153,2023-10-27 11:14:20.43,113,-165,-2050,21,-9,25,-302,-72,-230,187
,1154,2023-10-27 11:14:20.44,152,-160,-2066,13,9,24,-447,-105,-342,276
,1155,2023-10-27 11:14:20.45,79,-172,-2027,3,20,17,-305,-74,-231,189
,1156,2023-10-27 11:14:20.46,121,-161,-2043,12,-15,23,-448,-106,-342,277
,1157,2023-10-27 11:14:20.47,125,-170,-2056,17,-9,22,-309,-77,-232,193
,1158,2023-10-27 11:14:20.48,116,-157,-2045,6,3,19,-442,-95,-347,268
,1159,2023-10-27 11:14:20.49,106,-158,-2044,0,3,17,-312,-82,-230,197
,1160,2023-10-27 11:14:20.50,115,-166,-2062,1,-10,21,-442,-99,-343,270
,1161,2023-10-27 11:14:20.51,116,-169,-2059,-8,12,19,-311,-90,-221,200
,1162,2023-10-27 11:14:20.52,96,-167,-2056,-4,-4,21,-442,-102,-340,272
,1163,2023-10-27 11:14:20.53,125,-173,-2061,-4,-14,28,-315,-88,-227,201
,1164,2023-10-27 11:14:20.54,94,-165,-2048,-6,6,24,-437,-92,-345,264
,1165,2023-10-27 11:14:20.55,114,-163,-2047,-4,-5,26,-320,-91,-229,205
,1166,2023-10-27 11:14:20.56,122,-173,-2063,-2,-1,29,-439,-89,-350,264
,1167,2023-10-27 11:14:20.57,108,-171,-2041,-5,13,25,-323,-98,-225,210
,1168,2023-10-27 11:14:20.58,111,-168,-2048,3,-1,31,-436,-93,-343,264
,1169,2023-10-27 11:14:20.59,122,-162,-2051,6,2,31,-323,-100,-223,211
,1170,2023-10-27 11:14:20.60,106,-163,-2054,9,9,30,-428,-84,-344,256
,1171,2023-10-27 11:14:20.61,125,-156,-2053,8,10,27,-326,-100,-226,213
,1172,2023-10-27 11:14:20.62,107,-149,-2058,8,9,25,-428,-81,-347,254
,1173,2023-10-27 11:14:20.63,105,-150,-2054,10,7,19,-328,-105,-223,216
,1174,2023-10-27 11:14:20.64,126,-163,-2067,12,4,17,-427,-82,-345,254
,1175,2023-10-27 11:14:20.65,125,-164,-2049,6,20,14,-330,-103,-227,216
,1176,2023-10-27 11:14:20.66,85,-165,-2040,11,11,11,-420,-73,-347,246
,1177,2023-10-27 11:14:20.67,132,-173,-2044,23,-6,14,-333,-106,-227,219
,1178,2023-10-27 11:14:20.68,130,-166,-2055,25,6,9,-416,-67,-349,241
,1179,2023-10-27 11:14:20.69,105,-169,-2036,21,15,5,-332,-113,-219,222
,1180,2023-10-27 11:14:20.70,104,-176,-2056,26,7,8,-411,-71,-340,241
,1181,2023-10-27 11:14:20.71,132,-173,-2064,23,13,9,-329,-117,-212,223
,1182,2023-10-27 11:14:20.72,93,-180,-2060,22,7,10,-420,-84,-336,252
,1183,2023-10-27 11:14:20.73,125,-170,-2054,21,-7,17,-338,-121,-217,229
,1184,2023-10-27 11:14:20.74,129,-166,-2055,13,2,18,-407,-71,-336,239
,1185,2023-10-27 11:14:20.75,88,-172,-2047,8,1,18,-346,-124,-222,235
,1186,2023-10-27 11:14:20.76,136,-170,-2030,10,-12,22,-413,-66,-347,239
,1187,2023-10-27 11:14:20.77,123,-170,-2039,7,0,21,-355,-132,-223,243
,1188,2023-10-27 11:14:20.78,128,-164,-2041,4,11,17,-417,-68,-349,242
,1189,2023-10-27 11:14:20.79,129,-161,-2043,0,19,18,-360,-131,-229,245
,1190,2023-10-27 11:14:20.80,116,-157,-2056,-1,18,15,-412,-69,-343,240
,1191,2023-10-27 11:14:20.81,102,-164,-2068,3,9,13,-363,-138,-225,250
,1192,2023-10-27 11:14:20.82,104,-161,-2070,8,-6,13,-407,-65,-342,236
,1193,2023-10-27 11:14:20.83,115,-158,-2064,10,-19,12,-372,-142,-230,257
,1194,2023-10-27 11:14:20.84,118,-161,-2083,10,-24,12,-410,-63,-347,236
,1195,2023-10-27 11:14:20.85,99,-172,-2039,-7,5,3,-370,-141,-229,255
,1196,2023-10-27 11:14:20.86,93,-168,-2062,4,-28,8,-404,-63,-341,233
,1197,2023-10-27 11:14:20.87,126,-182,-2059,17,-35,14,-375,-148,-227,261
,1198,2023-10-27 11:14:20.88,114,-179,-2055,21,-19,11,-400,-59,-341,229
,1199,2023-10-27 11:14:20.89,114,-184,-2020,21,-21,14,-382,-149,-233,265
,1200,2023-10-27 11:14:20.90,128,-194,-1998,30,-12,16,-397,-49,-348,223
,1201,2023-10-27 11:14:20.91,110,-171,-2065,37,12,19,-372,-146,-226,259
,1202,2023-10-27 11:14:20.92,96,-168,-2093,25,-6,24,-385,-49,-336,217
,1203,2023-10-27 11:14:20.93,109,-186,-2059,22,-17,34,-374,-148,-226,261
,1204,2023-10-27 11:14:20.94,110,-172,-2075,5,17,36,-384,-49,-335,216
,1205,2023-10-27 11:14:20.95,82,-166,-2046,5,-12,38,-387,-155,-232,271
,1206,2023-10-27 11:14:20.96,127,-169,-2052,8,-22,44,-387,-48,-339,217
,1207,2023-10-27 11:14:20.97,102,-168,-2045,-1,7,37,-387,-164,-223,275
,1208,2023-10-27 11:14:20.98,97,-164,-2029,4,-8,35,-383,-50,-333,216
,1209,2023-10-27 11:14:20.99,120,-175,-2044,11,-7,38,-390,-163,-227,276
,1210,2023-10-27 11:14:21.00,111,-163,-2042,8,9,35,-382,-48,-334,215
,1211,2023-10-27 11:14:21.01,114,-157,-2026,9,9,31,-400,-162,-238,281
,1212,2023-10-27 11:14:21.02,116,-158,-2038,11,11,26,-383,-48,-335,215
,1213,2023-10-27 11:14:21.03,108,-164,-2064,12,8,21,-407,-170,-237,288
,1214,2023-10-27 11:14:21.04,121,-163,-2066,14,-5,19,-371,-31,-340,201
,1215,2023-10-27 11:14:21.05,119,-150,-2077,18,-10,15,-408,-170,-238,289
,1216,2023-10-27 11:14:21.06,120,-151,-2053,10,5,3,-376,-42,-334,209
,1217,2023-10-27 11:14:21.07,91,-159,-2058,12,-13,-2,-412,-172,-240,292
,1218,2023-10-27 11:14:21.08,118,-173,-2066,18,-21,-2,-382,-46,-336,214
,1219,2023-10-27 11:14:21.09,104,-186,-2075,25,-22,-5,-425,-176,-249,300
,1220,2023-10-27 11:14:21.10,95,-194,-2054,28,-31,2,-382,-45,-337,213
,1221,2023-10-27 11:14:21.11,127,-201,-2015,32,-24,9,-430,-174,-256,302
,1222,2023-10-27 11:14:21.12,99,-193,-2023,39,-8,13,-374,-32,-342,203
,1223,2023-10-27 11:14:21.13,101,-187,-2063,32,0,22,-424,-172,-252,298
,1224,2023-10-27 11:14:21.14,110,-185,-2035,16,1,30,-362,-31,-331,196
,1225,2023-10-27 11:14:21.15,109,-162,-2027,12,15,36,-420,-174,-246,297
,1226,2023-10-27 11:14:21.16,102,-164,-2040,3,21,36,-352,-29,-323,190
,1227,2023-10-27 11:14:21.17,111,-167,-2054,-11,22,39,-425,-177,-248,301
,1228,2023-10-27 11:14:21.18,106,-172,-2071,-16,22,42,-355,-27,-328,191
,1229,2023-10-27 11:14:21.19,105,-176,-2067,-14,11,44,-429,-178,-251,303
,1230,2023-10-27 11:14:21.20,103,-171,-2057,-12,-1,44,-349,-27,-322,188
,1231,2023-10-27 11:14:21.21,107,-164,-2062,-10,-9,42,-426,-180,-246,303
,1232,2023-10-27 11:14:21.22,108,-164,-2065,-10,-14,42,-345,-33,-312,189
,1233,2023-10-27 11:14:21.23,105,-162,-2062,-5,-23,37,-434,-186,-248,310
,1234,2023-10-27 11:14:21.24,98,-165,-2056,4,-31,36,-346,-28,-318,187
,1235,2023-10-27 11:14:21.25,109,-168,-2051,7,-36,30,-441,-183,-258,312
,1236,2023-10-27 11:14:21.26,99,-167,-2051,10,-31,28,-352,-25,-327,188
,1237,2023-10-27 11:14:21.27,104,-167,-2054,11,-30,26,-448,-179,-269,313
,1238,2023-10-27 11:14:21.28,122,-173,-2018,23,-17,19,-348,-26,-322,187
,1239,2023-10-27 11:14:21.29,99,-158,-2076,25,-4,15,-448,-180,-268,314
,1240,2023-10-27 11:14:21.30,101,-166,-2059,16,-13,19,-336,-18,-318,177
,1241,2023-10-27 11:14:21.31,115,-179,-2037,14,-9,23,-445,-176,-269,310
,1242,2023-10-27 11:14:21.32,97,-193,-2047,18,3,24,-321,-4,-317,162
,1243,2023-10-27 11:14:21.33,102,-184,-2040,15,10,29,-432,-169,-263,300
,1244,2023-10-27 11:14:21.34,112,-188,-2038,13,16,32,-320,-9,-311,164
,1245,2023-10-27 11:14:21.35,107,-171,-2048,15,22,36,-440,-178,-262,309
,1246,2023-10-27 11:14:21.36,110,-157,-2041,12,20,32,-316,-15,-301,165
,1247,2023-10-27 11:14:21.37,102,-157,-2051,7,24,31,-441,-173,-268,307
,1248,2023-10-27 11:14:21.38,104,-166,-2068,1,22,28,-312,-5,-307,158
,1249,2023-10-27 11:14:21.39,87,-176,-2079,5,9,29,-447,-179,-268,313
,1250,2023-10-27 11:14:21.40,101,-171,-2078,15,-7,31,-315,-18,-297,166
,1251,2023-10-27 11:14:21.41,106,-167,-2070,19,-24,31,-451,-186,-265,318
,1252,2023-10-27 11:14:21.42,110,-168,-2062,19,-32,31,-322,-28,-294,175
,1253,2023-10-27 11:14:21.43,88,-167,-2061,18,-41,33,-459,-188,-271,323
,1254,2023-10-27 11:14:21.44,108,-168,-2060,20,-44,33,-318,-21,-297,169
,1255,2023-10-27 11:14:21.45,121,-184,-2007,25,-50,28,-461,-180,-281,320
,1256,2023-10-27 11:14:21.46,96,-168,-2027,38,-25,23,-318,-19,-299,168
,1257,2023-10-27 11:14:21.47,81,-167,-2084,34,-24,21,-464,-181,-283,322
,1258,2023-10-27 11:14:21.48,89,-194,-2062,23,-33,23,-315,-16,-299,165
,1259,2023-10-27 11:14:21.49,98,-185,-2038,35,-29,28,-469,-180,-289,324
,1260,2023-10-27 11:14:21.50,83,-189,-2032,46,-22,29,-325,-32,-293,178
,1261,2023-10-27 11:14:21.51,82,-183,-2047,42,-16,32,-479,-194,-285,336
,1262,2023-10-27 11:14:21.52,122,-178,-2104,25,0,36,-305,-15,-290,160
,1263,2023-10-27 11:14:21.53,73,-199,-2030,0,24,31,-459,-176,-283,317
,1264,2023-10-27 11:14:21.54,78,-170,-2032,8,4,44,-298,-13,-285,155
,1265,2023-10-27 11:14:21.55,115,-167,-2047,13,8,43,-457,-178,-279,317
,1266,2023-10-27 11:14:21.56,69,-173,-2044,12,5,36,-292,-14,-278,153
,1267,2023-10-27 11:14:21.57,96,-167,-2047,12,-1,37,-455,-170,-285,312
,1268,2023-10-27 11:14:21.58,100,-174,-2069,13,0,35,-289,-14,-275,151
,1269,2023-10-27 11:14:21.59,82,-180,-2051,6,14,29,-460,-175,-285,317
,1270,2023-10-27 11:14:21.60,65,-181,-2049,8,-5,31,-289,-21,-268,155
,1271,2023-10-27 11:14:21.61,116,-178,-2059,13,-12,31,-460,-187,-273,323
,1272,2023-10-27 11:14:21.62,87,-180,-2056,9,-7,31,-296,-28,-268,162
,1273,2023-10-27 11:14:21.63,81,-182,-2066,8,-13,32,-474,-178,-296,326
,1274,2023-10-27 11:14:21.64,94,-189,-2065,6,-14,36,-313,-36,-277,174
,1275,2023-10-27 11:14:21.65,85,-189,-2058,5,-11,39,-491,-197,-294,344
,1276,2023-10-27 11:14:21.66,87,-179,-2031,4,-5,37,-321,-55,-266,188
,1277,2023-10-27 11:14:21.67,84,-185,-2043,8,-2,40,-502,-228,-274,365
,1278,2023-10-27 11:14:21.68,98,-196,-2053,7,15,39,-347,-99,-248,223
,1279,2023-10-27 11:14:21.69,91,-186,-2032,5,30,36,-537,-268,-269,402
,1280,2023-10-27 11:14:21.70,75,-197,-2036,8,26,41,-377,-136,-241,256
,1281,2023-10-27 11:14:21.71,89,-193,-2042,13,28,44,-544,-279,-265,411
,1282,2023-10-27 11:14:21.72,88,-182,-2047,10,41,42,-369,-137,-232,253
,1283,2023-10-27 11:14:21.73,85,-186,-2042,8,46,42,-532,-255,-277,393
,1284,2023-10-27 11:14:21.74,96,-181,-2052,2,49,42,-335,-92,-243,213
,1285,2023-10-27 11:14:21.75,88,-182,-2050,0,44,42,-493,-206,-287,349
,1286,2023-10-27 11:14:21.76,93,-169,-2041,6,34,40,-303,-52,-251,177
,1287,2023-10-27 11:14:21.77,87,-179,-2055,12,33,37,-472,-167,-305,319
,1288,2023-10-27 11:14:21.78,84,-187,-2062,11,30,39,-287,-26,-261,156
,1289,2023-10-27 11:14:21.79,102,-191,-2049,9,26,41,-456,-138,-318,297
,1290,2023-10-27 11:14:21.80,78,-195,-2050,14,23,45,-255,-4,-251,129
,1291,2023-10-27 11:14:21.81,100,-187,-2059,8,16,55,-428,-129,-299,278
,1292,2023-10-27 11:14:21.82,99,-180,-2043,-16,56,51,-247,-3,-244,125
,1293,2023-10-27 11:14:21.83,66,-178,-2026,-25,45,56,-443,-127,-316,285
,1294,2023-10-27 11:14:21.84,108,-186,-2032,-17,25,61,-257,-10,-247,133
,1295,2023-10-27 11:14:21.85,111,-191,-2053,-12,31,62,-429,-125,-304,277
,1296,2023-10-27 11:14:21.86,82,-187,-2045,-12,27,66,-243,-3,-240,123
,1297,2023-10-27 11:14:21.87,116,-179,-2061,-15,28,71,-431,-124,-307,277
,1298,2023-10-27 11:14:21.88,102,-181,-2058,-27,57,67,-255,-12,-243,133
,1299,2023-10-27 11:14:21.89,87,-177,-2057,-27,37,70,-440,-121,-319,280
,1300,2023-10-27 11:14:21.90,116,-178,-2071,-22,24,76,-254,-13,-241,133
,1301,2023-10-27 11:14:21.91,98,-167,-2046,-24,33,76,-434,-125,-309,279
,1302,2023-10-27 11:14:21.92,115,-159,-2063,-29,31,74,-262,-38,-224,150
,1303,2023-10-27 11:14:21.93,101,-169,-2050,-47,45,71,-441,-135,-306,288
,1304,2023-10-27 11:14:21.94,90,-178,-2068,-57,46,71,-263,-37,-226,150
,1305,2023-10-27 11:14:21.95,100,-189,-2066,-50,34,77,-448,-143,-305,295
,1306,2023-10-27 11:14:21.96,104,-189,-2034,-37,30,79,-259,-36,-223,147
,1307,2023-10-27 11:14:21.97,120,-181,-2035,-32,37,84,-437,-133,-304,285
,1308,2023-10-27 11:14:21.98,102,-178,-2021,-26,38,81,-263,-42,-221,152
,1309,2023-10-27 11:14:21.99,117,-162,-2049,-31,49,78,-439,-128,-311,283
,1310,2023-10-27 11:14:22.00,93,-165,-2040,-36,56,77,-269,-46,-223,157
,1311,2023-10-27 11:14:22.01,109,-178,-2079,-35,39,84,-443,-128,-315,285
,1312,2023-10-27 11:14:22.02,99,-175,-2071,-43,31,91,-265,-52,-213,158
,1313,2023-10-27 11:14:22.03,110,-151,-2072,-50,34,91,-439,-133,-306,286
,1314,2023-10-27 11:14:22.04,122,-154,-2073,-58,33,91,-270,-54,-216,162
,1315,2023-10-27 11:14:22.05,115,-134,-2059,-68,40,90,-436,-124,-312,280
,1316,2023-10-27 11:14:22.06,132,-143,-2054,-66,35,89,-258,-53,-205,155
,1317,2023-10-27 11:14:22.07,113,-160,-2065,-73,39,87,-422,-119,-303,270
,1318,2023-10-27 11:14:22.08,124,-152,-2098,-80,40,87,-267,-54,-213,160
,1319,2023-10-27 11:14:22.09,138,-152,-2121,-87,45,84,-431,-108,-323,269
,1320,2023-10-27 11:14:22.10,142,-139,-2184,-95,47,85,-251,-47,-204,149
,1321,2023-10-27 11:14:22.11,119,-102,-2227,-99,15,88,-405,-101,-304,253
,1322,2023-10-27 11:14:22.12,118,-53,-2173,-101,-13,87,-236,-40,-196,138
,1323,2023-10-27 11:14:22.13,150,-75,-2129,-97,-22,81,-394,-76,-318,235
,1324,2023-10-27 11:14:22.14,169,-148,-2146,-116,22,62,-225,-23,-202,124
,1325,2023-10-27 11:14:22.15,144,-148,-2163,-150,58,45,-357,-57,-300,207
,1326,2023-10-27 11:14:22.16,129,-144,-2159,-159,77,37,-204,-29,-175,116
,1327,2023-10-27 11:14:22.17,128,-155,-2142,-122,58,40,-382,-97,-285,239
,1328,2023-10-27 11:14:22.18,124,-178,-2127,-63,22,49,-243,-71,-172,157
,1329,2023-10-27 11:14:22.19,143,-209,-2108,-16,-3,64,-396,-112,-284,254
,1330,2023-10-27 11:14:22.20,114,-173,-2050,-5,8,72,-256,-92,-164,174
,1331,2023-10-27 11:14:22.21,131,-159,-2014,1,36,74,-409,-138,-271,273
,1332,2023-10-27 11:14:22.22,118,-167,-2033,19,39,85,-289,-136,-153,212
,1333,2023-10-27 11:14:22.23,137,-157,-1995,42,20,96,-449,-197,-252,323
,1334,2023-10-27 11:14:22.24,122,-148,-1967,59,9,105,-320,-186,-134,253
,1335,2023-10-27 11:14:22.25,136,-136,-1952,62,17,113,-449,-240,-209,344
,1336,2023-10-27 11:14:22.26,132,-124,-1928,52,37,113,-325,-227,-98,276
,1337,2023-10-27 11:14:22.27,140,-123,-1949,46,41,113,-469,-281,-188,375
,1338,2023-10-27 11:14:22.28,141,-116,-1959,43,55,105,-353,-287,-66,320
,1339,2023-10-27 11:14:22.29,124,-107,-1973,37,62,97,-478,-319,-159,398
,1340,2023-10-27 11:14:22.30,135,-112,-1968,32,63,92,-328,-307,-21,317
,1341,2023-10-27 11:14:22.31,131,-116,-1984,31,63,85,-435,-289,-146,362
,1342,2023-10-27 11:14:22.32,116,-127,-1981,29,53,81,-295,-245,-50,270
,1343,2023-10-27 11:14:22.33,123,-132,-2013,36,45,78,-391,-215,-176,303
,1344,2023-10-27 11:14:22.34,126,-144,-2037,44,26,83,-264,-196,-68,230
,1345,2023-10-27 11:14:22.35,129,-136,-2017,56,5,86,-351,-165,-186,258
,1346,2023-10-27 11:14:22.36,140,-160,-2023,66,-7,90,-228,-164,-64,196
,1347,2023-10-27 11:14:22.37,118,-173,-2028,71,-16,97,-277,-90,-187,183
,1348,2023-10-27 11:14:22.38,125,-172,-2019,75,-15,108,-156,-83,-73,119
,1349,2023-10-27 11:14:22.39,131,-186,-2029,83,-7,117,-217,-31,-186,124
,1350,2023-10-27 11:14:22.40,159,-207,-2092,84,6,127,-122,-54,-68,88
,1351,2023-10-27 11:14:22.41,148,-195,-2067,52,54,127,-180,-8,-172,94
,1352,2023-10-27 11:14:22.42,91,-187,-2039,37,66,138,-111,-49,-62,80
,1353,2023-10-27 11:14:22.43,139,-179,-2089,48,40,154,-169,-1,-168,85
,1354,2023-10-27 11:14:22.44,125,-161,-2088,51,34,160,-108,-54,-54,81
,1355,2023-10-27 11:14:22.45,112,-155,-2077,33,28,165,-160,11,-171,74
,1356,2023-10-27 11:14:22.46,121,-130,-2081,-1,34,166,-103,-46,-57,74
,1357,2023-10-27 11:14:22.47,113,-124,-2081,-33,39,164,-195,-10,-185,102
,1358,2023-10-27 11:14:22.48,127,-112,-2069,-53,30,159,-164,-84,-80,124
,1359,2023-10-27 11:14:22.49,126,-103,-2061,-71,27,149,-252,-44,-208,148
,1360,2023-10-27 11:14:22.50,153,-93,-2034,-93,26,136,-208,-117,-91,162
,1361,2023-10-27 11:14:22.51,151,-81,-2010,-114,36,119,-270,-50,-220,160
,1362,2023-10-27 11:14:22.52,145,-76,-2017,-125,40,101,-218,-121,-97,169
,1363,2023-10-27 11:14:22.53,145,-81,-2028,-134,45,80,-277,-44,-233,160
,1364,2023-10-27 11:14:22.54,136,-72,-2038,-134,40,61,-223,-113,-110,168
,1365,2023-10-27 11:14:22.55,138,-62,-2017,-134,32,46,-268,-22,-246,145
,1366,2023-10-27 11:14:22.56,148,-55,-2004,-129,29,28,-219,-94,-125,156
,1367,2023-10-27 11:14:22.57,161,-54,-2003,-129,30,11,-260,1,-261,129
,1368,2023-10-27 11:14:22.58,147,-57,-1995,-128,29,-7,-218,-76,-142,147
,1369,2023-10-27 11:14:22.59,146,-53,-1999,-126,30,-23,-247,30,-277,108
,1370,2023-10-27 11:14:22.60,147,-71,-2020,-120,33,-33,-209,-56,-153,132
,1371,2023-10-27 11:14:22.61,144,-86,-2027,-111,29,-43,-229,58,-287,85
,1372,2023-10-27 11:14:22.62,140,-66,-2033,-103,17,-49,-192,-26,-166,109
,1373,2023-10-27 11:14:22.63,152,-86,-2032,-90,12,-50,-208,88,-296,60
,1374,2023-10-27 11:14:22.64,144,-109,-2052,-79,15,-47,-198,-6,-192,102
,1375,2023-10-27 11:14:22.65,152,-115,-2056,-73,11,-41,-180,134,-314,23
,1376,2023-10-27 11:14:22.66,154,-113,-2078,-62,15,-29,-151,47,-198,52
,1377,2023-10-27 11:14:22.67,149,-111,-2093,-53,13,-22,-111,213,-324,-51
,1378,2023-10-27 11:14:22.68,137,-115,-2093,-43,12,-9,-110,104,-214,3
,1379,2023-10-27 11:14:22.69,149,-121,-2099,-32,8,4,-94,228,-322,-67
,1380,2023-10-27 11:14:22.70,153,-101,-2079,-26,6,16,-127,74,-201,26
,1381,2023-10-27 11:14:22.71,156,-114,-2084,-22,7,18,-122,184,-306,-31
,1382,2023-10-27 11:14:22.72,149,-123,-2105,-20,11,24,-147,54,-201,46
,1383,2023-10-27 11:14:22.73,131,-113,-2091,-13,7,28,-118,211,-329,-46
,1384,2023-10-27 11:14:22.74,144,-109,-2072,-5,10,29,-155,73,-228,41
,1385,2023-10-27 11:14:22.75,129,-96,-2070,-6,5,35,-130,187,-317,-28
,1386,2023-10-27 11:14:22.76,133,-106,-2056,-16,3,41,-189,0,-189,94
,1387,2023-10-27 11:14:22.77,123,-112,-2072,-18,3,46,-188,89,-277,49
,1388,2023-10-27 11:14:22.78,127,-105,-2060,-19,-2,51,-246,-75,-171,160
,1389,2023-10-27 11:14:22.79,121,-76,-2029,-20,-2,54,-235,29,-264,103
,1390,2023-10-27 11:14:22.80,140,-80,-2008,-27,-3,54,-294,-128,-166,211
,1391,2023-10-27 11:14:22.81,126,-82,-2003,-40,6,53,-278,-23,-255,150
,1392,2023-10-27 11:14:22.82,128,-82,-1990,-52,17,49,-338,-185,-153,261
,1393,2023-10-27 11:14:22.83,104,-60,-2063,-68,18,48,-309,-74,-235,191
,1394,2023-10-27 11:14:22.84,132,-114,-2019,-73,0,46,-361,-220,-141,290
,1395,2023-10-27 11:14:22.85,124,-97,-2004,-58,13,38,-324,-96,-228,210
,1396,2023-10-27 11:14:22.86,101,-40,-2057,-55,15,32,-375,-230,-145,302
,1397,2023-10-27 11:14:22.87,114,-57,-2075,-74,-13,31,-326,-93,-233,209
,1398,2023-10-27 11:14:22.88,111,-53,-2065,-82,-31,34,-386,-235,-151,310
,1399,2023-10-27 11:14:22.89,125,-49,-2068,-79,-41,30,-328,-89,-239,208
,1400,2023-10-27 11:14:22.90,124,-59,-2064,-87,-39,29,-382,-225,-157,303
,1401,2023-10-27 11:14:22.91,144,-41,-2049,-102,-23,23,-312,-75,-237,193
,1402,2023-10-27 11:14:22.92,147,-53,-2052,-111,-2,17,-369,-209,-160,289
,1403,2023-10-27 11:14:22.93,153,-55,-2063,-113,19,4,-279,-53,-226,166
,1404,2023-10-27 11:14:22.94,166,-59,-2071,-110,35,-5,-349,-192,-157,270
,1405,2023-10-27 11:14:22.95,153,-71,-2075,-104,46,-15,-252,-22,-230,137
,1406,2023-10-27 11:14:22.96,142,-55,-2076,-95,59,-20,-328,-170,-158,249
,1407,2023-10-27 11:14:22.97,158,-55,-2061,-83,64,-23,-218,0,-218,109
,1408,2023-10-27 11:14:22.98,154,-69,-2055,-69,69,-28,-301,-157,-144,229
,1409,2023-10-27 11:14:22.99,146,-68,-2042,-54,71,-27,-196,4,-200,96
,1410,2023-10-27 11:14:23.00,165,-65,-2032,-45,76,-31,-295,-151,-144,223
,1411,2023-10-27 11:14:23.01,148,-62,-2018,-35,86,-31,-184,15,-199,84
,1412,2023-10-27 11:14:23.02,150,-76,-2037,-22,85,-33,-290,-147,-143,218
,1413,2023-10-27 11:14:23.03,149,-66,-2045,-11,77,-29,-164,24,-188,70
,1414,2023-10-27 11:14:23.04,142,-58,-2048,4,62,-23,-276,-140,-136,208
,1415,2023-10-27 11:14:23.05,126,-66,-2051,25,32,-15,-146,31,-177,57
,1416,2023-10-27 11:14:23.06,161,-51,-2092,44,-9,-5,-264,-134,-130,199
,1417,2023-10-27 11:14:23.07,174,-44,-2076,42,-2,-8,-143,21,-164,61
,1418,2023-10-27 11:14:23.08,145,-40,-2080,41,-10,-12,-272,-151,-121,211
,1419,2023-10-27 11:14:23.09,160,-44,-2082,39,-29,-16,-142,15,-157,63
,1420,2023-10-27 11:14:23.10,157,-52,-2092,41,-41,-18,-270,-152,-118,211
,1421,2023-10-27 11:14:23.11,150,-69,-2093,45,-55,-17,-131,20,-151,55
,1422,2023-10-27 11:14:23.12,142,-68,-2093,47,-60,-15,-265,-150,-115,207
,1423,2023-10-27 11:14:23.13,162,-65,-2083,43,-61,-12,-124,9,-133,57
,1424,2023-10-27 11:14:23.14,160,-65,-2076,34,-53,-11,-272,-154,-118,213
,1425,2023-10-27 11:14:23.15,148,-70,-2081,24,-41,-8,-123,22,-145,50
,1426,2023-10-27 11:14:23.16,151,-68,-2072,12,-29,-7,-271,-149,-122,210
,1427,2023-10-27 11:14:23.17,157,-64,-2066,0,-15,-6,-115,20,-135,47
,1428,2023-10-27 11:14:23.18,152,-61,-2064,-13,2,-3,-265,-153,-112,209
,1429,2023-10-27 11:14:23.19,140,-53,-2059,-22,6,1,-111,15,-126,48
,1430,2023-10-27 11:14:23.20,153,-72,-2048,-25,1,9,-267,-149,-118,208
,1431,2023-10-27 11:14:23.21,158,-75,-2035,-27,12,17,-109,20,-129,44
,1432,2023-10-27 11:14:23.22,163,-61,-2023,-28,27,20,-266,-143,-123,204
,1433,2023-10-27 11:14:23.23,169,-72,-2027,-34,45,23,-91,31,-122,30
,1434,2023-10-27 11:14:23.24,169,-70,-2027,-35,63,27,-265,-139,-126,202
,1435,2023-10-27 11:14:23.25,169,-75,-2023,-30,76,27,-101,33,-134,34
,1436,2023-10-27 11:14:23.26,161,-70,-2025,-24,89,24,-270,-134,-136,202
,1437,2023-10-27 11:14:23.27,172,-62,-2035,-22,94,24,-98,36,-134,31
,1438,2023-10-27 11:14:23.28,179,-53,-2037,-15,95,22,-265,-128,-137,196
,1439,2023-10-27 11:14:23.29,143,-20,-2108,-11,75,31,-87,39,-126,24
,1440,2023-10-27 11:14:23.30,193,-67,-2036,5,32,31,-266,-126,-140,196
,1441,2023-10-27 11:14:23.31,188,-59,-2028,30,43,20,-86,39,-125,23
,1442,2023-10-27 11:14:23.32,162,-29,-2069,46,33,13,-265,-129,-136,197
,1443,2023-10-27 11:14:23.33,198,-39,-2062,45,20,8,-91,32,-123,29
,1444,2023-10-27 11:14:23.34,187,-48,-2079,40,50,-6,-270,-130,-140,200
,1445,2023-10-27 11:14:23.35,168,-51,-2077,42,45,-12,-86,32,-118,27
,1446,2023-10-27 11:14:23.36,187,-61,-2049,48,37,-17,-270,-133,-137,201
,1447,2023-10-27 11:14:23.37,171,-72,-2054,70,17,-16,-84,28,-112,28
,1448,2023-10-27 11:14:23.38,200,-63,-2065,85,9,-12,-271,-138,-133,204
,1449,2023-10-27 11:14:23.39,176,-71,-2073,94,28,-20,-90,20,-110,35
,1450,2023-10-27 11:14:23.40,178,-79,-2068,90,34,-18,-274,-136,-138,205
,1451,2023-10-27 11:14:23.41,182,-79,-2075,89,43,-17,-90,21,-111,34
,1452,2023-10-27 11:14:23.42,168,-83,-2070,93,35,-7,-274,-126,-148,200
,1453,2023-10-27 11:14:23.43,158,-86,-2060,101,20,5,-84,27,-111,28
,1454,2023-10-27 11:14:23.44,163,-98,-2059,107,9,16,-283,-132,-151,207
,1455,2023-10-27 11:14:23.45,187,-90,-2059,99,28,25,-98,21,-119,38
,1456,2023-10-27 11:14:23.46,150,-74,-2086,82,30,38,-283,-125,-158,204
,1457,2023-10-27 11:14:23.47,175,-98,-2035,71,19,49,-89,28,-117,30
,1458,2023-10-27 11:14:23.48,190,-97,-2021,73,34,53,-274,-109,-165,191
,1459,2023-10-27 11:14:23.49,183,-86,-2052,71,48,58,-79,35,-114,22
,1460,2023-10-27 11:14:23.50,173,-96,-2061,59,44,65,-281,-116,-165,198
,1461,2023-10-27 11:14:23.51,182,-103,-2046,51,43,75,-79,32,-111,23
,1462,2023-10-27 11:14:23.52,170,-105,-2051,53,45,83,-264,-112,-152,188
,1463,2023-10-27 11:14:23.53,176,-91,-2035,57,42,83,-72,30,-102,21
,1464,2023-10-27 11:14:23.54,146,-111,-2006,94,-15,94,-256,-101,-155,178
,1465,2023-10-27 11:14:23.55,212,-81,-2086,111,-13,104,-67,35,-102,16
,1466,2023-10-27 11:14:23.56,186,-89,-2058,95,5,91,-263,-97,-166,180
,1467,2023-10-27 11:14:23.57,181,-73,-2049,74,35,84,-68,31,-99,18
,1468,2023-10-27 11:14:23.58,185,-82,-2054,55,45,76,-265,-101,-164,183
,1469,2023-10-27 11:14:23.59,158,-90,-2079,61,27,72,-77,26,-103,25
,1470,2023-10-27 11:14:23.60,181,-79,-2077,86,-13,68,-266,-94,-172,180
,1471,2023-10-27 11:14:23.61,193,-76,-2054,86,-9,57,-82,24,-106,29
,1472,2023-10-27 11:14:23.62,170,-72,-2053,70,9,44,-267,-98,-169,182
,1473,2023-10-27 11:14:23.63,170,-79,-2064,57,4,34,-76,19,-95,28
,1474,2023-10-27 11:14:23.64,169,-83,-2072,62,-9,29,-268,-98,-170,183
,1475,2023-10-27 11:14:23.65,165,-100,-2064,77,-26,24,-86,13,-99,36
,1476,2023-10-27 11:14:23.66,175,-104,-2056,81,-35,21,-273,-98,-175,185
,1477,2023-10-27 11:14:23.67,184,-106,-2037,73,-26,18,-93,6,-99,43
,1478,2023-10-27 11:14:23.68,182,-121,-2053,65,-14,16,-277,-106,-171,191
,1479,2023-10-27 11:14:23.69,166,-121,-2056,61,-9,15,-95,-11,-84,53
,1480,2023-10-27 11:14:23.70,177,-121,-2055,62,-6,16,-283,-109,-174,196
,1481,2023-10-27 11:14:23.71,168,-122,-2056,58,0,21,-102,-7,-95,54
,1482,2023-10-27 11:14:23.72,176,-131,-2057,51,4,27,-284,-107,-177,195
,1483,2023-10-27 11:14:23.73,175,-128,-2055,44,7,31,-103,-14,-89,58
,1484,2023-10-27 11:14:23.74,174,-115,-2052,39,12,33,-275,-101,-174,188
,1485,2023-10-27 11:14:23.75,180,-114,-2059,31,18,33,-99,-15,-84,57
,1486,2023-10-27 11:14:23.76,162,-110,-2062,24,17,34,-276,-91,-185,183
,1487,2023-10-27 11:14:23.77,165,-109,-2064,18,13,31,-102,-13,-89,57
,1488,2023-10-27 11:14:23.78,169,-109,-2063,16,4,31,-276,-96,-180,186
,1489,2023-10-27 11:14:23.79,175,-113,-2059,17,-7,30,-103,-16,-87,59
,1490,2023-10-27 11:14:23.80,166,-108,-2048,16,-13,30,-273,-90,-183,181
,1491,2023-10-27 11:14:23.81,170,-109,-2049,15,-16,28,-106,-15,-91,60
,1492,2023-10-27 11:14:23.82,173,-107,-2042,17,-17,24,-265,-81,-184,173
,1493,2023-10-27 11:14:23.83,164,-102,-2038,17,-15,19,-105,-19,-86,62
,1494,2023-10-27 11:14:23.84,179,-107,-2037,17,-14,16,-270,-84,-186,177
,1495,2023-10-27 11:14:23.85,168,-111,-2042,21,-14,12,-110,-22,-88,66
,1496,2023-10-27 11:14:23.86,166,-119,-2051,17,-11,14,-268,-77,-191,172
,1497,2023-10-27 11:14:23.87,168,-119,-2058,16,-11,12,-108,-22,-86,65
,1498,2023-10-27 11:14:23.88,168,-119,-2056,12,-13,13,-254,-73,-181,163
,1499,2023-10-27 11:14:23.89,171,-105,-2053,2,-7,12,-111,-27,-84,69
,1500,2023-10-27 11:14:23.90,174,-109,-2048,-5,-1,11,-260,-69,-191,164
,1501,2023-10-27 11:14:23.91,163,-118,-2055,-7,-2,11,-123,-46,-77,84
,1502,2023-10-27 11:14:23.92,170,-118,-2054,-7,0,10,-259,-69,-190,164
,1503,2023-10-27 11:14:23.93,162,-129,-2066,-6,3,12,-114,-36,-78,75
,1504,2023-10-27 11:14:23.94,167,-122,-2057,-4,5,12,-256,-72,-184,164
,1505,2023-10-27 11:14:23.95,171,-120,-2053,-5,9,14,-120,-45,-75,82
,1506,2023-10-27 11:14:23.96,171,-120,-2054,-5,14,14,-265,-83,-182,174
,1507,2023-10-27 11:14:23.97,175,-107,-2055,-8,17,14,-148,-76,-72,112
,1508,2023-10-27 11:14:23.98,169,-111,-2049,-7,18,14,-310,-131,-179,220
,1509,2023-10-27 11:14:23.99,172,-118,-2045,0,19,11,-193,-136,-57,164
,1510,2023-10-27 11:14:24.00,171,-124,-2058,4,23,13,-360,-191,-169,275
,1511,2023-10-27 11:14:24.01,183,-118,-2055,10,19,12,-230,-175,-55,202
,1512,2023-10-27 11:14:24.02,186,-122,-2047,15,19,13,-365,-202,-163,283
,1513,2023-10-27 11:14:24.03,169,-123,-2061,22,15,14,-230,-176,-54,203
,1514,2023-10-27 11:14:24.04,174,-114,-2058,24,9,16,-338,-174,-164,256
,1515,2023-10-27 11:14:24.05,173,-111,-2054,28,6,19,-206,-152,-54,179
,1516,2023-10-27 11:14:24.06,180,-123,-2055,31,1,19,-296,-123,-173,209
,1517,2023-10-27 11:14:24.07,188,-116,-2046,28,-2,20,-157,-98,-59,127
,1518,2023-10-27 11:14:24.08,174,-112,-2050,27,-4,20,-244,-63,-181,153
,1519,2023-10-27 11:14:24.09,184,-117,-2056,33,-9,18,-127,-53,-74,90
,1520,2023-10-27 11:14:24.10,192,-120,-2057,45,-8,16,-215,-19,-196,117
,1521,2023-10-27 11:14:24.11,187,-120,-2044,66,-3,13,-120,-35,-85,77
,1522,2023-10-27 11:14:24.12,204,-116,-2032,87,8,5,-214,-1,-213,107
,1523,2023-10-27 11:14:24.13,209,-127,-2016,110,27,-9,-123,-29,-94,76
,1524,2023-10-27 11:14:24.14,218,-130,-2016,141,51,-28,-209,0,-209,104
,1525,2023-10-27 11:14:24.15,220,-132,-2001,193,88,-51,-124,-35,-89,79
,1526,2023-10-27 11:14:24.16,232,-114,-1995,252,129,-79,-221,-21,-200,121
,1527,2023-10-27 11:14:24.17,230,-119,-1983,306,167,-113,-161,-86,-75,123
,1528,2023-10-27 11:14:24.18,238,-117,-1989,347,200,-147,-291,-119,-172,205
,1529,2023-10-27 11:14:24.19,183,-115,-1971,410,195,-181,-243,-206,-37,224
,1530,2023-10-27 11:14:24.20,250,-65,-2019,490,172,-212,-401,-283,-118,342
,1531,2023-10-27 11:14:24.21,261,-61,-2028,539,194,-267,-344,-355,11,349
,1532,2023-10-27 11:14:24.22,219,-53,-2041,548,221,-327,-450,-390,-60,420
,1533,2023-10-27 11:14:24.23,210,-73,-2033,539,211,-374,-358,-407,49,382
,1534,2023-10-27 11:14:24.24,211,-95,-2079,552,167,-414,-445,-399,-46,422
,1535,2023-10-27 11:14:24.25,206,-126,-2109,562,129,-447,-365,-416,51,390
,1536,2023-10-27 11:14:24.26,187,-163,-2104,561,80,-473,-436,-402,-34,419
,1537,2023-10-27 11:14:24.27,172,-172,-2087,545,30,-480,-350,-414,64,382
,1538,2023-10-27 11:14:24.28,194,-205,-2098,510,-3,-480,-406,-374,-32,390
,1539,2023-10-27 11:14:24.29,177,-247,-2113,468,-34,-475,-320,-369,49,344
,1540,2023-10-27 11:14:24.30,208,-347,-2035,440,-66,-466,-363,-305,-58,334
,1541,2023-10-27 11:14:24.31,179,-299,-2072,415,-63,-450,-292,-312,20,302
,1542,2023-10-27 11:14:24.32,162,-215,-2152,357,-80,-426,-322,-226,-96,274
,1543,2023-10-27 11:14:24.33,193,-226,-2214,246,-81,-398,-254,-242,-12,248
,1544,2023-10-27 11:14:24.34,202,-290,-2103,129,-81,-380,-267,-143,-124,205
,1545,2023-10-27 11:14:24.35,161,-280,-2068,57,-80,-348,-215,-177,-38,196
,1546,2023-10-27 11:14:24.36,149,-281,-2082,-7,-114,-310,-231,-76,-155,153
,1547,2023-10-27 11:14:24.37,130,-294,-2068,-72,-153,-265,-200,-130,-70,165
,1548,2023-10-27 11:14:24.38,132,-294,-2078,-127,-203,-213,-199,-23,-176,111
,1549,2023-10-27 11:14:24.39,165,-315,-2077,-186,-214,-166,-182,-101,-81,141
,1550,2023-10-27 11:14:24.40,154,-323,-2065,-249,-213,-125,-178,17,-195,80
,1551,2023-10-27 11:14:24.41,157,-339,-2054,-303,-216,-74,-172,-74,-98,123
,1552,2023-10-27 11:14:24.42,143,-333,-2049,-339,-228,-27,-160,51,-211,54
,1553,2023-10-27 11:14:24.43,139,-336,-2046,-357,-244,18,-161,-44,-117,102
,1554,2023-10-27 11:14:24.44,143,-330,-2072,-369,-248,60,-138,86,-224,26
,1555,2023-10-27 11:14:24.45,125,-320,-2059,-402,-234,98,-148,-21,-127,84
,1556,2023-10-27 11:14:24.46,126,-296,-2054,-430,-219,134,-120,115,-235,2
,1557,2023-10-27 11:14:24.47,132,-293,-2045,-443,-219,170,-141,-2,-139,71
,1558,2023-10-27 11:14:24.48,127,-301,-2039,-436,-222,200,-110,132,-242,-11
,1559,2023-10-27 11:14:24.49,119,-295,-2014,-425,-217,227,-143,-3,-140,73
,1560,2023-10-27 11:14:24.50,116,-298,-2028,-404,-202,249,-113,115,-228,-1
,1561,2023-10-27 11:14:24.51,104,-292,-2035,-376,-187,266,-166,-33,-133,99
,1562,2023-10-27 11:14:24.52,81,-296,-2024,-347,-165,280,-133,89,-222,22
,1563,2023-10-27 11:14:24.53,93,-280,-2021,-316,-145,298,-194,-65,-129,129
,1564,2023-10-27 11:14:24.54,110,-261,-2006,-278,-115,302,-153,60,-213,46
,1565,2023-10-27 11:14:24.55,93,-249,-1951,-226,-99,301,-214,-96,-118,155
,1566,2023-10-27 11:14:24.56,104,-249,-1923,-153,-93,295,-178,30,-208,74
,1567,2023-10-27 11:14:24.57,137,-213,-1932,-59,-76,280,-237,-116,-121,176
,1568,2023-10-27 11:14:24.58,151,-186,-1928,22,-32,245,-184,19,-203,82
,1569,2023-10-27 11:14:24.59,169,-133,-1936,78,26,192,-247,-130,-117,188
,1570,2023-10-27 11:14:24.60,159,-82,-1965,111,94,128,-182,11,-193,85
,1571,2023-10-27 11:14:24.61,122,-27,-2082,126,149,65,-258,-144,-114,201
,1572,2023-10-27 11:14:24.62,131,-57,-2036,148,137,0,-194,0,-194,97
,1573,2023-10-27 11:14:24.63,150,-62,-1974,201,138,-69,-268,-147,-121,207
,1574,2023-10-27 11:14:24.64,132,-18,-2016,244,153,-144,-194,5,-199,94
,1575,2023-10-27 11:14:24.65,112,6,-2085,239,144,-214,-271,-138,-133,204
,1576,2023-10-27 11:14:24.66,120,-9,-2092,215,120,-277,-190,21,-211,84
,1577,2023-10-27 11:14:24.67,142,-20,-2086,212,92,-334,-281,-147,-134,214
,1578,2023-10-27 11:14:24.68,146,-74,-2098,213,50,-375,-192,7,-199,92
,1579,2023-10-27 11:14:24.69,151,-130,-2087,202,18,-402,-277,-151,-126,214
,1580,2023-10-27 11:14:24.70,157,-156,-2068,182,9,-419,-184,5,-189,89
,1581,2023-10-27 11:14:24.71,173,-188,-2083,158,21,-426,-280,-154,-126,217
,1582,2023-10-27 11:14:24.72,191,-250,-2091,138,35,-421,-176,17,-193,79
,1583,2023-10-27 11:14:24.73,211,-268,-2090,103,63,-406,-288,-142,-146,215
,1584,2023-10-27 11:14:24.74,178,-283,-2027,70,100,-383,-167,42,-209,62
,1585,2023-10-27 11:14:24.75,194,-290,-2025,54,118,-347,-282,-130,-152,206
,1586,2023-10-27 11:14:24.76,201,-316,-2021,38,136,-301,-165,46,-211,59
,1587,2023-10-27 11:14:24.77,211,-312,-2017,19,152,-248,-286,-119,-167,202
,1588,2023-10-27 11:14:24.78,208,-306,-2005,-5,172,-193,-176,55,-231,60
,1589,2023-10-27 11:14:24.79,211,-303,-2006,-40,186,-139,-298,-128,-170,213
,1590,2023-10-27 11:14:24.80,202,-292,-2009,-73,194,-82,-180,25,-205,77
,1591,2023-10-27 11:14:24.81,212,-295,-2025,-100,199,-28,-312,-155,-157,233
,1592,2023-10-27 11:14:24.82,217,-309,-2049,-118,189,24,-192,4,-196,94
,1593,2023-10-27 11:14:24.83,189,-283,-2062,-128,169,77,-328,-162,-166,245
,1594,2023-10-27 11:14:24.84,220,-268,-2095,-166,151,126,-204,11,-215,96
,1595,2023-10-27 11:14:24.85,248,-297,-2027,-192,139,165,-343,-177,-166,260
,1596,2023-10-27 11:14:24.86,236,-291,-2011,-196,154,196,-216,-24,-192,120
,1597,2023-10-27 11:14:24.87,207,-255,-2015,-186,142,217,-354,-195,-159,274
,1598,2023-10-27 11:14:24.88,217,-226,-2056,-185,111,245,-221,-26,-195,123
,1599,2023-10-27 11:14:24.89,236,-186,-2072,-200,91,263,-362,-192,-170,277
,1600,2023-10-27 11:14:24.90,234,-161,-2069,-216,79,272,-215,-7,-208,111
,1601,2023-10-27 11:14:24.91,254,-164,-2066,-246,75,275,-352,-180,-172,266
,1602,2023-10-27 11:14:24.92,237,-142,-2064,-277,83,272,-198,-3,-195,100
,1603,2023-10-27 11:14:24.93,245,-127,-2048,-300,83,261,-348,-170,-178,259
,1604,2023-10-27 11:14:24.94,257,-121,-2038,-314,76,251,-199,6,-205,96
,1605,2023-10-27 11:14:24.95,258,-92,-2028,-321,84,237,-351,-161,-190,256
,1606,2023-10-27 11:14:24.96,260,-76,-2028,-327,86,206,-186,15,-201,85
,1607,2023-10-27 11:14:24.97,265,-66,-2028,-331,87,173,-347,-166,-181,256
,1608,2023-10-27 11:14:24.98,298,-30,-2023,-324,101,123,-180,14,-194,83
,1609,2023-10-27 11:14:24.99,282,-28,-2053,-295,109,60,-347,-164,-183,255
,1610,2023-10-27 11:14:25.00,283,-23,-2078,-255,108,-14,-194,13,-207,90
,1611,2023-10-27 11:14:25.01,278,-8,-2081,-205,121,-81,-365,-172,-193,268
,1612,2023-10-27 11:14:25.02,253,-65,-2072,-138,95,-146,-206,-15,-191,110
,1613,2023-10-27 11:14:25.03,286,-91,-2014,-56,77,-193,-395,-213,-182,304
,1614,2023-10-27 11:14:25.04,271,-112,-2035,31,87,-232,-254,-59,-195,156
,1615,2023-10-27 11:14:25.05,254,-129,-2053,98,84,-256,-439,-262,-177,350
,1616,2023-10-27 11:14:25.06,229,-146,-2092,143,92,-261,-284,-111,-173,197
,1617,2023-10-27 11:14:25.07,239,-180,-2080,180,88,-247,-454,-291,-163,372
,1618,2023-10-27 11:14:25.08,260,-195,-2044,222,99,-216,-294,-114,-180,204
,1619,2023-10-27 11:14:25.09,255,-181,-2059,250,123,-177,-452,-269,-183,360
,1620,2023-10-27 11:14:25.10,209,-209,-1951,284,86,-121,-253,-76,-177,164
,1621,2023-10-27 11:14:25.11,262,-216,-1903,365,55,-47,-409,-238,-171,323
,1622,2023-10-27 11:14:25.12,257,-186,-2070,424,60,20,-223,-58,-165,140
,1623,2023-10-27 11:14:25.13,244,-181,-2064,402,53,75,-408,-216,-192,312
,1624,2023-10-27 11:14:25.14,222,-156,-2089,344,72,143,-253,-45,-208,149
,1625,2023-10-27 11:14:25.15,240,-171,-2127,259,80,209,-412,-202,-210,307
,1626,2023-10-27 11:14:25.16,239,-205,-2116,186,76,275,-195,-28,-167,111
,1627,2023-10-27 11:14:25.17,235,-195,-2092,144,68,334,-370,-187,-183,278
,1628,2023-10-27 11:14:25.18,234,-211,-2057,114,54,385,-164,-4,-160,84
,1629,2023-10-27 11:14:25.19,236,-197,-2066,74,28,431,-353,-147,-206,250
,1630,2023-10-27 11:14:25.20,215,-123,-2070,28,21,458,-156,34,-190,61
,1631,2023-10-27 11:14:25.21,222,-95,-2067,-24,5,470,-347,-112,-235,229
,1632,2023-10-27 11:14:25.22,220,-113,-2118,-87,-27,482,-153,65,-218,44
,1633,2023-10-27 11:14:25.23,227,-82,-2116,-145,-48,485,-340,-79,-261,209
,1634,2023-10-27 11:14:25.24,217,-78,-2063,-173,-53,464,-138,83,-221,27
,1635,2023-10-27 11:14:25.25,234,-119,-2055,-174,-89,444,-335,-49,-286,192
,1636,2023-10-27 11:14:25.26,225,-63,-2020,-171,-111,412,-142,110,-252,16
,1637,2023-10-27 11:14:25.27,246,-51,-2026,-175,-128,373,-354,-47,-307,200
,1638,2023-10-27 11:14:25.28,242,-51,-2027,-185,-139,326,-171,92,-263,39
,1639,2023-10-27 11:14:25.29,242,-19,-2021,-181,-133,275,-368,-65,-303,216
,1640,2023-10-27 11:14:25.30,252,-20,-2007,-163,-125,214,-176,71,-247,52
,1641,2023-10-27 11:14:25.31,257,-24,-2003,-155,-116,155,-366,-80,-286,223
,1642,2023-10-27 11:14:25.32,252,-17,-2008,-166,-93,100,-166,54,-220,56
,1643,2023-10-27 11:14:25.33,249,-29,-2026,-178,-70,43,-370,-100,-270,235
,1644,2023-10-27 11:14:25.34,235,-64,-2071,-179,-53,0,-174,32,-206,71
,1645,2023-10-27 11:14:25.35,224,-81,-2077,-170,-46,-30,-366,-111,-255,238
,1646,2023-10-27 11:14:25.36,243,-97,-2042,-150,-27,-55,-167,20,-187,73
,1647,2023-10-27 11:14:25.37,232,-137,-2042,-130,11,-69,-356,-115,-241,235
,1648,2023-10-27 11:14:25.38,232,-153,-2034,-119,46,-76,-156,14,-170,71
,1649,2023-10-27 11:14:25.39,248,-157,-2022,-103,84,-76,-358,-119,-239,238
,1650,2023-10-27 11:14:25.40,235,-153,-2018,-71,98,-68,-168,7,-175,80
,1651,2023-10-27 11:14:25.41,238,-116,-2080,-49,93,-38,-373,-126,-247,249
,1652,2023-10-27 11:14:25.42,284,-145,-1986,-24,63,-23,-188,-7,-181,97
,1653,2023-10-27 11:14:25.43,279,-120,-1958,24,99,-16,-393,-126,-267,259
,1654,2023-10-27 11:14:25.44,254,-97,-2062,40,110,-7,-214,-14,-200,114
,1655,2023-10-27 11:14:25.45,269,-110,-2045,21,113,-3,-418,-138,-280,278
,1656,2023-10-27 11:14:25.46,257,-102,-2054,11,147,2,-231,-30,-201,130
,1657,2023-10-27 11:14:25.47,245,-99,-2064,26,125,6,-421,-163,-258,292
,1658,2023-10-27 11:14:25.48,273,-95,-2054,39,102,12,-228,-58,-170,143
,1659,2023-10-27 11:14:25.49,276,-82,-2042,40,113,8,-429,-178,-251,303
,1660,2023-10-27 11:14:25.50,262,-89,-2039,33,111,0,-261,-79,-182,170
,1661,2023-10-27 11:14:25.51,266,-81,-2047,27,100,-4,-462,-191,-271,326
,1662,2023-10-27 11:14:25.52,294,-87,-2065,27,89,-5,-285,-95,-190,190
,1663,2023-10-27 11:14:25.53,283,-97,-2067,29,86,-7,-490,-196,-294,343
,1664,2023-10-27 11:14:25.54,264,-99,-2081,27,85,-6,-319,-106,-213,212
,1665,2023-10-27 11:14:25.55,266,-125,-2082,24,69,-7,-500,-226,-274,363
,1666,2023-10-27 11:14:25.56,268,-138,-2040,31,63,-1,-297,-129,-168,213
,1667,2023-10-27 11:14:25.57,255,-117,-2058,48,60,3,-458,-225,-233,341
,1668,2023-10-27 11:14:25.58,250,-112,-2070,53,48,9,-272,-131,-141,201
,1669,2023-10-27 11:14:25.59,262,-110,-2069,50,38,12,-440,-211,-229,325
,1670,2023-10-27 11:14:25.60,264,-113,-2064,45,27,19,-266,-132,-134,199
,1671,2023-10-27 11:14:25.61,272,-107,-2056,43,21,25,-433,-214,-219,323
,1672,2023-10-27 11:14:25.62,275,-119,-2041,39,27,27,-250,-130,-120,190
,1673,2023-10-27 11:14:25.63,269,-121,-2036,29,38,28,-439,-200,-239,319
,1674,2023-10-27 11:14:25.64,271,-119,-2041,23,50,29,-282,-124,-158,203
,1675,2023-10-27 11:14:25.65,251,-107,-2033,27,47,25,-451,-200,-251,325
,1676,2023-10-27 11:14:25.66,273,-121,-2059,42,6,34,-283,-136,-147,209
,1677,2023-10-27 11:14:25.67,300,-125,-2073,38,26,34,-432,-196,-236,314
,1678,2023-10-27 11:14:25.68,276,-139,-2051,40,53,34,-265,-140,-125,202
,1679,2023-10-27 11:14:25.69,261,-123,-2006,60,70,23,-422,-203,-219,312
,1680,2023-10-27 11:14:25.70,278,-146,-2026,83,59,24,-260,-150,-110,205
,1681,2023-10-27 11:14:25.71,298,-134,-2056,85,32,29,-417,-205,-212,311
,1682,2023-10-27 11:14:25.72,270,-105,-2047,87,51,26,-257,-150,-107,203
,1683,2023-10-27 11:14:25.73,265,-115,-2026,96,53,21,-410,-201,-209,305
,1684,2023-10-27 11:14:25.74,283,-115,-2041,97,41,20,-261,-155,-106,208
,1685,2023-10-27 11:14:25.75,269,-119,-2050,84,50,16,-405,-201,-204,303
,1686,2023-10-27 11:14:25.76,256,-124,-2064,72,31,17,-260,-161,-99,210
,1687,2023-10-27 11:14:25.77,291,-120,-2061,70,11,20,-407,-193,-214,300
,1688,2023-10-27 11:14:25.78,289,-126,-2045,65,39,11,-267,-153,-114,210
,1689,2023-10-27 11:14:25.79,301,-149,-2044,65,41,8,-406,-194,-212,300
,1690,2023-10-27 11:14:25.80,290,-145,-2032,64,42,1,-260,-163,-97,211
,1691,2023-10-27 11:14:25.81,283,-144,-2052,68,42,0,-402,-189,-213,295
,1692,2023-10-27 11:14:25.82,271,-151,-2045,85,21,1,-279,-163,-116,221
,1693,2023-10-27 11:14:25.83,322,-145,-2032,111,7,4,-419,-191,-228,305
,1694,2023-10-27 11:14:25.84,291,-145,-2024,117,34,-1,-292,-183,-109,237
,1695,2023-10-27 11:14:25.85,272,-149,-2021,112,29,-1,-415,-208,-207,311
,1696,2023-10-27 11:14:25.86,307,-151,-2028,114,19,-3,-283,-190,-93,236
,1697,2023-10-27 11:14:25.87,317,-139,-2042,132,45,-13,-430,-207,-223,318
,1698,2023-10-27 11:14:25.88,287,-153,-2037,151,56,-22,-320,-184,-136,252
,1699,2023-10-27 11:14:25.89,309,-160,-2016,177,61,-33,-421,-188,-233,304
