// Data mode  : Full
// Data quality  : High
// Acceleration sensor's range  : 16g
// Gyroscope sensor's range  : 2000dps
//
//ARTIFACT,NUM,DATE,ACC_X,ACC_Y,ACC_Z,GYRO_X,GYRO_Y,GYRO_Z,EOG_L,EOG_R,EOG_H,EOG_V
,1,2023-10-27 10:45:10.29,261,-97,-2180,-50,-386,-1070,-555,405,-960,75
,2,2023-10-27 10:45:10.30,265,-105,-2185,-25,-439,-1189,-653,533,-1186,60
,3,2023-10-27 10:45:10.31,248,-106,-2156,-10,-502,-1310,-543,424,-967,59
,4,2023-10-27 10:45:10.32,282,-78,-2206,22,-574,-1434,-639,551,-1190,44
,5,2023-10-27 10:45:10.33,290,-70,-2153,64,-654,-1548,-547,433,-980,57
,6,2023-10-27 10:45:10.34,296,-68,-2179,109,-735,-1674,-653,512,-1165,70
,7,2023-10-27 10:45:10.35,313,-36,-2111,148,-817,-1793,-570,387,-957,91
,8,2023-10-27 10:45:10.36,299,-12,-2071,137,-827,-1903,-663,493,-1156,85
,9,2023-10-27 10:45:10.37,282,-73,-2009,116,-827,-2018,-580,398,-978,91
,10,2023-10-27 10:45:10.38,244,-55,-1974,110,-789,-2112,-640,517,-1157,61
,11,2023-10-27 10:45:10.39,278,-109,-2029,114,-800,-2170,-545,429,-974,58
,12,2023-10-27 10:45:10.40,208,-41,-2009,64,-750,-2253,-605,545,-1150,30
,13,2023-10-27 10:45:10.41,259,-144,-2069,67,-758,-2302,-530,462,-992,34
,14,2023-10-27 10:45:10.42,163,-167,-2015,22,-718,-2322,-576,577,-1153,0
,15,2023-10-27 10:45:10.43,262,-155,-2020,24,-732,-2363,-509,498,-1007,5
,16,2023-10-27 10:45:10.44,232,-198,-2044,20,-715,-2391,-560,588,-1148,-14
,17,2023-10-27 10:45:10.45,225,-288,-2035,6,-717,-2409,-502,503,-1005,0
,18,2023-10-27 10:45:10.46,163,-160,-1897,10,-723,-2427,-552,587,-1139,-17
,19,2023-10-27 10:45:10.47,218,-150,-2067,25,-625,-2444,-501,510,-1011,-4
,20,2023-10-27 10:45:10.48,210,-193,-2077,-12,-636,-2445,-536,599,-1135,-31
,21,2023-10-27 10:45:10.49,232,-259,-1905,-61,-563,-2435,-492,532,-1024,-20
,22,2023-10-27 10:45:10.50,176,-274,-1941,-83,-453,-2443,-514,620,-1134,-53
,23,2023-10-27 10:45:10.51,151,-301,-1924,-91,-371,-2426,-474,559,-1033,-42
,24,2023-10-27 10:45:10.52,118,-302,-1946,-78,-315,-2395,-491,631,-1122,-70
,25,2023-10-27 10:45:10.53,125,-312,-1964,-62,-287,-2352,-468,566,-1034,-49
,26,2023-10-27 10:45:10.54,118,-321,-2012,-23,-278,-2290,-487,627,-1114,-70
,27,2023-10-27 10:45:10.55,126,-391,-1997,12,-283,-2210,-474,577,-1051,-51
,28,2023-10-27 10:45:10.56,111,-370,-2031,15,-257,-2151,-486,636,-1122,-75
,29,2023-10-27 10:45:10.57,92,-377,-2066,-55,-201,-2056,-488,582,-1070,-47
,30,2023-10-27 10:45:10.58,153,-435,-2061,-81,-146,-1954,-486,628,-1114,-71
,31,2023-10-27 10:45:10.59,95,-434,-2023,-109,-63,-1870,-483,581,-1064,-49
,32,2023-10-27 10:45:10.60,88,-444,-1974,-82,-43,-1744,-473,637,-1110,-82
,33,2023-10-27 10:45:10.61,79,-460,-1976,-44,-47,-1626,-480,612,-1092,-66
,34,2023-10-27 10:45:10.62,98,-390,-1982,-44,-29,-1517,-483,605,-1088,-61
,35,2023-10-27 10:45:10.63,69,-341,-2003,-70,2,-1418,-493,575,-1068,-41
,36,2023-10-27 10:45:10.64,62,-352,-2012,-96,36,-1322,-491,589,-1080,-49
,37,2023-10-27 10:45:10.65,57,-331,-2028,-113,39,-1231,-504,592,-1096,-44
,38,2023-10-27 10:45:10.66,47,-323,-2041,-146,45,-1127,-493,599,-1092,-53
,39,2023-10-27 10:45:10.67,36,-337,-2052,-175,40,-1037,-512,604,-1116,-46
,40,2023-10-27 10:45:10.68,71,-325,-2071,-180,39,-938,-497,591,-1088,-47
,41,2023-10-27 10:45:10.69,59,-298,-2109,-197,32,-859,-520,599,-1119,-39
,42,2023-10-27 10:45:10.70,75,-275,-2064,-220,21,-769,-503,568,-1071,-32
,43,2023-10-27 10:45:10.71,61,-268,-2083,-242,29,-685,-530,588,-1118,-29
,44,2023-10-27 10:45:10.72,59,-253,-2064,-244,-1,-613,-511,568,-1079,-28
,45,2023-10-27 10:45:10.73,85,-229,-2090,-257,12,-522,-542,603,-1145,-30
,46,2023-10-27 10:45:10.74,87,-242,-2093,-254,1,-448,-514,577,-1091,-31
,47,2023-10-27 10:45:10.75,74,-229,-2076,-255,-13,-366,-543,614,-1157,-35
,48,2023-10-27 10:45:10.76,89,-192,-2082,-271,-1,-297,-500,575,-1075,-37
,49,2023-10-27 10:45:10.77,82,-191,-2093,-280,3,-230,-541,617,-1158,-38
,50,2023-10-27 10:45:10.78,77,-190,-2080,-281,12,-165,-496,576,-1072,-40
,51,2023-10-27 10:45:10.79,78,-175,-2069,-271,3,-101,-544,635,-1179,-45
,52,2023-10-27 10:45:10.80,88,-154,-2046,-251,-6,-41,-492,584,-1076,-46
,53,2023-10-27 10:45:10.81,87,-148,-2053,-249,16,5,-547,642,-1189,-47
,54,2023-10-27 10:45:10.82,81,-111,-2048,-237,27,47,-489,581,-1070,-46
,55,2023-10-27 10:45:10.83,80,-101,-2050,-213,43,83,-551,640,-1191,-44
,56,2023-10-27 10:45:10.84,65,-105,-2073,-191,56,114,-492,578,-1070,-43
,57,2023-10-27 10:45:10.85,67,-94,-2083,-180,61,139,-559,651,-1210,-46
,58,2023-10-27 10:45:10.86,78,-70,-2091,-153,57,160,-489,584,-1073,-47
,59,2023-10-27 10:45:10.87,88,-51,-2081,-127,53,174,-564,655,-1219,-45
,60,2023-10-27 10:45:10.88,73,-42,-2076,-118,66,180,-492,582,-1074,-45
,61,2023-10-27 10:45:10.89,71,-46,-2080,-104,61,187,-567,667,-1234,-50
,62,2023-10-27 10:45:10.90,82,-39,-2082,-81,60,194,-480,580,-1060,-50
,63,2023-10-27 10:45:10.91,72,-30,-2091,-61,45,191,-562,672,-1234,-55
,64,2023-10-27 10:45:10.92,78,-21,-2072,-51,45,189,-472,593,-1065,-60
,65,2023-10-27 10:45:10.93,64,-18,-2062,-51,46,185,-561,686,-1247,-62
,66,2023-10-27 10:45:10.94,64,0,-2074,-52,49,176,-464,585,-1049,-60
,67,2023-10-27 10:45:10.95,74,-5,-2072,-50,47,168,-561,686,-1247,-62
,68,2023-10-27 10:45:10.96,66,7,-2065,-43,50,158,-466,596,-1062,-65
,69,2023-10-27 10:45:10.97,85,20,-2059,-30,41,144,-562,716,-1278,-77
,70,2023-10-27 10:45:10.98,61,12,-2052,-20,38,129,-469,601,-1070,-66
,71,2023-10-27 10:45:10.99,70,0,-2048,-15,52,117,-576,711,-1287,-67
,72,2023-10-27 10:45:11.00,75,7,-2053,-12,63,107,-478,589,-1067,-55
,73,2023-10-27 10:45:11.01,103,0,-2047,2,48,96,-587,708,-1295,-60
,74,2023-10-27 10:45:11.02,86,7,-2061,11,44,94,-472,599,-1071,-63
,75,2023-10-27 10:45:11.03,98,-1,-2034,13,44,86,-589,716,-1305,-63
,76,2023-10-27 10:45:11.04,101,-21,-2049,28,48,81,-458,604,-1062,-73
,77,2023-10-27 10:45:11.05,103,-1,-2027,39,49,76,-581,731,-1312,-75
,78,2023-10-27 10:45:11.06,87,1,-2006,46,53,69,-456,607,-1063,-75
,79,2023-10-27 10:45:11.07,106,-16,-2004,52,66,64,-584,741,-1325,-78
,80,2023-10-27 10:45:11.08,105,-36,-2031,71,60,61,-457,607,-1064,-75
,81,2023-10-27 10:45:11.09,104,-19,-2040,88,57,58,-589,746,-1335,-78
,82,2023-10-27 10:45:11.10,104,-21,-2046,98,51,51,-456,608,-1064,-76
,83,2023-10-27 10:45:11.11,112,-23,-2037,106,42,48,-594,742,-1336,-74
,84,2023-10-27 10:45:11.12,128,-25,-2027,114,46,47,-454,584,-1038,-65
,85,2023-10-27 10:45:11.13,122,-34,-2032,114,54,43,-591,739,-1330,-74
,86,2023-10-27 10:45:11.14,121,-58,-2044,113,54,44,-442,592,-1034,-75
,87,2023-10-27 10:45:11.15,109,-65,-2059,119,49,46,-588,757,-1345,-84
,88,2023-10-27 10:45:11.16,121,-82,-2075,118,45,55,-439,603,-1042,-82
,89,2023-10-27 10:45:11.17,108,-74,-2084,103,37,69,-587,766,-1353,-89
,90,2023-10-27 10:45:11.18,124,-75,-2084,98,22,76,-436,602,-1038,-83
,91,2023-10-27 10:45:11.19,118,-81,-2089,90,14,83,-590,772,-1362,-91
,92,2023-10-27 10:45:11.20,118,-66,-2086,77,1,86,-435,603,-1038,-84
,93,2023-10-27 10:45:11.21,127,-65,-2075,64,-2,90,-592,775,-1367,-91
,94,2023-10-27 10:45:11.22,126,-61,-2080,47,-4,92,-436,602,-1038,-83
,95,2023-10-27 10:45:11.23,110,-78,-2069,43,-10,92,-597,785,-1382,-94
,96,2023-10-27 10:45:11.24,116,-74,-2076,38,-19,92,-430,612,-1042,-91
,97,2023-10-27 10:45:11.25,117,-74,-2064,30,-22,88,-597,793,-1390,-98
,98,2023-10-27 10:45:11.26,121,-78,-2059,22,-19,85,-432,612,-1044,-90
,99,2023-10-27 10:45:11.27,109,-88,-2079,12,-14,83,-600,803,-1403,-101
,100,2023-10-27 10:45:11.28,112,-86,-2077,10,-21,82,-432,607,-1039,-87
,101,2023-10-27 10:45:11.29,119,-90,-2062,15,-31,79,-606,798,-1404,-96
,102,2023-10-27 10:45:11.30,113,-78,-2057,17,-32,74,-432,603,-1035,-85
,103,2023-10-27 10:45:11.31,100,-78,-2061,12,-29,71,-605,800,-1405,-97
,104,2023-10-27 10:45:11.32,112,-81,-2053,5,-31,66,-431,597,-1028,-83
,105,2023-10-27 10:45:11.33,108,-79,-2048,6,-32,61,-611,800,-1411,-94
,106,2023-10-27 10:45:11.34,109,-84,-2037,7,-33,52,-435,598,-1033,-81
,107,2023-10-27 10:45:11.35,102,-92,-2042,4,-28,51,-613,799,-1412,-93
,108,2023-10-27 10:45:11.36,101,-90,-2050,-1,-24,51,-433,590,-1023,-78
,109,2023-10-27 10:45:11.37,107,-97,-2057,-2,-23,49,-613,798,-1411,-92
,110,2023-10-27 10:45:11.38,103,-88,-2052,-3,-25,50,-424,606,-1030,-91
,111,2023-10-27 10:45:11.39,107,-99,-2056,-4,-24,52,-615,797,-1412,-91
,112,2023-10-27 10:45:11.40,99,-96,-2060,-5,-25,57,-431,583,-1014,-76
,113,2023-10-27 10:45:11.41,108,-96,-2062,-5,-30,63,-623,781,-1404,-79
,114,2023-10-27 10:45:11.42,96,-98,-2066,0,-37,67,-439,580,-1019,-70
,115,2023-10-27 10:45:11.43,102,-95,-2057,-5,-36,70,-627,802,-1429,-87
,116,2023-10-27 10:45:11.44,106,-89,-2061,-10,-32,73,-437,587,-1024,-75
,117,2023-10-27 10:45:11.45,94,-101,-2065,-12,-30,76,-623,801,-1424,-89
,118,2023-10-27 10:45:11.46,94,-91,-2060,-9,-32,77,-438,581,-1019,-71
,119,2023-10-27 10:45:11.47,95,-99,-2056,-9,-34,77,-633,792,-1425,-79
,120,2023-10-27 10:45:11.48,94,-94,-2056,-12,-22,81,-434,583,-1017,-74
,121,2023-10-27 10:45:11.49,91,-106,-2062,-9,-19,81,-623,804,-1427,-90
,122,2023-10-27 10:45:11.50,93,-87,-2048,-7,-17,78,-433,582,-1015,-74
,123,2023-10-27 10:45:11.51,89,-100,-2052,-2,-22,80,-625,808,-1433,-91
,124,2023-10-27 10:45:11.52,105,-91,-2063,-2,-17,80,-429,583,-1012,-77
,125,2023-10-27 10:45:11.53,88,-94,-2068,-3,-12,81,-620,805,-1425,-92
,126,2023-10-27 10:45:11.54,101,-103,-2062,-2,-10,75,-426,577,-1003,-75
,127,2023-10-27 10:45:11.55,104,-89,-2050,5,1,73,-621,810,-1431,-94
,128,2023-10-27 10:45:11.56,96,-72,-2059,-1,15,68,-425,580,-1005,-77
,129,2023-10-27 10:45:11.57,91,-91,-2065,-10,21,68,-620,808,-1428,-94
,130,2023-10-27 10:45:11.58,82,-89,-2073,-9,19,62,-425,581,-1006,-78
,131,2023-10-27 10:45:11.59,86,-98,-2080,-9,14,64,-623,815,-1438,-96
,132,2023-10-27 10:45:11.60,93,-98,-2061,-12,14,62,-431,582,-1013,-75
,133,2023-10-27 10:45:11.61,93,-102,-2066,-8,10,59,-629,810,-1439,-90
,134,2023-10-27 10:45:11.62,100,-87,-2064,0,-3,57,-433,579,-1012,-73
,135,2023-10-27 10:45:11.63,97,-75,-2059,3,-9,53,-627,816,-1443,-94
,136,2023-10-27 10:45:11.64,91,-84,-2048,-2,-5,47,-432,578,-1010,-73
,137,2023-10-27 10:45:11.65,92,-89,-2059,-4,-2,44,-630,814,-1444,-92
,138,2023-10-27 10:45:11.66,92,-87,-2050,-14,3,39,-436,583,-1019,-73
,139,2023-10-27 10:45:11.67,92,-88,-2050,-15,7,35,-629,813,-1442,-92
,140,2023-10-27 10:45:11.68,97,-80,-2058,-19,2,35,-439,579,-1018,-70
,141,2023-10-27 10:45:11.69,94,-81,-2060,-22,5,33,-632,815,-1447,-91
,142,2023-10-27 10:45:11.70,97,-87,-2058,-21,1,33,-438,581,-1019,-71
,143,2023-10-27 10:45:11.71,83,-86,-2056,-16,-7,33,-633,811,-1444,-89
,144,2023-10-27 10:45:11.72,91,-71,-2068,-13,-9,33,-444,580,-1024,-68
,145,2023-10-27 10:45:11.73,93,-87,-2050,-13,-7,33,-637,816,-1453,-89
,146,2023-10-27 10:45:11.74,86,-85,-2053,-12,-3,31,-446,587,-1033,-70
,147,2023-10-27 10:45:11.75,86,-93,-2059,-8,-1,31,-638,816,-1454,-89
,148,2023-10-27 10:45:11.76,95,-100,-2068,0,-9,35,-449,586,-1035,-68
,149,2023-10-27 10:45:11.77,93,-87,-2072,2,-10,36,-632,812,-1444,-90
,150,2023-10-27 10:45:11.78,81,-83,-2062,7,-8,37,-443,577,-1020,-67
,151,2023-10-27 10:45:11.79,89,-80,-2057,11,-11,36,-628,818,-1446,-95
,152,2023-10-27 10:45:11.80,95,-78,-2066,4,-5,35,-450,586,-1036,-68
,153,2023-10-27 10:45:11.81,88,-78,-2054,4,5,29,-634,807,-1441,-86
,154,2023-10-27 10:45:11.82,80,-79,-2043,6,6,32,-455,572,-1027,-58
,155,2023-10-27 10:45:11.83,90,-89,-2064,5,14,33,-636,810,-1446,-87
,156,2023-10-27 10:45:11.84,86,-92,-2065,7,14,33,-456,591,-1047,-67
,157,2023-10-27 10:45:11.85,90,-89,-2054,10,18,36,-637,812,-1449,-87
,158,2023-10-27 10:45:11.86,94,-92,-2067,15,13,37,-464,595,-1059,-65
,159,2023-10-27 10:45:11.87,96,-96,-2057,22,9,39,-639,815,-1454,-88
,160,2023-10-27 10:45:11.88,96,-92,-2063,27,12,43,-469,589,-1058,-60
,161,2023-10-27 10:45:11.89,103,-77,-2057,29,10,42,-635,811,-1446,-88
,162,2023-10-27 10:45:11.90,94,-84,-2064,29,10,38,-462,597,-1059,-67
,163,2023-10-27 10:45:11.91,94,-88,-2064,32,10,41,-633,812,-1445,-89
,164,2023-10-27 10:45:11.92,90,-76,-2065,29,12,38,-461,602,-1063,-70
,165,2023-10-27 10:45:11.93,97,-80,-2053,25,15,35,-632,809,-1441,-88
,166,2023-10-27 10:45:11.94,91,-74,-2068,17,23,30,-468,603,-1071,-67
,167,2023-10-27 10:45:11.95,92,-82,-2066,11,16,27,-630,812,-1442,-91
,168,2023-10-27 10:45:11.96,103,-81,-2058,11,8,26,-467,606,-1073,-69
,169,2023-10-27 10:45:11.97,103,-80,-2061,6,10,22,-626,805,-1431,-89
,170,2023-10-27 10:45:11.98,96,-79,-2056,8,9,19,-470,608,-1078,-69
,171,2023-10-27 10:45:11.99,99,-76,-2054,3,15,15,-623,803,-1426,-90
,172,2023-10-27 10:45:12.00,113,-73,-2064,-1,18,12,-470,606,-1076,-68
,173,2023-10-27 10:45:12.01,115,-86,-2053,-2,17,10,-624,796,-1420,-86
,174,2023-10-27 10:45:12.02,106,-79,-2062,2,18,6,-476,610,-1086,-67
,175,2023-10-27 10:45:12.03,98,-86,-2064,4,13,6,-625,799,-1424,-87
,176,2023-10-27 10:45:12.04,106,-91,-2072,7,3,4,-482,613,-1095,-65
,177,2023-10-27 10:45:12.05,94,-87,-2064,5,5,6,-623,795,-1418,-86
,178,2023-10-27 10:45:12.06,110,-74,-2065,2,6,6,-482,620,-1102,-69
,179,2023-10-27 10:45:12.07,107,-83,-2079,1,-1,8,-616,794,-1410,-89
,180,2023-10-27 10:45:12.08,91,-75,-2072,-4,-10,12,-483,618,-1101,-67
,181,2023-10-27 10:45:12.09,99,-81,-2072,-12,-8,10,-615,790,-1405,-87
,182,2023-10-27 10:45:12.10,97,-79,-2069,-14,-11,14,-485,622,-1107,-68
,183,2023-10-27 10:45:12.11,111,-76,-2065,-13,-14,19,-611,781,-1392,-85
,184,2023-10-27 10:45:12.12,100,-70,-2060,-14,-14,22,-486,623,-1109,-68
,185,2023-10-27 10:45:12.13,104,-85,-2054,-16,-18,24,-608,783,-1391,-87
,186,2023-10-27 10:45:12.14,96,-77,-2062,-15,-15,28,-493,625,-1118,-66
,187,2023-10-27 10:45:12.15,99,-82,-2057,-11,-19,32,-608,779,-1387,-85
,188,2023-10-27 10:45:12.16,95,-75,-2066,-10,-10,33,-495,632,-1127,-68
,189,2023-10-27 10:45:12.17,101,-79,-2058,-9,-9,35,-603,771,-1374,-84
,190,2023-10-27 10:45:12.18,94,-79,-2063,-7,-7,37,-499,633,-1132,-67
,191,2023-10-27 10:45:12.19,80,-68,-2049,-3,-9,40,-602,774,-1376,-86
,192,2023-10-27 10:45:12.20,82,-74,-2061,-3,-9,39,-495,647,-1142,-76
,193,2023-10-27 10:45:12.21,83,-73,-2063,-5,-6,37,-602,764,-1366,-81
,194,2023-10-27 10:45:12.22,95,-67,-2056,1,-12,30,-510,639,-1149,-64
,195,2023-10-27 10:45:12.23,100,-61,-2042,8,-7,20,-598,760,-1358,-81
,196,2023-10-27 10:45:12.24,98,-71,-2047,6,1,12,-510,641,-1151,-65
,197,2023-10-27 10:45:12.25,90,-69,-2060,6,7,7,-594,758,-1352,-82
,198,2023-10-27 10:45:12.26,95,-72,-2078,0,19,2,-518,640,-1158,-61
,199,2023-10-27 10:45:12.27,79,-77,-2079,-2,14,0,-591,757,-1348,-83
,200,2023-10-27 10:45:12.28,89,-77,-2075,0,5,1,-517,658,-1175,-70
,201,2023-10-27 10:45:12.29,96,-81,-2071,-1,-1,2,-586,763,-1349,-88
,202,2023-10-27 10:45:12.30,86,-81,-2069,0,-6,4,-515,665,-1180,-75
,203,2023-10-27 10:45:12.31,94,-76,-2054,-1,-10,1,-579,758,-1337,-89
,204,2023-10-27 10:45:12.32,94,-78,-2058,-1,-13,2,-519,663,-1182,-72
,205,2023-10-27 10:45:12.33,92,-70,-2063,-8,-11,3,-575,756,-1331,-90
,206,2023-10-27 10:45:12.34,97,-78,-2065,-15,-8,4,-519,674,-1193,-77
,207,2023-10-27 10:45:12.35,87,-70,-2068,-13,-9,4,-576,746,-1322,-85
,208,2023-10-27 10:45:12.36,92,-74,-2065,-13,-10,3,-534,671,-1205,-68
,209,2023-10-27 10:45:12.37,87,-76,-2062,-14,-15,5,-578,741,-1319,-81
,210,2023-10-27 10:45:12.38,75,-64,-2061,-13,-17,1,-536,676,-1212,-70
,211,2023-10-27 10:45:12.39,91,-59,-2050,-15,-11,0,-572,733,-1305,-80
,212,2023-10-27 10:45:12.40,90,-67,-2052,-15,-4,-2,-536,678,-1214,-71
,213,2023-10-27 10:45:12.41,84,-68,-2055,-11,-8,-4,-566,732,-1298,-83
,214,2023-10-27 10:45:12.42,86,-71,-2043,-15,-3,-3,-543,682,-1225,-69
,215,2023-10-27 10:45:12.43,85,-70,-2054,-14,0,-3,-564,730,-1294,-83
,216,2023-10-27 10:45:12.44,88,-67,-2057,-8,1,-5,-542,687,-1229,-72
,217,2023-10-27 10:45:12.45,92,-67,-2063,-7,4,-3,-560,722,-1282,-81
,218,2023-10-27 10:45:12.46,89,-73,-2066,-3,2,-1,-546,691,-1237,-72
,219,2023-10-27 10:45:12.47,99,-66,-2064,-5,3,1,-554,722,-1276,-84
,220,2023-10-27 10:45:12.48,82,-73,-2052,-4,6,6,-548,697,-1245,-74
,221,2023-10-27 10:45:12.49,95,-76,-2060,2,7,9,-552,714,-1266,-81
,222,2023-10-27 10:45:12.50,87,-67,-2062,8,7,10,-552,701,-1253,-74
,223,2023-10-27 10:45:12.51,85,-77,-2063,11,4,15,-548,711,-1259,-81
,224,2023-10-27 10:45:12.52,88,-81,-2063,15,1,24,-559,700,-1259,-70
,225,2023-10-27 10:45:12.53,104,-77,-2064,15,1,27,-547,704,-1251,-78
,226,2023-10-27 10:45:12.54,102,-71,-2055,17,2,28,-563,706,-1269,-71
,227,2023-10-27 10:45:12.55,92,-68,-2057,19,0,28,-545,695,-1240,-75
,228,2023-10-27 10:45:12.56,87,-67,-2058,19,3,26,-565,705,-1270,-70
,229,2023-10-27 10:45:12.57,91,-66,-2055,18,1,23,-540,694,-1234,-77
,230,2023-10-27 10:45:12.58,96,-62,-2061,15,3,21,-572,703,-1275,-65
,231,2023-10-27 10:45:12.59,84,-75,-2061,14,3,16,-539,685,-1224,-73
,232,2023-10-27 10:45:12.60,91,-70,-2061,14,-1,15,-573,715,-1288,-71
,233,2023-10-27 10:45:12.61,85,-73,-2067,13,-2,13,-525,694,-1219,-84
,234,2023-10-27 10:45:12.62,85,-73,-2063,13,-2,11,-576,713,-1289,-68
,235,2023-10-27 10:45:12.63,90,-71,-2070,6,-3,9,-533,679,-1212,-73
,236,2023-10-27 10:45:12.64,87,-70,-2061,0,-3,6,-581,708,-1289,-63
,237,2023-10-27 10:45:12.65,100,-72,-2057,1,-7,4,-525,669,-1194,-72
,238,2023-10-27 10:45:12.66,75,-66,-2054,-1,-10,1,-581,721,-1302,-70
,239,2023-10-27 10:45:12.67,87,-61,-2053,-4,-8,-1,-526,665,-1191,-69
,240,2023-10-27 10:45:12.68,90,-64,-2049,-14,-1,-5,-581,730,-1311,-74
,241,2023-10-27 10:45:12.69,86,-71,-2052,-19,5,-5,-520,662,-1182,-71
,242,2023-10-27 10:45:12.70,89,-72,-2053,-14,6,-5,-584,728,-1312,-72
,243,2023-10-27 10:45:12.71,87,-74,-2055,-11,4,-2,-515,659,-1174,-72
,244,2023-10-27 10:45:12.72,93,-75,-2057,-11,8,-1,-589,728,-1317,-69
,245,2023-10-27 10:45:12.73,90,-80,-2060,-5,7,7,-515,649,-1164,-67
,246,2023-10-27 10:45:12.74,87,-79,-2069,0,4,13,-594,734,-1328,-70
,247,2023-10-27 10:45:12.75,88,-62,-2065,-1,1,14,-511,650,-1161,-69
,248,2023-10-27 10:45:12.76,87,-78,-2062,-10,9,17,-596,736,-1332,-70
,249,2023-10-27 10:45:12.77,87,-66,-2072,-4,3,25,-508,644,-1152,-68
,250,2023-10-27 10:45:12.78,96,-64,-2069,-3,-9,26,-600,740,-1340,-70
,251,2023-10-27 10:45:12.79,90,-64,-2064,-5,-10,29,-506,644,-1150,-69
,252,2023-10-27 10:45:12.80,86,-52,-2073,-8,-8,31,-604,746,-1350,-71
,253,2023-10-27 10:45:12.81,93,-60,-2065,-13,-12,32,-505,640,-1145,-67
,254,2023-10-27 10:45:12.82,95,-60,-2068,-17,-15,33,-607,752,-1359,-72
,255,2023-10-27 10:45:12.83,63,-51,-2068,-20,-14,31,-505,637,-1142,-66
,256,2023-10-27 10:45:12.84,81,-49,-2070,-22,-16,29,-612,758,-1370,-73
,257,2023-10-27 10:45:12.85,88,-49,-2053,-22,-13,26,-503,636,-1139,-66
,258,2023-10-27 10:45:12.86,79,-51,-2053,-21,-10,24,-613,755,-1368,-71
,259,2023-10-27 10:45:12.87,77,-52,-2051,-22,0,22,-500,629,-1129,-64
,260,2023-10-27 10:45:12.88,74,-58,-2056,-20,3,19,-617,761,-1378,-72
,261,2023-10-27 10:45:12.89,73,-60,-2058,-14,4,14,-491,631,-1122,-70
,262,2023-10-27 10:45:12.90,81,-58,-2041,-5,6,14,-611,765,-1376,-77
,263,2023-10-27 10:45:12.91,73,-59,-2054,-5,11,13,-485,627,-1112,-71
,264,2023-10-27 10:45:12.92,89,-53,-2060,-7,11,9,-614,765,-1379,-75
,265,2023-10-27 10:45:12.93,86,-48,-2058,-3,14,0,-487,608,-1095,-60
,266,2023-10-27 10:45:12.94,89,-47,-2053,2,15,-2,-622,753,-1375,-65
,267,2023-10-27 10:45:12.95,84,-43,-2063,2,21,-11,-485,605,-1090,-60
,268,2023-10-27 10:45:12.96,73,-58,-2064,-5,29,-14,-617,764,-1381,-73
,269,2023-10-27 10:45:12.97,90,-61,-2087,-8,23,-11,-476,605,-1081,-64
,270,2023-10-27 10:45:12.98,99,-60,-2085,-6,19,-6,-619,767,-1386,-74
,271,2023-10-27 10:45:12.99,105,-61,-2073,-12,14,-2,-471,609,-1080,-69
,272,2023-10-27 10:45:13.00,96,-54,-2058,-13,14,2,-619,773,-1392,-77
,273,2023-10-27 10:45:13.01,102,-50,-2062,-22,19,2,-476,608,-1084,-66
,274,2023-10-27 10:45:13.02,101,-51,-2067,-23,21,4,-618,791,-1409,-86
,275,2023-10-27 10:45:13.03,100,-42,-2058,-10,7,11,-467,602,-1069,-67
,276,2023-10-27 10:45:13.04,101,-48,-2054,-8,3,12,-622,777,-1399,-77
,277,2023-10-27 10:45:13.05,93,-47,-2067,-11,3,13,-468,592,-1060,-62
,278,2023-10-27 10:45:13.06,102,-57,-2063,-11,1,19,-625,787,-1412,-81
,279,2023-10-27 10:45:13.07,87,-59,-2060,-1,-9,23,-472,601,-1073,-64
,280,2023-10-27 10:45:13.08,83,-57,-2050,6,-18,28,-639,776,-1415,-68
,281,2023-10-27 10:45:13.09,98,-52,-2052,5,-16,28,-467,592,-1059,-62
,282,2023-10-27 10:45:13.10,91,-50,-2057,2,-15,32,-630,787,-1417,-78
,283,2023-10-27 10:45:13.11,78,-41,-2051,-2,-14,30,-468,598,-1066,-65
,284,2023-10-27 10:45:13.12,90,-42,-2056,-2,-11,27,-636,795,-1431,-79
,285,2023-10-27 10:45:13.13,75,-50,-2057,-5,-12,27,-466,596,-1062,-65
,286,2023-10-27 10:45:13.14,74,-38,-2059,-10,-3,25,-636,786,-1422,-75
,287,2023-10-27 10:45:13.15,75,-40,-2062,-10,-3,21,-466,585,-1051,-59
,288,2023-10-27 10:45:13.16,80,-49,-2065,-9,-4,14,-639,794,-1433,-77
,289,2023-10-27 10:45:13.17,71,-44,-2075,-9,-1,12,-462,588,-1050,-63
,290,2023-10-27 10:45:13.18,74,-31,-2076,-8,-8,6,-635,791,-1426,-78
,291,2023-10-27 10:45:13.19,74,-42,-2065,-8,-9,6,-458,581,-1039,-61
,292,2023-10-27 10:45:13.20,96,-38,-2065,-12,-7,2,-637,799,-1436,-81
,293,2023-10-27 10:45:13.21,84,-35,-2072,-11,-3,-6,-460,587,-1047,-63
,294,2023-10-27 10:45:13.22,85,-34,-2068,-8,6,-8,-643,800,-1443,-78
,295,2023-10-27 10:45:13.23,94,-35,-2066,-7,1,-13,-457,587,-1044,-65
,296,2023-10-27 10:45:13.24,95,-35,-2065,-4,8,-15,-638,804,-1442,-83
,297,2023-10-27 10:45:13.25,87,-39,-2065,-8,9,-18,-456,577,-1033,-60
,298,2023-10-27 10:45:13.26,71,-40,-2062,0,8,-16,-648,795,-1443,-73
,299,2023-10-27 10:45:13.27,107,-37,-2059,2,6,-18,-460,580,-1040,-60
,300,2023-10-27 10:45:13.28,104,-46,-2055,-1,6,-17,-647,805,-1452,-79
,301,2023-10-27 10:45:13.29,110,-48,-2058,7,6,-17,-459,575,-1034,-58
,302,2023-10-27 10:45:13.30,103,-51,-2058,16,-9,-12,-648,798,-1446,-75
,303,2023-10-27 10:45:13.31,112,-52,-2052,18,-14,-8,-462,570,-1032,-54
,304,2023-10-27 10:45:13.32,105,-45,-2049,16,-12,-5,-650,791,-1441,-70
,305,2023-10-27 10:45:13.33,92,-56,-2056,17,-15,-4,-462,568,-1030,-53
,306,2023-10-27 10:45:13.34,94,-60,-2063,18,-22,-1,-650,793,-1443,-71
,307,2023-10-27 10:45:13.35,86,-60,-2072,19,-31,1,-458,565,-1023,-53
,308,2023-10-27 10:45:13.36,85,-50,-2059,17,-37,-2,-653,791,-1444,-69
,309,2023-10-27 10:45:13.37,89,-58,-2059,14,-44,-4,-463,572,-1035,-54
,310,2023-10-27 10:45:13.38,89,-44,-2064,9,-48,-8,-652,805,-1457,-76
,311,2023-10-27 10:45:13.39,70,-45,-2072,5,-49,-12,-460,569,-1029,-54
,312,2023-10-27 10:45:13.40,68,-45,-2059,3,-48,-20,-648,796,-1444,-74
,313,2023-10-27 10:45:13.41,65,-41,-2059,-6,-52,-23,-457,570,-1027,-56
,314,2023-10-27 10:45:13.42,85,-42,-2069,-17,-44,-30,-651,795,-1446,-72
,315,2023-10-27 10:45:13.43,67,-46,-2070,-25,-39,-34,-458,577,-1035,-59
,316,2023-10-27 10:45:13.44,70,-46,-2071,-27,-40,-37,-654,797,-1451,-71
,317,2023-10-27 10:45:13.45,81,-51,-2067,-29,-43,-42,-462,561,-1023,-49
,318,2023-10-27 10:45:13.46,56,-50,-2071,-26,-47,-40,-659,797,-1456,-69
,319,2023-10-27 10:45:13.47,64,-48,-2074,-24,-49,-42,-469,577,-1046,-54
,320,2023-10-27 10:45:13.48,76,-40,-2068,-22,-50,-43,-661,812,-1473,-75
,321,2023-10-27 10:45:13.49,66,-37,-2071,-26,-46,-45,-470,579,-1049,-54
,322,2023-10-27 10:45:13.50,88,-17,-2072,-27,-51,-50,-661,808,-1469,-73
,323,2023-10-27 10:45:13.51,78,-32,-2071,-31,-51,-47,-470,578,-1048,-54
,324,2023-10-27 10:45:13.52,78,-27,-2080,-36,-51,-45,-661,785,-1446,-62
,325,2023-10-27 10:45:13.53,71,-27,-2080,-39,-49,-43,-464,573,-1037,-54
,326,2023-10-27 10:45:13.54,65,-25,-2074,-49,-46,-39,-651,804,-1455,-76
,327,2023-10-27 10:45:13.55,74,-20,-2066,-48,-53,-31,-461,578,-1039,-58
,328,2023-10-27 10:45:13.56,61,-31,-2068,-42,-55,-22,-652,804,-1456,-76
,329,2023-10-27 10:45:13.57,47,-44,-2052,-32,-56,-13,-467,581,-1048,-57
,330,2023-10-27 10:45:13.58,49,-43,-2059,-21,-59,-1,-652,815,-1467,-81
,331,2023-10-27 10:45:13.59,48,-38,-2035,-11,-59,10,-463,587,-1050,-62
,332,2023-10-27 10:45:13.60,52,-35,-2031,-6,-48,17,-649,808,-1457,-79
,333,2023-10-27 10:45:13.61,36,-36,-2042,-6,-35,25,-466,587,-1053,-60
,334,2023-10-27 10:45:13.62,44,-23,-2037,1,-28,30,-648,808,-1456,-80
,335,2023-10-27 10:45:13.63,53,-18,-2031,1,-24,30,-467,588,-1055,-60
,336,2023-10-27 10:45:13.64,60,-8,-2045,-5,-10,28,-646,812,-1458,-83
,337,2023-10-27 10:45:13.65,53,-25,-2049,-5,-3,21,-466,595,-1061,-64
,338,2023-10-27 10:45:13.66,65,-11,-2055,9,5,9,-650,810,-1460,-80
,339,2023-10-27 10:45:13.67,69,-8,-2054,19,-1,-3,-475,598,-1073,-61
,340,2023-10-27 10:45:13.68,74,6,-2073,13,6,-16,-650,805,-1455,-77
,341,2023-10-27 10:45:13.69,78,-3,-2085,-6,18,-28,-477,586,-1063,-54
,342,2023-10-27 10:45:13.70,67,-23,-2095,-10,8,-31,-651,801,-1452,-75
,343,2023-10-27 10:45:13.71,69,-32,-2078,-3,-3,-33,-478,594,-1072,-58
,344,2023-10-27 10:45:13.72,62,-21,-2076,2,-19,-28,-647,801,-1448,-77
,345,2023-10-27 10:45:13.73,62,-17,-2068,-6,-23,-22,-482,597,-1079,-57
,346,2023-10-27 10:45:13.74,72,-20,-2069,-15,-24,-15,-644,802,-1446,-79
,347,2023-10-27 10:45:13.75,52,-17,-2071,-20,-25,-1,-478,597,-1075,-59
,348,2023-10-27 10:45:13.76,51,-4,-2064,-30,-36,9,-642,784,-1426,-71
,349,2023-10-27 10:45:13.77,63,-28,-2066,-42,-42,27,-484,594,-1078,-55
,350,2023-10-27 10:45:13.78,44,-22,-2067,-54,-46,48,-646,800,-1446,-77
,351,2023-10-27 10:45:13.79,47,-22,-2061,-51,-55,67,-489,607,-1096,-59
,352,2023-10-27 10:45:13.80,37,-18,-2041,-50,-55,80,-647,795,-1442,-74
,353,2023-10-27 10:45:13.81,37,-20,-2014,-44,-52,91,-492,605,-1097,-56
,354,2023-10-27 10:45:13.82,43,-8,-2017,-34,-44,95,-642,787,-1429,-72
,355,2023-10-27 10:45:13.83,28,2,-2008,-26,-31,94,-494,604,-1098,-55
,356,2023-10-27 10:45:13.84,44,7,-2014,-20,-14,95,-639,799,-1438,-80
,357,2023-10-27 10:45:13.85,30,-10,-2036,-7,-9,99,-496,615,-1111,-59
,358,2023-10-27 10:45:13.86,29,-11,-2064,7,0,99,-641,790,-1431,-74
,359,2023-10-27 10:45:13.87,25,1,-2078,12,5,101,-498,613,-1111,-57
,360,2023-10-27 10:45:13.88,24,18,-2099,15,1,92,-634,771,-1405,-68
,361,2023-10-27 10:45:13.89,16,25,-2083,8,-6,87,-497,606,-1103,-54
,362,2023-10-27 10:45:13.90,24,21,-2090,2,-16,70,-636,776,-1412,-70
,363,2023-10-27 10:45:13.91,30,21,-2088,6,-24,58,-509,623,-1132,-57
,364,2023-10-27 10:45:13.92,30,26,-2071,11,-28,39,-633,782,-1415,-74
,365,2023-10-27 10:45:13.93,29,19,-2088,10,-34,26,-515,609,-1124,-47
,366,2023-10-27 10:45:13.94,19,19,-2104,7,-35,8,-632,771,-1403,-69
,367,2023-10-27 10:45:13.95,21,8,-2089,10,-32,-2,-515,620,-1135,-52
,368,2023-10-27 10:45:13.96,14,-1,-2089,10,-26,-10,-629,762,-1391,-66
,369,2023-10-27 10:45:13.97,12,-11,-2082,17,-26,-20,-511,621,-1132,-55
,370,2023-10-27 10:45:13.98,8,-7,-2086,30,-29,-26,-627,760,-1387,-66
,371,2023-10-27 10:45:13.99,11,-21,-2073,37,-40,-29,-524,634,-1158,-55
,372,2023-10-27 10:45:14.00,2,-10,-2064,43,-41,-36,-628,765,-1393,-68
,373,2023-10-27 10:45:14.01,3,-9,-2060,48,-40,-40,-523,635,-1158,-56
,374,2023-10-27 10:45:14.02,18,-17,-2043,50,-35,-48,-623,760,-1383,-68
,375,2023-10-27 10:45:14.03,14,-19,-2042,54,-29,-51,-525,638,-1163,-56
,376,2023-10-27 10:45:14.04,14,-22,-2029,51,-21,-54,-614,753,-1367,-69
,377,2023-10-27 10:45:14.05,-3,-29,-2040,56,-23,-53,-526,638,-1164,-56
,378,2023-10-27 10:45:14.06,15,-42,-2037,62,-17,-48,-612,753,-1365,-70
,379,2023-10-27 10:45:14.07,7,-44,-2047,60,-13,-44,-530,651,-1181,-60
,380,2023-10-27 10:45:14.08,17,-41,-2036,58,-10,-39,-612,744,-1356,-66
,381,2023-10-27 10:45:14.09,21,-44,-2051,59,-14,-31,-535,644,-1179,-54
,382,2023-10-27 10:45:14.10,13,-45,-2052,53,-13,-27,-603,734,-1337,-65
,383,2023-10-27 10:45:14.11,-2,-36,-2064,46,-8,-26,-532,647,-1179,-57
,384,2023-10-27 10:45:14.12,11,-49,-2063,47,-19,-21,-599,724,-1323,-62
,385,2023-10-27 10:45:14.13,17,-46,-2056,40,-18,-13,-540,648,-1188,-54
,386,2023-10-27 10:45:14.14,21,-40,-2061,40,-19,-14,-599,739,-1338,-70
,387,2023-10-27 10:45:14.15,27,-50,-2067,36,-23,-10,-542,661,-1203,-59
,388,2023-10-27 10:45:14.16,29,-39,-2060,34,-24,-10,-595,728,-1323,-66
,389,2023-10-27 10:45:14.17,23,-40,-2068,31,-22,-13,-545,666,-1211,-60
,390,2023-10-27 10:45:14.18,0,-23,-2055,29,-20,-13,-588,727,-1315,-69
,391,2023-10-27 10:45:14.19,5,-20,-2061,26,-18,-16,-547,664,-1211,-58
,392,2023-10-27 10:45:14.20,15,-41,-2063,27,-20,-16,-589,722,-1311,-66
,393,2023-10-27 10:45:14.21,1,-32,-2065,22,-13,-20,-554,675,-1229,-60
,394,2023-10-27 10:45:14.22,14,-28,-2070,25,-17,-20,-586,716,-1302,-65
,395,2023-10-27 10:45:14.23,17,-26,-2061,21,-14,-22,-561,670,-1231,-54
,396,2023-10-27 10:45:14.24,19,-45,-2069,17,-5,-24,-582,712,-1294,-65
,397,2023-10-27 10:45:14.25,14,-34,-2063,18,-3,-23,-558,688,-1246,-65
,398,2023-10-27 10:45:14.26,19,-45,-2050,23,-3,-27,-576,705,-1281,-64
,399,2023-10-27 10:45:14.27,17,-51,-2053,29,7,-24,-566,683,-1249,-58
,400,2023-10-27 10:45:14.28,22,-37,-2050,34,6,-26,-572,704,-1276,-66
,401,2023-10-27 10:45:14.29,32,-33,-2067,28,17,-22,-568,685,-1253,-58
,402,2023-10-27 10:45:14.30,7,-39,-2060,27,18,-22,-571,691,-1262,-60
,403,2023-10-27 10:45:14.31,13,-32,-2054,31,17,-21,-570,685,-1255,-57
,404,2023-10-27 10:45:14.32,17,-48,-2061,28,21,-20,-562,690,-1252,-64
,405,2023-10-27 10:45:14.33,16,-44,-2073,24,16,-20,-572,687,-1259,-57
,406,2023-10-27 10:45:14.34,31,-18,-2070,26,21,-25,-559,686,-1245,-63
,407,2023-10-27 10:45:14.35,31,-16,-2065,25,22,-28,-574,694,-1268,-60
,408,2023-10-27 10:45:14.36,14,-19,-2061,22,24,-31,-552,674,-1226,-61
,409,2023-10-27 10:45:14.37,36,-36,-2072,19,27,-30,-576,693,-1269,-58
,410,2023-10-27 10:45:14.38,27,-36,-2066,19,23,-30,-549,675,-1224,-63
,411,2023-10-27 10:45:14.39,18,-32,-2066,27,15,-26,-577,704,-1281,-63
,412,2023-10-27 10:45:14.40,15,-45,-2067,28,12,-20,-548,667,-1215,-59
,413,2023-10-27 10:45:14.41,24,-52,-2065,39,6,-13,-584,704,-1288,-60
,414,2023-10-27 10:45:14.42,31,-29,-2054,41,-2,-13,-545,670,-1215,-62
,415,2023-10-27 10:45:14.43,31,-26,-2054,36,2,-10,-585,711,-1296,-63
,416,2023-10-27 10:45:14.44,39,-25,-2049,28,7,-12,-545,664,-1209,-59
,417,2023-10-27 10:45:14.45,29,-33,-2055,26,7,-11,-592,715,-1307,-61
,418,2023-10-27 10:45:14.46,23,-40,-2060,20,14,-9,-541,662,-1203,-60
,419,2023-10-27 10:45:14.47,29,-42,-2065,20,10,-4,-594,723,-1317,-64
,420,2023-10-27 10:45:14.48,19,-43,-2068,16,2,0,-535,655,-1190,-60
,421,2023-10-27 10:45:14.49,23,-39,-2070,12,0,3,-593,721,-1314,-64
,422,2023-10-27 10:45:14.50,14,-45,-2069,8,-4,1,-528,650,-1178,-61
,423,2023-10-27 10:45:14.51,14,-28,-2065,5,-8,5,-597,719,-1316,-61
,424,2023-10-27 10:45:14.52,21,-24,-2064,3,-7,2,-529,643,-1172,-57
,425,2023-10-27 10:45:14.53,17,-23,-2058,-3,-6,1,-600,727,-1327,-63
,426,2023-10-27 10:45:14.54,15,-22,-2051,-5,0,-4,-520,640,-1160,-60
,427,2023-10-27 10:45:14.55,29,-17,-2058,-3,6,-12,-602,725,-1327,-61
,428,2023-10-27 10:45:14.56,15,-27,-2057,2,4,-18,-523,634,-1157,-55
,429,2023-10-27 10:45:14.57,25,-37,-2057,6,9,-19,-609,735,-1344,-63
,430,2023-10-27 10:45:14.58,18,-37,-2057,14,11,-25,-524,633,-1157,-54
,431,2023-10-27 10:45:14.59,20,-26,-2052,21,14,-32,-615,736,-1351,-60
,432,2023-10-27 10:45:14.60,19,-31,-2050,29,16,-38,-518,628,-1146,-55
,433,2023-10-27 10:45:14.61,8,-34,-2045,35,15,-42,-612,734,-1346,-61
,434,2023-10-27 10:45:14.62,36,-43,-2043,34,22,-47,-515,623,-1138,-54
,435,2023-10-27 10:45:14.63,14,-36,-2063,38,23,-47,-618,744,-1362,-63
,436,2023-10-27 10:45:14.64,26,-40,-2071,46,13,-49,-513,625,-1138,-56
,437,2023-10-27 10:45:14.65,27,-37,-2072,41,17,-51,-621,746,-1367,-62
,438,2023-10-27 10:45:14.66,26,-35,-2061,34,16,-52,-516,628,-1144,-56
,439,2023-10-27 10:45:14.67,31,-53,-2070,29,23,-49,-629,759,-1388,-65
,440,2023-10-27 10:45:14.68,22,-58,-2072,27,19,-46,-517,627,-1144,-55
,441,2023-10-27 10:45:14.69,20,-54,-2061,32,16,-41,-629,765,-1394,-68
,442,2023-10-27 10:45:14.70,19,-56,-2055,34,19,-38,-512,620,-1132,-54
,443,2023-10-27 10:45:14.71,39,-52,-2054,35,15,-37,-632,768,-1400,-68
,444,2023-10-27 10:45:14.72,20,-55,-2060,33,20,-34,-509,612,-1121,-51
,445,2023-10-27 10:45:14.73,26,-73,-2066,35,22,-34,-632,765,-1397,-66
,446,2023-10-27 10:45:14.74,24,-66,-2067,36,22,-32,-509,608,-1117,-49
,447,2023-10-27 10:45:14.75,27,-54,-2059,37,16,-33,-638,770,-1408,-66
,448,2023-10-27 10:45:14.76,26,-56,-2053,32,17,-33,-502,613,-1115,-55
,449,2023-10-27 10:45:14.77,20,-54,-2047,31,10,-33,-639,772,-1411,-66
,450,2023-10-27 10:45:14.78,29,-45,-2060,29,15,-39,-498,605,-1103,-53
,451,2023-10-27 10:45:14.79,30,-52,-2065,30,13,-42,-638,777,-1415,-69
,452,2023-10-27 10:45:14.80,22,-50,-2070,36,9,-48,-496,603,-1099,-53
,453,2023-10-27 10:45:14.81,25,-39,-2059,35,3,-58,-640,778,-1418,-69
,454,2023-10-27 10:45:14.82,26,-52,-2057,34,7,-67,-492,602,-1094,-55
,455,2023-10-27 10:45:14.83,29,-58,-2066,48,-1,-70,-639,775,-1414,-68
,456,2023-10-27 10:45:14.84,25,-61,-2049,51,5,-78,-487,590,-1077,-51
,457,2023-10-27 10:45:14.85,28,-65,-2064,52,16,-90,-642,770,-1412,-64
,458,2023-10-27 10:45:14.86,20,-63,-2064,50,23,-91,-488,588,-1076,-50
,459,2023-10-27 10:45:14.87,40,-58,-2061,50,23,-99,-648,777,-1425,-64
,460,2023-10-27 10:45:14.88,34,-69,-2064,49,27,-98,-490,592,-1082,-51
,461,2023-10-27 10:45:14.89,20,-56,-2071,43,31,-101,-646,785,-1431,-69
,462,2023-10-27 10:45:14.90,42,-70,-2081,38,33,-106,-477,590,-1067,-56
,463,2023-10-27 10:45:14.91,30,-53,-2087,35,33,-108,-643,783,-1426,-70
,464,2023-10-27 10:45:14.92,22,-45,-2089,42,11,-113,-478,589,-1067,-55
,465,2023-10-27 10:45:14.93,27,-49,-2065,43,12,-120,-648,783,-1431,-67
,466,2023-10-27 10:45:14.94,40,-51,-2062,47,-1,-127,-476,571,-1047,-47
,467,2023-10-27 10:45:14.95,12,-60,-2062,50,-2,-134,-648,784,-1432,-68
,468,2023-10-27 10:45:14.96,22,-83,-2046,59,-6,-141,-475,580,-1055,-52
,469,2023-10-27 10:45:14.97,29,-89,-2047,71,-19,-145,-650,784,-1434,-67
,470,2023-10-27 10:45:14.98,21,-76,-2045,78,-27,-142,-484,570,-1054,-43
,471,2023-10-27 10:45:14.99,14,-91,-2048,82,-30,-147,-662,788,-1450,-63
,472,2023-10-27 10:45:15.00,8,-78,-2039,83,-14,-153,-483,580,-1063,-48
,473,2023-10-27 10:45:15.01,23,-84,-2031,83,-11,-158,-658,791,-1449,-66
,474,2023-10-27 10:45:15.02,24,-86,-2020,78,-4,-158,-479,577,-1056,-49
,475,2023-10-27 10:45:15.03,23,-85,-2033,68,15,-164,-658,799,-1457,-70
,476,2023-10-27 10:45:15.04,37,-71,-2055,57,29,-169,-471,581,-1052,-55
,477,2023-10-27 10:45:15.05,23,-64,-2086,56,26,-175,-658,796,-1454,-69
,478,2023-10-27 10:45:15.06,18,-69,-2082,55,23,-179,-476,571,-1047,-47
,479,2023-10-27 10:45:15.07,24,-73,-2071,53,13,-190,-665,800,-1465,-67
,480,2023-10-27 10:45:15.08,29,-44,-2091,49,13,-207,-475,575,-1050,-50
,481,2023-10-27 10:45:15.09,29,-62,-2070,57,-7,-218,-660,797,-1457,-68
,482,2023-10-27 10:45:15.10,18,-59,-2068,48,-13,-229,-472,571,-1043,-49
,483,2023-10-27 10:45:15.11,37,-44,-2058,34,-8,-243,-664,796,-1460,-66
,484,2023-10-27 10:45:15.12,23,-86,-2047,48,-23,-248,-473,568,-1041,-47
,485,2023-10-27 10:45:15.13,46,-76,-2064,42,-16,-239,-663,792,-1455,-64
,486,2023-10-27 10:45:15.14,50,-41,-2104,13,8,-239,-468,565,-1033,-48
,487,2023-10-27 10:45:15.15,32,-80,-2081,-5,-6,-235,-662,792,-1454,-65
,488,2023-10-27 10:45:15.16,39,-82,-2049,-15,6,-229,-468,558,-1026,-45
,489,2023-10-27 10:45:15.17,55,-62,-2047,-16,23,-224,-658,791,-1449,-66
,490,2023-10-27 10:45:15.18,37,-71,-2054,-14,36,-217,-462,550,-1012,-44
,491,2023-10-27 10:45:15.19,42,-72,-2083,-16,60,-212,-656,773,-1429,-58
,492,2023-10-27 10:45:15.20,34,-70,-2105,-23,64,-211,-461,542,-1003,-40
,493,2023-10-27 10:45:15.21,20,-95,-2121,-5,53,-202,-657,779,-1436,-61
,494,2023-10-27 10:45:15.22,16,-84,-2096,5,41,-196,-466,547,-1013,-40
,495,2023-10-27 10:45:15.23,31,-77,-2093,16,33,-188,-656,782,-1438,-63
,496,2023-10-27 10:45:15.24,21,-69,-2083,22,27,-179,-454,549,-1003,-47
,497,2023-10-27 10:45:15.25,41,-59,-2078,18,29,-175,-649,786,-1435,-68
,498,2023-10-27 10:45:15.26,53,-51,-2064,0,44,-173,-457,556,-1013,-49
,499,2023-10-27 10:45:15.27,52,-49,-2047,-5,57,-175,-650,788,-1438,-69
,500,2023-10-27 10:45:15.28,58,-27,-2015,-13,74,-178,-452,548,-1000,-48
,501,2023-10-27 10:45:15.29,48,-58,-2028,-25,95,-178,-650,776,-1426,-63
,502,2023-10-27 10:45:15.30,40,-146,-2049,-10,103,-162,-460,550,-1010,-45
,503,2023-10-27 10:45:15.31,-2,-165,-2056,20,90,-151,-653,783,-1436,-65
,504,2023-10-27 10:45:15.32,43,-156,-2067,63,79,-137,-463,551,-1014,-44
,505,2023-10-27 10:45:15.33,10,-160,-2064,112,43,-119,-654,784,-1438,-65
,506,2023-10-27 10:45:15.34,19,-109,-2032,148,5,-107,-466,560,-1026,-47
,507,2023-10-27 10:45:15.35,24,-97,-2007,141,3,-104,-664,805,-1469,-70
,508,2023-10-27 10:45:15.36,-7,-111,-2014,130,12,-105,-482,592,-1074,-55
,509,2023-10-27 10:45:15.37,21,-102,-2019,122,4,-111,-672,830,-1502,-79
,510,2023-10-27 10:45:15.38,21,-87,-2032,109,-1,-112,-482,606,-1088,-62
,511,2023-10-27 10:45:15.39,20,-66,-2066,78,8,-121,-658,822,-1480,-82
,512,2023-10-27 10:45:15.40,45,-50,-2123,17,-9,-131,-468,598,-1066,-65
,513,2023-10-27 10:45:15.41,52,-61,-2129,-19,-6,-139,-648,823,-1471,-87
,514,2023-10-27 10:45:15.42,67,-79,-2138,-50,12,-157,-467,600,-1067,-66
,515,2023-10-27 10:45:15.43,69,-82,-2116,-64,29,-165,-642,809,-1451,-83
,516,2023-10-27 10:45:15.44,90,-68,-2122,-72,41,-170,-461,588,-1049,-63
,517,2023-10-27 10:45:15.45,86,-97,-2119,-78,55,-169,-633,794,-1427,-80
,518,2023-10-27 10:45:15.46,87,-126,-2094,-57,66,-158,-458,582,-1040,-62
,519,2023-10-27 10:45:15.47,76,-119,-2069,-36,77,-148,-632,792,-1424,-80
,520,2023-10-27 10:45:15.48,73,-133,-2086,-5,74,-134,-467,580,-1047,-56
,521,2023-10-27 10:45:15.49,84,-128,-2097,37,53,-121,-632,784,-1416,-76
,522,2023-10-27 10:45:15.50,80,-111,-2081,89,15,-108,-462,581,-1043,-59
,523,2023-10-27 10:45:15.51,77,-122,-2027,126,0,-91,-629,791,-1420,-81
,524,2023-10-27 10:45:15.52,92,-136,-2018,155,-3,-76,-467,584,-1051,-58
,525,2023-10-27 10:45:15.53,76,-133,-2015,171,14,-65,-636,779,-1415,-71
,526,2023-10-27 10:45:15.54,75,-146,-2023,190,10,-54,-475,572,-1047,-48
,527,2023-10-27 10:45:15.55,69,-134,-2005,209,23,-45,-632,767,-1399,-67
,528,2023-10-27 10:45:15.56,76,-155,-2015,208,40,-36,-473,571,-1044,-49
,529,2023-10-27 10:45:15.57,66,-148,-2020,201,47,-30,-627,761,-1388,-67
,530,2023-10-27 10:45:15.58,67,-152,-2039,209,52,-20,-471,580,-1051,-54
,531,2023-10-27 10:45:15.59,60,-150,-2043,191,63,-21,-622,758,-1380,-68
,532,2023-10-27 10:45:15.60,64,-164,-2009,165,87,-19,-475,577,-1052,-51
,533,2023-10-27 10:45:15.61,82,-167,-2019,150,110,-23,-623,760,-1383,-68
,534,2023-10-27 10:45:15.62,70,-147,-2009,144,122,-26,-480,586,-1066,-53
,535,2023-10-27 10:45:15.63,82,-163,-1998,129,131,-33,-620,754,-1374,-67
,536,2023-10-27 10:45:15.64,94,-163,-2000,126,144,-43,-479,588,-1067,-54
,537,2023-10-27 10:45:15.65,99,-139,-2021,126,137,-49,-615,758,-1373,-71
,538,2023-10-27 10:45:15.66,108,-158,-2017,110,138,-59,-479,594,-1073,-57
,539,2023-10-27 10:45:15.67,120,-130,-2043,78,155,-69,-615,756,-1371,-70
,540,2023-10-27 10:45:15.68,114,-123,-2038,51,163,-78,-484,601,-1085,-58
,541,2023-10-27 10:45:15.69,140,-115,-2067,23,176,-86,-611,760,-1371,-74
,542,2023-10-27 10:45:15.70,120,-99,-2055,-18,175,-101,-487,605,-1092,-59
,543,2023-10-27 10:45:15.71,139,-117,-2088,-34,167,-104,-608,756,-1364,-74
,544,2023-10-27 10:45:15.72,107,-120,-2086,-44,140,-104,-489,614,-1103,-62
,545,2023-10-27 10:45:15.73,139,-135,-2096,-47,123,-102,-607,760,-1367,-76
,546,2023-10-27 10:45:15.74,120,-106,-2096,-59,95,-96,-498,617,-1115,-59
,547,2023-10-27 10:45:15.75,134,-141,-2048,-65,71,-87,-610,743,-1353,-66
,548,2023-10-27 10:45:15.76,119,-164,-2055,-68,55,-79,-503,609,-1112,-53
,549,2023-10-27 10:45:15.77,129,-152,-2078,-59,53,-64,-606,722,-1328,-58
,550,2023-10-27 10:45:15.78,138,-136,-2095,-40,29,-52,-505,599,-1104,-47
,551,2023-10-27 10:45:15.79,138,-145,-2053,-33,20,-44,-600,723,-1323,-61
,552,2023-10-27 10:45:15.80,150,-165,-2035,-15,15,-31,-504,610,-1114,-53
,553,2023-10-27 10:45:15.81,138,-137,-2045,-6,9,-22,-598,725,-1323,-63
,554,2023-10-27 10:45:15.82,139,-139,-2039,1,6,-16,-512,616,-1128,-52
,555,2023-10-27 10:45:15.83,119,-123,-2061,6,9,-17,-595,718,-1313,-61
,556,2023-10-27 10:45:15.84,124,-113,-2080,2,3,-22,-515,612,-1127,-48
,557,2023-10-27 10:45:15.85,115,-103,-2086,-11,-6,-21,-598,711,-1309,-56
,558,2023-10-27 10:45:15.86,117,-96,-2093,-20,-14,-25,-522,626,-1148,-52
,559,2023-10-27 10:45:15.87,119,-85,-2086,-37,-23,-31,-596,708,-1304,-56
,560,2023-10-27 10:45:15.88,118,-83,-2089,-59,-27,-37,-529,622,-1151,-46
,561,2023-10-27 10:45:15.89,113,-84,-2081,-81,-21,-46,-601,706,-1307,-52
,562,2023-10-27 10:45:15.90,115,-102,-2074,-105,-10,-51,-536,626,-1162,-45
,563,2023-10-27 10:45:15.91,113,-115,-2078,-113,-7,-57,-598,697,-1295,-49
,564,2023-10-27 10:45:15.92,117,-117,-2081,-109,-10,-58,-542,635,-1177,-46
,565,2023-10-27 10:45:15.93,145,-114,-2062,-105,-7,-52,-597,698,-1295,-50
,566,2023-10-27 10:45:15.94,127,-111,-2071,-108,2,-51,-544,633,-1177,-44
,567,2023-10-27 10:45:15.95,132,-120,-2095,-102,11,-43,-589,683,-1272,-47
,568,2023-10-27 10:45:15.96,115,-90,-2102,-78,-4,-35,-542,629,-1171,-43
,569,2023-10-27 10:45:15.97,119,-97,-2109,-57,-25,-29,-581,676,-1257,-47
,570,2023-10-27 10:45:15.98,127,-92,-2108,-43,-30,-27,-550,633,-1183,-41
,571,2023-10-27 10:45:15.99,112,-62,-2077,-34,-41,-27,-592,677,-1269,-42
,572,2023-10-27 10:45:16.00,114,-60,-2044,-14,-53,-28,-564,648,-1212,-42
,573,2023-10-27 10:45:16.01,117,-78,-2024,-1,-51,-31,-586,685,-1271,-49
,574,2023-10-27 10:45:16.02,122,-72,-2009,11,-42,-32,-562,653,-1215,-45
,575,2023-10-27 10:45:16.03,117,-85,-2014,22,-27,-30,-577,677,-1254,-50
,576,2023-10-27 10:45:16.04,110,-107,-2009,45,-26,-26,-560,657,-1217,-48
,577,2023-10-27 10:45:16.05,115,-104,-2021,65,-18,-20,-570,670,-1240,-50
,578,2023-10-27 10:45:16.06,98,-115,-2034,75,-15,-12,-564,662,-1226,-49
,579,2023-10-27 10:45:16.07,91,-110,-2065,81,-13,-5,-570,672,-1242,-51
,580,2023-10-27 10:45:16.08,91,-110,-2074,82,-15,0,-568,673,-1241,-52
,581,2023-10-27 10:45:16.09,96,-107,-2056,79,-17,5,-562,671,-1233,-54
,582,2023-10-27 10:45:16.10,97,-103,-2050,66,-11,11,-568,670,-1238,-51
,583,2023-10-27 10:45:16.11,102,-106,-2057,60,-2,14,-558,664,-1222,-53
,584,2023-10-27 10:45:16.12,99,-116,-2064,54,10,19,-573,681,-1254,-54
,585,2023-10-27 10:45:16.13,102,-122,-2054,57,20,24,-553,658,-1211,-52
,586,2023-10-27 10:45:16.14,103,-126,-2066,52,36,30,-575,682,-1257,-53
,587,2023-10-27 10:45:16.15,119,-136,-2065,46,54,36,-551,657,-1208,-53
,588,2023-10-27 10:45:16.16,110,-143,-2064,43,62,41,-578,687,-1265,-54
,589,2023-10-27 10:45:16.17,118,-138,-2075,52,72,48,-553,653,-1206,-50
,590,2023-10-27 10:45:16.18,129,-133,-2075,58,75,56,-587,691,-1278,-52
,591,2023-10-27 10:45:16.19,130,-124,-2067,69,77,63,-546,646,-1192,-50
,592,2023-10-27 10:45:16.20,143,-118,-2060,70,85,63,-586,686,-1272,-50
,593,2023-10-27 10:45:16.21,152,-119,-2065,78,89,67,-546,639,-1185,-46
,594,2023-10-27 10:45:16.22,144,-122,-2073,92,92,69,-593,694,-1287,-50
,595,2023-10-27 10:45:16.23,139,-123,-2060,105,96,69,-540,637,-1177,-48
,596,2023-10-27 10:45:16.24,155,-125,-2060,105,108,68,-593,700,-1293,-53
,597,2023-10-27 10:45:16.25,154,-133,-2035,109,115,70,-538,640,-1178,-51
,598,2023-10-27 10:45:16.26,150,-134,-2035,121,130,66,-599,708,-1307,-54
,599,2023-10-27 10:45:16.27,162,-145,-2016,135,141,64,-536,632,-1168,-48
,600,2023-10-27 10:45:16.28,169,-155,-2039,156,160,64,-606,704,-1310,-49
,601,2023-10-27 10:45:16.29,151,-161,-2024,197,150,63,-534,625,-1159,-45
,602,2023-10-27 10:45:16.30,139,-166,-2024,229,148,59,-607,709,-1316,-51
,603,2023-10-27 10:45:16.31,132,-186,-2031,234,162,56,-523,614,-1137,-45
,604,2023-10-27 10:45:16.32,130,-198,-2053,245,169,55,-606,710,-1316,-52
,605,2023-10-27 10:45:16.33,147,-185,-2040,260,169,51,-527,625,-1152,-49
,606,2023-10-27 10:45:16.34,139,-156,-2032,267,165,38,-615,723,-1338,-54
,607,2023-10-27 10:45:16.35,161,-148,-2038,260,168,24,-527,605,-1132,-39
,608,2023-10-27 10:45:16.36,145,-154,-2068,232,188,4,-617,710,-1327,-46
,609,2023-10-27 10:45:16.37,166,-178,-2090,237,176,-2,-522,603,-1125,-40
,610,2023-10-27 10:45:16.38,163,-171,-2082,245,151,-18,-619,722,-1341,-51
,611,2023-10-27 10:45:16.39,165,-183,-2057,244,145,-37,-524,600,-1124,-38
,612,2023-10-27 10:45:16.40,173,-193,-2038,240,155,-46,-627,724,-1351,-48
,613,2023-10-27 10:45:16.41,181,-210,-2037,230,170,-68,-524,597,-1121,-36
,614,2023-10-27 10:45:16.42,181,-217,-2021,240,161,-77,-633,729,-1362,-48
,615,2023-10-27 10:45:16.43,186,-207,-2008,246,170,-93,-527,598,-1125,-35
,616,2023-10-27 10:45:16.44,190,-222,-2005,249,185,-106,-635,739,-1374,-52
,617,2023-10-27 10:45:16.45,205,-228,-2045,252,190,-117,-514,584,-1098,-35
,618,2023-10-27 10:45:16.46,176,-236,-2032,252,170,-128,-629,726,-1355,-48
,619,2023-10-27 10:45:16.47,190,-220,-2070,229,193,-139,-510,567,-1077,-28
,620,2023-10-27 10:45:16.48,194,-234,-2065,220,183,-146,-633,717,-1350,-42
,621,2023-10-27 10:45:16.49,189,-234,-2068,205,174,-155,-504,559,-1063,-27
,622,2023-10-27 10:45:16.50,210,-236,-2043,193,151,-158,-630,718,-1348,-44
,623,2023-10-27 10:45:16.51,214,-236,-2041,170,146,-161,-499,553,-1052,-27
,624,2023-10-27 10:45:16.52,221,-244,-2036,155,143,-173,-633,720,-1353,-43
,625,2023-10-27 10:45:16.53,199,-243,-2037,137,140,-178,-497,545,-1042,-24
,626,2023-10-27 10:45:16.54,232,-245,-2038,112,131,-183,-636,705,-1341,-34
,627,2023-10-27 10:45:16.55,238,-240,-2053,91,118,-184,-502,528,-1030,-13
,628,2023-10-27 10:45:16.56,232,-241,-2098,57,124,-196,-650,707,-1357,-28
,629,2023-10-27 10:45:16.57,247,-244,-2118,37,121,-199,-510,522,-1032,-6
,630,2023-10-27 10:45:16.58,239,-248,-2099,32,82,-196,-665,710,-1375,-22
,631,2023-10-27 10:45:16.59,260,-254,-2079,8,81,-197,-524,525,-1049,0
,632,2023-10-27 10:45:16.60,257,-277,-2082,-12,74,-188,-677,714,-1391,-18
,633,2023-10-27 10:45:16.61,259,-280,-2064,-13,59,-180,-529,515,-1044,7
,634,2023-10-27 10:45:16.62,268,-278,-2057,-6,56,-174,-681,707,-1388,-13
,635,2023-10-27 10:45:16.63,249,-285,-2048,8,37,-163,-526,512,-1038,7
,636,2023-10-27 10:45:16.64,269,-264,-2028,12,42,-149,-684,710,-1394,-13
,637,2023-10-27 10:45:16.65,256,-259,-2010,12,44,-139,-538,508,-1046,15
,638,2023-10-27 10:45:16.66,261,-274,-2020,18,50,-132,-701,714,-1415,-6
,639,2023-10-27 10:45:16.67,247,-272,-2021,34,39,-124,-535,507,-1042,14
,640,2023-10-27 10:45:16.68,256,-280,-2019,44,30,-119,-690,713,-1403,-11
,641,2023-10-27 10:45:16.69,251,-278,-2031,50,26,-111,-531,502,-1033,14
,642,2023-10-27 10:45:16.70,242,-279,-2040,67,14,-107,-696,720,-1416,-12
,643,2023-10-27 10:45:16.71,255,-263,-2026,82,4,-103,-533,505,-1038,14
,644,2023-10-27 10:45:16.72,243,-261,-2015,88,0,-106,-694,724,-1418,-15
,645,2023-10-27 10:45:16.73,264,-264,-2008,73,8,-110,-526,509,-1035,8
,646,2023-10-27 10:45:16.74,257,-281,-2019,69,18,-106,-694,732,-1426,-19
,647,2023-10-27 10:45:16.75,257,-289,-2028,67,23,-105,-519,510,-1029,4
,648,2023-10-27 10:45:16.76,264,-300,-2014,63,29,-102,-690,729,-1419,-19
,649,2023-10-27 10:45:16.77,251,-295,-2013,60,25,-96,-519,507,-1026,6
,650,2023-10-27 10:45:16.78,269,-301,-2039,56,31,-88,-693,736,-1429,-21
,651,2023-10-27 10:45:16.79,286,-285,-2023,47,43,-85,-510,512,-1022,-1
,652,2023-10-27 10:45:16.80,281,-290,-2034,43,48,-83,-686,741,-1427,-27
,653,2023-10-27 10:45:16.81,277,-313,-2040,46,56,-80,-498,518,-1016,-10
,654,2023-10-27 10:45:16.82,266,-304,-2042,52,52,-79,-676,753,-1429,-38
,655,2023-10-27 10:45:16.83,276,-304,-2040,56,60,-72,-485,523,-1008,-19
,656,2023-10-27 10:45:16.84,270,-298,-2051,63,45,-70,-668,757,-1425,-44
,657,2023-10-27 10:45:16.85,269,-289,-2045,67,47,-68,-480,529,-1009,-24
,658,2023-10-27 10:45:16.86,258,-290,-2043,65,37,-70,-661,768,-1429,-53
,659,2023-10-27 10:45:16.87,269,-306,-2069,66,29,-66,-465,532,-997,-33
,660,2023-10-27 10:45:16.88,258,-299,-2055,60,21,-62,-653,762,-1415,-54
,661,2023-10-27 10:45:16.89,257,-292,-2059,47,20,-63,-463,529,-992,-33
,662,2023-10-27 10:45:16.90,274,-290,-2054,44,1,-56,-653,770,-1423,-58
,663,2023-10-27 10:45:16.91,261,-282,-2043,29,-8,-55,-458,537,-995,-39
,664,2023-10-27 10:45:16.92,261,-287,-2035,12,-5,-53,-654,773,-1427,-59
,665,2023-10-27 10:45:16.93,273,-287,-2040,5,-5,-55,-461,536,-997,-37
,666,2023-10-27 10:45:16.94,273,-284,-2038,-6,-5,-54,-656,771,-1427,-57
,667,2023-10-27 10:45:16.95,272,-275,-2042,-8,-11,-57,-465,531,-996,-33
,668,2023-10-27 10:45:16.96,281,-269,-2044,-10,-20,-55,-661,770,-1431,-54
,669,2023-10-27 10:45:16.97,253,-261,-2030,-11,-28,-56,-467,537,-1004,-35
,670,2023-10-27 10:45:16.98,264,-277,-2035,-17,-34,-57,-660,782,-1442,-61
,671,2023-10-27 10:45:16.99,245,-268,-2043,-20,-40,-52,-462,542,-1004,-40
,672,2023-10-27 10:45:17.00,268,-257,-2039,-27,-44,-53,-657,780,-1437,-61
,673,2023-10-27 10:45:17.01,262,-248,-2031,-34,-41,-52,-462,540,-1002,-39
,674,2023-10-27 10:45:17.02,268,-253,-2021,-41,-37,-54,-655,781,-1436,-63
,675,2023-10-27 10:45:17.03,249,-260,-2008,-46,-34,-51,-459,540,-999,-40
,676,2023-10-27 10:45:17.04,261,-255,-2039,-54,-25,-48,-657,773,-1430,-58
,677,2023-10-27 10:45:17.05,257,-277,-2047,-48,-36,-39,-464,541,-1005,-38
,678,2023-10-27 10:45:17.06,254,-278,-2067,-39,-35,-31,-656,783,-1439,-63
,679,2023-10-27 10:45:17.07,255,-279,-2045,-34,-41,-23,-462,546,-1008,-42
,680,2023-10-27 10:45:17.08,253,-294,-2020,-21,-31,-16,-654,781,-1435,-63
,681,2023-10-27 10:45:17.09,256,-298,-1994,1,-26,-9,-456,554,-1010,-49
,682,2023-10-27 10:45:17.10,265,-300,-2000,25,-13,-9,-652,781,-1433,-64
,683,2023-10-27 10:45:17.11,277,-293,-2001,46,8,-5,-467,546,-1013,-39
,684,2023-10-27 10:45:17.12,280,-282,-2019,72,13,-4,-664,766,-1430,-51
,685,2023-10-27 10:45:17.13,261,-266,-2039,87,24,-2,-466,555,-1021,-44
,686,2023-10-27 10:45:17.14,277,-253,-2038,69,33,0,-649,787,-1436,-69
,687,2023-10-27 10:45:17.15,275,-279,-2034,52,47,-2,-458,560,-1018,-51
,688,2023-10-27 10:45:17.16,256,-291,-2069,52,44,-1,-648,779,-1427,-65
,689,2023-10-27 10:45:17.17,253,-297,-2095,56,32,1,-465,557,-1022,-46
,690,2023-10-27 10:45:17.18,264,-290,-2076,50,11,5,-652,770,-1422,-59
,691,2023-10-27 10:45:17.19,263,-292,-2074,45,-1,1,-470,553,-1023,-41
,692,2023-10-27 10:45:17.20,276,-278,-2075,45,-13,3,-654,774,-1428,-60
,693,2023-10-27 10:45:17.21,283,-269,-2036,38,-17,0,-470,562,-1032,-46
,694,2023-10-27 10:45:17.22,287,-284,-2001,31,-6,-5,-648,776,-1424,-64
,695,2023-10-27 10:45:17.23,270,-288,-2001,31,3,-6,-468,563,-1031,-47
,696,2023-10-27 10:45:17.24,280,-328,-1987,39,0,-10,-649,776,-1425,-63
,697,2023-10-27 10:45:17.25,276,-314,-1996,39,28,-11,-475,570,-1045,-47
,698,2023-10-27 10:45:17.26,276,-289,-2020,35,31,-13,-652,784,-1436,-66
,699,2023-10-27 10:45:17.27,269,-285,-2035,25,35,-14,-481,573,-1054,-46
,700,2023-10-27 10:45:17.28,279,-284,-2049,12,36,-14,-651,773,-1424,-61
,701,2023-10-27 10:45:17.29,259,-279,-2052,0,32,-18,-481,569,-1050,-44
,702,2023-10-27 10:45:17.30,268,-278,-2069,-8,19,-17,-643,769,-1412,-63
,703,2023-10-27 10:45:17.31,279,-275,-2063,-16,9,-13,-474,570,-1044,-48
,704,2023-10-27 10:45:17.32,279,-277,-2056,-32,2,-9,-642,771,-1413,-64
,705,2023-10-27 10:45:17.33,293,-281,-2046,-44,4,-4,-484,578,-1062,-47
,706,2023-10-27 10:45:17.34,289,-269,-2050,-53,4,2,-647,768,-1415,-60
,707,2023-10-27 10:45:17.35,295,-263,-2032,-65,7,8,-493,583,-1076,-45
,708,2023-10-27 10:45:17.36,296,-251,-2027,-66,12,15,-649,763,-1412,-57
,709,2023-10-27 10:45:17.37,293,-254,-2035,-62,17,16,-495,580,-1075,-42
,710,2023-10-27 10:45:17.38,288,-258,-2038,-53,20,22,-648,762,-1410,-57
,711,2023-10-27 10:45:17.39,290,-263,-2047,-39,13,28,-500,581,-1081,-40
,712,2023-10-27 10:45:17.40,280,-254,-2068,-15,4,33,-646,754,-1400,-54
,713,2023-10-27 10:45:17.41,283,-254,-2057,-1,-2,38,-501,586,-1087,-42
,714,2023-10-27 10:45:17.42,267,-253,-2053,5,-4,41,-637,755,-1392,-59
,715,2023-10-27 10:45:17.43,269,-255,-2048,12,-8,41,-500,590,-1090,-45
,716,2023-10-27 10:45:17.44,276,-258,-2026,12,-1,39,-635,752,-1387,-58
,717,2023-10-27 10:45:17.45,258,-260,-2012,21,-3,36,-498,596,-1094,-49
,718,2023-10-27 10:45:17.46,276,-253,-2004,25,6,29,-626,752,-1378,-63
,719,2023-10-27 10:45:17.47,259,-250,-1993,27,13,19,-496,599,-1095,-51
,720,2023-10-27 10:45:17.48,272,-249,-1996,24,29,10,-622,747,-1369,-62
,721,2023-10-27 10:45:17.49,269,-256,-1997,25,33,3,-500,604,-1104,-52
,722,2023-10-27 10:45:17.50,265,-270,-2011,32,33,-2,-616,756,-1372,-70
,723,2023-10-27 10:45:17.51,262,-280,-2022,34,30,-3,-505,611,-1116,-53
,724,2023-10-27 10:45:17.52,279,-277,-2020,40,18,-6,-620,748,-1368,-64
,725,2023-10-27 10:45:17.53,270,-274,-2029,36,17,-9,-517,603,-1120,-43
,726,2023-10-27 10:45:17.54,286,-269,-2024,29,18,-14,-619,746,-1365,-63
,727,2023-10-27 10:45:17.55,291,-272,-2030,27,27,-21,-517,618,-1135,-50
,728,2023-10-27 10:45:17.56,282,-278,-2030,27,24,-23,-620,748,-1368,-64
,729,2023-10-27 10:45:17.57,286,-279,-2037,24,20,-23,-522,627,-1149,-52
,730,2023-10-27 10:45:17.58,285,-295,-2050,27,11,-22,-618,728,-1346,-55
,731,2023-10-27 10:45:17.59,281,-296,-2062,29,4,-17,-524,617,-1141,-46
,732,2023-10-27 10:45:17.60,291,-286,-2064,25,-7,-13,-606,723,-1329,-58
,733,2023-10-27 10:45:17.61,286,-283,-2056,18,-11,-8,-514,623,-1137,-54
,734,2023-10-27 10:45:17.62,299,-281,-2046,10,-16,-1,-605,734,-1339,-64
,735,2023-10-27 10:45:17.63,300,-274,-2043,-3,-10,-2,-528,642,-1170,-57
,736,2023-10-27 10:45:17.64,299,-272,-2029,-14,1,1,-599,729,-1328,-65
,737,2023-10-27 10:45:17.65,293,-290,-2032,-15,6,5,-521,636,-1157,-57
,738,2023-10-27 10:45:17.66,283,-284,-2046,-19,12,13,-593,714,-1307,-60
,739,2023-10-27 10:45:17.67,280,-294,-2045,-16,8,19,-530,640,-1170,-55
,740,2023-10-27 10:45:17.68,275,-283,-2040,-8,-2,27,-598,719,-1317,-60
,741,2023-10-27 10:45:17.69,275,-288,-2045,-1,-10,36,-536,647,-1183,-55
,742,2023-10-27 10:45:17.70,268,-273,-2054,3,-21,45,-589,696,-1285,-53
,743,2023-10-27 10:45:17.71,272,-248,-2052,1,-24,44,-535,634,-1169,-49
,744,2023-10-27 10:45:17.72,276,-243,-2041,-5,-20,42,-589,696,-1285,-53
,745,2023-10-27 10:45:17.73,267,-245,-2061,-5,-27,42,-545,652,-1197,-53
,746,2023-10-27 10:45:17.74,257,-248,-2080,-5,-34,43,-590,702,-1292,-56
,747,2023-10-27 10:45:17.75,260,-268,-2062,-7,-43,42,-546,659,-1205,-56
,748,2023-10-27 10:45:17.76,251,-273,-2052,-5,-40,42,-578,696,-1274,-59
,749,2023-10-27 10:45:17.77,254,-278,-2028,9,-46,42,-542,659,-1201,-58
,750,2023-10-27 10:45:17.78,272,-260,-2006,19,-40,46,-576,688,-1264,-56
,751,2023-10-27 10:45:17.79,281,-239,-2027,30,-33,39,-552,665,-1217,-56
,752,2023-10-27 10:45:17.80,278,-232,-2011,26,-13,26,-575,697,-1272,-61
,753,2023-10-27 10:45:17.81,275,-243,-2005,21,2,15,-555,670,-1225,-57
,754,2023-10-27 10:45:17.82,270,-266,-1993,31,4,7,-576,686,-1262,-55
,755,2023-10-27 10:45:17.83,275,-238,-2038,41,9,0,-562,678,-1240,-58
,756,2023-10-27 10:45:17.84,287,-228,-2070,30,16,-3,-560,680,-1240,-60
,757,2023-10-27 10:45:17.85,276,-238,-2066,24,4,-7,-552,673,-1225,-60
,758,2023-10-27 10:45:17.86,282,-234,-2032,18,9,-12,-556,676,-1232,-60
,759,2023-10-27 10:45:17.87,282,-255,-2011,11,14,-11,-559,680,-1239,-60
,760,2023-10-27 10:45:17.88,297,-244,-2031,7,22,-11,-555,667,-1222,-56
,761,2023-10-27 10:45:17.89,297,-267,-2007,9,27,-6,-568,683,-1251,-57
,762,2023-10-27 10:45:17.90,307,-284,-1997,17,36,6,-555,666,-1221,-55
,763,2023-10-27 10:45:17.91,316,-294,-1977,41,40,16,-564,696,-1260,-66
,764,2023-10-27 10:45:17.92,337,-288,-1994,79,50,26,-547,649,-1196,-51
,765,2023-10-27 10:45:17.93,327,-282,-2008,100,58,38,-569,675,-1244,-53
,766,2023-10-27 10:45:17.94,345,-276,-2042,111,64,49,-549,622,-1171,-36
,767,2023-10-27 10:45:17.95,328,-279,-2063,120,75,60,-573,673,-1246,-50
,768,2023-10-27 10:45:17.96,328,-278,-2044,132,52,67,-539,628,-1167,-44
,769,2023-10-27 10:45:17.97,340,-271,-2047,141,40,74,-574,685,-1259,-55
,770,2023-10-27 10:45:17.98,346,-264,-2050,142,51,73,-533,631,-1164,-49
,771,2023-10-27 10:45:17.99,337,-262,-2027,137,61,75,-580,688,-1268,-54
,772,2023-10-27 10:45:18.00,310,-298,-2044,132,46,74,-538,625,-1163,-43
,773,2023-10-27 10:45:18.01,327,-295,-2037,134,36,80,-586,700,-1286,-57
,774,2023-10-27 10:45:18.02,314,-306,-2056,145,33,80,-520,629,-1149,-54
,775,2023-10-27 10:45:18.03,338,-334,-2027,147,27,76,-574,702,-1276,-64
,776,2023-10-27 10:45:18.04,328,-342,-2031,173,37,75,-497,610,-1107,-56
,777,2023-10-27 10:45:18.05,301,-327,-2036,206,28,64,-564,698,-1262,-67
,778,2023-10-27 10:45:18.06,320,-353,-2028,204,20,62,-501,616,-1117,-57
,779,2023-10-27 10:45:18.07,285,-309,-2070,224,10,55,-572,695,-1267,-61
,780,2023-10-27 10:45:18.08,308,-320,-2087,229,-10,42,-489,599,-1088,-55
,781,2023-10-27 10:45:18.09,284,-338,-2079,199,-24,45,-566,700,-1266,-67
,782,2023-10-27 10:45:18.10,270,-339,-2062,186,-40,37,-488,601,-1089,-56
,783,2023-10-27 10:45:18.11,269,-362,-2050,189,-64,41,-581,709,-1290,-64
,784,2023-10-27 10:45:18.12,262,-353,-2059,183,-80,37,-492,601,-1093,-54
,785,2023-10-27 10:45:18.13,263,-367,-2033,178,-99,34,-583,712,-1295,-64
,786,2023-10-27 10:45:18.14,255,-356,-2025,174,-109,31,-489,592,-1081,-51
,787,2023-10-27 10:45:18.15,262,-349,-2003,166,-122,31,-588,715,-1303,-63
,788,2023-10-27 10:45:18.16,256,-351,-2004,153,-115,18,-491,593,-1084,-51
,789,2023-10-27 10:45:18.17,252,-359,-2015,139,-92,8,-595,715,-1310,-60
,790,2023-10-27 10:45:18.18,239,-380,-2000,133,-100,1,-490,585,-1075,-47
,791,2023-10-27 10:45:18.19,231,-383,-1998,126,-91,-3,-598,721,-1319,-61
,792,2023-10-27 10:45:18.20,229,-391,-2000,116,-85,-6,-484,583,-1067,-49
,793,2023-10-27 10:45:18.21,232,-391,-2004,111,-75,-7,-599,722,-1321,-61
,794,2023-10-27 10:45:18.22,215,-386,-2002,106,-72,-9,-486,578,-1064,-46
,795,2023-10-27 10:45:18.23,238,-351,-2012,82,-73,-6,-605,728,-1333,-61
,796,2023-10-27 10:45:18.24,229,-391,-2011,63,-83,-3,-481,577,-1058,-48
,797,2023-10-27 10:45:18.25,209,-366,-2016,35,-58,4,-608,726,-1334,-59
,798,2023-10-27 10:45:18.26,217,-356,-2015,9,-66,8,-481,562,-1043,-40
,799,2023-10-27 10:45:18.27,221,-350,-2030,-22,-59,12,-612,726,-1338,-57
,800,2023-10-27 10:45:18.28,219,-364,-2036,-44,-61,22,-478,563,-1041,-42
,801,2023-10-27 10:45:18.29,220,-350,-2043,-63,-66,29,-614,729,-1343,-57
,802,2023-10-27 10:45:18.30,224,-353,-2035,-80,-62,37,-478,564,-1042,-43
,803,2023-10-27 10:45:18.31,217,-358,-2023,-94,-64,50,-616,736,-1352,-60
,804,2023-10-27 10:45:18.32,228,-362,-2005,-96,-68,59,-462,570,-1032,-54
,805,2023-10-27 10:45:18.33,215,-377,-2020,-89,-60,76,-615,734,-1349,-59
,806,2023-10-27 10:45:18.34,218,-381,-2015,-81,-61,89,-468,552,-1020,-42
,807,2023-10-27 10:45:18.35,222,-373,-2025,-79,-59,105,-624,720,-1344,-48
,808,2023-10-27 10:45:18.36,224,-363,-2033,-72,-56,125,-467,546,-1013,-39
,809,2023-10-27 10:45:18.37,223,-352,-2031,-67,-53,138,-621,736,-1357,-57
,810,2023-10-27 10:45:18.38,227,-347,-2041,-63,-49,151,-465,551,-1016,-43
,811,2023-10-27 10:45:18.39,232,-352,-2053,-54,-49,164,-630,747,-1377,-58
,812,2023-10-27 10:45:18.40,212,-336,-2051,-40,-50,170,-476,563,-1039,-43
,813,2023-10-27 10:45:18.41,233,-324,-2034,-22,-58,176,-640,758,-1398,-59
,814,2023-10-27 10:45:18.42,226,-323,-2021,-11,-46,177,-462,563,-1025,-50
,815,2023-10-27 10:45:18.43,219,-333,-2024,0,-29,174,-622,754,-1376,-66
,816,2023-10-27 10:45:18.44,213,-341,-2035,21,-22,172,-456,546,-1002,-45
,817,2023-10-27 10:45:18.45,212,-401,-2021,65,-26,164,-625,752,-1377,-63
,818,2023-10-27 10:45:18.46,190,-320,-2066,84,6,164,-455,540,-995,-42
,819,2023-10-27 10:45:18.47,211,-374,-2040,95,-36,158,-628,741,-1369,-56
,820,2023-10-27 10:45:18.48,217,-354,-2055,109,-8,153,-454,530,-984,-38
,821,2023-10-27 10:45:18.49,206,-341,-2047,110,6,142,-633,752,-1385,-59
,822,2023-10-27 10:45:18.50,225,-358,-2039,114,11,127,-457,537,-994,-40
,823,2023-10-27 10:45:18.51,202,-342,-2054,102,32,116,-636,755,-1391,-59
,824,2023-10-27 10:45:18.52,225,-364,-2028,104,28,103,-458,535,-993,-38
,825,2023-10-27 10:45:18.53,218,-382,-2029,105,45,93,-639,758,-1397,-59
,826,2023-10-27 10:45:18.54,213,-374,-2039,108,45,86,-456,540,-996,-42
,827,2023-10-27 10:45:18.55,215,-377,-2025,106,50,78,-641,763,-1404,-61
,828,2023-10-27 10:45:18.56,209,-400,-2018,103,61,73,-455,542,-997,-43
,829,2023-10-27 10:45:18.57,213,-411,-2013,104,78,69,-642,775,-1417,-66
,830,2023-10-27 10:45:18.58,224,-427,-1993,106,87,70,-452,550,-1002,-49
,831,2023-10-27 10:45:18.59,203,-439,-1970,121,90,72,-641,776,-1417,-67
,832,2023-10-27 10:45:18.60,214,-452,-1968,135,92,74,-460,553,-1013,-46
,833,2023-10-27 10:45:18.61,216,-437,-1956,140,92,79,-647,785,-1432,-69
,834,2023-10-27 10:45:18.62,229,-444,-1943,144,99,83,-452,554,-1006,-51
,835,2023-10-27 10:45:18.63,223,-440,-1954,149,103,85,-638,782,-1420,-72
,836,2023-10-27 10:45:18.64,222,-432,-1981,143,113,89,-444,551,-995,-53
,837,2023-10-27 10:45:18.65,231,-429,-1989,135,98,91,-634,786,-1420,-76
,838,2023-10-27 10:45:18.66,219,-415,-1982,124,83,94,-440,552,-992,-56
,839,2023-10-27 10:45:18.67,218,-409,-1987,104,77,94,-634,785,-1419,-75
,840,2023-10-27 10:45:18.68,224,-393,-1981,74,71,88,-434,545,-979,-55
,841,2023-10-27 10:45:18.69,222,-390,-1994,43,76,83,-627,779,-1406,-76
,842,2023-10-27 10:45:18.70,231,-391,-1998,20,59,79,-431,537,-968,-53
,843,2023-10-27 10:45:18.71,234,-395,-2002,-3,54,66,-657,819,-1476,-81
,844,2023-10-27 10:45:18.72,221,-405,-2009,-20,48,60,-474,609,-1083,-67
,845,2023-10-27 10:45:18.73,238,-403,-2012,-37,42,53,-648,860,-1508,-106
,846,2023-10-27 10:45:18.74,251,-396,-2033,-55,39,42,-437,584,-1021,-73
,847,2023-10-27 10:45:18.75,242,-411,-2036,-67,30,32,-619,800,-1419,-90
,848,2023-10-27 10:45:18.76,251,-398,-2068,-76,28,22,-426,534,-960,-54
,849,2023-10-27 10:45:18.77,243,-388,-2070,-92,26,13,-620,782,-1402,-81
,850,2023-10-27 10:45:18.78,251,-391,-2087,-101,12,13,-430,542,-972,-56
,851,2023-10-27 10:45:18.79,242,-384,-2101,-113,-3,7,-638,774,-1412,-68
,852,2023-10-27 10:45:18.80,243,-373,-2095,-128,-15,10,-439,545,-984,-53
,853,2023-10-27 10:45:18.81,250,-368,-2090,-145,-21,13,-640,782,-1422,-71
,854,2023-10-27 10:45:18.82,235,-374,-2080,-154,-27,17,-446,544,-990,-49
,855,2023-10-27 10:45:18.83,256,-360,-2055,-162,-34,25,-645,788,-1433,-71
,856,2023-10-27 10:45:18.84,255,-352,-2034,-174,-29,28,-448,551,-999,-51
,857,2023-10-27 10:45:18.85,259,-346,-2028,-182,-27,31,-643,786,-1429,-71
,858,2023-10-27 10:45:18.86,267,-342,-2024,-183,-21,38,-452,547,-999,-47
,859,2023-10-27 10:45:18.87,246,-339,-2015,-180,-21,46,-647,785,-1432,-69
,860,2023-10-27 10:45:18.88,255,-327,-2018,-170,-21,48,-455,549,-1004,-47
,861,2023-10-27 10:45:18.89,252,-315,-2010,-163,-21,52,-649,779,-1428,-65
,862,2023-10-27 10:45:18.90,248,-317,-2012,-150,-26,59,-458,547,-1005,-44
,863,2023-10-27 10:45:18.91,234,-305,-2021,-132,-31,60,-649,784,-1433,-67
,864,2023-10-27 10:45:18.92,251,-317,-2027,-117,-31,62,-457,546,-1003,-44
,865,2023-10-27 10:45:18.93,258,-322,-2023,-102,-33,64,-651,779,-1430,-64
,866,2023-10-27 10:45:18.94,235,-304,-2005,-76,-39,63,-466,552,-1018,-43
,867,2023-10-27 10:45:18.95,249,-302,-1994,-59,-33,59,-654,789,-1443,-67
,868,2023-10-27 10:45:18.96,248,-307,-1984,-37,-30,54,-468,559,-1027,-45
,869,2023-10-27 10:45:18.97,267,-299,-1984,-16,-20,45,-654,787,-1441,-66
,870,2023-10-27 10:45:18.98,250,-304,-1999,3,-11,39,-469,566,-1035,-48
,871,2023-10-27 10:45:18.99,253,-310,-2008,15,0,32,-648,793,-1441,-72
,872,2023-10-27 10:45:19.00,245,-309,-2023,27,14,24,-466,569,-1035,-51
,873,2023-10-27 10:45:19.01,250,-335,-2046,38,24,22,-649,790,-1439,-70
,874,2023-10-27 10:45:19.02,244,-337,-2053,48,30,19,-472,574,-1046,-51
,875,2023-10-27 10:45:19.03,247,-344,-2049,56,33,19,-649,795,-1444,-73
,876,2023-10-27 10:45:19.04,258,-351,-2050,64,38,20,-472,581,-1053,-54
,877,2023-10-27 10:45:19.05,260,-357,-2033,69,40,23,-648,794,-1442,-73
,878,2023-10-27 10:45:19.06,245,-368,-2040,81,37,26,-476,584,-1060,-54
,879,2023-10-27 10:45:19.07,252,-376,-2039,90,28,31,-647,797,-1444,-75
,880,2023-10-27 10:45:19.08,248,-379,-2039,92,33,30,-480,586,-1066,-53
,881,2023-10-27 10:45:19.09,245,-371,-2037,97,28,35,-647,795,-1442,-74
,882,2023-10-27 10:45:19.10,240,-380,-2038,92,22,34,-481,595,-1076,-57
,883,2023-10-27 10:45:19.11,241,-376,-2037,84,20,35,-646,794,-1440,-74
,884,2023-10-27 10:45:19.12,236,-362,-2038,75,22,32,-486,597,-1083,-55
,885,2023-10-27 10:45:19.13,256,-364,-2024,65,21,29,-645,794,-1439,-74
,886,2023-10-27 10:45:19.14,232,-373,-2022,60,4,27,-478,611,-1089,-66
,887,2023-10-27 10:45:19.15,226,-375,-2028,51,6,23,-639,790,-1429,-75
,888,2023-10-27 10:45:19.16,231,-376,-2027,39,6,20,-482,596,-1078,-57
,889,2023-10-27 10:45:19.17,208,-385,-2018,30,-6,23,-641,766,-1407,-62
,890,2023-10-27 10:45:19.18,236,-380,-2028,20,-5,25,-482,600,-1082,-59
,891,2023-10-27 10:45:19.19,227,-375,-2007,10,-10,28,-632,780,-1412,-74
,892,2023-10-27 10:45:19.20,230,-371,-2000,0,-8,27,-491,601,-1092,-55
,893,2023-10-27 10:45:19.21,234,-372,-1998,-7,-7,27,-630,775,-1405,-72
,894,2023-10-27 10:45:19.22,234,-373,-2004,-12,-6,23,-490,602,-1092,-56
,895,2023-10-27 10:45:19.23,229,-362,-2016,-19,-5,24,-626,768,-1394,-71
,896,2023-10-27 10:45:19.24,235,-359,-2014,-24,1,21,-493,609,-1102,-58
,897,2023-10-27 10:45:19.25,227,-365,-2026,-29,1,22,-624,766,-1390,-71
,898,2023-10-27 10:45:19.26,235,-366,-2031,-30,-1,21,-495,606,-1101,-55
,899,2023-10-27 10:45:19.27,233,-358,-2041,-31,-3,20,-620,760,-1380,-70
,900,2023-10-27 10:45:19.28,219,-351,-2030,-29,-11,20,-494,608,-1102,-57
,901,2023-10-27 10:45:19.29,234,-349,-2030,-28,-9,19,-616,756,-1372,-70
,902,2023-10-27 10:45:19.30,232,-342,-2033,-30,-9,16,-499,612,-1111,-56
,903,2023-10-27 10:45:19.31,233,-338,-2028,-27,-8,13,-617,754,-1371,-68
,904,2023-10-27 10:45:19.32,237,-342,-2035,-27,-11,9,-507,624,-1131,-58
,905,2023-10-27 10:45:19.33,228,-344,-2041,-27,-9,6,-612,753,-1365,-70
,906,2023-10-27 10:45:19.34,223,-350,-2044,-23,-11,6,-504,616,-1120,-56
,907,2023-10-27 10:45:19.35,236,-343,-2043,-20,-19,9,-605,748,-1353,-71
,908,2023-10-27 10:45:19.36,218,-350,-2044,-19,-17,10,-510,626,-1136,-58
,909,2023-10-27 10:45:19.37,239,-355,-2042,-17,-17,12,-604,746,-1350,-71
,910,2023-10-27 10:45:19.38,239,-353,-2032,-16,-16,17,-515,634,-1149,-59
,911,2023-10-27 10:45:19.39,233,-349,-2015,-15,-8,21,-606,741,-1347,-67
,912,2023-10-27 10:45:19.40,220,-345,-2017,-10,-2,20,-517,636,-1153,-59
,913,2023-10-27 10:45:19.41,226,-353,-2019,-7,13,23,-599,736,-1335,-68
,914,2023-10-27 10:45:19.42,229,-359,-2016,-1,18,26,-520,635,-1155,-57
,915,2023-10-27 10:45:19.43,222,-353,-2025,8,22,33,-595,732,-1327,-68
,916,2023-10-27 10:45:19.44,240,-346,-2024,11,26,37,-524,640,-1164,-58
,917,2023-10-27 10:45:19.45,228,-345,-2025,18,26,38,-592,732,-1324,-70
,918,2023-10-27 10:45:19.46,233,-343,-2028,21,25,37,-527,649,-1176,-61
,919,2023-10-27 10:45:19.47,232,-339,-2026,25,25,36,-584,734,-1318,-75
,920,2023-10-27 10:45:19.48,234,-338,-2032,26,19,34,-528,656,-1184,-64
,921,2023-10-27 10:45:19.49,235,-354,-2029,27,17,33,-577,719,-1296,-71
,922,2023-10-27 10:45:19.50,242,-344,-2031,25,19,30,-528,658,-1186,-65
,923,2023-10-27 10:45:19.51,248,-350,-2034,26,18,28,-566,713,-1279,-73
,924,2023-10-27 10:45:19.52,239,-352,-2030,27,18,27,-518,665,-1183,-73
,925,2023-10-27 10:45:19.53,240,-353,-2026,22,18,26,-553,715,-1268,-81
,926,2023-10-27 10:45:19.54,233,-351,-2036,19,19,24,-512,675,-1187,-81
,927,2023-10-27 10:45:19.55,235,-345,-2030,12,19,23,-527,726,-1253,-99
,928,2023-10-27 10:45:19.56,237,-372,-2004,14,22,21,-499,674,-1173,-87
,929,2023-10-27 10:45:19.57,229,-360,-2023,22,24,18,-518,708,-1226,-95
,930,2023-10-27 10:45:19.58,242,-354,-2023,27,12,15,-504,658,-1162,-77
,931,2023-10-27 10:45:19.59,244,-356,-2020,22,14,13,-506,692,-1198,-93
,932,2023-10-27 10:45:19.60,241,-359,-2029,19,17,11,-495,665,-1160,-85
,933,2023-10-27 10:45:19.61,239,-358,-2039,11,15,10,-497,688,-1185,-95
,934,2023-10-27 10:45:19.62,240,-354,-2032,-3,14,12,-492,682,-1174,-95
,935,2023-10-27 10:45:19.63,240,-374,-2013,-12,17,11,-485,696,-1181,-105
,936,2023-10-27 10:45:19.64,250,-360,-2013,-7,21,13,-490,692,-1182,-101
,937,2023-10-27 10:45:19.65,241,-344,-2013,-13,27,14,-478,692,-1170,-107
,938,2023-10-27 10:45:19.66,244,-359,-2023,-16,34,10,-494,698,-1192,-102
,939,2023-10-27 10:45:19.67,247,-360,-2030,-13,37,10,-475,685,-1160,-105
,940,2023-10-27 10:45:19.68,256,-364,-2034,-6,33,10,-491,700,-1191,-104
,941,2023-10-27 10:45:19.69,245,-353,-2031,2,30,6,-468,670,-1138,-101
,942,2023-10-27 10:45:19.70,246,-355,-2040,11,22,7,-496,699,-1195,-101
,943,2023-10-27 10:45:19.71,248,-346,-2033,14,19,6,-467,670,-1137,-101
,944,2023-10-27 10:45:19.72,254,-348,-2035,17,19,7,-500,704,-1204,-102
,945,2023-10-27 10:45:19.73,258,-358,-2031,19,14,6,-479,657,-1136,-89
,946,2023-10-27 10:45:19.74,250,-346,-2035,15,11,7,-531,698,-1229,-83
,947,2023-10-27 10:45:19.75,258,-349,-2030,5,10,8,-508,650,-1158,-71
,948,2023-10-27 10:45:19.76,242,-369,-2019,5,7,8,-559,701,-1260,-71
,949,2023-10-27 10:45:19.77,246,-361,-2031,4,6,12,-520,644,-1164,-62
,950,2023-10-27 10:45:19.78,253,-355,-2033,1,3,14,-572,698,-1270,-63
,951,2023-10-27 10:45:19.79,248,-349,-2021,-5,4,12,-528,640,-1168,-56
,952,2023-10-27 10:45:19.80,244,-359,-2017,-3,8,7,-587,705,-1292,-59
,953,2023-10-27 10:45:19.81,256,-346,-2025,-1,5,8,-532,640,-1172,-54
,954,2023-10-27 10:45:19.82,245,-341,-2019,-5,5,2,-594,711,-1305,-58
,955,2023-10-27 10:45:19.83,248,-354,-2025,-8,5,0,-532,639,-1171,-53
,956,2023-10-27 10:45:19.84,257,-362,-2030,-10,6,-1,-603,717,-1320,-57
,957,2023-10-27 10:45:19.85,254,-363,-2036,-7,3,3,-532,633,-1165,-50
,958,2023-10-27 10:45:19.86,251,-360,-2036,-5,-4,5,-607,719,-1326,-56
,959,2023-10-27 10:45:19.87,243,-352,-2029,-8,-2,7,-530,628,-1158,-49
,960,2023-10-27 10:45:19.88,252,-346,-2005,-5,-5,8,-612,723,-1335,-55
,961,2023-10-27 10:45:19.89,254,-344,-2011,-3,4,8,-526,623,-1149,-48
,962,2023-10-27 10:45:19.90,249,-353,-2025,-9,11,9,-616,723,-1339,-53
,963,2023-10-27 10:45:19.91,243,-355,-2034,-6,10,12,-524,619,-1143,-47
,964,2023-10-27 10:45:19.92,248,-350,-2044,-4,8,11,-618,730,-1348,-56
,965,2023-10-27 10:45:19.93,250,-347,-2037,-6,2,15,-519,615,-1134,-48
,966,2023-10-27 10:45:19.94,246,-347,-2037,-7,-2,18,-618,734,-1352,-58
,967,2023-10-27 10:45:19.95,243,-337,-2036,-8,-6,16,-515,608,-1123,-46
,968,2023-10-27 10:45:19.96,245,-338,-2032,-8,-10,15,-614,751,-1365,-68
,969,2023-10-27 10:45:19.97,244,-339,-2024,-9,-14,13,-510,609,-1119,-49
,970,2023-10-27 10:45:19.98,248,-330,-2021,-14,-13,13,-624,740,-1364,-58
,971,2023-10-27 10:45:19.99,242,-342,-2014,-19,-11,12,-518,587,-1105,-34
,972,2023-10-27 10:45:20.00,252,-344,-2026,-21,-8,15,-627,745,-1372,-59
,973,2023-10-27 10:45:20.01,241,-341,-2024,-15,-8,17,-505,602,-1107,-48
,974,2023-10-27 10:45:20.02,243,-347,-2023,-12,-11,23,-627,753,-1380,-63
,975,2023-10-27 10:45:20.03,252,-342,-2026,-11,-4,23,-504,595,-1099,-45
,976,2023-10-27 10:45:20.04,236,-337,-2026,-11,-3,24,-633,753,-1386,-60
,977,2023-10-27 10:45:20.05,240,-331,-2026,-8,-1,26,-504,593,-1097,-44
,978,2023-10-27 10:45:20.06,238,-337,-2024,-9,1,24,-632,754,-1386,-61
,979,2023-10-27 10:45:20.07,235,-332,-2031,-9,3,24,-496,585,-1081,-44
,980,2023-10-27 10:45:20.08,228,-327,-2036,-8,2,20,-632,756,-1388,-62
,981,2023-10-27 10:45:20.09,237,-328,-2039,-8,0,17,-494,580,-1074,-43
,982,2023-10-27 10:45:20.10,240,-326,-2032,-7,0,18,-635,758,-1393,-61
,983,2023-10-27 10:45:20.11,248,-329,-2027,-4,-2,18,-496,581,-1077,-42
,984,2023-10-27 10:45:20.12,243,-338,-2033,-8,3,15,-639,763,-1402,-62
,985,2023-10-27 10:45:20.13,251,-331,-2033,-1,2,12,-492,580,-1072,-44
,986,2023-10-27 10:45:20.14,246,-326,-2027,4,0,9,-639,759,-1398,-60
,987,2023-10-27 10:45:20.15,246,-331,-2026,8,1,8,-488,575,-1063,-43
,988,2023-10-27 10:45:20.16,237,-335,-2030,9,5,5,-642,761,-1403,-59
,989,2023-10-27 10:45:20.17,252,-338,-2029,9,11,1,-484,577,-1061,-46
,990,2023-10-27 10:45:20.18,256,-337,-2031,9,8,1,-645,768,-1413,-61
,991,2023-10-27 10:45:20.19,246,-330,-2033,11,10,6,-483,576,-1059,-46
,992,2023-10-27 10:45:20.20,248,-343,-2031,10,8,8,-646,771,-1417,-62
,993,2023-10-27 10:45:20.21,242,-338,-2028,12,7,12,-480,572,-1052,-46
,994,2023-10-27 10:45:20.22,248,-341,-2025,13,5,15,-648,770,-1418,-61
,995,2023-10-27 10:45:20.23,255,-347,-2022,13,6,16,-478,568,-1046,-45
,996,2023-10-27 10:45:20.24,245,-342,-2027,9,9,18,-650,773,-1423,-61
,997,2023-10-27 10:45:20.25,246,-338,-2024,7,7,23,-478,568,-1046,-45
,998,2023-10-27 10:45:20.26,242,-332,-2032,7,7,21,-652,776,-1428,-62
,999,2023-10-27 10:45:20.27,247,-330,-2030,7,4,22,-474,564,-1038,-45
,1000,2023-10-27 10:45:20.28,246,-336,-2028,5,7,17,-652,777,-1429,-62
,1001,2023-10-27 10:45:20.29,238,-330,-2033,3,6,16,-474,564,-1038,-45
,1002,2023-10-27 10:45:20.30,251,-336,-2034,2,4,13,-655,783,-1438,-64
,1003,2023-10-27 10:45:20.31,245,-345,-2035,2,0,11,-475,563,-1038,-44
,1004,2023-10-27 10:45:20.32,251,-333,-2035,1,-2,10,-659,786,-1445,-63
,1005,2023-10-27 10:45:20.33,248,-337,-2030,-3,-2,10,-478,561,-1039,-41
,1006,2023-10-27 10:45:20.34,255,-332,-2025,-3,-3,11,-661,788,-1449,-63
,1007,2023-10-27 10:45:20.35,251,-331,-2021,-1,-1,10,-474,559,-1033,-42
,1008,2023-10-27 10:45:20.36,253,-335,-2027,-3,1,11,-658,788,-1446,-65
,1009,2023-10-27 10:45:20.37,245,-341,-2029,-1,2,14,-465,568,-1033,-51
,1010,2023-10-27 10:45:20.38,248,-337,-2037,2,0,19,-658,785,-1443,-63
,1011,2023-10-27 10:45:20.39,244,-339,-2034,7,0,19,-469,551,-1020,-41
,1012,2023-10-27 10:45:20.40,245,-325,-2040,7,2,22,-661,769,-1430,-54
,1013,2023-10-27 10:45:20.41,243,-332,-2029,4,-1,24,-470,546,-1016,-38
,1014,2023-10-27 10:45:20.42,244,-331,-2027,5,0,22,-660,779,-1439,-59
,1015,2023-10-27 10:45:20.43,242,-324,-2021,4,0,24,-469,551,-1020,-41
,1016,2023-10-27 10:45:20.44,243,-337,-2020,3,8,21,-663,788,-1451,-62
,1017,2023-10-27 10:45:20.45,253,-333,-2029,5,8,24,-472,553,-1025,-40
,1018,2023-10-27 10:45:20.46,242,-336,-2035,8,8,28,-664,787,-1451,-61
,1019,2023-10-27 10:45:20.47,241,-334,-2032,11,5,30,-471,553,-1024,-41
,1020,2023-10-27 10:45:20.48,245,-336,-2035,12,9,31,-664,795,-1459,-65
,1021,2023-10-27 10:45:20.49,244,-332,-2031,12,9,31,-469,556,-1025,-43
,1022,2023-10-27 10:45:20.50,256,-333,-2046,12,7,33,-665,792,-1457,-63
,1023,2023-10-27 10:45:20.51,250,-335,-2045,16,11,28,-467,550,-1017,-41
,1024,2023-10-27 10:45:20.52,252,-332,-2052,19,6,28,-669,787,-1456,-59
,1025,2023-10-27 10:45:20.53,266,-328,-2038,17,8,25,-474,550,-1024,-38
,1026,2023-10-27 10:45:20.54,249,-328,-2033,19,17,20,-671,786,-1457,-57
,1027,2023-10-27 10:45:20.55,258,-335,-2047,24,16,13,-471,552,-1023,-40
,1028,2023-10-27 10:45:20.56,262,-340,-2054,31,16,6,-668,785,-1453,-58
,1029,2023-10-27 10:45:20.57,264,-334,-2057,36,13,2,-469,544,-1013,-37
,1030,2023-10-27 10:45:20.58,263,-334,-2058,39,6,-5,-666,775,-1441,-54
,1031,2023-10-27 10:45:20.59,259,-328,-2059,36,9,-16,-467,538,-1005,-35
,1032,2023-10-27 10:45:20.60,279,-323,-2080,37,11,-32,-676,797,-1473,-60
,1033,2023-10-27 10:45:20.61,269,-328,-2073,44,2,-47,-479,570,-1049,-45
,1034,2023-10-27 10:45:20.62,274,-338,-2071,51,-1,-62,-672,809,-1481,-68
,1035,2023-10-27 10:45:20.63,275,-340,-2041,50,10,-77,-467,564,-1031,-48
,1036,2023-10-27 10:45:20.64,287,-349,-2032,65,14,-92,-656,790,-1446,-67
,1037,2023-10-27 10:45:20.65,281,-363,-1998,82,12,-104,-454,545,-999,-45
,1038,2023-10-27 10:45:20.66,279,-358,-1974,98,22,-114,-650,780,-1430,-65
,1039,2023-10-27 10:45:20.67,274,-362,-1968,99,45,-125,-457,539,-996,-41
,1040,2023-10-27 10:45:20.68,273,-363,-1976,106,56,-134,-651,782,-1433,-65
,1041,2023-10-27 10:45:20.69,266,-353,-1983,112,56,-147,-458,546,-1004,-44
,1042,2023-10-27 10:45:20.70,263,-370,-1975,116,56,-153,-639,768,-1407,-64
,1043,2023-10-27 10:45:20.71,263,-363,-2005,120,50,-160,-448,530,-978,-41
,1044,2023-10-27 10:45:20.72,248,-371,-1998,118,41,-164,-616,773,-1389,-78
,1045,2023-10-27 10:45:20.73,257,-387,-2002,108,31,-159,-413,558,-971,-72
,1046,2023-10-27 10:45:20.74,240,-410,-2027,96,18,-145,-584,785,-1369,-100
,1047,2023-10-27 10:45:20.75,239,-427,-2021,84,7,-128,-400,560,-960,-80
,1048,2023-10-27 10:45:20.76,240,-434,-1998,71,5,-109,-586,784,-1370,-99
,1049,2023-10-27 10:45:20.77,218,-451,-1975,57,-3,-80,-409,562,-971,-76
,1050,2023-10-27 10:45:20.78,241,-462,-1963,50,2,-54,-589,794,-1383,-102
,1051,2023-10-27 10:45:20.79,234,-443,-1988,62,-10,-26,-422,560,-982,-69
,1052,2023-10-27 10:45:20.80,244,-435,-1974,52,4,-1,-603,770,-1373,-83
,1053,2023-10-27 10:45:20.81,238,-421,-1983,36,7,23,-433,549,-982,-58
,1054,2023-10-27 10:45:20.82,229,-422,-1974,14,21,47,-609,768,-1377,-79
,1055,2023-10-27 10:45:20.83,237,-414,-1997,1,29,63,-443,567,-1010,-62
,1056,2023-10-27 10:45:20.84,228,-404,-2014,-7,25,84,-619,764,-1383,-72
,1057,2023-10-27 10:45:20.85,235,-400,-2027,-20,17,101,-442,568,-1010,-63
,1058,2023-10-27 10:45:20.86,224,-384,-2044,-39,7,114,-603,758,-1361,-77
,1059,2023-10-27 10:45:20.87,222,-376,-2061,-60,1,125,-431,550,-981,-59
,1060,2023-10-27 10:45:20.88,224,-366,-2071,-80,-11,135,-594,729,-1323,-67
,1061,2023-10-27 10:45:20.89,234,-354,-2078,-97,-25,142,-440,543,-983,-51
,1062,2023-10-27 10:45:20.90,210,-357,-2091,-113,-30,146,-618,752,-1370,-67
,1063,2023-10-27 10:45:20.91,218,-340,-2087,-128,-42,149,-466,575,-1041,-54
,1064,2023-10-27 10:45:20.92,233,-343,-2064,-150,-40,150,-622,760,-1382,-69
,1065,2023-10-27 10:45:20.93,209,-331,-2068,-164,-33,143,-466,575,-1041,-54
,1066,2023-10-27 10:45:20.94,232,-333,-2072,-169,-29,134,-615,755,-1370,-70
,1067,2023-10-27 10:45:20.95,229,-331,-2081,-174,-18,122,-466,574,-1040,-54
,1068,2023-10-27 10:45:20.96,221,-312,-2075,-171,-11,108,-608,754,-1362,-73
,1069,2023-10-27 10:45:20.97,224,-299,-2056,-164,-8,95,-464,576,-1040,-56
,1070,2023-10-27 10:45:20.98,241,-276,-2049,-174,4,77,-604,745,-1349,-70
,1071,2023-10-27 10:45:20.99,238,-271,-2055,-173,10,63,-470,575,-1045,-52
,1072,2023-10-27 10:45:21.00,231,-261,-2042,-177,13,44,-602,741,-1343,-69
,1073,2023-10-27 10:45:21.01,220,-272,-2031,-180,3,36,-472,580,-1052,-54
,1074,2023-10-27 10:45:21.02,224,-251,-2031,-180,6,23,-600,737,-1337,-68
,1075,2023-10-27 10:45:21.03,236,-253,-2041,-184,6,14,-478,581,-1059,-51
,1076,2023-10-27 10:45:21.04,220,-240,-2035,-185,-2,8,-595,732,-1327,-68
,1077,2023-10-27 10:45:21.05,218,-230,-2037,-182,-13,0,-481,585,-1066,-52
,1078,2023-10-27 10:45:21.06,228,-227,-2038,-180,-18,-5,-595,731,-1326,-68
,1079,2023-10-27 10:45:21.07,224,-219,-2004,-170,-21,-12,-488,592,-1080,-52
,1080,2023-10-27 10:45:21.08,227,-242,-1996,-156,-28,-13,-588,728,-1316,-70
,1081,2023-10-27 10:45:21.09,236,-232,-1988,-140,-25,-18,-483,594,-1077,-55
,1082,2023-10-27 10:45:21.10,238,-235,-2009,-117,-16,-23,-582,723,-1305,-70
,1083,2023-10-27 10:45:21.11,231,-238,-1998,-89,-23,-24,-486,600,-1086,-57
,1084,2023-10-27 10:45:21.12,233,-244,-1976,-65,-18,-21,-583,719,-1302,-68
,1085,2023-10-27 10:45:21.13,239,-244,-1982,-46,-9,-22,-493,600,-1093,-53
,1086,2023-10-27 10:45:21.14,234,-248,-1999,-25,7,-21,-582,709,-1291,-63
,1087,2023-10-27 10:45:21.15,218,-256,-2005,4,7,-16,-496,604,-1100,-54
,1088,2023-10-27 10:45:21.16,219,-263,-2013,22,15,-8,-573,696,-1269,-61
,1089,2023-10-27 10:45:21.17,226,-261,-2025,33,24,0,-496,602,-1098,-53
,1090,2023-10-27 10:45:21.18,213,-257,-2037,48,23,8,-576,694,-1270,-59
,1091,2023-10-27 10:45:21.19,231,-266,-2040,49,25,15,-505,621,-1126,-58
,1092,2023-10-27 10:45:21.20,233,-261,-2053,41,42,22,-581,691,-1272,-55
,1093,2023-10-27 10:45:21.21,233,-263,-2070,36,50,28,-514,614,-1128,-50
,1094,2023-10-27 10:45:21.22,233,-266,-2069,31,61,33,-579,678,-1257,-49
,1095,2023-10-27 10:45:21.23,245,-262,-2065,24,73,39,-524,620,-1144,-48
,1096,2023-10-27 10:45:21.24,266,-259,-2062,20,76,43,-578,683,-1261,-52
,1097,2023-10-27 10:45:21.25,255,-269,-2041,12,102,39,-530,621,-1151,-45
,1098,2023-10-27 10:45:21.26,258,-275,-2049,7,125,40,-570,686,-1256,-58
,1099,2023-10-27 10:45:21.27,254,-281,-2055,14,137,45,-525,637,-1162,-56
,1100,2023-10-27 10:45:21.28,275,-276,-2058,17,144,43,-566,681,-1247,-57
,1101,2023-10-27 10:45:21.29,271,-280,-2042,26,149,38,-534,642,-1176,-54
,1102,2023-10-27 10:45:21.30,266,-285,-2043,37,144,39,-572,680,-1252,-54
,1103,2023-10-27 10:45:21.31,272,-290,-2063,51,132,37,-543,646,-1189,-51
,1104,2023-10-27 10:45:21.32,271,-256,-2076,54,124,35,-565,671,-1236,-53
,1105,2023-10-27 10:45:21.33,284,-241,-2056,58,104,27,-541,641,-1182,-50
,1106,2023-10-27 10:45:21.34,274,-257,-2040,46,96,22,-560,664,-1224,-52
,1107,2023-10-27 10:45:21.35,279,-257,-2030,38,88,15,-547,649,-1196,-51
,1108,2023-10-27 10:45:21.36,279,-273,-2010,38,86,7,-556,666,-1222,-55
,1109,2023-10-27 10:45:21.37,279,-283,-2020,41,76,4,-550,656,-1206,-53
,1110,2023-10-27 10:45:21.38,303,-266,-2022,40,71,-3,-556,663,-1219,-53
,1111,2023-10-27 10:45:21.39,294,-282,-1997,37,78,-4,-562,656,-1218,-47
,1112,2023-10-27 10:45:21.40,303,-295,-2000,33,89,-6,-554,651,-1205,-48
,1113,2023-10-27 10:45:21.41,298,-290,-2012,33,95,-6,-565,656,-1221,-45
,1114,2023-10-27 10:45:21.42,305,-287,-2010,31,97,-3,-549,649,-1198,-50
,1115,2023-10-27 10:45:21.43,296,-294,-2008,30,104,1,-566,665,-1231,-49
,1116,2023-10-27 10:45:21.44,311,-316,-2015,31,100,8,-542,649,-1191,-53
,1117,2023-10-27 10:45:21.45,313,-315,-2030,30,105,19,-565,674,-1239,-54
,1118,2023-10-27 10:45:21.46,313,-320,-2035,33,108,30,-542,651,-1193,-54
,1119,2023-10-27 10:45:21.47,317,-314,-2036,38,108,39,-576,683,-1259,-53
,1120,2023-10-27 10:45:21.48,332,-304,-2031,40,109,49,-540,644,-1184,-52
,1121,2023-10-27 10:45:21.49,329,-306,-2038,29,119,55,-579,683,-1262,-52
,1122,2023-10-27 10:45:21.50,336,-318,-2053,25,126,66,-535,633,-1168,-49
,1123,2023-10-27 10:45:21.51,319,-311,-2053,28,120,75,-579,680,-1259,-50
,1124,2023-10-27 10:45:21.52,329,-317,-2057,23,119,88,-534,621,-1155,-43
,1125,2023-10-27 10:45:21.53,314,-344,-2054,29,103,102,-587,687,-1274,-50
,1126,2023-10-27 10:45:21.54,338,-333,-2052,46,87,115,-528,621,-1149,-46
,1127,2023-10-27 10:45:21.55,328,-312,-2051,57,78,122,-584,698,-1282,-57
,1128,2023-10-27 10:45:21.56,328,-297,-2040,51,70,123,-524,620,-1144,-48
,1129,2023-10-27 10:45:21.57,320,-299,-2027,46,64,119,-586,701,-1287,-57
,1130,2023-10-27 10:45:21.58,308,-295,-2042,42,55,111,-518,618,-1136,-50
,1131,2023-10-27 10:45:21.59,308,-302,-2036,38,52,104,-589,705,-1294,-58
,1132,2023-10-27 10:45:21.60,308,-299,-2040,29,45,94,-516,619,-1135,-51
,1133,2023-10-27 10:45:21.61,300,-297,-2034,13,46,87,-597,700,-1297,-51
,1134,2023-10-27 10:45:21.62,312,-295,-2032,19,31,79,-520,607,-1127,-43
,1135,2023-10-27 10:45:21.63,310,-307,-2031,2,36,64,-599,709,-1308,-55
,1136,2023-10-27 10:45:21.64,299,-305,-2033,-17,46,55,-514,606,-1120,-46
,1137,2023-10-27 10:45:21.65,306,-320,-2038,-30,35,47,-603,710,-1313,-53
,1138,2023-10-27 10:45:21.66,302,-311,-2022,-38,33,41,-510,593,-1103,-41
,1139,2023-10-27 10:45:21.67,321,-318,-1993,-41,38,35,-601,714,-1315,-56
,1140,2023-10-27 10:45:21.68,326,-305,-1991,-36,42,29,-500,599,-1099,-49
,1141,2023-10-27 10:45:21.69,339,-321,-1998,-42,56,30,-603,717,-1320,-57
,1142,2023-10-27 10:45:21.70,330,-328,-1997,-33,62,24,-501,592,-1093,-45
,1143,2023-10-27 10:45:21.71,346,-303,-1984,-26,72,20,-609,713,-1322,-52
,1144,2023-10-27 10:45:21.72,350,-289,-2002,-24,86,14,-501,586,-1087,-42
,1145,2023-10-27 10:45:21.73,346,-295,-2013,-27,108,6,-615,722,-1337,-53
,1146,2023-10-27 10:45:21.74,364,-298,-2015,-30,121,0,-497,588,-1085,-45
,1147,2023-10-27 10:45:21.75,367,-301,-2040,-25,129,-6,-617,730,-1347,-56
,1148,2023-10-27 10:45:21.76,368,-304,-2070,-27,124,0,-495,587,-1082,-46
,1149,2023-10-27 10:45:21.77,363,-301,-2063,-23,109,3,-621,734,-1355,-56
,1150,2023-10-27 10:45:21.78,364,-300,-2041,-20,101,8,-490,585,-1075,-47
,1151,2023-10-27 10:45:21.79,372,-297,-2042,-18,91,12,-622,737,-1359,-57
,1152,2023-10-27 10:45:21.80,375,-299,-2023,-16,87,15,-490,578,-1068,-44
,1153,2023-10-27 10:45:21.81,372,-307,-2034,-7,74,21,-624,743,-1367,-59
,1154,2023-10-27 10:45:21.82,382,-296,-2011,5,65,24,-486,575,-1061,-44
,1155,2023-10-27 10:45:21.83,373,-300,-1997,14,65,24,-625,741,-1366,-58
,1156,2023-10-27 10:45:21.84,368,-295,-2008,15,68,28,-488,575,-1063,-43
,1157,2023-10-27 10:45:21.85,368,-303,-2006,18,62,29,-632,753,-1385,-60
,1158,2023-10-27 10:45:21.86,365,-298,-2009,20,59,32,-483,574,-1057,-45
,1159,2023-10-27 10:45:21.87,368,-310,-2010,24,55,36,-627,753,-1380,-63
,1160,2023-10-27 10:45:21.88,354,-321,-2009,25,53,40,-474,565,-1039,-45
,1161,2023-10-27 10:45:21.89,359,-313,-2003,28,42,47,-626,751,-1377,-62
,1162,2023-10-27 10:45:21.90,360,-320,-2003,33,35,53,-474,562,-1036,-44
,1163,2023-10-27 10:45:21.91,364,-315,-2011,32,22,59,-625,758,-1383,-66
,1164,2023-10-27 10:45:21.92,368,-312,-2031,27,19,59,-465,567,-1032,-51
,1165,2023-10-27 10:45:21.93,364,-296,-2028,23,12,58,-626,767,-1393,-70
,1166,2023-10-27 10:45:21.94,381,-288,-2005,21,11,53,-469,568,-1037,-49
,1167,2023-10-27 10:45:21.95,393,-276,-1984,14,18,43,-626,755,-1381,-64
,1168,2023-10-27 10:45:21.96,377,-263,-2004,1,33,33,-461,553,-1014,-46
,1169,2023-10-27 10:45:21.97,380,-272,-2014,-10,41,16,-626,760,-1386,-67
,1170,2023-10-27 10:45:21.98,388,-277,-2041,-11,41,5,-460,556,-1016,-48
,1171,2023-10-27 10:45:21.99,380,-284,-2045,-21,44,-7,-627,759,-1386,-66
,1172,2023-10-27 10:45:22.00,378,-281,-2038,-23,41,-17,-455,550,-1005,-47
,1173,2023-10-27 10:45:22.01,382,-279,-2048,-29,44,-27,-627,770,-1397,-71
,1174,2023-10-27 10:45:22.02,388,-277,-2044,-34,44,-31,-460,554,-1014,-47
,1175,2023-10-27 10:45:22.03,394,-283,-2030,-35,41,-32,-635,758,-1393,-61
,1176,2023-10-27 10:45:22.04,402,-274,-2014,-33,43,-30,-454,543,-997,-44
,1177,2023-10-27 10:45:22.05,400,-275,-2031,-28,48,-29,-634,759,-1393,-62
,1178,2023-10-27 10:45:22.06,400,-270,-2031,-25,46,-24,-451,544,-995,-46
,1179,2023-10-27 10:45:22.07,399,-269,-2029,-24,51,-18,-634,756,-1390,-61
,1180,2023-10-27 10:45:22.08,399,-286,-2005,-21,50,-11,-452,540,-992,-44
,1181,2023-10-27 10:45:22.09,392,-286,-2022,-14,55,0,-639,756,-1395,-58
,1182,2023-10-27 10:45:22.10,388,-297,-2006,-5,52,14,-451,540,-991,-44
,1183,2023-10-27 10:45:22.11,393,-291,-2001,5,51,25,-636,765,-1401,-64
,1184,2023-10-27 10:45:22.12,398,-288,-1995,12,54,36,-445,537,-982,-46
,1185,2023-10-27 10:45:22.13,399,-282,-2008,16,60,42,-639,764,-1403,-62
,1186,2023-10-27 10:45:22.14,401,-278,-2010,17,69,43,-454,536,-990,-41
,1187,2023-10-27 10:45:22.15,397,-275,-2000,22,61,45,-643,766,-1409,-61
,1188,2023-10-27 10:45:22.16,408,-280,-1994,21,58,46,-450,537,-987,-43
,1189,2023-10-27 10:45:22.17,422,-263,-2021,18,64,42,-641,773,-1414,-66
,1190,2023-10-27 10:45:22.18,423,-260,-2014,11,69,35,-449,542,-991,-46
,1191,2023-10-27 10:45:22.19,417,-254,-2005,9,74,31,-642,782,-1424,-70
,1192,2023-10-27 10:45:22.20,418,-262,-2025,8,77,24,-455,546,-1001,-45
,1193,2023-10-27 10:45:22.21,408,-262,-2034,13,71,22,-646,780,-1426,-67
,1194,2023-10-27 10:45:22.22,420,-279,-2032,13,65,20,-458,550,-1008,-46
,1195,2023-10-27 10:45:22.23,404,-294,-2051,14,68,21,-641,782,-1423,-70
,1196,2023-10-27 10:45:22.24,411,-283,-2044,24,56,17,-438,541,-979,-51
,1197,2023-10-27 10:45:22.25,414,-281,-2022,32,37,13,-633,778,-1411,-72
,1198,2023-10-27 10:45:22.26,429,-258,-2012,36,45,12,-449,543,-992,-47
,1199,2023-10-27 10:45:22.27,447,-266,-2007,36,44,3,-644,776,-1420,-66
,1200,2023-10-27 10:45:22.28,427,-269,-2024,40,38,-5,-452,536,-988,-42
,1201,2023-10-27 10:45:22.29,429,-261,-2032,38,32,-15,-640,773,-1413,-66
,1202,2023-10-27 10:45:22.30,425,-255,-2049,25,34,-25,-447,538,-985,-45
,1203,2023-10-27 10:45:22.31,417,-262,-2041,21,24,-31,-640,773,-1413,-66
,1204,2023-10-27 10:45:22.32,427,-268,-2035,20,6,-39,-450,536,-986,-43
,1205,2023-10-27 10:45:22.33,406,-263,-2030,11,0,-42,-639,764,-1403,-62
,1206,2023-10-27 10:45:22.34,426,-265,-2030,11,-8,-49,-451,529,-980,-39
,1207,2023-10-27 10:45:22.35,410,-276,-2017,14,-17,-56,-642,771,-1413,-64
,1208,2023-10-27 10:45:22.36,418,-281,-2011,16,-19,-57,-452,544,-996,-46
,1209,2023-10-27 10:45:22.37,421,-280,-2018,19,-23,-61,-643,776,-1419,-66
,1210,2023-10-27 10:45:22.38,420,-275,-2012,22,-25,-58,-453,538,-991,-42
,1211,2023-10-27 10:45:22.39,414,-285,-2011,21,-21,-55,-641,761,-1402,-60
,1212,2023-10-27 10:45:22.40,413,-287,-2027,26,-23,-53,-458,542,-1000,-42
,1213,2023-10-27 10:45:22.41,413,-284,-2038,26,-24,-44,-644,775,-1419,-65
,1214,2023-10-27 10:45:22.42,407,-275,-2029,24,-33,-41,-448,560,-1008,-56
,1215,2023-10-27 10:45:22.43,426,-275,-2018,24,-37,-39,-639,771,-1410,-66
,1216,2023-10-27 10:45:22.44,411,-274,-2009,21,-36,-37,-454,547,-1001,-46
,1217,2023-10-27 10:45:22.45,400,-280,-2027,22,-32,-34,-639,758,-1397,-59
,1218,2023-10-27 10:45:22.46,415,-289,-2041,27,-33,-29,-456,542,-998,-43
,1219,2023-10-27 10:45:22.47,393,-301,-1997,31,-40,-26,-636,749,-1385,-56
,1220,2023-10-27 10:45:22.48,410,-293,-2017,49,-36,-14,-455,533,-988,-39
,1221,2023-10-27 10:45:22.49,403,-295,-2015,44,-29,-9,-633,736,-1369,-51
,1222,2023-10-27 10:45:22.50,424,-279,-2014,45,-12,1,-458,525,-983,-33
,1223,2023-10-27 10:45:22.51,398,-289,-2020,51,-13,0,-646,747,-1393,-50
,1224,2023-10-27 10:45:22.52,418,-297,-2021,52,-6,6,-472,549,-1021,-38
,1225,2023-10-27 10:45:22.53,401,-294,-2037,58,0,14,-647,763,-1410,-58
,1226,2023-10-27 10:45:22.54,405,-307,-2032,64,-10,20,-468,556,-1024,-44
,1227,2023-10-27 10:45:22.55,418,-300,-2022,67,-10,22,-637,761,-1398,-62
,1228,2023-10-27 10:45:22.56,417,-312,-2015,71,-10,25,-463,553,-1016,-45
,1229,2023-10-27 10:45:22.57,405,-314,-2023,74,-6,25,-633,752,-1385,-59
,1230,2023-10-27 10:45:22.58,419,-318,-2006,80,-3,21,-466,549,-1015,-41
,1231,2023-10-27 10:45:22.59,412,-327,-1991,91,3,23,-630,751,-1381,-60
,1232,2023-10-27 10:45:22.60,419,-327,-1987,91,15,17,-467,553,-1020,-43
,1233,2023-10-27 10:45:22.61,428,-338,-1999,93,35,12,-630,754,-1384,-62
,1234,2023-10-27 10:45:22.62,419,-339,-2012,99,45,8,-472,560,-1032,-44
,1235,2023-10-27 10:45:22.63,415,-345,-2009,106,44,7,-629,752,-1381,-61
,1236,2023-10-27 10:45:22.64,413,-356,-1995,102,48,7,-474,562,-1036,-44
,1237,2023-10-27 10:45:22.65,411,-342,-1997,103,53,10,-624,751,-1375,-63
,1238,2023-10-27 10:45:22.66,426,-357,-1980,105,47,12,-475,568,-1043,-46
,1239,2023-10-27 10:45:22.67,424,-363,-1971,109,46,21,-618,746,-1364,-64
,1240,2023-10-27 10:45:22.68,419,-356,-1973,114,45,22,-474,565,-1039,-45
,1241,2023-10-27 10:45:22.69,415,-358,-1977,111,50,24,-617,742,-1359,-62
,1242,2023-10-27 10:45:22.70,397,-353,-1977,104,49,23,-478,569,-1047,-45
,1243,2023-10-27 10:45:22.71,405,-345,-1970,102,46,21,-613,728,-1341,-57
,1244,2023-10-27 10:45:22.72,400,-356,-1974,101,37,20,-480,568,-1048,-44
,1245,2023-10-27 10:45:22.73,397,-368,-2006,97,36,20,-615,728,-1343,-56
,1246,2023-10-27 10:45:22.74,389,-370,-2030,98,18,21,-491,576,-1067,-42
,1247,2023-10-27 10:45:22.75,401,-375,-2019,94,3,21,-618,724,-1342,-53
,1248,2023-10-27 10:45:22.76,385,-361,-2024,83,-5,24,-496,577,-1073,-40
,1249,2023-10-27 10:45:22.77,403,-345,-1983,72,-11,20,-615,713,-1328,-49
,1250,2023-10-27 10:45:22.78,417,-350,-1957,58,7,14,-496,577,-1073,-40
,1251,2023-10-27 10:45:22.79,420,-351,-1945,51,23,5,-614,721,-1335,-53
,1252,2023-10-27 10:45:22.80,428,-344,-1946,37,40,2,-505,598,-1103,-46
,1253,2023-10-27 10:45:22.81,418,-351,-1973,25,66,-3,-617,729,-1346,-56
,1254,2023-10-27 10:45:22.82,417,-347,-1979,22,75,-5,-515,616,-1131,-50
,1255,2023-10-27 10:45:22.83,404,-347,-1985,21,77,-13,-648,789,-1437,-70
,1256,2023-10-27 10:45:22.84,417,-355,-2021,17,81,-19,-548,672,-1220,-62
,1257,2023-10-27 10:45:22.85,417,-349,-2052,20,74,-23,-624,772,-1396,-74
,1258,2023-10-27 10:45:22.86,423,-331,-2062,30,57,-31,-501,627,-1128,-63
,1259,2023-10-27 10:45:22.87,418,-331,-2052,33,47,-40,-583,721,-1304,-69
,1260,2023-10-27 10:45:22.88,428,-326,-2068,26,51,-50,-491,616,-1107,-62
,1261,2023-10-27 10:45:22.89,420,-333,-2066,19,39,-60,-585,708,-1293,-61
,1262,2023-10-27 10:45:22.90,417,-343,-2067,7,36,-61,-501,608,-1109,-53
,1263,2023-10-27 10:45:22.91,414,-349,-2056,-1,26,-57,-581,705,-1286,-62
,1264,2023-10-27 10:45:22.92,414,-346,-2042,-4,4,-51,-508,615,-1123,-53
,1265,2023-10-27 10:45:22.93,407,-337,-2036,-11,-4,-46,-578,703,-1281,-62
,1266,2023-10-27 10:45:22.94,405,-343,-2029,-20,-17,-41,-510,617,-1127,-53
,1267,2023-10-27 10:45:22.95,404,-318,-2025,-27,-25,-40,-576,702,-1278,-63
,1268,2023-10-27 10:45:22.96,405,-303,-2017,-40,-31,-38,-517,629,-1146,-56
,1269,2023-10-27 10:45:22.97,404,-304,-2009,-56,-36,-37,-571,696,-1267,-62
,1270,2023-10-27 10:45:22.98,395,-298,-2008,-77,-32,-36,-521,630,-1151,-54
,1271,2023-10-27 10:45:22.99,409,-290,-2008,-93,-37,-33,-573,701,-1274,-64
,1272,2023-10-27 10:45:23.00,402,-305,-1987,-105,-40,-28,-532,644,-1176,-56
,1273,2023-10-27 10:45:23.01,389,-304,-1985,-114,-41,-22,-575,703,-1278,-64
,1274,2023-10-27 10:45:23.02,399,-304,-1985,-117,-45,-13,-538,652,-1190,-57
,1275,2023-10-27 10:45:23.03,397,-300,-1991,-114,-46,-1,-576,699,-1275,-61
,1276,2023-10-27 10:45:23.04,393,-296,-1981,-115,-41,10,-545,657,-1202,-56
,1277,2023-10-27 10:45:23.05,403,-287,-1995,-118,-35,23,-574,691,-1265,-58
,1278,2023-10-27 10:45:23.06,391,-292,-1996,-118,-24,35,-543,661,-1204,-59
,1279,2023-10-27 10:45:23.07,403,-270,-2012,-113,-15,44,-561,685,-1246,-62
,1280,2023-10-27 10:45:23.08,406,-272,-2009,-108,-8,56,-541,664,-1205,-61
,1281,2023-10-27 10:45:23.09,413,-266,-2009,-99,-10,66,-565,686,-1251,-60
,1282,2023-10-27 10:45:23.10,415,-267,-2027,-90,-8,74,-555,677,-1232,-61
,1283,2023-10-27 10:45:23.11,402,-259,-2027,-78,-12,77,-563,684,-1247,-60
,1284,2023-10-27 10:45:23.12,407,-267,-2026,-67,-10,79,-554,679,-1233,-62
,1285,2023-10-27 10:45:23.13,419,-257,-2023,-58,-8,78,-557,683,-1240,-63
,1286,2023-10-27 10:45:23.14,416,-251,-2018,-39,-12,72,-557,690,-1247,-66
,1287,2023-10-27 10:45:23.15,412,-249,-2034,-24,-7,66,-552,690,-1242,-69
,1288,2023-10-27 10:45:23.16,418,-262,-2037,-12,-10,60,-558,701,-1259,-71
,1289,2023-10-27 10:45:23.17,411,-252,-2046,-11,4,49,-545,686,-1231,-70
,1290,2023-10-27 10:45:23.18,433,-253,-2060,-2,2,43,-558,697,-1255,-69
,1291,2023-10-27 10:45:23.19,420,-253,-2051,11,-2,34,-538,685,-1223,-73
,1292,2023-10-27 10:45:23.20,420,-235,-2028,14,-5,27,-562,712,-1274,-75
,1293,2023-10-27 10:45:23.21,433,-243,-2022,14,3,18,-532,688,-1220,-78
,1294,2023-10-27 10:45:23.22,408,-258,-2029,15,10,11,-563,710,-1273,-73
,1295,2023-10-27 10:45:23.23,423,-258,-2023,20,11,0,-529,674,-1203,-72
,1296,2023-10-27 10:45:23.24,412,-271,-2019,23,17,-3,-568,716,-1284,-74
,1297,2023-10-27 10:45:23.25,418,-272,-2015,32,18,-4,-526,670,-1196,-72
,1298,2023-10-27 10:45:23.26,423,-279,-2019,39,18,-3,-573,713,-1286,-70
,1299,2023-10-27 10:45:23.27,427,-286,-2009,48,16,-1,-523,670,-1193,-73
,1300,2023-10-27 10:45:23.28,418,-291,-2006,59,12,3,-578,716,-1294,-69
,1301,2023-10-27 10:45:23.29,428,-286,-2010,63,7,9,-519,653,-1172,-67
,1302,2023-10-27 10:45:23.30,420,-299,-2006,72,4,14,-578,705,-1283,-63
,1303,2023-10-27 10:45:23.31,424,-296,-1992,77,5,18,-509,651,-1160,-71
,1304,2023-10-27 10:45:23.32,418,-301,-1993,82,6,19,-577,723,-1300,-73
,1305,2023-10-27 10:45:23.33,425,-303,-1994,84,8,22,-509,646,-1155,-68
,1306,2023-10-27 10:45:23.34,409,-307,-1986,83,13,23,-586,727,-1313,-70
,1307,2023-10-27 10:45:23.35,415,-309,-1993,85,17,21,-509,645,-1154,-68
,1308,2023-10-27 10:45:23.36,420,-310,-1993,88,21,19,-587,730,-1317,-71
,1309,2023-10-27 10:45:23.37,419,-314,-2001,88,18,19,-504,636,-1140,-66
,1310,2023-10-27 10:45:23.38,420,-315,-2006,84,28,17,-589,730,-1319,-70
,1311,2023-10-27 10:45:23.39,415,-316,-2017,86,23,12,-505,628,-1133,-61
,1312,2023-10-27 10:45:23.40,425,-318,-2021,85,21,8,-592,736,-1328,-72
,1313,2023-10-27 10:45:23.41,410,-323,-2026,86,16,6,-501,623,-1124,-61
,1314,2023-10-27 10:45:23.42,416,-343,-2041,82,10,6,-596,733,-1329,-68
,1315,2023-10-27 10:45:23.43,419,-341,-2040,84,-4,9,-500,615,-1115,-57
,1316,2023-10-27 10:45:23.44,418,-339,-2033,79,-5,12,-599,736,-1335,-68
,1317,2023-10-27 10:45:23.45,408,-345,-2022,77,-10,17,-498,615,-1113,-58
,1318,2023-10-27 10:45:23.46,419,-344,-2011,69,-11,22,-602,739,-1341,-68
,1319,2023-10-27 10:45:23.47,417,-343,-2008,63,-10,27,-496,603,-1099,-53
,1320,2023-10-27 10:45:23.48,421,-338,-1990,56,-2,28,-606,732,-1338,-63
,1321,2023-10-27 10:45:23.49,410,-342,-2000,52,4,30,-493,597,-1090,-52
,1322,2023-10-27 10:45:23.50,397,-336,-1999,44,9,27,-610,733,-1343,-61
,1323,2023-10-27 10:45:23.51,416,-340,-2001,38,14,25,-496,597,-1093,-50
,1324,2023-10-27 10:45:23.52,400,-345,-2003,37,14,28,-618,736,-1354,-59
,1325,2023-10-27 10:45:23.53,399,-347,-2000,34,10,30,-491,590,-1081,-49
,1326,2023-10-27 10:45:23.54,419,-352,-1999,34,5,31,-617,739,-1356,-61
,1327,2023-10-27 10:45:23.55,406,-348,-2006,35,3,30,-490,600,-1090,-55
,1328,2023-10-27 10:45:23.56,417,-333,-2002,34,7,30,-623,755,-1378,-66
,1329,2023-10-27 10:45:23.57,424,-330,-1994,28,11,25,-490,602,-1092,-56
,1330,2023-10-27 10:45:23.58,417,-330,-1992,21,20,23,-628,758,-1386,-65
,1331,2023-10-27 10:45:23.59,424,-335,-2008,16,26,20,-486,597,-1083,-55
,1332,2023-10-27 10:45:23.60,400,-331,-2023,19,19,16,-628,761,-1389,-66
,1333,2023-10-27 10:45:23.61,427,-350,-2030,21,16,17,-488,586,-1074,-49
,1334,2023-10-27 10:45:23.62,418,-348,-2027,19,14,17,-630,767,-1397,-68
,1335,2023-10-27 10:45:23.63,416,-330,-2035,23,-1,17,-483,593,-1076,-55
,1336,2023-10-27 10:45:23.64,421,-330,-2024,21,-3,15,-632,777,-1409,-72
,1337,2023-10-27 10:45:23.65,416,-334,-2017,18,-10,17,-484,597,-1081,-56
,1338,2023-10-27 10:45:23.66,411,-344,-2017,15,-13,16,-631,779,-1410,-74
,1339,2023-10-27 10:45:23.67,413,-340,-2018,18,-18,19,-476,592,-1068,-58
,1340,2023-10-27 10:45:23.68,416,-347,-2010,20,-19,20,-626,785,-1411,-79
,1341,2023-10-27 10:45:23.69,411,-335,-2001,16,-21,20,-465,596,-1061,-65
,1342,2023-10-27 10:45:23.70,411,-338,-1994,16,-21,22,-622,786,-1408,-82
,1343,2023-10-27 10:45:23.71,400,-331,-2004,17,-18,25,-468,581,-1049,-56
,1344,2023-10-27 10:45:23.72,416,-342,-1998,25,-19,21,-632,784,-1416,-76
,1345,2023-10-27 10:45:23.73,403,-335,-2004,25,-14,22,-475,579,-1054,-52
,1346,2023-10-27 10:45:23.74,403,-336,-2003,22,-14,28,-642,782,-1424,-70
,1347,2023-10-27 10:45:23.75,407,-340,-2004,22,-10,27,-471,582,-1053,-55
,1348,2023-10-27 10:45:23.76,398,-341,-2009,25,-7,29,-635,781,-1416,-73
,1349,2023-10-27 10:45:23.77,411,-342,-2013,21,-5,34,-465,576,-1041,-55
,1350,2023-10-27 10:45:23.78,402,-343,-1992,16,-1,35,-641,782,-1423,-70
,1351,2023-10-27 10:45:23.79,401,-345,-1996,11,6,35,-467,577,-1044,-55
,1352,2023-10-27 10:45:23.80,402,-341,-2009,7,13,35,-644,786,-1430,-71
,1353,2023-10-27 10:45:23.81,404,-344,-2010,10,9,35,-469,575,-1044,-53
,1354,2023-10-27 10:45:23.82,403,-340,-2012,10,11,30,-648,782,-1430,-67
,1355,2023-10-27 10:45:23.83,412,-331,-2013,7,9,27,-463,571,-1034,-54
,1356,2023-10-27 10:45:23.84,427,-325,-2009,5,13,20,-644,783,-1427,-69
,1357,2023-10-27 10:45:23.85,415,-334,-2012,7,12,16,-460,565,-1025,-52
,1358,2023-10-27 10:45:23.86,410,-336,-2017,11,10,13,-646,782,-1428,-68
,1359,2023-10-27 10:45:23.87,413,-333,-2011,13,5,8,-466,564,-1030,-49
,1360,2023-10-27 10:45:23.88,419,-333,-2003,23,-1,6,-649,782,-1431,-66
,1361,2023-10-27 10:45:23.89,415,-334,-1998,20,3,4,-457,555,-1012,-49
,1362,2023-10-27 10:45:23.90,411,-346,-2006,17,6,5,-644,781,-1425,-68
,1363,2023-10-27 10:45:23.91,404,-337,-1999,16,7,7,-456,552,-1008,-48
,1364,2023-10-27 10:45:23.92,411,-343,-2003,14,1,13,-642,784,-1426,-71
,1365,2023-10-27 10:45:23.93,419,-339,-2006,8,10,13,-454,552,-1006,-49
,1366,2023-10-27 10:45:23.94,420,-344,-2010,7,11,18,-642,787,-1429,-72
,1367,2023-10-27 10:45:23.95,422,-344,-2005,0,13,21,-456,554,-1010,-49
,1368,2023-10-27 10:45:23.96,409,-334,-2007,2,12,22,-646,793,-1439,-73
,1369,2023-10-27 10:45:23.97,426,-339,-2007,-1,12,25,-458,560,-1018,-51
,1370,2023-10-27 10:45:23.98,419,-342,-2018,0,15,23,-647,789,-1436,-71
,1371,2023-10-27 10:45:23.99,420,-332,-2017,7,9,25,-459,549,-1008,-45
,1372,2023-10-27 10:45:24.00,412,-342,-2009,11,5,24,-651,786,-1437,-67
,1373,2023-10-27 10:45:24.01,423,-338,-2011,15,2,27,-464,555,-1019,-45
,1374,2023-10-27 10:45:24.02,415,-329,-2018,17,-4,23,-651,785,-1436,-67
,1375,2023-10-27 10:45:24.03,426,-337,-2021,20,-6,28,-458,556,-1014,-49
,1376,2023-10-27 10:45:24.04,424,-339,-2012,19,-13,29,-648,783,-1431,-67
,1377,2023-10-27 10:45:24.05,417,-346,-2009,20,-15,30,-458,553,-1011,-47
,1378,2023-10-27 10:45:24.06,415,-337,-2005,20,-19,34,-656,779,-1435,-61
,1379,2023-10-27 10:45:24.07,415,-347,-2007,17,-17,35,-460,558,-1018,-49
,1380,2023-10-27 10:45:24.08,432,-342,-2002,17,-18,36,-652,789,-1441,-68
,1381,2023-10-27 10:45:24.09,413,-341,-2000,19,-16,35,-455,564,-1019,-54
,1382,2023-10-27 10:45:24.10,413,-341,-2010,21,-17,32,-653,788,-1441,-67
,1383,2023-10-27 10:45:24.11,409,-346,-2006,26,-18,32,-463,559,-1022,-48
,1384,2023-10-27 10:45:24.12,405,-348,-2010,32,-19,32,-653,786,-1439,-66
,1385,2023-10-27 10:45:24.13,416,-348,-2005,32,-20,30,-458,557,-1015,-49
,1386,2023-10-27 10:45:24.14,411,-353,-2008,32,-17,31,-647,792,-1439,-72
,1387,2023-10-27 10:45:24.15,398,-347,-2004,32,-13,31,-459,563,-1022,-52
,1388,2023-10-27 10:45:24.16,409,-345,-2001,27,-17,29,-649,794,-1443,-72
,1389,2023-10-27 10:45:24.17,399,-341,-2017,25,-19,28,-465,564,-1029,-49
,1390,2023-10-27 10:45:24.18,396,-353,-2011,26,-26,27,-651,796,-1447,-72
,1391,2023-10-27 10:45:24.19,386,-341,-2006,20,-27,26,-469,564,-1033,-47
,1392,2023-10-27 10:45:24.20,400,-338,-2003,13,-28,23,-651,794,-1445,-71
,1393,2023-10-27 10:45:24.21,393,-348,-2015,10,-27,22,-470,567,-1037,-48
,1394,2023-10-27 10:45:24.22,391,-354,-2005,5,-26,21,-648,794,-1442,-73
,1395,2023-10-27 10:45:24.23,385,-350,-2017,2,-22,23,-469,566,-1035,-48
,1396,2023-10-27 10:45:24.24,388,-347,-2001,-1,-19,23,-645,790,-1435,-72
,1397,2023-10-27 10:45:24.25,387,-359,-1998,2,-13,17,-470,571,-1041,-50
,1398,2023-10-27 10:45:24.26,366,-333,-1989,-11,3,19,-646,792,-1438,-73
,1399,2023-10-27 10:45:24.27,392,-362,-1995,1,-31,21,-472,572,-1044,-50
,1400,2023-10-27 10:45:24.28,405,-352,-2004,-2,5,30,-647,789,-1436,-71
,1401,2023-10-27 10:45:24.29,389,-340,-2004,1,-8,31,-473,578,-1051,-52
,1402,2023-10-27 10:45:24.30,424,-334,-2018,3,-10,36,-647,787,-1434,-70
,1403,2023-10-27 10:45:24.31,426,-324,-2026,-5,-9,40,-476,578,-1054,-51
,1404,2023-10-27 10:45:24.32,410,-340,-2034,-13,-16,48,-649,786,-1435,-68
,1405,2023-10-27 10:45:24.33,399,-352,-2073,-21,-27,63,-484,588,-1072,-52
,1406,2023-10-27 10:45:24.34,398,-369,-2087,-15,-57,83,-647,786,-1433,-69
,1407,2023-10-27 10:45:24.35,391,-378,-2117,-7,-72,103,-477,578,-1055,-50
,1408,2023-10-27 10:45:24.36,396,-388,-2074,7,-85,127,-638,762,-1400,-62
,1409,2023-10-27 10:45:24.37,375,-389,-2039,20,-99,142,-479,570,-1049,-45
,1410,2023-10-27 10:45:24.38,388,-379,-2012,30,-103,148,-640,767,-1407,-63
,1411,2023-10-27 10:45:24.39,399,-341,-2002,33,-76,149,-485,576,-1061,-45
,1412,2023-10-27 10:45:24.40,393,-335,-1995,29,-73,143,-640,760,-1400,-60
,1413,2023-10-27 10:45:24.41,394,-348,-2016,31,-61,141,-486,574,-1060,-44
,1414,2023-10-27 10:45:24.42,386,-316,-1974,27,-43,133,-634,757,-1391,-61
,1415,2023-10-27 10:45:24.43,409,-356,-1931,6,-19,127,-488,581,-1069,-46
,1416,2023-10-27 10:45:24.44,430,-365,-1934,11,-5,125,-626,755,-1381,-64
,1417,2023-10-27 10:45:24.45,411,-378,-1971,16,39,116,-489,576,-1065,-43
,1418,2023-10-27 10:45:24.46,418,-379,-2026,31,53,106,-634,762,-1396,-64
,1419,2023-10-27 10:45:24.47,410,-371,-2049,42,51,100,-507,589,-1096,-41
,1420,2023-10-27 10:45:24.48,432,-360,-1983,44,48,95,-620,759,-1379,-69
,1421,2023-10-27 10:45:24.49,442,-384,-1941,38,67,92,-484,589,-1073,-52
,1422,2023-10-27 10:45:24.50,443,-384,-1960,42,97,88,-598,740,-1338,-71
,1423,2023-10-27 10:45:24.51,462,-404,-2024,49,111,86,-485,570,-1055,-42
,1424,2023-10-27 10:45:24.52,451,-425,-2078,66,106,94,-606,721,-1327,-57
,1425,2023-10-27 10:45:24.53,443,-429,-2090,79,91,106,-498,569,-1067,-35
,1426,2023-10-27 10:45:24.54,424,-431,-2073,75,95,117,-610,725,-1335,-57
,1427,2023-10-27 10:45:24.55,450,-428,-2007,76,82,137,-504,585,-1089,-40
,1428,2023-10-27 10:45:24.56,460,-429,-1939,83,77,159,-603,720,-1323,-58
,1429,2023-10-27 10:45:24.57,465,-405,-1881,89,82,171,-501,580,-1081,-39
,1430,2023-10-27 10:45:24.58,469,-396,-1882,69,127,181,-601,707,-1308,-53
,1431,2023-10-27 10:45:24.59,454,-394,-1904,50,161,192,-510,580,-1090,-35
,1432,2023-10-27 10:45:24.60,434,-385,-1954,59,161,200,-592,692,-1284,-50
,1433,2023-10-27 10:45:24.61,425,-401,-2046,56,153,218,-501,574,-1075,-36
,1434,2023-10-27 10:45:24.62,408,-394,-2074,50,103,233,-585,683,-1268,-49
,1435,2023-10-27 10:45:24.63,416,-385,-2028,26,63,261,-504,576,-1080,-36
,1436,2023-10-27 10:45:24.64,413,-381,-1968,-17,62,291,-578,673,-1251,-47
,1437,2023-10-27 10:45:24.65,445,-379,-1922,-40,60,317,-500,570,-1070,-35
,1438,2023-10-27 10:45:24.66,462,-369,-1871,-57,62,338,-571,667,-1238,-48
,1439,2023-10-27 10:45:24.67,466,-367,-1848,-92,102,353,-498,579,-1077,-40
,1440,2023-10-27 10:45:24.68,454,-369,-1884,-84,104,373,-567,673,-1240,-53
,1441,2023-10-27 10:45:24.69,449,-342,-1912,-75,85,395,-505,586,-1091,-40
,1442,2023-10-27 10:45:24.70,447,-345,-1936,-88,78,410,-576,675,-1251,-49
,1443,2023-10-27 10:45:24.71,436,-351,-2005,-105,84,424,-521,604,-1125,-41
,1444,2023-10-27 10:45:24.72,423,-334,-2032,-108,41,436,-581,684,-1265,-51
,1445,2023-10-27 10:45:24.73,433,-315,-2065,-132,27,447,-527,616,-1143,-44
,1446,2023-10-27 10:45:24.74,423,-317,-2101,-156,1,455,-577,681,-1258,-52
,1447,2023-10-27 10:45:24.75,393,-305,-2134,-186,-6,453,-529,626,-1155,-48
,1448,2023-10-27 10:45:24.76,399,-285,-2106,-199,-39,448,-576,683,-1259,-53
,1449,2023-10-27 10:45:24.77,385,-277,-2087,-209,-63,433,-541,632,-1173,-45
,1450,2023-10-27 10:45:24.78,351,-287,-2082,-212,-78,416,-578,681,-1259,-51
,1451,2023-10-27 10:45:24.79,345,-303,-2065,-212,-91,398,-542,637,-1179,-47
,1452,2023-10-27 10:45:24.80,309,-336,-2058,-190,-103,377,-575,680,-1255,-52
,1453,2023-10-27 10:45:24.81,287,-342,-2072,-147,-131,366,-547,640,-1187,-46
,1454,2023-10-27 10:45:24.82,277,-336,-2083,-132,-135,349,-564,660,-1224,-48
,1455,2023-10-27 10:45:24.83,297,-406,-2079,-100,-145,341,-538,631,-1169,-46
,1456,2023-10-27 10:45:24.84,245,-289,-2063,-66,-163,334,-554,654,-1208,-50
,1457,2023-10-27 10:45:24.85,237,-290,-2059,-65,-202,317,-538,639,-1177,-50
,1458,2023-10-27 10:45:24.86,273,-285,-2067,-98,-143,282,-547,646,-1193,-49
,1459,2023-10-27 10:45:24.87,230,-290,-2026,-117,-137,247,-560,661,-1221,-50
,1460,2023-10-27 10:45:24.88,243,-288,-2035,-111,-126,212,-585,704,-1289,-59
,1461,2023-10-27 10:45:24.89,228,-217,-2041,-112,-131,171,-565,700,-1265,-67
,1462,2023-10-27 10:45:24.90,241,-235,-2027,-122,-149,123,-540,680,-1220,-70
,1463,2023-10-27 10:45:24.91,236,-211,-2037,-156,-116,70,-538,664,-1202,-63
,1464,2023-10-27 10:45:24.92,277,-219,-2033,-193,-97,22,-522,639,-1161,-58
,1465,2023-10-27 10:45:24.93,252,-230,-2009,-227,-78,-19,-545,637,-1182,-46
,1466,2023-10-27 10:45:24.94,255,-252,-1980,-236,-79,-64,-527,617,-1144,-45
,1467,2023-10-27 10:45:24.95,275,-272,-2017,-218,-59,-87,-558,649,-1207,-45
,1468,2023-10-27 10:45:24.96,291,-298,-2004,-195,-89,-109,-529,620,-1149,-45
,1469,2023-10-27 10:45:24.97,309,-294,-2004,-149,-89,-125,-564,647,-1211,-41
,1470,2023-10-27 10:45:24.98,301,-300,-1981,-108,-87,-135,-527,607,-1134,-40
,1471,2023-10-27 10:45:24.99,315,-313,-1972,-71,-92,-141,-572,647,-1219,-37
,1472,2023-10-27 10:45:25.00,304,-301,-2022,-45,-76,-139,-531,604,-1135,-36
,1473,2023-10-27 10:45:25.01,307,-304,-2017,-28,-68,-131,-581,646,-1227,-32
,1474,2023-10-27 10:45:25.02,310,-314,-2019,-28,-51,-114,-528,590,-1118,-31
,1475,2023-10-27 10:45:25.03,300,-358,-1997,-13,-30,-97,-586,644,-1230,-29
,1476,2023-10-27 10:45:25.04,314,-364,-2009,29,-36,-70,-531,584,-1115,-26
,1477,2023-10-27 10:45:25.05,325,-342,-2016,62,-53,-39,-594,647,-1241,-26
,1478,2023-10-27 10:45:25.06,309,-323,-2010,79,-56,-17,-536,578,-1114,-21
,1479,2023-10-27 10:45:25.07,323,-315,-1997,85,-49,8,-604,653,-1257,-24
,1480,2023-10-27 10:45:25.08,326,-322,-1990,90,-47,28,-535,571,-1106,-18
,1481,2023-10-27 10:45:25.09,319,-314,-2018,100,-40,49,-604,660,-1264,-28
,1482,2023-10-27 10:45:25.10,302,-317,-2025,104,-29,63,-525,572,-1097,-23
,1483,2023-10-27 10:45:25.11,307,-317,-2044,106,-31,75,-603,671,-1274,-34
,1484,2023-10-27 10:45:25.12,288,-323,-2038,112,-27,87,-522,571,-1093,-24
,1485,2023-10-27 10:45:25.13,292,-319,-2012,112,-31,92,-604,674,-1278,-35
,1486,2023-10-27 10:45:25.14,306,-328,-2021,105,-17,93,-520,574,-1094,-27
,1487,2023-10-27 10:45:25.15,298,-326,-2020,110,1,89,-609,687,-1296,-39
,1488,2023-10-27 10:45:25.16,286,-312,-2007,102,9,82,-518,570,-1088,-26
,1489,2023-10-27 10:45:25.17,296,-317,-2007,102,11,71,-614,685,-1299,-35
,1490,2023-10-27 10:45:25.18,310,-296,-2014,87,39,58,-518,567,-1085,-24
,1491,2023-10-27 10:45:25.19,296,-293,-2005,79,48,39,-619,690,-1309,-35
,1492,2023-10-27 10:45:25.20,294,-290,-2016,79,62,14,-516,561,-1077,-22
,1493,2023-10-27 10:45:25.21,296,-284,-2021,66,73,-13,-622,681,-1303,-29
,1494,2023-10-27 10:45:25.22,311,-281,-2017,51,77,-42,-514,544,-1058,-15
,1495,2023-10-27 10:45:25.23,316,-287,-2025,43,85,-68,-626,682,-1308,-28
,1496,2023-10-27 10:45:25.24,320,-295,-2038,44,78,-94,-510,541,-1051,-15
,1497,2023-10-27 10:45:25.25,315,-290,-2026,44,67,-112,-624,678,-1302,-27
,1498,2023-10-27 10:45:25.26,317,-305,-2034,48,53,-128,-489,533,-1022,-22
,1499,2023-10-27 10:45:25.27,330,-306,-2020,38,46,-136,-617,680,-1297,-31
,1500,2023-10-27 10:45:25.28,347,-303,-2023,34,44,-141,-484,541,-1025,-28
,1501,2023-10-27 10:45:25.29,328,-297,-2032,28,36,-139,-624,686,-1310,-31
,1502,2023-10-27 10:45:25.30,325,-315,-2012,14,27,-132,-481,551,-1032,-35
,1503,2023-10-27 10:45:25.31,355,-311,-2038,1,29,-117,-621,710,-1331,-44
,1504,2023-10-27 10:45:25.32,349,-298,-2034,-12,24,-104,-480,553,-1033,-36
,1505,2023-10-27 10:45:25.33,342,-314,-2024,-12,14,-91,-623,718,-1341,-47
,1506,2023-10-27 10:45:25.34,349,-300,-2013,-14,9,-77,-476,551,-1027,-37
,1507,2023-10-27 10:45:25.35,353,-313,-2002,-17,4,-65,-627,716,-1343,-44
,1508,2023-10-27 10:45:25.36,345,-312,-2025,-12,4,-50,-476,543,-1019,-33
,1509,2023-10-27 10:45:25.37,349,-324,-2040,-7,1,-36,-630,730,-1360,-50
,1510,2023-10-27 10:45:25.38,343,-330,-2039,-2,-5,-15,-473,544,-1017,-35
,1511,2023-10-27 10:45:25.39,334,-328,-2043,3,-13,2,-631,733,-1364,-51
,1512,2023-10-27 10:45:25.40,347,-324,-2020,4,-13,19,-473,541,-1014,-34
,1513,2023-10-27 10:45:25.41,337,-341,-2019,17,-21,34,-631,736,-1367,-52
,1514,2023-10-27 10:45:25.42,331,-319,-2037,32,-20,45,-472,540,-1012,-34
,1515,2023-10-27 10:45:25.43,331,-308,-2038,35,-23,47,-634,741,-1375,-53
,1516,2023-10-27 10:45:25.44,341,-298,-2048,37,-24,45,-470,538,-1008,-34
,1517,2023-10-27 10:45:25.45,334,-303,-2053,35,-20,39,-636,747,-1383,-55
,1518,2023-10-27 10:45:25.46,329,-300,-2053,29,-14,32,-471,541,-1012,-35
,1519,2023-10-27 10:45:25.47,314,-299,-2038,30,-20,25,-638,749,-1387,-55
,1520,2023-10-27 10:45:25.48,334,-308,-2031,31,-24,20,-467,532,-999,-32
,1521,2023-10-27 10:45:25.49,298,-327,-2026,33,-32,19,-639,746,-1385,-53
,1522,2023-10-27 10:45:25.50,326,-321,-2012,35,-31,21,-467,532,-999,-32
,1523,2023-10-27 10:45:25.51,326,-322,-2017,31,-23,19,-642,747,-1389,-52
,1524,2023-10-27 10:45:25.52,321,-317,-1979,14,0,16,-464,527,-991,-31
,1525,2023-10-27 10:45:25.53,315,-349,-1971,19,4,18,-645,742,-1387,-48
,1526,2023-10-27 10:45:25.54,324,-353,-1990,35,7,17,-468,528,-996,-30
,1527,2023-10-27 10:45:25.55,327,-340,-1999,50,11,17,-651,747,-1398,-48
,1528,2023-10-27 10:45:25.56,332,-335,-2008,54,11,14,-468,528,-996,-30
,1529,2023-10-27 10:45:25.57,324,-326,-1999,48,25,11,-651,748,-1399,-48
,1530,2023-10-27 10:45:25.58,323,-332,-2005,40,37,8,-462,525,-987,-31
,1531,2023-10-27 10:45:25.59,315,-325,-2003,31,38,3,-651,746,-1397,-47
,1532,2023-10-27 10:45:25.60,341,-344,-2019,24,38,-1,-460,523,-983,-31
,1533,2023-10-27 10:45:25.61,334,-337,-2033,20,38,-4,-652,753,-1405,-50
,1534,2023-10-27 10:45:25.62,320,-337,-2038,11,28,-6,-462,526,-988,-32
,1535,2023-10-27 10:45:25.63,344,-347,-2042,10,24,-4,-656,751,-1407,-47
,1536,2023-10-27 10:45:25.64,337,-338,-2030,5,23,1,-460,521,-981,-30
,1537,2023-10-27 10:45:25.65,351,-343,-2018,1,15,3,-655,753,-1408,-49
,1538,2023-10-27 10:45:25.66,331,-352,-2005,1,12,9,-459,520,-979,-30
,1539,2023-10-27 10:45:25.67,344,-351,-2029,2,9,12,-653,756,-1409,-51
,1540,2023-10-27 10:45:25.68,349,-343,-2031,-2,11,12,-462,519,-981,-28
,1541,2023-10-27 10:45:25.69,347,-329,-2025,0,11,15,-663,762,-1425,-49
,1542,2023-10-27 10:45:25.70,357,-337,-2042,-6,19,18,-475,513,-988,-19
,1543,2023-10-27 10:45:25.71,361,-340,-2014,-11,20,17,-661,760,-1421,-49
,1544,2023-10-27 10:45:25.72,351,-358,-2033,2,20,20,-460,515,-975,-27
,1545,2023-10-27 10:45:25.73,342,-333,-2038,8,7,21,-661,753,-1414,-46
,1546,2023-10-27 10:45:25.74,343,-344,-2014,3,8,26,-461,515,-976,-27
,1547,2023-10-27 10:45:25.75,346,-343,-2024,-1,14,34,-663,762,-1425,-49
,1548,2023-10-27 10:45:25.76,339,-332,-2010,4,6,34,-466,519,-985,-26
,1549,2023-10-27 10:45:25.77,330,-328,-2012,0,8,36,-660,763,-1423,-51
,1550,2023-10-27 10:45:25.78,339,-328,-2014,-8,12,38,-461,516,-977,-27
,1551,2023-10-27 10:45:25.79,353,-346,-2019,-7,14,38,-656,762,-1418,-53
,1552,2023-10-27 10:45:25.80,336,-323,-2009,-2,15,38,-461,516,-977,-27
,1553,2023-10-27 10:45:25.81,341,-328,-2012,3,17,37,-657,762,-1419,-52
,1554,2023-10-27 10:45:25.82,333,-322,-2022,5,28,37,-463,516,-979,-26
,1555,2023-10-27 10:45:25.83,331,-348,-2037,14,14,39,-656,761,-1417,-52
,1556,2023-10-27 10:45:25.84,330,-349,-2060,18,19,43,-464,519,-983,-27
,1557,2023-10-27 10:45:25.85,322,-345,-2049,24,1,51,-656,759,-1415,-51
,1558,2023-10-27 10:45:25.86,334,-335,-2038,25,-3,55,-461,518,-979,-28
,1559,2023-10-27 10:45:25.87,326,-337,-2015,23,-11,57,-653,758,-1411,-52
,1560,2023-10-27 10:45:25.88,335,-321,-2016,25,-8,57,-462,520,-982,-29
,1561,2023-10-27 10:45:25.89,324,-315,-2013,22,-13,54,-659,757,-1416,-49
,1562,2023-10-27 10:45:25.90,329,-313,-1997,13,-10,49,-468,526,-994,-29
,1563,2023-10-27 10:45:25.91,321,-314,-2010,4,-3,44,-658,758,-1416,-50
,1564,2023-10-27 10:45:25.92,314,-317,-2008,-3,-5,42,-466,530,-996,-32
,1565,2023-10-27 10:45:25.93,315,-324,-2012,-3,-5,39,-660,757,-1417,-48
,1566,2023-10-27 10:45:25.94,310,-332,-2018,-7,-8,37,-471,530,-1001,-29
,1567,2023-10-27 10:45:25.95,333,-326,-2024,-8,-4,37,-660,756,-1416,-48
,1568,2023-10-27 10:45:25.96,318,-324,-2020,-5,-8,36,-468,532,-1000,-32
,1569,2023-10-27 10:45:25.97,327,-314,-2030,-7,-4,35,-657,751,-1408,-47
,1570,2023-10-27 10:45:25.98,327,-339,-2009,-22,16,30,-472,529,-1001,-28
,1571,2023-10-27 10:45:25.99,322,-330,-2032,-7,5,34,-657,753,-1410,-48
,1572,2023-10-27 10:45:26.00,338,-316,-2025,-3,-2,33,-472,537,-1009,-32
,1573,2023-10-27 10:45:26.01,329,-323,-2022,-12,12,37,-657,750,-1407,-46
,1574,2023-10-27 10:45:26.02,321,-334,-2026,-7,10,41,-476,528,-1004,-26
,1575,2023-10-27 10:45:26.03,328,-314,-2034,-7,10,44,-656,746,-1402,-45
,1576,2023-10-27 10:45:26.04,334,-323,-2003,-16,15,45,-479,533,-1012,-27
,1577,2023-10-27 10:45:26.05,319,-337,-2017,-13,27,48,-655,750,-1405,-47
,1578,2023-10-27 10:45:26.06,320,-334,-2025,-8,31,48,-484,536,-1020,-26
,1579,2023-10-27 10:45:26.07,343,-327,-2029,-1,30,52,-654,751,-1405,-48
,1580,2023-10-27 10:45:26.08,320,-326,-2021,5,33,53,-481,546,-1027,-32
,1581,2023-10-27 10:45:26.09,346,-333,-2034,5,40,55,-649,745,-1394,-48
,1582,2023-10-27 10:45:26.10,339,-327,-2042,11,37,57,-483,538,-1021,-27
,1583,2023-10-27 10:45:26.11,339,-324,-2036,18,29,58,-650,727,-1377,-38
,1584,2023-10-27 10:45:26.12,355,-312,-2036,27,24,55,-482,545,-1027,-31
,1585,2023-10-27 10:45:26.13,343,-308,-2024,19,28,50,-641,745,-1386,-52
,1586,2023-10-27 10:45:26.14,349,-318,-2026,14,32,45,-488,554,-1042,-33
,1587,2023-10-27 10:45:26.15,349,-320,-2026,14,30,41,-642,739,-1381,-48
,1588,2023-10-27 10:45:26.16,347,-315,-2019,18,24,37,-492,557,-1049,-32
,1589,2023-10-27 10:45:26.17,345,-319,-2016,20,19,34,-646,731,-1377,-42
,1590,2023-10-27 10:45:26.18,336,-322,-2022,14,20,31,-495,558,-1053,-31
,1591,2023-10-27 10:45:26.19,352,-328,-2035,11,25,27,-641,730,-1371,-44
,1592,2023-10-27 10:45:26.20,345,-319,-2034,11,18,24,-494,562,-1056,-34
,1593,2023-10-27 10:45:26.21,352,-312,-2015,3,14,24,-638,730,-1368,-46
,1594,2023-10-27 10:45:26.22,350,-336,-1998,7,17,19,-498,563,-1061,-32
,1595,2023-10-27 10:45:26.23,345,-319,-2019,14,11,14,-636,721,-1357,-42
,1596,2023-10-27 10:45:26.24,356,-319,-2015,14,12,12,-500,561,-1061,-30
,1597,2023-10-27 10:45:26.25,344,-322,-2011,13,17,6,-631,718,-1349,-43
,1598,2023-10-27 10:45:26.26,356,-320,-2015,8,21,4,-503,567,-1070,-32
,1599,2023-10-27 10:45:26.27,349,-323,-2012,6,23,6,-628,719,-1347,-45
,1600,2023-10-27 10:45:26.28,351,-324,-2019,5,24,4,-506,567,-1073,-30
,1601,2023-10-27 10:45:26.29,355,-333,-2023,8,20,2,-624,712,-1336,-44
,1602,2023-10-27 10:45:26.30,358,-334,-2025,10,15,5,-512,571,-1083,-29
,1603,2023-10-27 10:45:26.31,347,-331,-2027,11,8,8,-623,714,-1337,-45
,1604,2023-10-27 10:45:26.32,351,-327,-2028,8,2,12,-519,577,-1096,-29
,1605,2023-10-27 10:45:26.33,363,-330,-2030,6,-3,16,-618,706,-1324,-44
,1606,2023-10-27 10:45:26.34,361,-327,-2032,4,-8,19,-518,576,-1094,-29
,1607,2023-10-27 10:45:26.35,355,-327,-2032,3,-9,23,-614,703,-1317,-44
,1608,2023-10-27 10:45:26.36,354,-324,-2031,-2,-7,24,-521,588,-1109,-33
,1609,2023-10-27 10:45:26.37,358,-335,-2018,2,-6,27,-614,701,-1315,-43
,1610,2023-10-27 10:45:26.38,344,-329,-2027,4,-1,28,-530,594,-1124,-32
,1611,2023-10-27 10:45:26.39,357,-332,-2013,10,4,28,-612,695,-1307,-41
,1612,2023-10-27 10:45:26.40,357,-327,-2004,16,6,27,-526,595,-1121,-34
,1613,2023-10-27 10:45:26.41,367,-323,-2011,22,10,29,-604,688,-1292,-42
,1614,2023-10-27 10:45:26.42,365,-322,-2000,21,12,23,-530,598,-1128,-34
,1615,2023-10-27 10:45:26.43,360,-322,-2001,23,10,23,-608,688,-1296,-40
,1616,2023-10-27 10:45:26.44,353,-314,-2020,21,3,21,-539,610,-1149,-35
,1617,2023-10-27 10:45:26.45,340,-324,-2037,20,-2,19,-600,687,-1287,-43
,1618,2023-10-27 10:45:26.46,356,-314,-2037,19,-7,15,-536,608,-1144,-36
,1619,2023-10-27 10:45:26.47,346,-319,-2014,16,-20,12,-596,685,-1281,-44
,1620,2023-10-27 10:45:26.48,339,-320,-2019,11,-23,8,-544,625,-1169,-40
,1621,2023-10-27 10:45:26.49,348,-324,-2040,8,-31,10,-586,700,-1286,-57
,1622,2023-10-27 10:45:26.50,327,-337,-2047,7,-38,10,-542,630,-1172,-44
,1623,2023-10-27 10:45:26.51,336,-337,-2042,9,-54,17,-583,686,-1269,-51
,1624,2023-10-27 10:45:26.52,334,-332,-2033,6,-62,21,-553,612,-1165,-29
,1625,2023-10-27 10:45:26.53,327,-325,-2016,1,-67,29,-574,674,-1248,-50
,1626,2023-10-27 10:45:26.54,324,-322,-2018,-6,-65,27,-544,627,-1171,-41
,1627,2023-10-27 10:45:26.55,316,-317,-2017,-11,-69,30,-570,677,-1247,-53
,1628,2023-10-27 10:45:26.56,321,-313,-2021,-18,-64,29,-553,633,-1186,-40
,1629,2023-10-27 10:45:26.57,318,-317,-2027,-24,-63,26,-572,668,-1240,-48
,1630,2023-10-27 10:45:26.58,314,-313,-2035,-28,-63,23,-558,635,-1193,-38
,1631,2023-10-27 10:45:26.59,301,-317,-2034,-29,-67,23,-567,663,-1230,-48
,1632,2023-10-27 10:45:26.60,289,-314,-2033,-27,-72,20,-559,641,-1200,-41
,1633,2023-10-27 10:45:26.61,290,-311,-2036,-31,-73,19,-562,654,-1216,-46
,1634,2023-10-27 10:45:26.62,292,-312,-2042,-29,-78,16,-562,644,-1206,-41
,1635,2023-10-27 10:45:26.63,300,-304,-2023,-28,-80,13,-555,642,-1197,-43
,1636,2023-10-27 10:45:26.64,291,-303,-2020,-27,-75,8,-563,642,-1205,-39
,1637,2023-10-27 10:45:26.65,291,-300,-2032,-29,-73,10,-555,637,-1192,-41
,1638,2023-10-27 10:45:26.66,300,-304,-2028,-30,-66,8,-570,650,-1220,-40
,1639,2023-10-27 10:45:26.67,290,-308,-2027,-32,-60,9,-546,624,-1170,-39
,1640,2023-10-27 10:45:26.68,294,-323,-2028,-32,-56,18,-562,642,-1204,-40
,1641,2023-10-27 10:45:26.69,297,-321,-2029,-34,-42,22,-541,614,-1155,-36
,1642,2023-10-27 10:45:26.70,299,-314,-2023,-32,-37,25,-571,645,-1216,-37
,1643,2023-10-27 10:45:26.71,297,-303,-2009,-27,-28,28,-547,606,-1153,-29
,1644,2023-10-27 10:45:26.72,289,-292,-2000,-23,-19,27,-582,649,-1231,-33
,1645,2023-10-27 10:45:26.73,303,-287,-2004,-25,-1,20,-543,606,-1149,-31
,1646,2023-10-27 10:45:26.74,313,-277,-2015,-16,5,14,-584,659,-1243,-37
,1647,2023-10-27 10:45:26.75,302,-273,-2035,-12,14,4,-544,605,-1149,-30
,1648,2023-10-27 10:45:26.76,310,-267,-2039,-11,14,-6,-592,666,-1258,-37
,1649,2023-10-27 10:45:26.77,312,-271,-2044,-12,17,-16,-546,609,-1155,-31
,1650,2023-10-27 10:45:26.78,313,-262,-2041,-16,17,-20,-600,681,-1281,-40
,1651,2023-10-27 10:45:26.79,321,-274,-2044,-15,19,-28,-546,615,-1161,-34
,1652,2023-10-27 10:45:26.80,324,-287,-2040,-4,14,-27,-603,682,-1285,-39
,1653,2023-10-27 10:45:26.81,331,-300,-2030,16,12,-28,-530,609,-1139,-39
,1654,2023-10-27 10:45:26.82,335,-310,-2006,36,11,-23,-604,694,-1298,-45
,1655,2023-10-27 10:45:26.83,338,-320,-1990,51,17,-17,-550,644,-1194,-47
,1656,2023-10-27 10:45:26.84,326,-324,-2004,72,27,-10,-623,728,-1351,-52
,1657,2023-10-27 10:45:26.85,343,-329,-2010,94,28,2,-526,629,-1155,-51
,1658,2023-10-27 10:45:26.86,334,-327,-2023,112,30,10,-594,707,-1301,-56
,1659,2023-10-27 10:45:26.87,334,-316,-2036,125,25,23,-500,601,-1101,-50
,1660,2023-10-27 10:45:26.88,338,-332,-2047,142,19,34,-594,698,-1292,-52
,1661,2023-10-27 10:45:26.89,333,-349,-2052,151,18,41,-501,585,-1086,-42
,1662,2023-10-27 10:45:26.90,330,-357,-2048,166,16,50,-593,704,-1297,-55
,1663,2023-10-27 10:45:26.91,333,-365,-2043,181,11,57,-500,575,-1075,-37
,1664,2023-10-27 10:45:26.92,334,-383,-2056,198,10,64,-601,685,-1286,-42
,1665,2023-10-27 10:45:26.93,327,-381,-2069,206,23,68,-506,536,-1042,-15
,1666,2023-10-27 10:45:26.94,324,-383,-2037,206,32,70,-606,680,-1286,-37
,1667,2023-10-27 10:45:26.95,308,-410,-2026,224,19,70,-502,551,-1053,-24
,1668,2023-10-27 10:45:26.96,305,-414,-2024,241,16,71,-610,697,-1307,-43
,1669,2023-10-27 10:45:26.97,306,-404,-2009,251,24,70,-499,547,-1046,-24
,1670,2023-10-27 10:45:26.98,301,-394,-2017,247,22,65,-618,698,-1316,-40
,1671,2023-10-27 10:45:26.99,306,-381,-2027,236,8,58,-506,560,-1066,-27
,1672,2023-10-27 10:45:27.00,296,-374,-2028,210,10,44,-630,721,-1351,-45
