// Data mode  : Full
// Data quality  : High
// Acceleration sensor's range  : 16g
// Gyroscope sensor's range  : 2000dps
//
//ARTIFACT,NUM,DATE,ACC_X,ACC_Y,ACC_Z,GYRO_X,GYRO_Y,GYRO_Z,EOG_L,EOG_R,EOG_H,EOG_V
,1,2023-10-27 10:34:39.43,28,-26,-2053,-4,25,105,50,200,-150,-125
,2,2023-10-27 10:34:39.44,29,-27,-2057,0,28,100,372,-61,433,-155
,3,2023-10-27 10:34:39.45,33,-25,-2053,5,36,99,51,191,-140,-121
,4,2023-10-27 10:34:39.46,23,-22,-2054,13,40,90,362,-55,417,-153
,5,2023-10-27 10:34:39.47,22,-24,-2064,20,39,83,52,191,-139,-121
,6,2023-10-27 10:34:39.48,15,-22,-2075,25,34,76,359,-56,415,-151
,7,2023-10-27 10:34:39.49,11,-33,-2073,29,26,70,56,178,-122,-117
,8,2023-10-27 10:34:39.50,19,-46,-2066,31,12,64,348,-56,404,-146
,9,2023-10-27 10:34:39.51,13,-45,-2068,34,4,61,54,173,-119,-113
,10,2023-10-27 10:34:39.52,15,-45,-2069,40,-3,58,344,-46,390,-149
,11,2023-10-27 10:34:39.53,6,-45,-2067,40,-7,52,62,167,-105,-114
,12,2023-10-27 10:34:39.54,16,-47,-2060,41,-8,51,339,-38,377,-150
,13,2023-10-27 10:34:39.55,21,-39,-2054,40,-5,49,68,170,-102,-119
,14,2023-10-27 10:34:39.56,-4,-36,-2051,34,-5,39,335,-21,356,-157
,15,2023-10-27 10:34:39.57,4,-35,-2064,28,-2,27,76,167,-91,-121
,16,2023-10-27 10:34:39.58,18,-40,-2074,26,0,16,333,-24,357,-154
,17,2023-10-27 10:34:39.59,1,-32,-2087,27,-3,2,77,153,-76,-115
,18,2023-10-27 10:34:39.60,13,-43,-2086,31,-12,-2,326,-22,348,-152
,19,2023-10-27 10:34:39.61,25,-41,-2083,24,-15,-11,88,149,-61,-118
,20,2023-10-27 10:34:39.62,26,-43,-2081,25,-13,-17,314,-13,327,-150
,21,2023-10-27 10:34:39.63,23,-46,-2071,26,-15,-19,92,139,-47,-115
,22,2023-10-27 10:34:39.64,16,-40,-2054,20,-7,-17,312,-10,322,-151
,23,2023-10-27 10:34:39.65,17,-53,-2055,21,-5,-17,96,127,-31,-111
,24,2023-10-27 10:34:39.66,11,-61,-2058,21,-4,-12,305,-13,318,-146
,25,2023-10-27 10:34:39.67,-8,-64,-2069,18,-12,-1,110,123,-13,-116
,26,2023-10-27 10:34:39.68,8,-67,-2070,17,-21,8,304,-2,306,-151
,27,2023-10-27 10:34:39.69,1,-53,-2066,12,-24,19,119,115,4,-117
,28,2023-10-27 10:34:39.70,1,-39,-2070,-2,-19,27,295,5,290,-150
,29,2023-10-27 10:34:39.71,13,-32,-2068,-14,-14,27,112,104,8,-108
,30,2023-10-27 10:34:39.72,5,-12,-2063,-26,-1,27,281,4,277,-142
,31,2023-10-27 10:34:39.73,5,-11,-2057,-34,11,26,130,101,29,-115
,32,2023-10-27 10:34:39.74,-7,-21,-2048,-39,9,30,286,17,269,-151
,33,2023-10-27 10:34:39.75,-10,-36,-2049,-38,5,31,134,95,39,-114
,34,2023-10-27 10:34:39.76,-15,-33,-2049,-28,-3,32,280,37,243,-158
,35,2023-10-27 10:34:39.77,-13,-54,-2057,-20,-6,40,147,97,50,-122
,36,2023-10-27 10:34:39.78,-25,-52,-2058,1,-20,55,276,33,243,-154
,37,2023-10-27 10:34:39.79,-28,-55,-2051,14,-22,66,152,77,75,-114
,38,2023-10-27 10:34:39.80,-44,-53,-2056,20,-24,79,268,40,228,-154
,39,2023-10-27 10:34:39.81,-49,-58,-2062,32,-28,85,157,71,86,-114
,40,2023-10-27 10:34:39.82,-35,-55,-2042,40,-32,85,264,40,224,-152
,41,2023-10-27 10:34:39.83,-36,-62,-2044,51,-30,87,164,64,100,-114
,42,2023-10-27 10:34:39.84,-34,-64,-2041,62,-23,93,247,52,195,-149
,43,2023-10-27 10:34:39.85,-32,-60,-2052,65,-12,98,172,55,117,-113
,44,2023-10-27 10:34:39.86,-33,-57,-2050,71,1,96,248,59,189,-153
,45,2023-10-27 10:34:39.87,-14,-58,-2053,75,23,87,183,48,135,-115
,46,2023-10-27 10:34:39.88,3,-73,-2026,78,38,78,242,65,177,-153
,47,2023-10-27 10:34:39.89,16,-82,-2039,91,49,73,189,47,142,-118
,48,2023-10-27 10:34:39.90,12,-77,-2060,100,66,68,228,80,148,-154
,49,2023-10-27 10:34:39.91,2,-74,-2060,108,75,65,195,45,150,-120
,50,2023-10-27 10:34:39.92,4,-86,-2075,108,78,59,225,85,140,-155
,51,2023-10-27 10:34:39.93,11,-89,-2077,110,77,55,205,30,175,-117
,52,2023-10-27 10:34:39.94,9,-93,-2066,108,76,56,207,93,114,-150
,53,2023-10-27 10:34:39.95,24,-94,-2067,108,65,52,200,33,167,-116
,54,2023-10-27 10:34:39.96,25,-83,-2056,107,63,50,196,107,89,-151
,55,2023-10-27 10:34:39.97,15,-94,-2049,106,61,45,212,29,183,-120
,56,2023-10-27 10:34:39.98,31,-102,-2036,108,51,42,196,120,76,-158
,57,2023-10-27 10:34:39.99,57,-101,-2048,115,46,43,227,21,206,-124
,58,2023-10-27 10:34:40.00,37,-111,-2046,118,40,43,186,122,64,-154
,59,2023-10-27 10:34:40.01,46,-108,-2050,121,38,46,222,12,210,-117
,60,2023-10-27 10:34:40.02,43,-112,-2046,125,34,51,171,123,48,-147
,61,2023-10-27 10:34:40.03,34,-128,-2053,128,30,56,227,11,216,-119
,62,2023-10-27 10:34:40.04,47,-130,-2062,129,29,55,166,140,26,-153
,63,2023-10-27 10:34:40.05,53,-119,-2073,130,22,55,240,7,233,-123
,64,2023-10-27 10:34:40.06,58,-118,-2080,129,21,64,158,152,6,-155
,65,2023-10-27 10:34:40.07,47,-106,-2089,122,15,67,230,-3,233,-113
,66,2023-10-27 10:34:40.08,52,-108,-2084,114,11,65,150,159,-9,-154
,67,2023-10-27 10:34:40.09,48,-89,-2091,107,7,60,250,-2,252,-124
,68,2023-10-27 10:34:40.10,44,-108,-2093,96,2,58,139,156,-17,-147
,69,2023-10-27 10:34:40.11,51,-99,-2086,87,-6,57,257,-14,271,-121
,70,2023-10-27 10:34:40.12,42,-115,-2095,82,-12,52,134,165,-31,-149
,71,2023-10-27 10:34:40.13,36,-118,-2090,87,-22,48,266,-16,282,-125
,72,2023-10-27 10:34:40.14,37,-119,-2066,93,-31,52,135,181,-46,-158
,73,2023-10-27 10:34:40.15,31,-124,-2060,97,-39,53,276,-20,296,-128
,74,2023-10-27 10:34:40.16,33,-116,-2067,100,-47,52,122,177,-55,-149
,75,2023-10-27 10:34:40.17,25,-112,-2062,102,-44,49,282,-24,306,-129
,76,2023-10-27 10:34:40.18,45,-110,-2077,98,-52,49,114,196,-82,-155
,77,2023-10-27 10:34:40.19,22,-118,-2066,94,-59,48,284,-19,303,-132
,78,2023-10-27 10:34:40.20,8,-138,-2058,103,-60,48,109,202,-93,-155
,79,2023-10-27 10:34:40.21,9,-142,-2049,121,-68,50,294,-34,328,-130
,80,2023-10-27 10:34:40.22,10,-151,-2040,126,-70,55,106,194,-88,-150
,81,2023-10-27 10:34:40.23,9,-147,-2002,134,-58,55,304,-37,341,-133
,82,2023-10-27 10:34:40.24,22,-163,-1978,137,-41,56,88,208,-120,-148
,83,2023-10-27 10:34:40.25,21,-154,-1970,146,-22,60,299,-38,337,-130
,84,2023-10-27 10:34:40.26,32,-162,-1980,155,-7,59,91,216,-125,-153
,85,2023-10-27 10:34:40.27,31,-156,-2014,152,21,58,313,-47,360,-133
,86,2023-10-27 10:34:40.28,22,-151,-2068,155,40,62,86,211,-125,-148
,87,2023-10-27 10:34:40.29,25,-161,-2101,149,49,73,320,-50,370,-135
,88,2023-10-27 10:34:40.30,17,-152,-2111,138,48,76,82,218,-136,-150
,89,2023-10-27 10:34:40.31,31,-153,-2107,127,48,79,329,-54,383,-137
,90,2023-10-27 10:34:40.32,26,-158,-2104,113,35,76,78,224,-146,-151
,91,2023-10-27 10:34:40.33,26,-146,-2115,104,22,65,326,-58,384,-134
,92,2023-10-27 10:34:40.34,25,-140,-2105,103,2,54,56,231,-175,-143
,93,2023-10-27 10:34:40.35,55,-138,-2063,101,-7,43,319,-53,372,-133
,94,2023-10-27 10:34:40.36,69,-148,-2026,94,4,36,55,238,-183,-146
,95,2023-10-27 10:34:40.37,82,-158,-1998,96,15,28,339,-59,398,-140
,96,2023-10-27 10:34:40.38,76,-151,-2029,108,29,9,59,237,-178,-148
,97,2023-10-27 10:34:40.39,80,-139,-2068,128,31,-9,345,-68,413,-138
,98,2023-10-27 10:34:40.40,72,-137,-2070,153,36,-25,48,245,-197,-146
,99,2023-10-27 10:34:40.41,79,-152,-2062,172,41,-24,338,-64,402,-137
,100,2023-10-27 10:34:40.42,78,-176,-2060,182,47,-20,37,243,-206,-140
,101,2023-10-27 10:34:40.43,84,-196,-2079,179,36,-18,346,-69,415,-138
,102,2023-10-27 10:34:40.44,52,-167,-2096,178,12,-23,46,245,-199,-145
,103,2023-10-27 10:34:40.45,45,-181,-2123,173,-3,-17,370,-72,442,-149
,104,2023-10-27 10:34:40.46,43,-197,-2117,181,-21,-3,45,254,-209,-149
,105,2023-10-27 10:34:40.47,32,-197,-2107,177,-48,7,365,-71,436,-147
,106,2023-10-27 10:34:40.48,14,-208,-2109,169,-78,11,39,238,-199,-138
,107,2023-10-27 10:34:40.49,21,-205,-2067,152,-99,19,382,-81,463,-150
,108,2023-10-27 10:34:40.50,19,-207,-2060,157,-117,15,48,251,-203,-149
,109,2023-10-27 10:34:40.51,34,-199,-2018,158,-101,16,375,-80,455,-147
,110,2023-10-27 10:34:40.52,28,-182,-2029,167,-85,13,31,256,-225,-143
,111,2023-10-27 10:34:40.53,58,-186,-1999,160,-48,32,368,-87,455,-140
,112,2023-10-27 10:34:40.54,17,-180,-2002,161,-29,23,27,240,-213,-133
,113,2023-10-27 10:34:40.55,23,-204,-2025,153,-6,16,377,-90,467,-143
,114,2023-10-27 10:34:40.56,30,-221,-2057,163,-3,11,32,252,-220,-142
,115,2023-10-27 10:34:40.57,-12,-248,-2080,182,-9,12,387,-91,478,-148
,116,2023-10-27 10:34:40.58,0,-247,-2041,193,-8,34,37,253,-216,-145
,117,2023-10-27 10:34:40.59,-8,-254,-2082,217,-14,33,385,-92,477,-146
,118,2023-10-27 10:34:40.60,8,-250,-2046,224,-5,53,21,251,-230,-136
,119,2023-10-27 10:34:40.61,-34,-258,-2054,236,-16,52,380,-92,472,-144
,120,2023-10-27 10:34:40.62,-9,-273,-2015,217,-12,54,19,250,-231,-134
,121,2023-10-27 10:34:40.63,-21,-262,-2011,210,-1,59,384,-96,480,-144
,122,2023-10-27 10:34:40.64,-53,-300,-2050,205,6,54,25,254,-229,-139
,123,2023-10-27 10:34:40.65,-10,-301,-2032,206,-18,57,389,-90,479,-149
,124,2023-10-27 10:34:40.66,-31,-297,-2060,195,-10,65,18,261,-243,-139
,125,2023-10-27 10:34:40.67,-3,-296,-2040,195,-25,72,390,-87,477,-151
,126,2023-10-27 10:34:40.68,-43,-305,-2062,205,-35,75,20,256,-236,-138
,127,2023-10-27 10:34:40.69,-36,-301,-2031,195,-47,77,397,-90,487,-153
,128,2023-10-27 10:34:40.70,-35,-308,-2029,177,-41,80,30,260,-230,-145
,129,2023-10-27 10:34:40.71,-31,-311,-2027,178,-39,78,404,-94,498,-155
,130,2023-10-27 10:34:40.72,-38,-316,-2018,173,-44,80,31,246,-215,-138
,131,2023-10-27 10:34:40.73,-50,-323,-2020,177,-55,84,404,-90,494,-157
,132,2023-10-27 10:34:40.74,-55,-317,-2039,177,-65,76,25,256,-231,-140
,133,2023-10-27 10:34:40.75,-34,-321,-2036,170,-75,68,395,-86,481,-154
,134,2023-10-27 10:34:40.76,-49,-316,-2026,158,-65,56,18,256,-238,-137
,135,2023-10-27 10:34:40.77,-30,-323,-2032,143,-48,43,388,-96,484,-146
,136,2023-10-27 10:34:40.78,-42,-336,-2035,138,-36,31,20,237,-217,-128
,137,2023-10-27 10:34:40.79,-40,-357,-2039,131,-30,21,395,-89,484,-153
,138,2023-10-27 10:34:40.80,-41,-358,-2035,126,-26,16,22,250,-228,-136
,139,2023-10-27 10:34:40.81,-51,-379,-2044,125,-22,14,397,-80,477,-158
,140,2023-10-27 10:34:40.82,-28,-352,-2052,112,-25,19,23,254,-231,-138
,141,2023-10-27 10:34:40.83,-54,-350,-2045,93,-26,25,387,-77,464,-155
,142,2023-10-27 10:34:40.84,-52,-375,-2025,76,-39,26,18,249,-231,-133
,143,2023-10-27 10:34:40.85,-41,-370,-2021,49,-50,26,388,-73,461,-157
,144,2023-10-27 10:34:40.86,-44,-372,-2019,35,-54,34,30,254,-224,-142
,145,2023-10-27 10:34:40.87,-54,-383,-2049,37,-59,41,394,-68,462,-163
,146,2023-10-27 10:34:40.88,-61,-372,-2039,32,-58,53,31,248,-217,-139
,147,2023-10-27 10:34:40.89,-64,-368,-2046,37,-60,57,372,-83,455,-144
,148,2023-10-27 10:34:40.90,-65,-370,-2045,51,-84,68,25,240,-215,-132
,149,2023-10-27 10:34:40.91,-71,-378,-2041,58,-91,78,384,-69,453,-157
,150,2023-10-27 10:34:40.92,-68,-359,-2018,55,-87,83,28,235,-207,-131
,151,2023-10-27 10:34:40.93,-71,-369,-2048,53,-92,90,392,-65,457,-163
,152,2023-10-27 10:34:40.94,-82,-350,-2041,38,-88,96,40,234,-194,-137
,153,2023-10-27 10:34:40.95,-84,-336,-2027,19,-69,96,379,-64,443,-157
,154,2023-10-27 10:34:40.96,-85,-341,-2032,-3,-55,92,38,231,-193,-134
,155,2023-10-27 10:34:40.97,-73,-341,-2021,-18,-41,94,380,-59,439,-160
,156,2023-10-27 10:34:40.98,-73,-343,-2011,-25,-31,90,38,220,-182,-129
,157,2023-10-27 10:34:40.99,-59,-341,-2002,-35,-11,91,378,-58,436,-160
,158,2023-10-27 10:34:41.00,-57,-346,-1995,-33,6,88,45,215,-170,-130
,159,2023-10-27 10:34:41.01,-41,-347,-1999,-25,26,88,368,-54,422,-157
,160,2023-10-27 10:34:41.02,-40,-351,-1993,-14,42,89,45,220,-175,-132
,161,2023-10-27 10:34:41.03,-41,-340,-2008,-2,54,88,368,-41,409,-163
,162,2023-10-27 10:34:41.04,-31,-332,-2009,8,61,91,50,212,-162,-131
,163,2023-10-27 10:34:41.05,-34,-329,-2016,13,61,94,366,-43,409,-161
,164,2023-10-27 10:34:41.06,-33,-321,-2016,11,58,95,58,198,-140,-128
,165,2023-10-27 10:34:41.07,-32,-330,-2020,7,58,95,357,-44,401,-156
,166,2023-10-27 10:34:41.08,-27,-333,-2010,0,56,99,58,194,-136,-126
,167,2023-10-27 10:34:41.09,-36,-334,-2012,-5,54,105,350,-35,385,-157
,168,2023-10-27 10:34:41.10,-29,-329,-2017,-9,54,110,63,191,-128,-127
,169,2023-10-27 10:34:41.11,-24,-309,-2021,-21,56,118,339,-23,362,-158
,170,2023-10-27 10:34:41.12,-32,-316,-2020,-34,57,119,58,185,-127,-121
,171,2023-10-27 10:34:41.13,-26,-314,-2032,-40,58,121,339,-26,365,-156
,172,2023-10-27 10:34:41.14,-16,-317,-2036,-43,56,123,72,176,-104,-124
,173,2023-10-27 10:34:41.15,-31,-311,-2043,-48,53,127,342,-21,363,-160
,174,2023-10-27 10:34:41.16,-18,-310,-2056,-50,53,128,83,171,-88,-127
,175,2023-10-27 10:34:41.17,-20,-300,-2072,-48,50,124,330,-11,341,-159
,176,2023-10-27 10:34:41.18,-32,-277,-2071,-52,45,117,82,162,-80,-122
,177,2023-10-27 10:34:41.19,-30,-276,-2052,-54,28,102,319,-3,322,-158
,178,2023-10-27 10:34:41.20,-30,-296,-2058,-55,13,92,79,163,-84,-121
,179,2023-10-27 10:34:41.21,-30,-264,-2061,-52,2,83,311,6,305,-158
,180,2023-10-27 10:34:41.22,-35,-252,-2070,-47,-3,73,92,158,-66,-125
,181,2023-10-27 10:34:41.23,-40,-266,-2087,-46,2,61,308,7,301,-157
,182,2023-10-27 10:34:41.24,-48,-276,-2078,-45,-1,55,100,137,-37,-118
,183,2023-10-27 10:34:41.25,-35,-288,-2073,-44,-2,46,295,10,285,-152
,184,2023-10-27 10:34:41.26,-41,-292,-2047,-32,-3,37,94,140,-46,-117
,185,2023-10-27 10:34:41.27,-51,-309,-2022,-14,-4,33,304,36,268,-170
,186,2023-10-27 10:34:41.28,-32,-311,-1981,9,0,32,116,141,-25,-128
,187,2023-10-27 10:34:41.29,-36,-309,-1970,34,6,27,288,30,258,-159
,188,2023-10-27 10:34:41.30,-40,-321,-1996,50,21,25,106,110,-4,-108
,189,2023-10-27 10:34:41.31,-9,-286,-2008,56,32,16,280,36,244,-158
,190,2023-10-27 10:34:41.32,-9,-290,-2030,56,49,3,118,117,1,-117
,191,2023-10-27 10:34:41.33,-6,-263,-2027,47,73,-11,279,43,236,-161
,192,2023-10-27 10:34:41.34,0,-270,-2048,38,97,-23,129,116,13,-122
,193,2023-10-27 10:34:41.35,-11,-279,-2040,26,99,-35,256,64,192,-160
,194,2023-10-27 10:34:41.36,-27,-305,-2070,23,99,-49,126,126,0,-126
,195,2023-10-27 10:34:41.37,-19,-330,-2075,30,82,-57,237,88,149,-162
,196,2023-10-27 10:34:41.38,0,-341,-2068,48,70,-65,127,118,9,-122
,197,2023-10-27 10:34:41.39,2,-347,-2047,67,54,-61,250,65,185,-157
,198,2023-10-27 10:34:41.40,-11,-349,-2051,84,56,-66,156,80,76,-118
,199,2023-10-27 10:34:41.41,11,-338,-2051,97,51,-71,254,64,190,-159
,200,2023-10-27 10:34:41.42,5,-332,-2046,101,52,-76,169,85,84,-127
,201,2023-10-27 10:34:41.43,8,-341,-2045,99,53,-81,240,76,164,-158
,202,2023-10-27 10:34:41.44,6,-350,-2035,89,55,-82,167,75,92,-121
,203,2023-10-27 10:34:41.45,-6,-359,-2046,81,50,-84,243,85,158,-164
,204,2023-10-27 10:34:41.46,6,-364,-2043,75,52,-80,186,65,121,-125
,205,2023-10-27 10:34:41.47,0,-362,-2047,69,49,-73,238,79,159,-158
,206,2023-10-27 10:34:41.48,-11,-374,-2049,62,47,-67,196,56,140,-126
,207,2023-10-27 10:34:41.49,-15,-369,-2037,53,37,-59,231,89,142,-160
,208,2023-10-27 10:34:41.50,-4,-379,-2022,47,26,-50,201,49,152,-125
,209,2023-10-27 10:34:41.51,-11,-379,-2033,41,8,-38,220,96,124,-158
,210,2023-10-27 10:34:41.52,-25,-389,-2023,33,-4,-28,202,38,164,-120
,211,2023-10-27 10:34:41.53,-22,-382,-2022,18,-15,-18,208,99,109,-153
,212,2023-10-27 10:34:41.54,-18,-375,-2027,4,-18,-6,215,37,178,-126
,213,2023-10-27 10:34:41.55,-18,-364,-2027,-6,-20,8,200,110,90,-155
,214,2023-10-27 10:34:41.56,-21,-356,-2023,-23,-26,21,216,26,190,-121
,215,2023-10-27 10:34:41.57,-20,-340,-2030,-37,-28,32,203,109,94,-156
,216,2023-10-27 10:34:41.58,-27,-324,-2042,-51,-34,43,230,15,215,-122
,217,2023-10-27 10:34:41.59,-41,-332,-2060,-66,-35,50,197,112,85,-154
,218,2023-10-27 10:34:41.60,-45,-317,-2074,-72,-40,58,245,9,236,-127
,219,2023-10-27 10:34:41.61,-48,-330,-2077,-79,-50,67,196,115,81,-155
,220,2023-10-27 10:34:41.62,-46,-310,-2065,-82,-51,80,254,-8,262,-123
,221,2023-10-27 10:34:41.63,-50,-302,-2059,-83,-56,87,187,114,73,-150
,222,2023-10-27 10:34:41.64,-39,-298,-2057,-88,-48,82,258,-16,274,-121
,223,2023-10-27 10:34:41.65,-35,-307,-2041,-78,-40,78,181,114,67,-147
,224,2023-10-27 10:34:41.66,-30,-296,-2027,-54,-18,80,267,-23,290,-122
,225,2023-10-27 10:34:41.67,-29,-285,-2020,-30,4,77,176,115,61,-145
,226,2023-10-27 10:34:41.68,-37,-272,-2020,-16,29,70,294,-30,324,-132
,227,2023-10-27 10:34:41.69,-32,-266,-2022,-1,49,57,185,113,72,-149
,228,2023-10-27 10:34:41.70,-42,-268,-2024,6,62,48,292,-48,340,-122
,229,2023-10-27 10:34:41.71,-36,-276,-2030,9,76,44,145,109,36,-127
,230,2023-10-27 10:34:41.72,-41,-300,-2019,16,83,48,274,-42,316,-116
,231,2023-10-27 10:34:41.73,-27,-312,-1998,30,83,52,128,136,-8,-132
,232,2023-10-27 10:34:41.74,-24,-324,-1996,41,85,59,280,-37,317,-121
,233,2023-10-27 10:34:41.75,-12,-335,-1989,58,81,69,119,155,-36,-137
,234,2023-10-27 10:34:41.76,-2,-327,-2008,73,82,73,278,-47,325,-115
,235,2023-10-27 10:34:41.77,-8,-318,-2018,80,86,82,118,152,-34,-135
,236,2023-10-27 10:34:41.78,-19,-309,-2027,78,98,88,296,-51,347,-122
,237,2023-10-27 10:34:41.79,-8,-310,-2017,67,101,93,121,162,-41,-141
,238,2023-10-27 10:34:41.80,12,-300,-2020,54,94,91,308,-51,359,-128
,239,2023-10-27 10:34:41.81,6,-303,-2025,33,90,88,111,172,-61,-141
,240,2023-10-27 10:34:41.82,5,-303,-2028,20,82,80,303,-61,364,-121
,241,2023-10-27 10:34:41.83,9,-311,-2051,6,85,72,99,169,-70,-134
,242,2023-10-27 10:34:41.84,5,-319,-2067,5,78,67,311,-72,383,-119
,243,2023-10-27 10:34:41.85,3,-329,-2084,-2,73,66,102,171,-69,-136
,244,2023-10-27 10:34:41.86,25,-325,-2088,-11,62,64,325,-69,394,-128
,245,2023-10-27 10:34:41.87,12,-314,-2077,-9,57,59,98,181,-83,-139
,246,2023-10-27 10:34:41.88,27,-301,-2079,-13,48,53,330,-78,408,-126
,247,2023-10-27 10:34:41.89,22,-293,-2079,-13,48,45,92,183,-91,-137
,248,2023-10-27 10:34:41.90,24,-293,-2068,-18,41,37,334,-85,419,-124
,249,2023-10-27 10:34:41.91,25,-290,-2074,-22,37,30,87,189,-102,-138
,250,2023-10-27 10:34:41.92,25,-289,-2066,-25,30,26,343,-81,424,-131
,251,2023-10-27 10:34:41.93,33,-283,-2056,-29,20,26,78,195,-117,-136
,252,2023-10-27 10:34:41.94,22,-287,-2055,-35,11,21,346,-88,434,-129
,253,2023-10-27 10:34:41.95,21,-284,-2046,-36,3,19,74,200,-126,-137
,254,2023-10-27 10:34:41.96,22,-286,-2054,-35,-3,21,349,-92,441,-128
,255,2023-10-27 10:34:41.97,20,-294,-2042,-31,-7,19,75,201,-126,-138
,256,2023-10-27 10:34:41.98,19,-289,-2041,-23,-7,23,356,-91,447,-132
,257,2023-10-27 10:34:41.99,24,-287,-2038,-12,-7,23,62,204,-142,-133
,258,2023-10-27 10:34:42.00,26,-290,-2027,0,-6,27,358,-102,460,-128
,259,2023-10-27 10:34:42.01,18,-290,-2017,10,-1,26,58,206,-148,-132
,260,2023-10-27 10:34:42.02,19,-292,-2009,20,5,22,363,-107,470,-128
,261,2023-10-27 10:34:42.03,22,-298,-2018,28,16,20,58,203,-145,-130
,262,2023-10-27 10:34:42.04,24,-295,-2031,31,23,13,364,-106,470,-129
,263,2023-10-27 10:34:42.05,22,-292,-2035,37,31,12,51,209,-158,-130
,264,2023-10-27 10:34:42.06,22,-301,-2038,35,34,12,371,-107,478,-132
,265,2023-10-27 10:34:42.07,19,-311,-2036,33,34,6,51,218,-167,-134
,266,2023-10-27 10:34:42.08,23,-307,-2042,30,27,2,383,-109,492,-137
,267,2023-10-27 10:34:42.09,41,-311,-2044,24,34,-3,64,226,-162,-145
,268,2023-10-27 10:34:42.10,34,-312,-2047,22,36,-3,379,-113,492,-133
,269,2023-10-27 10:34:42.11,38,-320,-2050,23,45,-6,41,219,-178,-130
,270,2023-10-27 10:34:42.12,37,-317,-2056,26,47,-5,363,-124,487,-119
,271,2023-10-27 10:34:42.13,28,-322,-2053,28,39,-1,28,217,-189,-122
,272,2023-10-27 10:34:42.14,36,-322,-2054,23,29,5,372,-115,487,-128
,273,2023-10-27 10:34:42.15,33,-330,-2043,15,23,9,24,230,-206,-127
,274,2023-10-27 10:34:42.16,26,-323,-2046,12,18,17,374,-115,489,-129
,275,2023-10-27 10:34:42.17,34,-315,-2036,7,10,22,28,223,-195,-125
,276,2023-10-27 10:34:42.18,23,-311,-2042,-1,5,27,382,-126,508,-128
,277,2023-10-27 10:34:42.19,28,-314,-2039,-8,2,32,27,213,-186,-120
,278,2023-10-27 10:34:42.20,32,-316,-2031,-11,-4,40,386,-125,511,-130
,279,2023-10-27 10:34:42.21,25,-317,-2033,-13,-5,46,16,219,-203,-117
,280,2023-10-27 10:34:42.22,21,-317,-2033,-6,-4,49,378,-126,504,-126
,281,2023-10-27 10:34:42.23,21,-310,-2021,1,-3,50,20,223,-203,-121
,282,2023-10-27 10:34:42.24,13,-306,-2014,8,0,50,384,-126,510,-129
,283,2023-10-27 10:34:42.25,34,-301,-2026,14,4,47,18,219,-201,-118
,284,2023-10-27 10:34:42.26,12,-300,-2035,17,9,38,391,-122,513,-134
,285,2023-10-27 10:34:42.27,12,-295,-2044,18,14,29,22,220,-198,-121
,286,2023-10-27 10:34:42.28,7,-298,-2047,19,18,23,396,-127,523,-134
,287,2023-10-27 10:34:42.29,8,-290,-2066,17,18,12,17,226,-209,-121
,288,2023-10-27 10:34:42.30,18,-295,-2054,14,15,6,387,-125,512,-131
,289,2023-10-27 10:34:42.31,27,-295,-2054,10,12,-2,21,212,-191,-116
,290,2023-10-27 10:34:42.32,30,-318,-2045,7,8,-3,396,-131,527,-132
,291,2023-10-27 10:34:42.33,28,-321,-2039,6,6,-2,20,212,-192,-116
,292,2023-10-27 10:34:42.34,24,-326,-2035,7,7,0,400,-128,528,-136
,293,2023-10-27 10:34:42.35,31,-324,-2031,8,8,0,24,218,-194,-121
,294,2023-10-27 10:34:42.36,25,-322,-2031,15,8,3,395,-126,521,-134
,295,2023-10-27 10:34:42.37,36,-321,-2037,20,10,4,22,218,-196,-120
,296,2023-10-27 10:34:42.38,23,-316,-2032,21,6,6,394,-120,514,-137
,297,2023-10-27 10:34:42.39,28,-317,-2035,15,0,5,17,216,-199,-116
,298,2023-10-27 10:34:42.40,21,-311,-2037,8,-6,3,393,-120,513,-136
,299,2023-10-27 10:34:42.41,21,-320,-2050,1,-3,7,24,209,-185,-116
,300,2023-10-27 10:34:42.42,27,-314,-2048,5,-3,5,387,-129,516,-129
,301,2023-10-27 10:34:42.43,19,-315,-2042,3,-6,8,14,203,-189,-108
,302,2023-10-27 10:34:42.44,6,-317,-2041,1,-9,9,387,-123,510,-132
,303,2023-10-27 10:34:42.45,28,-320,-2028,-1,-10,10,26,202,-176,-114
,304,2023-10-27 10:34:42.46,25,-319,-2027,-3,-4,11,388,-115,503,-136
,305,2023-10-27 10:34:42.47,18,-315,-2035,-2,1,12,19,209,-190,-114
,306,2023-10-27 10:34:42.48,17,-310,-2041,0,9,14,383,-111,494,-136
,307,2023-10-27 10:34:42.49,20,-299,-2043,1,6,15,23,206,-183,-114
,308,2023-10-27 10:34:42.50,27,-302,-2042,4,4,8,395,-105,500,-145
,309,2023-10-27 10:34:42.51,22,-301,-2044,2,1,9,29,196,-167,-112
,310,2023-10-27 10:34:42.52,26,-308,-2048,-2,-4,8,376,-108,484,-134
,311,2023-10-27 10:34:42.53,33,-305,-2045,-2,-3,2,9,179,-170,-94
,312,2023-10-27 10:34:42.54,16,-304,-2045,-4,-6,5,372,-112,484,-130
,313,2023-10-27 10:34:42.55,13,-309,-2038,-7,-6,10,28,187,-159,-107
,314,2023-10-27 10:34:42.56,20,-316,-2039,-8,-4,13,360,-108,468,-126
,315,2023-10-27 10:34:42.57,28,-309,-2044,-10,-4,15,22,184,-162,-103
,316,2023-10-27 10:34:42.58,29,-306,-2041,-14,0,16,360,-100,460,-130
,317,2023-10-27 10:34:42.59,27,-305,-2046,-12,5,17,30,175,-145,-102
,318,2023-10-27 10:34:42.60,25,-301,-2043,-12,5,19,364,-103,467,-130
,319,2023-10-27 10:34:42.61,20,-303,-2040,-11,4,19,32,173,-141,-102
,320,2023-10-27 10:34:42.62,21,-304,-2039,-6,3,19,354,-92,446,-131
,321,2023-10-27 10:34:42.63,19,-298,-2047,-3,0,20,34,176,-142,-105
,322,2023-10-27 10:34:42.64,18,-296,-2052,3,-1,17,348,-88,436,-130
,323,2023-10-27 10:34:42.65,19,-302,-2050,5,-2,15,43,167,-124,-105
,324,2023-10-27 10:34:42.66,16,-291,-2046,11,-5,14,350,-84,434,-133
,325,2023-10-27 10:34:42.67,22,-301,-2044,10,-8,11,48,158,-110,-103
,326,2023-10-27 10:34:42.68,17,-303,-2043,13,-8,12,347,-78,425,-134
,327,2023-10-27 10:34:42.69,14,-294,-2046,15,-9,15,51,158,-107,-104
,328,2023-10-27 10:34:42.70,19,-305,-2042,12,-6,17,339,-75,414,-132
,329,2023-10-27 10:34:42.71,18,-306,-2040,13,-3,20,58,154,-96,-106
,330,2023-10-27 10:34:42.72,21,-300,-2039,8,1,23,337,-67,404,-135
,331,2023-10-27 10:34:42.73,7,-298,-2042,7,4,23,67,147,-80,-107
,332,2023-10-27 10:34:42.74,14,-311,-2037,8,5,23,330,-57,387,-136
,333,2023-10-27 10:34:42.75,20,-306,-2037,4,6,24,66,146,-80,-106
,334,2023-10-27 10:34:42.76,11,-310,-2041,4,11,25,326,-61,387,-132
,335,2023-10-27 10:34:42.77,20,-311,-2042,9,16,28,72,134,-62,-103
,336,2023-10-27 10:34:42.78,16,-306,-2047,8,16,33,316,-49,365,-133
,337,2023-10-27 10:34:42.79,22,-301,-2036,8,16,33,78,129,-51,-103
,338,2023-10-27 10:34:42.80,10,-296,-2046,7,13,32,306,-44,350,-131
,339,2023-10-27 10:34:42.81,25,-295,-2044,11,9,32,78,126,-48,-102
,340,2023-10-27 10:34:42.82,13,-292,-2042,14,9,31,306,-37,343,-134
,341,2023-10-27 10:34:42.83,17,-302,-2039,14,6,28,91,121,-30,-106
,342,2023-10-27 10:34:42.84,31,-300,-2047,17,3,24,304,-27,331,-138
,343,2023-10-27 10:34:42.85,24,-296,-2041,18,1,21,101,111,-10,-106
,344,2023-10-27 10:34:42.86,25,-286,-2039,20,1,18,289,-25,314,-132
,345,2023-10-27 10:34:42.87,25,-286,-2049,17,5,15,97,98,-1,-97
,346,2023-10-27 10:34:42.88,12,-302,-2039,11,4,13,286,-23,309,-131
,347,2023-10-27 10:34:42.89,11,-307,-2038,6,4,8,106,94,12,-100
,348,2023-10-27 10:34:42.90,18,-322,-2033,5,8,5,282,-10,292,-136
,349,2023-10-27 10:34:42.91,17,-321,-2037,6,2,9,129,98,31,-113
,350,2023-10-27 10:34:42.92,26,-317,-2042,5,4,11,273,-6,279,-133
,351,2023-10-27 10:34:42.93,20,-308,-2045,-1,12,13,120,78,42,-99
,352,2023-10-27 10:34:42.94,20,-300,-2043,-9,26,15,260,-11,271,-124
,353,2023-10-27 10:34:42.95,30,-299,-2050,-8,30,16,133,75,58,-104
,354,2023-10-27 10:34:42.96,15,-300,-2071,-14,27,15,272,6,266,-139
,355,2023-10-27 10:34:42.97,25,-308,-2075,-18,17,18,142,65,77,-103
,356,2023-10-27 10:34:42.98,23,-310,-2054,-13,9,21,275,7,268,-141
,357,2023-10-27 10:34:42.99,30,-308,-2051,-7,6,26,166,50,116,-108
,358,2023-10-27 10:34:43.00,20,-300,-2044,-2,9,28,258,19,239,-138
,359,2023-10-27 10:34:43.01,22,-302,-2041,0,9,25,150,59,91,-104
,360,2023-10-27 10:34:43.02,29,-300,-2021,4,17,19,240,35,205,-137
,361,2023-10-27 10:34:43.03,32,-303,-2006,13,18,23,159,56,103,-107
,362,2023-10-27 10:34:43.04,37,-306,-2014,17,15,24,232,37,195,-134
,363,2023-10-27 10:34:43.05,31,-304,-2022,19,15,16,169,42,127,-105
,364,2023-10-27 10:34:43.06,32,-304,-2022,18,16,11,226,63,163,-144
,365,2023-10-27 10:34:43.07,36,-314,-2037,14,21,20,173,51,122,-112
,366,2023-10-27 10:34:43.08,37,-312,-2057,10,26,24,222,58,164,-140
,367,2023-10-27 10:34:43.09,40,-313,-2050,6,26,22,181,30,151,-105
,368,2023-10-27 10:34:43.10,40,-309,-2040,1,22,23,214,57,157,-135
,369,2023-10-27 10:34:43.11,33,-313,-2052,4,19,27,197,28,169,-112
,370,2023-10-27 10:34:43.12,47,-311,-2048,7,12,29,211,59,152,-135
,371,2023-10-27 10:34:43.13,36,-301,-2049,12,7,30,202,6,196,-104
,372,2023-10-27 10:34:43.14,38,-319,-2049,15,5,31,203,76,127,-139
,373,2023-10-27 10:34:43.15,54,-313,-2046,20,0,35,205,14,191,-109
,374,2023-10-27 10:34:43.16,35,-322,-2044,27,-4,39,192,86,106,-139
,375,2023-10-27 10:34:43.17,31,-317,-2060,31,-9,41,213,6,207,-109
,376,2023-10-27 10:34:43.18,33,-327,-2044,35,-12,38,178,82,96,-130
,377,2023-10-27 10:34:43.19,31,-329,-2039,35,-12,43,217,-6,223,-105
,378,2023-10-27 10:34:43.20,13,-326,-2052,35,-6,53,176,99,77,-137
,379,2023-10-27 10:34:43.21,12,-322,-2056,32,-14,53,228,-6,234,-111
,380,2023-10-27 10:34:43.22,14,-327,-2046,23,-14,55,176,106,70,-141
,381,2023-10-27 10:34:43.23,19,-327,-2051,17,-15,59,238,-7,245,-115
,382,2023-10-27 10:34:43.24,15,-326,-2054,18,-21,67,167,113,54,-140
,383,2023-10-27 10:34:43.25,11,-327,-2055,14,-24,69,246,-16,262,-115
,384,2023-10-27 10:34:43.26,15,-316,-2041,11,-25,71,153,112,41,-132
,385,2023-10-27 10:34:43.27,15,-300,-2034,9,-24,71,250,-28,278,-111
,386,2023-10-27 10:34:43.28,17,-302,-2014,10,-22,68,146,121,25,-133
,387,2023-10-27 10:34:43.29,13,-305,-2004,10,-19,65,254,-34,288,-110
,388,2023-10-27 10:34:43.30,32,-304,-2020,16,-20,55,144,128,16,-136
,389,2023-10-27 10:34:43.31,5,-263,-2049,33,-25,38,266,-38,304,-114
,390,2023-10-27 10:34:43.32,13,-306,-2065,30,-27,36,160,132,28,-146
,391,2023-10-27 10:34:43.33,15,-287,-2047,29,-33,29,288,-51,339,-118
,392,2023-10-27 10:34:43.34,10,-292,-2060,29,-43,24,126,139,-13,-132
,393,2023-10-27 10:34:43.35,22,-288,-2047,29,-64,17,261,-58,319,-101
,394,2023-10-27 10:34:43.36,4,-273,-2042,23,-71,8,122,146,-24,-134
,395,2023-10-27 10:34:43.37,17,-293,-2060,13,-68,6,290,-58,348,-116
,396,2023-10-27 10:34:43.38,8,-286,-2039,10,-86,8,112,138,-26,-125
,397,2023-10-27 10:34:43.39,6,-297,-2029,-1,-93,7,292,-58,350,-117
,398,2023-10-27 10:34:43.40,-5,-310,-2038,1,-101,3,114,159,-45,-136
,399,2023-10-27 10:34:43.41,1,-292,-2041,1,-113,7,305,-65,370,-120
,400,2023-10-27 10:34:43.42,-6,-294,-2060,-5,-113,14,100,162,-62,-131
,401,2023-10-27 10:34:43.43,-11,-294,-2056,-12,-118,17,300,-71,371,-114
,402,2023-10-27 10:34:43.44,-34,-300,-2055,-9,-123,18,103,166,-63,-134
,403,2023-10-27 10:34:43.45,-33,-298,-2046,-19,-133,22,316,-74,390,-121
,404,2023-10-27 10:34:43.46,-46,-290,-2055,-24,-134,22,102,171,-69,-136
,405,2023-10-27 10:34:43.47,-48,-287,-2054,-31,-136,25,327,-77,404,-125
,406,2023-10-27 10:34:43.48,-60,-281,-2052,-39,-135,23,98,171,-73,-134
,407,2023-10-27 10:34:43.49,-60,-279,-2059,-54,-132,22,339,-89,428,-125
,408,2023-10-27 10:34:43.50,-65,-267,-2064,-67,-128,17,98,179,-81,-138
,409,2023-10-27 10:34:43.51,-73,-258,-2073,-81,-120,12,340,-87,427,-126
,410,2023-10-27 10:34:43.52,-79,-253,-2063,-94,-110,7,82,191,-109,-136
,411,2023-10-27 10:34:43.53,-81,-254,-2040,-103,-104,-3,338,-80,418,-129
,412,2023-10-27 10:34:43.54,-72,-260,-2040,-110,-96,-9,80,196,-116,-138
,413,2023-10-27 10:34:43.55,-69,-243,-2040,-113,-84,-23,353,-91,444,-131
,414,2023-10-27 10:34:43.56,-75,-236,-2046,-115,-70,-36,76,195,-119,-135
,415,2023-10-27 10:34:43.57,-60,-225,-2038,-116,-54,-50,350,-98,448,-126
,416,2023-10-27 10:34:43.58,-66,-208,-2046,-124,-33,-71,68,200,-132,-134
,417,2023-10-27 10:34:43.59,-46,-191,-2031,-126,-14,-93,356,-97,453,-129
,418,2023-10-27 10:34:43.60,-47,-186,-2019,-129,-2,-116,68,203,-135,-135
,419,2023-10-27 10:34:43.61,-41,-187,-1989,-139,20,-139,366,-100,466,-133
,420,2023-10-27 10:34:43.62,-15,-191,-1989,-150,37,-162,58,204,-146,-131
,421,2023-10-27 10:34:43.63,-9,-207,-1983,-154,56,-187,362,-105,467,-128
,422,2023-10-27 10:34:43.64,9,-169,-2007,-155,86,-209,51,216,-165,-133
,423,2023-10-27 10:34:43.65,12,-180,-1990,-157,121,-225,361,-101,462,-130
,424,2023-10-27 10:34:43.66,57,-168,-1958,-182,164,-251,43,219,-176,-131
,425,2023-10-27 10:34:43.67,94,-204,-1963,-199,221,-273,360,-102,462,-129
,426,2023-10-27 10:34:43.68,77,-156,-1964,-213,255,-288,26,213,-187,-119
,427,2023-10-27 10:34:43.69,82,-149,-1960,-210,284,-301,364,-114,478,-125
,428,2023-10-27 10:34:43.70,104,-158,-1992,-198,290,-317,40,219,-179,-129
,429,2023-10-27 10:34:43.71,100,-156,-2002,-203,312,-343,379,-110,489,-134
,430,2023-10-27 10:34:43.72,101,-164,-2034,-207,337,-366,35,225,-190,-130
,431,2023-10-27 10:34:43.73,209,-176,-2004,-182,336,-388,377,-100,477,-138
,432,2023-10-27 10:34:43.74,153,-226,-2047,-172,336,-396,21,227,-206,-124
,433,2023-10-27 10:34:43.75,124,-239,-2047,-152,322,-404,374,-106,480,-134
,434,2023-10-27 10:34:43.76,197,-209,-2024,-130,296,-427,21,223,-202,-122
,435,2023-10-27 10:34:43.77,166,-228,-2058,-111,291,-421,386,-108,494,-139
,436,2023-10-27 10:34:43.78,160,-234,-2021,-103,268,-416,37,238,-201,-137
,437,2023-10-27 10:34:43.79,86,-267,-2015,-110,256,-437,395,-106,501,-144
,438,2023-10-27 10:34:43.80,109,-263,-2002,-71,152,-462,36,233,-197,-134
,439,2023-10-27 10:34:43.81,147,-255,-2085,-83,198,-460,396,-109,505,-143
,440,2023-10-27 10:34:43.82,139,-251,-2098,-99,200,-468,29,233,-204,-131
,441,2023-10-27 10:34:43.83,117,-239,-2146,-106,138,-493,397,-115,512,-141
,442,2023-10-27 10:34:43.84,91,-241,-2178,-122,63,-520,29,231,-202,-130
,443,2023-10-27 10:34:43.85,91,-264,-2179,-130,36,-545,396,-118,514,-139
,444,2023-10-27 10:34:43.86,99,-190,-2166,-147,-45,-562,35,230,-195,-132
,445,2023-10-27 10:34:43.87,91,-203,-2164,-208,-60,-585,408,-118,526,-145
,446,2023-10-27 10:34:43.88,95,-161,-2157,-253,-106,-619,38,226,-188,-132
,447,2023-10-27 10:34:43.89,82,-141,-2116,-325,-148,-655,413,-119,532,-147
,448,2023-10-27 10:34:43.90,90,-115,-2142,-393,-178,-698,36,224,-188,-130
,449,2023-10-27 10:34:43.91,50,-92,-2160,-445,-226,-735,405,-126,531,-139
,450,2023-10-27 10:34:43.92,78,-86,-2170,-514,-255,-781,35,213,-178,-124
,451,2023-10-27 10:34:43.93,43,-94,-2184,-577,-299,-828,416,-133,549,-141
,452,2023-10-27 10:34:43.94,50,-97,-2188,-642,-336,-878,44,213,-169,-128
,453,2023-10-27 10:34:43.95,17,-100,-2198,-684,-376,-925,420,-121,541,-149
,454,2023-10-27 10:34:43.96,1,-71,-2189,-722,-414,-965,38,218,-180,-128
,455,2023-10-27 10:34:43.97,5,-82,-2131,-753,-444,-995,410,-125,535,-142
,456,2023-10-27 10:34:43.98,6,-102,-2129,-776,-471,-1016,36,217,-181,-126
,457,2023-10-27 10:34:43.99,4,-79,-2072,-783,-480,-1031,407,-118,525,-144
,458,2023-10-27 10:34:44.00,1,-80,-2064,-783,-490,-1036,32,220,-188,-126
,459,2023-10-27 10:34:44.01,-30,-79,-2071,-781,-494,-1026,406,-112,518,-147
,460,2023-10-27 10:34:44.02,-33,-93,-2050,-758,-510,-1018,28,217,-189,-122
,461,2023-10-27 10:34:44.03,-33,-66,-2053,-710,-505,-989,402,-111,513,-145
,462,2023-10-27 10:34:44.04,-57,-46,-1998,-658,-514,-947,31,221,-190,-126
,463,2023-10-27 10:34:44.05,-71,-52,-2005,-600,-511,-883,391,-108,499,-141
,464,2023-10-27 10:34:44.06,-96,-44,-1996,-541,-494,-822,22,211,-189,-116
,465,2023-10-27 10:34:44.07,-110,-25,-1986,-487,-474,-751,390,-108,498,-141
,466,2023-10-27 10:34:44.08,-142,-21,-1993,-413,-449,-686,23,211,-188,-117
,467,2023-10-27 10:34:44.09,-140,-32,-2000,-345,-419,-615,391,-104,495,-143
,468,2023-10-27 10:34:44.10,-161,-9,-2014,-278,-376,-545,24,211,-187,-117
,469,2023-10-27 10:34:44.11,-192,-11,-2020,-200,-353,-471,390,-102,492,-144
,470,2023-10-27 10:34:44.12,-175,29,-2008,-144,-315,-405,34,207,-173,-120
,471,2023-10-27 10:34:44.13,-203,55,-1989,-98,-288,-334,387,-96,483,-145
,472,2023-10-27 10:34:44.14,-205,66,-2033,-50,-259,-270,39,208,-169,-123
,473,2023-10-27 10:34:44.15,-210,76,-2016,-25,-230,-207,390,-97,487,-146
,474,2023-10-27 10:34:44.16,-201,72,-2016,-12,-194,-156,39,194,-155,-116
,475,2023-10-27 10:34:44.17,-199,82,-2019,-1,-163,-102,380,-101,481,-139
,476,2023-10-27 10:34:44.18,-200,90,-2003,11,-136,-54,38,194,-156,-116
,477,2023-10-27 10:34:44.19,-222,102,-1996,13,-102,-19,378,-89,467,-144
,478,2023-10-27 10:34:44.20,-206,92,-2007,18,-71,19,33,183,-150,-108
,479,2023-10-27 10:34:44.21,-205,95,-1997,18,-43,50,382,-80,462,-151
,480,2023-10-27 10:34:44.22,-199,111,-2003,12,-12,80,53,188,-135,-120
,481,2023-10-27 10:34:44.23,-192,126,-2006,9,10,111,376,-81,457,-147
,482,2023-10-27 10:34:44.24,-200,131,-2008,-2,23,135,52,176,-124,-114
,483,2023-10-27 10:34:44.25,-190,139,-2006,-14,36,158,369,-80,449,-144
,484,2023-10-27 10:34:44.26,-180,141,-2002,-25,41,179,52,170,-118,-111
,485,2023-10-27 10:34:44.27,-182,149,-2002,-36,51,195,364,-71,435,-146
,486,2023-10-27 10:34:44.28,-170,150,-1993,-42,61,208,56,164,-108,-110
,487,2023-10-27 10:34:44.29,-167,161,-1999,-47,73,218,361,-71,432,-145
,488,2023-10-27 10:34:44.30,-150,154,-2008,-45,83,224,66,164,-98,-115
,489,2023-10-27 10:34:44.31,-145,154,-2011,-35,92,227,357,-55,412,-151
,490,2023-10-27 10:34:44.32,-134,147,-2018,-23,100,235,63,160,-97,-111
,491,2023-10-27 10:34:44.33,-135,144,-2029,-2,112,239,356,-54,410,-151
,492,2023-10-27 10:34:44.34,-135,127,-2041,18,124,237,78,150,-72,-114
,493,2023-10-27 10:34:44.35,-129,134,-2053,40,127,235,349,-53,402,-148
,494,2023-10-27 10:34:44.36,-124,132,-2065,53,129,236,80,146,-66,-113
,495,2023-10-27 10:34:44.37,-116,141,-2081,63,122,232,341,-47,388,-147
,496,2023-10-27 10:34:44.38,-117,160,-2097,72,117,225,85,136,-51,-110
,497,2023-10-27 10:34:44.39,-117,145,-2075,74,113,216,333,-37,370,-148
,498,2023-10-27 10:34:44.40,-100,140,-2089,82,108,204,88,128,-40,-108
,499,2023-10-27 10:34:44.41,-110,137,-2087,83,99,196,329,-30,359,-149
,500,2023-10-27 10:34:44.42,-111,143,-2099,84,87,186,93,130,-37,-111
,501,2023-10-27 10:34:44.43,-106,149,-2098,81,78,172,319,-20,339,-149
,502,2023-10-27 10:34:44.44,-108,149,-2080,72,70,165,101,124,-23,-112
,503,2023-10-27 10:34:44.45,-116,133,-2067,87,43,154,313,-17,330,-148
,504,2023-10-27 10:34:44.46,-99,140,-2079,77,42,138,105,110,-5,-107
,505,2023-10-27 10:34:44.47,-118,152,-2067,75,29,126,308,-11,319,-148
,506,2023-10-27 10:34:44.48,-106,154,-2064,76,24,110,112,109,3,-110
,507,2023-10-27 10:34:44.49,-107,156,-2057,73,18,95,302,5,297,-153
,508,2023-10-27 10:34:44.50,-96,145,-2036,64,12,83,122,109,13,-115
,509,2023-10-27 10:34:44.51,-104,121,-2043,56,5,70,290,9,281,-149
,510,2023-10-27 10:34:44.52,-107,151,-2066,45,-2,58,126,95,31,-110
,511,2023-10-27 10:34:44.53,-109,146,-2022,40,-16,45,291,13,278,-152
,512,2023-10-27 10:34:44.54,-108,141,-2049,32,-7,24,135,88,47,-111
,513,2023-10-27 10:34:44.55,-112,132,-2045,38,-1,6,290,30,260,-160
,514,2023-10-27 10:34:44.56,-118,123,-2028,46,-1,-1,141,83,58,-112
,515,2023-10-27 10:34:44.57,-125,124,-2033,39,6,-10,266,27,239,-146
,516,2023-10-27 10:34:44.58,-114,123,-2036,38,6,-19,144,73,71,-108
,517,2023-10-27 10:34:44.59,-113,120,-2040,36,12,-28,264,35,229,-149
,518,2023-10-27 10:34:44.60,-114,113,-2039,30,18,-31,152,70,82,-111
,519,2023-10-27 10:34:44.61,-101,109,-2045,24,22,-26,250,44,206,-147
,520,2023-10-27 10:34:44.62,-120,100,-2053,20,27,-21,158,66,92,-112
,521,2023-10-27 10:34:44.63,-117,92,-2055,14,34,-9,243,52,191,-147
,522,2023-10-27 10:34:44.64,-113,92,-2054,9,41,1,165,56,109,-110
,523,2023-10-27 10:34:44.65,-107,90,-2052,3,49,15,232,56,176,-144
,524,2023-10-27 10:34:44.66,-102,88,-2054,0,57,30,174,43,131,-108
,525,2023-10-27 10:34:44.67,-108,83,-2052,-2,63,46,238,54,184,-146
,526,2023-10-27 10:34:44.68,-96,79,-2045,-3,70,61,185,28,157,-106
,527,2023-10-27 10:34:44.69,-96,77,-2060,2,75,79,228,64,164,-146
,528,2023-10-27 10:34:44.70,-128,23,-2062,0,82,108,186,33,153,-109
,529,2023-10-27 10:34:44.71,-119,10,-2080,-15,89,162,210,76,134,-143
,530,2023-10-27 10:34:44.72,-134,-90,-2085,21,58,232,192,28,164,-110
,531,2023-10-27 10:34:44.73,-129,-133,-2062,48,17,346,206,88,118,-147
,532,2023-10-27 10:34:44.74,-101,-165,-2050,63,-7,481,204,21,183,-112
,533,2023-10-27 10:34:44.75,-64,-167,-2017,80,-18,630,209,99,110,-154
,534,2023-10-27 10:34:44.76,-82,-174,-2019,83,14,794,210,16,194,-113
,535,2023-10-27 10:34:44.77,-71,-218,-2015,88,55,968,193,99,94,-146
,536,2023-10-27 10:34:44.78,-43,-241,-2035,101,86,1157,208,5,203,-106
,537,2023-10-27 10:34:44.79,-16,-217,-1998,134,106,1347,174,104,70,-139
,538,2023-10-27 10:34:44.80,-11,-211,-2009,162,123,1541,209,5,204,-107
,539,2023-10-27 10:34:44.81,-11,-169,-2057,168,142,1727,164,119,45,-141
,540,2023-10-27 10:34:44.82,4,-161,-2088,179,140,1914,216,1,215,-108
,541,2023-10-27 10:34:44.83,48,-127,-2084,180,141,2067,165,129,36,-147
,542,2023-10-27 10:34:44.84,44,-87,-2094,183,137,2196,229,-7,236,-111
,543,2023-10-27 10:34:44.85,59,-45,-2127,198,136,2295,167,123,44,-145
,544,2023-10-27 10:34:44.86,88,-23,-2084,214,119,2371,244,-18,262,-113
,545,2023-10-27 10:34:44.87,103,4,-2098,205,128,2438,154,135,19,-144
,546,2023-10-27 10:34:44.88,95,48,-2100,206,125,2474,249,-18,267,-115
,547,2023-10-27 10:34:44.89,135,85,-2098,211,107,2508,146,138,8,-142
,548,2023-10-27 10:34:44.90,133,86,-2084,203,95,2520,259,-33,292,-113
,549,2023-10-27 10:34:44.91,126,98,-2100,182,79,2522,144,146,-2,-145
,550,2023-10-27 10:34:44.92,126,108,-2085,175,46,2501,264,-32,296,-116
,551,2023-10-27 10:34:44.93,119,145,-2091,172,4,2470,130,155,-25,-142
,552,2023-10-27 10:34:44.94,110,149,-2100,159,-7,2424,268,-36,304,-116
,553,2023-10-27 10:34:44.95,127,200,-2080,142,-57,2364,125,156,-31,-140
,554,2023-10-27 10:34:44.96,125,184,-2103,105,-55,2299,289,-38,327,-125
,555,2023-10-27 10:34:44.97,117,203,-2058,80,-97,2224,128,160,-32,-144
,556,2023-10-27 10:34:44.98,103,205,-2092,52,-102,2137,292,-53,345,-119
,557,2023-10-27 10:34:44.99,69,256,-2064,35,-124,2038,126,171,-45,-148
,558,2023-10-27 10:34:45.00,74,271,-2099,-13,-121,1937,300,-50,350,-125
,559,2023-10-27 10:34:45.01,50,305,-2115,-61,-124,1833,112,176,-64,-144
,560,2023-10-27 10:34:45.02,78,304,-2101,-104,-115,1742,297,-64,361,-116
,561,2023-10-27 10:34:45.03,22,295,-2118,-119,-167,1611,107,176,-69,-141
,562,2023-10-27 10:34:45.04,1,286,-2060,-144,-203,1489,315,-67,382,-124
,563,2023-10-27 10:34:45.05,13,315,-2053,-174,-210,1363,108,187,-79,-147
,564,2023-10-27 10:34:45.06,36,303,-2050,-183,-221,1240,317,-69,386,-124
,565,2023-10-27 10:34:45.07,26,336,-2026,-194,-234,1134,99,183,-84,-141
,566,2023-10-27 10:34:45.08,5,319,-2045,-197,-213,1018,319,-79,398,-120
,567,2023-10-27 10:34:45.09,-44,340,-2102,-204,-201,918,81,189,-108,-135
,568,2023-10-27 10:34:45.10,-19,316,-2018,-217,-200,810,322,-73,395,-124
,569,2023-10-27 10:34:45.11,-18,336,-2042,-220,-193,710,75,196,-121,-135
,570,2023-10-27 10:34:45.12,-28,351,-2053,-216,-208,609,330,-81,411,-124
,571,2023-10-27 10:34:45.13,-47,352,-2023,-240,-203,515,73,200,-127,-136
,572,2023-10-27 10:34:45.14,-53,364,-2066,-239,-196,415,330,-86,416,-122
,573,2023-10-27 10:34:45.15,-56,392,-2058,-226,-197,326,67,210,-143,-138
,574,2023-10-27 10:34:45.16,-47,354,-2028,-224,-215,249,337,-82,419,-127
,575,2023-10-27 10:34:45.17,-49,370,-1991,-229,-228,182,70,207,-137,-138
,576,2023-10-27 10:34:45.18,-52,339,-2024,-221,-210,115,349,-91,440,-129
,577,2023-10-27 10:34:45.19,-47,367,-1993,-215,-178,74,65,211,-146,-138
,578,2023-10-27 10:34:45.20,-39,321,-2021,-171,-185,21,352,-91,443,-130
,579,2023-10-27 10:34:45.21,-75,313,-2002,-140,-174,-22,52,218,-166,-135
,580,2023-10-27 10:34:45.22,-68,305,-2006,-113,-160,-59,349,-95,444,-127
,581,2023-10-27 10:34:45.23,-76,284,-2028,-76,-136,-89,56,219,-163,-137
,582,2023-10-27 10:34:45.24,-92,256,-2016,-25,-118,-111,357,-100,457,-128
,583,2023-10-27 10:34:45.25,-94,223,-2040,22,-103,-124,38,224,-186,-131
,584,2023-10-27 10:34:45.26,-102,195,-2056,75,-94,-128,352,-96,448,-128
,585,2023-10-27 10:34:45.27,-130,168,-2053,121,-92,-117,34,221,-187,-127
,586,2023-10-27 10:34:45.28,-124,180,-2065,152,-75,-108,362,-108,470,-127
,587,2023-10-27 10:34:45.29,-129,172,-2056,190,-81,-97,34,227,-193,-130
,588,2023-10-27 10:34:45.30,-124,171,-2051,211,-52,-96,360,-106,466,-127
,589,2023-10-27 10:34:45.31,-119,179,-2047,232,-79,-98,34,228,-194,-131
,590,2023-10-27 10:34:45.32,-132,168,-2060,245,-64,-107,367,-101,468,-133
,591,2023-10-27 10:34:45.33,-138,171,-2065,251,-67,-110,31,235,-204,-133
,592,2023-10-27 10:34:45.34,-133,153,-2056,245,-65,-116,377,-102,479,-137
,593,2023-10-27 10:34:45.35,-134,142,-2047,243,-66,-120,34,238,-204,-136
,594,2023-10-27 10:34:45.36,-142,117,-2034,239,-63,-113,384,-110,494,-137
,595,2023-10-27 10:34:45.37,-129,122,-2036,230,-59,-104,33,238,-205,-135
,596,2023-10-27 10:34:45.38,-107,128,-2026,220,-49,-93,383,-107,490,-138
,597,2023-10-27 10:34:45.39,-121,136,-2030,201,-40,-83,33,240,-207,-136
,598,2023-10-27 10:34:45.40,-126,161,-2015,179,-23,-80,393,-104,497,-144
,599,2023-10-27 10:34:45.41,-124,155,-2011,152,-7,-81,34,237,-203,-135
,600,2023-10-27 10:34:45.42,-124,156,-2032,135,-1,-88,398,-110,508,-144
,601,2023-10-27 10:34:45.43,-133,165,-2055,105,1,-107,22,229,-207,-125
,602,2023-10-27 10:34:45.44,-154,147,-2037,91,-2,-117,388,-110,498,-139
,603,2023-10-27 10:34:45.45,-137,130,-2039,85,-14,-128,26,240,-214,-133
,604,2023-10-27 10:34:45.46,-114,119,-2033,72,-6,-129,394,-113,507,-140
,605,2023-10-27 10:34:45.47,-112,109,-2030,67,-3,-126,27,231,-204,-129
,606,2023-10-27 10:34:45.48,-129,115,-2024,68,3,-115,398,-113,511,-142
,607,2023-10-27 10:34:45.49,-126,116,-2034,74,2,-110,23,226,-203,-124
,608,2023-10-27 10:34:45.50,-106,129,-2039,78,16,-110,400,-115,515,-142
,609,2023-10-27 10:34:45.51,-125,121,-2037,84,21,-108,23,232,-209,-127
,610,2023-10-27 10:34:45.52,-124,126,-2039,88,31,-113,396,-113,509,-141
,611,2023-10-27 10:34:45.53,-111,149,-2050,98,26,-121,21,233,-212,-127
,612,2023-10-27 10:34:45.54,-122,142,-2046,104,24,-135,391,-114,505,-138
,613,2023-10-27 10:34:45.55,-119,141,-2042,111,23,-150,17,226,-209,-121
,614,2023-10-27 10:34:45.56,-140,140,-2054,124,31,-170,394,-111,505,-141
,615,2023-10-27 10:34:45.57,-141,153,-2073,140,34,-192,14,226,-212,-120
,616,2023-10-27 10:34:45.58,-143,145,-2081,159,20,-212,394,-112,506,-141
,617,2023-10-27 10:34:45.59,-147,142,-2093,166,-2,-229,19,225,-206,-122
,618,2023-10-27 10:34:45.60,-157,140,-2093,155,-22,-252,391,-113,504,-139
,619,2023-10-27 10:34:45.61,-148,137,-2078,145,-27,-279,18,224,-206,-121
,620,2023-10-27 10:34:45.62,-148,140,-2080,135,-34,-303,392,-108,500,-142
,621,2023-10-27 10:34:45.63,-154,136,-2058,122,-27,-331,24,219,-195,-121
,622,2023-10-27 10:34:45.64,-158,159,-2073,116,-32,-356,400,-104,504,-148
,623,2023-10-27 10:34:45.65,-155,146,-2080,112,-40,-381,29,218,-189,-123
,624,2023-10-27 10:34:45.66,-156,142,-2081,95,-54,-412,400,-106,506,-147
,625,2023-10-27 10:34:45.67,-159,138,-2070,72,-51,-444,26,216,-190,-121
,626,2023-10-27 10:34:45.68,-157,138,-2056,53,-44,-475,396,-100,496,-148
,627,2023-10-27 10:34:45.69,-139,137,-2056,37,-31,-502,28,220,-192,-124
,628,2023-10-27 10:34:45.70,-145,127,-2042,27,-30,-519,388,-97,485,-145
,629,2023-10-27 10:34:45.71,-142,123,-2050,14,-28,-540,27,210,-183,-118
,630,2023-10-27 10:34:45.72,-152,114,-2026,-5,-25,-564,385,-92,477,-146
,631,2023-10-27 10:34:45.73,-119,137,-2025,-7,-10,-595,24,210,-186,-117
,632,2023-10-27 10:34:45.74,-123,123,-2037,-6,-4,-614,380,-87,467,-146
,633,2023-10-27 10:34:45.75,-130,131,-2031,-9,10,-631,29,202,-173,-115
,634,2023-10-27 10:34:45.76,-116,132,-2031,-6,24,-653,377,-92,469,-142
,635,2023-10-27 10:34:45.77,-130,130,-2036,-3,39,-681,24,200,-176,-112
,636,2023-10-27 10:34:45.78,-117,128,-2013,6,37,-701,370,-82,452,-144
,637,2023-10-27 10:34:45.79,-91,129,-2018,9,46,-726,30,191,-161,-110
,638,2023-10-27 10:34:45.80,-120,109,-2021,23,56,-746,367,-83,450,-142
,639,2023-10-27 10:34:45.81,-123,106,-2043,38,59,-767,33,185,-152,-109
,640,2023-10-27 10:34:45.82,-109,105,-2051,44,69,-787,364,-75,439,-144
,641,2023-10-27 10:34:45.83,-96,85,-2062,55,63,-806,33,185,-152,-109
,642,2023-10-27 10:34:45.84,-80,94,-2037,66,71,-828,353,-80,433,-136
,643,2023-10-27 10:34:45.85,-101,91,-2069,73,91,-853,43,181,-138,-112
,644,2023-10-27 10:34:45.86,-78,83,-2053,79,85,-869,359,-68,427,-145
,645,2023-10-27 10:34:45.87,-86,91,-2050,90,85,-890,49,176,-127,-112
,646,2023-10-27 10:34:45.88,-102,71,-2077,85,100,-901,350,-67,417,-141
,647,2023-10-27 10:34:45.89,-97,63,-2022,79,89,-925,48,164,-116,-106
,648,2023-10-27 10:34:45.90,-70,71,-2008,88,92,-943,346,-62,408,-142
,649,2023-10-27 10:34:45.91,-64,54,-2052,83,111,-961,52,158,-106,-105
,650,2023-10-27 10:34:45.92,-77,13,-2021,77,105,-979,346,-53,399,-146
,651,2023-10-27 10:34:45.93,-58,16,-2037,83,115,-1000,57,156,-99,-106
,652,2023-10-27 10:34:45.94,-69,-4,-2021,90,128,-1011,340,-51,391,-144
,653,2023-10-27 10:34:45.95,-38,11,-2003,77,154,-1026,67,152,-85,-109
,654,2023-10-27 10:34:45.96,-73,8,-2040,80,193,-1045,338,-43,381,-147
,655,2023-10-27 10:34:45.97,-54,-19,-2042,83,216,-1069,74,145,-71,-109
,656,2023-10-27 10:34:45.98,-26,15,-2027,76,231,-1088,338,-38,376,-150
,657,2023-10-27 10:34:45.99,-58,9,-2045,62,262,-1111,84,130,-46,-107
,658,2023-10-27 10:34:46.00,-40,-5,-2020,67,250,-1134,341,-44,385,-148
,659,2023-10-27 10:34:46.01,-34,-12,-2024,52,269,-1168,94,125,-31,-109
,660,2023-10-27 10:34:46.02,-22,-42,-2020,52,272,-1185,324,-35,359,-144
,661,2023-10-27 10:34:46.03,-14,-57,-2026,50,258,-1188,84,117,-33,-100
,662,2023-10-27 10:34:46.04,-18,-68,-2009,43,279,-1193,305,-28,333,-138
,663,2023-10-27 10:34:46.05,-1,-84,-2006,41,283,-1183,89,104,-15,-96
,664,2023-10-27 10:34:46.06,15,-86,-2040,36,302,-1172,306,-23,329,-141
,665,2023-10-27 10:34:46.07,32,-87,-2032,38,313,-1153,100,106,-6,-103
,666,2023-10-27 10:34:46.08,6,-122,-2040,30,333,-1121,297,-16,313,-140
,667,2023-10-27 10:34:46.09,28,-139,-2042,13,333,-1089,100,99,1,-99
,668,2023-10-27 10:34:46.10,9,-139,-2071,3,341,-1058,285,-2,287,-141
,669,2023-10-27 10:34:46.11,33,-155,-2047,-14,335,-1020,112,95,17,-103
,670,2023-10-27 10:34:46.12,15,-129,-2065,-34,334,-973,283,3,280,-143
,671,2023-10-27 10:34:46.13,18,-139,-2066,-44,322,-926,116,86,30,-101
,672,2023-10-27 10:34:46.14,22,-135,-2082,-51,291,-883,280,12,268,-146
,673,2023-10-27 10:34:46.15,41,-120,-2057,-73,279,-836,126,79,47,-102
,674,2023-10-27 10:34:46.16,23,-147,-2112,-77,245,-791,276,11,265,-143
,675,2023-10-27 10:34:46.17,54,-91,-2129,-90,225,-747,138,69,69,-103
,676,2023-10-27 10:34:46.18,45,-122,-2106,-100,201,-706,264,22,242,-143
,677,2023-10-27 10:34:46.19,51,-114,-2100,-115,182,-665,139,72,67,-105
,678,2023-10-27 10:34:46.20,48,-126,-2142,-123,171,-624,256,29,227,-142
,679,2023-10-27 10:34:46.21,27,-140,-2111,-114,136,-574,147,53,94,-100
,680,2023-10-27 10:34:46.22,34,-138,-2117,-109,101,-522,263,30,233,-146
,681,2023-10-27 10:34:46.23,38,-126,-2130,-102,77,-469,161,49,112,-105
,682,2023-10-27 10:34:46.24,26,-128,-2105,-99,60,-425,243,39,204,-141
,683,2023-10-27 10:34:46.25,27,-141,-2105,-95,41,-379,156,34,122,-95
,684,2023-10-27 10:34:46.26,20,-119,-2103,-84,9,-319,230,46,184,-138
,685,2023-10-27 10:34:46.27,22,-119,-2092,-75,-9,-272,165,32,133,-98
,686,2023-10-27 10:34:46.28,33,-107,-2091,-66,-21,-225,226,52,174,-139
,687,2023-10-27 10:34:46.29,41,-60,-2078,-65,-25,-183,170,30,140,-100
,688,2023-10-27 10:34:46.30,36,-45,-2061,-57,-27,-155,211,59,152,-135
,689,2023-10-27 10:34:46.31,24,-41,-2051,-54,-29,-131,179,22,157,-100
,690,2023-10-27 10:34:46.32,20,-33,-2057,-55,-24,-113,211,68,143,-139
,691,2023-10-27 10:34:46.33,32,-42,-2072,-50,-29,-93,196,16,180,-106
,692,2023-10-27 10:34:46.34,23,-40,-2073,-42,-29,-74,213,83,130,-148
,693,2023-10-27 10:34:46.35,30,-55,-2062,-34,-31,-52,200,13,187,-106
,694,2023-10-27 10:34:46.36,51,-62,-2054,-27,-26,-21,194,83,111,-138
,695,2023-10-27 10:34:46.37,32,-55,-2059,-13,-16,6,198,-2,200,-98
,696,2023-10-27 10:34:46.38,43,-47,-2051,-1,-8,34,184,86,98,-135
,697,2023-10-27 10:34:46.39,19,-36,-2050,12,-4,56,212,0,212,-106
,698,2023-10-27 10:34:46.40,41,-45,-2042,23,6,78,173,98,75,-135
,699,2023-10-27 10:34:46.41,41,-45,-2047,34,18,98,214,-11,225,-101
,700,2023-10-27 10:34:46.42,39,-40,-2042,44,23,118,173,103,70,-138
,701,2023-10-27 10:34:46.43,22,-42,-2058,51,31,135,228,-16,244,-106
,702,2023-10-27 10:34:46.44,39,-37,-2045,48,38,143,174,113,61,-143
,703,2023-10-27 10:34:46.45,48,-24,-2050,46,46,157,238,-18,256,-110
,704,2023-10-27 10:34:46.46,44,-22,-2047,48,53,166,159,113,46,-136
,705,2023-10-27 10:34:46.47,42,-21,-2042,45,58,171,238,-28,266,-105
,706,2023-10-27 10:34:46.48,43,-26,-2052,42,63,175,153,122,31,-137
,707,2023-10-27 10:34:46.49,29,-30,-2056,40,64,175,258,-33,291,-112
,708,2023-10-27 10:34:46.50,52,-29,-2067,40,59,174,152,128,24,-140
,709,2023-10-27 10:34:46.51,49,-28,-2067,39,58,178,256,-44,300,-106
,710,2023-10-27 10:34:46.52,42,-22,-2070,36,57,178,144,130,14,-137
,711,2023-10-27 10:34:46.53,42,-11,-2076,35,50,176,267,-44,311,-111
,712,2023-10-27 10:34:46.54,48,-6,-2073,31,49,174,134,143,-9,-138
,713,2023-10-27 10:34:46.55,56,2,-2072,25,42,167,273,-44,317,-114
,714,2023-10-27 10:34:46.56,54,4,-2074,18,38,158,125,147,-22,-136
,715,2023-10-27 10:34:46.57,50,-1,-2068,12,33,152,281,-54,335,-113
,716,2023-10-27 10:34:46.58,56,0,-2060,2,28,143,126,152,-26,-139
,717,2023-10-27 10:34:46.59,49,-2,-2058,-1,28,137,288,-62,350,-113
,718,2023-10-27 10:34:46.60,60,-6,-2065,-6,21,129,116,160,-44,-138
,719,2023-10-27 10:34:46.61,48,-5,-2072,-11,17,125,290,-67,357,-111
,720,2023-10-27 10:34:46.62,55,-10,-2073,-17,9,118,110,164,-54,-137
,721,2023-10-27 10:34:46.63,62,2,-2075,-21,6,117,305,-64,369,-120
,722,2023-10-27 10:34:46.64,45,-10,-2074,-27,4,111,108,170,-62,-139
,723,2023-10-27 10:34:46.65,61,-2,-2082,-27,0,109,308,-71,379,-118
,724,2023-10-27 10:34:46.66,57,7,-2065,-29,-4,105,95,165,-70,-130
,725,2023-10-27 10:34:46.67,54,1,-2072,-37,-1,102,317,-86,403,-115
,726,2023-10-27 10:34:46.68,53,6,-2066,-36,0,100,91,173,-82,-132
,727,2023-10-27 10:34:46.69,65,5,-2061,-37,-3,99,320,-82,402,-119
,728,2023-10-27 10:34:46.70,57,5,-2060,-39,-5,104,91,183,-92,-137
,729,2023-10-27 10:34:46.71,52,18,-2080,-41,-10,105,328,-84,412,-122
,730,2023-10-27 10:34:46.72,63,16,-2072,-49,-14,104,80,183,-103,-131
,731,2023-10-27 10:34:46.73,55,18,-2065,-55,-13,102,333,-94,427,-119
,732,2023-10-27 10:34:46.74,62,17,-2058,-53,-12,104,78,189,-111,-133
,733,2023-10-27 10:34:46.75,59,26,-2059,-53,-15,104,335,-94,429,-120
,734,2023-10-27 10:34:46.76,44,21,-2058,-51,-15,103,72,195,-123,-133
,735,2023-10-27 10:34:46.77,58,21,-2051,-54,-13,106,337,-100,437,-118
,736,2023-10-27 10:34:46.78,53,21,-2054,-53,-16,108,62,192,-130,-127
,737,2023-10-27 10:34:46.79,45,22,-2048,-61,-15,114,343,-102,445,-120
,738,2023-10-27 10:34:46.80,54,33,-2041,-59,-13,116,54,197,-143,-125
,739,2023-10-27 10:34:46.81,52,18,-2052,-59,-13,120,350,-105,455,-122
,740,2023-10-27 10:34:46.82,59,33,-2056,-66,-12,124,62,207,-145,-134
,741,2023-10-27 10:34:46.83,60,22,-2055,-66,-8,125,355,-108,463,-123
,742,2023-10-27 10:34:46.84,57,34,-2061,-64,-5,127,54,204,-150,-129
,743,2023-10-27 10:34:46.85,54,42,-2077,-61,1,130,352,-110,462,-121
,744,2023-10-27 10:34:46.86,34,39,-2075,-54,3,130,39,205,-166,-122
,745,2023-10-27 10:34:46.87,43,35,-2072,-55,9,134,358,-114,472,-122
,746,2023-10-27 10:34:46.88,40,42,-2079,-51,1,131,37,207,-170,-122
,747,2023-10-27 10:34:46.89,40,38,-2074,-49,-5,128,365,-120,485,-122
,748,2023-10-27 10:34:46.90,40,43,-2061,-41,-10,128,38,214,-176,-126
,749,2023-10-27 10:34:46.91,47,43,-2066,-37,-11,129,369,-117,486,-126
,750,2023-10-27 10:34:46.92,43,46,-2061,-29,-16,128,41,212,-171,-126
,751,2023-10-27 10:34:46.93,51,54,-2057,-27,-13,122,377,-116,493,-130
,752,2023-10-27 10:34:46.94,49,61,-2055,-28,-11,116,37,220,-183,-128
,753,2023-10-27 10:34:46.95,57,57,-2054,-28,-7,110,380,-120,500,-130
,754,2023-10-27 10:34:46.96,49,62,-2053,-26,-2,104,32,215,-183,-123
,755,2023-10-27 10:34:46.97,54,59,-2055,-23,-5,98,381,-127,508,-127
,756,2023-10-27 10:34:46.98,47,59,-2067,-23,-5,92,35,220,-185,-127
,757,2023-10-27 10:34:46.99,37,51,-2066,-24,-10,89,380,-120,500,-130
,758,2023-10-27 10:34:47.00,37,46,-2065,-24,-13,88,21,223,-202,-122
,759,2023-10-27 10:34:47.01,40,54,-2072,-24,-18,84,370,-122,492,-124
,760,2023-10-27 10:34:47.02,36,46,-2071,-25,-17,82,14,218,-204,-116
,761,2023-10-27 10:34:47.03,46,46,-2066,-21,-22,82,382,-128,510,-127
,762,2023-10-27 10:34:47.04,36,51,-2061,-17,-17,84,29,224,-195,-126
,763,2023-10-27 10:34:47.05,27,43,-2064,-16,-17,88,384,-130,514,-127
,764,2023-10-27 10:34:47.06,52,42,-2054,-10,-21,88,8,215,-207,-111
,765,2023-10-27 10:34:47.07,54,42,-2059,-11,-18,85,373,-135,508,-119
,766,2023-10-27 10:34:47.08,39,53,-2057,-4,-13,86,15,213,-198,-114
,767,2023-10-27 10:34:47.09,37,55,-2048,7,-10,84,388,-127,515,-130
,768,2023-10-27 10:34:47.10,42,62,-2047,9,0,83,14,225,-211,-119
,769,2023-10-27 10:34:47.11,46,52,-2046,11,4,81,388,-123,511,-132
,770,2023-10-27 10:34:47.12,36,59,-2056,12,11,77,11,224,-213,-117
,771,2023-10-27 10:34:47.13,43,67,-2054,15,14,73,389,-124,513,-132
,772,2023-10-27 10:34:47.14,37,67,-2068,15,18,70,20,220,-200,-120
,773,2023-10-27 10:34:47.15,53,59,-2064,19,8,68,389,-125,514,-132
,774,2023-10-27 10:34:47.16,34,56,-2058,19,14,62,8,214,-206,-111
,775,2023-10-27 10:34:47.17,37,62,-2065,18,16,55,390,-122,512,-134
,776,2023-10-27 10:34:47.18,45,58,-2058,18,18,50,14,215,-201,-114
,777,2023-10-27 10:34:47.19,52,61,-2059,19,22,44,394,-123,517,-135
,778,2023-10-27 10:34:47.20,46,59,-2059,20,23,40,19,215,-196,-117
,779,2023-10-27 10:34:47.21,53,53,-2060,21,27,35,392,-121,513,-135
,780,2023-10-27 10:34:47.22,47,52,-2057,22,28,34,21,214,-193,-117
,781,2023-10-27 10:34:47.23,51,48,-2059,21,28,31,393,-113,506,-140
,782,2023-10-27 10:34:47.24,42,49,-2058,25,27,30,18,214,-196,-116
,783,2023-10-27 10:34:47.25,53,47,-2061,26,26,27,397,-113,510,-142
,784,2023-10-27 10:34:47.26,58,45,-2059,28,26,28,22,212,-190,-117
,785,2023-10-27 10:34:47.27,51,43,-2063,30,27,31,392,-113,505,-139
,786,2023-10-27 10:34:47.28,44,47,-2056,31,23,31,21,209,-188,-115
,787,2023-10-27 10:34:47.29,59,45,-2062,28,20,32,378,-110,488,-134
,788,2023-10-27 10:34:47.30,59,45,-2073,25,20,31,14,207,-193,-110
,789,2023-10-27 10:34:47.31,51,39,-2073,23,18,33,380,-107,487,-136
,790,2023-10-27 10:34:47.32,53,41,-2067,19,18,34,20,200,-180,-110
,791,2023-10-27 10:34:47.33,66,41,-2076,16,15,37,378,-103,481,-137
,792,2023-10-27 10:34:47.34,67,38,-2064,12,14,40,20,200,-180,-110
,793,2023-10-27 10:34:47.35,56,46,-2075,11,9,41,378,-109,487,-134
,794,2023-10-27 10:34:47.36,47,49,-2066,9,8,38,22,179,-157,-100
,795,2023-10-27 10:34:47.37,56,46,-2064,11,7,38,375,-103,478,-136
,796,2023-10-27 10:34:47.38,56,47,-2065,11,3,37,26,196,-170,-111
,797,2023-10-27 10:34:47.39,55,52,-2066,13,2,37,369,-92,461,-138
,798,2023-10-27 10:34:47.40,48,42,-2070,13,-1,36,26,185,-159,-105
,799,2023-10-27 10:34:47.41,47,47,-2072,13,-2,34,367,-100,467,-133
,800,2023-10-27 10:34:47.42,47,54,-2072,10,-5,32,22,161,-139,-91
,801,2023-10-27 10:34:47.43,47,51,-2065,11,-9,33,368,-93,461,-137
,802,2023-10-27 10:34:47.44,47,56,-2069,10,-13,31,38,174,-136,-106
,803,2023-10-27 10:34:47.45,45,51,-2065,10,-13,31,369,-80,449,-144
,804,2023-10-27 10:34:47.46,48,50,-2047,8,-8,31,44,174,-130,-109
,805,2023-10-27 10:34:47.47,53,45,-2053,9,-5,35,360,-77,437,-141
,806,2023-10-27 10:34:47.48,52,46,-2060,12,-3,35,42,158,-116,-100
,807,2023-10-27 10:34:47.49,42,44,-2051,14,3,34,353,-74,427,-139
,808,2023-10-27 10:34:47.50,48,42,-2060,17,3,36,47,162,-115,-104
,809,2023-10-27 10:34:47.51,43,43,-2075,23,-1,40,353,-67,420,-143
,810,2023-10-27 10:34:47.52,42,53,-2075,26,-5,37,51,158,-107,-104
,811,2023-10-27 10:34:47.53,53,47,-2068,26,-3,33,339,-59,398,-140
,812,2023-10-27 10:34:47.54,52,62,-2065,27,2,32,58,157,-99,-107
,813,2023-10-27 10:34:47.55,53,61,-2066,26,3,28,337,-52,389,-142
,814,2023-10-27 10:34:47.56,54,53,-2073,25,6,23,57,149,-92,-103
,815,2023-10-27 10:34:47.57,48,57,-2066,24,4,18,327,-49,376,-139
,816,2023-10-27 10:34:47.58,50,46,-2064,19,1,19,60,140,-80,-100
,817,2023-10-27 10:34:47.59,32,46,-2060,18,-4,21,323,-44,367,-139
,818,2023-10-27 10:34:47.60,36,45,-2057,20,-3,20,69,134,-65,-101
,819,2023-10-27 10:34:47.61,44,50,-2051,25,1,20,318,-40,358,-139
,820,2023-10-27 10:34:47.62,57,51,-2048,23,1,23,77,127,-50,-102
,821,2023-10-27 10:34:47.63,44,54,-2047,21,3,20,316,-34,350,-141
,822,2023-10-27 10:34:47.64,31,43,-2061,21,4,18,85,118,-33,-101
,823,2023-10-27 10:34:47.65,42,36,-2061,22,4,18,307,-19,326,-144
,824,2023-10-27 10:34:47.66,43,39,-2064,22,4,21,88,121,-33,-104
,825,2023-10-27 10:34:47.67,53,41,-2063,22,3,24,305,-18,323,-143
,826,2023-10-27 10:34:47.68,42,41,-2062,22,3,25,98,108,-10,-103
,827,2023-10-27 10:34:47.69,46,40,-2060,22,0,27,294,-15,309,-139
,828,2023-10-27 10:34:47.70,45,51,-2065,22,-1,27,99,102,-3,-100
,829,2023-10-27 10:34:47.71,29,51,-2067,21,1,26,279,0,279,-139
,830,2023-10-27 10:34:47.72,46,50,-2065,20,3,23,101,99,2,-100
,831,2023-10-27 10:34:47.73,35,51,-2068,19,1,26,284,6,278,-145
,832,2023-10-27 10:34:47.74,30,37,-2060,21,1,26,113,91,22,-102
,833,2023-10-27 10:34:47.75,37,33,-2063,23,4,24,270,5,265,-137
,834,2023-10-27 10:34:47.76,47,30,-2065,27,0,27,113,82,31,-97
,835,2023-10-27 10:34:47.77,38,31,-2067,27,-3,30,262,14,248,-138
,836,2023-10-27 10:34:47.78,44,27,-2067,31,0,37,124,77,47,-100
,837,2023-10-27 10:34:47.79,52,25,-2052,30,6,42,258,22,236,-140
,838,2023-10-27 10:34:47.80,53,28,-2064,30,12,49,137,72,65,-104
,839,2023-10-27 10:34:47.81,43,27,-2053,28,15,57,257,29,228,-143
,840,2023-10-27 10:34:47.82,49,18,-2061,25,15,61,144,62,82,-103
,841,2023-10-27 10:34:47.83,58,8,-2062,23,11,76,235,26,209,-130
,842,2023-10-27 10:34:47.84,47,3,-2069,19,14,90,146,55,91,-100
,843,2023-10-27 10:34:47.85,54,-5,-2068,20,13,106,237,42,195,-139
,844,2023-10-27 10:34:47.86,46,-7,-2045,23,12,125,161,50,111,-105
,845,2023-10-27 10:34:47.87,37,-6,-2053,22,12,146,234,50,184,-142
,846,2023-10-27 10:34:47.88,47,-10,-2073,17,14,169,163,39,124,-101
,847,2023-10-27 10:34:47.89,46,-27,-2050,18,3,195,218,52,166,-135
,848,2023-10-27 10:34:47.90,43,-60,-2070,14,16,212,169,32,137,-100
,849,2023-10-27 10:34:47.91,38,-102,-2085,35,14,256,224,63,161,-143
,850,2023-10-27 10:34:47.92,32,-141,-2073,59,4,316,180,22,158,-101
,851,2023-10-27 10:34:47.93,50,-135,-2049,75,-7,397,214,72,142,-143
,852,2023-10-27 10:34:47.94,60,-144,-2053,73,9,474,187,25,162,-106
,853,2023-10-27 10:34:47.95,59,-117,-2052,70,26,553,206,85,121,-145
,854,2023-10-27 10:34:47.96,66,-91,-2058,70,35,624,194,17,177,-105
,855,2023-10-27 10:34:47.97,58,-65,-2062,68,42,692,192,87,105,-139
,856,2023-10-27 10:34:47.98,58,-46,-2062,55,44,748,198,13,185,-105
,857,2023-10-27 10:34:47.99,72,-31,-2050,47,33,793,185,95,90,-140
,858,2023-10-27 10:34:48.00,69,-49,-2054,31,22,836,209,4,205,-106
,859,2023-10-27 10:34:48.01,102,-61,-2058,17,35,878,176,91,85,-133
,860,2023-10-27 10:34:48.02,74,-31,-2066,-2,29,934,218,-10,228,-104
,861,2023-10-27 10:34:48.03,86,-18,-2083,-20,42,975,170,99,71,-134
,862,2023-10-27 10:34:48.04,71,-13,-2062,-18,27,1009,224,-5,229,-109
,863,2023-10-27 10:34:48.05,82,-14,-2082,-35,27,1035,166,112,54,-139
,864,2023-10-27 10:34:48.06,51,7,-2092,-51,25,1063,235,-13,248,-111
,865,2023-10-27 10:34:48.07,61,-17,-2073,-61,-1,1090,159,116,43,-137
,866,2023-10-27 10:34:48.08,76,-26,-2086,-49,-40,1124,240,-23,263,-108
,867,2023-10-27 10:34:48.09,92,-6,-2065,-49,-65,1151,161,123,38,-142
,868,2023-10-27 10:34:48.10,122,-2,-2063,-63,-66,1174,252,-28,280,-112
,869,2023-10-27 10:34:48.11,101,34,-2077,-64,-68,1195,147,123,24,-135
,870,2023-10-27 10:34:48.12,90,33,-2075,-56,-41,1205,252,-36,288,-108
,871,2023-10-27 10:34:48.13,97,73,-2086,-37,-43,1207,139,135,4,-137
,872,2023-10-27 10:34:48.14,73,45,-2060,-33,-40,1195,260,-35,295,-112
,873,2023-10-27 10:34:48.15,74,47,-2071,-32,-42,1187,133,141,-8,-137
,874,2023-10-27 10:34:48.16,95,13,-2063,-23,-65,1185,266,-44,310,-111
,875,2023-10-27 10:34:48.17,100,9,-2052,-11,-73,1204,126,146,-20,-136
,876,2023-10-27 10:34:48.18,102,42,-2028,-11,-84,1216,278,-50,328,-114
,877,2023-10-27 10:34:48.19,88,38,-2057,-16,-68,1226,122,148,-26,-135
,878,2023-10-27 10:34:48.20,44,55,-2068,-14,-65,1228,280,-54,334,-113
,879,2023-10-27 10:34:48.21,34,43,-2086,-13,-65,1235,122,155,-33,-138
,880,2023-10-27 10:34:48.22,78,-9,-2020,-2,-94,1251,288,-64,352,-112
,881,2023-10-27 10:34:48.23,73,-28,-2042,15,-96,1275,111,162,-51,-136
,882,2023-10-27 10:34:48.24,101,-18,-2013,15,-94,1309,282,-77,359,-102
,883,2023-10-27 10:34:48.25,114,-3,-2061,5,-61,1339,102,164,-62,-133
,884,2023-10-27 10:34:48.26,111,-15,-2038,8,-41,1375,298,-67,365,-115
,885,2023-10-27 10:34:48.27,112,11,-2029,30,-20,1407,91,176,-85,-133
,886,2023-10-27 10:34:48.28,112,-5,-2046,40,5,1429,293,-78,371,-107
,887,2023-10-27 10:34:48.29,86,-8,-2043,34,8,1460,84,166,-82,-125
,888,2023-10-27 10:34:48.30,92,4,-2026,35,27,1479,307,-88,395,-109
,889,2023-10-27 10:34:48.31,94,31,-2051,37,30,1497,88,176,-88,-132
,890,2023-10-27 10:34:48.32,106,22,-2051,26,51,1513,318,-79,397,-119
,891,2023-10-27 10:34:48.33,103,73,-2054,32,49,1514,74,181,-107,-127
,892,2023-10-27 10:34:48.34,92,64,-2074,29,54,1506,320,-85,405,-117
,893,2023-10-27 10:34:48.35,121,78,-2064,26,50,1492,71,188,-117,-129
,894,2023-10-27 10:34:48.36,143,104,-2072,14,53,1493,330,-86,416,-122
,895,2023-10-27 10:34:48.37,128,97,-2079,9,65,1446,77,199,-122,-138
,896,2023-10-27 10:34:48.38,131,124,-2076,0,30,1422,341,-90,431,-125
,897,2023-10-27 10:34:48.39,117,124,-2101,-18,50,1383,69,198,-129,-133
,898,2023-10-27 10:34:48.40,92,136,-2086,-39,28,1339,339,-96,435,-121
,899,2023-10-27 10:34:48.41,99,138,-2085,-43,9,1292,53,202,-149,-127
,900,2023-10-27 10:34:48.42,104,115,-2062,-44,-7,1251,340,-99,439,-120
,901,2023-10-27 10:34:48.43,91,112,-2069,-48,-31,1206,58,206,-148,-132
,902,2023-10-27 10:34:48.44,95,115,-2092,-47,2,1160,353,-103,456,-125
,903,2023-10-27 10:34:48.45,116,134,-2048,-31,-33,1125,51,205,-154,-128
,904,2023-10-27 10:34:48.46,108,119,-2090,-43,-19,1084,350,-109,459,-120
,905,2023-10-27 10:34:48.47,106,136,-2045,-31,-30,1045,47,201,-154,-124
,906,2023-10-27 10:34:48.48,95,119,-2076,-32,-23,997,362,-111,473,-125
,907,2023-10-27 10:34:48.49,85,135,-2074,-39,-24,954,51,214,-163,-132
,908,2023-10-27 10:34:48.50,95,108,-2072,-36,-28,915,364,-108,472,-128
,909,2023-10-27 10:34:48.51,81,104,-2071,-28,-37,891,41,210,-169,-125
,910,2023-10-27 10:34:48.52,90,75,-2057,-17,-37,859,370,-116,486,-127
,911,2023-10-27 10:34:48.53,154,113,-1969,-24,-15,844,39,217,-178,-128
,912,2023-10-27 10:34:48.54,118,96,-2079,6,-22,840,368,-114,482,-127
,913,2023-10-27 10:34:48.55,84,65,-2039,11,-2,833,28,214,-186,-121
,914,2023-10-27 10:34:48.56,77,48,-2029,13,17,816,366,-120,486,-123
,915,2023-10-27 10:34:48.57,111,8,-2070,21,23,804,29,215,-186,-122
,916,2023-10-27 10:34:48.58,125,32,-2007,40,41,815,374,-118,492,-128
,917,2023-10-27 10:34:48.59,86,11,-2012,52,61,833,26,219,-193,-122
,918,2023-10-27 10:34:48.60,95,-13,-2022,57,81,855,373,-121,494,-126
,919,2023-10-27 10:34:48.61,101,-2,-2037,56,112,875,23,216,-193,-119
,920,2023-10-27 10:34:48.62,79,19,-2019,48,130,893,389,-123,512,-133
,921,2023-10-27 10:34:48.63,115,-1,-1990,47,152,907,20,215,-195,-117
,922,2023-10-27 10:34:48.64,111,4,-2027,52,181,927,384,-120,504,-132
,923,2023-10-27 10:34:48.65,89,-25,-2014,34,191,950,12,212,-200,-112
,924,2023-10-27 10:34:48.66,77,-23,-2083,11,235,972,388,-125,513,-131
,925,2023-10-27 10:34:48.67,122,16,-1963,-2,237,996,20,217,-197,-118
,926,2023-10-27 10:34:48.68,132,-32,-2057,-14,288,1027,388,-126,514,-131
,927,2023-10-27 10:34:48.69,140,-29,-2010,-44,305,1050,21,224,-203,-122
,928,2023-10-27 10:34:48.70,119,-16,-1990,-55,326,1074,395,-122,517,-136
,929,2023-10-27 10:34:48.71,143,-17,-2023,-75,357,1101,23,213,-190,-118
,930,2023-10-27 10:34:48.72,146,-15,-1994,-90,400,1118,398,-127,525,-135
,931,2023-10-27 10:34:48.73,198,15,-1972,-117,426,1135,20,222,-202,-121
,932,2023-10-27 10:34:48.74,196,-4,-1907,-118,453,1158,395,-121,516,-137
,933,2023-10-27 10:34:48.75,197,-64,-1973,-115,490,1194,19,221,-202,-120
,934,2023-10-27 10:34:48.76,195,-9,-1988,-126,530,1228,387,-121,508,-133
,935,2023-10-27 10:34:48.77,226,19,-1994,-152,563,1261,3,223,-220,-113
,936,2023-10-27 10:34:48.78,253,61,-2042,-159,602,1265,378,-119,497,-129
,937,2023-10-27 10:34:48.79,241,46,-2091,-168,615,1276,8,223,-215,-115
,938,2023-10-27 10:34:48.80,284,93,-2007,-180,615,1265,387,-120,507,-133
,939,2023-10-27 10:34:48.81,288,50,-2078,-211,635,1256,12,221,-209,-116
,940,2023-10-27 10:34:48.82,266,63,-2038,-236,624,1254,386,-118,504,-134
,941,2023-10-27 10:34:48.83,302,55,-2103,-232,608,1244,17,219,-202,-118
,942,2023-10-27 10:34:48.84,353,87,-2038,-248,597,1229,390,-120,510,-135
,943,2023-10-27 10:34:48.85,326,132,-2054,-248,575,1222,18,210,-192,-114
,944,2023-10-27 10:34:48.86,363,124,-2080,-262,589,1188,390,-118,508,-136
,945,2023-10-27 10:34:48.87,367,112,-2087,-265,550,1165,24,215,-191,-119
,946,2023-10-27 10:34:48.88,386,132,-2024,-282,536,1131,389,-108,497,-140
,947,2023-10-27 10:34:48.89,401,62,-2044,-265,484,1115,18,216,-198,-117
,948,2023-10-27 10:34:48.90,423,80,-2115,-239,491,1101,391,-112,503,-139
,949,2023-10-27 10:34:48.91,411,121,-2082,-253,447,1083,30,210,-180,-120
,950,2023-10-27 10:34:48.92,454,98,-2083,-237,425,1073,389,-106,495,-141
,951,2023-10-27 10:34:48.93,485,86,-2083,-221,400,1060,26,208,-182,-117
,952,2023-10-27 10:34:48.94,474,125,-2067,-204,341,1059,374,-104,478,-135
,953,2023-10-27 10:34:48.95,526,129,-2060,-176,313,1058,18,202,-184,-110
,954,2023-10-27 10:34:48.96,509,138,-2048,-189,339,1037,373,-107,480,-133
,955,2023-10-27 10:34:48.97,508,103,-2103,-196,303,1023,28,194,-166,-111
,956,2023-10-27 10:34:48.98,509,129,-2102,-203,284,1007,376,-101,477,-137
,957,2023-10-27 10:34:48.99,445,130,-2098,-186,244,1001,35,197,-162,-116
,958,2023-10-27 10:34:49.00,523,156,-2059,-163,223,978,366,-94,460,-136
,959,2023-10-27 10:34:49.01,546,147,-2054,-196,230,954,26,196,-170,-111
,960,2023-10-27 10:34:49.02,541,164,-2041,-199,193,936,361,-86,447,-137
,961,2023-10-27 10:34:49.03,484,93,-2196,-178,162,907,46,197,-151,-121
,962,2023-10-27 10:34:49.04,533,159,-2024,-156,114,882,369,-84,453,-142
,963,2023-10-27 10:34:49.05,553,159,-2020,-178,166,838,48,187,-139,-117
,964,2023-10-27 10:34:49.06,545,139,-2065,-195,146,813,341,-96,437,-122
,965,2023-10-27 10:34:49.07,573,145,-2016,-165,124,797,43,176,-133,-109
,966,2023-10-27 10:34:49.08,563,146,-2011,-121,103,771,348,-78,426,-135
,967,2023-10-27 10:34:49.09,535,154,-2049,-110,99,761,50,184,-134,-117
,968,2023-10-27 10:34:49.10,490,95,-2107,-106,81,748,349,-76,425,-136
,969,2023-10-27 10:34:49.11,522,108,-2029,-91,102,748,60,167,-107,-113
,970,2023-10-27 10:34:49.12,564,152,-2016,-105,114,723,338,-71,409,-133
,971,2023-10-27 10:34:49.13,586,150,-1980,-106,89,714,64,168,-104,-116
,972,2023-10-27 10:34:49.14,575,114,-2007,-106,87,708,339,-64,403,-137
,973,2023-10-27 10:34:49.15,568,198,-1966,-80,23,710,77,158,-81,-117
,974,2023-10-27 10:34:49.16,566,105,-2013,-111,66,707,324,-67,391,-128
,975,2023-10-27 10:34:49.17,543,85,-2039,-131,54,704,71,149,-78,-110
,976,2023-10-27 10:34:49.18,604,131,-1956,-136,27,701,302,-60,362,-121
,977,2023-10-27 10:34:49.19,600,146,-1966,-68,-43,697,64,146,-82,-105
,978,2023-10-27 10:34:49.20,558,93,-2000,-95,36,688,308,-52,360,-128
,979,2023-10-27 10:34:49.21,557,119,-2007,-123,20,693,91,139,-48,-115
,980,2023-10-27 10:34:49.22,563,118,-2072,-114,19,684,299,-46,345,-126
,981,2023-10-27 10:34:49.23,564,61,-1995,-95,26,679,82,140,-58,-111
,982,2023-10-27 10:34:49.24,573,100,-1999,-87,7,663,270,-34,304,-118
,983,2023-10-27 10:34:49.25,548,77,-2003,-89,-21,663,76,134,-58,-105
,984,2023-10-27 10:34:49.26,578,119,-2031,-94,30,637,267,-32,299,-117
,985,2023-10-27 10:34:49.27,535,142,-2045,-113,30,633,103,121,-18,-112
,986,2023-10-27 10:34:49.28,568,125,-1944,-114,-6,619,275,-25,300,-125
,987,2023-10-27 10:34:49.29,554,148,-2035,-121,18,608,100,122,-22,-111
,988,2023-10-27 10:34:49.30,536,103,-2083,-127,-10,597,249,-15,264,-117
,989,2023-10-27 10:34:49.31,577,111,-1974,-99,-57,595,97,112,-15,-104
,990,2023-10-27 10:34:49.32,604,144,-1997,-109,-8,569,240,-13,253,-113
,991,2023-10-27 10:34:49.33,525,19,-2119,-115,-31,568,111,106,5,-108
,992,2023-10-27 10:34:49.34,589,200,-1984,-64,-54,555,235,4,231,-119
,993,2023-10-27 10:34:49.35,562,99,-2096,-75,-42,545,118,104,14,-111
,994,2023-10-27 10:34:49.36,625,98,-2024,-112,-92,545,226,0,226,-113
,995,2023-10-27 10:34:49.37,590,64,-2096,-120,-92,548,131,88,43,-109
,996,2023-10-27 10:34:49.38,598,76,-2057,-131,-145,555,212,6,206,-109
,997,2023-10-27 10:34:49.39,550,37,-2103,-160,-170,573,124,82,42,-103
,998,2023-10-27 10:34:49.40,618,47,-2080,-188,-247,577,187,10,177,-98
,999,2023-10-27 10:34:49.41,640,50,-2129,-225,-305,603,126,72,54,-99
,1000,2023-10-27 10:34:49.42,609,50,-2107,-258,-362,607,189,18,171,-103
,1001,2023-10-27 10:34:49.43,575,35,-2139,-304,-437,644,146,69,77,-107
,1002,2023-10-27 10:34:49.44,581,35,-2079,-356,-484,659,179,40,139,-109
,1003,2023-10-27 10:34:49.45,588,75,-2109,-394,-564,684,133,68,65,-100
,1004,2023-10-27 10:34:49.46,552,59,-2081,-446,-607,683,152,35,117,-93
,1005,2023-10-27 10:34:49.47,551,99,-2029,-491,-649,699,128,199,-71,-163
,1006,2023-10-27 10:34:49.48,481,16,-2070,-541,-673,700,162,797,-635,-479
,1007,2023-10-27 10:34:49.49,487,89,-2081,-575,-707,704,171,1901,-1730,-1036
,1008,2023-10-27 10:34:49.50,473,104,-2014,-605,-736,701,186,2047,-1861,-1116
,1009,2023-10-27 10:34:49.51,470,150,-2017,-608,-765,709,201,2047,-1846,-1124
,1010,2023-10-27 10:34:49.52,435,157,-2004,-631,-759,718,204,2047,-1843,-1125
,1011,2023-10-27 10:34:49.53,402,161,-1993,-643,-762,727,203,2046,-1843,-1124
,1012,2023-10-27 10:34:49.54,383,218,-1959,-640,-747,740,159,2047,-1888,-1103
,1013,2023-10-27 10:34:49.55,385,237,-1968,-635,-726,731,189,2047,-1858,-1118
,1014,2023-10-27 10:34:49.56,372,241,-1994,-620,-718,716,168,2046,-1878,-1107
,1015,2023-10-27 10:34:49.57,252,262,-1996,-608,-710,692,180,2046,-1866,-1113
,1016,2023-10-27 10:34:49.58,310,277,-1976,-604,-699,681,160,2047,-1887,-1103
,1017,2023-10-27 10:34:49.59,330,318,-2043,-574,-677,656,178,2038,-1860,-1108
,1018,2023-10-27 10:34:49.60,336,312,-1988,-543,-663,636,177,2038,-1861,-1107
,1019,2023-10-27 10:34:49.61,290,345,-1954,-533,-645,627,198,2036,-1838,-1117
,1020,2023-10-27 10:34:49.62,247,388,-2001,-508,-608,590,198,2036,-1838,-1117
,1021,2023-10-27 10:34:49.63,230,346,-1978,-474,-588,569,236,2043,-1807,-1139
,1022,2023-10-27 10:34:49.64,248,390,-1986,-436,-559,543,244,2040,-1796,-1142
,1023,2023-10-27 10:34:49.65,232,372,-1949,-409,-543,518,236,2043,-1807,-1139
,1024,2023-10-27 10:34:49.66,211,383,-1978,-354,-470,481,237,2047,-1810,-1142
,1025,2023-10-27 10:34:49.67,152,383,-2024,-315,-432,465,189,2047,-1858,-1118
,1026,2023-10-27 10:34:49.68,183,429,-1973,-275,-411,454,198,2045,-1847,-1121
,1027,2023-10-27 10:34:49.69,142,413,-1971,-259,-370,454,132,2039,-1907,-1085
,1028,2023-10-27 10:34:49.70,145,419,-1958,-233,-336,423,182,2038,-1856,-1110
,1029,2023-10-27 10:34:49.71,130,395,-2003,-200,-282,406,142,2037,-1895,-1089
,1030,2023-10-27 10:34:49.72,131,429,-1996,-175,-277,380,204,2047,-1843,-1125
,1031,2023-10-27 10:34:49.73,129,437,-1980,-136,-253,342,133,2045,-1912,-1089
,1032,2023-10-27 10:34:49.74,125,457,-1982,-113,-224,302,174,2040,-1866,-1107
,1033,2023-10-27 10:34:49.75,123,447,-1988,-108,-218,259,102,2046,-1944,-1074
,1034,2023-10-27 10:34:49.76,113,452,-1948,-106,-139,251,158,2037,-1879,-1097
,1035,2023-10-27 10:34:49.77,76,421,-2016,-96,-187,207,124,2046,-1922,-1085
,1036,2023-10-27 10:34:49.78,129,389,-2013,-90,-181,173,195,2046,-1851,-1120
,1037,2023-10-27 10:34:49.79,117,412,-2006,-84,-177,149,169,2045,-1876,-1107
,1038,2023-10-27 10:34:49.80,109,410,-2016,-84,-160,114,234,2044,-1810,-1139
,1039,2023-10-27 10:34:49.81,115,400,-2022,-71,-154,91,176,2047,-1871,-1111
,1040,2023-10-27 10:34:49.82,105,394,-2013,-59,-137,79,216,2042,-1826,-1129
,1041,2023-10-27 10:34:49.83,104,387,-2018,-54,-124,75,166,2034,-1868,-1100
,1042,2023-10-27 10:34:49.84,121,371,-2001,-39,-115,75,220,2015,-1795,-1117
,1043,2023-10-27 10:34:49.85,103,372,-2003,-24,-108,77,172,1931,-1759,-1051
,1044,2023-10-27 10:34:49.86,94,367,-2009,-18,-89,81,206,1886,-1680,-1046
,1045,2023-10-27 10:34:49.87,97,387,-1989,-4,-74,84,142,1536,-1394,-839
,1046,2023-10-27 10:34:49.88,96,379,-1991,7,-48,85,196,1536,-1340,-866
,1047,2023-10-27 10:34:49.89,83,390,-2007,15,-28,81,141,1139,-998,-640
,1048,2023-10-27 10:34:49.90,91,375,-2014,20,-10,68,176,1224,-1048,-700
,1049,2023-10-27 10:34:49.91,88,374,-2018,25,3,57,142,844,-702,-493
,1050,2023-10-27 10:34:49.92,101,371,-2014,27,13,47,171,996,-825,-583
,1051,2023-10-27 10:34:49.93,100,368,-2019,19,17,41,127,631,-504,-379
,1052,2023-10-27 10:34:49.94,104,370,-2027,13,17,36,150,825,-675,-487
,1053,2023-10-27 10:34:49.95,97,371,-2031,7,11,30,141,476,-335,-308
,1054,2023-10-27 10:34:49.96,108,363,-2026,1,5,22,156,686,-530,-421
,1055,2023-10-27 10:34:49.97,109,352,-2031,2,-3,15,128,335,-207,-231
,1056,2023-10-27 10:34:49.98,108,357,-2023,-2,-8,15,161,576,-415,-368
,1057,2023-10-27 10:34:49.99,120,352,-2013,-4,-8,24,157,245,-88,-201
,1058,2023-10-27 10:34:50.00,113,354,-2026,-5,-2,36,174,493,-319,-333
,1059,2023-10-27 10:34:50.01,115,366,-2032,-6,-3,44,127,161,-34,-144
,1060,2023-10-27 10:34:50.02,114,368,-2033,-10,-6,45,121,403,-282,-262
,1061,2023-10-27 10:34:50.03,110,378,-2018,-10,-10,43,110,81,29,-95
,1062,2023-10-27 10:34:50.04,119,383,-2023,-11,-8,41,144,348,-204,-246
,1063,2023-10-27 10:34:50.05,118,375,-2019,-10,-6,39,156,41,115,-98
,1064,2023-10-27 10:34:50.06,118,375,-2032,-1,-10,42,163,317,-154,-240
,1065,2023-10-27 10:34:50.07,105,379,-2035,5,-9,43,152,14,138,-83
,1066,2023-10-27 10:34:50.08,99,374,-2032,10,-4,41,140,282,-142,-211
,1067,2023-10-27 10:34:50.09,90,382,-2036,13,-7,39,113,-37,150,-38
,1068,2023-10-27 10:34:50.10,110,384,-2019,19,3,39,93,235,-142,-164
,1069,2023-10-27 10:34:50.11,100,380,-2036,19,1,35,128,-62,190,-33
,1070,2023-10-27 10:34:50.12,104,375,-2027,15,1,38,153,225,-72,-189
,1071,2023-10-27 10:34:50.13,103,372,-2018,13,1,36,189,-74,263,-57
,1072,2023-10-27 10:34:50.14,103,375,-2015,10,0,36,168,209,-41,-188
,1073,2023-10-27 10:34:50.15,108,364,-2020,9,3,35,178,-85,263,-46
,1074,2023-10-27 10:34:50.16,94,366,-2020,12,4,36,139,200,-61,-169
,1075,2023-10-27 10:34:50.17,100,359,-2025,14,5,36,161,-112,273,-24
,1076,2023-10-27 10:34:50.18,118,370,-2032,15,5,38,138,174,-36,-156
,1077,2023-10-27 10:34:50.19,114,372,-2021,19,6,41,175,-126,301,-24
,1078,2023-10-27 10:34:50.20,102,379,-2016,16,10,43,105,163,-58,-134
,1079,2023-10-27 10:34:50.21,112,375,-2004,15,19,42,116,-135,251,9
,1080,2023-10-27 10:34:50.22,113,375,-2017,11,18,36,62,155,-93,-108
,1081,2023-10-27 10:34:50.23,105,374,-2021,18,20,29,145,-140,285,-2
,1082,2023-10-27 10:34:50.24,111,381,-2021,19,16,24,120,163,-43,-141
,1083,2023-10-27 10:34:50.25,112,383,-2027,18,12,21,197,-133,330,-32
,1084,2023-10-27 10:34:50.26,118,377,-2037,16,10,24,152,173,-21,-162
,1085,2023-10-27 10:34:50.27,117,379,-2028,18,9,27,211,-136,347,-37
,1086,2023-10-27 10:34:50.28,115,382,-2021,18,10,27,123,166,-43,-144
,1087,2023-10-27 10:34:50.29,120,388,-2028,18,14,24,179,-137,316,-21
,1088,2023-10-27 10:34:50.30,102,395,-2030,16,16,20,107,171,-64,-139
,1089,2023-10-27 10:34:50.31,109,392,-2024,15,23,14,177,-133,310,-22
,1090,2023-10-27 10:34:50.32,85,402,-2028,14,26,6,96,161,-65,-128
,1091,2023-10-27 10:34:50.33,95,415,-2033,12,30,-11,168,-145,313,-11
,1092,2023-10-27 10:34:50.34,82,432,-2038,14,34,-30,60,148,-88,-104
,1093,2023-10-27 10:34:50.35,78,452,-2032,15,41,-57,170,-154,324,-8
,1094,2023-10-27 10:34:50.36,65,475,-2037,11,44,-92,87,147,-60,-117
,1095,2023-10-27 10:34:50.37,56,519,-2048,13,51,-137,178,-146,324,-16
,1096,2023-10-27 10:34:50.38,31,560,-2058,16,59,-200,48,138,-90,-93
,1097,2023-10-27 10:34:50.39,35,618,-2028,19,65,-286,182,-164,346,-9
,1098,2023-10-27 10:34:50.40,30,604,-2083,22,80,-397,66,116,-50,-91
,1099,2023-10-27 10:34:50.41,21,691,-2102,24,98,-525,218,-175,393,-21
,1100,2023-10-27 10:34:50.42,24,699,-2102,37,104,-684,82,118,-36,-100
,1101,2023-10-27 10:34:50.43,23,717,-2127,48,84,-839,262,-165,427,-48
,1102,2023-10-27 10:34:50.44,39,750,-2109,56,54,-1018,63,120,-57,-91
,1103,2023-10-27 10:34:50.45,64,717,-2060,60,21,-1185,286,-160,446,-63
,1104,2023-10-27 10:34:50.46,69,720,-2071,65,-22,-1354,34,116,-82,-75
,1105,2023-10-27 10:34:50.47,79,715,-2042,68,-53,-1522,293,-148,441,-72
,1106,2023-10-27 10:34:50.48,88,701,-2019,68,-78,-1687,-3,133,-136,-65
,1107,2023-10-27 10:34:50.49,124,684,-1988,62,-84,-1847,250,-130,380,-60
,1108,2023-10-27 10:34:50.50,84,644,-2009,51,-66,-1993,-27,136,-163,-54
,1109,2023-10-27 10:34:50.51,148,691,-1970,53,-54,-2148,275,-104,379,-85
,1110,2023-10-27 10:34:50.52,168,618,-1981,53,-24,-2292,-16,164,-180,-74
,1111,2023-10-27 10:34:50.53,143,589,-1992,45,-1,-2420,303,-47,350,-128
,1112,2023-10-27 10:34:50.54,159,561,-2007,54,-2,-2538,6,178,-172,-92
,1113,2023-10-27 10:34:50.55,155,515,-2009,55,2,-2641,322,31,291,-176
,1114,2023-10-27 10:34:50.56,169,492,-2000,46,18,-2729,15,117,-102,-66
,1115,2023-10-27 10:34:50.57,181,525,-1993,16,28,-2795,332,114,218,-223
,1116,2023-10-27 10:34:50.58,153,483,-2032,-13,61,-2850,12,37,-25,-24
,1117,2023-10-27 10:34:50.59,181,482,-1994,-22,70,-2893,342,171,171,-256
,1118,2023-10-27 10:34:50.60,154,488,-2016,-23,57,-2945,48,18,30,-33
,1119,2023-10-27 10:34:50.61,150,482,-2011,-52,68,-3000,394,366,28,-380
,1120,2023-10-27 10:34:50.62,120,452,-2033,-92,106,-3073,-263,-291,28,277
,1121,2023-10-27 10:34:50.63,147,447,-2020,-111,103,-3132,214,-35,249,-89
,1122,2023-10-27 10:34:50.64,165,364,-2033,-114,102,-3201,-12,-125,113,68
,1123,2023-10-27 10:34:50.65,151,403,-1986,-139,93,-3225,253,222,31,-237
,1124,2023-10-27 10:34:50.66,153,376,-2005,-172,107,-3261,-122,-55,-67,88
,1125,2023-10-27 10:34:50.67,93,340,-1988,-187,113,-3252,192,200,-8,-196
,1126,2023-10-27 10:34:50.68,113,363,-2026,-176,121,-3265,-115,-99,-16,107
,1127,2023-10-27 10:34:50.69,97,372,-1996,-147,108,-3262,234,196,38,-215
,1128,2023-10-27 10:34:50.70,79,352,-2019,-153,138,-3292,-110,-92,-18,101
,1129,2023-10-27 10:34:50.71,60,366,-1995,-157,170,-3315,-231,-197,-34,214
,1130,2023-10-27 10:34:50.72,77,350,-1998,-139,179,-3315,-368,-350,-18,359
,1131,2023-10-27 10:34:50.73,62,331,-2052,-137,174,-3313,76,60,16,-68
,1132,2023-10-27 10:34:50.74,43,388,-2008,-165,166,-3324,-128,-125,-3,126
,1133,2023-10-27 10:34:50.75,52,314,-2049,-217,178,-3311,93,91,2,-92
,1134,2023-10-27 10:34:50.76,30,300,-2023,-236,147,-3310,-189,-178,-11,183
,1135,2023-10-27 10:34:50.77,23,268,-2016,-252,108,-3292,35,36,-1,-35
,1136,2023-10-27 10:34:50.78,54,250,-1993,-271,90,-3277,-189,-182,-7,185
,1137,2023-10-27 10:34:50.79,6,277,-2027,-273,52,-3252,43,41,2,-42
,1138,2023-10-27 10:34:50.80,-23,276,-2024,-255,26,-3238,-178,-169,-9,173
,1139,2023-10-27 10:34:50.81,-11,257,-2027,-220,6,-3218,33,36,-3,-34
,1140,2023-10-27 10:34:50.82,-45,239,-2051,-223,19,-3194,-173,-167,-6,170
,1141,2023-10-27 10:34:50.83,-78,224,-2028,-203,23,-3166,24,22,2,-23
,1142,2023-10-27 10:34:50.84,-92,156,-2005,-189,56,-3115,-170,-168,-2,169
,1143,2023-10-27 10:34:50.85,-98,121,-2008,-164,86,-3039,18,18,0,-18
,1144,2023-10-27 10:34:50.86,-116,43,-1987,-161,120,-2961,-162,-158,-4,160
,1145,2023-10-27 10:34:50.87,-175,-3,-1962,-148,165,-2836,8,10,-2,-9
,1146,2023-10-27 10:34:50.88,-179,7,-1942,-147,189,-2703,-158,-154,-4,156
,1147,2023-10-27 10:34:50.89,-156,49,-1922,-159,233,-2568,5,4,1,-4
,1148,2023-10-27 10:34:50.90,-181,15,-1965,-183,303,-2422,-148,-144,-4,146
,1149,2023-10-27 10:34:50.91,-186,109,-1973,-198,299,-2296,-13,-10,-3,11
,1150,2023-10-27 10:34:50.92,-197,102,-1915,-216,317,-2187,-150,-149,-1,149
,1151,2023-10-27 10:34:50.93,-212,72,-1999,-258,339,-2105,-22,-21,-1,21
,1152,2023-10-27 10:34:50.94,-289,82,-1989,-276,345,-2032,-138,-138,0,138
,1153,2023-10-27 10:34:50.95,-227,93,-1980,-286,338,-1958,-24,-18,-6,21
,1154,2023-10-27 10:34:50.96,-213,78,-1982,-314,344,-1872,-129,-127,-2,128
,1155,2023-10-27 10:34:50.97,-210,94,-2004,-327,357,-1778,-39,-33,-6,36
,1156,2023-10-27 10:34:50.98,-261,80,-2006,-328,378,-1681,-130,-131,1,130
,1157,2023-10-27 10:34:50.99,-217,92,-2008,-328,408,-1590,-42,-41,-1,41
,1158,2023-10-27 10:34:51.00,-207,83,-1949,-310,415,-1512,-115,-117,2,116
,1159,2023-10-27 10:34:51.01,-230,79,-2031,-301,457,-1434,-42,-36,-6,39
,1160,2023-10-27 10:34:51.02,-228,104,-1911,-283,454,-1358,-105,-106,1,105
,1161,2023-10-27 10:34:51.03,-210,132,-1964,-267,494,-1282,-56,-49,-7,52
,1162,2023-10-27 10:34:51.04,-232,134,-2017,-216,508,-1222,-106,-112,6,109
,1163,2023-10-27 10:34:51.05,-216,147,-1996,-193,527,-1145,-64,-54,-10,59
,1164,2023-10-27 10:34:51.06,-200,160,-1992,-188,567,-1092,-95,-95,0,95
,1165,2023-10-27 10:34:51.07,-208,196,-1994,-186,595,-1041,-73,-62,-11,67
,1166,2023-10-27 10:34:51.08,-198,209,-2010,-184,621,-991,-83,-85,2,84
,1167,2023-10-27 10:34:51.09,-193,226,-1983,-191,624,-957,-79,-70,-9,74
,1168,2023-10-27 10:34:51.10,-173,191,-2060,-204,637,-919,-78,-87,9,82
,1169,2023-10-27 10:34:51.11,-174,196,-2054,-211,623,-884,-87,-81,-6,84
,1170,2023-10-27 10:34:51.12,-135,187,-2052,-208,609,-850,-70,-72,2,71
,1171,2023-10-27 10:34:51.13,-123,213,-2025,-189,595,-809,-90,-79,-11,84
,1172,2023-10-27 10:34:51.14,-118,191,-2092,-167,582,-763,-72,-76,4,74
,1173,2023-10-27 10:34:51.15,-110,205,-2051,-168,572,-716,-94,-88,-6,91
,1174,2023-10-27 10:34:51.16,-112,225,-2039,-163,557,-675,-56,-64,8,60
,1175,2023-10-27 10:34:51.17,-64,229,-2042,-154,546,-638,-102,-92,-10,97
,1176,2023-10-27 10:34:51.18,-80,213,-2038,-154,546,-606,-45,-51,6,48
,1177,2023-10-27 10:34:51.19,-96,197,-2093,-138,540,-581,-104,-92,-12,98
,1178,2023-10-27 10:34:51.20,-54,238,-2030,-140,529,-536,-40,-46,6,43
,1179,2023-10-27 10:34:51.21,-20,290,-2002,-115,541,-508,-112,-104,-8,108
,1180,2023-10-27 10:34:51.22,-33,235,-2052,-95,537,-473,-32,-42,10,37
,1181,2023-10-27 10:34:51.23,-15,238,-2059,-61,513,-442,-122,-109,-13,115
,1182,2023-10-27 10:34:51.24,1,241,-2065,-46,502,-408,-27,-33,6,30
,1183,2023-10-27 10:34:51.25,35,214,-2077,-31,487,-373,-130,-116,-14,123
,1184,2023-10-27 10:34:51.26,-8,208,-2106,-9,477,-337,-24,-31,7,27
,1185,2023-10-27 10:34:51.27,25,223,-2082,-11,468,-299,-137,-127,-10,132
,1186,2023-10-27 10:34:51.28,41,228,-2078,-4,449,-261,-14,-27,13,20
,1187,2023-10-27 10:34:51.29,49,218,-2064,9,441,-221,-140,-126,-14,133
,1188,2023-10-27 10:34:51.30,59,209,-2079,25,412,-181,-7,-14,7,10
,1189,2023-10-27 10:34:51.31,70,213,-2084,44,407,-146,-152,-137,-15,144
,1190,2023-10-27 10:34:51.32,61,215,-2089,64,388,-104,-3,-13,10,8
,1191,2023-10-27 10:34:51.33,86,213,-2081,79,370,-70,-155,-145,-10,150
,1192,2023-10-27 10:34:51.34,110,205,-2074,102,355,-33,7,-3,10,-2
,1193,2023-10-27 10:34:51.35,111,201,-2049,120,347,1,-163,-146,-17,154
,1194,2023-10-27 10:34:51.36,111,209,-2058,143,333,34,12,4,8,-8
,1195,2023-10-27 10:34:51.37,114,202,-2072,157,339,67,-165,-151,-14,158
,1196,2023-10-27 10:34:51.38,137,222,-2044,168,332,95,22,8,14,-15
,1197,2023-10-27 10:34:51.39,138,222,-2033,175,333,124,-173,-156,-17,164
,1198,2023-10-27 10:34:51.40,143,192,-2032,182,327,154,22,12,10,-17
,1199,2023-10-27 10:34:51.41,121,188,-2062,198,320,177,-184,-169,-15,176
,1200,2023-10-27 10:34:51.42,144,189,-2095,222,284,192,26,15,11,-20
,1201,2023-10-27 10:34:51.43,149,217,-2086,240,268,194,-182,-167,-15,174
,1202,2023-10-27 10:34:51.44,142,224,-2099,249,253,189,37,26,11,-31
,1203,2023-10-27 10:34:51.45,136,219,-2098,240,251,188,-195,-178,-17,186
,1204,2023-10-27 10:34:51.46,137,213,-2092,232,233,192,38,26,12,-32
,1205,2023-10-27 10:34:51.47,156,187,-2095,223,213,197,-195,-178,-17,186
,1206,2023-10-27 10:34:51.48,160,154,-2079,214,202,204,50,36,14,-43
,1207,2023-10-27 10:34:51.49,136,145,-2054,228,178,216,-189,-170,-19,179
,1208,2023-10-27 10:34:51.50,157,142,-2063,247,169,233,52,39,13,-45
,1209,2023-10-27 10:34:51.51,164,167,-2071,265,157,253,-211,-191,-20,201
,1210,2023-10-27 10:34:51.52,163,138,-2057,266,158,273,49,32,17,-40
,1211,2023-10-27 10:34:51.53,164,149,-2065,272,151,291,-214,-195,-19,204
,1212,2023-10-27 10:34:51.54,166,148,-2081,267,145,307,55,43,12,-49
,1213,2023-10-27 10:34:51.55,157,164,-2068,251,139,316,-222,-203,-19,212
,1214,2023-10-27 10:34:51.56,152,162,-2085,236,125,322,64,54,10,-59
,1215,2023-10-27 10:34:51.57,154,125,-2070,214,114,330,-219,-199,-20,209
,1216,2023-10-27 10:34:51.58,158,149,-2077,195,105,333,69,57,12,-63
,1217,2023-10-27 10:34:51.59,156,145,-2079,183,95,344,-225,-204,-21,214
,1218,2023-10-27 10:34:51.60,164,137,-2071,173,83,355,74,62,12,-68
,1219,2023-10-27 10:34:51.61,169,141,-2053,170,76,364,-222,-201,-21,211
,1220,2023-10-27 10:34:51.62,162,142,-2044,158,78,366,81,70,11,-75
,1221,2023-10-27 10:34:51.63,162,142,-2048,149,76,365,-232,-212,-20,222
,1222,2023-10-27 10:34:51.64,186,144,-2042,138,64,371,76,65,11,-70
,1223,2023-10-27 10:34:51.65,183,152,-2041,123,72,369,-235,-219,-16,227
,1224,2023-10-27 10:34:51.66,183,153,-2027,106,86,363,86,68,18,-77
,1225,2023-10-27 10:34:51.67,184,157,-2017,82,94,360,-232,-216,-16,224
,1226,2023-10-27 10:34:51.68,191,164,-2026,60,99,355,88,75,13,-81
,1227,2023-10-27 10:34:51.69,199,137,-2021,35,100,349,-240,-221,-19,230
,1228,2023-10-27 10:34:51.70,211,138,-2027,0,102,354,86,74,12,-80
,1229,2023-10-27 10:34:51.71,221,123,-2034,-37,114,360,-247,-233,-14,240
,1230,2023-10-27 10:34:51.72,229,124,-2026,-63,124,369,87,71,16,-79
,1231,2023-10-27 10:34:51.73,250,134,-2034,-108,141,368,-256,-234,-22,245
,1232,2023-10-27 10:34:51.74,230,151,-2051,-145,169,364,86,76,10,-81
,1233,2023-10-27 10:34:51.75,201,205,-2071,-180,195,355,-253,-233,-20,243
,1234,2023-10-27 10:34:51.76,225,198,-2065,-213,197,350,91,79,12,-85
,1235,2023-10-27 10:34:51.77,222,204,-2014,-314,194,335,-255,-239,-16,247
,1236,2023-10-27 10:34:51.78,255,187,-1979,-369,168,333,96,83,13,-89
,1237,2023-10-27 10:34:51.79,285,172,-1989,-427,160,337,-255,-236,-19,245
,1238,2023-10-27 10:34:51.80,306,124,-2023,-455,154,347,96,84,12,-90
,1239,2023-10-27 10:34:51.81,311,134,-2032,-475,161,370,-261,-240,-21,250
,1240,2023-10-27 10:34:51.82,326,137,-2050,-481,180,390,89,78,11,-83
,1241,2023-10-27 10:34:51.83,308,111,-2048,-465,179,411,-269,-250,-19,259
,1242,2023-10-27 10:34:51.84,320,103,-2041,-454,195,436,92,80,12,-86
,1243,2023-10-27 10:34:51.85,327,91,-2012,-433,188,453,-265,-243,-22,254
,1244,2023-10-27 10:34:51.86,357,106,-2019,-402,167,479,92,89,3,-90
,1245,2023-10-27 10:34:51.87,354,85,-1993,-369,164,506,-248,-83,-165,165
,1246,2023-10-27 10:34:51.88,366,107,-2021,-325,141,547,108,268,-160,-188
,1247,2023-10-27 10:34:51.89,359,108,-2037,-273,110,579,-274,-106,-168,190
,1248,2023-10-27 10:34:51.90,370,90,-2058,-223,77,610,91,66,25,-78
,1249,2023-10-27 10:34:51.91,376,97,-2089,-164,58,636,-276,-213,-63,244
,1250,2023-10-27 10:34:51.92,376,126,-2103,-98,25,662,89,66,23,-77
,1251,2023-10-27 10:34:51.93,373,137,-2081,-36,-14,683,-265,-161,-104,213
,1252,2023-10-27 10:34:51.94,382,152,-2149,22,-35,709,85,131,-46,-108
,1253,2023-10-27 10:34:51.95,376,149,-2128,68,-68,722,-283,-126,-157,204
,1254,2023-10-27 10:34:51.96,380,188,-2145,120,-105,734,83,128,-45,-105
,1255,2023-10-27 10:34:51.97,354,185,-2109,159,-140,736,-269,-111,-158,190
,1256,2023-10-27 10:34:51.98,350,160,-2110,193,-175,741,88,147,-59,-117
,1257,2023-10-27 10:34:51.99,337,175,-2091,231,-206,737,-270,-288,18,279
,1258,2023-10-27 10:34:52.00,307,175,-2129,256,-246,737,161,-975,1136,407
,1259,2023-10-27 10:34:52.01,296,174,-2105,268,-296,743,-155,-1180,1025,667
,1260,2023-10-27 10:34:52.02,275,175,-2100,281,-326,744,231,-1022,1253,395
,1261,2023-10-27 10:34:52.03,271,170,-2079,272,-366,746,-141,-791,650,466
,1262,2023-10-27 10:34:52.04,260,164,-2116,246,-384,752,220,-512,732,146
,1263,2023-10-27 10:34:52.05,244,167,-2062,231,-402,762,-135,-484,349,309
,1264,2023-10-27 10:34:52.06,233,140,-2067,211,-421,763,231,-331,562,50
,1265,2023-10-27 10:34:52.07,234,170,-2065,184,-414,760,-124,-386,262,255
,1266,2023-10-27 10:34:52.08,222,180,-1997,165,-418,750,239,-137,376,-51
,1267,2023-10-27 10:34:52.09,221,181,-1991,136,-399,740,-115,-187,72,151
,1268,2023-10-27 10:34:52.10,213,170,-1962,113,-384,726,234,-19,253,-107
,1269,2023-10-27 10:34:52.11,210,195,-1967,82,-369,709,-114,-157,43,135
,1270,2023-10-27 10:34:52.12,195,184,-1976,44,-324,685,244,-26,270,-109
,1271,2023-10-27 10:34:52.13,205,205,-1978,15,-287,660,-92,-162,70,127
,1272,2023-10-27 10:34:52.14,199,196,-1970,-14,-237,630,253,4,249,-128
,1273,2023-10-27 10:34:52.15,189,194,-1981,-39,-191,589,-96,-122,26,109
,1274,2023-10-27 10:34:52.16,163,213,-1981,-64,-147,554,232,43,189,-137
,1275,2023-10-27 10:34:52.17,177,214,-1955,-88,-114,515,-104,-93,-11,98
,1276,2023-10-27 10:34:52.18,171,194,-2023,-109,-65,478,231,62,169,-146
,1277,2023-10-27 10:34:52.19,187,176,-2001,-128,-35,446,-91,-82,-9,86
,1278,2023-10-27 10:34:52.20,189,193,-2026,-145,7,405,234,72,162,-153
,1279,2023-10-27 10:34:52.21,205,221,-2013,-163,55,366,-82,-70,-12,76
,1280,2023-10-27 10:34:52.22,189,261,-2043,-179,95,324,245,79,166,-162
,1281,2023-10-27 10:34:52.23,168,283,-2034,-219,132,286,-70,-68,-2,69
,1282,2023-10-27 10:34:52.24,208,304,-2030,-270,143,239,231,89,142,-160
,1283,2023-10-27 10:34:52.25,220,254,-2020,-343,147,193,-82,-51,-31,66
,1284,2023-10-27 10:34:52.26,259,252,-2064,-402,139,155,244,111,133,-177
,1285,2023-10-27 10:34:52.27,256,262,-2105,-447,144,124,-44,-31,-13,37
,1286,2023-10-27 10:34:52.28,274,241,-2120,-477,161,96,244,120,124,-182
,1287,2023-10-27 10:34:52.29,262,230,-2121,-486,157,70,-60,-30,-30,45
,1288,2023-10-27 10:34:52.30,264,206,-2101,-479,138,42,223,122,101,-172
,1289,2023-10-27 10:34:52.31,275,183,-2106,-469,107,17,-49,-6,-43,27
,1290,2023-10-27 10:34:52.32,256,174,-2102,-447,66,4,223,144,79,-183
,1291,2023-10-27 10:34:52.33,252,188,-2092,-414,16,-2,-40,8,-48,16
,1292,2023-10-27 10:34:52.34,255,208,-2068,-390,-36,-8,221,177,44,-199
,1293,2023-10-27 10:34:52.35,237,236,-2054,-370,-88,-14,-42,46,-88,-2
,1294,2023-10-27 10:34:52.36,224,262,-2061,-351,-144,-25,212,207,5,-209
,1295,2023-10-27 10:34:52.37,210,264,-2072,-337,-198,-38,-38,66,-104,-14
,1296,2023-10-27 10:34:52.38,217,289,-2072,-322,-239,-53,204,225,-21,-214
,1297,2023-10-27 10:34:52.39,206,292,-2071,-307,-271,-70,-29,84,-113,-27
,1298,2023-10-27 10:34:52.40,196,303,-2066,-291,-297,-85,181,237,-56,-209
,1299,2023-10-27 10:34:52.41,198,320,-2055,-278,-309,-99,-33,128,-161,-47
,1300,2023-10-27 10:34:52.42,183,335,-2061,-263,-311,-113,182,282,-100,-232
,1301,2023-10-27 10:34:52.43,155,353,-2069,-258,-304,-119,-30,165,-195,-67
,1302,2023-10-27 10:34:52.44,155,381,-2042,-253,-307,-129,171,310,-139,-240
,1303,2023-10-27 10:34:52.45,155,393,-2045,-249,-312,-134,-17,196,-213,-89
,1304,2023-10-27 10:34:52.46,133,394,-2046,-246,-311,-134,178,346,-168,-262
,1305,2023-10-27 10:34:52.47,122,418,-2028,-242,-305,-136,-9,230,-239,-110
,1306,2023-10-27 10:34:52.48,114,409,-2043,-234,-303,-134,163,361,-198,-262
,1307,2023-10-27 10:34:52.49,103,419,-2054,-221,-294,-128,-10,239,-249,-114
,1308,2023-10-27 10:34:52.50,102,441,-2043,-205,-276,-120,156,371,-215,-263
,1309,2023-10-27 10:34:52.51,80,458,-2042,-185,-258,-114,1,253,-252,-127
,1310,2023-10-27 10:34:52.52,97,468,-2015,-162,-246,-106,149,365,-216,-257
,1311,2023-10-27 10:34:52.53,76,458,-2005,-133,-225,-101,5,236,-231,-120
,1312,2023-10-27 10:34:52.54,68,469,-1980,-92,-199,-97,146,337,-191,-241
,1313,2023-10-27 10:34:52.55,68,485,-1979,-46,-174,-92,17,210,-193,-113
,1314,2023-10-27 10:34:52.56,67,474,-1991,-6,-151,-88,133,305,-172,-219
,1315,2023-10-27 10:34:52.57,55,469,-2001,34,-129,-78,19,179,-160,-99
,1316,2023-10-27 10:34:52.58,57,463,-2007,78,-115,-70,130,262,-132,-196
,1317,2023-10-27 10:34:52.59,62,472,-1997,114,-92,-59,29,148,-119,-88
,1318,2023-10-27 10:34:52.60,51,472,-1984,169,-98,-59,126,235,-109,-180
,1319,2023-10-27 10:34:52.61,56,470,-1992,226,-72,-59,36,136,-100,-86
,1320,2023-10-27 10:34:52.62,51,469,-1986,278,-57,-57,108,216,-108,-162
,1321,2023-10-27 10:34:52.63,63,429,-2008,324,-29,-64,38,112,-74,-75
,1322,2023-10-27 10:34:52.64,44,398,-1998,403,-22,-64,103,171,-68,-137
,1323,2023-10-27 10:34:52.65,26,412,-2003,501,6,-61,48,92,-44,-70
,1324,2023-10-27 10:34:52.66,40,419,-2036,563,26,-57,100,158,-58,-129
,1325,2023-10-27 10:34:52.67,63,381,-2072,565,19,-36,60,88,-28,-74
,1326,2023-10-27 10:34:52.68,68,329,-2038,529,-23,-1,91,161,-70,-126
,1327,2023-10-27 10:34:52.69,68,304,-2011,504,-35,30,63,92,-29,-77
,1328,2023-10-27 10:34:52.70,74,282,-2026,528,-12,62,73,140,-67,-106
,1329,2023-10-27 10:34:52.71,72,299,-2035,561,14,85,66,80,-14,-73
,1330,2023-10-27 10:34:52.72,76,282,-2052,592,34,95,89,133,-44,-111
,1331,2023-10-27 10:34:52.73,74,265,-2062,598,25,105,86,65,21,-75
,1332,2023-10-27 10:34:52.74,63,241,-2079,589,14,114,74,89,-15,-81
,1333,2023-10-27 10:34:52.75,64,248,-2089,573,-2,131,92,38,54,-65
,1334,2023-10-27 10:34:52.76,59,251,-2076,560,-9,140,66,81,-15,-73
,1335,2023-10-27 10:34:52.77,71,250,-2085,530,-12,146,100,61,39,-80
,1336,2023-10-27 10:34:52.78,60,224,-2081,492,-4,143,64,100,-36,-82
,1337,2023-10-27 10:34:52.79,69,232,-2079,454,-16,145,113,75,38,-94
,1338,2023-10-27 10:34:52.80,85,223,-2069,410,-18,140,67,109,-42,-88
,1339,2023-10-27 10:34:52.81,84,211,-2062,360,-16,142,127,95,32,-111
,1340,2023-10-27 10:34:52.82,92,210,-2069,317,-11,141,62,140,-78,-101
,1341,2023-10-27 10:34:52.83,95,187,-2041,291,-2,138,133,131,2,-132
,1342,2023-10-27 10:34:52.84,113,190,-2052,275,2,132,40,153,-113,-96
,1343,2023-10-27 10:34:52.85,88,164,-2050,262,11,127,126,139,-13,-132
,1344,2023-10-27 10:34:52.86,122,174,-2041,257,17,122,26,156,-130,-91
,1345,2023-10-27 10:34:52.87,96,143,-2061,258,34,117,132,145,-13,-138
,1346,2023-10-27 10:34:52.88,112,142,-2052,261,37,110,20,146,-126,-83
,1347,2023-10-27 10:34:52.89,109,152,-2049,262,42,103,142,135,7,-138
,1348,2023-10-27 10:34:52.90,97,122,-2043,266,43,97,15,138,-123,-76
,1349,2023-10-27 10:34:52.91,115,106,-2068,269,48,98,148,147,1,-147
,1350,2023-10-27 10:34:52.92,91,104,-2056,269,53,99,20,156,-136,-88
,1351,2023-10-27 10:34:52.93,102,109,-2040,270,52,101,164,169,-5,-166
,1352,2023-10-27 10:34:52.94,91,102,-2058,269,50,107,8,161,-153,-84
,1353,2023-10-27 10:34:52.95,108,99,-2057,266,41,102,157,164,-7,-160
,1354,2023-10-27 10:34:52.96,109,97,-2054,267,36,102,6,152,-146,-79
,1355,2023-10-27 10:34:52.97,109,77,-2055,270,32,101,182,180,2,-181
,1356,2023-10-27 10:34:52.98,110,85,-2078,270,36,98,6,169,-163,-87
,1357,2023-10-27 10:34:52.99,101,79,-2060,272,26,95,182,191,-9,-186
,1358,2023-10-27 10:34:53.00,92,76,-2064,265,31,92,-7,161,-168,-77
,1359,2023-10-27 10:34:53.01,82,50,-2050,263,24,88,185,186,-1,-185
,1360,2023-10-27 10:34:53.02,94,65,-2082,255,18,85,-13,162,-175,-74
,1361,2023-10-27 10:34:53.03,99,54,-2061,250,0,81,195,203,-8,-199
,1362,2023-10-27 10:34:53.04,81,51,-2068,248,5,75,-5,170,-175,-82
,1363,2023-10-27 10:34:53.05,98,57,-2080,242,0,67,210,214,-4,-212
,1364,2023-10-27 10:34:53.06,90,58,-2079,244,-6,57,-22,172,-194,-75
,1365,2023-10-27 10:34:53.07,79,60,-2078,233,-8,45,200,224,-24,-212
,1366,2023-10-27 10:34:53.08,81,46,-2094,214,-11,35,-28,180,-208,-76
,1367,2023-10-27 10:34:53.09,88,20,-2080,203,-21,27,211,238,-27,-224
,1368,2023-10-27 10:34:53.10,75,37,-2088,189,-29,23,-41,184,-225,-71
,1369,2023-10-27 10:34:53.11,65,22,-2088,171,-40,16,206,253,-47,-229
,1370,2023-10-27 10:34:53.12,65,17,-2090,159,-54,14,-42,187,-229,-72
,1371,2023-10-27 10:34:53.13,81,12,-2074,148,-67,9,231,263,-32,-247
,1372,2023-10-27 10:34:53.14,71,4,-2073,131,-68,6,-37,185,-222,-74
,1373,2023-10-27 10:34:53.15,72,7,-2063,122,-72,1,234,267,-33,-250
,1374,2023-10-27 10:34:53.16,72,3,-2054,109,-72,-2,-45,188,-233,-71
,1375,2023-10-27 10:34:53.17,69,9,-2064,95,-64,-7,233,279,-46,-256
,1376,2023-10-27 10:34:53.18,69,-12,-2054,84,-55,-12,-51,188,-239,-68
,1377,2023-10-27 10:34:53.19,71,-20,-2063,76,-48,-12,230,266,-36,-248
,1378,2023-10-27 10:34:53.20,69,-25,-2060,69,-45,-15,-65,180,-245,-57
,1379,2023-10-27 10:34:53.21,66,-21,-2064,69,-40,-13,234,275,-41,-254
,1380,2023-10-27 10:34:53.22,66,-26,-2060,65,-38,-12,-54,180,-234,-63
,1381,2023-10-27 10:34:53.23,73,-24,-2069,62,-34,-10,253,284,-31,-268
,1382,2023-10-27 10:34:53.24,75,-20,-2069,58,-34,-4,-64,180,-244,-58
,1383,2023-10-27 10:34:53.25,69,-22,-2056,56,-32,-2,242,290,-48,-266
,1384,2023-10-27 10:34:53.26,81,-23,-2057,52,-33,4,-74,178,-252,-52
,1385,2023-10-27 10:34:53.27,69,-32,-2060,51,-32,8,252,288,-36,-270
,1386,2023-10-27 10:34:53.28,70,-42,-2067,45,-32,22,-65,171,-236,-53
,1387,2023-10-27 10:34:53.29,83,-36,-2086,38,-29,36,262,293,-31,-277
,1388,2023-10-27 10:34:53.30,73,-39,-2091,34,-28,52,-72,171,-243,-49
,1389,2023-10-27 10:34:53.31,72,-29,-2098,36,-26,66,264,296,-32,-280
,1390,2023-10-27 10:34:53.32,78,-17,-2096,28,-28,78,-72,167,-239,-47
,1391,2023-10-27 10:34:53.33,60,-20,-2102,19,-42,83,264,294,-30,-279
,1392,2023-10-27 10:34:53.34,58,-9,-2101,8,-55,86,-80,159,-239,-39
,1393,2023-10-27 10:34:53.35,69,11,-2080,-13,-63,81,269,293,-24,-281
,1394,2023-10-27 10:34:53.36,83,37,-2071,-36,-56,65,-78,155,-233,-38
,1395,2023-10-27 10:34:53.37,77,88,-2067,-61,-43,32,271,295,-24,-283
,1396,2023-10-27 10:34:53.38,79,95,-2080,-84,-44,-16,-80,153,-233,-36
,1397,2023-10-27 10:34:53.39,82,120,-2098,-107,-46,-85,272,292,-20,-282
,1398,2023-10-27 10:34:53.40,87,136,-2104,-141,-60,-174,-87,149,-236,-31
,1399,2023-10-27 10:34:53.41,111,166,-2103,-174,-68,-277,273,301,-28,-287
,1400,2023-10-27 10:34:53.42,124,186,-2121,-215,-66,-391,-86,148,-234,-31
,1401,2023-10-27 10:34:53.43,143,201,-2126,-258,-74,-521,269,300,-31,-284
,1402,2023-10-27 10:34:53.44,157,233,-2099,-299,-95,-664,-101,147,-248,-23
,1403,2023-10-27 10:34:53.45,158,251,-2062,-339,-101,-813,271,307,-36,-289
,1404,2023-10-27 10:34:53.46,202,243,-2052,-373,-120,-968,-92,148,-240,-28
,1405,2023-10-27 10:34:53.47,215,240,-2018,-400,-122,-1119,267,305,-38,-286
,1406,2023-10-27 10:34:53.48,228,231,-2016,-435,-100,-1270,-108,138,-246,-15
,1407,2023-10-27 10:34:53.49,228,206,-1988,-462,-77,-1407,268,304,-36,-286
,1408,2023-10-27 10:34:53.50,253,195,-1978,-474,-75,-1528,-95,142,-237,-23
,1409,2023-10-27 10:34:53.51,235,199,-1976,-493,-65,-1635,268,316,-48,-292
,1410,2023-10-27 10:34:53.52,233,207,-1993,-523,-68,-1729,-109,152,-261,-21
,1411,2023-10-27 10:34:53.53,237,162,-1977,-572,-64,-1812,268,334,-66,-301
,1412,2023-10-27 10:34:53.54,223,170,-1978,-609,-77,-1880,-93,167,-260,-37
,1413,2023-10-27 10:34:53.55,230,171,-2004,-650,-76,-1936,273,347,-74,-310
,1414,2023-10-27 10:34:53.56,199,137,-2026,-664,-94,-1971,-99,175,-274,-38
,1415,2023-10-27 10:34:53.57,199,91,-2049,-669,-112,-2004,275,368,-93,-321
,1416,2023-10-27 10:34:53.58,161,92,-2073,-654,-152,-2020,-101,188,-289,-43
,1417,2023-10-27 10:34:53.59,151,81,-2083,-662,-181,-2026,271,377,-106,-324
,1418,2023-10-27 10:34:53.60,127,115,-2117,-699,-222,-2017,-103,183,-286,-40
,1419,2023-10-27 10:34:53.61,62,73,-2149,-728,-268,-2006,268,393,-125,-330
,1420,2023-10-27 10:34:53.62,47,38,-2170,-725,-334,-1981,-98,203,-301,-52
,1421,2023-10-27 10:34:53.63,37,-43,-2163,-732,-404,-1953,266,398,-132,-332
,1422,2023-10-27 10:34:53.64,-17,34,-2221,-734,-454,-1903,-106,208,-314,-51
,1423,2023-10-27 10:34:53.65,-61,42,-2202,-762,-530,-1830,256,426,-170,-341
,1424,2023-10-27 10:34:53.66,-73,55,-2179,-836,-560,-1750,-104,246,-350,-71
,1425,2023-10-27 10:34:53.67,-94,42,-2181,-870,-624,-1656,255,463,-208,-359
,1426,2023-10-27 10:34:53.68,-78,24,-2102,-875,-685,-1552,-104,268,-372,-82
,1427,2023-10-27 10:34:53.69,-141,15,-2092,-874,-698,-1447,247,472,-225,-359
,1428,2023-10-27 10:34:53.70,-173,13,-2035,-834,-686,-1334,-111,279,-390,-84
,1429,2023-10-27 10:34:53.71,-216,2,-2013,-719,-677,-1219,234,488,-254,-361
,1430,2023-10-27 10:34:53.72,-243,30,-1950,-591,-678,-1095,-118,286,-404,-84
,1431,2023-10-27 10:34:53.73,-291,58,-1974,-471,-674,-969,229,472,-243,-350
,1432,2023-10-27 10:34:53.74,-324,133,-1951,-386,-631,-849,-116,260,-376,-72
,1433,2023-10-27 10:34:53.75,-338,158,-1947,-333,-586,-736,202,444,-242,-323
,1434,2023-10-27 10:34:53.76,-374,135,-1914,-280,-530,-629,-149,222,-371,-36
,1435,2023-10-27 10:34:53.77,-387,153,-1920,-205,-483,-518,174,384,-210,-279
,1436,2023-10-27 10:34:53.78,-405,190,-1895,-141,-452,-406,-153,182,-335,-14
,1437,2023-10-27 10:34:53.79,-415,190,-1871,-90,-392,-296,192,335,-143,-263
,1438,2023-10-27 10:34:53.80,-432,210,-1887,-27,-325,-198,-116,78,-194,19
,1439,2023-10-27 10:34:53.81,-463,228,-1882,26,-264,-109,199,121,78,-160
,1440,2023-10-27 10:34:53.82,-455,257,-1889,74,-225,-33,-124,-104,-20,114
,1441,2023-10-27 10:34:53.83,-477,263,-1881,111,-177,29,195,1,194,-98
,1442,2023-10-27 10:34:53.84,-477,271,-1866,140,-130,78,-106,-116,10,111
,1443,2023-10-27 10:34:53.85,-459,299,-1896,169,-99,120,208,53,155,-130
,1444,2023-10-27 10:34:53.86,-466,320,-1908,209,-63,163,-90,-61,-29,75
,1445,2023-10-27 10:34:53.87,-459,313,-1915,260,-19,194,206,93,113,-149
,1446,2023-10-27 10:34:53.88,-450,311,-1915,323,57,230,-86,-41,-45,63
,1447,2023-10-27 10:34:53.89,-418,260,-1936,456,194,320,192,94,98,-143
,1448,2023-10-27 10:34:53.90,-414,245,-1940,508,241,371,-86,-45,-41,65
,1449,2023-10-27 10:34:53.91,-400,214,-1929,543,272,412,189,80,109,-134
,1450,2023-10-27 10:34:53.92,-393,191,-1930,564,314,462,-82,-62,-20,72
,1451,2023-10-27 10:34:53.93,-373,174,-1935,587,361,517,192,59,133,-125
,1452,2023-10-27 10:34:53.94,-363,160,-1969,619,401,581,-65,-61,-4,63
,1453,2023-10-27 10:34:53.95,-362,136,-1978,640,453,646,188,98,90,-143
,1454,2023-10-27 10:34:53.96,-339,137,-1946,656,498,714,-58,-12,-46,35
,1455,2023-10-27 10:34:53.97,-331,141,-1931,669,559,783,188,137,51,-162
,1456,2023-10-27 10:34:53.98,-320,152,-1957,680,630,854,-48,15,-63,16
,1457,2023-10-27 10:34:53.99,-292,159,-1967,687,680,927,180,166,14,-173
,1458,2023-10-27 10:34:54.00,-256,164,-1962,677,735,999,-47,38,-85,4
,1459,2023-10-27 10:34:54.01,-259,143,-1949,653,799,1063,181,174,7,-177
,1460,2023-10-27 10:34:54.02,-223,138,-1966,625,826,1124,-31,42,-73,-5
,1461,2023-10-27 10:34:54.03,-190,129,-1986,595,854,1183,182,173,9,-177
,1462,2023-10-27 10:34:54.04,-179,120,-2011,569,876,1234,-31,32,-63,0
,1463,2023-10-27 10:34:54.05,-152,84,-2024,543,870,1286,178,192,-14,-185
,1464,2023-10-27 10:34:54.06,-132,86,-2053,515,882,1337,-15,62,-77,-23
,1465,2023-10-27 10:34:54.07,-98,32,-2089,494,867,1396,170,185,-15,-177
,1466,2023-10-27 10:34:54.08,-75,44,-2110,462,863,1455,-20,42,-62,-11
,1467,2023-10-27 10:34:54.09,-37,57,-2154,433,837,1512,159,166,-7,-162
,1468,2023-10-27 10:34:54.10,-31,-3,-2168,402,793,1567,-4,49,-53,-22
,1469,2023-10-27 10:34:54.11,20,9,-2168,422,682,1626,161,194,-33,-177
,1470,2023-10-27 10:34:54.12,68,111,-2231,384,652,1688,12,89,-77,-50
,1471,2023-10-27 10:34:54.13,85,69,-2215,247,684,1737,165,213,-48,-189
,1472,2023-10-27 10:34:54.14,118,3,-2208,163,613,1806,24,99,-75,-61
,1473,2023-10-27 10:34:54.15,152,14,-2195,136,532,1883,144,227,-83,-185
,1474,2023-10-27 10:34:54.16,190,49,-2199,86,494,1953,19,126,-107,-72
,1475,2023-10-27 10:34:54.17,180,-40,-2138,6,502,2025,132,250,-118,-191
,1476,2023-10-27 10:34:54.18,279,-26,-2122,7,406,2098,21,141,-120,-81
,1477,2023-10-27 10:34:54.19,260,-36,-2136,-19,430,2174,137,246,-109,-191
,1478,2023-10-27 10:34:54.20,286,-19,-2107,-51,391,2241,47,140,-93,-93
,1479,2023-10-27 10:34:54.21,301,6,-2106,-63,374,2295,133,242,-109,-187
,1480,2023-10-27 10:34:54.22,332,47,-2073,-91,346,2323,49,141,-92,-95
,1481,2023-10-27 10:34:54.23,354,87,-2120,-137,348,2333,116,237,-121,-176
,1482,2023-10-27 10:34:54.24,351,123,-2046,-176,374,2321,51,137,-86,-94
,1483,2023-10-27 10:34:54.25,420,173,-2026,-167,312,2282,113,217,-104,-165
,1484,2023-10-27 10:34:54.26,368,271,-2065,-169,311,2218,65,124,-59,-94
,1485,2023-10-27 10:34:54.27,332,296,-2066,-167,314,2110,113,200,-87,-156
,1486,2023-10-27 10:34:54.28,366,299,-2064,-142,270,1994,72,124,-52,-98
,1487,2023-10-27 10:34:54.29,325,311,-2053,-114,241,1863,86,193,-107,-139
,1488,2023-10-27 10:34:54.30,331,280,-2073,-97,191,1747,66,143,-77,-104
,1489,2023-10-27 10:34:54.31,312,272,-2068,-94,139,1646,82,229,-147,-155
,1490,2023-10-27 10:34:54.32,327,276,-2084,-123,94,1544,85,229,-144,-157
,1491,2023-10-27 10:34:54.33,303,326,-2036,-171,90,1446,84,309,-225,-196
,1492,2023-10-27 10:34:54.34,266,406,-1999,-228,96,1330,89,312,-223,-200
,1493,2023-10-27 10:34:54.35,264,477,-1979,-325,112,1187,71,351,-280,-211
,1494,2023-10-27 10:34:54.36,251,509,-2006,-415,111,1019,93,343,-250,-218
,1495,2023-10-27 10:34:54.37,248,517,-1968,-491,103,834,52,360,-308,-206
,1496,2023-10-27 10:34:54.38,248,575,-2003,-571,114,636,89,440,-351,-264
,1497,2023-10-27 10:34:54.39,243,535,-2002,-629,115,425,28,436,-408,-232
,1498,2023-10-27 10:34:54.40,261,554,-1989,-646,93,226,82,440,-358,-261
,1499,2023-10-27 10:34:54.41,291,564,-2021,-649,75,31,-5,372,-377,-183
,1500,2023-10-27 10:34:54.42,272,593,-2015,-665,88,-159,48,578,-530,-313
,1501,2023-10-27 10:34:54.43,290,586,-2054,-660,117,-344,-97,203,-300,-53
,1502,2023-10-27 10:34:54.44,302,594,-2056,-638,121,-530,-35,-32,-3,33
,1503,2023-10-27 10:34:54.45,312,584,-2062,-597,122,-720,-148,-214,66,181
,1504,2023-10-27 10:34:54.46,328,550,-1996,-533,115,-899,-16,-72,56,44
,1505,2023-10-27 10:34:54.47,355,501,-2005,-444,116,-1056,-133,-121,-12,127
,1506,2023-10-27 10:34:54.48,374,481,-1981,-327,110,-1185,-15,-2,-13,8
,1507,2023-10-27 10:34:54.49,387,456,-1986,-192,90,-1286,-148,-125,-23,136
,1508,2023-10-27 10:34:54.50,391,407,-1995,-76,96,-1355,-12,-19,7,15
,1509,2023-10-27 10:34:54.51,378,406,-2000,41,93,-1394,-150,-142,-8,146
,1510,2023-10-27 10:34:54.52,362,368,-1987,139,93,-1412,0,-8,8,4
,1511,2023-10-27 10:34:54.53,364,310,-2063,216,92,-1406,-155,-139,-16,147
,1512,2023-10-27 10:34:54.54,354,220,-2107,280,89,-1377,2,-4,6,1
,1513,2023-10-27 10:34:54.55,358,136,-2124,350,45,-1305,-170,-154,-16,162
,1514,2023-10-27 10:34:54.56,399,97,-2081,378,18,-1205,6,-3,9,-1
,1515,2023-10-27 10:34:54.57,367,41,-2052,373,2,-1056,-170,-157,-13,163
,1516,2023-10-27 10:34:54.58,374,13,-2047,345,2,-879,20,11,9,-15
,1517,2023-10-27 10:34:54.59,393,-39,-2011,323,16,-682,-172,-155,-17,163
,1518,2023-10-27 10:34:54.60,365,-59,-2009,311,19,-474,22,13,9,-17
,1519,2023-10-27 10:34:54.61,343,-59,-2001,305,21,-294,-186,-171,-15,178
,1520,2023-10-27 10:34:54.62,327,-44,-1989,300,21,-138,35,23,12,-29
,1521,2023-10-27 10:34:54.63,335,-7,-1990,291,23,-9,-178,-163,-15,170
,1522,2023-10-27 10:34:54.64,323,25,-1998,277,34,97,38,28,10,-33
,1523,2023-10-27 10:34:54.65,296,80,-2008,265,42,185,-196,-179,-17,187
,1524,2023-10-27 10:34:54.66,312,137,-2030,254,45,247,35,26,9,-30
,1525,2023-10-27 10:34:54.67,280,184,-2039,237,42,272,-202,-183,-19,192
,1526,2023-10-27 10:34:54.68,281,206,-2040,226,30,263,48,39,9,-43
,1527,2023-10-27 10:34:54.69,289,207,-2035,221,10,224,-199,-180,-19,189
,1528,2023-10-27 10:34:54.70,269,205,-2048,230,-16,179,52,42,10,-47
,1529,2023-10-27 10:34:54.71,275,208,-2068,261,-41,142,-211,-192,-19,201
,1530,2023-10-27 10:34:54.72,260,208,-2067,291,-59,108,52,41,11,-46
,1531,2023-10-27 10:34:54.73,279,192,-2068,311,-69,78,-206,-192,-14,199
,1532,2023-10-27 10:34:54.74,272,164,-2065,319,-69,58,71,60,11,-65
,1533,2023-10-27 10:34:54.75,254,153,-2054,327,-85,42,-210,-191,-19,200
,1534,2023-10-27 10:34:54.76,256,142,-2059,327,-99,41,66,56,10,-61
,1535,2023-10-27 10:34:54.77,244,133,-2076,319,-110,49,-225,-206,-19,215
,1536,2023-10-27 10:34:54.78,245,137,-2074,303,-120,58,74,59,15,-66
,1537,2023-10-27 10:34:54.79,244,118,-2078,284,-122,68,-220,-201,-19,210
,1538,2023-10-27 10:34:54.80,234,105,-2060,260,-125,70,82,68,14,-75
,1539,2023-10-27 10:34:54.81,227,103,-2067,238,-120,74,-227,-208,-19,217
,1540,2023-10-27 10:34:54.82,235,106,-2054,222,-119,81,76,64,12,-70
,1541,2023-10-27 10:34:54.83,224,110,-2043,201,-109,86,-233,-217,-16,225
,1542,2023-10-27 10:34:54.84,218,100,-2047,181,-98,82,84,68,16,-76
,1543,2023-10-27 10:34:54.85,216,91,-2046,164,-94,81,-229,-212,-17,220
,1544,2023-10-27 10:34:54.86,201,95,-2042,146,-87,74,91,75,16,-83
,1545,2023-10-27 10:34:54.87,205,101,-2049,130,-81,69,-221,-207,-14,214
,1546,2023-10-27 10:34:54.88,202,99,-2049,116,-75,61,89,78,11,-83
,1547,2023-10-27 10:34:54.89,210,95,-2046,98,-67,49,-248,-228,-20,238
,1548,2023-10-27 10:34:54.90,197,97,-2053,81,-65,40,85,75,10,-80
,1549,2023-10-27 10:34:54.91,201,98,-2048,60,-62,28,-246,-226,-20,236
,1550,2023-10-27 10:34:54.92,203,101,-2040,41,-57,16,94,80,14,-87
,1551,2023-10-27 10:34:54.93,188,107,-2041,29,-57,7,-244,-225,-19,234
,1552,2023-10-27 10:34:54.94,200,95,-2040,16,-56,-4,98,86,12,-92
,1553,2023-10-27 10:34:54.95,187,105,-2032,6,-57,-17,-249,-229,-20,239
,1554,2023-10-27 10:34:54.96,194,101,-2048,1,-57,-31,98,88,10,-93
,1555,2023-10-27 10:34:54.97,190,94,-2051,0,-55,-40,-253,-233,-20,243
,1556,2023-10-27 10:34:54.98,184,94,-2049,0,-55,-48,94,80,14,-87
,1557,2023-10-27 10:34:54.99,198,104,-2057,5,-49,-50,-257,-238,-19,247
,1558,2023-10-27 10:34:55.00,190,105,-2050,10,-46,-50,97,85,12,-91
,1559,2023-10-27 10:34:55.01,184,97,-2052,15,-44,-50,-262,-242,-20,252
,1560,2023-10-27 10:34:55.02,186,102,-2067,23,-45,-49,99,88,11,-93
,1561,2023-10-27 10:34:55.03,188,107,-2069,25,-48,-48,-254,-236,-18,245
,1562,2023-10-27 10:34:55.04,183,102,-2065,18,-53,-43,105,90,15,-97
,1563,2023-10-27 10:34:55.05,180,102,-2066,15,-57,-36,-262,-242,-20,252
,1564,2023-10-27 10:34:55.06,182,103,-2071,15,-63,-27,99,87,12,-93
,1565,2023-10-27 10:34:55.07,176,95,-2066,17,-64,-20,-263,-246,-17,254
,1566,2023-10-27 10:34:55.08,182,95,-2068,15,-69,-15,101,89,12,-95
,1567,2023-10-27 10:34:55.09,184,98,-2054,16,-70,-9,-259,-244,-15,251
,1568,2023-10-27 10:34:55.10,171,96,-2057,16,-68,-5,107,94,13,-100
,1569,2023-10-27 10:34:55.11,178,101,-2057,20,-66,5,-258,-240,-18,249
,1570,2023-10-27 10:34:55.12,172,104,-2054,22,-58,10,108,97,11,-102
,1571,2023-10-27 10:34:55.13,160,110,-2061,22,-56,16,-254,-236,-18,245
,1572,2023-10-27 10:34:55.14,173,114,-2061,22,-54,13,109,99,10,-104
,1573,2023-10-27 10:34:55.15,161,117,-2048,16,-52,15,-250,-233,-17,241
,1574,2023-10-27 10:34:55.16,162,117,-2048,8,-52,14,110,100,10,-105
,1575,2023-10-27 10:34:55.17,151,110,-2035,6,-51,11,-254,-237,-17,245
,1576,2023-10-27 10:34:55.18,156,103,-2053,7,-51,10,94,88,6,-91
,1577,2023-10-27 10:34:55.19,153,100,-2061,8,-50,8,-259,-240,-19,249
,1578,2023-10-27 10:34:55.20,152,95,-2064,9,-51,9,109,95,14,-102
,1579,2023-10-27 10:34:55.21,150,98,-2055,11,-46,13,-246,-230,-16,238
,1580,2023-10-27 10:34:55.22,164,111,-2051,8,-36,16,110,99,11,-104
,1581,2023-10-27 10:34:55.23,163,115,-2059,10,-27,15,-250,-234,-16,242
,1582,2023-10-27 10:34:55.24,148,132,-2057,11,-21,13,103,91,12,-97
,1583,2023-10-27 10:34:55.25,155,128,-2054,8,-18,5,-248,-234,-14,241
,1584,2023-10-27 10:34:55.26,152,120,-2057,6,-11,0,106,95,11,-100
,1585,2023-10-27 10:34:55.27,137,119,-2053,3,-17,-6,-246,-232,-14,239
,1586,2023-10-27 10:34:55.28,146,117,-2056,0,-21,-7,110,101,9,-105
,1587,2023-10-27 10:34:55.29,144,112,-2059,-5,-25,-4,-241,-224,-17,232
,1588,2023-10-27 10:34:55.30,162,109,-2050,-6,-29,-3,103,95,8,-99
,1589,2023-10-27 10:34:55.31,159,112,-2050,-10,-29,0,-239,-223,-16,231
,1590,2023-10-27 10:34:55.32,163,121,-2053,-7,-25,4,113,100,13,-106
,1591,2023-10-27 10:34:55.33,149,114,-2049,-2,-24,3,-224,-209,-15,216
,1592,2023-10-27 10:34:55.34,155,117,-2052,1,-24,0,107,101,6,-104
,1593,2023-10-27 10:34:55.35,164,116,-2056,2,-24,0,-232,-217,-15,224
,1594,2023-10-27 10:34:55.36,157,111,-2058,4,-26,5,92,86,6,-89
,1595,2023-10-27 10:34:55.37,157,111,-2068,5,-29,7,-227,-213,-14,220
,1596,2023-10-27 10:34:55.38,147,115,-2059,14,-30,10,103,91,12,-97
,1597,2023-10-27 10:34:55.39,151,109,-2064,18,-28,11,-218,-207,-11,212
,1598,2023-10-27 10:34:55.40,148,111,-2063,20,-28,9,88,82,6,-85
,1599,2023-10-27 10:34:55.41,145,119,-2058,24,-27,8,-223,-210,-13,216
,1600,2023-10-27 10:34:55.42,150,119,-2048,25,-25,7,88,81,7,-84
,1601,2023-10-27 10:34:55.43,157,114,-2052,25,-22,9,-211,-198,-13,204
,1602,2023-10-27 10:34:55.44,152,117,-2056,21,-20,10,90,86,4,-88
,1603,2023-10-27 10:34:55.45,153,108,-2061,20,-20,14,-207,-193,-14,200
,1604,2023-10-27 10:34:55.46,150,112,-2067,11,-20,18,80,76,4,-78
,1605,2023-10-27 10:34:55.47,146,117,-2067,8,-17,18,-205,-195,-10,200
,1606,2023-10-27 10:34:55.48,150,116,-2051,5,-15,23,74,66,8,-70
,1607,2023-10-27 10:34:55.49,151,113,-2057,-1,-10,22,-200,-191,-9,195
,1608,2023-10-27 10:34:55.50,151,110,-2059,1,-7,23,70,66,4,-68
,1609,2023-10-27 10:34:55.51,161,106,-2058,1,-2,24,-197,-188,-9,192
,1610,2023-10-27 10:34:55.52,144,112,-2064,-3,3,22,60,55,5,-57
,1611,2023-10-27 10:34:55.53,159,109,-2059,-2,4,27,-194,-185,-9,189
,1612,2023-10-27 10:34:55.54,147,106,-2057,5,-2,31,57,53,4,-55
,1613,2023-10-27 10:34:55.55,153,114,-2065,3,-2,34,-189,-179,-10,184
,1614,2023-10-27 10:34:55.56,155,105,-2061,7,-4,39,45,44,1,-44
,1615,2023-10-27 10:34:55.57,149,109,-2051,9,-3,39,-188,-181,-7,184
,1616,2023-10-27 10:34:55.58,152,116,-2047,8,-2,41,33,32,1,-32
,1617,2023-10-27 10:34:55.59,161,117,-2047,9,0,44,-191,-179,-12,185
,1618,2023-10-27 10:34:55.60,167,122,-2050,7,1,41,26,27,-1,-26
,1619,2023-10-27 10:34:55.61,161,120,-2050,4,3,36,-178,-171,-7,174
,1620,2023-10-27 10:34:55.62,162,119,-2050,5,1,38,17,21,-4,-19
,1621,2023-10-27 10:34:55.63,166,113,-2050,2,2,35,-172,-167,-5,169
,1622,2023-10-27 10:34:55.64,167,111,-2056,4,0,37,18,15,3,-16
,1623,2023-10-27 10:34:55.65,156,108,-2061,3,3,36,-160,-155,-5,157
,1624,2023-10-27 10:34:55.66,156,113,-2061,3,5,33,16,20,-4,-18
,1625,2023-10-27 10:34:55.67,162,115,-2063,5,4,30,-150,-147,-3,148
,1626,2023-10-27 10:34:55.68,158,120,-2056,7,6,26,6,9,-3,-7
,1627,2023-10-27 10:34:55.69,155,114,-2054,10,6,26,-143,-139,-4,141
,1628,2023-10-27 10:34:55.70,162,118,-2056,10,6,23,7,9,-2,-8
,1629,2023-10-27 10:34:55.71,150,119,-2059,11,4,21,-129,-125,-4,127
,1630,2023-10-27 10:34:55.72,149,119,-2059,7,3,19,1,5,-4,-3
,1631,2023-10-27 10:34:55.73,156,116,-2062,7,1,19,-125,-122,-3,123
,1632,2023-10-27 10:34:55.74,157,119,-2059,5,-3,14,-10,-8,-2,9
,1633,2023-10-27 10:34:55.75,151,114,-2065,2,-7,14,-121,-122,1,121
,1634,2023-10-27 10:34:55.76,156,110,-2055,-3,-10,11,-15,-10,-5,12
,1635,2023-10-27 10:34:55.77,155,122,-2066,-9,-6,8,-104,-104,0,104
,1636,2023-10-27 10:34:55.78,155,110,-2066,-6,-9,9,-16,-11,-5,13
,1637,2023-10-27 10:34:55.79,165,119,-2061,-6,-9,10,-99,-100,1,99
,1638,2023-10-27 10:34:55.80,144,105,-2074,-4,-10,11,-27,-24,-3,25
,1639,2023-10-27 10:34:55.81,151,114,-2049,-3,-12,13,-94,-97,3,95
,1640,2023-10-27 10:34:55.82,154,111,-2051,-9,-12,11,-40,-31,-9,35
,1641,2023-10-27 10:34:55.83,153,114,-2054,-2,-8,9,-90,-90,0,90
,1642,2023-10-27 10:34:55.84,148,113,-2053,-2,-6,4,-51,-42,-9,46
,1643,2023-10-27 10:34:55.85,138,123,-2060,3,-8,4,-82,-84,2,83
,1644,2023-10-27 10:34:55.86,144,115,-2056,7,-6,4,-53,-46,-7,49
,1645,2023-10-27 10:34:55.87,152,119,-2060,7,-10,2,-71,-72,1,71
,1646,2023-10-27 10:34:55.88,146,112,-2055,8,-10,5,-64,-53,-11,58
,1647,2023-10-27 10:34:55.89,141,118,-2072,9,-12,3,-67,-70,3,68
,1648,2023-10-27 10:34:55.90,147,121,-2049,-5,-26,2,-70,-62,-8,66
,1649,2023-10-27 10:34:55.91,173,128,-2037,-33,-15,4,-58,-62,4,60
,1650,2023-10-27 10:34:55.92,143,114,-2049,-28,-24,-5,-76,-66,-10,71
,1651,2023-10-27 10:34:55.93,141,113,-2034,-18,-21,-9,-51,-55,4,53
,1652,2023-10-27 10:34:55.94,141,113,-2037,-7,-32,-13,-89,-79,-10,84
,1653,2023-10-27 10:34:55.95,141,110,-2052,-26,-21,-18,-54,-59,5,56
,1654,2023-10-27 10:34:55.96,137,123,-2053,-25,-11,-27,-109,-99,-10,104
,1655,2023-10-27 10:34:55.97,147,123,-2056,-4,-12,-38,-43,-54,11,48
,1656,2023-10-27 10:34:55.98,139,138,-2062,5,-9,-54,-106,-94,-12,100
,1657,2023-10-27 10:34:55.99,118,152,-2087,-5,-5,-79,-36,-41,5,38
,1658,2023-10-27 10:34:56.00,134,166,-2064,-10,-2,-105,-125,-109,-16,117
,1659,2023-10-27 10:34:56.01,131,163,-2070,-20,0,-170,-34,-40,6,37
,1660,2023-10-27 10:34:56.02,129,181,-2094,-34,6,-208,-121,-111,-10,116
,1661,2023-10-27 10:34:56.03,153,198,-2079,-52,6,-245,-17,-28,11,22
,1662,2023-10-27 10:34:56.04,155,227,-2048,-68,18,-283,-128,-115,-13,121
,1663,2023-10-27 10:34:56.05,145,236,-2062,-79,40,-318,-19,-26,7,22
,1664,2023-10-27 10:34:56.06,134,221,-2061,-81,56,-359,-141,-126,-15,133
,1665,2023-10-27 10:34:56.07,104,215,-2044,-71,62,-417,-11,-19,8,15
,1666,2023-10-27 10:34:56.08,104,192,-2062,-46,69,-490,-148,-137,-11,142
,1667,2023-10-27 10:34:56.09,97,170,-2038,-15,66,-550,-13,-22,9,17
,1668,2023-10-27 10:34:56.10,107,158,-2048,0,73,-596,-152,-138,-14,145
,1669,2023-10-27 10:34:56.11,134,152,-2051,18,65,-612,-4,-11,7,7
,1670,2023-10-27 10:34:56.12,137,155,-2034,19,62,-600,-165,-149,-16,157
,1671,2023-10-27 10:34:56.13,137,171,-2019,7,60,-585,1,-6,7,2
,1672,2023-10-27 10:34:56.14,143,189,-2009,-12,61,-575,-166,-150,-16,158
,1673,2023-10-27 10:34:56.15,122,183,-2010,-36,70,-579,14,6,8,-10
,1674,2023-10-27 10:34:56.16,136,189,-2036,-52,77,-596,-175,-157,-18,166
,1675,2023-10-27 10:34:56.17,131,186,-2042,-70,78,-616,16,8,8,-12
,1676,2023-10-27 10:34:56.18,150,165,-2060,-84,80,-627,-179,-165,-14,172
,1677,2023-10-27 10:34:56.19,140,159,-2070,-88,83,-617,22,8,14,-15
,1678,2023-10-27 10:34:56.20,139,153,-2067,-76,85,-605,-189,-172,-17,180
,1679,2023-10-27 10:34:56.21,135,156,-2061,-62,83,-592,30,19,11,-24
,1680,2023-10-27 10:34:56.22,140,144,-2068,-49,84,-583,-184,-169,-15,176
,1681,2023-10-27 10:34:56.23,147,125,-2077,-43,81,-571,43,30,13,-36
,1682,2023-10-27 10:34:56.24,147,156,-2063,-41,87,-553,-192,-178,-14,185
,1683,2023-10-27 10:34:56.25,160,160,-2052,-42,93,-536,38,28,10,-33
,1684,2023-10-27 10:34:56.26,164,171,-2044,-53,103,-516,-212,-192,-20,202
,1685,2023-10-27 10:34:56.27,179,177,-2022,-56,111,-505,37,30,7,-33
,1686,2023-10-27 10:34:56.28,174,174,-2041,-58,130,-491,-208,-188,-20,198
,1687,2023-10-27 10:34:56.29,175,174,-2047,-53,129,-491,58,48,10,-53
,1688,2023-10-27 10:34:56.30,166,185,-2092,-37,131,-493,-199,-182,-17,190
,1689,2023-10-27 10:34:56.31,162,164,-2076,-28,130,-499,64,52,12,-58
,1690,2023-10-27 10:34:56.32,151,163,-2073,-16,135,-500,-213,-194,-19,203
,1691,2023-10-27 10:34:56.33,179,173,-2063,2,127,-496,65,53,12,-59
,1692,2023-10-27 10:34:56.34,173,145,-2051,3,123,-484,-214,-197,-17,205
,1693,2023-10-27 10:34:56.35,204,162,-2039,5,112,-459,71,58,13,-64
,1694,2023-10-27 10:34:56.36,190,162,-2028,4,117,-432,-223,-204,-19,213
,1695,2023-10-27 10:34:56.37,194,161,-2017,-4,130,-411,66,55,11,-60
,1696,2023-10-27 10:34:56.38,201,179,-2012,-1,133,-393,-231,-214,-17,222
,1697,2023-10-27 10:34:56.39,210,173,-2018,3,153,-386,62,49,13,-55
,1698,2023-10-27 10:34:56.40,222,154,-2017,6,160,-380,-246,-231,-15,238
,1699,2023-10-27 10:34:56.41,197,173,-2034,13,171,-370,58,45,13,-51
,1700,2023-10-27 10:34:56.42,220,170,-2052,27,165,-358,-238,-217,-21,227
,1701,2023-10-27 10:34:56.43,220,187,-2082,31,176,-344,82,72,10,-77
,1702,2023-10-27 10:34:56.44,215,178,-2076,36,166,-335,-235,-215,-20,225
,1703,2023-10-27 10:34:56.45,215,178,-2096,44,149,-325,80,68,12,-74
,1704,2023-10-27 10:34:56.46,208,184,-2090,55,130,-326,-246,-228,-18,237
,1705,2023-10-27 10:34:56.47,217,174,-2084,68,100,-324,78,62,16,-70
,1706,2023-10-27 10:34:56.48,213,180,-2096,71,97,-318,-255,-235,-20,245
,1707,2023-10-27 10:34:56.49,201,173,-2101,74,83,-316,78,66,12,-72
,1708,2023-10-27 10:34:56.50,202,175,-2096,78,65,-313,-263,-248,-15,255
,1709,2023-10-27 10:34:56.51,208,173,-2092,72,59,-313,84,71,13,-77
,1710,2023-10-27 10:34:56.52,201,182,-2084,68,53,-311,-257,-236,-21,246
,1711,2023-10-27 10:34:56.53,211,166,-2070,65,49,-314,85,76,9,-80
,1712,2023-10-27 10:34:56.54,205,172,-2061,71,53,-316,-263,-240,-23,251
,1713,2023-10-27 10:34:56.55,206,170,-2047,85,49,-321,86,75,11,-80
,1714,2023-10-27 10:34:56.56,198,176,-2056,91,52,-324,-262,-244,-18,253
,1715,2023-10-27 10:34:56.57,179,177,-2065,109,39,-339,94,79,15,-86
,1716,2023-10-27 10:34:56.58,163,156,-2070,138,20,-348,-262,-242,-20,252
,1717,2023-10-27 10:34:56.59,143,143,-2067,160,-11,-366,96,84,12,-90
,1718,2023-10-27 10:34:56.60,151,128,-2044,169,-36,-375,-262,-242,-20,252
