// Data mode  : Full
// Data quality  : High
// Acceleration sensor's range  : 16g
// Gyroscope sensor's range  : 2000dps
//
//ARTIFACT,NUM,DATE,ACC_X,ACC_Y,ACC_Z,GYRO_X,GYRO_Y,GYRO_Z,EOG_L,EOG_R,EOG_H,EOG_V
,1,2023-10-20 13:38:05.83,7,-194,-1977,-30,73,-100,-473,2029,-2502,-778
,2,2023-10-20 13:38:05.84,11,-150,-1985,-32,140,-60,-226,1803,-2029,-788
,3,2023-10-20 13:38:05.85,-9,-122,-2005,-16,151,-9,-346,1159,-1505,-406
,4,2023-10-20 13:38:05.86,-24,-96,-1982,-1,123,41,-841,624,-1465,108
,5,2023-10-20 13:38:05.87,-43,-26,-1976,7,85,60,-920,206,-1126,357
,6,2023-10-20 13:38:05.88,-53,25,-1977,-12,98,51,-992,-19,-973,505
,7,2023-10-20 13:38:05.89,-47,25,-1978,-3,99,26,-700,-249,-451,474
,8,2023-10-20 13:38:05.90,-42,-10,-1975,29,77,9,-669,-399,-270,534
,9,2023-10-20 13:38:05.91,-44,4,-1982,58,63,3,-442,-570,128,506
,10,2023-10-20 13:38:05.92,-21,-2,-2003,39,70,-6,-548,-682,134,615
,11,2023-10-20 13:38:05.93,-45,-59,-2051,2,120,-31,-354,-897,543,625
,12,2023-10-20 13:38:05.94,-28,-126,-2071,5,105,-47,-235,-905,670,570
,13,2023-10-20 13:38:05.95,-24,-156,-2055,36,86,-39,-302,-940,638,621
,14,2023-10-20 13:38:05.96,-8,-139,-2038,57,99,-16,-464,-691,227,577
,15,2023-10-20 13:38:05.97,12,-104,-2040,67,121,13,-245,-764,519,504
,16,2023-10-20 13:38:05.98,19,-64,-2065,69,118,34,-346,-702,356,524
,17,2023-10-20 13:38:05.99,16,-45,-2095,65,141,44,-120,-890,770,505
,18,2023-10-20 13:38:06.00,15,-11,-2127,50,145,48,-319,-842,523,580
,19,2023-10-20 13:38:06.01,20,-1,-2148,11,149,40,-31,-983,952,507
,20,2023-10-20 13:38:06.02,38,20,-2159,-23,149,28,-211,-900,689,555
,21,2023-10-20 13:38:06.03,19,-3,-2157,-76,150,35,137,-1024,1161,443
,22,2023-10-20 13:38:06.04,-6,-53,-2161,-112,131,56,-64,-938,874,501
,23,2023-10-20 13:38:06.05,-15,-65,-2158,-127,106,89,287,-1060,1347,386
,24,2023-10-20 13:38:06.06,-1,-99,-2142,-135,87,115,58,-977,1035,459
,25,2023-10-20 13:38:06.07,-8,-105,-2093,-145,82,137,361,-1095,1456,367
,26,2023-10-20 13:38:06.08,6,-92,-2072,-133,66,159,77,-1007,1084,465
,27,2023-10-20 13:38:06.09,12,-81,-2076,-111,56,188,371,-1119,1490,374
,28,2023-10-20 13:38:06.10,6,-41,-2070,-93,47,205,86,-1019,1105,466
,29,2023-10-20 13:38:06.11,-4,-1,-2072,-98,41,208,382,-1132,1514,375
,30,2023-10-20 13:38:06.12,-17,11,-2041,-113,36,204,83,-1039,1122,478
,31,2023-10-20 13:38:06.13,-29,-1,-2043,-120,34,195,382,-1152,1534,385
,32,2023-10-20 13:38:06.14,-35,-9,-2028,-130,20,191,81,-1052,1133,485
,33,2023-10-20 13:38:06.15,-17,-29,-2003,-137,34,186,388,-1161,1549,386
,34,2023-10-20 13:38:06.16,-37,-33,-2049,-126,23,197,86,-1054,1140,484
,35,2023-10-20 13:38:06.17,-51,-13,-2081,-130,28,216,394,-1160,1554,383
,36,2023-10-20 13:38:06.18,-58,-8,-2112,-139,21,225,84,-1050,1134,483
,37,2023-10-20 13:38:06.19,-82,-23,-2109,-147,17,229,392,-1124,1516,366
,38,2023-10-20 13:38:06.20,-83,-44,-2087,-143,16,229,74,-979,1053,452
,39,2023-10-20 13:38:06.21,-82,-39,-2113,-126,2,239,382,-1037,1419,327
,40,2023-10-20 13:38:06.22,-76,-37,-2100,-102,-9,257,66,-898,964,416
,41,2023-10-20 13:38:06.23,-71,-36,-2070,-95,-6,270,384,-955,1339,285
,42,2023-10-20 13:38:06.24,-47,-21,-2039,-85,5,278,66,-816,882,375
,43,2023-10-20 13:38:06.25,-60,0,-2037,-74,22,287,388,-858,1246,235
,44,2023-10-20 13:38:06.26,-49,32,-2018,-49,27,275,64,-718,782,327
,45,2023-10-20 13:38:06.27,-60,40,-2036,-26,51,251,387,-741,1128,177
,46,2023-10-20 13:38:06.28,-49,36,-2064,0,54,226,64,-602,666,269
,47,2023-10-20 13:38:06.29,-60,18,-2104,14,74,203,388,-609,997,110
,48,2023-10-20 13:38:06.30,-58,28,-2094,23,77,195,62,-475,537,206
,49,2023-10-20 13:38:06.31,-51,25,-2059,31,80,187,376,-491,867,57
,50,2023-10-20 13:38:06.32,-31,32,-2036,38,66,177,46,-380,426,167
,51,2023-10-20 13:38:06.33,12,43,-1981,33,74,158,393,-391,784,-1
,52,2023-10-20 13:38:06.34,20,49,-2006,21,95,135,82,-292,374,105
,53,2023-10-20 13:38:06.35,17,51,-2046,11,111,122,384,-309,693,-37
,54,2023-10-20 13:38:06.36,29,28,-2080,9,110,117,44,-230,274,93
,55,2023-10-20 13:38:06.37,26,5,-2078,2,103,114,360,-248,608,-56
,56,2023-10-20 13:38:06.38,39,20,-2101,-13,102,112,45,-187,232,71
,57,2023-10-20 13:38:06.39,25,13,-2108,-24,91,113,374,-201,575,-86
,58,2023-10-20 13:38:06.40,28,30,-2107,-40,78,115,61,-152,213,45
,59,2023-10-20 13:38:06.41,38,37,-2088,-54,69,114,373,-154,527,-109
,60,2023-10-20 13:38:06.42,55,67,-2076,-56,62,112,45,-76,121,15
,61,2023-10-20 13:38:06.43,64,75,-2023,-64,51,106,865,-784,1649,-40
,62,2023-10-20 13:38:06.44,77,67,-1965,-65,62,89,2047,-1625,3672,-211
,63,2023-10-20 13:38:06.45,68,74,-1982,-48,82,74,2047,-2048,4095,0
,64,2023-10-20 13:38:06.46,45,54,-2023,-25,82,67,2047,-2048,4095,0
,65,2023-10-20 13:38:06.47,26,33,-2068,-7,62,66,2047,-1590,3637,-228
,66,2023-10-20 13:38:06.48,12,-7,-2073,7,38,67,2047,-374,2421,-836
,67,2023-10-20 13:38:06.49,42,-93,-1978,56,49,63,2047,1343,704,-1695
,68,2023-10-20 13:38:06.50,-28,-48,-2135,139,21,68,2047,2047,0,-2047
,69,2023-10-20 13:38:06.51,-24,19,-2164,149,-31,104,2047,2047,0,-2047
,70,2023-10-20 13:38:06.52,-37,53,-2143,104,-57,127,2047,2047,0,-2047
,71,2023-10-20 13:38:06.53,-61,16,-2126,64,-82,130,2047,2047,0,-2047
,72,2023-10-20 13:38:06.54,-83,50,-2143,22,-98,121,2047,2047,0,-2047
,73,2023-10-20 13:38:06.55,-65,45,-2117,-20,-126,129,2047,2047,0,-2047
,74,2023-10-20 13:38:06.56,-77,-14,-2074,-25,-134,121,2047,2047,0,-2047
,75,2023-10-20 13:38:06.57,-75,1,-2082,-10,-130,108,2047,2037,10,-2042
,76,2023-10-20 13:38:06.58,-96,2,-2070,5,-115,106,2047,2047,0,-2047
,77,2023-10-20 13:38:06.59,-116,30,-2071,23,-120,109,2047,2047,0,-2047
,78,2023-10-20 13:38:06.60,-142,27,-2025,20,-119,99,2047,2047,0,-2047
,79,2023-10-20 13:38:06.61,-149,0,-1993,9,-109,82,2047,2047,0,-2047
,80,2023-10-20 13:38:06.62,-131,-56,-1984,12,-100,69,2047,2043,4,-2045
,81,2023-10-20 13:38:06.63,-144,-77,-2006,29,-82,64,-82,1512,-1594,-715
,82,2023-10-20 13:38:06.64,-135,-81,-2013,59,-78,73,-1701,125,-1826,788
,83,2023-10-20 13:38:06.65,-108,-75,-2026,83,-67,91,-1376,-903,-473,1139
,84,2023-10-20 13:38:06.66,-133,-63,-2025,95,-73,110,-466,-1014,548,740
,85,2023-10-20 13:38:06.67,-92,-21,-2028,88,-59,120,5,-995,1000,495
,86,2023-10-20 13:38:06.68,-74,-3,-2028,71,-36,127,-18,-774,756,396
,87,2023-10-20 13:38:06.69,-86,-20,-2009,40,2,120,-179,-895,716,537
,88,2023-10-20 13:38:06.70,-49,-22,-2018,24,41,103,-250,-845,595,547
,89,2023-10-20 13:38:06.71,-37,-56,-2037,42,66,95,-57,-1019,962,538
,90,2023-10-20 13:38:06.72,-36,-92,-2071,71,81,91,-36,-934,898,485
,91,2023-10-20 13:38:06.73,-36,-97,-2091,100,81,98,157,-1062,1219,452
,92,2023-10-20 13:38:06.74,-27,-88,-2095,113,90,98,61,-960,1021,449
,93,2023-10-20 13:38:06.75,-12,-80,-2114,135,91,93,285,-1084,1369,399
,94,2023-10-20 13:38:06.76,-24,-75,-2104,162,64,87,162,-988,1150,413
,95,2023-10-20 13:38:06.77,-9,-53,-2116,181,36,86,340,-1111,1451,385
,96,2023-10-20 13:38:06.78,-13,-35,-2097,182,21,76,167,-1013,1180,423
,97,2023-10-20 13:38:06.79,-12,-15,-2082,166,24,50,330,-1129,1459,399
,98,2023-10-20 13:38:06.80,-21,-5,-2092,154,5,27,166,-1033,1199,433
,99,2023-10-20 13:38:06.81,-19,-5,-2074,133,5,9,327,-1144,1471,408
,100,2023-10-20 13:38:06.82,-31,-15,-2061,121,-25,-9,171,-1051,1222,440
,101,2023-10-20 13:38:06.83,-27,-40,-2041,114,-32,-34,328,-1156,1484,414
,102,2023-10-20 13:38:06.84,-20,-80,-2024,115,-30,-51,175,-1060,1235,442
,103,2023-10-20 13:38:06.85,-5,-106,-2025,128,-25,-50,320,-1140,1460,410
,104,2023-10-20 13:38:06.86,-23,-116,-2021,149,-28,-37,176,-1037,1213,430
,105,2023-10-20 13:38:06.87,-17,-118,-2000,164,-27,-27,319,-1068,1387,374
,106,2023-10-20 13:38:06.88,-20,-121,-2016,168,-24,-22,184,-967,1151,391
,107,2023-10-20 13:38:06.89,-12,-120,-2025,175,-18,-13,313,-976,1289,331
,108,2023-10-20 13:38:06.90,-6,-106,-2020,178,-16,3,185,-897,1082,356
,109,2023-10-20 13:38:06.91,-12,-107,-2018,160,1,16,317,-871,1188,277
,110,2023-10-20 13:38:06.92,1,-101,-2015,139,16,26,200,-803,1003,301
,111,2023-10-20 13:38:06.93,11,-112,-2015,119,38,35,297,-765,1062,234
,112,2023-10-20 13:38:06.94,14,-104,-2002,112,44,38,190,-724,914,267
,113,2023-10-20 13:38:06.95,11,-103,-2018,106,61,37,587,-691,1278,52
,114,2023-10-20 13:38:06.96,8,-117,-2028,106,65,42,1425,244,1181,-834
,115,2023-10-20 13:38:06.97,15,-139,-2042,111,63,45,2047,1824,223,-1935
,116,2023-10-20 13:38:06.98,23,-139,-2060,120,60,51,2047,2047,0,-2047
,117,2023-10-20 13:38:06.99,7,-145,-2077,120,55,61,2047,2047,0,-2047
,118,2023-10-20 13:38:07.00,-9,-137,-2118,115,50,71,2047,2047,0,-2047
,119,2023-10-20 13:38:07.01,-2,-118,-2113,103,31,77,2047,2047,0,-2047
,120,2023-10-20 13:38:07.02,-18,-113,-2107,98,10,82,2047,2047,0,-2047
,121,2023-10-20 13:38:07.03,-20,-97,-2087,87,-1,79,2047,2047,0,-2047
,122,2023-10-20 13:38:07.04,-14,-103,-2057,65,3,70,2047,2047,0,-2047
,123,2023-10-20 13:38:07.05,-28,-110,-2057,56,2,66,2047,2047,0,-2047
,124,2023-10-20 13:38:07.06,-36,-126,-2061,53,-6,69,2047,2043,4,-2045
,125,2023-10-20 13:38:07.07,-52,-145,-2051,63,-26,81,2047,2047,0,-2047
,126,2023-10-20 13:38:07.08,-65,-135,-2055,76,-49,91,2047,2044,3,-2045
,127,2023-10-20 13:38:07.09,-61,-126,-2064,80,-63,94,2047,2047,0,-2047
,128,2023-10-20 13:38:07.10,-67,-116,-2074,68,-68,99,2047,2046,1,-2046
,129,2023-10-20 13:38:07.11,-79,-104,-2077,49,-62,106,2047,2047,0,-2047
,130,2023-10-20 13:38:07.12,-88,-91,-2080,36,-64,105,2047,2047,0,-2047
,131,2023-10-20 13:38:07.13,-101,-119,-2086,20,-64,102,2047,2047,0,-2047
,132,2023-10-20 13:38:07.14,-117,-102,-2088,-3,-53,99,2047,2046,1,-2046
,133,2023-10-20 13:38:07.15,-97,-127,-2100,-18,-49,107,2047,2047,0,-2047
,134,2023-10-20 13:38:07.16,-98,-114,-2056,-39,-44,115,-634,2044,-2678,-705
,135,2023-10-20 13:38:07.17,-77,-122,-2034,-53,-34,123,-1066,2035,-3101,-484
,136,2023-10-20 13:38:07.18,-59,-90,-1999,-53,-28,123,-552,2028,-2580,-738
,137,2023-10-20 13:38:07.19,-37,-107,-1988,-59,1,118,51,2004,-1953,-1027
,138,2023-10-20 13:38:07.20,-14,-107,-1982,-54,41,118,-66,1825,-1891,-879
,139,2023-10-20 13:38:07.21,-15,-125,-1988,-32,58,122,-229,1626,-1855,-698
,140,2023-10-20 13:38:07.22,-5,-138,-2000,-3,79,128,-432,1254,-1686,-411
,141,2023-10-20 13:38:07.23,-12,-122,-2011,17,95,142,-408,983,-1391,-287
,142,2023-10-20 13:38:07.24,-24,-109,-2035,31,94,157,-481,638,-1119,-78
,143,2023-10-20 13:38:07.25,-25,-92,-2049,43,85,170,-560,348,-908,106
,144,2023-10-20 13:38:07.26,-46,-91,-2071,43,68,180,-736,-95,-641,415
,145,2023-10-20 13:38:07.27,-54,-112,-2069,46,38,192,-962,-451,-511,706
,146,2023-10-20 13:38:07.28,-50,-120,-2055,54,10,203,-967,-922,-45,944
,147,2023-10-20 13:38:07.29,-60,-125,-2055,56,-4,209,-1019,-1056,37,1037
,148,2023-10-20 13:38:07.30,-46,-129,-2050,52,-7,219,-747,-1055,308,901
,149,2023-10-20 13:38:07.31,-44,-144,-2041,57,3,226,-601,-873,272,737
,150,2023-10-20 13:38:07.32,-55,-165,-2048,58,12,237,-235,-832,597,533
,151,2023-10-20 13:38:07.33,-51,-194,-2072,70,22,256,-307,-772,465,539
,152,2023-10-20 13:38:07.34,-61,-175,-2056,89,15,278,-105,-876,771,490
,153,2023-10-20 13:38:07.35,-36,-167,-2052,103,22,295,-310,-891,581,600
,154,2023-10-20 13:38:07.36,-49,-168,-2054,112,37,305,-11,-972,961,491
,155,2023-10-20 13:38:07.37,-54,-168,-2079,113,58,314,-108,-956,848,532
,156,2023-10-20 13:38:07.38,-58,-162,-2088,120,45,316,187,-1015,1202,414
,157,2023-10-20 13:38:07.39,-69,-128,-2095,123,38,315,56,-990,1046,467
,158,2023-10-20 13:38:07.40,-57,-114,-2082,111,35,313,299,-1042,1341,371
,159,2023-10-20 13:38:07.41,-57,-113,-2086,95,32,306,138,-1015,1153,438
,160,2023-10-20 13:38:07.42,-63,-120,-2085,75,29,298,354,-1068,1422,357
,161,2023-10-20 13:38:07.43,-49,-154,-2092,65,25,297,168,-1035,1203,433
,162,2023-10-20 13:38:07.44,-37,-135,-2054,66,24,296,360,-1092,1452,366
,163,2023-10-20 13:38:07.45,-27,-131,-2052,61,27,293,140,-1058,1198,459
,164,2023-10-20 13:38:07.46,-6,-128,-2014,52,39,293,356,-1111,1467,377
,165,2023-10-20 13:38:07.47,7,-137,-2004,56,53,283,156,-1068,1224,456
,166,2023-10-20 13:38:07.48,11,-147,-2018,62,74,278,376,-1122,1498,373
,167,2023-10-20 13:38:07.49,16,-145,-2009,66,90,274,156,-1074,1230,459
,168,2023-10-20 13:38:07.50,25,-134,-2032,69,104,267,374,-1131,1505,378
,169,2023-10-20 13:38:07.51,23,-136,-2034,76,106,260,145,-1077,1222,466
,170,2023-10-20 13:38:07.52,11,-133,-2043,78,104,261,384,-1115,1499,365
,171,2023-10-20 13:38:07.53,9,-143,-2076,82,89,261,153,-1017,1170,432
,172,2023-10-20 13:38:07.54,1,-146,-2080,94,58,260,382,-1043,1425,330
,173,2023-10-20 13:38:07.55,-6,-142,-2072,85,43,264,122,-927,1049,402
,174,2023-10-20 13:38:07.56,-12,-143,-2067,70,27,269,367,-960,1327,296
,175,2023-10-20 13:38:07.57,-18,-172,-2066,63,9,268,118,-837,955,359
,176,2023-10-20 13:38:07.58,-19,-178,-2058,61,-2,272,374,-876,1250,251
,177,2023-10-20 13:38:07.59,-31,-184,-2055,61,-12,278,107,-738,845,315
,178,2023-10-20 13:38:07.60,-17,-210,-2069,60,-12,287,371,-796,1167,212
,179,2023-10-20 13:38:07.61,-57,-164,-2047,62,-14,289,99,-665,764,283
,180,2023-10-20 13:38:07.62,-41,-167,-2019,60,-21,283,375,-718,1093,171
,181,2023-10-20 13:38:07.63,-39,-149,-2022,47,3,259,100,-570,670,235
,182,2023-10-20 13:38:07.64,-10,-134,-2027,27,21,231,374,-622,996,124
,183,2023-10-20 13:38:07.65,-11,-132,-2030,12,48,215,84,-469,553,192
,184,2023-10-20 13:38:07.66,-16,-124,-2058,0,57,196,375,-520,895,72
,185,2023-10-20 13:38:07.67,-8,-128,-2071,-9,56,178,96,-360,456,132
,186,2023-10-20 13:38:07.68,-5,-139,-2055,-9,46,173,379,-415,794,18
,187,2023-10-20 13:38:07.69,-18,-134,-2048,-8,37,171,74,-264,338,95
,188,2023-10-20 13:38:07.70,9,-148,-2043,-17,34,163,366,-329,695,-18
,189,2023-10-20 13:38:07.71,-12,-132,-2053,-25,44,166,71,-186,257,57
,190,2023-10-20 13:38:07.72,-17,-151,-2079,-17,35,183,372,-255,627,-58
,191,2023-10-20 13:38:07.73,-32,-130,-2093,-19,30,194,66,-119,185,26
,192,2023-10-20 13:38:07.74,-51,-138,-2100,-27,21,192,360,-188,548,-86
,193,2023-10-20 13:38:07.75,-35,-150,-2079,-29,3,194,54,-62,116,4
,194,2023-10-20 13:38:07.76,-15,-156,-2050,-23,-21,193,364,-129,493,-117
,195,2023-10-20 13:38:07.77,-27,-132,-2021,-12,-19,193,69,-10,79,-29
,196,2023-10-20 13:38:07.78,-16,-108,-2003,-2,-5,185,384,-76,460,-154
,197,2023-10-20 13:38:07.79,12,-110,-2022,1,17,172,76,24,52,-50
,198,2023-10-20 13:38:07.80,5,-110,-2044,0,39,154,376,-28,404,-174
,199,2023-10-20 13:38:07.81,-9,-122,-2067,-4,60,150,50,73,-23,-61
,200,2023-10-20 13:38:07.82,-18,-138,-2104,-10,83,153,364,43,321,-203
,201,2023-10-20 13:38:07.83,-11,-116,-2090,-17,78,161,48,130,-82,-89
,202,2023-10-20 13:38:07.84,-23,-114,-2091,-17,64,155,372,91,281,-231
,203,2023-10-20 13:38:07.85,-2,-106,-2068,-16,57,145,70,150,-80,-110
,204,2023-10-20 13:38:07.86,3,-86,-2072,-17,48,137,395,95,300,-245
,205,2023-10-20 13:38:07.87,16,-66,-2059,-29,31,135,74,141,-67,-107
,206,2023-10-20 13:38:07.88,20,-61,-2071,-47,32,136,371,99,272,-235
,207,2023-10-20 13:38:07.89,12,-56,-2121,-65,21,138,40,138,-98,-89
,208,2023-10-20 13:38:07.90,-28,-74,-2148,-69,1,141,363,64,299,-213
,209,2023-10-20 13:38:07.91,-48,-79,-2156,-77,-22,150,50,77,-27,-63
,210,2023-10-20 13:38:07.92,-49,-104,-2109,-87,-52,166,376,31,345,-203
,211,2023-10-20 13:38:07.93,-29,-127,-2045,-108,-55,174,58,72,-14,-65
,212,2023-10-20 13:38:07.94,-35,-57,-2029,-105,-63,167,374,45,329,-209
,213,2023-10-20 13:38:07.95,-24,-57,-1983,-97,-54,152,51,75,-24,-63
,214,2023-10-20 13:38:07.96,-11,-50,-1949,-108,-25,161,362,29,333,-195
,215,2023-10-20 13:38:07.97,-37,-33,-1971,-110,8,173,40,34,6,-37
,216,2023-10-20 13:38:07.98,-41,-49,-1976,-96,18,168,365,14,351,-189
,217,2023-10-20 13:38:07.99,-38,-50,-2010,-80,18,150,11,19,-8,-15
,218,2023-10-20 13:38:08.00,-35,-39,-2001,-80,24,128,832,676,156,-754
,219,2023-10-20 13:38:08.01,4,-46,-1990,-81,37,111,2047,1891,156,-1969
,220,2023-10-20 13:38:08.02,20,-50,-1992,-76,48,106,2047,2021,26,-2034
,221,2023-10-20 13:38:08.03,19,-75,-1987,-61,71,104,2047,865,1182,-1456
,222,2023-10-20 13:38:08.04,17,-77,-2017,-28,75,94,-48,-373,325,210
,223,2023-10-20 13:38:08.05,-1,-105,-2069,13,80,77,-1634,-711,-923,1172
,224,2023-10-20 13:38:08.06,7,-132,-2082,46,65,68,-682,-789,107,735
,225,2023-10-20 13:38:08.07,-6,-164,-2099,77,58,78,101,-606,707,252
,226,2023-10-20 13:38:08.08,3,-182,-2099,99,55,99,754,-677,1431,-38
,227,2023-10-20 13:38:08.09,22,-185,-2104,117,64,117,261,-629,890,184
,228,2023-10-20 13:38:08.10,19,-182,-2114,140,57,138,341,-763,1104,211
,229,2023-10-20 13:38:08.11,37,-190,-2112,142,78,154,8,-698,706,345
,230,2023-10-20 13:38:08.12,33,-151,-2098,139,94,174,353,-756,1109,201
,231,2023-10-20 13:38:08.13,47,-174,-2098,139,96,173,96,-657,753,280
,232,2023-10-20 13:38:08.14,29,-132,-2071,121,101,164,395,-689,1084,147
,233,2023-10-20 13:38:08.15,26,-97,-2082,103,101,147,84,-600,684,258
,234,2023-10-20 13:38:08.16,26,-131,-2069,89,101,131,376,-616,992,120
,235,2023-10-20 13:38:08.17,33,-137,-2053,69,88,120,85,-537,622,226
,236,2023-10-20 13:38:08.18,20,-140,-2024,47,78,121,379,-535,914,78
,237,2023-10-20 13:38:08.19,21,-153,-2035,40,53,118,89,-472,561,191
,238,2023-10-20 13:38:08.20,20,-170,-2025,61,16,123,377,-453,830,38
,239,2023-10-20 13:38:08.21,21,-136,-2026,74,-13,131,103,-399,502,148
,240,2023-10-20 13:38:08.22,19,-126,-2036,68,-31,138,382,-362,744,-10
,241,2023-10-20 13:38:08.23,34,-126,-2023,50,-38,135,101,-326,427,112
,242,2023-10-20 13:38:08.24,29,-119,-2014,39,-35,123,363,-291,654,-36
,243,2023-10-20 13:38:08.25,28,-124,-2014,42,-32,116,94,-276,370,91
,244,2023-10-20 13:38:08.26,37,-144,-2009,49,-51,120,374,-236,610,-69
,245,2023-10-20 13:38:08.27,33,-138,-2039,48,-40,117,123,-240,363,58
,246,2023-10-20 13:38:08.28,24,-144,-2046,39,-33,118,364,-192,556,-86
,247,2023-10-20 13:38:08.29,27,-143,-2032,20,-40,122,108,-212,320,52
,248,2023-10-20 13:38:08.30,31,-135,-2051,7,-38,117,349,-144,493,-102
,249,2023-10-20 13:38:08.31,4,-128,-2044,-7,-49,116,111,-169,280,29
,250,2023-10-20 13:38:08.32,5,-135,-2081,-31,-46,123,351,-89,440,-131
,251,2023-10-20 13:38:08.33,24,-138,-2070,-45,-43,129,121,-135,256,7
,252,2023-10-20 13:38:08.34,0,-132,-2052,-39,-57,126,356,-43,399,-156
,253,2023-10-20 13:38:08.35,-3,-140,-2103,-56,-43,129,125,-102,227,-11
,254,2023-10-20 13:38:08.36,-38,-143,-2127,-54,-54,153,388,16,372,-202
,255,2023-10-20 13:38:08.37,-63,-142,-2132,-47,-59,164,174,-56,230,-59
,256,2023-10-20 13:38:08.38,-84,-137,-2145,-58,-75,167,354,69,285,-211
,257,2023-10-20 13:38:08.39,-105,-132,-2134,-47,-115,177,127,-23,150,-52
,258,2023-10-20 13:38:08.40,-124,-138,-2132,-40,-152,186,318,117,201,-217
,259,2023-10-20 13:38:08.41,-93,-98,-2107,-37,-176,184,127,12,115,-69
,260,2023-10-20 13:38:08.42,-96,-39,-2070,-66,-176,167,326,152,174,-239
,261,2023-10-20 13:38:08.43,-88,10,-2070,-122,-144,138,142,18,124,-80
,262,2023-10-20 13:38:08.44,-66,0,-2047,-174,-111,99,316,151,165,-233
,263,2023-10-20 13:38:08.45,-77,-18,-2026,-197,-94,84,142,19,123,-80
,264,2023-10-20 13:38:08.46,-98,-6,-2054,-215,-57,77,313,172,141,-242
,265,2023-10-20 13:38:08.47,-119,-36,-2075,-227,-39,75,148,32,116,-90
,266,2023-10-20 13:38:08.48,-128,-41,-2050,-222,-47,71,312,190,122,-251
,267,2023-10-20 13:38:08.49,-122,-16,-2063,-203,-76,75,162,41,121,-101
,268,2023-10-20 13:38:08.50,-95,-2,-2031,-195,-74,77,297,195,102,-246
,269,2023-10-20 13:38:08.51,-62,2,-2006,-175,-58,54,160,40,120,-100
,270,2023-10-20 13:38:08.52,-41,-2,-1976,-149,-24,29,300,191,109,-245
,271,2023-10-20 13:38:08.53,-8,-2,-1944,-114,20,6,180,36,144,-108
,272,2023-10-20 13:38:08.54,0,-37,-1971,-62,58,-11,302,205,97,-253
,273,2023-10-20 13:38:08.55,-7,-70,-1994,-4,101,-22,185,49,136,-117
,274,2023-10-20 13:38:08.56,9,-77,-2001,54,123,-20,273,229,44,-251
,275,2023-10-20 13:38:08.57,-9,-83,-2020,118,143,-16,182,75,107,-128
,276,2023-10-20 13:38:08.58,-13,-88,-2009,184,135,-3,265,275,-10,-270
,277,2023-10-20 13:38:08.59,-9,-104,-2012,245,115,4,178,97,81,-137
,278,2023-10-20 13:38:08.60,-14,-133,-2030,305,102,6,273,287,-14,-280
,279,2023-10-20 13:38:08.61,-6,-128,-2022,355,79,8,208,100,108,-154
,280,2023-10-20 13:38:08.62,-27,-155,-2030,372,77,16,268,293,-25,-280
,281,2023-10-20 13:38:08.63,-44,-154,-2086,383,83,31,202,108,94,-155
,282,2023-10-20 13:38:08.64,-70,-177,-2083,379,89,53,248,316,-68,-282
,283,2023-10-20 13:38:08.65,-76,-177,-2089,366,55,71,201,128,73,-164
,284,2023-10-20 13:38:08.66,-66,-197,-2063,358,29,84,239,334,-95,-286
,285,2023-10-20 13:38:08.67,-63,-215,-2060,367,9,79,206,133,73,-169
,286,2023-10-20 13:38:08.68,-42,-233,-2046,379,-15,66,240,340,-100,-290
,287,2023-10-20 13:38:08.69,2,-232,-2029,390,-2,43,222,139,83,-180
,288,2023-10-20 13:38:08.70,19,-232,-2055,411,25,29,238,353,-115,-295
,289,2023-10-20 13:38:08.71,30,-239,-2054,417,55,8,227,148,79,-187
,290,2023-10-20 13:38:08.72,41,-248,-2046,418,83,-4,226,365,-139,-295
,291,2023-10-20 13:38:08.73,44,-220,-2058,406,104,-11,230,152,78,-191
,292,2023-10-20 13:38:08.74,37,-224,-2048,384,114,-13,228,364,-136,-296
,293,2023-10-20 13:38:08.75,26,-209,-2070,345,127,-23,240,153,87,-196
,294,2023-10-20 13:38:08.76,19,-227,-2070,289,125,-31,201,360,-159,-280
,295,2023-10-20 13:38:08.77,10,-224,-2069,246,122,-26,228,150,78,-189
,296,2023-10-20 13:38:08.78,9,-199,-2104,192,112,-19,190,358,-168,-274
,297,2023-10-20 13:38:08.79,12,-238,-2070,147,85,-20,248,147,101,-197
,298,2023-10-20 13:38:08.80,20,-232,-2068,108,63,-13,207,350,-143,-278
,299,2023-10-20 13:38:08.81,22,-226,-2076,81,36,-3,265,144,121,-204
,300,2023-10-20 13:38:08.82,15,-245,-2063,51,14,6,192,350,-158,-271
,301,2023-10-20 13:38:08.83,13,-229,-2077,16,0,13,254,145,109,-199
,302,2023-10-20 13:38:08.84,8,-239,-2069,-11,-30,24,176,352,-176,-264
,303,2023-10-20 13:38:08.85,19,-231,-2073,-24,-55,32,263,147,116,-205
,304,2023-10-20 13:38:08.86,-6,-244,-2074,-34,-64,42,182,353,-171,-267
,305,2023-10-20 13:38:08.87,-12,-256,-2100,-15,-102,53,278,151,127,-214
,306,2023-10-20 13:38:08.88,-14,-239,-2073,-2,-136,60,180,351,-171,-265
,307,2023-10-20 13:38:08.89,-39,-234,-2081,-9,-134,44,281,146,135,-213
,308,2023-10-20 13:38:08.90,-47,-228,-2101,-9,-133,29,164,342,-178,-253
,309,2023-10-20 13:38:08.91,-58,-234,-2091,-16,-131,9,272,141,131,-206
,310,2023-10-20 13:38:08.92,-56,-229,-2048,-20,-127,-14,144,338,-194,-241
,311,2023-10-20 13:38:08.93,-54,-238,-2015,-20,-110,-38,280,142,138,-211
,312,2023-10-20 13:38:08.94,-36,-238,-1992,-10,-90,-62,161,338,-177,-249
,313,2023-10-20 13:38:08.95,-6,-308,-1891,39,-65,-91,291,138,153,-214
,314,2023-10-20 13:38:08.96,-51,-212,-2016,82,-82,-111,131,325,-194,-228
,315,2023-10-20 13:38:08.97,-14,-315,-1977,102,-19,-133,275,119,156,-197
,316,2023-10-20 13:38:08.98,5,-288,-2008,134,-11,-150,133,317,-184,-225
,317,2023-10-20 13:38:08.99,25,-399,-1828,171,27,-165,305,138,167,-221
,318,2023-10-20 13:38:09.00,-25,-256,-2106,253,49,-174,148,330,-182,-239
,319,2023-10-20 13:38:09.01,54,-343,-1949,243,103,-170,320,142,178,-231
,320,2023-10-20 13:38:09.02,15,-342,-1994,258,113,-174,129,325,-196,-227
,321,2023-10-20 13:38:09.03,35,-322,-2018,280,129,-171,304,138,166,-221
,322,2023-10-20 13:38:09.04,52,-338,-2001,291,139,-164,126,320,-194,-223
,323,2023-10-20 13:38:09.05,64,-337,-1984,297,161,-165,344,138,206,-241
,324,2023-10-20 13:38:09.06,107,-333,-1967,314,166,-173,189,317,-128,-253
,325,2023-10-20 13:38:09.07,140,-312,-1946,343,180,-202,372,143,229,-257
,326,2023-10-20 13:38:09.08,174,-263,-1929,370,196,-253,128,310,-182,-219
,327,2023-10-20 13:38:09.09,178,-232,-1913,396,217,-315,329,141,188,-235
,328,2023-10-20 13:38:09.10,197,-205,-1943,412,231,-386,117,303,-186,-210
,329,2023-10-20 13:38:09.11,191,-209,-1974,432,219,-458,349,134,215,-241
,330,2023-10-20 13:38:09.12,183,-230,-1993,451,179,-522,127,286,-159,-206
,331,2023-10-20 13:38:09.13,204,-285,-2015,464,134,-564,354,139,215,-246
,332,2023-10-20 13:38:09.14,188,-333,-2027,472,91,-587,113,299,-186,-206
,333,2023-10-20 13:38:09.15,189,-337,-2063,467,44,-597,354,154,200,-254
,334,2023-10-20 13:38:09.16,203,-330,-2073,449,9,-613,117,309,-192,-213
,335,2023-10-20 13:38:09.17,194,-334,-2102,406,-22,-631,377,170,207,-273
,336,2023-10-20 13:38:09.18,190,-333,-2125,365,-56,-651,135,313,-178,-224
,337,2023-10-20 13:38:09.19,183,-325,-2114,341,-98,-676,381,179,202,-280
,338,2023-10-20 13:38:09.20,175,-350,-2092,327,-139,-709,106,314,-208,-210
,339,2023-10-20 13:38:09.21,168,-345,-2086,332,-172,-742,367,180,187,-273
,340,2023-10-20 13:38:09.22,163,-357,-2065,369,-238,-773,97,309,-212,-203
,341,2023-10-20 13:38:09.23,143,-342,-2039,370,-273,-812,368,186,182,-277
,342,2023-10-20 13:38:09.24,110,-339,-2072,318,-274,-863,90,308,-218,-199
,343,2023-10-20 13:38:09.25,96,-372,-2062,262,-285,-906,374,183,191,-278
,344,2023-10-20 13:38:09.26,98,-403,-2019,274,-347,-943,106,294,-188,-200
,345,2023-10-20 13:38:09.27,105,-418,-1954,279,-392,-986,390,181,209,-285
,346,2023-10-20 13:38:09.28,103,-453,-1926,268,-398,-1031,103,288,-185,-195
,347,2023-10-20 13:38:09.29,89,-465,-1945,267,-394,-1062,387,186,201,-286
,348,2023-10-20 13:38:09.30,99,-475,-1907,295,-414,-1087,93,288,-195,-190
,349,2023-10-20 13:38:09.31,87,-536,-1877,336,-432,-1111,387,185,202,-286
,350,2023-10-20 13:38:09.32,76,-568,-1839,379,-442,-1136,88,277,-189,-182
,351,2023-10-20 13:38:09.33,54,-547,-1880,429,-454,-1156,393,180,213,-286
,352,2023-10-20 13:38:09.34,51,-583,-1850,457,-460,-1184,95,268,-173,-181
,353,2023-10-20 13:38:09.35,34,-587,-1868,483,-460,-1216,408,183,225,-295
,354,2023-10-20 13:38:09.36,22,-619,-1890,522,-467,-1242,85,257,-172,-171
,355,2023-10-20 13:38:09.37,-2,-649,-1949,574,-478,-1267,388,168,220,-278
,356,2023-10-20 13:38:09.38,13,-665,-1981,604,-492,-1272,62,232,-170,-147
,357,2023-10-20 13:38:09.39,-8,-625,-2104,617,-531,-1277,404,167,237,-285
,358,2023-10-20 13:38:09.40,-32,-667,-2053,590,-547,-1298,103,238,-135,-170
,359,2023-10-20 13:38:09.41,-33,-692,-2063,558,-542,-1326,430,179,251,-304
,360,2023-10-20 13:38:09.42,-41,-684,-2067,551,-556,-1352,121,245,-124,-183
,361,2023-10-20 13:38:09.43,-48,-668,-2101,552,-603,-1360,410,187,223,-298
,362,2023-10-20 13:38:09.44,-51,-640,-2026,512,-627,-1386,62,238,-176,-150
,363,2023-10-20 13:38:09.45,-60,-605,-2062,467,-663,-1431,389,185,204,-287
,364,2023-10-20 13:38:09.46,-86,-613,-2071,371,-675,-1475,82,228,-146,-155
,365,2023-10-20 13:38:09.47,-53,-575,-2077,286,-729,-1512,406,176,230,-291
,366,2023-10-20 13:38:09.48,-68,-585,-2072,227,-790,-1560,78,211,-133,-144
,367,2023-10-20 13:38:09.49,-67,-582,-2060,152,-826,-1622,400,158,242,-279
,368,2023-10-20 13:38:09.50,-72,-573,-2056,69,-863,-1690,70,188,-118,-129
,369,2023-10-20 13:38:09.51,-49,-555,-2027,5,-890,-1758,398,138,260,-268
,370,2023-10-20 13:38:09.52,-46,-557,-2003,-18,-954,-1830,75,168,-93,-121
,371,2023-10-20 13:38:09.53,-49,-575,-2003,-70,-978,-1894,403,113,290,-258
,372,2023-10-20 13:38:09.54,-65,-581,-2034,-107,-1000,-1953,78,137,-59,-107
,373,2023-10-20 13:38:09.55,-64,-573,-2003,-120,-1045,-1998,402,81,321,-241
,374,2023-10-20 13:38:09.56,-56,-577,-1985,-156,-1075,-2046,74,105,-31,-89
,375,2023-10-20 13:38:09.57,-65,-572,-1998,-223,-1080,-2085,403,51,352,-227
,376,2023-10-20 13:38:09.58,-94,-613,-1997,-274,-1099,-2124,80,73,7,-76
,377,2023-10-20 13:38:09.59,-94,-652,-2010,-295,-1150,-2145,406,21,385,-213
,378,2023-10-20 13:38:09.60,-104,-722,-1978,-310,-1192,-2144,75,39,36,-57
,379,2023-10-20 13:38:09.61,-124,-725,-1986,-379,-1163,-2121,407,-3,410,-202
,380,2023-10-20 13:38:09.62,-127,-757,-2021,-419,-1142,-2092,88,16,72,-52
,381,2023-10-20 13:38:09.63,-110,-775,-1919,-437,-1140,-2055,410,-24,434,-193
,382,2023-10-20 13:38:09.64,-153,-770,-1928,-441,-1143,-2010,76,-7,83,-34
,383,2023-10-20 13:38:09.65,-183,-734,-1950,-467,-1154,-1962,397,-44,441,-176
,384,2023-10-20 13:38:09.66,-184,-769,-1946,-492,-1160,-1912,75,-28,103,-23
,385,2023-10-20 13:38:09.67,-225,-758,-1969,-493,-1205,-1855,402,-68,470,-167
,386,2023-10-20 13:38:09.68,-238,-761,-1915,-547,-1179,-1783,86,-52,138,-17
,387,2023-10-20 13:38:09.69,-241,-761,-1962,-553,-1188,-1714,398,-83,481,-157
,388,2023-10-20 13:38:09.70,-264,-770,-1880,-562,-1182,-1646,79,-70,149,-4
,389,2023-10-20 13:38:09.71,-291,-715,-1931,-577,-1192,-1588,400,-105,505,-147
,390,2023-10-20 13:38:09.72,-316,-690,-1858,-620,-1151,-1525,88,-97,185,4
,391,2023-10-20 13:38:09.73,-333,-729,-1843,-641,-1102,-1468,420,-136,556,-142
,392,2023-10-20 13:38:09.74,-403,-647,-1816,-571,-1062,-1377,119,-132,251,6
,393,2023-10-20 13:38:09.75,-395,-670,-1807,-555,-1010,-1336,418,-168,586,-125
