// Data mode  : Full
// Data quality  : High
// Acceleration sensor's range  : 16g
// Gyroscope sensor's range  : 2000dps
//
//ARTIFACT,NUM,DATE,ACC_X,ACC_Y,ACC_Z,GYRO_X,GYRO_Y,GYRO_Z,EOG_L,EOG_R,EOG_H,EOG_V
,1,2023-10-27 11:56:07.32,44,-297,-2033,12,0,-1,-421,-679,258,550
,2,2023-10-27 11:56:07.33,38,-306,-2039,14,-4,-1,-467,-692,225,579
,3,2023-10-27 11:56:07.34,34,-311,-2026,12,-2,6,-417,-667,250,542
,4,2023-10-27 11:56:07.35,39,-302,-2035,12,-6,8,-465,-694,229,579
,5,2023-10-27 11:56:07.36,36,-308,-2037,8,2,13,-410,-667,257,538
,6,2023-10-27 11:56:07.37,36,-304,-2032,4,0,10,-470,-703,233,586
,7,2023-10-27 11:56:07.38,52,-300,-2043,2,13,14,-408,-667,259,537
,8,2023-10-27 11:56:07.39,45,-297,-2049,3,10,15,-474,-707,233,590
,9,2023-10-27 11:56:07.40,42,-301,-2047,1,6,17,-403,-669,266,536
,10,2023-10-27 11:56:07.41,46,-304,-2044,2,1,13,-471,-712,241,591
,11,2023-10-27 11:56:07.42,42,-302,-2035,6,-7,15,-397,-665,268,531
,12,2023-10-27 11:56:07.43,44,-300,-2038,10,-10,18,-476,-709,233,592
,13,2023-10-27 11:56:07.44,37,-304,-2034,16,-15,15,-405,-656,251,530
,14,2023-10-27 11:56:07.45,34,-294,-2035,19,-7,18,-481,-705,224,593
,15,2023-10-27 11:56:07.46,30,-299,-2028,20,-10,16,-398,-643,245,520
,16,2023-10-27 11:56:07.47,38,-305,-2033,22,-11,18,-479,-715,236,597
,17,2023-10-27 11:56:07.48,32,-307,-2028,23,-10,16,-393,-655,262,524
,18,2023-10-27 11:56:07.49,33,-307,-2034,25,-3,21,-481,-719,238,600
,19,2023-10-27 11:56:07.50,27,-312,-2040,23,-3,22,-394,-649,255,521
,20,2023-10-27 11:56:07.51,39,-303,-2040,23,-8,25,-484,-709,225,596
,21,2023-10-27 11:56:07.52,43,-302,-2042,22,-4,31,-391,-640,249,515
,22,2023-10-27 11:56:07.53,30,-296,-2042,17,-8,25,-484,-717,233,600
,23,2023-10-27 11:56:07.54,24,-300,-2049,15,-17,25,-392,-645,253,518
,24,2023-10-27 11:56:07.55,35,-297,-2050,12,-20,21,-487,-724,237,605
,25,2023-10-27 11:56:07.56,37,-296,-2049,11,-20,21,-391,-641,250,516
,26,2023-10-27 11:56:07.57,26,-295,-2040,8,-21,19,-490,-730,240,610
,27,2023-10-27 11:56:07.58,27,-292,-2031,5,-17,20,-385,-641,256,513
,28,2023-10-27 11:56:07.59,24,-296,-2029,4,-16,15,-490,-727,237,608
,29,2023-10-27 11:56:07.60,34,-291,-2028,0,-12,11,-385,-634,249,509
,30,2023-10-27 11:56:07.61,27,-295,-2022,-6,-12,5,-496,-715,219,605
,31,2023-10-27 11:56:07.62,34,-298,-2028,-9,-3,1,-389,-625,236,507
,32,2023-10-27 11:56:07.63,26,-298,-2028,-8,9,5,-493,-731,238,612
,33,2023-10-27 11:56:07.64,34,-306,-2028,-11,15,6,-383,-639,256,511
,34,2023-10-27 11:56:07.65,35,-304,-2040,-9,8,8,-492,-736,244,614
,35,2023-10-27 11:56:07.66,27,-304,-2040,-6,8,6,-376,-630,254,503
,36,2023-10-27 11:56:07.67,26,-312,-2043,-4,-5,8,-490,-735,245,612
,37,2023-10-27 11:56:07.68,25,-306,-2041,1,-2,13,-376,-629,253,502
,38,2023-10-27 11:56:07.69,16,-301,-2039,5,-5,16,-499,-729,230,614
,39,2023-10-27 11:56:07.70,34,-302,-2027,8,-5,18,-376,-618,242,497
,40,2023-10-27 11:56:07.71,36,-299,-2026,14,-1,20,-493,-733,240,613
,41,2023-10-27 11:56:07.72,27,-301,-2024,19,1,17,-375,-626,251,500
,42,2023-10-27 11:56:07.73,38,-296,-2033,22,2,16,-493,-735,242,614
,43,2023-10-27 11:56:07.74,31,-307,-2035,22,5,13,-374,-621,247,497
,44,2023-10-27 11:56:07.75,34,-306,-2039,21,9,13,-494,-742,248,618
,45,2023-10-27 11:56:07.76,21,-299,-2043,17,18,15,-375,-623,248,499
,46,2023-10-27 11:56:07.77,33,-298,-2043,10,16,16,-496,-741,245,618
,47,2023-10-27 11:56:07.78,32,-294,-2033,7,17,19,-370,-616,246,493
,48,2023-10-27 11:56:07.79,21,-289,-2039,2,10,15,-498,-741,243,619
,49,2023-10-27 11:56:07.80,27,-302,-2040,-1,6,12,-374,-615,241,494
,50,2023-10-27 11:56:07.81,21,-290,-2047,-4,2,11,-499,-743,244,621
,51,2023-10-27 11:56:07.82,35,-294,-2048,-4,3,12,-375,-616,241,495
,52,2023-10-27 11:56:07.83,32,-286,-2042,-3,9,13,-504,-727,223,615
,53,2023-10-27 11:56:07.84,25,-293,-2036,-6,7,11,-378,-604,226,491
,54,2023-10-27 11:56:07.85,21,-287,-2037,-3,6,11,-501,-746,245,623
,55,2023-10-27 11:56:07.86,24,-291,-2039,-2,7,8,-376,-623,247,499
,56,2023-10-27 11:56:07.87,25,-292,-2034,-1,5,10,-502,-754,252,628
,57,2023-10-27 11:56:07.88,26,-296,-2034,2,7,8,-374,-614,240,494
,58,2023-10-27 11:56:07.89,23,-298,-2032,4,2,9,-508,-749,241,628
,59,2023-10-27 11:56:07.90,27,-296,-2039,4,7,9,-376,-608,232,492
,60,2023-10-27 11:56:07.91,29,-300,-2024,8,5,10,-506,-752,246,629
,61,2023-10-27 11:56:07.92,25,-303,-2027,10,14,14,-372,-616,244,494
,62,2023-10-27 11:56:07.93,30,-303,-2029,15,17,13,-501,-757,256,629
,63,2023-10-27 11:56:07.94,27,-298,-2031,13,15,15,-367,-616,249,491
,64,2023-10-27 11:56:07.95,24,-309,-2036,16,14,13,-504,-751,247,627
,65,2023-10-27 11:56:07.96,34,-302,-2034,21,17,16,-379,-614,235,496
,66,2023-10-27 11:56:07.97,44,-296,-2034,21,8,14,-506,-761,255,633
,67,2023-10-27 11:56:07.98,41,-302,-2034,20,9,13,-374,-617,243,495
,68,2023-10-27 11:56:07.99,44,-307,-2034,23,3,11,-501,-744,243,622
,69,2023-10-27 11:56:08.00,36,-312,-2031,27,-1,9,-376,-601,225,488
,70,2023-10-27 11:56:08.01,40,-310,-2039,31,-5,10,-502,-751,249,626
,71,2023-10-27 11:56:08.02,34,-309,-2038,29,-5,6,-375,-615,240,495
,72,2023-10-27 11:56:08.03,39,-311,-2045,27,-9,7,-502,-764,262,633
,73,2023-10-27 11:56:08.04,26,-319,-2045,24,-15,8,-370,-617,247,493
,74,2023-10-27 11:56:08.05,38,-313,-2037,26,-21,11,-489,-759,270,624
,75,2023-10-27 11:56:08.06,23,-323,-2034,24,-21,14,-361,-611,250,486
,76,2023-10-27 11:56:08.07,29,-321,-2035,26,-19,14,-484,-740,256,612
,77,2023-10-27 11:56:08.08,22,-322,-2034,29,-25,17,-354,-597,243,475
,78,2023-10-27 11:56:08.09,25,-322,-2041,34,-28,17,-472,-745,273,608
,79,2023-10-27 11:56:08.10,18,-300,-2051,32,-15,19,-355,-607,252,481
,80,2023-10-27 11:56:08.11,22,-297,-2042,17,-4,14,-480,-748,268,614
,81,2023-10-27 11:56:08.12,29,-294,-2038,3,4,8,-367,-607,240,487
,82,2023-10-27 11:56:08.13,29,-298,-2035,-2,-3,3,-492,-753,261,622
,83,2023-10-27 11:56:08.14,24,-299,-2031,-4,-5,3,-372,-610,238,491
,84,2023-10-27 11:56:08.15,21,-291,-2034,-6,-5,-1,-489,-754,265,621
,85,2023-10-27 11:56:08.16,24,-293,-2036,-15,9,1,-368,-611,243,489
,86,2023-10-27 11:56:08.17,15,-300,-2037,-28,25,-2,-484,-752,268,618
,87,2023-10-27 11:56:08.18,20,-310,-2035,-27,18,3,-368,-609,241,488
,88,2023-10-27 11:56:08.19,32,-295,-2033,-19,4,8,-483,-740,257,611
,89,2023-10-27 11:56:08.20,26,-304,-2019,-12,5,9,-372,-609,237,490
,90,2023-10-27 11:56:08.21,33,-302,-2021,-13,19,15,-490,-745,255,617
,91,2023-10-27 11:56:08.22,33,-307,-2019,-12,35,14,-385,-619,234,502
,92,2023-10-27 11:56:08.23,30,-311,-2017,-4,37,19,-492,-755,263,623
,93,2023-10-27 11:56:08.24,32,-303,-2037,12,38,22,-381,-616,235,498
,94,2023-10-27 11:56:08.25,32,-298,-2032,18,41,24,-486,-745,259,615
,95,2023-10-27 11:56:08.26,47,-295,-2040,11,47,19,-384,-605,221,494
,96,2023-10-27 11:56:08.27,50,-287,-2039,4,51,17,-486,-734,248,610
,97,2023-10-27 11:56:08.28,57,-296,-2041,2,52,18,-380,-609,229,494
,98,2023-10-27 11:56:08.29,47,-292,-2053,4,45,15,-480,-753,273,616
,99,2023-10-27 11:56:08.30,43,-288,-2052,1,34,9,-377,-623,246,500
,100,2023-10-27 11:56:08.31,46,-291,-2052,1,18,2,-474,-747,273,610
,101,2023-10-27 11:56:08.32,51,-286,-2054,0,10,-2,-379,-621,242,500
,102,2023-10-27 11:56:08.33,63,-283,-2045,-2,4,-7,-474,-744,270,609
,103,2023-10-27 11:56:08.34,53,-287,-2048,-4,-1,-9,-381,-624,243,502
,104,2023-10-27 11:56:08.35,44,-298,-2049,2,-7,-12,-468,-746,278,607
,105,2023-10-27 11:56:08.36,44,-302,-2042,6,-20,-16,-386,-626,240,506
,106,2023-10-27 11:56:08.37,36,-296,-2043,9,-27,-9,-475,-744,269,609
,107,2023-10-27 11:56:08.38,35,-309,-2044,9,-26,-2,-390,-620,230,505
,108,2023-10-27 11:56:08.39,30,-312,-2032,10,-27,6,-469,-733,264,601
,109,2023-10-27 11:56:08.40,33,-313,-2028,11,-27,12,-384,-621,237,502
,110,2023-10-27 11:56:08.41,29,-310,-2021,10,-21,19,-467,-739,272,603
,111,2023-10-27 11:56:08.42,19,-313,-2026,5,-14,26,-390,-628,238,509
,112,2023-10-27 11:56:08.43,19,-301,-2024,5,-11,27,-467,-736,269,601
,113,2023-10-27 11:56:08.44,27,-311,-2028,4,-9,27,-393,-636,243,514
,114,2023-10-27 11:56:08.45,24,-301,-2030,8,-3,28,-469,-743,274,606
,115,2023-10-27 11:56:08.46,33,-305,-2028,6,4,27,-406,-646,240,526
,116,2023-10-27 11:56:08.47,29,-306,-2036,6,4,23,-472,-744,272,608
,117,2023-10-27 11:56:08.48,34,-300,-2036,5,6,21,-408,-647,239,527
,118,2023-10-27 11:56:08.49,32,-305,-2035,5,9,19,-467,-740,273,603
,119,2023-10-27 11:56:08.50,20,-298,-2037,3,14,14,-407,-638,231,522
,120,2023-10-27 11:56:08.51,30,-297,-2042,0,5,9,-462,-724,262,593
,121,2023-10-27 11:56:08.52,31,-289,-2044,-2,-1,4,-411,-640,229,525
,122,2023-10-27 11:56:08.53,36,-284,-2042,-4,-3,3,-460,-728,268,594
,123,2023-10-27 11:56:08.54,23,-293,-2045,-11,-5,-2,-408,-640,232,524
,124,2023-10-27 11:56:08.55,25,-294,-2038,-12,-17,-10,-462,-723,261,592
,125,2023-10-27 11:56:08.56,22,-287,-2032,-7,-28,-10,-415,-635,220,525
,126,2023-10-27 11:56:08.57,29,-281,-2019,-7,-33,-12,-454,-703,249,578
,127,2023-10-27 11:56:08.58,19,-279,-2031,-12,-19,-15,-408,-638,230,523
,128,2023-10-27 11:56:08.59,15,-290,-2029,-21,-17,-19,-445,-716,271,580
,129,2023-10-27 11:56:08.60,20,-287,-2032,-21,-12,-22,-411,-657,246,534
,130,2023-10-27 11:56:08.61,23,-285,-2033,-15,-11,-19,-433,-724,291,578
,131,2023-10-27 11:56:08.62,33,-296,-2040,-17,-1,-23,-409,-651,242,530
,132,2023-10-27 11:56:08.63,20,-301,-2034,-14,-4,-21,-435,-710,275,572
,133,2023-10-27 11:56:08.64,19,-301,-2035,-6,-9,-20,-420,-644,224,532
,134,2023-10-27 11:56:08.65,19,-301,-2038,-1,-10,-18,-446,-699,253,572
,135,2023-10-27 11:56:08.66,25,-299,-2052,2,-15,-14,-433,-662,229,547
,136,2023-10-27 11:56:08.67,26,-293,-2054,-4,-15,-12,-452,-725,273,588
,137,2023-10-27 11:56:08.68,25,-293,-2042,-10,-13,-12,-425,-670,245,547
,138,2023-10-27 11:56:08.69,17,-288,-2041,-8,-25,-11,-418,-701,283,559
,139,2023-10-27 11:56:08.70,39,-275,-2032,-10,-25,-14,-400,-658,258,529
,140,2023-10-27 11:56:08.71,30,-273,-2026,-12,-7,-12,-402,-696,294,549
,141,2023-10-27 11:56:08.72,43,-280,-2018,-15,17,-20,-373,-650,277,511
,142,2023-10-27 11:56:08.73,31,-290,-2015,-18,41,-22,-304,-667,363,485
,143,2023-10-27 11:56:08.74,27,-298,-2013,-7,41,-25,-282,-655,373,468
,144,2023-10-27 11:56:08.75,29,-297,-2021,11,36,-23,-275,-692,417,483
,145,2023-10-27 11:56:08.76,27,-300,-2027,14,46,-24,-316,-675,359,495
,146,2023-10-27 11:56:08.77,15,-293,-2031,12,65,-24,-325,-690,365,507
,147,2023-10-27 11:56:08.78,38,-307,-2039,15,55,-25,-359,-664,305,511
,148,2023-10-27 11:56:08.79,28,-312,-2035,23,41,-22,-341,-675,334,508
,149,2023-10-27 11:56:08.80,41,-301,-2037,29,39,-19,-352,-656,304,504
,150,2023-10-27 11:56:08.81,32,-310,-2033,23,38,-18,-328,-664,336,496
,151,2023-10-27 11:56:08.82,26,-301,-2051,13,40,-22,-373,-652,279,512
,152,2023-10-27 11:56:08.83,34,-311,-2054,6,30,-22,-363,-656,293,509
,153,2023-10-27 11:56:08.84,30,-304,-2053,-1,19,-21,-398,-667,269,532
,154,2023-10-27 11:56:08.85,36,-296,-2056,-10,4,-22,-360,-670,310,515
,155,2023-10-27 11:56:08.86,22,-290,-2055,-22,3,-24,-398,-669,271,533
,156,2023-10-27 11:56:08.87,38,-291,-2062,-35,-1,-26,-364,-660,296,512
,157,2023-10-27 11:56:08.88,44,-286,-2046,-49,9,-24,-418,-668,250,543
,158,2023-10-27 11:56:08.89,53,-288,-2026,-56,19,-25,-386,-664,278,525
,159,2023-10-27 11:56:08.90,36,-283,-2032,-58,27,-22,-440,-687,247,563
,160,2023-10-27 11:56:08.91,25,-279,-2021,-51,38,-18,-398,-676,278,537
,161,2023-10-27 11:56:08.92,48,-274,-2027,-49,45,-19,-442,-705,263,573
,162,2023-10-27 11:56:08.93,46,-265,-2032,-54,63,-19,-392,-682,290,537
,163,2023-10-27 11:56:08.94,49,-263,-2037,-53,66,-24,-452,-708,256,580
,164,2023-10-27 11:56:08.95,54,-257,-2045,-48,78,-29,-401,-672,271,536
,165,2023-10-27 11:56:08.96,58,-252,-2052,-44,76,-33,-456,-710,254,583
,166,2023-10-27 11:56:08.97,48,-257,-2053,-43,81,-35,-388,-673,285,530
,167,2023-10-27 11:56:08.98,65,-264,-2053,-37,77,-31,-454,-712,258,583
,168,2023-10-27 11:56:08.99,59,-275,-2042,-26,69,-31,-392,-671,279,531
,169,2023-10-27 11:56:09.00,70,-279,-2028,-12,71,-27,-460,-713,253,586
,170,2023-10-27 11:56:09.01,68,-281,-2031,-1,62,-24,-396,-668,272,532
,171,2023-10-27 11:56:09.02,64,-280,-2034,7,53,-23,-468,-715,247,591
,172,2023-10-27 11:56:09.03,64,-275,-2042,15,52,-21,-402,-663,261,532
,173,2023-10-27 11:56:09.04,67,-257,-2049,13,49,-25,-469,-717,248,593
,174,2023-10-27 11:56:09.05,70,-248,-2069,11,40,-34,-395,-661,266,528
,175,2023-10-27 11:56:09.06,74,-233,-2066,11,29,-44,-474,-724,250,599
,176,2023-10-27 11:56:09.07,94,-229,-2027,15,26,-58,-397,-663,266,530
,177,2023-10-27 11:56:09.08,113,-251,-1999,28,60,-67,-481,-726,245,603
,178,2023-10-27 11:56:09.09,106,-295,-1999,52,90,-78,-396,-654,258,525
,179,2023-10-27 11:56:09.10,118,-318,-1985,89,132,-83,-486,-716,230,601
,180,2023-10-27 11:56:09.11,127,-343,-1984,118,170,-86,-396,-645,249,520
,181,2023-10-27 11:56:09.12,134,-364,-1968,144,206,-80,-493,-720,227,606
,182,2023-10-27 11:56:09.13,128,-383,-1974,162,237,-72,-405,-650,245,527
,183,2023-10-27 11:56:09.14,117,-403,-1990,181,257,-56,-494,-737,243,615
,184,2023-10-27 11:56:09.15,99,-408,-2033,184,252,-42,-395,-656,261,525
,185,2023-10-27 11:56:09.16,90,-391,-2052,180,227,-21,-491,-736,245,613
,186,2023-10-27 11:56:09.17,87,-373,-2063,162,186,-8,-388,-641,253,514
,187,2023-10-27 11:56:09.18,67,-369,-2093,137,140,8,-488,-726,238,607
,188,2023-10-27 11:56:09.19,75,-344,-2108,93,90,15,-386,-636,250,511
,189,2023-10-27 11:56:09.20,73,-336,-2096,50,42,27,-499,-722,223,610
,190,2023-10-27 11:56:09.21,91,-336,-2066,9,6,32,-386,-629,243,507
,191,2023-10-27 11:56:09.22,97,-310,-2065,-29,-10,37,-486,-722,236,604
,192,2023-10-27 11:56:09.23,85,-299,-2059,-57,-23,36,-368,-627,259,497
,193,2023-10-27 11:56:09.24,81,-288,-2044,-79,-15,40,-478,-720,242,599
,194,2023-10-27 11:56:09.25,84,-284,-2044,-91,-11,44,-370,-621,251,495
,195,2023-10-27 11:56:09.26,96,-270,-2040,-91,-5,43,-479,-719,240,599
,196,2023-10-27 11:56:09.27,87,-253,-2027,-85,-7,47,-364,-620,256,492
,197,2023-10-27 11:56:09.28,85,-234,-2017,-78,-11,44,-469,-728,259,598
,198,2023-10-27 11:56:09.29,93,-212,-2020,-66,-9,40,-352,-620,268,486
,199,2023-10-27 11:56:09.30,112,-191,-2018,-56,-5,31,-466,-718,252,592
,200,2023-10-27 11:56:09.31,119,-193,-2010,-57,16,21,-348,-604,256,476
,201,2023-10-27 11:56:09.32,113,-212,-2020,-57,43,8,-465,-728,263,596
,202,2023-10-27 11:56:09.33,135,-237,-2015,-47,59,2,-342,-616,274,479
,203,2023-10-27 11:56:09.34,126,-270,-2021,-31,68,0,-471,-728,257,599
,204,2023-10-27 11:56:09.35,129,-293,-2036,-10,78,4,-358,-616,258,487
,205,2023-10-27 11:56:09.36,134,-284,-2049,10,68,12,-491,-747,256,619
,206,2023-10-27 11:56:09.37,142,-282,-2049,14,68,20,-375,-634,259,504
,207,2023-10-27 11:56:09.38,134,-285,-2067,12,53,27,-494,-761,267,627
,208,2023-10-27 11:56:09.39,131,-269,-2097,3,16,39,-368,-636,268,502
,209,2023-10-27 11:56:09.40,117,-256,-2108,-11,-23,44,-491,-762,271,626
,210,2023-10-27 11:56:09.41,114,-244,-2103,-35,-57,52,-364,-628,264,496
,211,2023-10-27 11:56:09.42,109,-230,-2101,-67,-82,55,-494,-752,258,623
,212,2023-10-27 11:56:09.43,106,-243,-2070,-94,-75,59,-370,-618,248,494
,213,2023-10-27 11:56:09.44,97,-259,-2018,-104,-74,54,-511,-760,249,635
,214,2023-10-27 11:56:09.45,106,-267,-1993,-75,-103,49,-373,-625,252,499
,215,2023-10-27 11:56:09.46,110,-263,-1975,-29,-137,38,-490,-763,273,626
,216,2023-10-27 11:56:09.47,106,-271,-1975,24,-143,29,-350,-620,270,485
,217,2023-10-27 11:56:09.48,94,-269,-1992,62,-128,20,-484,-747,263,615
,218,2023-10-27 11:56:09.49,89,-271,-2032,83,-88,5,-358,-609,251,483
,219,2023-10-27 11:56:09.50,87,-291,-2046,90,-51,-2,-498,-746,248,622
,220,2023-10-27 11:56:09.51,67,-305,-2055,90,-14,-2,-373,-607,234,490
,221,2023-10-27 11:56:09.52,59,-316,-2067,87,-1,0,-494,-744,250,619
,222,2023-10-27 11:56:09.53,56,-326,-2060,90,-14,6,-356,-604,248,480
,223,2023-10-27 11:56:09.54,44,-306,-2072,94,-40,17,-476,-741,265,608
,224,2023-10-27 11:56:09.55,53,-294,-2093,85,-65,31,-354,-605,251,479
,225,2023-10-27 11:56:09.56,52,-283,-2088,42,-62,38,-492,-754,262,623
,226,2023-10-27 11:56:09.57,53,-280,-2058,-1,-60,40,-371,-616,245,493
,227,2023-10-27 11:56:09.58,50,-277,-2043,-28,-52,40,-495,-765,270,630
,228,2023-10-27 11:56:09.59,58,-270,-2023,-38,-62,38,-361,-615,254,488
,229,2023-10-27 11:56:09.60,57,-257,-2005,-42,-57,36,-487,-755,268,621
,230,2023-10-27 11:56:09.61,78,-254,-2001,-51,-23,24,-361,-606,245,483
,231,2023-10-27 11:56:09.62,73,-252,-1995,-56,17,13,-490,-744,254,617
,232,2023-10-27 11:56:09.63,80,-254,-1999,-45,35,-1,-363,-610,247,486
,233,2023-10-27 11:56:09.64,82,-259,-1992,-19,52,-7,-501,-765,264,633
,234,2023-10-27 11:56:09.65,97,-264,-1997,11,56,-19,-383,-625,242,504
,235,2023-10-27 11:56:09.66,92,-267,-2013,34,71,-23,-505,-765,260,635
,236,2023-10-27 11:56:09.67,85,-281,-2029,55,66,-27,-379,-617,238,498
,237,2023-10-27 11:56:09.68,79,-289,-2044,79,62,-30,-492,-751,259,621
,238,2023-10-27 11:56:09.69,86,-288,-2060,92,38,-29,-364,-602,238,483
,239,2023-10-27 11:56:09.70,97,-298,-2069,97,30,-28,-484,-741,257,612
,240,2023-10-27 11:56:09.71,103,-296,-2054,87,32,-28,-365,-603,238,484
,241,2023-10-27 11:56:09.72,96,-295,-2044,72,45,-27,-491,-755,264,623
,242,2023-10-27 11:56:09.73,105,-308,-2048,62,33,-28,-372,-613,241,492
,243,2023-10-27 11:56:09.74,96,-299,-2063,50,34,-29,-506,-756,250,631
,244,2023-10-27 11:56:09.75,93,-306,-2065,26,48,-22,-394,-623,229,508
,245,2023-10-27 11:56:09.76,101,-299,-2057,4,45,-25,-513,-768,255,640
,246,2023-10-27 11:56:09.77,88,-309,-2057,-12,47,-21,-387,-623,236,505
,247,2023-10-27 11:56:09.78,96,-318,-2048,-20,33,-12,-488,-746,258,617
,248,2023-10-27 11:56:09.79,97,-303,-2045,-23,32,-5,-371,-608,237,489
,249,2023-10-27 11:56:09.80,95,-288,-2027,-34,22,-4,-484,-750,266,617
,250,2023-10-27 11:56:09.81,102,-270,-2008,-47,25,-12,-379,-622,243,500
,251,2023-10-27 11:56:09.82,113,-253,-1995,-47,26,-17,-483,-755,272,619
,252,2023-10-27 11:56:09.83,113,-242,-2000,-37,11,-30,-376,-612,236,494
,253,2023-10-27 11:56:09.84,124,-238,-2014,-19,-1,-49,-475,-740,265,607
,254,2023-10-27 11:56:09.85,111,-239,-2029,3,-10,-60,-379,-610,231,494
,255,2023-10-27 11:56:09.86,105,-250,-2032,20,-21,-73,-474,-737,263,605
,256,2023-10-27 11:56:09.87,108,-278,-2042,35,-26,-82,-373,-613,240,493
,257,2023-10-27 11:56:09.88,100,-326,-2038,55,-25,-85,-483,-746,263,614
,258,2023-10-27 11:56:09.89,79,-350,-2040,93,-23,-86,-393,-625,232,509
,259,2023-10-27 11:56:09.90,79,-312,-2032,130,-31,-83,-488,-748,260,618
,260,2023-10-27 11:56:09.91,66,-304,-2027,123,-27,-80,-396,-618,222,507
,261,2023-10-27 11:56:09.92,77,-312,-2040,103,-23,-83,-485,-729,244,607
,262,2023-10-27 11:56:09.93,83,-286,-2053,69,6,-90,-388,-605,217,496
,263,2023-10-27 11:56:09.94,88,-285,-2044,24,51,-97,-479,-734,255,606
,264,2023-10-27 11:56:09.95,111,-281,-2036,-24,88,-108,-395,-612,217,503
,265,2023-10-27 11:56:09.96,108,-303,-2035,-59,106,-116,-483,-724,241,603
,266,2023-10-27 11:56:09.97,114,-338,-2024,-72,100,-119,-396,-609,213,502
,267,2023-10-27 11:56:09.98,111,-350,-2009,-54,82,-114,-478,-732,254,605
,268,2023-10-27 11:56:09.99,101,-347,-2025,-37,73,-99,-393,-620,227,506
,269,2023-10-27 11:56:10.00,111,-346,-2034,-33,73,-92,-475,-730,255,602
,270,2023-10-27 11:56:10.01,118,-351,-2037,-34,73,-80,-395,-629,234,512
,271,2023-10-27 11:56:10.02,115,-345,-2047,-41,82,-67,-474,-745,271,609
,272,2023-10-27 11:56:10.03,117,-336,-2040,-41,82,-60,-404,-646,242,525
,273,2023-10-27 11:56:10.04,123,-327,-2053,-33,58,-55,-480,-751,271,615
,274,2023-10-27 11:56:10.05,121,-316,-2045,-22,46,-43,-415,-643,228,529
,275,2023-10-27 11:56:10.06,126,-309,-2037,-16,32,-42,-481,-735,254,608
,276,2023-10-27 11:56:10.07,127,-314,-2023,-15,30,-38,-416,-645,229,530
,277,2023-10-27 11:56:10.08,116,-316,-2023,-10,47,-33,-480,-753,273,616
,278,2023-10-27 11:56:10.09,115,-316,-2038,-11,46,-33,-422,-669,247,545
,279,2023-10-27 11:56:10.10,111,-322,-2051,-10,38,-26,-484,-768,284,626
,280,2023-10-27 11:56:10.11,105,-319,-2065,-7,19,-23,-420,-658,238,539
,281,2023-10-27 11:56:10.12,107,-292,-2059,-13,8,-18,-482,-733,251,607
,282,2023-10-27 11:56:10.13,121,-252,-2064,-32,9,-20,-427,-654,227,540
,283,2023-10-27 11:56:10.14,130,-221,-2065,-57,1,-30,-477,-746,269,611
,284,2023-10-27 11:56:10.15,126,-215,-2056,-88,5,-39,-432,-676,244,554
,285,2023-10-27 11:56:10.16,126,-208,-2040,-115,8,-48,-477,-755,278,616
,286,2023-10-27 11:56:10.17,125,-212,-2038,-133,11,-56,-439,-680,241,559
,287,2023-10-27 11:56:10.18,127,-229,-2023,-140,11,-61,-482,-754,272,618
,288,2023-10-27 11:56:10.19,112,-238,-2004,-130,8,-64,-442,-676,234,559
,289,2023-10-27 11:56:10.20,125,-221,-1997,-119,-12,-63,-478,-744,266,611
,290,2023-10-27 11:56:10.21,136,-232,-2003,-105,-12,-57,-444,-678,234,561
,291,2023-10-27 11:56:10.22,142,-262,-2011,-88,-20,-49,-478,-747,269,612
,292,2023-10-27 11:56:10.23,133,-273,-2013,-79,10,-38,-441,-675,234,558
,293,2023-10-27 11:56:10.24,127,-289,-2035,-53,9,-23,-472,-729,257,600
,294,2023-10-27 11:56:10.25,155,-291,-2047,-21,-2,-4,-445,-672,227,558
,295,2023-10-27 11:56:10.26,155,-306,-2036,9,12,12,-477,-731,254,604
,296,2023-10-27 11:56:10.27,139,-329,-2041,32,22,24,-446,-680,234,563
,297,2023-10-27 11:56:10.28,121,-318,-2051,46,27,44,-460,-725,265,592
,298,2023-10-27 11:56:10.29,139,-294,-2048,49,22,67,-442,-688,246,565
,299,2023-10-27 11:56:10.30,134,-299,-2051,53,17,76,-450,-734,284,592
,300,2023-10-27 11:56:10.31,147,-296,-2069,56,5,76,-445,-688,243,566
,301,2023-10-27 11:56:10.32,157,-270,-2078,57,6,68,-449,-719,270,584
,302,2023-10-27 11:56:10.33,168,-271,-2058,51,12,54,-449,-688,239,568
,303,2023-10-27 11:56:10.34,180,-267,-2048,43,35,33,-441,-721,280,581
,304,2023-10-27 11:56:10.35,176,-286,-2031,32,76,16,-439,-698,259,568
,305,2023-10-27 11:56:10.36,149,-312,-2053,30,103,2,-435,-726,291,580
,306,2023-10-27 11:56:10.37,160,-329,-2063,55,54,-1,-439,-695,256,567
,307,2023-10-27 11:56:10.38,145,-328,-2061,96,-6,2,-434,-707,273,570
,308,2023-10-27 11:56:10.39,142,-312,-2074,115,-41,9,-447,-701,254,574
,309,2023-10-27 11:56:10.40,122,-298,-2072,97,-51,19,-423,-711,288,567
,310,2023-10-27 11:56:10.41,117,-294,-2038,69,-55,40,-438,-691,253,564
,311,2023-10-27 11:56:10.42,114,-290,-2054,33,-47,56,-422,-687,265,554
,312,2023-10-27 11:56:10.43,114,-275,-2026,-13,-27,71,-443,-690,247,566
,313,2023-10-27 11:56:10.44,136,-258,-2022,-56,9,81,-403,-692,289,547
,314,2023-10-27 11:56:10.45,145,-239,-2000,-103,56,83,-433,-689,256,561
,315,2023-10-27 11:56:10.46,153,-229,-1990,-145,95,67,-410,-683,273,546
,316,2023-10-27 11:56:10.47,157,-241,-1988,-153,104,59,-451,-703,252,577
,317,2023-10-27 11:56:10.48,170,-264,-1987,-129,90,52,-416,-698,282,557
,318,2023-10-27 11:56:10.49,161,-268,-2015,-99,74,49,-447,-702,255,574
,319,2023-10-27 11:56:10.50,164,-275,-2046,-74,53,50,-410,-684,274,547
,320,2023-10-27 11:56:10.51,152,-295,-2055,-36,4,60,-461,-703,242,582
,321,2023-10-27 11:56:10.52,165,-301,-2076,10,-42,71,-427,-689,262,558
,322,2023-10-27 11:56:10.53,150,-256,-2088,35,-47,87,-466,-712,246,589
,323,2023-10-27 11:56:10.54,149,-209,-2101,17,-33,83,-418,-684,266,551
,324,2023-10-27 11:56:10.55,163,-194,-2092,-31,-2,72,-463,-713,250,588
,325,2023-10-27 11:56:10.56,153,-199,-2081,-67,21,62,-413,-681,268,547
,326,2023-10-27 11:56:10.57,119,-215,-2051,-69,-16,52,-472,-717,245,594
,327,2023-10-27 11:56:10.58,118,-205,-2034,-50,-69,41,-409,-674,265,541
,328,2023-10-27 11:56:10.59,101,-218,-2024,-29,-125,27,-469,-718,249,593
,329,2023-10-27 11:56:10.60,101,-236,-2013,-10,-150,16,-402,-674,272,538
,330,2023-10-27 11:56:10.61,103,-224,-2025,0,-138,7,-472,-716,244,594
,331,2023-10-27 11:56:10.62,90,-229,-2024,-7,-97,-2,-406,-666,260,536
,332,2023-10-27 11:56:10.63,98,-225,-2010,-24,-47,-18,-471,-720,249,595
,333,2023-10-27 11:56:10.64,103,-213,-2003,-34,-1,-30,-393,-665,272,529
,334,2023-10-27 11:56:10.65,117,-208,-2013,-40,29,-51,-469,-726,257,597
,335,2023-10-27 11:56:10.66,120,-216,-2033,-41,46,-62,-395,-666,271,530
,336,2023-10-27 11:56:10.67,120,-216,-2058,-27,40,-78,-477,-737,260,607
,337,2023-10-27 11:56:10.68,123,-232,-2059,-16,32,-82,-390,-663,273,526
,338,2023-10-27 11:56:10.69,129,-250,-2071,-6,31,-85,-474,-730,256,602
,339,2023-10-27 11:56:10.70,125,-266,-2059,-4,53,-76,-386,-656,270,521
,340,2023-10-27 11:56:10.71,132,-280,-2049,-1,55,-65,-478,-742,264,610
,341,2023-10-27 11:56:10.72,128,-290,-2046,6,45,-49,-391,-668,277,529
,342,2023-10-27 11:56:10.73,131,-294,-2041,16,39,-30,-486,-746,260,616
,343,2023-10-27 11:56:10.74,134,-286,-2029,19,22,-14,-394,-662,268,528
,344,2023-10-27 11:56:10.75,133,-269,-2027,16,13,-1,-485,-743,258,614
,345,2023-10-27 11:56:10.76,133,-250,-2046,8,9,11,-389,-658,269,523
,346,2023-10-27 11:56:10.77,131,-243,-2062,-5,-7,14,-482,-738,256,610
,347,2023-10-27 11:56:10.78,128,-239,-2066,-14,-16,21,-386,-648,262,517
,348,2023-10-27 11:56:10.79,126,-237,-2068,-17,-34,24,-483,-741,258,612
,349,2023-10-27 11:56:10.80,112,-244,-2057,-12,-41,32,-386,-650,264,518
,350,2023-10-27 11:56:10.81,113,-236,-2045,1,-53,36,-488,-748,260,618
,351,2023-10-27 11:56:10.82,117,-226,-2029,17,-59,40,-384,-648,264,516
,352,2023-10-27 11:56:10.83,113,-223,-2026,27,-49,38,-493,-742,249,617
,353,2023-10-27 11:56:10.84,113,-220,-2031,39,-38,37,-386,-638,252,512
,354,2023-10-27 11:56:10.85,110,-211,-2028,50,-28,31,-497,-740,243,618
,355,2023-10-27 11:56:10.86,109,-214,-2023,51,-11,27,-381,-636,255,508
,356,2023-10-27 11:56:10.87,115,-221,-2031,55,8,16,-487,-745,258,616
,357,2023-10-27 11:56:10.88,104,-223,-2036,53,26,8,-373,-640,267,506
,358,2023-10-27 11:56:10.89,114,-236,-2041,54,41,5,-484,-744,260,614
,359,2023-10-27 11:56:10.90,114,-249,-2042,55,47,-1,-370,-632,262,501
,360,2023-10-27 11:56:10.91,122,-257,-2044,54,55,-4,-486,-742,256,614
,361,2023-10-27 11:56:10.92,121,-248,-2053,51,57,-8,-372,-632,260,502
,362,2023-10-27 11:56:10.93,127,-253,-2055,44,58,-12,-490,-750,260,620
,363,2023-10-27 11:56:10.94,130,-256,-2053,33,58,-13,-372,-631,259,501
,364,2023-10-27 11:56:10.95,123,-264,-2051,22,57,-14,-491,-752,261,621
,365,2023-10-27 11:56:10.96,145,-266,-2039,12,56,-15,-371,-630,259,500
,366,2023-10-27 11:56:10.97,141,-271,-2043,5,49,-11,-494,-755,261,624
,367,2023-10-27 11:56:10.98,137,-272,-2043,5,44,-11,-369,-629,260,499
,368,2023-10-27 11:56:10.99,146,-271,-2038,7,34,-7,-495,-752,257,623
,369,2023-10-27 11:56:11.00,134,-284,-2033,16,16,-2,-372,-627,255,499
,370,2023-10-27 11:56:11.01,145,-276,-2035,27,3,0,-495,-750,255,622
,371,2023-10-27 11:56:11.02,146,-268,-2033,32,-4,3,-368,-626,258,497
,372,2023-10-27 11:56:11.03,132,-265,-2036,34,-2,9,-489,-761,272,625
,373,2023-10-27 11:56:11.04,141,-272,-2039,30,4,12,-367,-632,265,499
,374,2023-10-27 11:56:11.05,143,-279,-2036,24,11,12,-483,-759,276,621
,375,2023-10-27 11:56:11.06,131,-276,-2038,23,18,15,-362,-629,267,495
,376,2023-10-27 11:56:11.07,141,-279,-2041,25,17,16,-486,-763,277,624
,377,2023-10-27 11:56:11.08,136,-280,-2045,27,11,21,-370,-637,267,503
,378,2023-10-27 11:56:11.09,143,-279,-2039,30,3,28,-488,-768,280,628
,379,2023-10-27 11:56:11.10,132,-271,-2038,31,-3,25,-358,-627,269,492
,380,2023-10-27 11:56:11.11,143,-265,-2039,29,-6,24,-492,-761,269,626
,381,2023-10-27 11:56:11.12,139,-255,-2044,26,-5,24,-365,-624,259,494
,382,2023-10-27 11:56:11.13,136,-253,-2042,15,-4,20,-492,-764,272,628
,383,2023-10-27 11:56:11.14,143,-251,-2041,8,1,14,-367,-629,262,498
,384,2023-10-27 11:56:11.15,143,-257,-2044,-2,3,8,-492,-769,277,630
,385,2023-10-27 11:56:11.16,141,-267,-2044,-4,-5,5,-366,-624,258,495
,386,2023-10-27 11:56:11.17,151,-264,-2043,-9,-4,5,-493,-759,266,626
,387,2023-10-27 11:56:11.18,132,-261,-2046,-14,-5,2,-370,-618,248,494
,388,2023-10-27 11:56:11.19,136,-255,-2045,-14,-6,2,-499,-766,267,632
,389,2023-10-27 11:56:11.20,124,-262,-2052,-9,-17,1,-371,-626,255,498
,390,2023-10-27 11:56:11.21,138,-260,-2045,3,-32,6,-498,-773,275,635
,391,2023-10-27 11:56:11.22,129,-257,-2037,13,-38,5,-370,-629,259,499
,392,2023-10-27 11:56:11.23,132,-247,-2030,17,-32,8,-500,-766,266,633
,393,2023-10-27 11:56:11.24,134,-249,-2031,15,-17,8,-373,-618,245,495
,394,2023-10-27 11:56:11.25,133,-257,-2039,15,-4,10,-494,-756,262,625
,395,2023-10-27 11:56:11.26,124,-261,-2045,16,5,13,-369,-617,248,493
,396,2023-10-27 11:56:11.27,138,-275,-2041,15,11,17,-495,-764,269,629
,397,2023-10-27 11:56:11.28,132,-271,-2042,20,11,25,-373,-621,248,497
,398,2023-10-27 11:56:11.29,122,-274,-2041,25,9,30,-497,-760,263,628
,399,2023-10-27 11:56:11.30,123,-271,-2046,28,8,40,-378,-621,243,499
,400,2023-10-27 11:56:11.31,115,-275,-2042,26,9,46,-499,-771,272,635
,401,2023-10-27 11:56:11.32,115,-255,-2035,28,4,48,-378,-625,247,501
,402,2023-10-27 11:56:11.33,119,-246,-2032,23,7,49,-495,-767,272,631
,403,2023-10-27 11:56:11.34,122,-244,-2041,14,14,44,-377,-620,243,498
,404,2023-10-27 11:56:11.35,130,-243,-2038,10,10,38,-499,-763,264,631
,405,2023-10-27 11:56:11.36,134,-257,-2041,9,5,32,-379,-623,244,501
,406,2023-10-27 11:56:11.37,123,-253,-2049,12,-5,22,-497,-770,273,633
,407,2023-10-27 11:56:11.38,113,-257,-2037,15,-8,20,-382,-635,253,508
,408,2023-10-27 11:56:11.39,137,-266,-2042,21,-10,15,-499,-773,274,636
,409,2023-10-27 11:56:11.40,126,-266,-2036,29,-11,16,-386,-631,245,508
,410,2023-10-27 11:56:11.41,124,-265,-2031,36,-13,14,-497,-763,266,630
,411,2023-10-27 11:56:11.42,126,-267,-2035,39,-8,17,-390,-629,239,509
,412,2023-10-27 11:56:11.43,127,-265,-2030,35,-8,19,-501,-771,270,636
,413,2023-10-27 11:56:11.44,133,-262,-2035,28,-5,18,-394,-624,230,509
,414,2023-10-27 11:56:11.45,126,-262,-2031,19,5,20,-500,-748,248,624
,415,2023-10-27 11:56:11.46,126,-268,-2039,9,9,20,-385,-617,232,501
,416,2023-10-27 11:56:11.47,121,-282,-2041,3,11,21,-494,-767,273,630
,417,2023-10-27 11:56:11.48,125,-286,-2038,6,16,25,-388,-638,250,513
,418,2023-10-27 11:56:11.49,132,-276,-2045,9,16,27,-500,-776,276,638
,419,2023-10-27 11:56:11.50,132,-272,-2042,9,12,31,-392,-639,247,515
,420,2023-10-27 11:56:11.51,130,-274,-2049,11,14,28,-492,-761,269,626
,421,2023-10-27 11:56:11.52,134,-261,-2045,10,11,25,-395,-640,245,517
,422,2023-10-27 11:56:11.53,131,-254,-2038,8,15,21,-488,-763,275,625
,423,2023-10-27 11:56:11.54,129,-252,-2045,2,19,13,-400,-640,240,520
,424,2023-10-27 11:56:11.55,131,-255,-2046,-4,29,8,-500,-763,263,631
,425,2023-10-27 11:56:11.56,122,-263,-2056,-13,31,2,-413,-642,229,527
,426,2023-10-27 11:56:11.57,126,-266,-2038,-16,31,2,-500,-761,261,630
,427,2023-10-27 11:56:11.58,125,-272,-2038,-17,30,1,-412,-646,234,529
,428,2023-10-27 11:56:11.59,136,-270,-2040,-17,21,4,-497,-769,272,633
,429,2023-10-27 11:56:11.60,125,-272,-2038,-14,15,9,-410,-645,235,527
,430,2023-10-27 11:56:11.61,133,-274,-2043,-11,15,13,-492,-752,260,622
,431,2023-10-27 11:56:11.62,129,-270,-2037,-10,5,19,-407,-640,233,523
,432,2023-10-27 11:56:11.63,135,-262,-2037,-6,11,26,-485,-751,266,618
,433,2023-10-27 11:56:11.64,137,-277,-2028,1,9,29,-407,-652,245,529
,434,2023-10-27 11:56:11.65,143,-271,-2032,12,-5,35,-480,-760,280,620
,435,2023-10-27 11:56:11.66,138,-279,-2041,26,-7,43,-409,-649,240,529
,436,2023-10-27 11:56:11.67,156,-257,-2055,21,17,49,-477,-740,263,608
,437,2023-10-27 11:56:11.68,145,-244,-2060,-5,42,45,-412,-650,238,531
,438,2023-10-27 11:56:11.69,141,-259,-2062,-17,44,44,-477,-759,282,618
,439,2023-10-27 11:56:11.70,130,-260,-2061,-8,20,48,-418,-666,248,542
,440,2023-10-27 11:56:11.71,133,-260,-2060,8,-17,48,-477,-754,277,615
,441,2023-10-27 11:56:11.72,125,-255,-2046,20,-52,47,-411,-658,247,534
,442,2023-10-27 11:56:11.73,130,-248,-2020,24,-51,49,-468,-750,282,609
,443,2023-10-27 11:56:11.74,135,-240,-2017,22,-37,48,-414,-667,253,540
,444,2023-10-27 11:56:11.75,134,-247,-2017,16,-17,42,-470,-750,280,610
,445,2023-10-27 11:56:11.76,136,-251,-2017,11,-6,37,-416,-671,255,543
,446,2023-10-27 11:56:11.77,138,-256,-2026,11,10,32,-465,-744,279,604
,447,2023-10-27 11:56:11.78,138,-249,-2035,5,24,31,-422,-669,247,545
,448,2023-10-27 11:56:11.79,127,-260,-2045,-5,36,24,-462,-742,280,602
,449,2023-10-27 11:56:11.80,126,-265,-2060,-9,36,22,-431,-678,247,554
,450,2023-10-27 11:56:11.81,124,-276,-2076,-3,22,25,-470,-748,278,609
,451,2023-10-27 11:56:11.82,123,-270,-2078,2,2,27,-435,-679,244,557
,452,2023-10-27 11:56:11.83,119,-278,-2070,12,-15,32,-462,-738,276,600
,453,2023-10-27 11:56:11.84,126,-275,-2057,27,-41,33,-432,-680,248,556
,454,2023-10-27 11:56:11.85,124,-270,-2049,44,-50,39,-462,-743,281,602
,455,2023-10-27 11:56:11.86,119,-274,-2040,59,-59,41,-436,-683,247,559
,456,2023-10-27 11:56:11.87,120,-277,-2019,64,-53,46,-451,-729,278,590
,457,2023-10-27 11:56:11.88,117,-281,-2016,71,-37,46,-436,-684,248,560
,458,2023-10-27 11:56:11.89,122,-276,-2021,65,-17,44,-458,-737,279,597
,459,2023-10-27 11:56:11.90,116,-268,-2032,56,1,45,-445,-706,261,575
,460,2023-10-27 11:56:11.91,120,-274,-2027,46,13,47,-436,-728,292,582
,461,2023-10-27 11:56:11.92,105,-259,-2035,38,23,48,-412,-680,268,546
,462,2023-10-27 11:56:11.93,116,-248,-2033,24,30,47,-398,-686,288,542
,463,2023-10-27 11:56:11.94,122,-240,-2026,10,23,43,-436,-665,229,550
,464,2023-10-27 11:56:11.95,124,-239,-2027,8,15,38,-488,-727,239,607
,465,2023-10-27 11:56:11.96,138,-239,-2016,14,18,20,-540,-733,193,636
,466,2023-10-27 11:56:11.97,138,-254,-2034,24,8,11,-563,-777,214,670
,467,2023-10-27 11:56:11.98,147,-265,-2055,37,-2,7,-588,-767,179,677
,468,2023-10-27 11:56:11.99,140,-276,-2045,58,-15,4,-591,-793,202,692
,469,2023-10-27 11:56:12.00,165,-281,-2024,79,-7,5,-609,-787,178,698
,470,2023-10-27 11:56:12.01,160,-295,-2041,95,15,11,-592,-794,202,693
,471,2023-10-27 11:56:12.02,155,-308,-2049,106,23,16,-604,-785,181,694
,472,2023-10-27 11:56:12.03,155,-323,-2055,120,37,28,-573,-788,215,680
,473,2023-10-27 11:56:12.04,156,-326,-2062,127,46,44,-588,-780,192,684
,474,2023-10-27 11:56:12.05,141,-326,-2090,125,44,58,-551,-774,223,662
,475,2023-10-27 11:56:12.06,146,-336,-2111,123,30,77,-572,-768,196,670
,476,2023-10-27 11:56:12.07,145,-341,-2096,122,-8,96,-526,-757,231,641
,477,2023-10-27 11:56:12.08,143,-326,-2079,117,-27,110,-552,-763,211,657
,478,2023-10-27 11:56:12.09,152,-293,-2074,98,-34,118,-502,-745,243,623
,479,2023-10-27 11:56:12.10,134,-278,-2043,63,-22,117,-519,-750,231,634
,480,2023-10-27 11:56:12.11,138,-299,-2051,32,6,114,-450,-720,270,585
,481,2023-10-27 11:56:12.12,112,-321,-2038,17,8,118,-475,-727,252,601
,482,2023-10-27 11:56:12.13,108,-305,-2007,20,-5,118,-421,-690,269,555
,483,2023-10-27 11:56:12.14,102,-279,-2011,34,-43,116,-466,-716,250,591
,484,2023-10-27 11:56:12.15,104,-263,-2010,38,-60,108,-412,-684,272,548
,485,2023-10-27 11:56:12.16,106,-253,-2013,29,-53,99,-489,-729,240,609
,486,2023-10-27 11:56:12.17,130,-251,-2011,16,-43,84,-442,-700,258,571
,487,2023-10-27 11:56:12.18,126,-270,-2024,6,-33,63,-493,-739,246,616
,488,2023-10-27 11:56:12.19,102,-303,-2039,10,-24,46,-411,-689,278,550
,489,2023-10-27 11:56:12.20,104,-337,-2044,25,-25,39,-467,-733,266,600
,490,2023-10-27 11:56:12.21,100,-358,-2025,56,-24,40,-389,-679,290,534
,491,2023-10-27 11:56:12.22,111,-359,-2009,73,-22,44,-449,-710,261,579
,492,2023-10-27 11:56:12.23,100,-351,-2041,83,-17,48,-367,-651,284,509
,493,2023-10-27 11:56:12.24,110,-348,-2072,85,-21,56,-432,-703,271,567
,494,2023-10-27 11:56:12.25,128,-339,-2088,87,-32,69,-353,-650,297,501
,495,2023-10-27 11:56:12.26,119,-335,-2084,79,-26,75,-407,-694,287,550
,496,2023-10-27 11:56:12.27,118,-328,-2069,65,1,80,-315,-615,300,465
,497,2023-10-27 11:56:12.28,114,-327,-2050,50,23,82,-379,-666,287,522
,498,2023-10-27 11:56:12.29,116,-315,-1979,47,35,85,-319,-601,282,460
,499,2023-10-27 11:56:12.30,125,-305,-1947,57,28,89,-418,-679,261,548
,500,2023-10-27 11:56:12.31,106,-299,-1998,77,12,89,-373,-630,257,501
,501,2023-10-27 11:56:12.32,84,-272,-2039,66,-9,92,-540,-735,195,637
,502,2023-10-27 11:56:12.33,75,-255,-2052,27,-18,99,-522,-703,181,612
,503,2023-10-27 11:56:12.34,66,-248,-2037,-17,-42,110,-681,-808,127,744
,504,2023-10-27 11:56:12.35,56,-254,-2038,-59,-72,118,-599,-892,293,745
,505,2023-10-27 11:56:12.36,40,-266,-2087,-77,-117,128,-638,-1086,448,862
,506,2023-10-27 11:56:12.37,40,-238,-2075,-94,-147,138,-470,-1032,562,751
,507,2023-10-27 11:56:12.38,41,-249,-2041,-101,-153,143,-491,-1060,569,775
,508,2023-10-27 11:56:12.39,31,-258,-1981,-98,-141,148,-348,-935,587,641
,509,2023-10-27 11:56:12.40,63,-270,-1940,-77,-115,141,-412,-991,579,701
,510,2023-10-27 11:56:12.41,53,-292,-1896,-35,-78,130,-304,-900,596,602
,511,2023-10-27 11:56:12.42,67,-261,-1896,11,-35,114,-428,-990,562,709
,512,2023-10-27 11:56:12.43,70,-255,-1910,48,1,86,-358,-901,543,629
,513,2023-10-27 11:56:12.44,76,-273,-1977,74,33,61,-552,-995,443,773
,514,2023-10-27 11:56:12.45,81,-283,-2032,86,49,43,-495,-911,416,703
,515,2023-10-27 11:56:12.46,81,-302,-2076,91,49,37,-661,-1010,349,835
,516,2023-10-27 11:56:12.47,85,-322,-2084,96,41,36,-553,-928,375,740
,517,2023-10-27 11:56:12.48,103,-345,-2094,93,36,39,-635,-1027,392,831
,518,2023-10-27 11:56:12.49,99,-374,-2095,86,37,50,-476,-944,468,710
,519,2023-10-27 11:56:12.50,116,-394,-2079,90,38,64,-542,-1045,503,793
,520,2023-10-27 11:56:12.51,131,-392,-2070,100,52,79,-392,-942,550,667
,521,2023-10-27 11:56:12.52,136,-396,-2059,110,58,89,-486,-1040,554,763
,522,2023-10-27 11:56:12.53,142,-376,-2048,103,82,96,-350,-951,601,650
,523,2023-10-27 11:56:12.54,142,-373,-2026,90,107,97,-441,-1060,619,750
,524,2023-10-27 11:56:12.55,157,-355,-2024,77,124,97,-303,-951,648,627
,525,2023-10-27 11:56:12.56,160,-359,-1994,62,133,90,-385,-1047,662,716
,526,2023-10-27 11:56:12.57,163,-365,-1963,60,145,86,-252,-926,674,589
,527,2023-10-27 11:56:12.58,168,-356,-1969,61,155,83,-354,-1033,679,693
,528,2023-10-27 11:56:12.59,160,-318,-1997,41,175,71,-239,-932,693,585
,529,2023-10-27 11:56:12.60,159,-296,-2025,2,182,65,-351,-1059,708,705
,530,2023-10-27 11:56:12.61,152,-306,-2061,-35,156,53,-231,-955,724,593
,531,2023-10-27 11:56:12.62,125,-294,-2094,-57,110,52,-350,-1073,723,711
,532,2023-10-27 11:56:12.63,127,-277,-2107,-71,48,51,-240,-969,729,604
,533,2023-10-27 11:56:12.64,126,-271,-2098,-90,-6,49,-364,-1088,724,726
,534,2023-10-27 11:56:12.65,124,-276,-2093,-97,-52,45,-256,-968,712,612
,535,2023-10-27 11:56:12.66,121,-285,-2068,-91,-77,40,-381,-1079,698,730
,536,2023-10-27 11:56:12.67,138,-292,-2050,-77,-78,34,-269,-946,677,607
,537,2023-10-27 11:56:12.68,129,-291,-2029,-63,-69,25,-399,-1056,657,727
,538,2023-10-27 11:56:12.69,134,-306,-2011,-38,-51,19,-282,-940,658,611
,539,2023-10-27 11:56:12.70,115,-318,-2019,-8,-42,11,-416,-1073,657,744
,540,2023-10-27 11:56:12.71,130,-336,-2027,29,-27,5,-296,-945,649,620
,541,2023-10-27 11:56:12.72,119,-331,-2021,57,-18,2,-431,-1068,637,749
,542,2023-10-27 11:56:12.73,128,-343,-2014,79,-18,-3,-299,-924,625,611
,543,2023-10-27 11:56:12.74,114,-361,-2000,109,-18,-3,-422,-1044,622,733
,544,2023-10-27 11:56:12.75,128,-374,-1992,138,-32,-6,-295,-901,606,598
,545,2023-10-27 11:56:12.76,126,-377,-1957,162,-33,-6,-432,-1020,588,726
,546,2023-10-27 11:56:12.77,115,-382,-1956,171,-16,-10,-312,-879,567,595
,547,2023-10-27 11:56:12.78,110,-379,-1977,160,-2,-12,-445,-1017,572,731
,548,2023-10-27 11:56:12.79,106,-392,-2009,138,15,-6,-322,-906,584,614
,549,2023-10-27 11:56:12.80,95,-402,-2038,121,7,5,-454,-1045,591,749
,550,2023-10-27 11:56:12.81,85,-401,-2063,97,-14,17,-335,-908,573,621
,551,2023-10-27 11:56:12.82,91,-390,-2075,67,-34,32,-468,-1022,554,745
,552,2023-10-27 11:56:12.83,79,-384,-2085,40,-61,41,-342,-879,537,610
,553,2023-10-27 11:56:12.84,66,-369,-2084,18,-79,47,-453,-1009,556,731
,554,2023-10-27 11:56:12.85,91,-342,-2085,-3,-81,50,-323,-879,556,601
,555,2023-10-27 11:56:12.86,97,-327,-2070,-20,-73,45,-439,-1015,576,727
,556,2023-10-27 11:56:12.87,111,-316,-2052,-32,-47,34,-318,-891,573,604
,557,2023-10-27 11:56:12.88,100,-309,-2035,-35,-19,24,-435,-1032,597,733
,558,2023-10-27 11:56:12.89,97,-305,-2017,-29,5,15,-320,-910,590,615
,559,2023-10-27 11:56:12.90,106,-305,-2016,-12,17,4,-454,-1054,600,754
,560,2023-10-27 11:56:12.91,94,-300,-2013,8,18,-6,-338,-944,606,641
,561,2023-10-27 11:56:12.92,97,-306,-2008,29,14,-11,-461,-1085,624,773
,562,2023-10-27 11:56:12.93,102,-307,-2016,44,7,-15,-339,-955,616,647
,563,2023-10-27 11:56:12.94,120,-303,-2009,50,14,-19,-468,-1080,612,774
,564,2023-10-27 11:56:12.95,105,-326,-1994,49,36,-22,-352,-960,608,656
,565,2023-10-27 11:56:12.96,130,-338,-2003,53,44,-24,-476,-1093,617,784
,566,2023-10-27 11:56:12.97,133,-347,-2012,70,33,-24,-362,-981,619,671
,567,2023-10-27 11:56:12.98,119,-353,-2022,82,33,-23,-469,-1100,631,784
,568,2023-10-27 11:56:12.99,128,-358,-2009,92,21,-16,-351,-975,624,663
,569,2023-10-27 11:56:13.00,131,-380,-2018,96,21,-10,-464,-1101,637,782
,570,2023-10-27 11:56:13.01,120,-386,-2037,100,20,-6,-361,-994,633,677
,571,2023-10-27 11:56:13.02,106,-390,-2058,92,22,7,-480,-1117,637,798
,572,2023-10-27 11:56:13.03,110,-397,-2067,87,-1,16,-382,-988,606,685
,573,2023-10-27 11:56:13.04,97,-405,-2061,77,-15,29,-500,-1108,608,804
,574,2023-10-27 11:56:13.05,92,-409,-2056,70,-29,44,-388,-1012,624,700
,575,2023-10-27 11:56:13.06,89,-409,-2059,51,-25,51,-487,-1144,657,815
,576,2023-10-27 11:56:13.07,84,-409,-2054,33,-29,61,-372,-1038,666,705
,577,2023-10-27 11:56:13.08,81,-386,-2045,15,-24,71,-472,-1151,679,811
,578,2023-10-27 11:56:13.09,68,-365,-2048,-6,-15,73,-362,-1042,680,702
,579,2023-10-27 11:56:13.10,61,-364,-2062,-19,-17,73,-450,-1145,695,797
,580,2023-10-27 11:56:13.11,53,-342,-2063,-23,-24,69,-354,-1030,676,692
,581,2023-10-27 11:56:13.12,65,-328,-2072,-19,-32,66,-448,-1133,685,790
,582,2023-10-27 11:56:13.13,67,-320,-2062,-16,-26,60,-361,-1027,666,694
,583,2023-10-27 11:56:13.14,67,-313,-2062,-18,-7,47,-454,-1126,672,790
,584,2023-10-27 11:56:13.15,70,-319,-2044,-10,6,32,-368,-1015,647,691
,585,2023-10-27 11:56:13.16,77,-308,-2034,8,18,21,-461,-1117,656,789
,586,2023-10-27 11:56:13.17,85,-321,-2018,28,32,5,-366,-983,617,674
,587,2023-10-27 11:56:13.18,71,-349,-2012,49,57,-9,-435,-1069,634,752
,588,2023-10-27 11:56:13.19,76,-365,-2011,71,74,-16,-307,-941,634,624
,589,2023-10-27 11:56:13.20,92,-380,-2004,104,80,-18,-307,-1011,704,659
,590,2023-10-27 11:56:13.21,106,-400,-1988,130,95,-19,-198,-866,668,532
,591,2023-10-27 11:56:13.22,114,-423,-1972,162,107,-15,-238,-946,708,592
,592,2023-10-27 11:56:13.23,117,-440,-1967,183,128,-9,-199,-820,621,509
,593,2023-10-27 11:56:13.24,116,-450,-1993,204,137,-5,-284,-920,636,602
,594,2023-10-27 11:56:13.25,119,-457,-1992,223,124,6,-261,-808,547,534
,595,2023-10-27 11:56:13.26,123,-431,-1988,229,117,14,-362,-902,540,632
,596,2023-10-27 11:56:13.27,150,-400,-1986,211,115,15,-335,-790,455,562
,597,2023-10-27 11:56:13.28,147,-397,-1999,182,119,16,-430,-887,457,658
