// Data mode  : Full
// Data quality  : High
// Acceleration sensor's range  : 16g
// Gyroscope sensor's range  : 2000dps
//
//ARTIFACT,NUM,DATE,ACC_X,ACC_Y,ACC_Z,GYRO_X,GYRO_Y,GYRO_Z,EOG_L,EOG_R,EOG_H,EOG_V
,1,2023-10-20 13:14:26.15,-34,-340,-2011,-555,-147,-889,576,78,498,-327
,2,2023-10-20 13:14:26.16,-39,-275,-2006,-545,-146,-859,752,91,661,-421
,3,2023-10-20 13:14:26.17,-41,-226,-2006,-556,-128,-844,572,83,489,-327
,4,2023-10-20 13:14:26.18,-52,-180,-2023,-565,-96,-837,758,96,662,-427
,5,2023-10-20 13:14:26.19,-72,-196,-2071,-548,-88,-825,565,74,491,-319
,6,2023-10-20 13:14:26.20,-43,-183,-2025,-505,-86,-815,742,96,646,-419
,7,2023-10-20 13:14:26.21,-95,-166,-1993,-519,-69,-751,540,64,476,-302
,8,2023-10-20 13:14:26.22,-124,-156,-2127,-573,-62,-715,734,87,647,-410
,9,2023-10-20 13:14:26.23,-154,-135,-2170,-615,-57,-660,536,50,486,-293
,10,2023-10-20 13:14:26.24,-142,-82,-2140,-642,-77,-607,728,86,642,-407
,11,2023-10-20 13:14:26.25,-123,-74,-2066,-674,-73,-560,518,47,471,-282
,12,2023-10-20 13:14:26.26,-116,-25,-2032,-690,-68,-521,714,85,629,-399
,13,2023-10-20 13:14:26.27,-105,48,-2019,-676,-78,-489,506,36,470,-271
,14,2023-10-20 13:14:26.28,-71,92,-1991,-654,-80,-462,688,74,614,-381
,15,2023-10-20 13:14:26.29,-55,112,-1974,-634,-65,-438,481,18,463,-249
,16,2023-10-20 13:14:26.30,-37,106,-1965,-609,-42,-415,680,67,613,-373
,17,2023-10-20 13:14:26.31,12,113,-1957,-576,-15,-387,486,14,472,-250
,18,2023-10-20 13:14:26.32,-2,98,-1950,-530,21,-361,697,79,618,-388
,19,2023-10-20 13:14:26.33,23,114,-1993,-482,53,-330,492,20,472,-256
,20,2023-10-20 13:14:26.34,55,151,-1999,-450,97,-303,696,80,616,-388
,21,2023-10-20 13:14:26.35,72,183,-1998,-431,151,-278,492,12,480,-252
,22,2023-10-20 13:14:26.36,74,189,-2001,-416,186,-257,736,62,674,-399
,23,2023-10-20 13:14:26.37,80,210,-2044,-393,199,-232,560,-2,562,-279
,24,2023-10-20 13:14:26.38,83,239,-2051,-363,190,-205,852,70,782,-461
,25,2023-10-20 13:14:26.39,115,283,-2072,-344,145,-181,666,2,664,-334
,26,2023-10-20 13:14:26.40,124,315,-2086,-340,104,-159,933,70,863,-501
,27,2023-10-20 13:14:26.41,148,349,-2087,-343,71,-136,715,-1,716,-357
,28,2023-10-20 13:14:26.42,132,364,-2084,-368,81,-113,974,74,900,-524
,29,2023-10-20 13:14:26.43,135,366,-2079,-401,102,-92,766,-5,771,-380
,30,2023-10-20 13:14:26.44,129,357,-2069,-412,113,-72,1024,92,932,-558
,31,2023-10-20 13:14:26.45,139,369,-2062,-382,77,-46,804,5,799,-404
,32,2023-10-20 13:14:26.46,144,391,-2048,-335,41,-20,1054,117,937,-585
,33,2023-10-20 13:14:26.47,119,395,-2038,-288,14,5,819,36,783,-427
,34,2023-10-20 13:14:26.48,139,407,-2027,-253,-15,26,1058,175,883,-616
,35,2023-10-20 13:14:26.49,143,427,-2027,-226,-26,45,799,80,719,-439
,36,2023-10-20 13:14:26.50,131,450,-2031,-216,-20,63,1030,218,812,-624
,37,2023-10-20 13:14:26.51,146,476,-2048,-217,-8,71,780,105,675,-442
,38,2023-10-20 13:14:26.52,143,466,-2057,-209,-9,78,1019,243,776,-631
,39,2023-10-20 13:14:26.53,138,455,-2046,-186,-17,86,767,123,644,-445
,40,2023-10-20 13:14:26.54,122,465,-2065,-154,-29,93,1005,268,737,-636
,41,2023-10-20 13:14:26.55,121,469,-2076,-124,-27,97,754,139,615,-446
,42,2023-10-20 13:14:26.56,108,462,-2095,-91,-28,110,984,285,699,-634
,43,2023-10-20 13:14:26.57,108,445,-2099,-47,-33,131,736,144,592,-440
,44,2023-10-20 13:14:26.58,87,433,-2085,16,-39,166,961,290,671,-625
,45,2023-10-20 13:14:26.59,81,432,-2095,96,-41,218,722,144,578,-433
,46,2023-10-20 13:14:26.60,99,423,-2093,178,-44,288,945,297,648,-621
,47,2023-10-20 13:14:26.61,112,440,-2103,259,-36,373,697,138,559,-417
,48,2023-10-20 13:14:26.62,102,426,-2091,322,-15,465,906,269,637,-587
,49,2023-10-20 13:14:26.63,111,403,-2093,397,-10,560,653,98,555,-375
,50,2023-10-20 13:14:26.64,128,394,-2086,479,-10,652,837,229,608,-533
,51,2023-10-20 13:14:26.65,129,375,-2083,569,-23,737,600,72,528,-336
,52,2023-10-20 13:14:26.66,136,380,-2094,652,-36,812,792,208,584,-500
,53,2023-10-20 13:14:26.67,144,382,-2093,711,-45,875,591,65,526,-328
,54,2023-10-20 13:14:26.68,145,362,-2097,748,-46,919,800,224,576,-512
,55,2023-10-20 13:14:26.69,154,338,-2083,779,-54,947,610,83,527,-346
,56,2023-10-20 13:14:26.70,137,304,-2077,805,-53,965,813,244,569,-528
,57,2023-10-20 13:14:26.71,144,262,-2073,832,-62,971,622,93,529,-357
,58,2023-10-20 13:14:26.72,150,215,-2068,854,-61,971,828,258,570,-543
,59,2023-10-20 13:14:26.73,124,174,-2070,869,-60,959,641,106,535,-373
,60,2023-10-20 13:14:26.74,116,122,-2068,890,-62,935,840,265,575,-552
,61,2023-10-20 13:14:26.75,112,93,-2058,921,-83,900,647,95,552,-371
,62,2023-10-20 13:14:26.76,106,65,-2024,938,-104,862,833,246,587,-539
,63,2023-10-20 13:14:26.77,101,27,-2012,920,-72,809,644,74,570,-359
,64,2023-10-20 13:14:26.78,93,-1,-2004,863,-13,756,828,230,598,-529
,65,2023-10-20 13:14:26.79,62,-49,-2005,798,43,701,639,66,573,-352
,66,2023-10-20 13:14:26.80,34,-119,-2006,749,58,658,813,220,593,-516
,67,2023-10-20 13:14:26.81,-12,-171,-2000,721,50,628,626,49,577,-337
,68,2023-10-20 13:14:26.82,-13,-202,-1987,704,23,604,800,205,595,-502
,69,2023-10-20 13:14:26.83,-48,-211,-1990,664,28,586,626,46,580,-336
,70,2023-10-20 13:14:26.84,-32,-224,-1995,628,-4,567,801,215,586,-508
,71,2023-10-20 13:14:26.85,-38,-215,-2000,594,-21,555,632,52,580,-342
,72,2023-10-20 13:14:26.86,-42,-209,-2002,555,-33,544,799,218,581,-508
,73,2023-10-20 13:14:26.87,-62,-219,-2015,514,-37,528,636,49,587,-342
,74,2023-10-20 13:14:26.88,-48,-188,-2043,471,-40,515,795,213,582,-504
,75,2023-10-20 13:14:26.89,-28,-153,-2050,398,0,498,633,51,582,-342
,76,2023-10-20 13:14:26.90,-14,-161,-2063,316,44,477,792,221,571,-506
,77,2023-10-20 13:14:26.91,-13,-152,-2084,244,61,455,627,47,580,-337
,78,2023-10-20 13:14:26.92,-13,-157,-2090,210,35,438,767,203,564,-485
,79,2023-10-20 13:14:26.93,-6,-149,-2078,196,10,425,620,35,585,-327
,80,2023-10-20 13:14:26.94,1,-130,-2084,177,-20,409,768,199,569,-483
,81,2023-10-20 13:14:26.95,-1,-118,-2087,154,-59,392,628,39,589,-333
,82,2023-10-20 13:14:26.96,7,-124,-2075,131,-52,376,758,201,557,-479
,83,2023-10-20 13:14:26.97,36,-113,-2051,115,-55,358,628,36,592,-332
,84,2023-10-20 13:14:26.98,42,-126,-2045,95,-49,342,762,202,560,-482
,85,2023-10-20 13:14:26.99,45,-119,-2044,83,-43,322,633,34,599,-333
,86,2023-10-20 13:14:27.00,33,-116,-2067,75,-29,308,755,195,560,-475
,87,2023-10-20 13:14:27.01,43,-136,-2045,77,-48,278,638,34,604,-336
,88,2023-10-20 13:14:27.02,34,-139,-2044,93,-46,267,741,191,550,-466
,89,2023-10-20 13:14:27.03,32,-133,-2061,104,-31,260,627,26,601,-326
,90,2023-10-20 13:14:27.04,38,-146,-2046,103,-34,256,732,181,551,-456
,91,2023-10-20 13:14:27.05,40,-176,-2048,103,-27,251,632,19,613,-325
,92,2023-10-20 13:14:27.06,28,-207,-2042,119,-7,259,728,171,557,-449
,93,2023-10-20 13:14:27.07,39,-219,-2039,147,-6,265,623,12,611,-317
,94,2023-10-20 13:14:27.08,31,-216,-2042,172,-24,275,726,177,549,-451
,95,2023-10-20 13:14:27.09,46,-219,-2023,191,-34,281,643,26,617,-334
,96,2023-10-20 13:14:27.10,61,-213,-2023,205,-29,287,722,179,543,-450
,97,2023-10-20 13:14:27.11,50,-217,-2035,200,-15,287,658,31,627,-344
,98,2023-10-20 13:14:27.12,45,-222,-2038,192,7,285,723,186,537,-454
,99,2023-10-20 13:14:27.13,58,-235,-2039,187,16,284,656,32,624,-344
,100,2023-10-20 13:14:27.14,27,-243,-2049,188,0,285,709,169,540,-439
,101,2023-10-20 13:14:27.15,7,-278,-2043,197,-14,286,657,23,634,-340
,102,2023-10-20 13:14:27.16,-7,-287,-2050,210,-25,288,702,157,545,-429
,103,2023-10-20 13:14:27.17,-7,-299,-2032,212,-25,294,674,32,642,-353
,104,2023-10-20 13:14:27.18,7,-322,-2019,221,-45,295,716,172,544,-444
,105,2023-10-20 13:14:27.19,-1,-313,-1992,234,-32,295,680,40,640,-360
,106,2023-10-20 13:14:27.20,7,-291,-1986,244,-40,288,702,171,531,-436
,107,2023-10-20 13:14:27.21,10,-287,-1982,246,-37,272,678,37,641,-357
,108,2023-10-20 13:14:27.22,3,-298,-1996,257,-57,259,699,166,533,-432
,109,2023-10-20 13:14:27.23,-3,-296,-2014,264,-61,244,689,42,647,-365
,110,2023-10-20 13:14:27.24,-21,-308,-2026,257,-56,233,680,173,507,-426
,111,2023-10-20 13:14:27.25,-35,-313,-2058,231,-52,222,549,-401,950,-74
,112,2023-10-20 13:14:27.26,-37,-324,-2080,197,-51,219,634,-865,1499,115
,113,2023-10-20 13:14:27.27,-36,-305,-2102,149,-43,220,1176,-1228,2404,26
,114,2023-10-20 13:14:27.28,-45,-293,-2100,79,-8,218,1102,-1166,2268,32
,115,2023-10-20 13:14:27.29,-48,-293,-2075,4,22,214,1243,-1168,2411,-37
,116,2023-10-20 13:14:27.30,-55,-295,-2079,-49,35,210,980,-1018,1998,19
,117,2023-10-20 13:14:27.31,-54,-281,-2078,-69,14,204,1183,-1090,2273,-46
,118,2023-10-20 13:14:27.32,-38,-270,-2048,-82,-9,196,998,-1009,2007,5
,119,2023-10-20 13:14:27.33,-37,-268,-2034,-94,-22,186,1224,-1121,2345,-51
,120,2023-10-20 13:14:27.34,-38,-262,-2013,-95,-22,173,985,-1031,2016,23
,121,2023-10-20 13:14:27.35,-30,-261,-2012,-88,-18,160,1182,-1130,2312,-26
,122,2023-10-20 13:14:27.36,-25,-257,-2006,-76,-10,151,968,-1025,1993,28
,123,2023-10-20 13:14:27.37,-19,-243,-1990,-66,6,140,1201,-1126,2327,-37
,124,2023-10-20 13:14:27.38,-5,-243,-2005,-63,30,130,994,-1024,2018,15
,125,2023-10-20 13:14:27.39,-4,-240,-2019,-57,50,124,1236,-1146,2382,-45
,126,2023-10-20 13:14:27.40,1,-239,-2023,-45,59,116,997,-1047,2044,25
,127,2023-10-20 13:14:27.41,9,-230,-2019,-35,66,107,1224,-1160,2384,-32
,128,2023-10-20 13:14:27.42,20,-222,-2027,-27,64,99,985,-1040,2025,27
,129,2023-10-20 13:14:27.43,30,-228,-2036,-9,52,86,1220,-1151,2371,-34
,130,2023-10-20 13:14:27.44,2,-222,-2049,6,48,72,982,-1034,2016,26
,131,2023-10-20 13:14:27.45,39,-201,-2051,12,60,59,1233,-1150,2383,-41
,132,2023-10-20 13:14:27.46,29,-216,-2052,5,59,40,973,-1034,2007,30
,133,2023-10-20 13:14:27.47,30,-225,-2055,7,55,27,1220,-1154,2374,-33
,134,2023-10-20 13:14:27.48,41,-232,-2055,20,50,14,957,-1034,1991,38
,135,2023-10-20 13:14:27.49,50,-238,-2055,31,40,4,1212,-1123,2335,-44
,136,2023-10-20 13:14:27.50,39,-242,-2056,38,27,-1,963,-1002,1965,19
,137,2023-10-20 13:14:27.51,36,-248,-2057,40,26,-5,1216,-1141,2357,-37
,138,2023-10-20 13:14:27.52,49,-240,-2055,41,21,-8,978,-1032,2010,27
,139,2023-10-20 13:14:27.53,39,-259,-2052,40,20,-8,1236,-1157,2393,-39
,140,2023-10-20 13:14:27.54,36,-238,-2065,38,9,-10,978,-1035,2013,28
,141,2023-10-20 13:14:27.55,24,-249,-2056,33,-3,-7,1232,-1158,2390,-37
,142,2023-10-20 13:14:27.56,26,-252,-2060,23,-1,-5,972,-1031,2003,29
,143,2023-10-20 13:14:27.57,15,-244,-2051,16,-11,-2,1210,-1158,2368,-26
,144,2023-10-20 13:14:27.58,16,-239,-2050,5,-17,2,970,-1026,1996,28
,145,2023-10-20 13:14:27.59,20,-238,-2049,-6,-16,5,1222,-1152,2374,-35
,146,2023-10-20 13:14:27.60,0,-241,-2055,-18,-13,8,971,-1026,1997,27
,147,2023-10-20 13:14:27.61,7,-240,-2050,-26,-15,10,1221,-1158,2379,-31
,148,2023-10-20 13:14:27.62,11,-245,-2049,-27,-21,9,969,-1027,1996,29
,149,2023-10-20 13:14:27.63,-10,-238,-2051,-27,-21,11,1211,-1143,2354,-34
,150,2023-10-20 13:14:27.64,3,-241,-2048,-21,-24,13,965,-1014,1979,24
,151,2023-10-20 13:14:27.65,-2,-246,-2040,-15,-24,10,1214,-1152,2366,-31
,152,2023-10-20 13:14:27.66,-3,-249,-2045,-8,-20,8,974,-1021,1995,23
,153,2023-10-20 13:14:27.67,-5,-254,-2037,1,-12,7,1220,-1130,2350,-45
,154,2023-10-20 13:14:27.68,12,-254,-2032,7,-8,10,974,-1004,1978,15
,155,2023-10-20 13:14:27.69,-9,-253,-2037,11,-5,8,1214,-1148,2362,-33
,156,2023-10-20 13:14:27.70,9,-248,-2041,19,-3,5,974,-1021,1995,23
,157,2023-10-20 13:14:27.71,-11,-254,-2039,26,-5,6,1217,-1129,2346,-44
,158,2023-10-20 13:14:27.72,-6,-250,-2036,29,-9,5,969,-1006,1975,18
,159,2023-10-20 13:14:27.73,-6,-265,-2038,26,-12,7,1188,-1148,2336,-20
,160,2023-10-20 13:14:27.74,2,-268,-2032,28,-14,11,955,-1032,1987,38
,161,2023-10-20 13:14:27.75,4,-268,-2029,29,-12,11,1210,-1158,2368,-26
,162,2023-10-20 13:14:27.76,4,-260,-2029,27,-6,14,981,-1031,2012,25
,163,2023-10-20 13:14:27.77,3,-251,-2028,23,-2,15,1216,-1153,2369,-31
,164,2023-10-20 13:14:27.78,16,-254,-2037,15,7,11,993,-1030,2023,18
,165,2023-10-20 13:14:27.79,14,-257,-2043,15,9,9,1214,-1152,2366,-31
,166,2023-10-20 13:14:27.80,11,-258,-2050,10,12,12,986,-1029,2015,21
,167,2023-10-20 13:14:27.81,10,-260,-2053,6,13,9,1208,-1151,2359,-28
,168,2023-10-20 13:14:27.82,2,-263,-2060,0,13,11,991,-1032,2023,20
,169,2023-10-20 13:14:27.83,8,-267,-2066,-8,11,16,1216,-1153,2369,-31
,170,2023-10-20 13:14:27.84,7,-258,-2065,-15,8,18,995,-1034,2029,19
,171,2023-10-20 13:14:27.85,1,-255,-2062,-19,6,19,1200,-1151,2351,-24
,172,2023-10-20 13:14:27.86,-3,-245,-2056,-24,6,20,1002,-1032,2034,15
,173,2023-10-20 13:14:27.87,1,-247,-2048,-28,5,20,1200,-1152,2352,-24
,174,2023-10-20 13:14:27.88,11,-242,-2041,-29,5,20,1000,-1038,2038,19
,175,2023-10-20 13:14:27.89,-1,-231,-2030,-29,5,19,1180,-1156,2336,-12
,176,2023-10-20 13:14:27.90,-1,-232,-2030,-27,9,19,1005,-1039,2044,17
,177,2023-10-20 13:14:27.91,-1,-231,-2033,-25,12,18,1196,-1149,2345,-23
,178,2023-10-20 13:14:27.92,2,-227,-2041,-22,13,14,1015,-1038,2053,11
,179,2023-10-20 13:14:27.93,10,-229,-2043,-18,11,13,1191,-1148,2339,-21
,180,2023-10-20 13:14:27.94,-5,-232,-2048,-18,11,15,1015,-1044,2059,14
,181,2023-10-20 13:14:27.95,-2,-239,-2048,-15,7,16,1179,-1150,2329,-14
,182,2023-10-20 13:14:27.96,11,-231,-2041,-10,2,19,1010,-1038,2048,14
,183,2023-10-20 13:14:27.97,1,-239,-2041,-6,-3,21,1174,-1128,2302,-23
,184,2023-10-20 13:14:27.98,2,-238,-2038,-1,-1,22,1017,-1033,2050,8
,185,2023-10-20 13:14:27.99,9,-235,-2036,5,2,23,1181,-1141,2322,-20
,186,2023-10-20 13:14:28.00,8,-240,-2043,8,7,22,1026,-1051,2077,12
,187,2023-10-20 13:14:28.01,9,-238,-2041,13,13,21,1174,-1146,2320,-14
,188,2023-10-20 13:14:28.02,3,-242,-2047,19,19,21,1033,-1053,2086,10
,189,2023-10-20 13:14:28.03,5,-244,-2055,15,25,20,1173,-1140,2313,-16
,190,2023-10-20 13:14:28.04,4,-232,-2052,13,30,18,1027,-1050,2077,11
,191,2023-10-20 13:14:28.05,7,-250,-2060,9,32,17,1162,-1137,2299,-12
,192,2023-10-20 13:14:28.06,8,-241,-2055,9,30,14,1016,-1055,2071,19
,193,2023-10-20 13:14:28.07,-2,-242,-2056,9,27,14,1144,-1138,2282,-3
,194,2023-10-20 13:14:28.08,15,-238,-2044,7,22,11,1037,-1049,2086,6
,195,2023-10-20 13:14:28.09,20,-242,-2048,11,20,9,1153,-1118,2271,-17
,196,2023-10-20 13:14:28.10,14,-243,-2044,15,13,7,1027,-1050,2077,11
,197,2023-10-20 13:14:28.11,18,-239,-2048,15,11,7,1140,-1130,2270,-5
,198,2023-10-20 13:14:28.12,8,-238,-2037,12,12,4,1025,-1067,2092,21
,199,2023-10-20 13:14:28.13,22,-240,-2042,8,15,6,1129,-1133,2262,2
,200,2023-10-20 13:14:28.14,19,-246,-2038,3,19,9,1038,-1065,2103,13
,201,2023-10-20 13:14:28.15,20,-236,-2045,-4,20,11,1131,-1126,2257,-2
,202,2023-10-20 13:14:28.16,8,-242,-2040,-8,17,14,1054,-1069,2123,7
,203,2023-10-20 13:14:28.17,1,-244,-2051,-10,14,17,1139,-1127,2266,-6
,204,2023-10-20 13:14:28.18,12,-237,-2051,-14,10,19,1049,-1074,2123,12
,205,2023-10-20 13:14:28.19,15,-240,-2045,-12,6,19,1120,-1126,2246,3
,206,2023-10-20 13:14:28.20,7,-239,-2039,-12,7,21,1032,-1076,2108,22
,207,2023-10-20 13:14:28.21,9,-234,-2049,-11,8,21,1107,-1126,2233,9
,208,2023-10-20 13:14:28.22,10,-238,-2047,-9,13,21,1056,-1082,2138,13
,209,2023-10-20 13:14:28.23,7,-231,-2044,-7,16,21,1116,-1120,2236,2
,210,2023-10-20 13:14:28.24,7,-235,-2055,-3,19,20,1072,-1082,2154,5
,211,2023-10-20 13:14:28.25,11,-233,-2057,0,21,19,1109,-1117,2226,4
,212,2023-10-20 13:14:28.26,14,-237,-2052,3,24,19,1084,-1084,2168,0
,213,2023-10-20 13:14:28.27,13,-235,-2045,9,23,21,1124,-1108,2232,-8
,214,2023-10-20 13:14:28.28,22,-244,-2044,12,28,20,1078,-1084,2162,3
,215,2023-10-20 13:14:28.29,21,-246,-2043,15,27,22,1093,-1111,2204,9
,216,2023-10-20 13:14:28.30,6,-242,-2047,19,27,21,1064,-1096,2160,16
,217,2023-10-20 13:14:28.31,19,-235,-2036,20,28,22,1091,-1110,2201,9
,218,2023-10-20 13:14:28.32,15,-237,-2050,21,28,18,1079,-1091,2170,6
,219,2023-10-20 13:14:28.33,17,-233,-2055,18,27,18,1069,-1106,2175,18
,220,2023-10-20 13:14:28.34,23,-234,-2054,15,25,17,1068,-1082,2150,7
,221,2023-10-20 13:14:28.35,26,-237,-2058,13,21,16,1050,-1087,2137,18
,222,2023-10-20 13:14:28.36,21,-235,-2050,12,19,16,1047,-1091,2138,22
,223,2023-10-20 13:14:28.37,17,-239,-2054,11,15,19,1048,-1102,2150,27
,224,2023-10-20 13:14:28.38,13,-233,-2049,8,12,17,1092,-1105,2197,6
,225,2023-10-20 13:14:28.39,25,-230,-2044,3,10,16,1074,-1103,2177,14
,226,2023-10-20 13:14:28.40,8,-227,-2047,3,10,15,1124,-1107,2231,-8
,227,2023-10-20 13:14:28.41,18,-229,-2037,-3,6,17,1084,-1100,2184,8
,228,2023-10-20 13:14:28.42,19,-231,-2033,2,11,19,1144,-1111,2255,-16
,229,2023-10-20 13:14:28.43,32,-228,-2034,5,11,16,1077,-1097,2174,10
,230,2023-10-20 13:14:28.44,22,-233,-2040,9,13,17,1135,-1108,2243,-13
,231,2023-10-20 13:14:28.45,22,-235,-2045,11,18,16,1065,-1088,2153,11
,232,2023-10-20 13:14:28.46,33,-245,-2051,10,24,16,1144,-1108,2252,-18
,233,2023-10-20 13:14:28.47,20,-234,-2052,17,23,19,1060,-1087,2147,13
,234,2023-10-20 13:14:28.48,27,-240,-2046,12,22,19,1130,-1114,2244,-8
,235,2023-10-20 13:14:28.49,21,-232,-2047,13,21,18,1038,-1081,2119,21
,236,2023-10-20 13:14:28.50,28,-232,-2045,14,21,18,1137,-1110,2247,-13
,237,2023-10-20 13:14:28.51,25,-242,-2047,17,18,13,1040,-1075,2115,17
,238,2023-10-20 13:14:28.52,30,-226,-2048,20,14,13,1133,-1096,2229,-18
,239,2023-10-20 13:14:28.53,32,-233,-2048,23,12,11,1025,-1054,2079,14
,240,2023-10-20 13:14:28.54,39,-237,-2051,24,9,11,1122,-1109,2231,-6
,241,2023-10-20 13:14:28.55,41,-245,-2055,22,9,13,1018,-1077,2095,29
,242,2023-10-20 13:14:28.56,19,-245,-2058,20,7,13,1138,-1128,2266,-5
,243,2023-10-20 13:14:28.57,30,-246,-2051,19,5,17,1025,-1079,2104,27
,244,2023-10-20 13:14:28.58,32,-247,-2046,18,5,18,1167,-1131,2298,-18
,245,2023-10-20 13:14:28.59,22,-237,-2039,16,8,18,1037,-1077,2114,20
,246,2023-10-20 13:14:28.60,36,-244,-2053,8,8,15,1173,-1132,2305,-20
,247,2023-10-20 13:14:28.61,23,-243,-2061,4,2,16,1017,-1070,2087,26
,248,2023-10-20 13:14:28.62,19,-245,-2061,3,0,17,1156,-1131,2287,-12
,249,2023-10-20 13:14:28.63,28,-243,-2057,-2,-2,17,1009,-1066,2075,28
,250,2023-10-20 13:14:28.64,24,-244,-2059,-9,-5,22,1178,-1133,2311,-22
,251,2023-10-20 13:14:28.65,18,-238,-2048,-13,-4,27,1007,-1062,2069,27
,252,2023-10-20 13:14:28.66,16,-240,-2041,-17,0,28,1149,-1135,2284,-7
,253,2023-10-20 13:14:28.67,22,-232,-2043,-18,4,29,998,-1063,2061,32
,254,2023-10-20 13:14:28.68,15,-223,-2035,-23,9,29,1199,-1136,2335,-31
,255,2023-10-20 13:14:28.69,28,-227,-2037,-22,10,29,1016,-1065,2081,24
,256,2023-10-20 13:14:28.70,18,-222,-2037,-16,9,24,1206,-1143,2349,-31
,257,2023-10-20 13:14:28.71,28,-223,-2040,-5,5,23,991,-1067,2058,38
,258,2023-10-20 13:14:28.72,27,-226,-2035,2,4,20,1178,-1109,2287,-34
,259,2023-10-20 13:14:28.73,19,-226,-2036,9,5,21,991,-1016,2007,12
,260,2023-10-20 13:14:28.74,18,-228,-2046,13,7,21,1176,-1128,2304,-24
,261,2023-10-20 13:14:28.75,29,-231,-2045,18,10,18,984,-1057,2041,36
,262,2023-10-20 13:14:28.76,17,-218,-2047,17,12,19,1180,-1153,2333,-13
,263,2023-10-20 13:14:28.77,29,-227,-2044,19,12,20,993,-1057,2050,32
,264,2023-10-20 13:14:28.78,17,-220,-2056,23,12,18,1212,-1151,2363,-30
,265,2023-10-20 13:14:28.79,27,-227,-2054,21,14,16,998,-1056,2054,29
,266,2023-10-20 13:14:28.80,32,-231,-2060,17,12,18,1206,-1152,2358,-27
,267,2023-10-20 13:14:28.81,31,-239,-2060,18,9,18,976,-1051,2027,37
,268,2023-10-20 13:14:28.82,34,-237,-2058,17,10,16,1178,-1153,2331,-12
,269,2023-10-20 13:14:28.83,18,-235,-2054,14,6,15,957,-1046,2003,44
,270,2023-10-20 13:14:28.84,20,-235,-2054,11,8,14,1150,-1124,2274,-13
,271,2023-10-20 13:14:28.85,23,-240,-2057,9,7,16,929,-1019,1948,45
,272,2023-10-20 13:14:28.86,31,-236,-2054,8,7,16,1138,-1146,2284,4
,273,2023-10-20 13:14:28.87,20,-238,-2056,10,5,17,917,-1050,1967,66
,274,2023-10-20 13:14:28.88,23,-239,-2044,9,6,17,1120,-1164,2284,22
,275,2023-10-20 13:14:28.89,25,-238,-2039,9,9,16,908,-1050,1958,71
,276,2023-10-20 13:14:28.90,23,-233,-2033,12,8,18,1144,-1160,2304,8
,277,2023-10-20 13:14:28.91,26,-237,-2040,13,8,16,928,-1045,1973,58
,278,2023-10-20 13:14:28.92,19,-236,-2034,17,10,19,1153,-1149,2302,-2
,279,2023-10-20 13:14:28.93,27,-233,-2044,16,7,18,931,-1034,1965,51
,280,2023-10-20 13:14:28.94,29,-231,-2037,16,7,16,1173,-1160,2333,-6
,281,2023-10-20 13:14:28.95,28,-231,-2034,15,7,15,957,-1048,2005,45
,282,2023-10-20 13:14:28.96,19,-234,-2042,13,10,15,1204,-1170,2374,-17
,283,2023-10-20 13:14:28.97,33,-229,-2039,9,12,12,969,-1047,2016,39
,284,2023-10-20 13:14:28.98,28,-232,-2043,6,12,12,1216,-1165,2381,-25
,285,2023-10-20 13:14:28.99,31,-229,-2040,6,13,8,969,-1043,2012,37
,286,2023-10-20 13:14:29.00,38,-230,-2050,7,12,6,1214,-1165,2379,-24
,287,2023-10-20 13:14:29.01,29,-234,-2059,9,8,6,970,-1039,2009,34
,288,2023-10-20 13:14:29.02,27,-246,-2053,11,5,5,1216,-1164,2380,-26
,289,2023-10-20 13:14:29.03,35,-240,-2060,10,2,6,958,-1041,1999,41
,290,2023-10-20 13:14:29.04,39,-235,-2054,10,1,6,1201,-1168,2369,-16
,291,2023-10-20 13:14:29.05,25,-239,-2054,11,0,9,966,-1041,2007,37
,292,2023-10-20 13:14:29.06,26,-236,-2055,11,2,9,1222,-1166,2388,-28
,293,2023-10-20 13:14:29.07,37,-236,-2051,9,3,11,966,-1037,2003,35
,294,2023-10-20 13:14:29.08,28,-235,-2052,6,5,11,1216,-1165,2381,-25
,295,2023-10-20 13:14:29.09,29,-238,-2043,9,5,13,954,-1032,1986,39
,296,2023-10-20 13:14:29.10,23,-236,-2042,9,8,15,1180,-1166,2346,-7
,297,2023-10-20 13:14:29.11,19,-239,-2044,10,9,16,956,-1039,1995,41
,298,2023-10-20 13:14:29.12,17,-238,-2047,11,6,14,1215,-1171,2386,-22
,299,2023-10-20 13:14:29.13,25,-243,-2046,15,2,18,970,-1037,2007,33
,300,2023-10-20 13:14:29.14,17,-241,-2043,17,3,18,1210,-1167,2377,-21
,301,2023-10-20 13:14:29.15,17,-240,-2043,16,6,20,966,-1036,2002,35
,302,2023-10-20 13:14:29.16,25,-224,-2040,18,9,19,1209,-1168,2377,-20
,303,2023-10-20 13:14:29.17,26,-234,-2037,17,15,17,970,-1040,2010,35
,304,2023-10-20 13:14:29.18,16,-236,-2049,16,18,15,1204,-1173,2377,-15
,305,2023-10-20 13:14:29.19,31,-225,-2052,12,22,13,966,-1038,2004,36
,306,2023-10-20 13:14:29.20,25,-223,-2050,10,24,11,1204,-1167,2371,-18
,307,2023-10-20 13:14:29.21,25,-229,-2042,7,24,8,974,-1041,2015,33
,308,2023-10-20 13:14:29.22,36,-228,-2048,8,22,9,1224,-1168,2392,-28
,309,2023-10-20 13:14:29.23,37,-227,-2048,7,15,8,980,-1040,2020,30
,310,2023-10-20 13:14:29.24,32,-224,-2046,8,12,10,1218,-1166,2384,-26
,311,2023-10-20 13:14:29.25,35,-229,-2043,2,8,7,986,-1040,2026,27
,312,2023-10-20 13:14:29.26,36,-226,-2047,0,4,8,1223,-1166,2389,-28
,313,2023-10-20 13:14:29.27,35,-228,-2050,0,4,8,985,-1041,2026,28
,314,2023-10-20 13:14:29.28,28,-227,-2052,1,9,9,1211,-1167,2378,-22
,315,2023-10-20 13:14:29.29,28,-230,-2054,1,6,13,989,-1043,2032,27
,316,2023-10-20 13:14:29.30,32,-232,-2048,0,10,14,1214,-1165,2379,-24
,317,2023-10-20 13:14:29.31,18,-236,-2046,3,10,15,982,-1043,2025,30
,318,2023-10-20 13:14:29.32,27,-232,-2052,7,12,19,1198,-1164,2362,-17
,319,2023-10-20 13:14:29.33,33,-224,-2049,13,11,19,988,-1042,2030,27
,320,2023-10-20 13:14:29.34,24,-239,-2043,20,10,20,1204,-1164,2368,-20
,321,2023-10-20 13:14:29.35,33,-226,-2039,26,10,19,996,-1048,2044,26
,322,2023-10-20 13:14:29.36,26,-225,-2044,31,10,18,1207,-1163,2370,-22
,323,2023-10-20 13:14:29.37,20,-224,-2040,33,12,16,1007,-1047,2054,20
,324,2023-10-20 13:14:29.38,43,-223,-2046,32,12,10,1205,-1160,2365,-22
,325,2023-10-20 13:14:29.39,37,-231,-2050,29,14,5,1000,-1045,2045,22
,326,2023-10-20 13:14:29.40,32,-231,-2042,28,15,4,1188,-1155,2343,-16
,327,2023-10-20 13:14:29.41,38,-241,-2050,27,13,5,1008,-1045,2053,18
,328,2023-10-20 13:14:29.42,32,-245,-2046,24,12,5,1204,-1154,2358,-25
,329,2023-10-20 13:14:29.43,28,-251,-2041,26,8,5,1020,-1047,2067,13
,330,2023-10-20 13:14:29.44,26,-240,-2044,27,7,7,1193,-1152,2345,-20
,331,2023-10-20 13:14:29.45,28,-240,-2048,24,8,10,996,-1049,2045,26
,332,2023-10-20 13:14:29.46,38,-246,-2050,16,10,8,1163,-1148,2311,-7
,333,2023-10-20 13:14:29.47,36,-242,-2059,13,7,10,984,-1048,2032,32
,334,2023-10-20 13:14:29.48,41,-248,-2062,9,6,10,1156,-1149,2305,-3
,335,2023-10-20 13:14:29.49,35,-247,-2053,5,2,15,1008,-1046,2054,19
,336,2023-10-20 13:14:29.50,34,-245,-2055,1,1,14,1191,-1129,2320,-31
,337,2023-10-20 13:14:29.51,35,-244,-2053,-4,2,16,1033,-1047,2080,7
,338,2023-10-20 13:14:29.52,24,-248,-2052,-3,-3,17,1181,-1146,2327,-17
,339,2023-10-20 13:14:29.53,36,-240,-2042,-2,-1,18,999,-1067,2066,34
,340,2023-10-20 13:14:29.54,32,-232,-2047,-1,-5,19,1148,-1146,2294,-1
,341,2023-10-20 13:14:29.55,40,-237,-2037,3,-6,18,1030,-1063,2093,16
,342,2023-10-20 13:14:29.56,30,-236,-2038,6,-5,20,1174,-1142,2316,-16
,343,2023-10-20 13:14:29.57,34,-239,-2038,6,-1,20,1022,-1043,2065,10
,344,2023-10-20 13:14:29.58,20,-238,-2042,8,6,24,1139,-1102,2241,-18
,345,2023-10-20 13:14:29.59,27,-229,-2040,5,8,23,1026,-1043,2069,8
,346,2023-10-20 13:14:29.60,36,-231,-2044,3,10,23,1157,-1133,2290,-12
,347,2023-10-20 13:14:29.61,29,-228,-2043,4,15,20,1034,-1072,2106,19
,348,2023-10-20 13:14:29.62,18,-227,-2039,9,13,19,1131,-1140,2271,4
,349,2023-10-20 13:14:29.63,25,-226,-2048,9,15,14,1028,-1072,2100,22
,350,2023-10-20 13:14:29.64,25,-223,-2048,9,14,5,1128,-1130,2258,1
,351,2023-10-20 13:14:29.65,41,-229,-2047,9,15,2,1001,-1050,2051,24
,352,2023-10-20 13:14:29.66,31,-232,-2047,9,14,-3,1089,-1092,2181,1
,353,2023-10-20 13:14:29.67,40,-235,-2053,11,13,-5,986,-1052,2038,33
,354,2023-10-20 13:14:29.68,45,-234,-2058,11,13,-4,1087,-1124,2211,18
,355,2023-10-20 13:14:29.69,42,-236,-2057,11,12,-3,1021,-1083,2104,31
,356,2023-10-20 13:14:29.70,35,-233,-2057,10,9,-2,1104,-1131,2235,13
,357,2023-10-20 13:14:29.71,38,-244,-2050,6,7,3,1079,-1067,2146,-6
,358,2023-10-20 13:14:29.72,45,-238,-2052,8,7,6,1135,-1094,2229,-20
,359,2023-10-20 13:14:29.73,43,-239,-2050,6,5,12,1072,-1052,2124,-10
,360,2023-10-20 13:14:29.74,38,-246,-2047,8,4,12,1104,-1097,2201,-3
,361,2023-10-20 13:14:29.75,38,-245,-2044,9,1,16,1079,-1052,2131,-13
,362,2023-10-20 13:14:29.76,37,-238,-2046,11,1,18,1114,-1074,2188,-20
,363,2023-10-20 13:14:29.77,22,-239,-2047,11,0,20,1079,-1065,2144,-7
,364,2023-10-20 13:14:29.78,33,-241,-2043,10,2,20,1092,-1112,2204,10
,365,2023-10-20 13:14:29.79,41,-233,-2042,12,2,19,1073,-1081,2154,4
,366,2023-10-20 13:14:29.80,42,-234,-2046,12,3,20,1085,-1088,2173,1
,367,2023-10-20 13:14:29.81,35,-234,-2046,15,2,19,1085,-1065,2150,-10
,368,2023-10-20 13:14:29.82,37,-231,-2041,14,4,15,1089,-1083,2172,-3
,369,2023-10-20 13:14:29.83,36,-237,-2045,12,6,12,1109,-1073,2182,-18
,370,2023-10-20 13:14:29.84,24,-232,-2051,15,2,12,1093,-1086,2179,-3
,371,2023-10-20 13:14:29.85,26,-237,-2037,15,2,11,1103,-1091,2194,-6
,372,2023-10-20 13:14:29.86,36,-239,-2037,16,2,12,1071,-1103,2174,16
,373,2023-10-20 13:14:29.87,33,-239,-2049,17,-3,13,1112,-1100,2212,-6
,374,2023-10-20 13:14:29.88,28,-247,-2047,17,-2,12,1081,-1096,2177,7
,375,2023-10-20 13:14:29.89,36,-242,-2053,18,-4,14,1133,-1102,2235,-15
,376,2023-10-20 13:14:29.90,41,-246,-2055,16,-5,16,1079,-1097,2176,9
,377,2023-10-20 13:14:29.91,32,-236,-2055,13,-5,17,1153,-1102,2255,-25
,378,2023-10-20 13:14:29.92,40,-239,-2053,11,-1,17,1072,-1092,2164,10
,379,2023-10-20 13:14:29.93,32,-236,-2055,7,4,16,1139,-1110,2249,-14
,380,2023-10-20 13:14:29.94,38,-225,-2051,5,3,12,1055,-1097,2152,21
,381,2023-10-20 13:14:29.95,42,-232,-2054,3,6,11,1124,-1060,2184,-32
,382,2023-10-20 13:14:29.96,33,-234,-2054,4,6,7,1031,-1019,2050,-6
,383,2023-10-20 13:14:29.97,30,-235,-2050,5,2,9,1097,-1077,2174,-10
,384,2023-10-20 13:14:29.98,33,-238,-2047,10,0,6,1020,-1085,2105,32
,385,2023-10-20 13:14:29.99,22,-239,-2042,13,-1,4,1111,-1116,2227,2
,386,2023-10-20 13:14:30.00,38,-239,-2042,11,0,8,1008,-1080,2088,36
,387,2023-10-20 13:14:30.01,35,-243,-2039,9,3,9,1076,-1087,2163,5
,388,2023-10-20 13:14:30.02,24,-242,-2052,7,2,10,986,-1045,2031,29
,389,2023-10-20 13:14:30.03,20,-248,-2042,10,4,13,1050,-1104,2154,27
,390,2023-10-20 13:14:30.04,39,-243,-2037,11,3,19,949,-1077,2026,64
,391,2023-10-20 13:14:30.05,35,-248,-2037,11,6,21,997,-1131,2128,67
,392,2023-10-20 13:14:30.06,23,-244,-2041,12,7,23,903,-1082,1985,89
,393,2023-10-20 13:14:30.07,22,-238,-2041,13,10,25,882,-1110,1992,114
,394,2023-10-20 13:14:30.08,31,-230,-2047,12,13,26,798,-1052,1850,127
,395,2023-10-20 13:14:30.09,26,-227,-2050,6,17,24,771,-1117,1888,173
,396,2023-10-20 13:14:30.10,38,-224,-2050,4,20,20,732,-1069,1801,168
,397,2023-10-20 13:14:30.11,35,-220,-2049,2,19,17,732,-1134,1866,201
,398,2023-10-20 13:14:30.12,32,-225,-2054,1,17,15,697,-1070,1767,186
,399,2023-10-20 13:14:30.13,38,-231,-2053,2,12,12,660,-1135,1795,237
,400,2023-10-20 13:14:30.14,39,-231,-2051,7,5,9,656,-1067,1723,205
,401,2023-10-20 13:14:30.15,42,-232,-2042,8,3,11,728,-1137,1865,204
,402,2023-10-20 13:14:30.16,37,-233,-2048,10,1,9,696,-1066,1762,185
,403,2023-10-20 13:14:30.17,37,-235,-2039,10,0,12,652,-1142,1794,245
,404,2023-10-20 13:14:30.18,40,-234,-2040,10,1,15,613,-1063,1676,225
,405,2023-10-20 13:14:30.19,33,-233,-2047,8,5,16,647,-1141,1788,247
,406,2023-10-20 13:14:30.20,41,-232,-2043,10,9,20,625,-1060,1685,217
,407,2023-10-20 13:14:30.21,40,-232,-2045,8,10,21,669,-1144,1813,237
,408,2023-10-20 13:14:30.22,35,-225,-2048,9,15,22,622,-1058,1680,218
,409,2023-10-20 13:14:30.23,35,-231,-2053,10,17,26,628,-1109,1737,240
,410,2023-10-20 13:14:30.24,35,-224,-2056,12,17,23,595,-1016,1611,210
,411,2023-10-20 13:14:30.25,43,-234,-2052,16,16,23,681,-1118,1799,218
,412,2023-10-20 13:14:30.26,33,-228,-2048,20,14,20,628,-1042,1670,207
,413,2023-10-20 13:14:30.27,55,-235,-2055,24,13,16,662,-1150,1812,244
,414,2023-10-20 13:14:30.28,44,-234,-2048,27,10,13,593,-1059,1652,233
,415,2023-10-20 13:14:30.29,23,-238,-2054,34,10,9,652,-1143,1795,245
,416,2023-10-20 13:14:30.30,41,-237,-2057,33,9,8,587,-1040,1627,226
,417,2023-10-20 13:14:30.31,35,-244,-2048,30,10,5,687,-1148,1835,230
,418,2023-10-20 13:14:30.32,45,-251,-2053,27,12,6,610,-1048,1658,219
,419,2023-10-20 13:14:30.33,45,-251,-2053,22,14,6,672,-1157,1829,242
,420,2023-10-20 13:14:30.34,35,-257,-2049,21,12,6,574,-1050,1624,238
,421,2023-10-20 13:14:30.35,39,-252,-2041,20,8,11,655,-1129,1784,237
,422,2023-10-20 13:14:30.36,47,-248,-2053,14,10,14,574,-1012,1586,219
,423,2023-10-20 13:14:30.37,25,-247,-2050,9,11,12,686,-1139,1825,226
,424,2023-10-20 13:14:30.38,39,-243,-2048,7,12,17,587,-1037,1624,225
,425,2023-10-20 13:14:30.39,40,-241,-2041,5,12,15,710,-1125,1835,207
,426,2023-10-20 13:14:30.40,44,-247,-2047,4,13,17,588,-1006,1594,209
,427,2023-10-20 13:14:30.41,37,-244,-2052,1,13,18,704,-1096,1800,196
,428,2023-10-20 13:14:30.42,42,-241,-2048,1,12,19,578,-992,1570,207
,429,2023-10-20 13:14:30.43,31,-239,-2039,-3,12,17,698,-1119,1817,210
,430,2023-10-20 13:14:30.44,38,-225,-2036,-2,11,16,577,-1022,1599,222
,431,2023-10-20 13:14:30.45,37,-224,-2041,-4,8,14,760,-1162,1922,201
,432,2023-10-20 13:14:30.46,37,-230,-2050,-4,6,12,595,-1049,1644,227
,433,2023-10-20 13:14:30.47,29,-228,-2039,-4,7,10,707,-1203,1910,248
,434,2023-10-20 13:14:30.48,29,-222,-2040,-4,7,10,640,-1182,1822,271
,435,2023-10-20 13:14:30.49,36,-226,-2041,-4,7,9,799,-1313,2112,257
,436,2023-10-20 13:14:30.50,39,-231,-2046,-2,9,10,671,-1219,1890,274
,437,2023-10-20 13:14:30.51,27,-229,-2045,1,12,6,792,-1308,2100,258
,438,2023-10-20 13:14:30.52,42,-231,-2048,2,13,10,653,-1202,1855,274
,439,2023-10-20 13:14:30.53,29,-227,-2047,5,16,6,796,-1302,2098,253
,440,2023-10-20 13:14:30.54,31,-225,-2049,7,15,9,647,-1203,1850,278
,441,2023-10-20 13:14:30.55,26,-233,-2048,11,15,8,792,-1301,2093,254
,442,2023-10-20 13:14:30.56,47,-235,-2053,15,17,12,638,-1189,1827,275
,443,2023-10-20 13:14:30.57,41,-234,-2048,15,20,13,790,-1251,2041,230
,444,2023-10-20 13:14:30.58,48,-237,-2046,13,22,12,624,-1108,1732,242
,445,2023-10-20 13:14:30.59,49,-232,-2052,17,25,12,783,-1136,1919,176
,446,2023-10-20 13:14:30.60,52,-227,-2049,21,26,12,616,-984,1600,184
,447,2023-10-20 13:14:30.61,37,-232,-2053,23,18,10,785,-995,1780,105
,448,2023-10-20 13:14:30.62,45,-238,-2059,21,14,8,611,-851,1462,120
,449,2023-10-20 13:14:30.63,50,-240,-2059,22,7,8,782,-856,1638,37
,450,2023-10-20 13:14:30.64,50,-242,-2054,25,1,9,607,-720,1327,56
,451,2023-10-20 13:14:30.65,48,-245,-2055,23,-4,9,786,-718,1504,-34
,452,2023-10-20 13:14:30.66,48,-247,-2056,21,3,9,608,-583,1191,-12
,453,2023-10-20 13:14:30.67,45,-252,-2059,22,6,10,744,-895,1639,75
,454,2023-10-20 13:14:30.68,48,-242,-2050,20,4,11,508,-980,1488,236
,455,2023-10-20 13:14:30.69,56,-243,-2044,13,8,10,720,-1186,1906,233
,456,2023-10-20 13:14:30.70,38,-240,-2042,13,11,9,555,-1064,1619,254
,457,2023-10-20 13:14:30.71,45,-228,-2039,12,10,10,788,-1147,1935,179
,458,2023-10-20 13:14:30.72,42,-240,-2039,10,9,7,582,-1006,1588,212
,459,2023-10-20 13:14:30.73,56,-239,-2041,8,7,8,810,-1118,1928,154
,460,2023-10-20 13:14:30.74,43,-238,-2043,7,3,6,597,-997,1594,200
,461,2023-10-20 13:14:30.75,54,-238,-2045,7,0,7,820,-1107,1927,143
,462,2023-10-20 13:14:30.76,49,-235,-2049,6,-3,7,570,-992,1562,211
,463,2023-10-20 13:14:30.77,49,-223,-2037,6,-6,6,785,-1108,1893,161
,464,2023-10-20 13:14:30.78,47,-229,-2038,10,-9,3,588,-993,1581,202
,465,2023-10-20 13:14:30.79,50,-222,-2036,11,-12,2,820,-1111,1931,145
,466,2023-10-20 13:14:30.80,40,-229,-2035,15,-10,-1,612,-1000,1612,194
,467,2023-10-20 13:14:30.81,48,-229,-2039,15,-11,-2,832,-1134,1966,151
,468,2023-10-20 13:14:30.82,34,-241,-2041,16,-9,-2,593,-1014,1607,210
,469,2023-10-20 13:14:30.83,46,-232,-2042,17,-9,0,818,-1110,1928,146
,470,2023-10-20 13:14:30.84,43,-236,-2038,15,-11,1,608,-994,1602,193
,471,2023-10-20 13:14:30.85,48,-239,-2039,14,-9,0,844,-1119,1963,137
,472,2023-10-20 13:14:30.86,43,-237,-2046,14,-8,4,600,-1008,1608,204
,473,2023-10-20 13:14:30.87,40,-241,-2045,13,-4,7,821,-1110,1931,144
,474,2023-10-20 13:14:30.88,30,-244,-2047,14,-4,9,592,-998,1590,203
,475,2023-10-20 13:14:30.89,28,-234,-2050,16,-1,11,813,-1110,1923,148
,476,2023-10-20 13:14:30.90,53,-241,-2048,15,-1,13,594,-1004,1598,205
,477,2023-10-20 13:14:30.91,43,-239,-2047,16,-1,13,827,-1115,1942,144
,478,2023-10-20 13:14:30.92,46,-237,-2051,17,-2,11,600,-1010,1610,205
,479,2023-10-20 13:14:30.93,37,-243,-2054,19,-3,12,837,-1111,1948,137
,480,2023-10-20 13:14:30.94,35,-241,-2046,21,-4,11,590,-1015,1605,212
,481,2023-10-20 13:14:30.95,45,-246,-2052,26,-4,14,802,-1129,1931,163
,482,2023-10-20 13:14:30.96,43,-253,-2051,29,-5,16,572,-1023,1595,225
,483,2023-10-20 13:14:30.97,42,-248,-2048,27,-3,14,799,-1106,1905,153
,484,2023-10-20 13:14:30.98,38,-254,-2048,27,-1,15,595,-997,1592,201
,485,2023-10-20 13:14:30.99,51,-249,-2046,25,1,17,824,-1091,1915,133
,486,2023-10-20 13:14:31.00,33,-245,-2057,24,5,16,629,-1011,1640,191
,487,2023-10-20 13:14:31.01,29,-247,-2058,21,4,18,851,-1114,1965,131
,488,2023-10-20 13:14:31.02,33,-242,-2058,18,2,17,641,-1033,1674,196
,489,2023-10-20 13:14:31.03,41,-240,-2054,15,0,17,856,-1125,1981,134
,490,2023-10-20 13:14:31.04,46,-240,-2047,12,-1,17,592,-1030,1622,219
,491,2023-10-20 13:14:31.05,43,-229,-2048,9,-2,14,775,-1109,1884,167
,492,2023-10-20 13:14:31.06,50,-237,-2051,7,-4,15,589,-1016,1605,213
,493,2023-10-20 13:14:31.07,31,-242,-2044,8,-6,14,828,-1086,1914,129
,494,2023-10-20 13:14:31.08,40,-230,-2037,8,-5,13,624,-1032,1656,204
,495,2023-10-20 13:14:31.09,38,-230,-2044,8,-6,11,959,-1225,2184,133
,496,2023-10-20 13:14:31.10,38,-234,-2041,7,-1,11,754,-1219,1973,232
,497,2023-10-20 13:14:31.11,35,-237,-2048,8,-1,8,974,-1317,2291,171
,498,2023-10-20 13:14:31.12,39,-236,-2045,11,0,10,698,-1230,1928,266
,499,2023-10-20 13:14:31.13,40,-238,-2042,8,3,8,926,-1298,2224,186
,500,2023-10-20 13:14:31.14,39,-243,-2056,7,6,11,689,-1214,1903,262
,501,2023-10-20 13:14:31.15,34,-244,-2052,8,4,12,913,-1291,2204,189
,502,2023-10-20 13:14:31.16,39,-244,-2050,13,2,15,673,-1218,1891,272
,503,2023-10-20 13:14:31.17,38,-240,-2046,16,3,17,889,-1285,2174,198
,504,2023-10-20 13:14:31.18,39,-240,-2047,17,5,14,653,-1206,1859,276
,505,2023-10-20 13:14:31.19,43,-241,-2048,20,9,14,874,-1221,2095,173
,506,2023-10-20 13:14:31.20,38,-242,-2052,25,12,13,630,-1135,1765,252
,507,2023-10-20 13:14:31.21,42,-240,-2050,27,12,12,859,-1088,1947,114
,508,2023-10-20 13:14:31.22,48,-247,-2048,23,11,7,632,-1006,1638,187
,509,2023-10-20 13:14:31.23,38,-249,-2052,21,10,7,826,-934,1760,54
,510,2023-10-20 13:14:31.24,42,-245,-2044,22,9,7,619,-875,1494,128
,511,2023-10-20 13:14:31.25,39,-249,-2049,21,3,7,826,-776,1602,-25
,512,2023-10-20 13:14:31.26,41,-252,-2040,21,1,6,613,-749,1362,68
,513,2023-10-20 13:14:31.27,51,-248,-2043,19,2,5,814,-640,1454,-87
,514,2023-10-20 13:14:31.28,49,-251,-2047,15,4,4,613,-641,1254,14
,515,2023-10-20 13:14:31.29,39,-254,-2049,14,4,3,815,-512,1327,-151
,516,2023-10-20 13:14:31.30,47,-248,-2043,12,6,1,612,-538,1150,-37
,517,2023-10-20 13:14:31.31,46,-252,-2045,11,5,5,804,-403,1207,-200
,518,2023-10-20 13:14:31.32,47,-255,-2055,10,4,6,615,-452,1067,-81
,519,2023-10-20 13:14:31.33,45,-254,-2048,5,5,7,800,-310,1110,-245
,520,2023-10-20 13:14:31.34,37,-251,-2050,2,2,11,606,-380,986,-113
,521,2023-10-20 13:14:31.35,33,-255,-2049,1,0,11,790,-232,1022,-279
,522,2023-10-20 13:14:31.36,36,-253,-2049,-1,0,13,608,-316,924,-146
,523,2023-10-20 13:14:31.37,37,-247,-2043,-1,-3,16,778,-165,943,-306
,524,2023-10-20 13:14:31.38,38,-244,-2045,-2,-2,17,611,-265,876,-173
,525,2023-10-20 13:14:31.39,37,-244,-2048,0,2,18,776,-108,884,-334
,526,2023-10-20 13:14:31.40,37,-246,-2050,2,-1,20,614,-221,835,-196
,527,2023-10-20 13:14:31.41,29,-240,-2040,5,1,24,778,-63,841,-357
,528,2023-10-20 13:14:31.42,40,-228,-2039,5,5,21,618,-182,800,-218
,529,2023-10-20 13:14:31.43,36,-228,-2043,4,6,19,763,-25,788,-369
,530,2023-10-20 13:14:31.44,28,-237,-2042,8,11,15,616,-154,770,-231
,531,2023-10-20 13:14:31.45,41,-235,-2041,7,12,14,759,10,749,-384
,532,2023-10-20 13:14:31.46,34,-239,-2046,9,14,12,622,-124,746,-249
,533,2023-10-20 13:14:31.47,27,-245,-2041,11,15,8,757,37,720,-397
,534,2023-10-20 13:14:31.48,40,-233,-2044,10,15,7,624,-107,731,-258
,535,2023-10-20 13:14:31.49,43,-233,-2044,16,12,2,742,46,696,-394
,536,2023-10-20 13:14:31.50,39,-238,-2043,18,11,-2,614,-102,716,-256
,537,2023-10-20 13:14:31.51,43,-247,-2044,17,11,-4,738,55,683,-396
,538,2023-10-20 13:14:31.52,39,-237,-2055,15,13,-7,623,-85,708,-269
,539,2023-10-20 13:14:31.53,42,-239,-2048,14,14,-7,732,69,663,-400
,540,2023-10-20 13:14:31.54,41,-247,-2047,11,15,-7,630,-72,702,-279
,541,2023-10-20 13:14:31.55,37,-244,-2051,11,15,-3,736,96,640,-416
,542,2023-10-20 13:14:31.56,54,-246,-2039,9,15,-5,640,-49,689,-295
,543,2023-10-20 13:14:31.57,44,-251,-2043,12,10,0,734,104,630,-419
,544,2023-10-20 13:14:31.58,44,-249,-2038,13,12,2,644,-40,684,-302
,545,2023-10-20 13:14:31.59,35,-248,-2045,7,14,4,718,109,609,-413
,546,2023-10-20 13:14:31.60,49,-249,-2046,6,14,5,644,-29,673,-307
,547,2023-10-20 13:14:31.61,47,-249,-2052,7,14,7,719,123,596,-421
,548,2023-10-20 13:14:31.62,54,-246,-2048,8,10,10,651,-18,669,-316
,549,2023-10-20 13:14:31.63,52,-253,-2051,11,4,10,710,124,586,-417
,550,2023-10-20 13:14:31.64,50,-247,-2050,11,6,13,645,-22,667,-311
,551,2023-10-20 13:14:31.65,48,-241,-2046,7,10,12,704,127,577,-415
,552,2023-10-20 13:14:31.66,49,-238,-2041,5,9,10,662,-7,669,-327
,553,2023-10-20 13:14:31.67,54,-244,-2038,5,11,7,697,129,568,-413
,554,2023-10-20 13:14:31.68,44,-239,-2038,8,14,10,660,-2,662,-329
,555,2023-10-20 13:14:31.69,43,-245,-2038,11,15,7,688,127,561,-407
,556,2023-10-20 13:14:31.70,49,-249,-2046,10,15,8,666,-2,668,-332
,557,2023-10-20 13:14:31.71,32,-244,-2048,10,15,8,686,132,554,-409
,558,2023-10-20 13:14:31.72,43,-240,-2047,10,13,9,669,9,660,-339
,559,2023-10-20 13:14:31.73,42,-248,-2049,7,12,13,681,130,551,-405
,560,2023-10-20 13:14:31.74,53,-248,-2049,6,10,13,672,13,659,-342
,561,2023-10-20 13:14:31.75,42,-241,-2055,5,6,15,675,133,542,-404
,562,2023-10-20 13:14:31.76,68,-240,-2052,4,6,14,677,18,659,-347
,563,2023-10-20 13:14:31.77,41,-244,-2053,2,5,14,668,132,536,-400
,564,2023-10-20 13:14:31.78,54,-246,-2053,5,3,11,676,19,657,-347
,565,2023-10-20 13:14:31.79,55,-242,-2056,5,3,10,656,127,529,-391
,566,2023-10-20 13:14:31.80,44,-241,-2045,3,4,9,685,26,659,-355
,567,2023-10-20 13:14:31.81,51,-239,-2050,7,1,12,657,129,528,-393
,568,2023-10-20 13:14:31.82,46,-237,-2036,7,7,9,680,23,657,-351
,569,2023-10-20 13:14:31.83,52,-244,-2044,11,12,10,640,116,524,-378
,570,2023-10-20 13:14:31.84,50,-246,-2053,11,12,7,687,19,668,-353
,571,2023-10-20 13:14:31.85,51,-239,-2044,14,16,7,638,115,523,-376
,572,2023-10-20 13:14:31.86,47,-243,-2044,17,14,4,689,23,666,-356
,573,2023-10-20 13:14:31.87,41,-240,-2049,18,12,5,637,117,520,-377
,574,2023-10-20 13:14:31.88,50,-250,-2051,16,7,8,698,32,666,-365
,575,2023-10-20 13:14:31.89,48,-249,-2050,18,4,10,628,111,517,-369
,576,2023-10-20 13:14:31.90,58,-238,-2041,17,1,14,700,33,667,-366
,577,2023-10-20 13:14:31.91,49,-246,-2044,15,-10,13,626,111,515,-368
,578,2023-10-20 13:14:31.92,45,-241,-2037,9,-2,15,703,36,667,-369
,579,2023-10-20 13:14:31.93,41,-240,-2052,8,7,18,620,106,514,-363
,580,2023-10-20 13:14:31.94,37,-239,-2059,2,1,18,705,39,666,-372
,581,2023-10-20 13:14:31.95,41,-239,-2051,2,2,18,608,102,506,-355
,582,2023-10-20 13:14:31.96,57,-235,-2050,2,10,19,717,48,669,-382
,583,2023-10-20 13:14:31.97,41,-233,-2040,3,4,18,612,102,510,-357
,584,2023-10-20 13:14:31.98,49,-238,-2045,4,7,16,715,50,665,-382
,585,2023-10-20 13:14:31.99,34,-237,-2037,6,7,18,605,98,507,-351
,586,2023-10-20 13:14:32.00,46,-232,-2042,7,3,17,725,53,672,-389
,587,2023-10-20 13:14:32.01,54,-236,-2042,9,9,17,610,105,505,-357
,588,2023-10-20 13:14:32.02,58,-233,-2046,9,9,16,732,65,667,-398
,589,2023-10-20 13:14:32.03,51,-238,-2051,8,8,14,608,106,502,-357
,590,2023-10-20 13:14:32.04,53,-242,-2045,9,10,13,747,80,667,-413
,591,2023-10-20 13:14:32.05,48,-241,-2048,8,12,13,600,100,500,-350
,592,2023-10-20 13:14:32.06,60,-243,-2050,9,17,11,757,85,672,-421
,593,2023-10-20 13:14:32.07,42,-246,-2045,8,17,10,614,116,498,-365
,594,2023-10-20 13:14:32.08,57,-249,-2049,12,16,10,770,103,667,-436
,595,2023-10-20 13:14:32.09,59,-243,-2048,16,14,11,619,124,495,-371
,596,2023-10-20 13:14:32.10,49,-242,-2041,18,14,8,780,119,661,-449
,597,2023-10-20 13:14:32.11,46,-251,-2049,21,14,7,615,128,487,-371
,598,2023-10-20 13:14:32.12,56,-242,-2047,20,12,5,786,125,661,-455
,599,2023-10-20 13:14:32.13,58,-246,-2051,18,9,6,617,126,491,-371
,600,2023-10-20 13:14:32.14,46,-254,-2058,16,7,7,789,129,660,-459
,601,2023-10-20 13:14:32.15,49,-253,-2047,14,11,7,605,117,488,-361
,602,2023-10-20 13:14:32.16,49,-257,-2044,15,7,9,783,122,661,-452
,603,2023-10-20 13:14:32.17,59,-247,-2045,14,6,8,600,110,490,-355
,604,2023-10-20 13:14:32.18,46,-245,-2045,8,5,7,781,114,667,-447
,605,2023-10-20 13:14:32.19,52,-246,-2050,4,9,6,590,95,495,-342
,606,2023-10-20 13:14:32.20,46,-249,-2051,4,6,8,783,115,668,-449
,607,2023-10-20 13:14:32.21,58,-247,-2045,1,5,8,581,88,493,-334
,608,2023-10-20 13:14:32.22,60,-249,-2053,-4,9,8,775,106,669,-440
,609,2023-10-20 13:14:32.23,44,-239,-2051,-6,8,8,574,77,497,-325
,610,2023-10-20 13:14:32.24,59,-236,-2051,-5,4,10,771,104,667,-437
,611,2023-10-20 13:14:32.25,49,-247,-2048,-6,3,10,571,73,498,-322
,612,2023-10-20 13:14:32.26,48,-245,-2048,-8,-1,13,763,100,663,-431
,613,2023-10-20 13:14:32.27,48,-247,-2045,-5,-2,14,552,53,499,-302
,614,2023-10-20 13:14:32.28,49,-237,-2036,-5,0,15,752,88,664,-420
,615,2023-10-20 13:14:32.29,46,-236,-2043,-7,-4,16,542,40,502,-291
,616,2023-10-20 13:14:32.30,48,-236,-2051,-10,1,17,750,82,668,-416
,617,2023-10-20 13:14:32.31,51,-239,-2047,-9,2,19,542,37,505,-289
,618,2023-10-20 13:14:32.32,50,-236,-2046,-8,0,20,758,92,666,-425
,619,2023-10-20 13:14:32.33,49,-228,-2048,-4,-1,20,539,37,502,-288
,620,2023-10-20 13:14:32.34,47,-232,-2051,-1,-2,18,758,96,662,-427
,621,2023-10-20 13:14:32.35,60,-225,-2049,-1,-3,18,534,35,499,-284
,622,2023-10-20 13:14:32.36,49,-230,-2049,3,0,15,747,87,660,-417
,623,2023-10-20 13:14:32.37,42,-231,-2042,5,1,13,520,18,502,-269
,624,2023-10-20 13:14:32.38,47,-233,-2043,11,4,11,744,79,665,-411
,625,2023-10-20 13:14:32.39,41,-230,-2041,12,8,10,520,14,506,-267
,626,2023-10-20 13:14:32.40,53,-224,-2048,16,10,10,747,87,660,-417
,627,2023-10-20 13:14:32.41,44,-234,-2049,17,9,8,515,7,508,-261
,628,2023-10-20 13:14:32.42,50,-241,-2045,17,12,5,736,82,654,-409
,629,2023-10-20 13:14:32.43,57,-243,-2051,22,14,7,498,-11,509,-243
,630,2023-10-20 13:14:32.44,51,-240,-2053,22,7,7,728,77,651,-402
,631,2023-10-20 13:14:32.45,52,-236,-2050,19,9,8,507,-5,512,-251
,632,2023-10-20 13:14:32.46,55,-240,-2052,21,7,11,736,86,650,-411
,633,2023-10-20 13:14:32.47,48,-240,-2045,25,11,6,504,-8,512,-248
,634,2023-10-20 13:14:32.48,57,-240,-2046,26,13,8,731,78,653,-404
,635,2023-10-20 13:14:32.49,54,-242,-2052,25,13,4,506,-14,520,-246
,636,2023-10-20 13:14:32.50,60,-241,-2056,26,13,0,738,89,649,-413
,637,2023-10-20 13:14:32.51,57,-239,-2048,27,12,0,511,-10,521,-250
,638,2023-10-20 13:14:32.52,55,-242,-2051,25,8,-1,758,106,652,-432
,639,2023-10-20 13:14:32.53,56,-245,-2051,24,6,-3,540,8,532,-274
,640,2023-10-20 13:14:32.54,44,-247,-2052,25,3,-4,792,146,646,-469
,641,2023-10-20 13:14:32.55,59,-248,-2045,23,0,-4,559,38,521,-298
,642,2023-10-20 13:14:32.56,54,-251,-2042,20,10,-2,805,170,635,-487
,643,2023-10-20 13:14:32.57,58,-253,-2046,18,11,-2,576,50,526,-313
,644,2023-10-20 13:14:32.58,51,-245,-2049,13,13,0,816,190,626,-503
,645,2023-10-20 13:14:32.59,57,-248,-2036,11,16,4,578,56,522,-317
,646,2023-10-20 13:14:32.60,68,-246,-2041,7,24,4,815,193,622,-504
,647,2023-10-20 13:14:32.61,60,-244,-2045,9,25,2,580,57,523,-318
,648,2023-10-20 13:14:32.62,58,-244,-2050,6,25,1,813,195,618,-504
,649,2023-10-20 13:14:32.63,49,-241,-2046,5,24,2,585,58,527,-321
,650,2023-10-20 13:14:32.64,57,-240,-2046,6,20,-2,828,206,622,-517
,651,2023-10-20 13:14:32.65,53,-238,-2050,3,18,-1,593,66,527,-329
,652,2023-10-20 13:14:32.66,65,-238,-2053,5,13,1,824,214,610,-519
,653,2023-10-20 13:14:32.67,58,-243,-2051,5,12,2,595,64,531,-329
,654,2023-10-20 13:14:32.68,59,-243,-2052,7,3,4,826,217,609,-521
,655,2023-10-20 13:14:32.69,57,-244,-2046,8,8,8,599,64,535,-331
,656,2023-10-20 13:14:32.70,58,-249,-2046,10,9,11,823,216,607,-519
,657,2023-10-20 13:14:32.71,54,-245,-2052,13,11,15,602,57,545,-329
,658,2023-10-20 13:14:32.72,63,-248,-2053,15,13,16,818,210,608,-514
,659,2023-10-20 13:14:32.73,49,-238,-2044,18,16,17,594,51,543,-322
,660,2023-10-20 13:14:32.74,58,-242,-2046,21,17,16,803,199,604,-501
,661,2023-10-20 13:14:32.75,59,-238,-2049,20,19,13,588,36,552,-312
,662,2023-10-20 13:14:32.76,62,-247,-2057,22,17,14,800,191,609,-495
,663,2023-10-20 13:14:32.77,49,-244,-2047,25,15,14,582,26,556,-304
,664,2023-10-20 13:14:32.78,63,-240,-2054,24,14,9,788,185,603,-486
,665,2023-10-20 13:14:32.79,53,-237,-2049,23,13,9,579,18,561,-298
,666,2023-10-20 13:14:32.80,60,-231,-2046,22,14,3,770,173,597,-471
,667,2023-10-20 13:14:32.81,55,-231,-2040,17,19,-1,578,6,572,-292
,668,2023-10-20 13:14:32.82,54,-234,-2045,16,22,-8,766,169,597,-467
,669,2023-10-20 13:14:32.83,54,-232,-2043,13,22,-12,573,6,567,-289
,670,2023-10-20 13:14:32.84,61,-231,-2043,13,22,-11,755,166,589,-460
,671,2023-10-20 13:14:32.85,54,-231,-2034,8,22,-13,585,16,569,-300
,672,2023-10-20 13:14:32.86,78,-230,-2038,3,15,-14,766,182,584,-474
,673,2023-10-20 13:14:32.87,55,-230,-2030,0,18,-14,595,18,577,-306
,674,2023-10-20 13:14:32.88,49,-241,-2044,-2,19,-14,770,183,587,-476
,675,2023-10-20 13:14:32.89,68,-236,-2045,-2,16,-12,600,22,578,-311
,676,2023-10-20 13:14:32.90,63,-240,-2051,-2,14,-6,761,186,575,-473
,677,2023-10-20 13:14:32.91,55,-234,-2047,0,13,-4,604,23,581,-313
,678,2023-10-20 13:14:32.92,68,-240,-2042,2,16,-1,768,193,575,-480
,679,2023-10-20 13:14:32.93,64,-241,-2041,6,21,0,610,26,584,-318
,680,2023-10-20 13:14:32.94,55,-248,-2049,12,25,5,757,186,571,-471
,681,2023-10-20 13:14:32.95,63,-242,-2040,18,25,8,610,21,589,-315
,682,2023-10-20 13:14:32.96,65,-240,-2037,24,24,10,760,190,570,-475
,683,2023-10-20 13:14:32.97,70,-242,-2041,29,29,12,623,29,594,-326
,684,2023-10-20 13:14:32.98,58,-241,-2053,29,32,9,749,186,563,-467
,685,2023-10-20 13:14:32.99,71,-246,-2053,32,32,13,617,20,597,-318
,686,2023-10-20 13:14:33.00,66,-244,-2052,35,30,14,735,176,559,-455
,687,2023-10-20 13:14:33.01,78,-248,-2061,37,27,12,614,16,598,-315
,688,2023-10-20 13:14:33.02,71,-238,-2054,36,29,11,729,174,555,-451
,689,2023-10-20 13:14:33.03,92,-239,-2052,36,28,10,616,16,600,-316
,690,2023-10-20 13:14:33.04,77,-253,-2048,36,28,9,724,167,557,-445
,691,2023-10-20 13:14:33.05,75,-254,-2039,35,26,3,624,16,608,-320
,692,2023-10-20 13:14:33.06,79,-252,-2039,40,25,4,720,168,552,-444
,693,2023-10-20 13:14:33.07,86,-249,-2031,44,26,4,620,12,608,-316
,694,2023-10-20 13:14:33.08,74,-253,-2039,41,27,4,708,158,550,-433
,695,2023-10-20 13:14:33.09,77,-258,-2040,36,24,4,623,9,614,-316
,696,2023-10-20 13:14:33.10,84,-254,-2045,37,21,5,705,155,550,-430
,697,2023-10-20 13:14:33.11,82,-258,-2052,30,15,4,624,6,618,-315
,698,2023-10-20 13:14:33.12,88,-260,-2045,28,9,6,700,150,550,-425
,699,2023-10-20 13:14:33.13,83,-264,-2047,25,5,11,632,6,626,-319
,700,2023-10-20 13:14:33.14,70,-263,-2050,24,4,16,689,150,539,-419
,701,2023-10-20 13:14:33.15,93,-262,-2049,19,3,18,637,12,625,-324
,702,2023-10-20 13:14:33.16,79,-262,-2043,17,4,22,689,154,535,-421
,703,2023-10-20 13:14:33.17,73,-254,-2039,15,10,21,644,18,626,-331
,704,2023-10-20 13:14:33.18,69,-255,-2047,15,16,22,678,152,526,-415
,705,2023-10-20 13:14:33.19,70,-254,-2052,15,16,24,652,30,622,-341
,706,2023-10-20 13:14:33.20,74,-254,-2053,15,15,24,683,160,523,-421
,707,2023-10-20 13:14:33.21,70,-247,-2058,16,14,24,670,41,629,-355
,708,2023-10-20 13:14:33.22,76,-249,-2058,18,14,23,693,171,522,-432
,709,2023-10-20 13:14:33.23,70,-242,-2054,16,15,25,676,47,629,-361
,710,2023-10-20 13:14:33.24,72,-249,-2047,14,19,23,680,162,518,-421
,711,2023-10-20 13:14:33.25,72,-254,-2044,15,21,22,670,35,635,-352
,712,2023-10-20 13:14:33.26,75,-254,-2044,18,25,23,676,155,521,-415
,713,2023-10-20 13:14:33.27,71,-251,-2035,16,28,18,683,47,636,-365
,714,2023-10-20 13:14:33.28,72,-250,-2035,21,34,19,675,161,514,-418
,715,2023-10-20 13:14:33.29,81,-257,-2052,20,33,22,692,52,640,-372
,716,2023-10-20 13:14:33.30,74,-268,-2045,26,19,23,675,159,516,-417
,717,2023-10-20 13:14:33.31,88,-262,-2045,43,-6,26,707,61,646,-384
,718,2023-10-20 13:14:33.32,80,-239,-2052,41,5,30,674,164,510,-419
,719,2023-10-20 13:14:33.33,91,-240,-2045,27,13,30,716,70,646,-393
,720,2023-10-20 13:14:33.34,86,-266,-2042,21,2,27,671,161,510,-416
,721,2023-10-20 13:14:33.35,92,-249,-2055,30,11,30,730,73,657,-401
,722,2023-10-20 13:14:33.36,87,-244,-2040,33,2,34,670,160,510,-415
,723,2023-10-20 13:14:33.37,75,-269,-2031,28,9,33,731,71,660,-401
,724,2023-10-20 13:14:33.38,80,-243,-2048,33,4,34,661,153,508,-407
,725,2023-10-20 13:14:33.39,101,-250,-2046,42,-12,35,724,68,656,-396
,726,2023-10-20 13:14:33.40,70,-260,-2045,32,5,32,649,143,506,-396
,727,2023-10-20 13:14:33.41,73,-251,-2062,31,-2,30,722,64,658,-393
,728,2023-10-20 13:14:33.42,83,-244,-2043,30,6,28,636,132,504,-384
,729,2023-10-20 13:14:33.43,62,-249,-2025,33,5,19,718,62,656,-390
,730,2023-10-20 13:14:33.44,88,-248,-2040,33,-1,14,630,127,503,-378
,731,2023-10-20 13:14:33.45,80,-255,-2052,32,11,13,730,70,660,-400
,732,2023-10-20 13:14:33.46,75,-265,-2045,32,6,10,629,130,499,-379
,733,2023-10-20 13:14:33.47,87,-264,-2049,37,1,10,732,77,655,-404
,734,2023-10-20 13:14:33.48,88,-257,-2047,37,3,9,621,128,493,-374
,735,2023-10-20 13:14:33.49,85,-268,-2034,38,-6,9,753,88,665,-420
,736,2023-10-20 13:14:33.50,77,-280,-2054,43,-18,11,639,137,502,-388
,737,2023-10-20 13:14:33.51,73,-269,-2064,44,-23,19,758,96,662,-427
,738,2023-10-20 13:14:33.52,82,-286,-2040,37,-18,21,627,129,498,-378
,739,2023-10-20 13:14:33.53,82,-274,-2032,31,-6,26,780,154,626,-467
,740,2023-10-20 13:14:33.54,80,-274,-2037,25,7,24,618,189,429,-403
,741,2023-10-20 13:14:33.55,73,-276,-2028,27,-1,25,724,-266,990,-229
,742,2023-10-20 13:14:33.56,80,-255,-2035,30,-1,28,526,-504,1030,-11
,743,2023-10-20 13:14:33.57,101,-252,-2032,33,-16,26,672,-950,1622,139
,744,2023-10-20 13:14:33.58,99,-265,-2043,28,-4,25,494,-1017,1511,261
,745,2023-10-20 13:14:33.59,83,-263,-2059,25,5,24,654,-1168,1822,257
,746,2023-10-20 13:14:33.60,82,-257,-2064,33,-13,26,493,-1045,1538,276
,747,2023-10-20 13:14:33.61,79,-268,-2056,27,-4,26,684,-1160,1844,238
,748,2023-10-20 13:14:33.62,58,-270,-2059,24,-3,26,497,-1042,1539,272
,749,2023-10-20 13:14:33.63,85,-276,-2053,30,-17,26,676,-1170,1846,247
,750,2023-10-20 13:14:33.64,66,-284,-2053,37,-19,29,501,-1058,1559,278
,751,2023-10-20 13:14:33.65,64,-282,-2050,38,-9,31,717,-1193,1910,238
,752,2023-10-20 13:14:33.66,66,-285,-2019,41,-6,30,510,-1068,1578,279
,753,2023-10-20 13:14:33.67,87,-275,-2024,51,-7,27,669,-1176,1845,253
,754,2023-10-20 13:14:33.68,72,-269,-2030,56,-10,21,468,-1046,1514,289
,755,2023-10-20 13:14:33.69,71,-269,-2027,50,11,15,675,-1180,1855,252
,756,2023-10-20 13:14:33.70,71,-266,-2030,40,13,10,488,-1061,1549,286
,757,2023-10-20 13:14:33.71,41,-279,-2036,30,21,5,688,-1187,1875,249
,758,2023-10-20 13:14:33.72,64,-279,-2063,32,-4,5,471,-1046,1517,287
,759,2023-10-20 13:14:33.73,57,-270,-2070,26,-24,12,655,-1139,1794,242
,760,2023-10-20 13:14:33.74,48,-279,-2057,9,-21,15,479,-1015,1494,268
,761,2023-10-20 13:14:33.75,60,-285,-2058,-1,-35,20,722,-1162,1884,220
,762,2023-10-20 13:14:33.76,60,-272,-2043,-7,-23,27,510,-1039,1549,264
,763,2023-10-20 13:14:33.77,75,-268,-2023,-13,-11,32,711,-1141,1852,215
,764,2023-10-20 13:14:33.78,65,-280,-2014,-14,-4,33,500,-1008,1508,254
,765,2023-10-20 13:14:33.79,70,-268,-2030,1,-7,31,741,-1131,1872,195
,766,2023-10-20 13:14:33.80,67,-267,-2026,10,-4,37,544,-1008,1552,232
,767,2023-10-20 13:14:33.81,55,-278,-2031,15,11,34,779,-1118,1897,169
,768,2023-10-20 13:14:33.82,68,-272,-2051,19,15,32,557,-998,1555,220
,769,2023-10-20 13:14:33.83,77,-277,-2056,28,16,34,785,-1115,1900,165
,770,2023-10-20 13:14:33.84,58,-286,-2054,35,3,33,558,-998,1556,220
,771,2023-10-20 13:14:33.85,58,-280,-2051,39,1,29,789,-1111,1900,161
,772,2023-10-20 13:14:33.86,61,-275,-2029,44,-6,28,570,-997,1567,213
,773,2023-10-20 13:14:33.87,62,-274,-2034,49,-7,22,812,-1111,1923,149
,774,2023-10-20 13:14:33.88,64,-274,-2031,42,12,19,564,-998,1562,217
,775,2023-10-20 13:14:33.89,70,-284,-2035,39,20,12,780,-1107,1887,163
,776,2023-10-20 13:14:33.90,78,-286,-2044,40,23,9,548,-1004,1552,228
,777,2023-10-20 13:14:33.91,68,-287,-2052,40,19,7,776,-1119,1895,171
,778,2023-10-20 13:14:33.92,73,-286,-2048,37,21,3,571,-1011,1582,220
,779,2023-10-20 13:14:33.93,76,-294,-2051,33,18,1,822,-1110,1932,144
,780,2023-10-20 13:14:33.94,72,-300,-2050,30,17,1,598,-1007,1605,204
,781,2023-10-20 13:14:33.95,70,-301,-2037,28,13,1,817,-1117,1934,150
,782,2023-10-20 13:14:33.96,81,-305,-2030,25,13,3,576,-1012,1588,218
,783,2023-10-20 13:14:33.97,82,-303,-2032,24,14,7,788,-1107,1895,159
,784,2023-10-20 13:14:33.98,72,-303,-2038,17,22,7,563,-1006,1569,221
,785,2023-10-20 13:14:33.99,79,-291,-2038,10,24,8,787,-1105,1892,159
,786,2023-10-20 13:14:34.00,79,-286,-2049,5,23,12,580,-1018,1598,219
,787,2023-10-20 13:14:34.01,81,-290,-2046,0,17,12,798,-1117,1915,159
,788,2023-10-20 13:14:34.02,90,-283,-2046,-6,11,13,580,-1027,1607,223
,789,2023-10-20 13:14:34.03,81,-287,-2052,-7,3,15,796,-1118,1914,161
,790,2023-10-20 13:14:34.04,73,-284,-2042,-6,-4,20,578,-1024,1602,223
,791,2023-10-20 13:14:34.05,72,-285,-2043,-7,-9,26,794,-1107,1901,156
,792,2023-10-20 13:14:34.06,77,-278,-2033,-6,-11,28,582,-1042,1624,230
,793,2023-10-20 13:14:34.07,79,-267,-2035,-5,-10,31,791,-1145,1936,177
,794,2023-10-20 13:14:34.08,78,-271,-2037,-7,-6,31,603,-1064,1667,230
,795,2023-10-20 13:14:34.09,75,-272,-2038,-6,-2,31,821,-1129,1950,154
,796,2023-10-20 13:14:34.10,78,-275,-2046,-3,-1,33,599,-1027,1626,214
,797,2023-10-20 13:14:34.11,72,-268,-2050,0,-2,37,792,-1084,1876,146
,798,2023-10-20 13:14:34.12,75,-266,-2058,3,-4,39,616,-1013,1629,198
,799,2023-10-20 13:14:34.13,74,-270,-2047,8,-6,39,829,-1090,1919,130
,800,2023-10-20 13:14:34.14,77,-265,-2045,9,-5,38,609,-1030,1639,210
,801,2023-10-20 13:14:34.15,77,-263,-2041,10,-3,35,790,-1100,1890,155
,802,2023-10-20 13:14:34.16,76,-258,-2042,13,0,31,555,-1030,1585,237
,803,2023-10-20 13:14:34.17,72,-262,-2046,15,-2,28,739,-1084,1823,172
,804,2023-10-20 13:14:34.18,68,-263,-2037,16,-5,22,584,-1030,1614,223
,805,2023-10-20 13:14:34.19,75,-266,-2038,19,-8,17,788,-1093,1881,152
,806,2023-10-20 13:14:34.20,67,-269,-2036,23,-8,17,609,-1046,1655,218
,807,2023-10-20 13:14:34.21,70,-256,-2042,24,-7,14,780,-1098,1878,159
,808,2023-10-20 13:14:34.22,57,-269,-2047,22,-5,14,586,-1043,1629,228
,809,2023-10-20 13:14:34.23,65,-279,-2052,23,-4,17,749,-1085,1834,168
,810,2023-10-20 13:14:34.24,57,-284,-2044,19,0,20,593,-1023,1616,215
,811,2023-10-20 13:14:34.25,58,-281,-2035,18,4,27,768,-1056,1824,144
,812,2023-10-20 13:14:34.26,48,-285,-2035,16,10,31,624,-1052,1676,214
,813,2023-10-20 13:14:34.27,64,-286,-2033,16,18,33,788,-1120,1908,166
,814,2023-10-20 13:14:34.28,67,-270,-2040,15,22,38,602,-1095,1697,246
,815,2023-10-20 13:14:34.29,54,-285,-2041,14,26,40,746,-1118,1864,186
,816,2023-10-20 13:14:34.30,54,-313,-2032,25,17,44,576,-1088,1664,256
,817,2023-10-20 13:14:34.31,73,-301,-2040,61,-24,52,729,-1111,1840,191
,818,2023-10-20 13:14:34.32,83,-252,-2048,70,-18,58,589,-1092,1681,251
,819,2023-10-20 13:14:34.33,73,-274,-2019,40,22,50,742,-1110,1852,184
,820,2023-10-20 13:14:34.34,86,-284,-2029,26,39,43,583,-1094,1677,255
,821,2023-10-20 13:14:34.35,80,-289,-2047,38,46,41,717,-1106,1823,194
,822,2023-10-20 13:14:34.36,77,-274,-2045,49,33,37,561,-1089,1650,264
,823,2023-10-20 13:14:34.37,96,-280,-2036,51,8,30,689,-1093,1782,202
,824,2023-10-20 13:14:34.38,83,-280,-2044,50,11,26,592,-1093,1685,250
,825,2023-10-20 13:14:34.39,80,-286,-2044,50,15,22,730,-1098,1828,184
,826,2023-10-20 13:14:34.40,104,-285,-2045,44,12,19,614,-1101,1715,243
,827,2023-10-20 13:14:34.41,107,-286,-2053,31,17,19,718,-1096,1814,189
,828,2023-10-20 13:14:34.42,93,-302,-2060,23,18,19,601,-1092,1693,245
,829,2023-10-20 13:14:34.43,104,-317,-2053,30,-7,24,718,-1077,1795,179
,830,2023-10-20 13:14:34.44,108,-303,-2050,39,-26,29,562,-1099,1661,268
,831,2023-10-20 13:14:34.45,87,-302,-2037,35,-13,34,664,-1090,1754,213
,832,2023-10-20 13:14:34.46,85,-306,-2029,30,-4,35,571,-1094,1665,261
,833,2023-10-20 13:14:34.47,84,-304,-2037,31,2,40,680,-1066,1746,193
,834,2023-10-20 13:14:34.48,76,-301,-2034,34,4,41,603,-1079,1682,238
,835,2023-10-20 13:14:34.49,77,-297,-2039,33,12,40,696,-1054,1750,179
,836,2023-10-20 13:14:34.50,82,-295,-2036,37,-6,37,603,-1070,1673,233
,837,2023-10-20 13:14:34.51,83,-281,-2036,39,-13,30,677,-1044,1721,183
,838,2023-10-20 13:14:34.52,94,-274,-2039,33,-18,23,638,-1091,1729,226
,839,2023-10-20 13:14:34.53,96,-279,-2044,22,-15,17,708,-1071,1779,181
,840,2023-10-20 13:14:34.54,95,-299,-2049,17,-13,10,663,-1078,1741,207
,841,2023-10-20 13:14:34.55,74,-312,-2049,25,-10,8,706,-1029,1735,161
,842,2023-10-20 13:14:34.56,80,-308,-2038,37,-15,9,648,-1098,1746,225
,843,2023-10-20 13:14:34.57,84,-314,-2025,45,-35,12,693,-1082,1775,194
,844,2023-10-20 13:14:34.58,72,-315,-2034,42,-27,19,692,-1134,1826,221
,845,2023-10-20 13:14:34.59,73,-319,-2036,41,-28,25,716,-1081,1797,182
,846,2023-10-20 13:14:34.60,67,-302,-2039,29,-6,30,685,-1123,1808,219
,847,2023-10-20 13:14:34.61,72,-300,-2036,24,-2,33,693,-1066,1759,186
,848,2023-10-20 13:14:34.62,61,-316,-2058,19,-14,36,671,-1126,1797,227
,849,2023-10-20 13:14:34.63,59,-311,-2052,22,-23,40,680,-1069,1749,194
,850,2023-10-20 13:14:34.64,57,-302,-2048,27,-30,44,674,-1132,1806,229
,851,2023-10-20 13:14:34.65,54,-309,-2053,33,-25,44,670,-1066,1736,198
,852,2023-10-20 13:14:34.66,58,-300,-2034,39,-21,43,647,-1106,1753,229
,853,2023-10-20 13:14:34.67,49,-294,-2030,42,-18,43,640,-1034,1674,197
,854,2023-10-20 13:14:34.68,48,-292,-2019,46,-11,38,645,-1122,1767,238
,855,2023-10-20 13:14:34.69,56,-286,-2023,44,-6,34,639,-1065,1704,213
,856,2023-10-20 13:14:34.70,41,-289,-2028,45,-7,33,645,-1123,1768,239
,857,2023-10-20 13:14:34.71,44,-301,-2030,42,-9,30,628,-1038,1666,205
,858,2023-10-20 13:14:34.72,48,-304,-2028,41,-12,30,650,-1101,1751,225
,859,2023-10-20 13:14:34.73,47,-306,-2031,44,-9,30,624,-1026,1650,201
,860,2023-10-20 13:14:34.74,45,-313,-2029,42,-3,31,643,-1132,1775,244
,861,2023-10-20 13:14:34.75,40,-315,-2030,47,10,33,608,-1062,1670,227
,862,2023-10-20 13:14:34.76,52,-316,-2018,47,22,30,641,-1130,1771,244
,863,2023-10-20 13:14:34.77,53,-308,-2015,49,35,29,606,-1036,1642,215
,864,2023-10-20 13:14:34.78,69,-310,-2013,48,48,23,681,-1138,1819,228
,865,2023-10-20 13:14:34.79,52,-307,-2019,50,58,17,631,-1059,1690,214
,866,2023-10-20 13:14:34.80,68,-296,-2030,46,59,11,702,-1155,1857,226
,867,2023-10-20 13:14:34.81,61,-298,-2039,48,53,4,621,-1060,1681,219
,868,2023-10-20 13:14:34.82,58,-300,-2060,48,41,-4,698,-1152,1850,227
,869,2023-10-20 13:14:34.83,77,-316,-2060,47,26,-11,606,-1054,1660,224
,870,2023-10-20 13:14:34.84,75,-316,-2049,49,13,-13,724,-1151,1875,213
,871,2023-10-20 13:14:34.85,72,-322,-2050,53,2,-16,623,-1047,1670,212
,872,2023-10-20 13:14:34.86,74,-318,-2041,61,-5,-16,696,-1150,1846,227
,873,2023-10-20 13:14:34.87,72,-331,-2030,65,-13,-17,592,-1049,1641,228
,874,2023-10-20 13:14:34.88,77,-337,-2020,67,-12,-16,704,-1156,1860,226
,875,2023-10-20 13:14:34.89,71,-333,-2026,73,-9,-20,609,-1049,1658,220
,876,2023-10-20 13:14:34.90,72,-338,-2028,71,6,-19,756,-1154,1910,199
,877,2023-10-20 13:14:34.91,70,-338,-2025,68,15,-21,620,-1043,1663,211
,878,2023-10-20 13:14:34.92,66,-341,-2030,66,23,-22,704,-1159,1863,227
,879,2023-10-20 13:14:34.93,53,-345,-2029,62,33,-21,580,-1044,1624,232
,880,2023-10-20 13:14:34.94,55,-340,-2035,57,42,-21,706,-1159,1865,226
,881,2023-10-20 13:14:34.95,59,-341,-2028,56,47,-25,589,-1043,1632,227
,882,2023-10-20 13:14:34.96,49,-335,-2021,54,50,-29,730,-1162,1892,216
,883,2023-10-20 13:14:34.97,49,-334,-2022,54,53,-36,584,-1044,1628,230
,884,2023-10-20 13:14:34.98,53,-319,-2014,50,59,-52,712,-1163,1875,225
,885,2023-10-20 13:14:34.99,57,-305,-1996,43,58,-78,565,-1038,1603,236
,886,2023-10-20 13:14:35.00,60,-286,-1993,36,54,-109,687,-1142,1829,227
,887,2023-10-20 13:14:35.01,75,-269,-2008,31,48,-155,543,-1020,1563,238
,888,2023-10-20 13:14:35.02,59,-255,-2032,17,38,-210,676,-1158,1834,241
,889,2023-10-20 13:14:35.03,65,-241,-2043,-5,13,-275,529,-1043,1572,257
,890,2023-10-20 13:14:35.04,57,-236,-2038,-36,2,-345,667,-1170,1837,251
,891,2023-10-20 13:14:35.05,78,-213,-2050,-70,-10,-428,540,-1043,1583,251
,892,2023-10-20 13:14:35.06,67,-206,-2068,-124,-20,-516,756,-1166,1922,205
,893,2023-10-20 13:14:35.07,79,-184,-2065,-193,0,-613,593,-1032,1625,219
,894,2023-10-20 13:14:35.08,98,-177,-2043,-261,9,-717,764,-1133,1897,184
,895,2023-10-20 13:14:35.09,97,-178,-2051,-322,14,-824,584,-1008,1592,212
,896,2023-10-20 13:14:35.10,102,-184,-2054,-374,12,-929,772,-1156,1928,192
,897,2023-10-20 13:14:35.11,121,-211,-2047,-411,-2,-1028,580,-1035,1615,227
,898,2023-10-20 13:14:35.12,117,-229,-2056,-437,-31,-1113,768,-1142,1910,187
,899,2023-10-20 13:14:35.13,131,-237,-2082,-459,-51,-1189,570,-1006,1576,218
,900,2023-10-20 13:14:35.14,124,-234,-2101,-480,-82,-1244,749,-1131,1880,191
,901,2023-10-20 13:14:35.15,131,-248,-2099,-521,-92,-1283,567,-1005,1572,219
,902,2023-10-20 13:14:35.16,154,-257,-2084,-551,-112,-1309,765,-1121,1886,178
,903,2023-10-20 13:14:35.17,161,-283,-2088,-572,-128,-1318,570,-998,1568,214
,904,2023-10-20 13:14:35.18,148,-329,-2072,-577,-122,-1312,776,-1132,1908,178
,905,2023-10-20 13:14:35.19,160,-330,-2125,-572,-126,-1289,562,-1007,1569,222
,906,2023-10-20 13:14:35.20,132,-364,-2087,-583,-102,-1251,747,-1120,1867,186
,907,2023-10-20 13:14:35.21,123,-389,-2065,-565,-127,-1200,535,-989,1524,227
,908,2023-10-20 13:14:35.22,107,-380,-2072,-534,-162,-1141,724,-1115,1839,195
,909,2023-10-20 13:14:35.23,106,-345,-2065,-514,-195,-1078,534,-1010,1544,238
,910,2023-10-20 13:14:35.24,115,-309,-2061,-512,-218,-1014,738,-1168,1906,215
,911,2023-10-20 13:14:35.25,108,-279,-2058,-532,-190,-956,548,-1046,1594,249
,912,2023-10-20 13:14:35.26,100,-251,-2049,-557,-166,-902,772,-1173,1945,200
,913,2023-10-20 13:14:35.27,85,-251,-2035,-565,-173,-851,527,-1034,1561,253
,914,2023-10-20 13:14:35.28,72,-263,-1999,-562,-148,-794,713,-1147,1860,217
,915,2023-10-20 13:14:35.29,74,-246,-2018,-536,-188,-730,502,-1025,1527,261
,916,2023-10-20 13:14:35.30,53,-231,-2011,-524,-169,-670,724,-1165,1889,220
,917,2023-10-20 13:14:35.31,59,-191,-2037,-503,-192,-606,511,-1045,1556,267
,918,2023-10-20 13:14:35.32,19,-152,-2055,-508,-178,-546,739,-1166,1905,213
,919,2023-10-20 13:14:35.33,33,-121,-2063,-518,-185,-489,517,-1028,1545,255
,920,2023-10-20 13:14:35.34,-2,-110,-2042,-528,-152,-440,749,-1125,1874,188
,921,2023-10-20 13:14:35.35,13,-78,-2041,-504,-160,-396,535,-1001,1536,233
,922,2023-10-20 13:14:35.36,11,-28,-2030,-466,-176,-360,771,-1124,1895,176
,923,2023-10-20 13:14:35.37,15,-1,-2016,-420,-166,-329,556,-1015,1571,229
,924,2023-10-20 13:14:35.38,-5,25,-2024,-378,-147,-304,789,-1133,1922,172
,925,2023-10-20 13:14:35.39,19,57,-2039,-324,-104,-264,559,-1021,1580,231
,926,2023-10-20 13:14:35.40,5,67,-2050,-308,-81,-244,789,-1143,1932,177
,927,2023-10-20 13:14:35.41,12,48,-2034,-299,-62,-223,553,-1025,1578,236
,928,2023-10-20 13:14:35.42,14,60,-2046,-276,-37,-199,773,-1129,1902,178
,929,2023-10-20 13:14:35.43,8,61,-2049,-260,5,-177,561,-1008,1569,223
,930,2023-10-20 13:14:35.44,28,66,-2034,-250,27,-155,830,-1126,1956,148
,931,2023-10-20 13:14:35.45,44,83,-2042,-228,48,-133,603,-1052,1655,224
,932,2023-10-20 13:14:35.46,34,95,-2051,-219,76,-117,906,-1245,2151,169
,933,2023-10-20 13:14:35.47,38,84,-2042,-219,99,-102,682,-1198,1880,258
,934,2023-10-20 13:14:35.48,21,101,-2059,-210,113,-88,912,-1317,2229,202
,935,2023-10-20 13:14:35.49,34,135,-2040,-204,123,-79,623,-1198,1821,287
,936,2023-10-20 13:14:35.50,39,160,-2054,-199,124,-79,849,-1277,2126,214
,937,2023-10-20 13:14:35.51,38,191,-2070,-207,125,-83,680,-1180,1860,250
,938,2023-10-20 13:14:35.52,52,183,-2072,-219,115,-87,964,-1301,2265,168
,939,2023-10-20 13:14:35.53,44,199,-2058,-210,97,-95,695,-1214,1909,259
,940,2023-10-20 13:14:35.54,45,239,-2038,-211,82,-107,910,-1316,2226,203
,941,2023-10-20 13:14:35.55,60,243,-2032,-209,70,-118,644,-1218,1862,287
,942,2023-10-20 13:14:35.56,50,254,-2018,-213,64,-131,876,-1307,2183,215
,943,2023-10-20 13:14:35.57,50,265,-2037,-212,51,-138,630,-1209,1839,289
,944,2023-10-20 13:14:35.58,57,275,-2046,-217,42,-139,859,-1292,2151,216
,945,2023-10-20 13:14:35.59,73,285,-2042,-237,64,-140,609,-1195,1804,293
,946,2023-10-20 13:14:35.60,70,252,-2036,-249,86,-138,842,-1217,2059,187
,947,2023-10-20 13:14:35.61,91,246,-2043,-235,88,-129,602,-1100,1702,249
,948,2023-10-20 13:14:35.62,94,246,-2055,-199,90,-118,860,-1049,1909,94
,949,2023-10-20 13:14:35.63,117,247,-2048,-168,106,-107,624,-946,1570,161
,950,2023-10-20 13:14:35.64,110,245,-2053,-146,127,-97,865,-862,1727,-1
,951,2023-10-20 13:14:35.65,126,220,-2059,-116,126,-85,614,-795,1409,90
,952,2023-10-20 13:14:35.66,133,209,-2056,-71,115,-68,863,-692,1555,-85
,953,2023-10-20 13:14:35.67,135,216,-2050,-35,117,-51,634,-651,1285,8
,954,2023-10-20 13:14:35.68,134,214,-2055,-11,118,-30,865,-544,1409,-160
,955,2023-10-20 13:14:35.69,145,200,-2067,5,116,-12,624,-542,1166,-41
,956,2023-10-20 13:14:35.70,152,200,-2079,21,104,9,846,-432,1278,-207
,957,2023-10-20 13:14:35.71,156,193,-2080,32,97,24,611,-457,1068,-77
,958,2023-10-20 13:14:35.72,154,191,-2080,38,98,37,840,-329,1169,-255
,959,2023-10-20 13:14:35.73,153,191,-2085,50,80,48,613,-373,986,-120
,960,2023-10-20 13:14:35.74,152,173,-2073,66,68,57,834,-244,1078,-295
,961,2023-10-20 13:14:35.75,146,141,-2080,82,55,75,613,-309,922,-152
,962,2023-10-20 13:14:35.76,142,138,-2081,101,37,95,827,-176,1003,-325
,963,2023-10-20 13:14:35.77,135,127,-2069,113,27,120,607,-255,862,-176
,964,2023-10-20 13:14:35.78,141,134,-2071,116,25,144,814,-113,927,-350
,965,2023-10-20 13:14:35.79,129,127,-2081,107,25,174,601,-214,815,-193
,966,2023-10-20 13:14:35.80,125,116,-2065,99,26,204,801,-72,873,-364
,967,2023-10-20 13:14:35.81,125,88,-2064,97,24,241,599,-180,779,-209
,968,2023-10-20 13:14:35.82,113,78,-2055,110,20,286,800,-28,828,-386
,969,2023-10-20 13:14:35.83,100,56,-2044,127,11,338,594,-148,742,-223
,970,2023-10-20 13:14:35.84,101,55,-2055,146,9,399,785,1,784,-393
,971,2023-10-20 13:14:35.85,102,55,-2034,159,2,462,568,-139,707,-214
,972,2023-10-20 13:14:35.86,88,40,-2022,168,23,532,720,-5,725,-357
,973,2023-10-20 13:14:35.87,88,35,-2049,179,31,611,493,-151,644,-171
,974,2023-10-20 13:14:35.88,70,34,-2054,194,41,687,628,-21,649,-303
,975,2023-10-20 13:14:35.89,88,64,-2056,211,41,762,446,-158,604,-144
,976,2023-10-20 13:14:35.90,83,74,-2018,236,41,823,610,-5,615,-302
,977,2023-10-20 13:14:35.91,104,115,-2039,272,51,865,459,-135,594,-162
,978,2023-10-20 13:14:35.92,104,155,-2054,308,43,893,625,29,596,-327
,979,2023-10-20 13:14:35.93,109,196,-2064,335,59,908,488,-102,590,-193
,980,2023-10-20 13:14:35.94,121,230,-2079,348,69,906,659,68,591,-363
,981,2023-10-20 13:14:35.95,121,243,-2094,345,81,894,529,-66,595,-231
,982,2023-10-20 13:14:35.96,132,239,-2111,346,71,877,691,104,587,-397
,983,2023-10-20 13:14:35.97,132,241,-2123,341,67,856,556,-41,597,-257
,984,2023-10-20 13:14:35.98,124,244,-2120,328,59,834,711,131,580,-421
,985,2023-10-20 13:14:35.99,154,284,-2121,309,50,801,587,-22,609,-282
,986,2023-10-20 13:14:36.00,179,283,-2100,294,28,758,739,143,596,-441
,987,2023-10-20 13:14:36.01,186,274,-2085,289,16,707,617,-9,626,-304
,988,2023-10-20 13:14:36.02,175,272,-2074,289,-1,653,748,155,593,-451
,989,2023-10-20 13:14:36.03,190,268,-2094,280,-12,599,641,8,633,-324
,990,2023-10-20 13:14:36.04,194,237,-2094,258,-15,554,762,167,595,-464
,991,2023-10-20 13:14:36.05,181,171,-2087,260,-23,522,652,20,632,-336
,992,2023-10-20 13:14:36.06,195,132,-2106,303,-77,507,746,170,576,-458
,993,2023-10-20 13:14:36.07,177,104,-2100,355,-113,510,657,26,631,-341
,994,2023-10-20 13:14:36.08,176,78,-2091,403,-138,516,752,180,572,-466
,995,2023-10-20 13:14:36.09,187,52,-2065,436,-134,520,666,28,638,-347
,996,2023-10-20 13:14:36.10,192,4,-2060,466,-114,528,753,175,578,-464
,997,2023-10-20 13:14:36.11,201,-34,-2060,495,-80,532,664,27,637,-345
,998,2023-10-20 13:14:36.12,189,-96,-2029,524,-45,537,731,169,562,-450
,999,2023-10-20 13:14:36.13,175,-146,-2027,563,-30,542,657,20,637,-338
,1000,2023-10-20 13:14:36.14,166,-190,-2028,604,-22,549,726,163,563,-444
,1001,2023-10-20 13:14:36.15,172,-216,-2022,626,0,552,660,17,643,-338
,1002,2023-10-20 13:14:36.16,140,-243,-2037,621,25,552,719,156,563,-437
,1003,2023-10-20 13:14:36.17,123,-274,-2033,608,27,546,648,8,640,-328
,1004,2023-10-20 13:14:36.18,92,-292,-2030,595,23,548,690,139,551,-414
,1005,2023-10-20 13:14:36.19,65,-297,-2032,583,-1,546,634,-9,643,-312
,1006,2023-10-20 13:14:36.20,60,-288,-2029,554,-24,539,674,123,551,-398
,1007,2023-10-20 13:14:36.21,52,-275,-2029,515,-52,528,636,-14,650,-311
,1008,2023-10-20 13:14:36.22,48,-262,-2029,455,-52,516,670,116,554,-393
,1009,2023-10-20 13:14:36.23,41,-244,-2024,395,-74,500,634,-11,645,-311
,1010,2023-10-20 13:14:36.24,28,-247,-2019,336,-95,481,659,121,538,-390
,1011,2023-10-20 13:14:36.25,23,-223,-2032,285,-109,462,643,-2,645,-320
,1012,2023-10-20 13:14:36.26,40,-213,-2019,228,-111,439,661,125,536,-393
,1013,2023-10-20 13:14:36.27,30,-223,-2017,176,-92,412,654,7,647,-330
,1014,2023-10-20 13:14:36.28,30,-210,-2046,130,-75,387,660,129,531,-394
,1015,2023-10-20 13:14:36.29,32,-211,-2054,91,-60,366,663,14,649,-338
,1016,2023-10-20 13:14:36.30,41,-220,-2059,61,-44,347,660,134,526,-397
,1017,2023-10-20 13:14:36.31,46,-207,-2058,44,-40,330,670,23,647,-346
,1018,2023-10-20 13:14:36.32,51,-200,-2059,35,-50,313,656,139,517,-397
,1019,2023-10-20 13:14:36.33,52,-198,-2047,30,-58,300,675,28,647,-351
,1020,2023-10-20 13:14:36.34,52,-195,-2045,27,-54,289,650,134,516,-392
,1021,2023-10-20 13:14:36.35,59,-179,-2042,22,-46,275,682,31,651,-356
,1022,2023-10-20 13:14:36.36,62,-177,-2037,17,-39,261,640,128,512,-384
,1023,2023-10-20 13:14:36.37,56,-180,-2032,12,-22,248,676,25,651,-350
,1024,2023-10-20 13:14:36.38,67,-178,-2027,3,2,237,630,120,510,-375
,1025,2023-10-20 13:14:36.39,67,-180,-2027,-11,31,230,689,33,656,-361
,1026,2023-10-20 13:14:36.40,75,-180,-2025,-22,52,218,634,131,503,-382
,1027,2023-10-20 13:14:36.41,68,-179,-2035,-26,76,212,693,52,641,-372
,1028,2023-10-20 13:14:36.42,72,-184,-2026,-28,82,207,625,136,489,-380
,1029,2023-10-20 13:14:36.43,67,-180,-2026,-31,87,204,700,59,641,-379
,1030,2023-10-20 13:14:36.44,94,-194,-2040,-16,82,201,639,143,496,-391
,1031,2023-10-20 13:14:36.45,94,-199,-2034,-2,84,199,718,66,652,-392
,1032,2023-10-20 13:14:36.46,114,-197,-2044,11,81,196,634,139,495,-386
,1033,2023-10-20 13:14:36.47,106,-200,-2045,22,76,194,711,61,650,-386
,1034,2023-10-20 13:14:36.48,113,-204,-2041,35,68,192,631,134,497,-382
,1035,2023-10-20 13:14:36.49,124,-196,-2054,60,44,190,726,67,659,-396
,1036,2023-10-20 13:14:36.50,124,-193,-2049,69,39,182,624,129,495,-376
,1037,2023-10-20 13:14:36.51,125,-185,-2058,77,31,177,738,72,666,-405
,1038,2023-10-20 13:14:36.52,118,-182,-2071,75,14,172,625,128,497,-376
,1039,2023-10-20 13:14:36.53,122,-187,-2072,67,12,165,742,78,664,-410
,1040,2023-10-20 13:14:36.54,127,-186,-2073,52,25,158,622,128,494,-375
,1041,2023-10-20 13:14:36.55,112,-213,-2060,47,9,153,744,84,660,-414
,1042,2023-10-20 13:14:36.56,116,-223,-2059,53,-5,150,617,123,494,-370
,1043,2023-10-20 13:14:36.57,100,-218,-2061,63,-6,148,755,86,669,-420
,1044,2023-10-20 13:14:36.58,109,-213,-2042,68,-22,145,614,119,495,-366
,1045,2023-10-20 13:14:36.59,98,-209,-2047,61,-15,138,747,84,663,-415
,1046,2023-10-20 13:14:36.60,102,-201,-2065,49,-6,132,600,109,491,-354
,1047,2023-10-20 13:14:36.61,99,-213,-2048,42,-10,120,739,76,663,-407
,1048,2023-10-20 13:14:36.62,80,-212,-2063,41,-24,113,591,93,498,-342
,1049,2023-10-20 13:14:36.63,84,-209,-2061,40,-26,102,741,71,670,-406
,1050,2023-10-20 13:14:36.64,79,-211,-2059,29,-28,91,582,90,492,-336
,1051,2023-10-20 13:14:36.65,68,-224,-2050,26,-37,83,738,75,663,-406
,1052,2023-10-20 13:14:36.66,77,-235,-2052,28,-44,77,576,85,491,-330
,1053,2023-10-20 13:14:36.67,80,-245,-2039,37,-43,72,744,80,664,-412
,1054,2023-10-20 13:14:36.68,66,-254,-2036,44,-40,66,576,84,492,-330
,1055,2023-10-20 13:14:36.69,58,-253,-2029,53,-41,66,756,84,672,-420
,1056,2023-10-20 13:14:36.70,71,-258,-2026,62,-38,66,580,85,495,-332
,1057,2023-10-20 13:14:36.71,56,-251,-2032,66,-30,62,754,91,663,-422
,1058,2023-10-20 13:14:36.72,53,-252,-2046,68,-36,62,572,80,492,-326
,1059,2023-10-20 13:14:36.73,50,-239,-2040,67,-35,58,759,94,665,-426
,1060,2023-10-20 13:14:36.74,39,-241,-2039,59,-42,58,570,76,494,-323
,1061,2023-10-20 13:14:36.75,34,-242,-2047,50,-45,54,764,97,667,-430
,1062,2023-10-20 13:14:36.76,27,-242,-2045,38,-44,54,572,78,494,-325
,1063,2023-10-20 13:14:36.77,38,-235,-2045,28,-43,50,772,107,665,-439
,1064,2023-10-20 13:14:36.78,57,-235,-2042,15,-35,50,573,76,497,-324
,1065,2023-10-20 13:14:36.79,51,-225,-2047,-1,-19,50,773,108,665,-440
,1066,2023-10-20 13:14:36.80,47,-222,-2037,-15,-4,48,569,70,499,-319
,1067,2023-10-20 13:14:36.81,52,-217,-2043,-31,16,46,778,111,667,-444
,1068,2023-10-20 13:14:36.82,50,-209,-2045,-45,28,42,575,74,501,-324
,1069,2023-10-20 13:14:36.83,65,-213,-2044,-51,34,39,789,125,664,-457
,1070,2023-10-20 13:14:36.84,68,-224,-2046,-56,47,38,572,72,500,-322
,1071,2023-10-20 13:14:36.85,60,-213,-2053,-52,41,38,802,135,667,-468
,1072,2023-10-20 13:14:36.86,70,-208,-2060,-45,37,39,570,70,500,-320
,1073,2023-10-20 13:14:36.87,67,-212,-2055,-30,33,38,791,133,658,-462
,1074,2023-10-20 13:14:36.88,63,-215,-2054,-17,26,34,553,58,495,-305
,1075,2023-10-20 13:14:36.89,72,-206,-2053,-3,18,28,787,135,652,-461
,1076,2023-10-20 13:14:36.90,82,-225,-2042,16,7,27,562,65,497,-313
,1077,2023-10-20 13:14:36.91,72,-231,-2041,28,3,29,779,133,646,-456
,1078,2023-10-20 13:14:36.92,72,-233,-2044,39,2,31,553,54,499,-303
,1079,2023-10-20 13:14:36.93,75,-237,-2045,43,-6,31,785,130,655,-457
,1080,2023-10-20 13:14:36.94,73,-231,-2046,47,-6,35,552,49,503,-300
,1081,2023-10-20 13:14:36.95,75,-234,-2039,45,0,37,784,136,648,-460
,1082,2023-10-20 13:14:36.96,83,-232,-2035,41,9,34,548,46,502,-297
,1083,2023-10-20 13:14:36.97,75,-233,-2036,30,22,32,780,134,646,-457
,1084,2023-10-20 13:14:36.98,83,-226,-2045,23,29,29,544,40,504,-292
,1085,2023-10-20 13:14:36.99,94,-228,-2044,15,34,25,780,132,648,-456
,1086,2023-10-20 13:14:37.00,83,-232,-2043,10,38,19,548,39,509,-293
,1087,2023-10-20 13:14:37.01,84,-225,-2054,3,37,16,787,144,643,-465
,1088,2023-10-20 13:14:37.02,88,-230,-2053,1,33,10,551,40,511,-295
,1089,2023-10-20 13:14:37.03,95,-234,-2056,5,30,11,786,144,642,-465
,1090,2023-10-20 13:14:37.04,88,-239,-2056,6,28,6,554,37,517,-295
,1091,2023-10-20 13:14:37.05,87,-232,-2057,5,21,5,788,149,639,-468
,1092,2023-10-20 13:14:37.06,96,-234,-2052,1,17,8,552,35,517,-293
,1093,2023-10-20 13:14:37.07,83,-238,-2061,1,13,10,788,151,637,-469
,1094,2023-10-20 13:14:37.08,71,-227,-2051,-2,7,13,564,43,521,-303
,1095,2023-10-20 13:14:37.09,78,-231,-2043,1,4,17,810,178,632,-494
,1096,2023-10-20 13:14:37.10,80,-228,-2043,1,2,17,572,55,517,-313
,1097,2023-10-20 13:14:37.11,84,-222,-2043,3,2,23,799,174,625,-486
,1098,2023-10-20 13:14:37.12,74,-224,-2040,11,5,25,558,36,522,-297
,1099,2023-10-20 13:14:37.13,78,-220,-2046,15,8,23,783,152,631,-467
,1100,2023-10-20 13:14:37.14,79,-208,-2051,19,10,21,544,19,525,-281
,1101,2023-10-20 13:14:37.15,78,-212,-2047,15,8,19,765,142,623,-453
,1102,2023-10-20 13:14:37.16,84,-225,-2055,12,8,16,535,8,527,-271
,1103,2023-10-20 13:14:37.17,68,-221,-2055,11,6,16,764,139,625,-451
,1104,2023-10-20 13:14:37.18,75,-220,-2055,9,1,13,534,3,531,-268
,1105,2023-10-20 13:14:37.19,71,-217,-2071,-1,-5,13,758,137,621,-447
,1106,2023-10-20 13:14:37.20,72,-230,-2071,-8,-10,11,531,-4,535,-263
,1107,2023-10-20 13:14:37.21,79,-234,-2058,-12,-9,10,759,141,618,-450
,1108,2023-10-20 13:14:37.22,71,-224,-2058,-15,-7,8,540,0,540,-270
,1109,2023-10-20 13:14:37.23,66,-228,-2064,-17,-3,7,760,145,615,-452
,1110,2023-10-20 13:14:37.24,72,-231,-2050,-14,2,6,550,0,550,-275
,1111,2023-10-20 13:14:37.25,73,-230,-2057,-17,6,4,772,153,619,-462
,1112,2023-10-20 13:14:37.26,67,-232,-2055,-15,3,4,569,18,551,-293
,1113,2023-10-20 13:14:37.27,77,-234,-2047,-11,6,3,771,161,610,-466
,1114,2023-10-20 13:14:37.28,76,-230,-2039,-12,10,5,555,5,550,-280
,1115,2023-10-20 13:14:37.29,68,-230,-2046,-13,14,2,751,149,602,-450
,1116,2023-10-20 13:14:37.30,56,-229,-2044,-11,14,3,558,5,553,-281
,1117,2023-10-20 13:14:37.31,64,-229,-2035,-6,19,3,762,160,602,-461
,1118,2023-10-20 13:14:37.32,63,-220,-2030,-2,27,1,558,-2,560,-278
,1119,2023-10-20 13:14:37.33,72,-221,-2032,2,28,-1,756,156,600,-456
,1120,2023-10-20 13:14:37.34,67,-218,-2026,8,34,1,555,-8,563,-273
,1121,2023-10-20 13:14:37.35,68,-216,-2043,11,40,-4,742,144,598,-443
,1122,2023-10-20 13:14:37.36,63,-215,-2045,11,47,-7,556,-13,569,-271
,1123,2023-10-20 13:14:37.37,63,-225,-2056,12,50,-7,737,142,595,-439
,1124,2023-10-20 13:14:37.38,61,-218,-2060,12,49,-7,553,-17,570,-268
,1125,2023-10-20 13:14:37.39,77,-214,-2049,11,50,-10,736,141,595,-438
,1126,2023-10-20 13:14:37.40,73,-218,-2049,8,51,-13,562,-15,577,-273
,1127,2023-10-20 13:14:37.41,96,-212,-2058,4,47,-11,732,144,588,-438
,1128,2023-10-20 13:14:37.42,94,-206,-2038,-3,41,-10,558,-22,580,-268
,1129,2023-10-20 13:14:37.43,94,-206,-2030,-11,38,-10,731,141,590,-436
,1130,2023-10-20 13:14:37.44,85,-205,-2031,-13,35,-14,564,-17,581,-273
,1131,2023-10-20 13:14:37.45,101,-205,-2041,-15,29,-15,720,143,577,-431
,1132,2023-10-20 13:14:37.46,100,-207,-2046,-21,34,-15,560,-22,582,-269
,1133,2023-10-20 13:14:37.47,95,-208,-2051,-28,38,-20,702,130,572,-416
,1134,2023-10-20 13:14:37.48,101,-217,-2071,-29,24,-13,553,-33,586,-260
,1135,2023-10-20 13:14:37.49,95,-223,-2059,-23,20,-11,688,122,566,-405
,1136,2023-10-20 13:14:37.50,99,-214,-2058,-19,18,-5,544,-41,585,-251
,1137,2023-10-20 13:14:37.51,103,-207,-2055,-13,16,-2,683,120,563,-401
,1138,2023-10-20 13:14:37.52,111,-218,-2052,-3,15,0,556,-35,591,-260
,1139,2023-10-20 13:14:37.53,106,-212,-2049,6,14,1,692,128,564,-410
,1140,2023-10-20 13:14:37.54,103,-210,-2042,15,13,1,574,-26,600,-274
,1141,2023-10-20 13:14:37.55,109,-206,-2047,22,15,-1,704,147,557,-425
,1142,2023-10-20 13:14:37.56,99,-207,-2051,25,20,-2,592,-5,597,-293
,1143,2023-10-20 13:14:37.57,93,-213,-2045,30,18,-3,712,158,554,-435
,1144,2023-10-20 13:14:37.58,108,-217,-2052,29,17,-2,615,11,604,-313
,1145,2023-10-20 13:14:37.59,101,-217,-2050,27,14,-2,719,173,546,-446
,1146,2023-10-20 13:14:37.60,104,-221,-2054,24,10,-1,630,26,604,-328
,1147,2023-10-20 13:14:37.61,96,-222,-2044,28,3,-2,735,188,547,-461
,1148,2023-10-20 13:14:37.62,109,-218,-2040,27,2,1,662,54,608,-358
,1149,2023-10-20 13:14:37.63,98,-222,-2038,23,5,-2,744,212,532,-478
,1150,2023-10-20 13:14:37.64,116,-223,-2055,17,5,-1,668,65,603,-366
,1151,2023-10-20 13:14:37.65,108,-222,-2052,18,8,-2,745,216,529,-480
,1152,2023-10-20 13:14:37.66,90,-221,-2055,15,6,-2,586,-253,839,-166
,1153,2023-10-20 13:14:37.67,105,-221,-2053,9,3,-3,581,-748,1329,83
,1154,2023-10-20 13:14:37.68,110,-223,-2059,7,2,-2,664,-1138,1802,237
,1155,2023-10-20 13:14:37.69,102,-221,-2061,5,-2,0,716,-1169,1885,226
,1156,2023-10-20 13:14:37.70,104,-210,-2061,3,-9,2,691,-1168,1859,238
,1157,2023-10-20 13:14:37.71,99,-219,-2060,-1,-15,3,665,-1047,1712,191
,1158,2023-10-20 13:14:37.72,101,-219,-2058,-2,-22,6,636,-1074,1710,219
,1159,2023-10-20 13:14:37.73,95,-214,-2053,-4,-21,8,625,-1014,1639,194
,1160,2023-10-20 13:14:37.74,101,-214,-2039,-7,-18,8,650,-1102,1752,226
,1161,2023-10-20 13:14:37.75,92,-220,-2041,-9,-13,6,638,-1047,1685,204
,1162,2023-10-20 13:14:37.76,92,-211,-2044,-7,-12,9,672,-1116,1788,222
,1163,2023-10-20 13:14:37.77,96,-216,-2046,-5,-11,9,633,-1038,1671,202
,1164,2023-10-20 13:14:37.78,82,-218,-2043,-1,-7,13,684,-1116,1800,216
,1165,2023-10-20 13:14:37.79,87,-217,-2042,0,-7,15,636,-1039,1675,201
,1166,2023-10-20 13:14:37.80,82,-209,-2044,1,-5,19,656,-1131,1787,237
,1167,2023-10-20 13:14:37.81,85,-209,-2046,3,-4,19,610,-1051,1661,220
,1168,2023-10-20 13:14:37.82,92,-212,-2046,4,-3,20,692,-1153,1845,230
,1169,2023-10-20 13:14:37.83,89,-206,-2042,8,0,18,625,-1062,1687,218
,1170,2023-10-20 13:14:37.84,83,-207,-2045,12,1,18,659,-1134,1793,237
,1171,2023-10-20 13:14:37.85,86,-203,-2046,12,-1,15,585,-1032,1617,223
,1172,2023-10-20 13:14:37.86,83,-210,-2045,7,1,14,681,-1164,1845,241
,1173,2023-10-20 13:14:37.87,90,-209,-2054,7,0,12,706,-1184,1890,239
,1174,2023-10-20 13:14:37.88,94,-214,-2052,6,-1,9,777,-1300,2077,261
,1175,2023-10-20 13:14:37.89,84,-214,-2054,6,0,8,712,-1226,1938,257
,1176,2023-10-20 13:14:37.90,73,-210,-2054,5,-5,8,754,-1292,2046,269
,1177,2023-10-20 13:14:37.91,100,-211,-2048,7,-6,7,682,-1204,1886,261
,1178,2023-10-20 13:14:37.92,86,-214,-2061,5,-8,5,759,-1281,2040,261
,1179,2023-10-20 13:14:37.93,97,-210,-2059,5,-12,6,680,-1200,1880,260
,1180,2023-10-20 13:14:37.94,100,-214,-2046,1,-8,3,753,-1283,2036,265
,1181,2023-10-20 13:14:37.95,91,-212,-2054,-2,-4,5,668,-1189,1857,260
,1182,2023-10-20 13:14:37.96,86,-213,-2047,-4,-6,4,754,-1239,1993,242
,1183,2023-10-20 13:14:37.97,87,-210,-2054,-4,-11,5,658,-1106,1764,224
,1184,2023-10-20 13:14:37.98,85,-214,-2053,-5,-18,5,759,-1121,1880,181
,1185,2023-10-20 13:14:37.99,99,-201,-2059,-4,-18,5,653,-965,1618,156
,1186,2023-10-20 13:14:38.00,94,-213,-2037,-2,-17,3,754,-972,1726,109
,1187,2023-10-20 13:14:38.01,90,-200,-2050,-5,-14,-1,645,-815,1460,85
,1188,2023-10-20 13:14:38.02,91,-211,-2046,-6,-11,-4,757,-818,1575,30
,1189,2023-10-20 13:14:38.03,99,-209,-2039,2,-6,-7,639,-668,1307,14
,1190,2023-10-20 13:14:38.04,92,-205,-2046,6,-2,-9,767,-680,1447,-43
,1191,2023-10-20 13:14:38.05,88,-210,-2038,9,3,-10,640,-548,1188,-46
,1192,2023-10-20 13:14:38.06,85,-213,-2050,9,6,-9,761,-572,1333,-94
,1193,2023-10-20 13:14:38.07,91,-214,-2046,9,5,-6,618,-451,1069,-83
,1194,2023-10-20 13:14:38.08,88,-213,-2041,13,7,2,771,-462,1233,-154
,1195,2023-10-20 13:14:38.09,88,-208,-2048,7,7,2,620,-356,976,-132
,1196,2023-10-20 13:14:38.10,104,-212,-2050,6,12,9,773,-366,1139,-203
,1197,2023-10-20 13:14:38.11,102,-212,-2053,11,6,15,614,-278,892,-168
,1198,2023-10-20 13:14:38.12,100,-204,-2047,17,3,17,786,-271,1057,-257
,1199,2023-10-20 13:14:38.13,86,-195,-2047,17,5,13,624,-190,814,-217
,1200,2023-10-20 13:14:38.14,105,-201,-2053,14,3,11,795,-189,984,-303
,1201,2023-10-20 13:14:38.15,86,-200,-2053,19,5,10,633,-123,756,-255
,1202,2023-10-20 13:14:38.16,95,-198,-2042,22,3,8,796,-131,927,-332
,1203,2023-10-20 13:14:38.17,82,-205,-2056,22,6,7,612,-95,707,-258
,1204,2023-10-20 13:14:38.18,83,-208,-2053,22,2,5,778,-111,889,-333
,1205,2023-10-20 13:14:38.19,97,-204,-2053,26,2,8,592,-81,673,-255
,1206,2023-10-20 13:14:38.20,100,-209,-2042,24,5,10,757,-94,851,-331
,1207,2023-10-20 13:14:38.21,93,-210,-2049,21,8,10,575,-73,648,-251
,1208,2023-10-20 13:14:38.22,85,-218,-2052,18,13,11,749,-74,823,-337
,1209,2023-10-20 13:14:38.23,82,-217,-2055,19,13,10,558,-61,619,-248
,1210,2023-10-20 13:14:38.24,85,-209,-2046,19,16,13,748,-48,796,-350
,1211,2023-10-20 13:14:38.25,87,-205,-2049,15,20,11,560,-38,598,-261
,1212,2023-10-20 13:14:38.26,89,-205,-2046,10,25,6,745,-26,771,-359
,1213,2023-10-20 13:14:38.27,99,-206,-2056,10,25,4,554,-29,583,-262
,1214,2023-10-20 13:14:38.28,93,-215,-2056,8,22,1,753,-2,755,-375
,1215,2023-10-20 13:14:38.29,97,-221,-2056,13,13,-1,556,-11,567,-272
,1216,2023-10-20 13:14:38.30,81,-213,-2059,15,11,-1,756,19,737,-387
,1217,2023-10-20 13:14:38.31,87,-218,-2056,12,9,-1,556,0,556,-278
,1218,2023-10-20 13:14:38.32,92,-214,-2052,13,12,0,760,42,718,-401
,1219,2023-10-20 13:14:38.33,87,-215,-2047,13,13,3,550,10,540,-280
,1220,2023-10-20 13:14:38.34,92,-211,-2042,14,13,4,768,56,712,-412
,1221,2023-10-20 13:14:38.35,93,-208,-2040,13,13,8,556,17,539,-286
,1222,2023-10-20 13:14:38.36,80,-215,-2046,13,13,8,772,74,698,-423
,1223,2023-10-20 13:14:38.37,79,-211,-2042,11,11,11,553,25,528,-289
,1224,2023-10-20 13:14:38.38,90,-203,-2041,14,8,8,772,82,690,-427
,1225,2023-10-20 13:14:38.39,90,-210,-2049,13,13,8,554,28,526,-291
,1226,2023-10-20 13:14:38.40,92,-206,-2053,6,12,6,774,89,685,-431
,1227,2023-10-20 13:14:38.41,92,-209,-2059,6,14,1,553,25,528,-289
,1228,2023-10-20 13:14:38.42,103,-212,-2060,6,13,2,777,100,677,-438
,1229,2023-10-20 13:14:38.43,86,-210,-2051,8,11,0,552,29,523,-290
,1230,2023-10-20 13:14:38.44,89,-220,-2062,10,11,-2,777,106,671,-441
,1231,2023-10-20 13:14:38.45,95,-219,-2060,16,6,-1,553,33,520,-293
,1232,2023-10-20 13:14:38.46,85,-221,-2055,19,3,2,780,118,662,-449
,1233,2023-10-20 13:14:38.47,89,-215,-2049,21,5,4,550,36,514,-293
,1234,2023-10-20 13:14:38.48,85,-216,-2045,22,10,5,781,123,658,-452
,1235,2023-10-20 13:14:38.49,96,-220,-2037,20,16,3,564,47,517,-305
,1236,2023-10-20 13:14:38.50,114,-210,-2051,18,23,2,784,131,653,-457
,1237,2023-10-20 13:14:38.51,94,-212,-2053,15,28,2,551,36,515,-293
,1238,2023-10-20 13:14:38.52,107,-213,-2050,12,31,0,783,129,654,-456
,1239,2023-10-20 13:14:38.53,102,-218,-2063,12,29,-3,556,39,517,-297
,1240,2023-10-20 13:14:38.54,100,-223,-2062,11,25,-3,786,140,646,-463
,1241,2023-10-20 13:14:38.55,95,-227,-2059,10,21,-2,547,26,521,-286
,1242,2023-10-20 13:14:38.56,104,-220,-2053,12,21,0,788,140,648,-464
,1243,2023-10-20 13:14:38.57,90,-227,-2056,10,19,0,549,28,521,-288
,1244,2023-10-20 13:14:38.58,100,-224,-2053,10,19,6,786,143,643,-464
,1245,2023-10-20 13:14:38.59,101,-224,-2039,12,21,5,549,28,521,-288
,1246,2023-10-20 13:14:38.60,107,-216,-2037,10,22,6,783,148,635,-465
,1247,2023-10-20 13:14:38.61,107,-214,-2045,10,24,4,552,30,522,-291
,1248,2023-10-20 13:14:38.62,107,-213,-2047,8,21,3,784,154,630,-469
,1249,2023-10-20 13:14:38.63,107,-216,-2048,5,15,4,559,30,529,-294
,1250,2023-10-20 13:14:38.64,107,-214,-2045,5,7,4,789,160,629,-474
,1251,2023-10-20 13:14:38.65,110,-208,-2055,13,-14,9,553,26,527,-289
,1252,2023-10-20 13:14:38.66,101,-205,-2059,10,-9,11,777,155,622,-466
,1253,2023-10-20 13:14:38.67,106,-201,-2050,-3,12,10,556,24,532,-290
,1254,2023-10-20 13:14:38.68,97,-207,-2049,-10,7,9,780,158,622,-469
,1255,2023-10-20 13:14:38.69,111,-208,-2044,-6,9,11,553,18,535,-285
,1256,2023-10-20 13:14:38.70,100,-213,-2044,4,4,9,784,157,627,-470
,1257,2023-10-20 13:14:38.71,102,-206,-2045,10,-5,9,564,22,542,-293
,1258,2023-10-20 13:14:38.72,106,-209,-2056,15,-1,9,784,166,618,-475
,1259,2023-10-20 13:14:38.73,97,-206,-2054,12,13,9,564,22,542,-293
,1260,2023-10-20 13:14:38.74,99,-216,-2055,8,16,5,786,173,613,-479
,1261,2023-10-20 13:14:38.75,103,-217,-2056,10,8,2,573,27,546,-300
,1262,2023-10-20 13:14:38.76,105,-213,-2057,17,0,4,789,179,610,-484
,1263,2023-10-20 13:14:38.77,90,-210,-2058,20,-8,3,580,28,552,-304
,1264,2023-10-20 13:14:38.78,102,-207,-2057,18,-7,6,793,182,611,-487
,1265,2023-10-20 13:14:38.79,96,-215,-2049,17,-9,9,581,28,553,-304
,1266,2023-10-20 13:14:38.80,85,-220,-2043,21,-9,12,786,181,605,-483
,1267,2023-10-20 13:14:38.81,99,-217,-2038,20,-6,13,582,25,557,-303
,1268,2023-10-20 13:14:38.82,104,-215,-2042,21,1,15,794,189,605,-491
,1269,2023-10-20 13:14:38.83,94,-212,-2040,18,9,17,594,33,561,-313
,1270,2023-10-20 13:14:38.84,99,-213,-2048,17,9,19,788,190,598,-489
,1271,2023-10-20 13:14:38.85,98,-213,-2046,18,9,18,597,31,566,-314
,1272,2023-10-20 13:14:38.86,101,-216,-2049,19,6,18,792,192,600,-492
,1273,2023-10-20 13:14:38.87,107,-225,-2050,19,3,18,600,31,569,-315
,1274,2023-10-20 13:14:38.88,109,-214,-2052,23,-3,18,786,195,591,-490
,1275,2023-10-20 13:14:38.89,105,-218,-2042,21,-5,17,606,28,578,-317
,1276,2023-10-20 13:14:38.90,116,-218,-2052,20,-5,15,792,206,586,-499
,1277,2023-10-20 13:14:38.91,106,-216,-2052,16,-5,13,611,34,577,-322
,1278,2023-10-20 13:14:38.92,109,-215,-2055,14,-4,12,786,201,585,-493
,1279,2023-10-20 13:14:38.93,97,-211,-2050,15,-2,7,612,32,580,-322
,1280,2023-10-20 13:14:38.94,92,-213,-2050,10,2,1,776,200,576,-488
,1281,2023-10-20 13:14:38.95,96,-212,-2049,7,1,-4,612,32,580,-322
,1282,2023-10-20 13:14:38.96,106,-210,-2050,3,2,-7,768,190,578,-479
,1283,2023-10-20 13:14:38.97,95,-209,-2051,4,5,-10,620,34,586,-327
,1284,2023-10-20 13:14:38.98,91,-210,-2047,0,6,-15,768,196,572,-482
,1285,2023-10-20 13:14:38.99,92,-211,-2051,-2,7,-17,622,31,591,-326
,1286,2023-10-20 13:14:39.00,93,-214,-2047,-3,5,-22,766,196,570,-481
,1287,2023-10-20 13:14:39.01,99,-219,-2042,-1,6,-21,634,33,601,-333
,1288,2023-10-20 13:14:39.02,100,-213,-2042,-2,8,-21,766,200,566,-483
,1289,2023-10-20 13:14:39.03,105,-207,-2043,2,10,-21,635,39,596,-337
,1290,2023-10-20 13:14:39.04,93,-209,-2046,4,10,-19,757,197,560,-477
,1291,2023-10-20 13:14:39.05,97,-210,-2052,6,12,-18,631,32,599,-331
,1292,2023-10-20 13:14:39.06,107,-217,-2053,6,13,-16,752,191,561,-471
,1293,2023-10-20 13:14:39.07,102,-216,-2054,6,12,-13,639,36,603,-337
,1294,2023-10-20 13:14:39.08,96,-212,-2054,9,11,-11,745,192,553,-468
,1295,2023-10-20 13:14:39.09,100,-217,-2050,8,9,-7,648,35,613,-341
,1296,2023-10-20 13:14:39.10,113,-217,-2055,9,8,-3,747,196,551,-471
,1297,2023-10-20 13:14:39.11,113,-210,-2046,8,9,-3,651,40,611,-345
,1298,2023-10-20 13:14:39.12,98,-217,-2044,9,11,0,740,193,547,-466
,1299,2023-10-20 13:14:39.13,106,-216,-2048,9,15,0,658,40,618,-349
,1300,2023-10-20 13:14:39.14,99,-212,-2045,11,18,-1,736,194,542,-465
,1301,2023-10-20 13:14:39.15,105,-203,-2048,12,20,-2,663,46,617,-354
,1302,2023-10-20 13:14:39.16,107,-206,-2046,12,21,-7,733,193,540,-463
,1303,2023-10-20 13:14:39.17,120,-209,-2054,19,24,-7,668,44,624,-356
,1304,2023-10-20 13:14:39.18,107,-216,-2054,19,18,-8,728,193,535,-460
,1305,2023-10-20 13:14:39.19,105,-214,-2055,23,19,-7,671,46,625,-358
,1306,2023-10-20 13:14:39.20,100,-211,-2055,24,8,-7,720,186,534,-453
,1307,2023-10-20 13:14:39.21,107,-211,-2052,23,4,-6,677,51,626,-364
,1308,2023-10-20 13:14:39.22,115,-215,-2050,18,5,-6,719,190,529,-454
,1309,2023-10-20 13:14:39.23,107,-216,-2066,13,8,-4,676,50,626,-363
,1310,2023-10-20 13:14:39.24,100,-215,-2055,12,7,0,711,181,530,-446
,1311,2023-10-20 13:14:39.25,100,-211,-2058,9,10,2,682,51,631,-366
,1312,2023-10-20 13:14:39.26,110,-217,-2049,9,8,4,701,181,520,-441
,1313,2023-10-20 13:14:39.27,105,-216,-2043,9,7,8,687,48,639,-367
,1314,2023-10-20 13:14:39.28,109,-214,-2047,11,7,9,701,174,527,-437
,1315,2023-10-20 13:14:39.29,108,-211,-2044,12,8,10,688,49,639,-368
,1316,2023-10-20 13:14:39.30,102,-210,-2041,14,8,12,688,168,520,-428
,1317,2023-10-20 13:14:39.31,106,-215,-2047,15,8,14,700,57,643,-378
,1318,2023-10-20 13:14:39.32,98,-209,-2049,14,7,14,686,170,516,-428
,1319,2023-10-20 13:14:39.33,104,-213,-2045,15,6,15,694,54,640,-374
,1320,2023-10-20 13:14:39.34,103,-216,-2049,13,9,15,676,158,518,-417
,1321,2023-10-20 13:14:39.35,109,-216,-2059,17,4,17,700,52,648,-376
,1322,2023-10-20 13:14:39.36,109,-217,-2041,17,2,17,675,162,513,-418
,1323,2023-10-20 13:14:39.37,117,-211,-2050,20,3,17,697,53,644,-375
,1324,2023-10-20 13:14:39.38,116,-206,-2040,21,5,13,672,164,508,-418
,1325,2023-10-20 13:14:39.39,105,-204,-2042,24,8,10,722,71,651,-396
,1326,2023-10-20 13:14:39.40,113,-211,-2053,24,10,6,672,166,506,-419
,1327,2023-10-20 13:14:39.41,116,-212,-2051,27,5,3,717,71,646,-394
,1328,2023-10-20 13:14:39.42,100,-214,-2056,30,2,-1,660,159,501,-409
,1329,2023-10-20 13:14:39.43,109,-210,-2056,31,-1,-6,723,73,650,-398
,1330,2023-10-20 13:14:39.44,104,-219,-2047,31,2,-5,657,158,499,-407
,1331,2023-10-20 13:14:39.45,113,-221,-2043,33,-1,-8,724,73,651,-398
,1332,2023-10-20 13:14:39.46,111,-231,-2049,30,-1,-6,650,147,503,-398
,1333,2023-10-20 13:14:39.47,100,-229,-2053,27,-4,-4,726,72,654,-399
,1334,2023-10-20 13:14:39.48,108,-228,-2046,26,-5,-2,643,146,497,-394
,1335,2023-10-20 13:14:39.49,109,-221,-2048,18,-4,1,730,74,656,-402
,1336,2023-10-20 13:14:39.50,112,-234,-2050,14,0,4,645,145,500,-395
,1337,2023-10-20 13:14:39.51,116,-226,-2040,11,2,9,741,84,657,-412
,1338,2023-10-20 13:14:39.52,123,-219,-2042,9,2,12,633,140,493,-386
,1339,2023-10-20 13:14:39.53,109,-221,-2049,8,4,14,736,77,659,-406
,1340,2023-10-20 13:14:39.54,116,-223,-2049,10,4,17,632,131,501,-381
,1341,2023-10-20 13:14:39.55,109,-220,-2048,13,1,19,745,84,661,-414
,1342,2023-10-20 13:14:39.56,116,-216,-2049,16,-1,19,630,138,492,-384
,1343,2023-10-20 13:14:39.57,104,-209,-2053,16,-3,18,749,92,657,-420
,1344,2023-10-20 13:14:39.58,100,-219,-2055,18,-1,13,622,137,485,-379
,1345,2023-10-20 13:14:39.59,101,-214,-2050,17,1,15,750,92,658,-421
,1346,2023-10-20 13:14:39.60,107,-223,-2048,16,4,12,618,128,490,-373
,1347,2023-10-20 13:14:39.61,103,-217,-2046,16,7,13,766,102,664,-434
,1348,2023-10-20 13:14:39.62,109,-217,-2055,15,9,10,621,130,491,-375
,1349,2023-10-20 13:14:39.63,94,-222,-2042,17,11,9,764,102,662,-433
,1350,2023-10-20 13:14:39.64,102,-219,-2050,18,10,6,621,127,494,-374
,1351,2023-10-20 13:14:39.65,108,-221,-2043,20,7,5,774,109,665,-441
,1352,2023-10-20 13:14:39.66,105,-222,-2051,22,5,3,617,126,491,-371
,1353,2023-10-20 13:14:39.67,107,-224,-2048,22,7,4,773,110,663,-441
,1354,2023-10-20 13:14:39.68,104,-221,-2041,24,10,4,612,118,494,-365
,1355,2023-10-20 13:14:39.69,117,-222,-2036,23,14,2,781,115,666,-448
,1356,2023-10-20 13:14:39.70,111,-222,-2036,24,21,4,608,118,490,-363
,1357,2023-10-20 13:14:39.71,121,-219,-2038,22,26,4,786,125,661,-455
,1358,2023-10-20 13:14:39.72,109,-221,-2038,21,25,6,616,130,486,-373
,1359,2023-10-20 13:14:39.73,104,-220,-2044,19,24,7,791,125,666,-458
,1360,2023-10-20 13:14:39.74,120,-222,-2056,16,18,7,606,119,487,-362
,1361,2023-10-20 13:14:39.75,117,-218,-2049,14,16,7,784,119,665,-451
,1362,2023-10-20 13:14:39.76,107,-218,-2051,12,12,10,600,111,489,-355
,1363,2023-10-20 13:14:39.77,119,-213,-2049,11,8,9,788,128,660,-458
,1364,2023-10-20 13:14:39.78,105,-224,-2049,14,2,12,600,110,490,-355
,1365,2023-10-20 13:14:39.79,114,-224,-2053,15,0,12,803,134,669,-468
,1366,2023-10-20 13:14:39.80,115,-226,-2051,17,1,10,592,102,490,-347
,1367,2023-10-20 13:14:39.81,120,-222,-2054,19,2,13,790,128,662,-459
,1368,2023-10-20 13:14:39.82,103,-227,-2053,23,3,15,588,90,498,-339
,1369,2023-10-20 13:14:39.83,106,-223,-2057,24,2,14,797,132,665,-464
,1370,2023-10-20 13:14:39.84,104,-226,-2064,28,2,15,586,89,497,-337
,1371,2023-10-20 13:14:39.85,108,-232,-2062,29,1,17,801,136,665,-468
,1372,2023-10-20 13:14:39.86,111,-232,-2062,30,-1,15,589,86,503,-337
,1373,2023-10-20 13:14:39.87,117,-225,-2053,29,0,14,801,140,661,-470
,1374,2023-10-20 13:14:39.88,113,-232,-2056,29,-8,15,583,83,500,-333
,1375,2023-10-20 13:14:39.89,108,-234,-2063,29,-3,16,803,140,663,-471
,1376,2023-10-20 13:14:39.90,115,-231,-2058,31,-4,16,586,82,504,-334
,1377,2023-10-20 13:14:39.91,109,-238,-2057,29,-4,16,811,146,665,-478
,1378,2023-10-20 13:14:39.92,112,-237,-2051,20,0,18,583,83,500,-333
,1379,2023-10-20 13:14:39.93,104,-233,-2049,16,2,21,803,147,656,-475
,1380,2023-10-20 13:14:39.94,101,-234,-2037,15,5,23,577,72,505,-324
,1381,2023-10-20 13:14:39.95,99,-223,-2035,8,9,21,806,150,656,-478
,1382,2023-10-20 13:14:39.96,105,-223,-2050,6,14,18,576,70,506,-323
,1383,2023-10-20 13:14:39.97,100,-228,-2039,6,14,15,805,148,657,-476
,1384,2023-10-20 13:14:39.98,109,-224,-2044,5,14,11,577,62,515,-319
,1385,2023-10-20 13:14:39.99,104,-222,-2049,0,19,6,806,150,656,-478
,1386,2023-10-20 13:14:40.00,105,-225,-2048,-1,16,5,570,59,511,-314
,1387,2023-10-20 13:14:40.01,109,-226,-2046,1,18,1,803,145,658,-474
,1388,2023-10-20 13:14:40.02,106,-223,-2036,7,18,-2,566,54,512,-310
,1389,2023-10-20 13:14:40.03,107,-228,-2039,8,21,-4,798,151,647,-474
,1390,2023-10-20 13:14:40.04,105,-221,-2046,8,26,-7,557,47,510,-302
,1391,2023-10-20 13:14:40.05,106,-231,-2053,11,29,-8,796,145,651,-470
,1392,2023-10-20 13:14:40.06,105,-231,-2054,13,28,-9,562,44,518,-303
,1393,2023-10-20 13:14:40.07,110,-229,-2044,15,33,-8,795,151,644,-473
,1394,2023-10-20 13:14:40.08,111,-235,-2046,16,33,-8,557,42,515,-299
,1395,2023-10-20 13:14:40.09,116,-240,-2055,17,32,-6,795,151,644,-473
,1396,2023-10-20 13:14:40.10,106,-244,-2055,18,32,-6,562,39,523,-300
,1397,2023-10-20 13:14:40.11,117,-234,-2052,21,25,-7,795,154,641,-474
,1398,2023-10-20 13:14:40.12,104,-237,-2057,17,25,-6,562,35,527,-298
,1399,2023-10-20 13:14:40.13,118,-238,-2055,11,27,-7,803,165,638,-484
,1400,2023-10-20 13:14:40.14,128,-231,-2057,4,28,-7,564,36,528,-300
,1401,2023-10-20 13:14:40.15,119,-232,-2046,0,36,-7,794,158,636,-476
,1402,2023-10-20 13:14:40.16,122,-227,-2038,-2,38,-9,557,22,535,-289
,1403,2023-10-20 13:14:40.17,108,-226,-2034,-2,33,-11,797,161,636,-479
,1404,2023-10-20 13:14:40.18,118,-227,-2045,8,11,-15,565,31,534,-298
,1405,2023-10-20 13:14:40.19,124,-209,-2040,8,9,-14,798,169,629,-483
,1406,2023-10-20 13:14:40.20,138,-199,-2044,1,16,-17,565,29,536,-297
,1407,2023-10-20 13:14:40.21,132,-214,-2048,-9,19,-25,799,170,629,-484
,1408,2023-10-20 13:14:40.22,112,-209,-2061,-10,18,-24,572,30,542,-301
,1409,2023-10-20 13:14:40.23,107,-216,-2062,-3,11,-21,795,172,623,-483
,1410,2023-10-20 13:14:40.24,109,-220,-2051,0,8,-19,576,30,546,-303
,1411,2023-10-20 13:14:40.25,113,-214,-2047,3,9,-16,804,181,623,-492
,1412,2023-10-20 13:14:40.26,119,-221,-2041,6,18,-15,581,35,546,-308
,1413,2023-10-20 13:14:40.27,123,-225,-2035,12,24,-14,794,180,614,-487
,1414,2023-10-20 13:14:40.28,118,-225,-2029,21,38,-14,579,26,553,-302
,1415,2023-10-20 13:14:40.29,122,-224,-2036,30,40,-17,784,173,611,-478
,1416,2023-10-20 13:14:40.30,133,-224,-2044,44,32,-14,570,17,553,-293
,1417,2023-10-20 13:14:40.31,143,-219,-2050,46,28,-15,786,174,612,-480
,1418,2023-10-20 13:14:40.32,138,-219,-2060,37,32,-12,579,20,559,-299
,1419,2023-10-20 13:14:40.33,137,-229,-2071,32,27,-14,780,174,606,-477
,1420,2023-10-20 13:14:40.34,124,-236,-2070,32,19,-11,584,21,563,-302
,1421,2023-10-20 13:14:40.35,136,-218,-2063,29,9,-9,792,184,608,-488
,1422,2023-10-20 13:14:40.36,152,-224,-2043,21,10,-7,592,23,569,-307
,1423,2023-10-20 13:14:40.37,153,-241,-2028,12,30,-6,782,178,604,-480
,1424,2023-10-20 13:14:40.38,166,-246,-2019,14,35,-10,588,17,571,-302
,1425,2023-10-20 13:14:40.39,152,-244,-2032,27,29,-12,780,182,598,-481
,1426,2023-10-20 13:14:40.40,163,-243,-2050,34,21,-11,592,20,572,-306
,1427,2023-10-20 13:14:40.41,157,-239,-2057,33,18,-11,775,185,590,-480
,1428,2023-10-20 13:14:40.42,153,-236,-2071,30,2,-9,596,23,573,-309
,1429,2023-10-20 13:14:40.43,165,-226,-2074,22,0,-4,765,182,583,-473
,1430,2023-10-20 13:14:40.44,148,-241,-2073,8,-11,2,593,15,578,-304
,1431,2023-10-20 13:14:40.45,144,-244,-2066,2,-29,8,759,177,582,-468
,1432,2023-10-20 13:14:40.46,135,-236,-2054,1,-34,17,599,18,581,-308
,1433,2023-10-20 13:14:40.47,134,-233,-2047,1,-36,26,763,181,582,-472
,1434,2023-10-20 13:14:40.48,121,-226,-2045,-5,-28,32,608,17,591,-312
,1435,2023-10-20 13:14:40.49,119,-227,-2048,-8,-15,38,769,185,584,-477
,1436,2023-10-20 13:14:40.50,112,-228,-2041,-10,1,42,618,23,595,-320
,1437,2023-10-20 13:14:40.51,115,-222,-2034,1,-1,39,764,190,574,-477
,1438,2023-10-20 13:14:40.52,110,-213,-2035,13,0,37,617,23,594,-320
,1439,2023-10-20 13:14:40.53,112,-212,-2023,30,-3,29,756,186,570,-471
,1440,2023-10-20 13:14:40.54,112,-203,-2028,42,-5,21,633,30,603,-331
,1441,2023-10-20 13:14:40.55,126,-198,-2037,41,-3,13,752,188,564,-470
,1442,2023-10-20 13:14:40.56,122,-211,-2037,29,20,1,622,26,596,-324
,1443,2023-10-20 13:14:40.57,133,-222,-2053,31,8,-4,743,182,561,-462
,1444,2023-10-20 13:14:40.58,128,-235,-2061,41,-9,-3,621,19,602,-320
,1445,2023-10-20 13:14:40.59,137,-241,-2065,45,-7,-1,723,174,549,-448
,1446,2023-10-20 13:14:40.60,127,-234,-2051,37,-13,2,604,8,596,-306
,1447,2023-10-20 13:14:40.61,119,-241,-2052,27,2,1,716,171,545,-443
,1448,2023-10-20 13:14:40.62,128,-244,-2046,19,9,8,634,24,610,-329
,1449,2023-10-20 13:14:40.63,127,-250,-2045,21,-3,11,732,184,548,-458
,1450,2023-10-20 13:14:40.64,122,-249,-2041,26,-5,17,634,24,610,-329
,1451,2023-10-20 13:14:40.65,130,-234,-2037,30,1,19,709,166,543,-437
,1452,2023-10-20 13:14:40.66,120,-244,-2047,30,1,20,637,19,618,-328
,1453,2023-10-20 13:14:40.67,119,-237,-2047,32,4,21,730,179,551,-454
,1454,2023-10-20 13:14:40.68,115,-235,-2042,29,24,20,659,37,622,-348
,1455,2023-10-20 13:14:40.69,126,-240,-2039,25,11,19,723,184,539,-453
,1456,2023-10-20 13:14:40.70,117,-243,-2048,29,8,20,654,36,618,-345
,1457,2023-10-20 13:14:40.71,137,-236,-2051,33,14,17,714,181,533,-447
,1458,2023-10-20 13:14:40.72,136,-233,-2037,34,22,12,664,43,621,-353
,1459,2023-10-20 13:14:40.73,129,-241,-2040,30,27,10,709,182,527,-445
,1460,2023-10-20 13:14:40.74,134,-241,-2041,36,26,11,663,40,623,-351
,1461,2023-10-20 13:14:40.75,133,-247,-2046,39,21,13,703,178,525,-440
,1462,2023-10-20 13:14:40.76,136,-238,-2049,35,24,11,673,46,627,-359
,1463,2023-10-20 13:14:40.77,131,-248,-2042,27,26,17,701,180,521,-440
,1464,2023-10-20 13:14:40.78,139,-249,-2047,23,22,17,674,47,627,-360
,1465,2023-10-20 13:14:40.79,137,-244,-2050,29,16,19,700,176,524,-438
,1466,2023-10-20 13:14:40.80,143,-248,-2055,29,17,18,682,51,631,-366
,1467,2023-10-20 13:14:40.81,140,-240,-2048,36,11,20,692,177,515,-434
,1468,2023-10-20 13:14:40.82,149,-230,-2041,35,24,15,684,54,630,-369
,1469,2023-10-20 13:14:40.83,142,-241,-2043,34,25,9,682,173,509,-427
,1470,2023-10-20 13:14:40.84,144,-236,-2050,38,24,6,689,57,632,-373
,1471,2023-10-20 13:14:40.85,147,-241,-2043,46,19,4,677,171,506,-424
,1472,2023-10-20 13:14:40.86,128,-251,-2038,47,18,-1,696,55,641,-375
,1473,2023-10-20 13:14:40.87,149,-239,-2048,48,11,-4,673,168,505,-420
,1474,2023-10-20 13:14:40.88,139,-246,-2043,41,16,-6,697,59,638,-378
,1475,2023-10-20 13:14:40.89,125,-258,-2046,34,14,-6,671,168,503,-419
,1476,2023-10-20 13:14:40.90,154,-267,-2048,36,1,-6,703,62,641,-382
,1477,2023-10-20 13:14:40.91,136,-275,-2051,38,-6,1,665,164,501,-414
,1478,2023-10-20 13:14:40.92,142,-269,-2046,40,-9,8,708,66,642,-387
,1479,2023-10-20 13:14:40.93,138,-271,-2040,38,-4,18,660,164,496,-412
,1480,2023-10-20 13:14:40.94,131,-274,-2039,36,6,26,712,72,640,-392
,1481,2023-10-20 13:14:40.95,126,-272,-2040,34,13,32,659,167,492,-413
,1482,2023-10-20 13:14:40.96,122,-264,-2035,32,21,36,722,73,649,-397
,1483,2023-10-20 13:14:40.97,129,-254,-2038,30,29,35,654,157,497,-405
,1484,2023-10-20 13:14:40.98,137,-264,-2041,37,24,32,728,77,651,-402
,1485,2023-10-20 13:14:40.99,126,-253,-2047,45,7,30,643,153,490,-398
,1486,2023-10-20 13:14:41.00,137,-241,-2044,48,1,25,726,79,647,-402
,1487,2023-10-20 13:14:41.01,131,-247,-2047,37,7,20,635,144,491,-389
,1488,2023-10-20 13:14:41.02,140,-254,-2056,29,5,18,736,86,650,-411
,1489,2023-10-20 13:14:41.03,133,-262,-2052,30,-14,16,642,153,489,-397
,1490,2023-10-20 13:14:41.04,131,-258,-2042,34,-25,15,734,87,647,-410
,1491,2023-10-20 13:14:41.05,134,-255,-2033,34,-28,15,624,139,485,-381
,1492,2023-10-20 13:14:41.06,131,-256,-2041,33,-28,13,730,81,649,-405
,1493,2023-10-20 13:14:41.07,126,-264,-2049,31,-26,15,624,138,486,-381
,1494,2023-10-20 13:14:41.08,132,-249,-2043,36,-28,13,736,86,650,-411
,1495,2023-10-20 13:14:41.09,128,-256,-2051,36,-29,13,615,129,486,-372
,1496,2023-10-20 13:14:41.10,126,-254,-2045,40,-29,10,738,83,655,-410
,1497,2023-10-20 13:14:41.11,132,-257,-2042,36,-27,8,612,128,484,-370
,1498,2023-10-20 13:14:41.12,123,-259,-2048,35,-29,8,737,87,650,-412
,1499,2023-10-20 13:14:41.13,121,-256,-2040,37,-26,10,600,118,482,-359
,1500,2023-10-20 13:14:41.14,138,-263,-2044,36,-20,10,742,84,658,-413
,1501,2023-10-20 13:14:41.15,128,-265,-2041,38,-20,13,596,115,481,-355
,1502,2023-10-20 13:14:41.16,120,-275,-2046,38,-16,14,733,82,651,-407
,1503,2023-10-20 13:14:41.17,120,-271,-2042,36,-12,15,578,99,479,-338
,1504,2023-10-20 13:14:41.18,114,-268,-2035,36,-7,18,739,82,657,-410
,1505,2023-10-20 13:14:41.19,118,-267,-2035,39,-7,21,588,101,487,-344
,1506,2023-10-20 13:14:41.20,124,-264,-2034,42,-2,24,754,90,664,-422
,1507,2023-10-20 13:14:41.21,113,-264,-2042,46,8,21,590,99,491,-344
,1508,2023-10-20 13:14:41.22,123,-257,-2048,48,11,19,760,97,663,-428
,1509,2023-10-20 13:14:41.23,117,-260,-2053,52,4,15,595,103,492,-349
,1510,2023-10-20 13:14:41.24,120,-264,-2049,55,-1,14,770,107,663,-438
,1511,2023-10-20 13:14:41.25,133,-270,-2053,58,-5,11,592,104,488,-348
,1512,2023-10-20 13:14:41.26,133,-267,-2058,57,-2,9,770,110,660,-440
,1513,2023-10-20 13:14:41.27,119,-268,-2047,53,0,5,591,97,494,-344
,1514,2023-10-20 13:14:41.28,130,-276,-2042,49,-6,5,774,112,662,-443
,1515,2023-10-20 13:14:41.29,119,-278,-2049,43,-1,4,584,96,488,-340
,1516,2023-10-20 13:14:41.30,120,-275,-2045,38,-3,5,769,112,657,-440
,1517,2023-10-20 13:14:41.31,114,-285,-2037,28,4,7,573,87,486,-330
,1518,2023-10-20 13:14:41.32,121,-286,-2032,19,12,7,771,114,657,-442
,1519,2023-10-20 13:14:41.33,124,-290,-2036,17,11,9,568,81,487,-324
,1520,2023-10-20 13:14:41.34,128,-277,-2047,15,14,10,761,106,655,-433
,1521,2023-10-20 13:14:41.35,121,-276,-2039,15,18,11,557,68,489,-312
,1522,2023-10-20 13:14:41.36,119,-283,-2040,9,14,10,763,107,656,-435
,1523,2023-10-20 13:14:41.37,131,-278,-2050,15,7,8,553,64,489,-308
,1524,2023-10-20 13:14:41.38,131,-266,-2042,19,5,8,770,113,657,-441
,1525,2023-10-20 13:14:41.39,116,-269,-2051,17,-3,5,566,66,500,-316
,1526,2023-10-20 13:14:41.40,138,-270,-2048,17,-7,3,784,117,667,-450
,1527,2023-10-20 13:14:41.41,132,-270,-2041,16,-7,2,569,65,504,-317
,1528,2023-10-20 13:14:41.42,127,-270,-2039,14,-8,4,780,121,659,-450
,1529,2023-10-20 13:14:41.43,122,-276,-2048,7,6,4,567,65,502,-316
,1530,2023-10-20 13:14:41.44,126,-275,-2038,3,11,10,790,130,660,-460
,1531,2023-10-20 13:14:41.45,128,-279,-2033,3,9,13,580,68,512,-324
,1532,2023-10-20 13:14:41.46,142,-269,-2041,12,4,16,808,145,663,-476
,1533,2023-10-20 13:14:41.47,129,-269,-2035,16,10,16,578,71,507,-324
,1534,2023-10-20 13:14:41.48,130,-268,-2047,12,18,14,806,143,663,-474
,1535,2023-10-20 13:14:41.49,132,-271,-2052,10,17,17,576,67,509,-321
,1536,2023-10-20 13:14:41.50,128,-280,-2044,16,11,16,803,146,657,-474
,1537,2023-10-20 13:14:41.51,142,-271,-2042,20,12,14,572,59,513,-315
,1538,2023-10-20 13:14:41.52,142,-261,-2045,19,17,12,797,146,651,-471
,1539,2023-10-20 13:14:41.53,130,-263,-2040,17,19,11,562,54,508,-308
,1540,2023-10-20 13:14:41.54,136,-263,-2042,14,18,8,799,149,650,-474
,1541,2023-10-20 13:14:41.55,144,-273,-2051,13,17,8,561,54,507,-307
,1542,2023-10-20 13:14:41.56,148,-272,-2051,18,11,5,792,147,645,-469
,1543,2023-10-20 13:14:41.57,149,-273,-2040,21,0,5,565,49,516,-307
,1544,2023-10-20 13:14:41.58,146,-282,-2047,26,-8,4,804,158,646,-481
,1545,2023-10-20 13:14:41.59,138,-278,-2049,28,-12,7,565,50,515,-307
,1546,2023-10-20 13:14:41.60,130,-280,-2046,30,-17,12,798,158,640,-478
,1547,2023-10-20 13:14:41.61,126,-282,-2047,30,-19,15,559,45,514,-302
,1548,2023-10-20 13:14:41.62,126,-292,-2042,31,-19,20,801,161,640,-481
,1549,2023-10-20 13:14:41.63,121,-288,-2039,29,-16,23,567,49,518,-308
,1550,2023-10-20 13:14:41.64,125,-290,-2037,30,-16,27,799,167,632,-483
,1551,2023-10-20 13:14:41.65,132,-287,-2044,31,-15,28,560,42,518,-301
,1552,2023-10-20 13:14:41.66,136,-287,-2038,30,-12,29,792,164,628,-478
,1553,2023-10-20 13:14:41.67,114,-288,-2045,26,-10,28,566,41,525,-303
,1554,2023-10-20 13:14:41.68,128,-282,-2047,28,-15,28,798,168,630,-483
,1555,2023-10-20 13:14:41.69,124,-291,-2045,30,-19,30,560,34,526,-297
,1556,2023-10-20 13:14:41.70,123,-285,-2051,29,-25,29,794,162,632,-478
,1557,2023-10-20 13:14:41.71,131,-284,-2038,29,-25,31,562,30,532,-296
,1558,2023-10-20 13:14:41.72,130,-286,-2027,29,-23,30,789,163,626,-476
,1559,2023-10-20 13:14:41.73,119,-288,-2048,25,-18,29,568,27,541,-297
,1560,2023-10-20 13:14:41.74,114,-288,-2056,23,-13,25,793,169,624,-481
,1561,2023-10-20 13:14:41.75,119,-294,-2052,17,-11,28,562,26,536,-294
,1562,2023-10-20 13:14:41.76,111,-286,-2053,14,-13,24,784,164,620,-474
,1563,2023-10-20 13:14:41.77,112,-288,-2037,12,-11,20,560,26,534,-293
,1564,2023-10-20 13:14:41.78,111,-279,-2035,5,-5,18,784,170,614,-477
,1565,2023-10-20 13:14:41.79,116,-281,-2045,4,-5,15,564,21,543,-292
,1566,2023-10-20 13:14:41.80,110,-287,-2051,5,-7,14,781,168,613,-474
,1567,2023-10-20 13:14:41.81,103,-278,-2042,2,-7,14,561,15,546,-288
,1568,2023-10-20 13:14:41.82,112,-276,-2038,0,-12,11,772,165,607,-468
,1569,2023-10-20 13:14:41.83,117,-278,-2033,-1,-6,7,563,16,547,-289
,1570,2023-10-20 13:14:41.84,101,-268,-2039,-2,-1,4,774,170,604,-472
,1571,2023-10-20 13:14:41.85,101,-276,-2036,0,-1,2,573,16,557,-294
,1572,2023-10-20 13:14:41.86,108,-284,-2023,2,0,5,780,173,607,-476
,1573,2023-10-20 13:14:41.87,103,-271,-2028,1,6,1,586,21,565,-303
,1574,2023-10-20 13:14:41.88,118,-262,-2029,1,10,0,780,179,601,-479
,1575,2023-10-20 13:14:41.89,106,-272,-2041,2,14,-4,586,16,570,-301
,1576,2023-10-20 13:14:41.90,98,-283,-2055,2,17,-2,782,179,603,-480
,1577,2023-10-20 13:14:41.91,105,-285,-2055,5,14,-1,595,19,576,-307
,1578,2023-10-20 13:14:41.92,109,-290,-2046,9,9,6,786,182,604,-484
,1579,2023-10-20 13:14:41.93,107,-290,-2032,13,9,5,604,27,577,-315
,1580,2023-10-20 13:14:41.94,103,-286,-2036,15,10,7,786,194,592,-490
,1581,2023-10-20 13:14:41.95,115,-292,-2045,16,18,11,609,28,581,-318
,1582,2023-10-20 13:14:41.96,111,-289,-2037,16,27,14,783,191,592,-487
,1583,2023-10-20 13:14:41.97,115,-279,-2043,8,43,17,618,29,589,-323
,1584,2023-10-20 13:14:41.98,128,-260,-2053,-1,58,20,792,197,595,-494
,1585,2023-10-20 13:14:41.99,113,-262,-2052,-9,64,16,629,38,591,-333
,1586,2023-10-20 13:14:42.00,129,-257,-2048,-16,58,15,786,204,582,-495
,1587,2023-10-20 13:14:42.01,128,-266,-2048,-11,47,9,625,38,587,-331
,1588,2023-10-20 13:14:42.02,126,-270,-2062,-1,38,8,775,204,571,-489
,1589,2023-10-20 13:14:42.03,114,-272,-2057,7,25,4,623,35,588,-329
,1590,2023-10-20 13:14:42.04,130,-276,-2047,14,20,5,764,193,571,-478
,1591,2023-10-20 13:14:42.05,123,-278,-2041,17,20,4,626,26,600,-326
,1592,2023-10-20 13:14:42.06,119,-279,-2027,16,34,5,766,192,574,-479
,1593,2023-10-20 13:14:42.07,140,-273,-2024,14,49,3,630,35,595,-332
,1594,2023-10-20 13:14:42.08,141,-269,-2024,15,62,2,755,197,558,-476
,1595,2023-10-20 13:14:42.09,138,-274,-2037,14,67,1,626,32,594,-329
,1596,2023-10-20 13:14:42.10,155,-273,-2036,16,66,-3,742,189,553,-465
,1597,2023-10-20 13:14:42.11,151,-274,-2041,27,54,-6,627,26,601,-326
,1598,2023-10-20 13:14:42.12,162,-273,-2039,35,50,-11,736,188,548,-462
,1599,2023-10-20 13:14:42.13,169,-271,-2035,38,44,-14,635,35,600,-335
,1600,2023-10-20 13:14:42.14,161,-282,-2044,33,38,-20,739,194,545,-466
,1601,2023-10-20 13:14:42.15,174,-299,-2040,38,33,-22,648,41,607,-344
,1602,2023-10-20 13:14:42.16,174,-291,-2044,46,23,-24,736,192,544,-464
,1603,2023-10-20 13:14:42.17,170,-298,-2056,56,9,-21,651,37,614,-344
,1604,2023-10-20 13:14:42.18,165,-317,-2065,57,-6,-21,724,190,534,-457
,1605,2023-10-20 13:14:42.19,153,-339,-2074,67,-29,-17,655,39,616,-347
,1606,2023-10-20 13:14:42.20,146,-336,-2068,80,-55,-6,723,182,541,-452
,1607,2023-10-20 13:14:42.21,142,-343,-2049,86,-73,6,660,36,624,-348
,1608,2023-10-20 13:14:42.22,148,-338,-2042,84,-72,16,715,176,539,-445
,1609,2023-10-20 13:14:42.23,135,-335,-2047,75,-56,19,651,27,624,-339
,1610,2023-10-20 13:14:42.24,131,-324,-2056,65,-40,24,699,163,536,-431
,1611,2023-10-20 13:14:42.25,127,-313,-2039,53,-37,26,660,27,633,-343
,1612,2023-10-20 13:14:42.26,121,-310,-2037,47,-35,27,712,171,541,-441
,1613,2023-10-20 13:14:42.27,120,-296,-2033,40,-32,20,646,19,627,-332
,1614,2023-10-20 13:14:42.28,126,-286,-2033,32,-31,13,666,136,530,-401
,1615,2023-10-20 13:14:42.29,121,-296,-2037,29,-36,5,633,-7,640,-313
,1616,2023-10-20 13:14:42.30,113,-301,-2040,34,-40,-1,670,136,534,-403
,1617,2023-10-20 13:14:42.31,106,-298,-2030,30,-37,-5,656,18,638,-337
,1618,2023-10-20 13:14:42.32,112,-313,-2025,21,-32,-9,674,152,522,-413
,1619,2023-10-20 13:14:42.33,110,-322,-2019,26,-36,-8,638,12,626,-325
,1620,2023-10-20 13:14:42.34,99,-323,-2023,33,-42,-5,639,124,515,-381
,1621,2023-10-20 13:14:42.35,108,-317,-2025,34,-29,3,608,-19,627,-294
,1622,2023-10-20 13:14:42.36,92,-318,-2009,20,-2,3,605,92,513,-348
,1623,2023-10-20 13:14:42.37,98,-309,-2025,11,21,1,611,-25,636,-293
,1624,2023-10-20 13:14:42.38,97,-315,-2019,16,13,5,610,96,514,-353
,1625,2023-10-20 13:14:42.39,86,-306,-2025,18,10,4,624,-15,639,-304
,1626,2023-10-20 13:14:42.40,101,-293,-2035,17,0,2,606,95,511,-350
,1627,2023-10-20 13:14:42.41,100,-290,-2029,6,11,-1,629,-11,640,-309
,1628,2023-10-20 13:14:42.42,93,-286,-2041,-7,17,-7,618,102,516,-360
,1629,2023-10-20 13:14:42.43,100,-302,-2032,-11,23,-11,662,15,647,-338
,1630,2023-10-20 13:14:42.44,106,-301,-2030,-1,14,-17,630,122,508,-376
,1631,2023-10-20 13:14:42.45,114,-291,-2029,11,10,-19,673,26,647,-349
,1632,2023-10-20 13:14:42.46,127,-285,-2033,12,20,-23,630,127,503,-378
,1633,2023-10-20 13:14:42.47,105,-298,-2026,6,42,-27,676,32,644,-354
,1634,2023-10-20 13:14:42.48,129,-292,-2034,18,34,-31,622,124,498,-373
,1635,2023-10-20 13:14:42.49,130,-281,-2047,28,30,-31,695,47,648,-371
,1636,2023-10-20 13:14:42.50,139,-276,-2044,15,54,-30,634,134,500,-384
,1637,2023-10-20 13:14:42.51,132,-298,-2039,-2,66,-35,706,60,646,-383
,1638,2023-10-20 13:14:42.52,138,-314,-2069,9,47,-32,630,139,491,-384
,1639,2023-10-20 13:14:42.53,140,-297,-2065,18,44,-25,726,82,644,-404
,1640,2023-10-20 13:14:42.54,132,-302,-2044,10,48,-22,645,159,486,-402
,1641,2023-10-20 13:14:42.55,152,-304,-2048,7,42,-25,747,100,647,-423
,1642,2023-10-20 13:14:42.56,159,-300,-2048,17,43,-23,642,157,485,-399
,1643,2023-10-20 13:14:42.57,159,-308,-2048,26,47,-25,738,89,649,-413
,1644,2023-10-20 13:14:42.58,165,-294,-2063,32,35,-26,620,131,489,-375
,1645,2023-10-20 13:14:42.59,174,-288,-2049,33,32,-26,704,54,650,-379
,1646,2023-10-20 13:14:42.60,156,-296,-2031,27,37,-27,600,106,494,-353
,1647,2023-10-20 13:14:42.61,148,-309,-2051,30,18,-30,729,62,667,-395
,1648,2023-10-20 13:14:42.62,154,-300,-2061,37,0,-21,634,130,504,-382
,1649,2023-10-20 13:14:42.63,153,-288,-2058,26,10,-16,775,107,668,-441
,1650,2023-10-20 13:14:42.64,132,-309,-2050,8,0,-10,657,164,493,-410
,1651,2023-10-20 13:14:42.65,126,-315,-2049,4,-17,-7,814,164,650,-489
,1652,2023-10-20 13:14:42.66,148,-298,-2037,13,-27,1,682,211,471,-446
,1653,2023-10-20 13:14:42.67,136,-279,-2026,5,-22,3,856,225,631,-540
,1654,2023-10-20 13:14:42.68,129,-273,-2041,-13,-10,0,716,262,454,-489
,1655,2023-10-20 13:14:42.69,136,-288,-2038,-22,-3,-2,896,288,608,-592
,1656,2023-10-20 13:14:42.70,128,-283,-2019,-16,1,-2,727,293,434,-510
,1657,2023-10-20 13:14:42.71,127,-283,-2003,-10,2,-2,897,307,590,-602
,1658,2023-10-20 13:14:42.72,121,-279,-2014,-12,8,-3,716,289,427,-502
,1659,2023-10-20 13:14:42.73,134,-289,-2017,-6,7,-2,907,312,595,-609
,1660,2023-10-20 13:14:42.74,123,-297,-2037,7,7,5,726,293,433,-509
,1661,2023-10-20 13:14:42.75,122,-295,-2036,12,2,10,922,328,594,-625
,1662,2023-10-20 13:14:42.76,125,-308,-2033,16,-3,16,728,297,431,-512
,1663,2023-10-20 13:14:42.77,123,-309,-2035,23,-4,24,926,336,590,-631
,1664,2023-10-20 13:14:42.78,133,-306,-2021,26,3,31,738,305,433,-521
,1665,2023-10-20 13:14:42.79,139,-312,-2031,31,5,34,945,371,574,-658
,1666,2023-10-20 13:14:42.80,149,-306,-2035,33,8,37,701,296,405,-498
,1667,2023-10-20 13:14:42.81,147,-290,-2011,36,15,37,848,233,615,-540
,1668,2023-10-20 13:14:42.82,144,-292,-1995,29,26,32,605,129,476,-367
,1669,2023-10-20 13:14:42.83,155,-292,-1993,26,43,25,806,132,674,-469
,1670,2023-10-20 13:14:42.84,158,-300,-1996,26,49,19,636,128,508,-382
,1671,2023-10-20 13:14:42.85,148,-299,-2028,31,53,11,844,191,653,-517
,1672,2023-10-20 13:14:42.86,145,-292,-2055,30,41,3,609,140,469,-374
,1673,2023-10-20 13:14:42.87,139,-287,-2074,24,11,-1,788,139,649,-463
,1674,2023-10-20 13:14:42.88,138,-283,-2057,22,-15,2,569,75,494,-322
,1675,2023-10-20 13:14:42.89,140,-293,-2025,14,-26,-1,774,103,671,-438
,1676,2023-10-20 13:14:42.90,135,-295,-2008,9,-24,-2,554,58,496,-306
,1677,2023-10-20 13:14:42.91,131,-301,-2013,12,-18,-3,750,91,659,-420
,1678,2023-10-20 13:14:42.92,116,-322,-2028,20,-15,-5,534,40,494,-287
,1679,2023-10-20 13:14:42.93,112,-324,-2038,29,-16,-3,727,74,653,-400
,1680,2023-10-20 13:14:42.94,109,-329,-2041,41,-23,2,513,20,493,-266
,1681,2023-10-20 13:14:42.95,108,-326,-2055,43,-28,7,720,67,653,-393
,1682,2023-10-20 13:14:42.96,108,-322,-2060,37,-26,10,509,16,493,-262
,1683,2023-10-20 13:14:42.97,107,-319,-2082,27,-20,11,730,82,648,-406
,1684,2023-10-20 13:14:42.98,105,-324,-2069,15,-9,17,514,21,493,-267
,1685,2023-10-20 13:14:42.99,97,-315,-2063,5,9,15,730,83,647,-406
,1686,2023-10-20 13:14:43.00,103,-309,-2062,-5,21,10,505,14,491,-259
,1687,2023-10-20 13:14:43.01,118,-304,-2046,-10,32,0,733,84,649,-408
,1688,2023-10-20 13:14:43.02,113,-307,-2048,-4,45,-10,514,14,500,-264
,1689,2023-10-20 13:14:43.03,127,-290,-2051,-10,61,-24,735,88,647,-411
,1690,2023-10-20 13:14:43.04,129,-291,-2050,-16,68,-36,506,4,502,-255
,1691,2023-10-20 13:14:43.05,138,-282,-2042,-17,66,-42,731,83,648,-407
,1692,2023-10-20 13:14:43.06,135,-284,-2047,-19,56,-50,509,-4,513,-252
,1693,2023-10-20 13:14:43.07,144,-290,-2058,-16,40,-51,751,99,652,-425
,1694,2023-10-20 13:14:43.08,146,-296,-2071,-20,26,-46,526,10,516,-268
,1695,2023-10-20 13:14:43.09,145,-301,-2066,-31,23,-41,758,104,654,-431
,1696,2023-10-20 13:14:43.10,149,-311,-2042,-31,6,-32,527,7,520,-267
,1697,2023-10-20 13:14:43.11,158,-314,-2018,-12,-6,-25,755,104,651,-429
,1698,2023-10-20 13:14:43.12,164,-300,-1999,2,0,-18,526,9,517,-267
,1699,2023-10-20 13:14:43.13,165,-300,-1989,13,18,-12,752,111,641,-431
,1700,2023-10-20 13:14:43.14,172,-308,-1989,20,37,-9,515,-1,516,-257
,1701,2023-10-20 13:14:43.15,164,-316,-2002,35,46,-6,741,103,638,-422
,1702,2023-10-20 13:14:43.16,166,-306,-2023,56,32,-3,519,-4,523,-257
,1703,2023-10-20 13:14:43.17,174,-308,-2043,71,6,3,759,119,640,-439
,1704,2023-10-20 13:14:43.18,184,-304,-2054,74,-9,4,530,8,522,-269
,1705,2023-10-20 13:14:43.19,176,-296,-2043,67,-12,1,762,130,632,-446
,1706,2023-10-20 13:14:43.20,190,-294,-2040,52,-10,1,542,12,530,-277
,1707,2023-10-20 13:14:43.21,190,-312,-2047,38,3,1,780,143,637,-461
,1708,2023-10-20 13:14:43.22,167,-301,-2047,32,4,-5,551,17,534,-284
,1709,2023-10-20 13:14:43.23,181,-302,-2056,24,7,-10,788,149,639,-468
,1710,2023-10-20 13:14:43.24,176,-297,-2046,26,6,-17,566,23,543,-294
,1711,2023-10-20 13:14:43.25,178,-297,-2035,21,8,-30,786,154,632,-470
,1712,2023-10-20 13:14:43.26,169,-321,-2048,24,3,-37,560,15,545,-287
,1713,2023-10-20 13:14:43.27,156,-320,-2077,30,-12,-42,789,152,637,-470
,1714,2023-10-20 13:14:43.28,147,-322,-2092,39,-41,-38,564,13,551,-288
,1715,2023-10-20 13:14:43.29,139,-318,-2074,47,-75,-36,788,164,624,-476
,1716,2023-10-20 13:14:43.30,131,-324,-2067,45,-95,-30,568,18,550,-293
,1717,2023-10-20 13:14:43.31,131,-325,-2045,45,-103,-28,790,167,623,-478
,1718,2023-10-20 13:14:43.32,125,-321,-2025,46,-92,-24,575,22,553,-298
,1719,2023-10-20 13:14:43.33,123,-307,-2010,40,-82,-31,795,173,622,-484
,1720,2023-10-20 13:14:43.34,119,-312,-1995,33,-49,-35,569,26,543,-297
,1721,2023-10-20 13:14:43.35,123,-305,-2001,24,-21,-38,767,173,594,-470
,1722,2023-10-20 13:14:43.36,125,-318,-2032,12,-4,-42,557,17,540,-287
,1723,2023-10-20 13:14:43.37,128,-312,-2033,10,-4,-40,759,164,595,-461
,1724,2023-10-20 13:14:43.38,119,-328,-2033,3,-9,-33,578,17,561,-297
,1725,2023-10-20 13:14:43.39,127,-328,-2044,-6,-1,-26,803,198,605,-500
,1726,2023-10-20 13:14:43.40,125,-315,-2045,-16,3,-18,601,42,559,-321
,1727,2023-10-20 13:14:43.41,127,-327,-2053,-14,-5,-5,768,188,580,-478
,1728,2023-10-20 13:14:43.42,125,-312,-2044,-9,-7,3,590,26,564,-308
,1729,2023-10-20 13:14:43.43,124,-311,-2032,-9,-12,3,798,196,602,-497
,1730,2023-10-20 13:14:43.44,132,-303,-2031,0,-15,-4,606,38,568,-322
,1731,2023-10-20 13:14:43.45,131,-300,-2025,2,-9,-10,773,192,581,-482
