// Data mode  : Full
// Data quality  : High
// Acceleration sensor's range  : 16g
// Gyroscope sensor's range  : 2000dps
//
//ARTIFACT,NUM,DATE,ACC_X,ACC_Y,ACC_Z,GYRO_X,GYRO_Y,GYRO_Z,EOG_L,EOG_R,EOG_H,EOG_V
,1,2023-10-27 12:17:46.25,189,-18,-2054,96,54,29,248,85,163,-166
,2,2023-10-27 12:17:46.26,175,-14,-2058,88,-10,-9,141,-84,225,-28
,3,2023-10-27 12:17:46.27,173,-23,-2061,81,33,-7,245,86,159,-165
,4,2023-10-27 12:17:46.28,189,-23,-2063,80,52,6,143,-80,223,-31
,5,2023-10-27 12:17:46.29,174,-30,-2063,73,-11,12,251,81,170,-166
,6,2023-10-27 12:17:46.30,175,-30,-2068,65,-16,-14,159,-80,239,-39
,7,2023-10-27 12:17:46.31,179,-37,-2058,63,13,3,246,77,169,-161
,8,2023-10-27 12:17:46.32,174,-43,-2057,67,-2,-7,154,-86,240,-34
,9,2023-10-27 12:17:46.33,184,-45,-2056,80,8,38,237,75,162,-156
,10,2023-10-27 12:17:46.34,178,-55,-2061,78,-41,-4,148,-91,239,-28
,11,2023-10-27 12:17:46.35,169,-51,-2058,81,-41,-1,233,62,171,-147
,12,2023-10-27 12:17:46.36,163,-59,-2068,90,20,39,162,-93,255,-34
,13,2023-10-27 12:17:46.37,155,-65,-2078,86,-51,38,263,61,202,-162
,14,2023-10-27 12:17:46.38,145,-65,-2055,81,-53,14,186,-83,269,-51
,15,2023-10-27 12:17:46.39,135,-67,-2028,81,-38,27,247,63,184,-155
,16,2023-10-27 12:17:46.40,137,-62,-2077,96,-28,67,166,-87,253,-39
,17,2023-10-27 12:17:46.41,119,-62,-2058,86,-108,34,238,66,172,-152
,18,2023-10-27 12:17:46.42,136,-71,-2056,83,-105,22,176,-84,260,-46
,19,2023-10-27 12:17:46.43,112,-73,-2069,89,-39,60,272,65,207,-168
,20,2023-10-27 12:17:46.44,105,-78,-2050,90,-82,67,209,-72,281,-68
,21,2023-10-27 12:17:46.45,113,-83,-2019,85,-123,39,271,69,202,-170
,22,2023-10-27 12:17:46.46,114,-84,-2034,90,-137,32,216,-65,281,-75
,23,2023-10-27 12:17:46.47,111,-87,-2020,95,-112,20,302,82,220,-192
,24,2023-10-27 12:17:46.48,94,-85,-2011,99,-48,43,257,-59,316,-99
,25,2023-10-27 12:17:46.49,104,-84,-2042,95,-41,55,310,96,214,-203
,26,2023-10-27 12:17:46.50,86,-82,-2024,81,-98,26,228,-47,275,-90
,27,2023-10-27 12:17:46.51,104,-90,-2031,80,-84,0,288,114,174,-201
,28,2023-10-27 12:17:46.52,102,-85,-2038,87,-24,43,240,-15,255,-112
,29,2023-10-27 12:17:46.53,100,-82,-2042,80,-44,43,297,127,170,-212
,30,2023-10-27 12:17:46.54,99,-83,-2022,75,-76,3,252,-15,267,-118
,31,2023-10-27 12:17:46.55,105,-80,-2040,72,-26,8,293,116,177,-204
,32,2023-10-27 12:17:46.56,104,-82,-2032,71,4,21,269,-18,287,-125
,33,2023-10-27 12:17:46.57,122,-79,-2046,77,-18,26,420,89,331,-254
,34,2023-10-27 12:17:46.58,118,-78,-2044,77,-59,-1,451,-41,492,-205
,35,2023-10-27 12:17:46.59,136,-94,-2046,88,-59,-28,602,66,536,-334
,36,2023-10-27 12:17:46.60,131,-80,-2052,95,-73,-47,569,-44,613,-262
,37,2023-10-27 12:17:46.61,136,-90,-2056,102,0,-27,680,65,615,-372
,38,2023-10-27 12:17:46.62,124,-98,-2062,109,-59,-29,615,-30,645,-292
,39,2023-10-27 12:17:46.63,117,-108,-2071,112,-87,-47,688,76,612,-382
,40,2023-10-27 12:17:46.64,121,-106,-2076,118,-70,-69,612,-30,642,-291
,41,2023-10-27 12:17:46.65,119,-95,-2067,123,-25,-49,743,74,669,-408
,42,2023-10-27 12:17:46.66,119,-106,-2069,122,-47,-36,680,-16,696,-332
,43,2023-10-27 12:17:46.67,115,-111,-2072,127,-95,-57,739,75,664,-407
,44,2023-10-27 12:17:46.68,110,-123,-2064,140,-119,-84,647,-16,663,-315
,45,2023-10-27 12:17:46.69,117,-118,-2083,167,-74,-36,668,67,601,-367
,46,2023-10-27 12:17:46.70,88,-133,-2081,167,-96,-28,592,-16,608,-288
,47,2023-10-27 12:17:46.71,84,-144,-2066,156,-172,-49,584,75,509,-329
,48,2023-10-27 12:17:46.72,94,-113,-2083,158,-145,-56,534,0,534,-267
,49,2023-10-27 12:17:46.73,77,-143,-2054,164,-115,-30,517,77,440,-297
,50,2023-10-27 12:17:46.74,50,-158,-2036,165,-144,-10,476,-10,486,-233
,51,2023-10-27 12:17:46.75,68,-154,-2048,165,-200,-28,445,60,385,-252
,52,2023-10-27 12:17:46.76,49,-169,-2052,169,-196,-30,416,-15,431,-200
,53,2023-10-27 12:17:46.77,38,-181,-2053,169,-151,-12,366,47,319,-206
,54,2023-10-27 12:17:46.78,60,-192,-2032,176,-146,27,360,-16,376,-172
,55,2023-10-27 12:17:46.79,43,-172,-2041,173,-182,15,308,40,268,-174
,56,2023-10-27 12:17:46.80,59,-164,-2045,163,-179,12,315,-20,335,-147
,57,2023-10-27 12:17:46.81,44,-179,-2039,154,-120,5,265,33,232,-149
,58,2023-10-27 12:17:46.82,34,-178,-2028,154,-59,40,288,-22,310,-133
,59,2023-10-27 12:17:46.83,56,-169,-2034,154,-107,50,259,30,229,-144
,60,2023-10-27 12:17:46.84,12,-185,-2021,136,-114,30,296,-19,315,-138
,61,2023-10-27 12:17:46.85,10,-227,-2003,131,-99,33,273,24,249,-148
,62,2023-10-27 12:17:46.86,27,-173,-2037,135,-36,85,306,-11,317,-147
,63,2023-10-27 12:17:46.87,25,-192,-2034,124,-50,95,256,35,221,-145
,64,2023-10-27 12:17:46.88,28,-202,-2021,104,-81,62,308,0,308,-154
,65,2023-10-27 12:17:46.89,30,-190,-2027,99,-41,61,280,25,255,-152
,66,2023-10-27 12:17:46.90,29,-196,-2020,107,14,105,321,-11,332,-155
,67,2023-10-27 12:17:46.91,26,-195,-2032,103,-20,108,270,19,251,-144
,68,2023-10-27 12:17:46.92,38,-193,-2029,89,-45,74,310,1,309,-155
,69,2023-10-27 12:17:46.93,41,-208,-2031,93,24,90,258,20,238,-139
,70,2023-10-27 12:17:46.94,32,-208,-2043,93,-9,107,312,5,307,-158
,71,2023-10-27 12:17:46.95,21,-200,-2049,84,-20,72,251,30,221,-140
,72,2023-10-27 12:17:46.96,43,-201,-2043,79,2,71,310,16,294,-163
,73,2023-10-27 12:17:46.97,23,-209,-2049,83,50,106,239,32,207,-135
,74,2023-10-27 12:17:46.98,30,-203,-2055,76,1,92,308,22,286,-165
,75,2023-10-27 12:17:46.99,41,-204,-2052,66,-12,59,241,26,215,-133
,76,2023-10-27 12:17:47.00,38,-190,-2028,61,3,55,308,19,289,-163
,77,2023-10-27 12:17:47.01,34,-202,-2047,62,64,72,221,19,202,-120
,78,2023-10-27 12:17:47.02,37,-198,-2053,54,57,91,308,29,279,-168
,79,2023-10-27 12:17:47.03,33,-204,-2030,54,25,78,210,22,188,-116
,80,2023-10-27 12:17:47.04,43,-209,-2041,49,0,43,289,28,261,-158
,81,2023-10-27 12:17:47.05,49,-212,-2046,43,50,44,176,18,158,-97
,82,2023-10-27 12:17:47.06,34,-211,-2046,45,92,70,288,32,256,-160
,83,2023-10-27 12:17:47.07,51,-216,-2024,46,59,71,198,23,175,-110
,84,2023-10-27 12:17:47.08,26,-222,-2034,49,44,63,295,42,253,-168
,85,2023-10-27 12:17:47.09,55,-233,-2026,46,34,41,185,10,175,-97
,86,2023-10-27 12:17:47.10,32,-241,-2029,43,75,51,292,25,267,-158
,87,2023-10-27 12:17:47.11,38,-234,-2021,60,115,94,176,-15,191,-80
,88,2023-10-27 12:17:47.12,41,-232,-2019,63,99,107,293,19,274,-156
,89,2023-10-27 12:17:47.13,44,-225,-2013,53,63,76,174,-7,181,-83
,90,2023-10-27 12:17:47.14,56,-223,-2006,54,80,80,294,24,270,-159
,91,2023-10-27 12:17:47.15,45,-224,-2039,54,140,103,187,-2,189,-92
,92,2023-10-27 12:17:47.16,53,-237,-2022,51,156,141,308,32,276,-170
,93,2023-10-27 12:17:47.17,61,-230,-2043,46,159,148,170,-20,190,-75
,94,2023-10-27 12:17:47.18,55,-232,-2034,36,124,111,290,33,257,-161
,95,2023-10-27 12:17:47.19,61,-232,-2032,44,188,135,153,-17,170,-68
,96,2023-10-27 12:17:47.20,64,-221,-2037,50,213,155,289,38,251,-163
,97,2023-10-27 12:17:47.21,75,-218,-2037,36,179,157,149,-18,167,-65
,98,2023-10-27 12:17:47.22,91,-233,-2008,27,152,137,291,34,257,-162
,99,2023-10-27 12:17:47.23,82,-242,-2036,41,214,149,149,-16,165,-66
,100,2023-10-27 12:17:47.24,84,-225,-2038,49,237,170,285,43,242,-164
,101,2023-10-27 12:17:47.25,95,-225,-2034,40,216,195,138,-14,152,-62
,102,2023-10-27 12:17:47.26,90,-239,-2031,32,177,161,282,51,231,-166
,103,2023-10-27 12:17:47.27,85,-230,-2051,41,171,160,128,-20,148,-54
,104,2023-10-27 12:17:47.28,103,-232,-2060,47,217,179,279,53,226,-166
,105,2023-10-27 12:17:47.29,106,-232,-2046,54,224,207,120,-20,140,-50
,106,2023-10-27 12:17:47.30,109,-222,-2058,54,205,210,270,54,216,-162
,107,2023-10-27 12:17:47.31,112,-230,-2035,55,208,213,105,-32,137,-36
,108,2023-10-27 12:17:47.32,115,-234,-2031,48,147,184,257,47,210,-152
,109,2023-10-27 12:17:47.33,117,-235,-2049,47,180,175,94,-24,118,-35
,110,2023-10-27 12:17:47.34,122,-243,-2045,50,172,174,252,66,186,-159
,111,2023-10-27 12:17:47.35,138,-230,-2024,58,215,208,98,-23,121,-37
,112,2023-10-27 12:17:47.36,122,-238,-2025,59,179,211,255,66,189,-160
,113,2023-10-27 12:17:47.37,128,-241,-2033,57,137,188,92,-40,132,-26
,114,2023-10-27 12:17:47.38,128,-234,-2032,49,129,167,253,59,194,-156
,115,2023-10-27 12:17:47.39,140,-246,-2036,40,171,165,82,-35,117,-23
,116,2023-10-27 12:17:47.40,144,-249,-2041,42,208,198,234,72,162,-153
,117,2023-10-27 12:17:47.41,135,-253,-2056,36,201,203,61,-32,93,-14
,118,2023-10-27 12:17:47.42,137,-244,-2053,26,133,197,218,70,148,-144
,119,2023-10-27 12:17:47.43,144,-242,-2035,16,115,170,66,-27,93,-19
,120,2023-10-27 12:17:47.44,154,-236,-2039,7,130,170,215,77,138,-146
,121,2023-10-27 12:17:47.45,166,-228,-2045,-1,175,195,49,-40,89,-4
,122,2023-10-27 12:17:47.46,154,-223,-2031,-20,176,211,188,65,123,-126
,123,2023-10-27 12:17:47.47,168,-216,-2028,-33,136,201,39,-45,84,3
,124,2023-10-27 12:17:47.48,180,-215,-2046,-51,107,175,200,77,123,-138
,125,2023-10-27 12:17:47.49,165,-215,-2048,-62,122,155,40,-48,88,4
,126,2023-10-27 12:17:47.50,184,-221,-2044,-59,171,188,197,67,130,-132
,127,2023-10-27 12:17:47.51,170,-217,-2054,-63,149,187,30,-52,82,11
,128,2023-10-27 12:17:47.52,176,-214,-2052,-72,80,152,167,72,95,-119
,129,2023-10-27 12:17:47.53,168,-210,-2053,-77,117,144,13,-55,68,21
,130,2023-10-27 12:17:47.54,175,-209,-2044,-77,116,143,166,76,90,-121
,131,2023-10-27 12:17:47.55,186,-204,-2042,-76,139,156,13,-67,80,27
,132,2023-10-27 12:17:47.56,180,-202,-2039,-85,140,150,164,80,84,-122
,133,2023-10-27 12:17:47.57,197,-199,-2043,-93,68,120,6,-54,60,24
,134,2023-10-27 12:17:47.58,210,-187,-2033,-92,57,94,153,88,65,-120
,135,2023-10-27 12:17:47.59,201,-195,-2025,-91,83,83,-3,-48,45,25
,136,2023-10-27 12:17:47.60,209,-201,-2051,-90,112,89,143,96,47,-119
,137,2023-10-27 12:17:47.61,199,-198,-2049,-78,114,112,3,-46,49,21
,138,2023-10-27 12:17:47.62,215,-194,-2047,-70,95,108,141,96,45,-118
,139,2023-10-27 12:17:47.63,204,-195,-2058,-72,28,63,-7,-54,47,30
,140,2023-10-27 12:17:47.64,211,-195,-2056,-73,83,65,113,98,15,-105
,141,2023-10-27 12:17:47.65,212,-190,-2062,-64,101,77,-35,-51,16,43
,142,2023-10-27 12:17:47.66,203,-193,-2061,-64,45,77,98,101,-3,-99
,143,2023-10-27 12:17:47.67,203,-197,-2063,-65,8,53,-28,-55,27,41
,144,2023-10-27 12:17:47.68,205,-189,-2064,-58,4,31,107,93,14,-100
,145,2023-10-27 12:17:47.69,203,-186,-2056,-47,38,52,-24,-63,39,43
,146,2023-10-27 12:17:47.70,201,-184,-2051,-50,22,66,89,94,-5,-91
,147,2023-10-27 12:17:47.71,200,-191,-2043,-60,-33,18,-30,-61,31,45
,148,2023-10-27 12:17:47.72,199,-185,-2044,-58,-37,11,96,107,-11,-101
,149,2023-10-27 12:17:47.73,202,-191,-2048,-45,25,39,-22,-50,28,36
,150,2023-10-27 12:17:47.74,196,-187,-2046,-38,-3,54,100,115,-15,-107
,151,2023-10-27 12:17:47.75,200,-191,-2045,-34,-34,44,-22,-55,33,38
,152,2023-10-27 12:17:47.76,196,-187,-2046,-33,-66,6,82,111,-29,-96
,153,2023-10-27 12:17:47.77,204,-190,-2046,-28,-65,1,-29,-52,23,40
,154,2023-10-27 12:17:47.78,205,-183,-2040,-20,11,37,78,114,-36,-96
,155,2023-10-27 12:17:47.79,201,-181,-2038,-21,3,44,-24,-51,27,37
,156,2023-10-27 12:17:47.80,195,-182,-2039,-31,-58,12,82,110,-28,-96
,157,2023-10-27 12:17:47.81,190,-189,-2046,-29,-21,9,-17,-71,54,44
,158,2023-10-27 12:17:47.82,194,-194,-2050,-26,-19,13,83,103,-20,-93
,159,2023-10-27 12:17:47.83,187,-190,-2053,-14,-11,50,-21,-62,41,41
,160,2023-10-27 12:17:47.84,191,-198,-2060,-6,-35,55,84,117,-33,-100
,161,2023-10-27 12:17:47.85,180,-193,-2060,-9,-83,24,-20,-59,39,39
,162,2023-10-27 12:17:47.86,191,-188,-2047,-10,-91,32,64,111,-47,-87
,163,2023-10-27 12:17:47.87,187,-192,-2046,-4,-60,31,-34,-64,30,49
,164,2023-10-27 12:17:47.88,175,-191,-2049,8,-24,64,61,121,-60,-91
,165,2023-10-27 12:17:47.89,162,-195,-2047,12,-64,68,-25,-57,32,41
,166,2023-10-27 12:17:47.90,183,-189,-2048,8,-95,33,56,120,-64,-88
,167,2023-10-27 12:17:47.91,170,-188,-2036,12,-45,47,-29,-66,37,47
,168,2023-10-27 12:17:47.92,168,-193,-2041,25,-36,81,52,102,-50,-77
,169,2023-10-27 12:17:47.93,170,-199,-2045,24,-86,67,-30,-72,42,51
,170,2023-10-27 12:17:47.94,167,-202,-2045,24,-115,40,48,103,-55,-75
,171,2023-10-27 12:17:47.95,161,-191,-2039,32,-73,50,-20,-65,45,42
,172,2023-10-27 12:17:47.96,166,-194,-2045,40,-52,61,38,113,-75,-75
,173,2023-10-27 12:17:47.97,168,-196,-2047,45,-85,76,-26,-55,29,40
,174,2023-10-27 12:17:47.98,157,-199,-2048,40,-106,55,28,120,-92,-74
,175,2023-10-27 12:17:47.99,146,-199,-2050,43,-112,30,-30,-58,28,44
,176,2023-10-27 12:17:48.00,142,-203,-2043,50,-67,45,28,111,-83,-69
,177,2023-10-27 12:17:48.01,146,-206,-2033,60,-43,76,-26,-68,42,47
,178,2023-10-27 12:17:48.02,159,-207,-2026,57,-104,65,21,106,-85,-63
,179,2023-10-27 12:17:48.03,150,-213,-2035,55,-107,53,-28,-58,30,43
,180,2023-10-27 12:17:48.04,141,-216,-2046,57,-82,43,16,114,-98,-65
,181,2023-10-27 12:17:48.05,151,-210,-2036,60,-37,80,-22,-58,36,40
,182,2023-10-27 12:17:48.06,155,-209,-2027,54,-25,79,16,110,-94,-63
,183,2023-10-27 12:17:48.07,142,-214,-2035,52,-34,86,-22,-61,39,41
,184,2023-10-27 12:17:48.08,147,-215,-2038,41,-81,58,10,112,-102,-61
,185,2023-10-27 12:17:48.09,150,-218,-2034,41,-36,57,-28,-60,32,44
,186,2023-10-27 12:17:48.10,143,-210,-2039,41,-22,59,-1,106,-107,-52
,187,2023-10-27 12:17:48.11,140,-206,-2036,43,-5,87,-24,-58,34,41
,188,2023-10-27 12:17:48.12,140,-207,-2039,38,-47,81,1,102,-101,-51
,189,2023-10-27 12:17:48.13,148,-211,-2044,30,-66,67,-17,-59,42,38
,190,2023-10-27 12:17:48.14,135,-207,-2039,26,-73,43,-4,105,-109,-50
,191,2023-10-27 12:17:48.15,127,-207,-2033,23,-38,44,-14,-59,45,36
,192,2023-10-27 12:17:48.16,139,-209,-2036,31,5,76,-4,103,-107,-49
,193,2023-10-27 12:17:48.17,139,-212,-2051,25,-16,77,-16,-60,44,38
,194,2023-10-27 12:17:48.18,139,-208,-2045,17,-58,55,-2,104,-106,-51
,195,2023-10-27 12:17:48.19,138,-200,-2042,12,-58,27,-6,-54,48,30
,196,2023-10-27 12:17:48.20,143,-214,-2043,11,-49,25,0,95,-95,-47
,197,2023-10-27 12:17:48.21,134,-211,-2035,18,12,58,0,-58,58,29
,198,2023-10-27 12:17:48.22,130,-210,-2024,20,-22,67,-13,95,-108,-41
,199,2023-10-27 12:17:48.23,151,-210,-2029,15,-61,45,-7,-53,46,30
,200,2023-10-27 12:17:48.24,136,-205,-2037,9,-46,17,-17,98,-115,-40
,201,2023-10-27 12:17:48.25,142,-210,-2045,10,17,38,8,-44,52,18
,202,2023-10-27 12:17:48.26,139,-208,-2045,17,-3,59,-14,95,-109,-40
,203,2023-10-27 12:17:48.27,129,-205,-2042,8,-41,38,-2,-46,44,24
,204,2023-10-27 12:17:48.28,136,-211,-2045,7,-45,13,-26,79,-105,-26
,205,2023-10-27 12:17:48.29,133,-207,-2052,13,25,44,6,-47,53,20
,206,2023-10-27 12:17:48.30,140,-201,-2045,8,22,40,-23,88,-111,-32
,207,2023-10-27 12:17:48.31,133,-212,-2044,11,-9,54,6,-43,49,18
,208,2023-10-27 12:17:48.32,133,-199,-2046,1,-48,30,-14,90,-104,-38
,209,2023-10-27 12:17:48.33,136,-205,-2053,2,-53,9,27,-43,70,8
,210,2023-10-27 12:17:48.34,135,-204,-2042,2,-16,12,-14,85,-99,-35
,211,2023-10-27 12:17:48.35,132,-205,-2039,14,24,33,32,-38,70,3
,212,2023-10-27 12:17:48.36,144,-205,-2050,17,-12,47,-11,89,-100,-39
,213,2023-10-27 12:17:48.37,141,-209,-2046,20,-28,42,29,-31,60,1
,214,2023-10-27 12:17:48.38,135,-210,-2053,19,-59,13,-25,90,-115,-32
,215,2023-10-27 12:17:48.39,138,-217,-2055,24,-19,13,26,-24,50,-1
,216,2023-10-27 12:17:48.40,123,-214,-2048,34,-8,21,-28,89,-117,-30
,217,2023-10-27 12:17:48.41,127,-209,-2044,47,13,39,27,-29,56,1
,218,2023-10-27 12:17:48.42,126,-210,-2039,50,12,39,-37,81,-118,-22
,219,2023-10-27 12:17:48.43,136,-215,-2034,54,-31,48,30,-29,59,0
,220,2023-10-27 12:17:48.44,128,-216,-2037,58,-44,42,-34,72,-106,-19
,221,2023-10-27 12:17:48.45,122,-213,-2038,54,-62,14,34,-33,67,0
,222,2023-10-27 12:17:48.46,126,-211,-2039,56,-31,9,-30,66,-96,-18
,223,2023-10-27 12:17:48.47,133,-215,-2036,60,-16,17,38,-31,69,-3
,224,2023-10-27 12:17:48.48,126,-220,-2036,71,12,51,-39,66,-105,-13
,225,2023-10-27 12:17:48.49,126,-222,-2041,67,-49,34,36,-21,57,-7
,226,2023-10-27 12:17:48.50,129,-219,-2038,63,-59,26,-52,67,-119,-7
,227,2023-10-27 12:17:48.51,129,-210,-2033,61,-46,9,44,-18,62,-13
,228,2023-10-27 12:17:48.52,132,-213,-2033,58,-22,11,-25,66,-91,-20
,229,2023-10-27 12:17:48.53,133,-228,-2038,60,27,43,66,-18,84,-24
,230,2023-10-27 12:17:48.54,131,-233,-2040,60,31,42,-29,60,-89,-15
,231,2023-10-27 12:17:48.55,131,-235,-2029,59,-28,45,51,-19,70,-16
,232,2023-10-27 12:17:48.56,112,-240,-2023,51,-47,18,-48,51,-99,-1
,233,2023-10-27 12:17:48.57,124,-228,-2024,52,-45,16,40,-15,55,-12
,234,2023-10-27 12:17:48.58,121,-237,-2023,60,30,42,-55,50,-105,2
,235,2023-10-27 12:17:48.59,120,-240,-2041,57,-1,54,51,-9,60,-21
,236,2023-10-27 12:17:48.60,121,-249,-2045,53,-29,38,-52,47,-99,2
,237,2023-10-27 12:17:48.61,132,-246,-2044,53,-42,18,51,-13,64,-19
,238,2023-10-27 12:17:48.62,133,-236,-2042,50,-17,10,-61,52,-113,4
,239,2023-10-27 12:17:48.63,124,-236,-2051,57,36,45,39,2,37,-20
,240,2023-10-27 12:17:48.64,110,-242,-2050,49,50,41,-71,51,-122,10
,241,2023-10-27 12:17:48.65,118,-235,-2044,41,-13,22,34,0,34,-17
,242,2023-10-27 12:17:48.66,106,-248,-2037,30,-15,0,-73,55,-128,9
,243,2023-10-27 12:17:48.67,113,-245,-2031,22,-1,5,37,19,18,-28
,244,2023-10-27 12:17:48.68,113,-247,-2026,22,36,44,-84,59,-143,12
,245,2023-10-27 12:17:48.69,115,-246,-2026,13,-4,38,24,15,9,-19
,246,2023-10-27 12:17:48.70,107,-243,-2019,-2,-21,19,-84,53,-137,15
,247,2023-10-27 12:17:48.71,114,-243,-2021,-12,-15,-3,40,22,18,-31
,248,2023-10-27 12:17:48.72,111,-238,-2024,-23,20,2,-87,50,-137,18
,249,2023-10-27 12:17:48.73,111,-236,-2028,-23,65,35,38,28,10,-33
,250,2023-10-27 12:17:48.74,110,-236,-2019,-31,78,18,-82,48,-130,17
,251,2023-10-27 12:17:48.75,105,-235,-2014,-42,44,32,42,26,16,-34
,252,2023-10-27 12:17:48.76,107,-231,-2021,-60,14,-3,-86,51,-137,17
,253,2023-10-27 12:17:48.77,112,-227,-2026,-72,23,-7,43,46,-3,-44
,254,2023-10-27 12:17:48.78,105,-231,-2025,-81,42,-20,-97,50,-147,23
,255,2023-10-27 12:17:48.79,130,-222,-2018,-85,106,6,29,41,-12,-35
,256,2023-10-27 12:17:48.80,117,-222,-2031,-93,117,18,-126,40,-166,43
,257,2023-10-27 12:17:48.81,123,-222,-2024,-110,116,18,3,32,-29,-17
,258,2023-10-27 12:17:48.82,120,-221,-2028,-125,88,-6,-144,23,-167,60
,259,2023-10-27 12:17:48.83,134,-215,-2019,-135,138,-26,-7,28,-35,-10
,260,2023-10-27 12:17:48.84,139,-205,-2018,-141,136,-35,-144,28,-172,58
,261,2023-10-27 12:17:48.85,143,-211,-2010,-137,206,-4,1,45,-44,-23
,262,2023-10-27 12:17:48.86,144,-221,-2027,-138,194,5,-134,28,-162,53
,263,2023-10-27 12:17:48.87,141,-215,-2035,-142,210,8,2,51,-49,-26
,264,2023-10-27 12:17:48.88,147,-208,-2039,-140,197,8,-138,36,-174,51
,265,2023-10-27 12:17:48.89,153,-193,-2039,-147,163,-17,13,64,-51,-38
,266,2023-10-27 12:17:48.90,153,-196,-2048,-145,178,-30,-125,33,-158,46
,267,2023-10-27 12:17:48.91,171,-193,-2051,-146,201,-30,15,57,-42,-36
,268,2023-10-27 12:17:48.92,179,-185,-2057,-132,242,-6,-121,22,-143,49
,269,2023-10-27 12:17:48.93,167,-187,-2053,-125,197,9,34,54,-20,-44
,270,2023-10-27 12:17:48.94,184,-192,-2054,-117,186,12,-104,24,-128,40
,271,2023-10-27 12:17:48.95,171,-181,-2061,-116,146,-19,40,66,-26,-53
,272,2023-10-27 12:17:48.96,183,-180,-2060,-112,130,-12,-106,28,-134,39
,273,2023-10-27 12:17:48.97,187,-164,-2061,-96,135,-14,37,74,-37,-55
,274,2023-10-27 12:17:48.98,194,-166,-2061,-91,167,-3,-115,25,-140,45
,275,2023-10-27 12:17:48.99,186,-165,-2061,-84,179,21,32,77,-45,-54
,276,2023-10-27 12:17:49.00,202,-179,-2060,-73,160,27,-113,24,-137,44
,277,2023-10-27 12:17:49.01,198,-168,-2066,-54,109,27,40,76,-36,-58
,278,2023-10-27 12:17:49.02,188,-170,-2064,-50,72,12,-114,11,-125,51
,279,2023-10-27 12:17:49.03,205,-164,-2061,-48,51,-2,46,74,-28,-60
,280,2023-10-27 12:17:49.04,209,-167,-2050,-44,54,-7,-110,17,-127,46
,281,2023-10-27 12:17:49.05,217,-164,-2060,-39,64,-3,16,82,-66,-49
,282,2023-10-27 12:17:49.06,188,-166,-2045,-31,106,24,-137,17,-154,60
,283,2023-10-27 12:17:49.07,209,-159,-2046,-30,106,28,29,97,-68,-63
,284,2023-10-27 12:17:49.08,207,-160,-2057,-22,80,44,-114,19,-133,47
,285,2023-10-27 12:17:49.09,200,-154,-2064,-28,27,24,30,101,-71,-65
,286,2023-10-27 12:17:49.10,213,-155,-2050,-29,19,23,-140,10,-150,65
,287,2023-10-27 12:17:49.11,214,-161,-2054,-26,4,20,10,106,-96,-58
,288,2023-10-27 12:17:49.12,219,-147,-2062,-21,-12,3,-139,16,-155,61
,289,2023-10-27 12:17:49.13,217,-151,-2052,-19,21,11,19,106,-87,-62
,290,2023-10-27 12:17:49.14,221,-154,-2056,-19,24,14,-130,14,-144,58
,291,2023-10-27 12:17:49.15,221,-151,-2062,-14,41,45,18,102,-84,-60
,292,2023-10-27 12:17:49.16,216,-156,-2052,-11,-29,34,-128,1,-129,63
,293,2023-10-27 12:17:49.17,220,-151,-2061,-10,-5,47,12,101,-89,-56
,294,2023-10-27 12:17:49.18,212,-152,-2055,-10,-39,34,-132,17,-149,57
,295,2023-10-27 12:17:49.19,211,-156,-2043,-12,-57,20,8,116,-108,-62
,296,2023-10-27 12:17:49.20,207,-151,-2050,-13,-43,4,-130,4,-134,63
,297,2023-10-27 12:17:49.21,208,-155,-2050,-11,-59,0,9,103,-94,-56
,298,2023-10-27 12:17:49.22,199,-158,-2065,1,-4,32,-132,-18,-114,75
,299,2023-10-27 12:17:49.23,196,-170,-2057,6,-54,44,10,101,-91,-55
,300,2023-10-27 12:17:49.24,201,-161,-2054,7,-80,35,-130,-7,-123,68
,301,2023-10-27 12:17:49.25,196,-158,-2045,6,-97,10,5,117,-112,-61
,302,2023-10-27 12:17:49.26,198,-152,-2044,4,-68,10,-132,5,-137,63
,303,2023-10-27 12:17:49.27,204,-159,-2041,12,-19,38,-5,124,-129,-59
,304,2023-10-27 12:17:49.28,203,-160,-2037,11,-29,56,-136,3,-139,66
,305,2023-10-27 12:17:49.29,187,-165,-2029,10,-76,51,-13,126,-139,-56
,306,2023-10-27 12:17:49.30,188,-166,-2040,5,-79,26,-145,-10,-135,77
,307,2023-10-27 12:17:49.31,198,-174,-2041,8,-87,29,-22,121,-143,-49
,308,2023-10-27 12:17:49.32,186,-165,-2034,12,-14,69,-152,-11,-141,81
,309,2023-10-27 12:17:49.33,197,-163,-2031,11,-30,83,-32,126,-158,-47
,310,2023-10-27 12:17:49.34,193,-156,-2043,8,-49,83,-163,-6,-157,84
,311,2023-10-27 12:17:49.35,191,-145,-2037,-4,-76,49,-44,123,-167,-39
,312,2023-10-27 12:17:49.36,191,-139,-2036,-12,-57,39,-158,-23,-135,90
,313,2023-10-27 12:17:49.37,196,-140,-2040,-19,4,65,-38,112,-150,-37
,314,2023-10-27 12:17:49.38,196,-133,-2059,-20,6,75,-152,-26,-126,89
,315,2023-10-27 12:17:49.39,192,-134,-2062,-26,-41,74,-30,119,-149,-44
,316,2023-10-27 12:17:49.40,194,-134,-2072,-37,-81,39,-140,-36,-104,88
,317,2023-10-27 12:17:49.41,194,-147,-2074,-37,-89,44,-26,117,-143,-45
,318,2023-10-27 12:17:49.42,191,-152,-2065,-35,-97,32,-140,-33,-107,86
,319,2023-10-27 12:17:49.43,175,-142,-2061,-33,-103,31,-26,122,-148,-48
,320,2023-10-27 12:17:49.44,187,-138,-2052,-27,-39,51,-131,-32,-99,81
,321,2023-10-27 12:17:49.45,183,-134,-2054,-24,-38,55,-11,122,-133,-55
,322,2023-10-27 12:17:49.46,182,-132,-2043,-24,-80,69,-110,-33,-77,71
,323,2023-10-27 12:17:49.47,185,-119,-2035,-31,-120,28,-12,116,-128,-52
,324,2023-10-27 12:17:49.48,193,-110,-2036,-34,-103,16,-97,-40,-57,68
,325,2023-10-27 12:17:49.49,185,-125,-2048,-37,-71,19,-1,109,-110,-54
,326,2023-10-27 12:17:49.50,186,-131,-2057,-29,-46,48,-97,-59,-38,78
,327,2023-10-27 12:17:49.51,177,-130,-2062,-23,-63,51,-15,97,-112,-41
,328,2023-10-27 12:17:49.52,177,-127,-2051,-13,-88,50,-99,-54,-45,76
,329,2023-10-27 12:17:49.53,172,-131,-2047,-15,-123,34,2,108,-106,-55
,330,2023-10-27 12:17:49.54,186,-128,-2045,-17,-112,10,-82,-60,-22,71
,331,2023-10-27 12:17:49.55,163,-138,-2054,-9,-139,14,3,95,-92,-49
,332,2023-10-27 12:17:49.56,155,-138,-2060,-4,-122,11,-89,-69,-20,79
,333,2023-10-27 12:17:49.57,160,-138,-2059,-2,-126,18,-18,96,-114,-39
,334,2023-10-27 12:17:49.58,150,-139,-2043,5,-88,38,-94,-63,-31,78
,335,2023-10-27 12:17:49.59,144,-143,-2043,14,-85,47,-16,106,-122,-45
,336,2023-10-27 12:17:49.60,161,-134,-2061,23,-97,72,-88,-64,-24,76
,337,2023-10-27 12:17:49.61,143,-132,-2042,12,-152,40,-7,112,-119,-52
,338,2023-10-27 12:17:49.62,167,-139,-2036,13,-154,31,-69,-62,-7,65
,339,2023-10-27 12:17:49.63,153,-128,-2048,15,-131,19,3,117,-114,-60
,340,2023-10-27 12:17:49.64,168,-135,-2035,21,-73,41,-70,-52,-18,61
,341,2023-10-27 12:17:49.65,159,-131,-2006,18,-100,21,-6,120,-126,-57
,342,2023-10-27 12:17:49.66,145,-125,-2064,30,-51,46,-70,-56,-14,63
,343,2023-10-27 12:17:49.67,139,-139,-2057,28,-75,61,-10,102,-112,-46
,344,2023-10-27 12:17:49.68,146,-138,-2065,22,-128,23,-71,-74,3,72
,345,2023-10-27 12:17:49.69,139,-135,-2063,23,-131,23,-20,100,-120,-40
,346,2023-10-27 12:17:49.70,128,-131,-2044,25,-97,23,-73,-64,-9,68
,347,2023-10-27 12:17:49.71,122,-147,-2058,37,-61,58,-26,114,-140,-44
,348,2023-10-27 12:17:49.72,106,-149,-2052,38,-55,60,-63,-62,-1,62
,349,2023-10-27 12:17:49.73,124,-136,-2040,41,-89,72,-14,116,-130,-51
,350,2023-10-27 12:17:49.74,119,-152,-2026,34,-128,55,-56,-60,4,58
,351,2023-10-27 12:17:49.75,117,-143,-2036,30,-131,43,-12,114,-126,-51
,352,2023-10-27 12:17:49.76,103,-139,-2035,29,-130,35,-63,-64,1,63
,353,2023-10-27 12:17:49.77,115,-138,-2029,28,-111,29,-33,112,-145,-39
,354,2023-10-27 12:17:49.78,121,-144,-2029,32,-49,64,-67,-58,-9,62
,355,2023-10-27 12:17:49.79,102,-153,-2015,23,-70,41,-29,114,-143,-42
,356,2023-10-27 12:17:49.80,112,-131,-2032,28,-32,59,-47,-58,11,52
,357,2023-10-27 12:17:49.81,116,-146,-2032,24,-41,71,-22,109,-131,-43
,358,2023-10-27 12:17:49.82,103,-143,-2044,19,-70,65,-52,-65,13,58
,359,2023-10-27 12:17:49.83,98,-141,-2055,19,-71,63,-40,107,-147,-33
,360,2023-10-27 12:17:49.84,109,-148,-2052,10,-90,47,-56,-69,13,62
,361,2023-10-27 12:17:49.85,106,-140,-2052,6,-84,24,-31,100,-131,-34
,362,2023-10-27 12:17:49.86,103,-142,-2043,3,-88,28,-38,-74,36,56
,363,2023-10-27 12:17:49.87,100,-149,-2057,-4,-72,24,-24,104,-128,-40
,364,2023-10-27 12:17:49.88,103,-138,-2063,-1,-16,48,-41,-61,20,51
,365,2023-10-27 12:17:49.89,101,-136,-2065,0,-9,56,-26,111,-137,-42
,366,2023-10-27 12:17:49.90,86,-137,-2063,5,-51,60,-45,-62,17,53
,367,2023-10-27 12:17:49.91,98,-150,-2067,-3,-88,40,-42,102,-144,-30
,368,2023-10-27 12:17:49.92,91,-149,-2066,-1,-66,22,-47,-75,28,61
,369,2023-10-27 12:17:49.93,95,-148,-2039,2,-68,18,-38,96,-134,-29
,370,2023-10-27 12:17:49.94,93,-155,-2030,21,-23,55,-25,-67,42,46
,371,2023-10-27 12:17:49.95,84,-146,-2026,28,-44,62,-34,114,-148,-40
,372,2023-10-27 12:17:49.96,101,-133,-2048,30,-25,66,-28,-48,20,38
,373,2023-10-27 12:17:49.97,82,-153,-2044,29,-62,54,-41,113,-154,-36
,374,2023-10-27 12:17:49.98,80,-157,-2042,18,-89,35,-43,-58,15,50
,375,2023-10-27 12:17:49.99,91,-147,-2036,24,-90,21,-47,102,-149,-27
,376,2023-10-27 12:17:50.00,79,-147,-2047,22,-82,18,-21,-54,33,37
,377,2023-10-27 12:17:50.01,75,-146,-2043,15,-36,33,-44,102,-146,-29
,378,2023-10-27 12:17:50.02,77,-150,-2059,20,-31,70,-15,-45,30,30
,379,2023-10-27 12:17:50.03,76,-155,-2060,22,-35,75,-41,93,-134,-26
,380,2023-10-27 12:17:50.04,66,-145,-2074,17,-88,55,-3,-60,57,31
,381,2023-10-27 12:17:50.05,62,-148,-2053,7,-94,38,-34,96,-130,-31
,382,2023-10-27 12:17:50.06,74,-145,-2045,3,-90,35,-7,-45,38,26
,383,2023-10-27 12:17:50.07,65,-145,-2059,-2,-66,38,-56,106,-162,-25
,384,2023-10-27 12:17:50.08,60,-152,-2054,-1,-20,57,-7,-38,31,22
,385,2023-10-27 12:17:50.09,72,-143,-2052,4,-14,83,-32,96,-128,-32
,386,2023-10-27 12:17:50.10,55,-148,-2048,6,-34,82,16,-43,59,13
,387,2023-10-27 12:17:50.11,60,-143,-2043,-4,-68,58,-34,82,-116,-24
,388,2023-10-27 12:17:50.12,50,-143,-2053,-5,-63,39,14,-48,62,17
,389,2023-10-27 12:17:50.13,60,-145,-2047,-4,-62,38,-49,85,-134,-18
,390,2023-10-27 12:17:50.14,55,-142,-2045,-4,-23,52,-1,-37,36,19
,391,2023-10-27 12:17:50.15,56,-142,-2039,1,5,72,-56,91,-147,-17
,392,2023-10-27 12:17:50.16,48,-156,-2055,1,-35,80,16,-32,48,8
,393,2023-10-27 12:17:50.17,51,-144,-2059,4,-42,82,-40,96,-136,-28
,394,2023-10-27 12:17:50.18,60,-152,-2050,3,-85,56,30,-24,54,-3
,395,2023-10-27 12:17:50.19,48,-151,-2041,8,-81,41,-33,85,-118,-26
,396,2023-10-27 12:17:50.20,49,-143,-2041,9,-75,40,21,-31,52,5
,397,2023-10-27 12:17:50.21,39,-150,-2054,10,-75,35,-53,77,-130,-12
,398,2023-10-27 12:17:50.22,52,-142,-2053,15,-19,54,4,-24,28,10
,399,2023-10-27 12:17:50.23,61,-153,-2058,29,-2,75,-68,80,-148,-6
,400,2023-10-27 12:17:50.24,41,-153,-2049,29,-9,74,23,-18,41,-2
,401,2023-10-27 12:17:50.25,46,-157,-2046,30,-44,76,-52,79,-131,-13
,402,2023-10-27 12:17:50.26,47,-153,-2044,20,-76,39,36,-16,52,-10
,403,2023-10-27 12:17:50.27,35,-161,-2051,23,-77,36,-50,71,-121,-10
,404,2023-10-27 12:17:50.28,46,-152,-2038,28,-69,31,38,-22,60,-8
,405,2023-10-27 12:17:50.29,42,-156,-2048,31,-19,43,-57,74,-131,-8
,406,2023-10-27 12:17:50.30,38,-156,-2050,37,7,56,34,0,34,-17
,407,2023-10-27 12:17:50.31,46,-156,-2041,38,7,59,-64,70,-134,-3
,408,2023-10-27 12:17:50.32,41,-148,-2044,40,-32,54,22,-11,33,-5
,409,2023-10-27 12:17:50.33,36,-156,-2045,33,-56,29,-73,50,-123,11
,410,2023-10-27 12:17:50.34,34,-156,-2043,35,-49,32,35,-12,47,-11
,411,2023-10-27 12:17:50.35,39,-159,-2045,38,-51,6,-65,56,-121,4
,412,2023-10-27 12:17:50.36,43,-161,-2041,40,-24,8,32,-8,40,-12
,413,2023-10-27 12:17:50.37,48,-156,-2042,40,-24,1,-70,58,-128,6
,414,2023-10-27 12:17:50.38,44,-154,-2040,47,28,31,35,-2,37,-16
,415,2023-10-27 12:17:50.39,41,-151,-2043,47,18,41,-76,62,-138,7
,416,2023-10-27 12:17:50.40,54,-165,-2046,31,-31,13,32,3,29,-17
,417,2023-10-27 12:17:50.41,45,-175,-2067,27,-32,20,-75,61,-136,7
,418,2023-10-27 12:17:50.42,39,-175,-2073,26,-40,1,35,11,24,-23
,419,2023-10-27 12:17:50.43,55,-161,-2071,28,-8,23,-78,51,-129,13
,420,2023-10-27 12:17:50.44,18,-165,-2059,21,-3,28,32,3,29,-17
,421,2023-10-27 12:17:50.45,43,-173,-2058,18,21,54,-86,47,-133,19
,422,2023-10-27 12:17:50.46,24,-160,-2059,14,25,61,43,17,26,-30
,423,2023-10-27 12:17:50.47,25,-155,-2053,10,-12,72,-71,50,-121,10
,424,2023-10-27 12:17:50.48,17,-146,-2050,3,11,68,49,19,30,-34
,425,2023-10-27 12:17:50.49,4,-153,-2045,-2,-11,71,-87,56,-143,15
,426,2023-10-27 12:17:50.50,20,-143,-2031,-10,-46,49,42,36,6,-39
,427,2023-10-27 12:17:50.51,20,-148,-2040,-11,-44,47,-80,57,-137,11
,428,2023-10-27 12:17:50.52,16,-144,-2038,-18,-54,30,49,29,20,-39
,429,2023-10-27 12:17:50.53,28,-135,-2039,-19,-52,24,-86,49,-135,18
,430,2023-10-27 12:17:50.54,17,-142,-2041,-22,-31,10,46,29,17,-37
,431,2023-10-27 12:17:50.55,21,-139,-2044,-12,21,53,-84,47,-131,18
,432,2023-10-27 12:17:50.56,11,-149,-2050,-9,2,49,54,34,20,-44
,433,2023-10-27 12:17:50.57,20,-152,-2055,-4,12,46,-76,44,-120,16
,434,2023-10-27 12:17:50.58,16,-152,-2049,-5,-29,23,67,36,31,-51
,435,2023-10-27 12:17:50.59,19,-151,-2035,4,-5,38,-61,38,-99,11
,436,2023-10-27 12:17:50.60,16,-138,-2032,-1,-32,10,77,35,42,-56
,437,2023-10-27 12:17:50.61,12,-144,-2041,-4,-29,-7,-80,25,-105,27
,438,2023-10-27 12:17:50.62,28,-129,-2057,-6,-26,-9,51,34,17,-42
,439,2023-10-27 12:17:50.63,35,-140,-2061,-7,-14,-17,-96,21,-117,37
,440,2023-10-27 12:17:50.64,31,-137,-2062,-7,27,-7,44,38,6,-41
,441,2023-10-27 12:17:50.65,31,-139,-2064,-6,41,-3,-105,23,-128,41
,442,2023-10-27 12:17:50.66,17,-152,-2063,3,57,2,39,44,-5,-41
,443,2023-10-27 12:17:50.67,19,-145,-2060,8,60,20,-105,28,-133,38
,444,2023-10-27 12:17:50.68,23,-148,-2046,10,1,12,54,52,2,-53
,445,2023-10-27 12:17:50.69,14,-159,-2045,22,24,28,-90,30,-120,30
,446,2023-10-27 12:17:50.70,16,-161,-2046,16,-22,5,64,58,6,-61
,447,2023-10-27 12:17:50.71,26,-142,-2057,26,-32,-8,-78,32,-110,23
,448,2023-10-27 12:17:50.72,20,-154,-2051,25,-19,-12,70,50,20,-60
,449,2023-10-27 12:17:50.73,22,-168,-2022,18,-1,-5,-78,1,-79,38
,450,2023-10-27 12:17:50.74,15,-162,-2047,26,25,5,60,35,25,-47
,451,2023-10-27 12:17:50.75,30,-164,-2043,32,59,22,-88,-1,-87,44
,452,2023-10-27 12:17:50.76,26,-159,-2045,38,65,29,61,54,7,-57
,453,2023-10-27 12:17:50.77,23,-163,-2045,37,60,45,-101,3,-104,49
,454,2023-10-27 12:17:50.78,16,-156,-2046,34,5,40,61,66,-5,-63
,455,2023-10-27 12:17:50.79,31,-162,-2045,33,3,40,-90,8,-98,41
,456,2023-10-27 12:17:50.80,24,-162,-2052,25,-16,15,75,67,8,-71
,457,2023-10-27 12:17:50.81,24,-168,-2048,27,-13,33,-80,18,-98,31
,458,2023-10-27 12:17:50.82,32,-172,-2037,29,-13,19,77,83,-6,-80
,459,2023-10-27 12:17:50.83,17,-169,-2039,30,-12,21,-88,19,-107,34
,460,2023-10-27 12:17:50.84,27,-164,-2038,22,19,17,64,80,-16,-72
,461,2023-10-27 12:17:50.85,33,-156,-2040,28,76,32,-84,-1,-83,42
,462,2023-10-27 12:17:50.86,46,-149,-2040,17,72,16,73,71,2,-72
,463,2023-10-27 12:17:50.87,36,-142,-2050,16,88,34,-83,-7,-76,45
,464,2023-10-27 12:17:50.88,60,-130,-2043,6,42,18,57,79,-22,-68
,465,2023-10-27 12:17:50.89,46,-138,-2056,-2,49,9,-104,-6,-98,55
,466,2023-10-27 12:17:50.90,36,-135,-2061,-13,15,-23,56,82,-26,-69
,467,2023-10-27 12:17:50.91,44,-143,-2061,-15,2,-41,-92,-12,-80,52
,468,2023-10-27 12:17:50.92,33,-151,-2057,-17,32,-39,76,76,0,-76
,469,2023-10-27 12:17:50.93,56,-154,-2071,-18,9,-49,-84,-14,-70,49
,470,2023-10-27 12:17:50.94,47,-156,-2056,-8,62,-17,69,80,-11,-74
,471,2023-10-27 12:17:50.95,31,-162,-2057,-2,25,-4,-96,-16,-80,56
,472,2023-10-27 12:17:50.96,37,-157,-2062,3,28,0,37,81,-44,-59
,473,2023-10-27 12:17:50.97,49,-155,-2068,0,-24,-23,-105,-17,-88,61
,474,2023-10-27 12:17:50.98,39,-155,-2068,2,-38,-29,58,87,-29,-72
,475,2023-10-27 12:17:50.99,20,-163,-2044,4,-28,-37,-92,-26,-66,59
,476,2023-10-27 12:17:51.00,25,-177,-2040,18,7,-22,49,87,-38,-68
,477,2023-10-27 12:17:51.01,25,-177,-2040,18,7,-22,-105,-26,-79,65
,478,2023-10-27 12:17:51.02,23,-177,-2028,38,45,21,50,94,-44,-72
,479,2023-10-27 12:17:51.03,21,-172,-2030,39,4,12,-98,-22,-76,60
,480,2023-10-27 12:17:51.04,25,-180,-2036,36,-6,-1,56,96,-40,-76
,481,2023-10-27 12:17:51.05,34,-180,-2038,35,-5,-9,-90,-32,-58,61
,482,2023-10-27 12:17:51.06,44,-170,-2031,36,1,-24,53,88,-35,-70
,483,2023-10-27 12:17:51.07,43,-176,-2033,33,33,-16,-104,-30,-74,67
,484,2023-10-27 12:17:51.08,32,-180,-2046,37,76,3,29,102,-73,-65
,485,2023-10-27 12:17:51.09,35,-178,-2043,42,87,25,-102,-19,-83,60
,486,2023-10-27 12:17:51.10,48,-179,-2035,41,74,34,53,112,-59,-82
,487,2023-10-27 12:17:51.11,33,-174,-2044,30,29,1,-89,-30,-59,59
,488,2023-10-27 12:17:51.12,39,-170,-2044,28,32,7,46,113,-67,-79
,489,2023-10-27 12:17:51.13,62,-175,-2045,23,26,-14,-109,-35,-74,72
,490,2023-10-27 12:17:51.14,56,-176,-2042,18,52,-15,35,108,-73,-71
,491,2023-10-27 12:17:51.15,61,-169,-2042,14,48,-22,-91,-49,-42,70
,492,2023-10-27 12:17:51.16,66,-177,-2054,16,92,-4,46,96,-50,-71
,493,2023-10-27 12:17:51.17,60,-167,-2054,14,90,15,-88,-48,-40,68
,494,2023-10-27 12:17:51.18,65,-164,-2067,7,73,16,30,93,-63,-61
,495,2023-10-27 12:17:51.19,69,-165,-2063,-1,36,3,-102,-56,-46,79
,496,2023-10-27 12:17:51.20,66,-162,-2060,-10,24,-3,22,96,-74,-59
,497,2023-10-27 12:17:51.21,58,-160,-2056,-23,0,-31,-98,-54,-44,76
,498,2023-10-27 12:17:51.22,65,-162,-2060,-32,-9,-22,32,106,-74,-69
,499,2023-10-27 12:17:51.23,62,-157,-2056,-36,3,-35,-95,-53,-42,74
,500,2023-10-27 12:17:51.24,73,-158,-2059,-38,34,-24,20,104,-84,-62
,501,2023-10-27 12:17:51.25,62,-151,-2058,-39,22,-26,-89,-57,-32,73
,502,2023-10-27 12:17:51.26,62,-157,-2047,-34,50,-9,32,104,-72,-68
,503,2023-10-27 12:17:51.27,62,-164,-2043,-30,55,8,-80,-62,-18,71
,504,2023-10-27 12:17:51.28,67,-164,-2048,-23,52,15,33,99,-66,-66
,505,2023-10-27 12:17:51.29,61,-170,-2054,-19,3,12,-84,-63,-21,73
,506,2023-10-27 12:17:51.30,62,-161,-2043,-13,10,21,24,97,-73,-60
,507,2023-10-27 12:17:51.31,56,-158,-2046,-16,-29,-17,-78,-67,-11,72
,508,2023-10-27 12:17:51.32,60,-156,-2051,-16,-29,-4,20,96,-76,-58
,509,2023-10-27 12:17:51.33,62,-160,-2053,-12,-27,-22,-76,-66,-10,71
,510,2023-10-27 12:17:51.34,59,-157,-2039,-10,8,-17,14,105,-91,-59
,511,2023-10-27 12:17:51.35,65,-162,-2036,-10,-2,-22,-80,-54,-26,67
,512,2023-10-27 12:17:51.36,62,-163,-2037,-2,42,-9,14,116,-102,-65
,513,2023-10-27 12:17:51.37,78,-160,-2031,10,60,4,-71,-64,-7,67
,514,2023-10-27 12:17:51.38,65,-156,-2024,14,76,0,21,105,-84,-63
,515,2023-10-27 12:17:51.39,77,-156,-2027,15,62,6,-76,-70,-6,73
,516,2023-10-27 12:17:51.40,79,-164,-2041,18,36,-2,2,105,-103,-53
,517,2023-10-27 12:17:51.41,67,-167,-2056,14,4,-38,-79,-65,-14,72
,518,2023-10-27 12:17:51.42,67,-157,-2049,20,22,-11,7,105,-98,-56
,519,2023-10-27 12:17:51.43,78,-153,-2043,12,0,-37,-67,-69,2,68
,520,2023-10-27 12:17:51.44,88,-155,-2062,12,28,-21,12,105,-93,-58
,521,2023-10-27 12:17:51.45,74,-147,-2056,0,15,-41,-64,-59,-5,61
,522,2023-10-27 12:17:51.46,96,-157,-2053,-6,16,-49,0,112,-112,-56
,523,2023-10-27 12:17:51.47,85,-158,-2044,-12,21,-68,-64,-62,-2,63
,524,2023-10-27 12:17:51.48,87,-162,-2042,-17,79,-45,-16,106,-122,-45
,525,2023-10-27 12:17:51.49,85,-157,-2047,-20,90,-32,-70,-68,-2,69
,526,2023-10-27 12:17:51.50,98,-154,-2047,-22,88,-13,-6,105,-111,-49
,527,2023-10-27 12:17:51.51,101,-155,-2051,-33,75,-38,-59,-69,10,64
,528,2023-10-27 12:17:51.52,101,-151,-2051,-36,95,-15,-2,112,-114,-55
,529,2023-10-27 12:17:51.53,107,-150,-2058,-38,96,-7,-47,-54,7,50
,530,2023-10-27 12:17:51.54,100,-152,-2062,-39,85,1,-17,105,-122,-44
,531,2023-10-27 12:17:51.55,100,-145,-2057,-43,24,-17,-69,-76,7,72
,532,2023-10-27 12:17:51.56,92,-143,-2056,-35,33,-8,-23,94,-117,-35
,533,2023-10-27 12:17:51.57,97,-139,-2063,-40,11,-27,-53,-65,12,59
,534,2023-10-27 12:17:51.58,109,-137,-2056,-32,7,-25,-10,105,-115,-47
,535,2023-10-27 12:17:51.59,105,-133,-2051,-28,2,-47,-44,-67,23,55
,536,2023-10-27 12:17:51.60,111,-136,-2048,-16,-2,-49,-23,97,-120,-37
,537,2023-10-27 12:17:51.61,97,-138,-2049,-5,7,-57,-49,-70,21,59
,538,2023-10-27 12:17:51.62,101,-134,-2047,6,54,-46,-32,82,-114,-25
,539,2023-10-27 12:17:51.63,88,-131,-2047,11,41,-54,-36,-76,40,56
,540,2023-10-27 12:17:51.64,97,-143,-2048,32,71,-30,-20,88,-108,-34
,541,2023-10-27 12:17:51.65,92,-140,-2046,40,36,-21,-35,-82,47,58
,542,2023-10-27 12:17:51.66,93,-137,-2063,51,51,-21,-33,88,-121,-27
,543,2023-10-27 12:17:51.67,95,-127,-2050,53,0,-35,-48,-70,22,59
,544,2023-10-27 12:17:51.68,88,-142,-2023,51,-14,-51,-35,96,-131,-30
,545,2023-10-27 12:17:51.69,94,-137,-2056,56,-16,-74,-37,-73,36,55
,546,2023-10-27 12:17:51.70,97,-142,-2049,59,-17,-78,-27,82,-109,-27
,547,2023-10-27 12:17:51.71,96,-145,-2050,62,21,-60,-29,-75,46,52
,548,2023-10-27 12:17:51.72,89,-147,-2057,68,44,-33,-36,85,-121,-24
,549,2023-10-27 12:17:51.73,107,-148,-2069,66,39,-29,-32,-64,32,48
,550,2023-10-27 12:17:51.74,101,-148,-2052,62,-10,-27,-44,89,-133,-22
,551,2023-10-27 12:17:51.75,92,-156,-2057,66,-10,-23,-25,-61,36,43
,552,2023-10-27 12:17:51.76,82,-161,-2062,62,-48,-32,-42,92,-134,-25
,553,2023-10-27 12:17:51.77,94,-170,-2062,64,-63,-33,-24,-63,39,43
,554,2023-10-27 12:17:51.78,89,-172,-2054,66,-73,-43,-48,93,-141,-22
,555,2023-10-27 12:17:51.79,81,-175,-2045,73,-17,-23,-29,-57,28,43
,556,2023-10-27 12:17:51.80,88,-170,-2041,72,-78,-36,-54,96,-150,-21
,557,2023-10-27 12:17:51.81,94,-174,-2041,77,-41,-35,-26,-56,30,41
,558,2023-10-27 12:17:51.82,103,-179,-2037,91,0,-14,-50,81,-131,-15
,559,2023-10-27 12:17:51.83,102,-182,-2035,101,9,-6,-18,-59,41,38
,560,2023-10-27 12:17:51.84,95,-181,-2041,112,-11,1,-65,83,-148,-9
,561,2023-10-27 12:17:51.85,102,-187,-2047,115,-54,-17,-21,-45,24,33
,562,2023-10-27 12:17:51.86,95,-181,-2047,118,-72,-42,-64,96,-160,-16
,563,2023-10-27 12:17:51.87,89,-185,-2046,127,-74,-49,-13,-34,21,23
,564,2023-10-27 12:17:51.88,96,-190,-2053,137,-59,-54,-75,90,-165,-7
,565,2023-10-27 12:17:51.89,103,-194,-2045,148,-49,-53,-15,-47,32,31
,566,2023-10-27 12:17:51.90,84,-196,-2043,160,-52,-55,-83,78,-161,2
,567,2023-10-27 12:17:51.91,88,-194,-2036,177,-2,-37,-22,-47,25,34
,568,2023-10-27 12:17:51.92,91,-204,-2049,182,6,-32,-86,84,-170,1
,569,2023-10-27 12:17:51.93,91,-199,-2033,194,10,-13,-24,-36,12,30
,570,2023-10-27 12:17:51.94,81,-217,-2043,209,15,-8,-97,86,-183,5
,571,2023-10-27 12:17:51.95,96,-218,-2062,223,-13,2,-31,-41,10,36
,572,2023-10-27 12:17:51.96,82,-207,-2042,222,-32,2,-108,75,-183,16
,573,2023-10-27 12:17:51.97,72,-210,-2038,220,-18,8,-31,-34,3,32
,574,2023-10-27 12:17:51.98,84,-205,-2051,219,-37,3,-122,74,-196,24
,575,2023-10-27 12:17:51.99,80,-223,-2051,208,-61,-15,-36,-29,-7,32
,576,2023-10-27 12:17:52.00,76,-208,-2041,197,-61,-16,-138,64,-202,37
,577,2023-10-27 12:17:52.01,68,-231,-2042,193,-51,-25,-34,-23,-11,28
,578,2023-10-27 12:17:52.02,78,-234,-2041,191,-43,-27,-135,74,-209,30
,579,2023-10-27 12:17:52.03,81,-248,-2040,193,18,4,-34,-18,-16,26
,580,2023-10-27 12:17:52.04,75,-250,-2036,182,13,1,-138,77,-215,30
,581,2023-10-27 12:17:52.05,66,-259,-2034,186,37,27,-45,-16,-29,30
,582,2023-10-27 12:17:52.06,69,-272,-2034,185,5,41,-157,67,-224,45
,583,2023-10-27 12:17:52.07,70,-257,-2026,185,-1,48,-56,-22,-34,39
,584,2023-10-27 12:17:52.08,59,-270,-2013,176,-16,39,-162,59,-221,51
,585,2023-10-27 12:17:52.09,54,-276,-2013,166,-27,21,-50,-16,-34,33
,586,2023-10-27 12:17:52.10,70,-272,-2005,161,-31,22,-166,69,-235,48
,587,2023-10-27 12:17:52.11,60,-288,-2017,153,-15,22,-51,6,-57,22
,588,2023-10-27 12:17:52.12,74,-300,-2024,144,-1,22,-173,63,-236,55
,589,2023-10-27 12:17:52.13,62,-265,-2016,138,55,44,-67,-4,-63,35
,590,2023-10-27 12:17:52.14,75,-291,-2024,126,45,39,-200,64,-264,68
,591,2023-10-27 12:17:52.15,75,-283,-2021,125,86,60,-68,11,-79,28
,592,2023-10-27 12:17:52.16,77,-283,-2027,119,96,68,-190,64,-254,63
,593,2023-10-27 12:17:52.17,87,-288,-2027,106,107,70,-69,4,-73,32
,594,2023-10-27 12:17:52.18,93,-284,-2033,91,95,78,-209,66,-275,71
,595,2023-10-27 12:17:52.19,76,-282,-2028,84,87,81,-78,21,-99,28
,596,2023-10-27 12:17:52.20,84,-290,-2032,73,76,79,-201,65,-266,68
,597,2023-10-27 12:17:52.21,86,-291,-2046,61,70,81,-68,14,-82,27
,598,2023-10-27 12:17:52.22,94,-282,-2041,43,40,69,-210,60,-270,75
,599,2023-10-27 12:17:52.23,96,-279,-2044,27,29,38,-81,25,-106,28
,600,2023-10-27 12:17:52.24,97,-288,-2049,11,25,38,-218,67,-285,75
,601,2023-10-27 12:17:52.25,86,-287,-2063,-6,49,40,-78,38,-116,20
,602,2023-10-27 12:17:52.26,88,-286,-2055,-20,87,57,-218,69,-287,74
,603,2023-10-27 12:17:52.27,91,-293,-2060,-24,95,68,-74,42,-116,16
,604,2023-10-27 12:17:52.28,99,-292,-2057,-35,89,78,-220,57,-277,81
,605,2023-10-27 12:17:52.29,101,-288,-2057,-46,74,91,-75,35,-110,20
,606,2023-10-27 12:17:52.30,92,-286,-2038,-60,50,92,-221,45,-266,88
,607,2023-10-27 12:17:52.31,85,-280,-2042,-65,37,96,-77,31,-108,23
,608,2023-10-27 12:17:52.32,102,-284,-2043,-75,0,80,-230,55,-285,87
,609,2023-10-27 12:17:52.33,94,-281,-2039,-85,-10,52,-88,46,-134,21
,610,2023-10-27 12:17:52.34,93,-280,-2038,-92,-19,56,-230,58,-288,86
,611,2023-10-27 12:17:52.35,84,-279,-2031,-99,3,57,-79,62,-141,8
,612,2023-10-27 12:17:52.36,80,-277,-2029,-93,37,78,-235,42,-277,96
,613,2023-10-27 12:17:52.37,89,-275,-2012,-93,55,90,-89,44,-133,22
,614,2023-10-27 12:17:52.38,86,-277,-2011,-97,49,96,-240,33,-273,103
,615,2023-10-27 12:17:52.39,80,-276,-2030,-103,24,105,-77,58,-135,9
,616,2023-10-27 12:17:52.40,78,-274,-2040,-118,-17,83,-227,38,-265,94
,617,2023-10-27 12:17:52.41,91,-264,-2032,-122,-25,79,-86,44,-130,21
,618,2023-10-27 12:17:52.42,86,-263,-2030,-129,-22,72,-241,39,-280,101
,619,2023-10-27 12:17:52.43,97,-257,-2038,-140,26,82,-101,62,-163,19
,620,2023-10-27 12:17:52.44,81,-261,-2048,-146,46,92,-256,50,-306,103
,621,2023-10-27 12:17:52.45,92,-257,-2045,-144,60,106,-92,74,-166,9
,622,2023-10-27 12:17:52.46,88,-250,-2045,-147,64,121,-229,44,-273,92
,623,2023-10-27 12:17:52.47,94,-251,-2056,-149,56,135,-81,71,-152,5
,624,2023-10-27 12:17:52.48,88,-242,-2053,-150,53,130,-236,38,-274,99
,625,2023-10-27 12:17:52.49,91,-236,-2041,-145,42,149,-100,71,-171,14
,626,2023-10-27 12:17:52.50,85,-227,-2044,-146,11,148,-250,23,-273,113
,627,2023-10-27 12:17:52.51,88,-216,-2044,-143,29,153,-102,69,-171,16
,628,2023-10-27 12:17:52.52,80,-209,-2048,-150,0,141,-251,27,-278,112
,629,2023-10-27 12:17:52.53,83,-211,-2036,-153,-17,127,-113,78,-191,17
,630,2023-10-27 12:17:52.54,98,-202,-2032,-143,23,145,-265,23,-288,121
,631,2023-10-27 12:17:52.55,92,-198,-2038,-141,26,147,-110,79,-189,15
,632,2023-10-27 12:17:52.56,92,-195,-2030,-145,39,140,-256,15,-271,120
,633,2023-10-27 12:17:52.57,96,-197,-2045,-141,12,123,-104,79,-183,12
,634,2023-10-27 12:17:52.58,105,-194,-2050,-135,27,132,-251,19,-270,116
,635,2023-10-27 12:17:52.59,97,-195,-2059,-132,3,116,-94,88,-182,3
,636,2023-10-27 12:17:52.60,89,-192,-2055,-130,-14,106,-243,22,-265,110
,637,2023-10-27 12:17:52.61,87,-184,-2055,-122,-1,115,-101,91,-192,5
,638,2023-10-27 12:17:52.62,79,-179,-2051,-120,-16,101,-249,15,-264,117
,639,2023-10-27 12:17:52.63,86,-178,-2051,-115,-15,84,-106,86,-192,10
,640,2023-10-27 12:17:52.64,86,-170,-2053,-113,-14,80,-248,13,-261,117
,641,2023-10-27 12:17:52.65,82,-175,-2045,-107,13,86,-106,94,-200,6
,642,2023-10-27 12:17:52.66,79,-166,-2049,-101,4,79,-236,0,-236,118
,643,2023-10-27 12:17:52.67,91,-161,-2046,-92,36,103,-98,84,-182,7
,644,2023-10-27 12:17:52.68,90,-163,-2045,-92,-29,63,-243,-1,-242,122
,645,2023-10-27 12:17:52.69,86,-161,-2045,-85,-1,64,-111,96,-207,7
,646,2023-10-27 12:17:52.70,92,-158,-2037,-81,10,63,-244,-1,-243,122
,647,2023-10-27 12:17:52.71,101,-165,-2041,-70,3,55,-111,100,-211,5
,648,2023-10-27 12:17:52.72,96,-165,-2044,-67,18,55,-247,-5,-242,126
,649,2023-10-27 12:17:52.73,90,-163,-2040,-55,52,68,-114,103,-217,5
,650,2023-10-27 12:17:52.74,103,-166,-2041,-49,47,74,-245,-7,-238,126
,651,2023-10-27 12:17:52.75,90,-166,-2046,-45,59,64,-119,104,-223,7
,652,2023-10-27 12:17:52.76,83,-161,-2048,-41,53,68,-243,-2,-241,122
,653,2023-10-27 12:17:52.77,92,-154,-2046,-37,18,61,-117,99,-216,9
,654,2023-10-27 12:17:52.78,94,-154,-2035,-37,62,53,-244,-21,-223,132
,655,2023-10-27 12:17:52.79,97,-160,-2034,-37,44,55,-125,89,-214,18
,656,2023-10-27 12:17:52.80,84,-163,-2053,-37,34,50,-244,-19,-225,131
,657,2023-10-27 12:17:52.81,83,-166,-2055,-40,8,35,-125,99,-224,13
,658,2023-10-27 12:17:52.82,86,-167,-2050,-35,15,43,-246,-29,-217,137
,659,2023-10-27 12:17:52.83,100,-166,-2047,-41,-9,21,-132,98,-230,17
,660,2023-10-27 12:17:52.84,92,-157,-2047,-42,-9,-1,-240,-29,-211,134
,661,2023-10-27 12:17:52.85,102,-152,-2048,-43,-5,-2,-125,104,-229,10
,662,2023-10-27 12:17:52.86,90,-143,-2046,-40,4,-12,-234,-24,-210,129
,663,2023-10-27 12:17:52.87,87,-152,-2041,-43,30,-18,-128,112,-240,8
,664,2023-10-27 12:17:52.88,104,-153,-2038,-44,43,-14,-234,-32,-202,133
,665,2023-10-27 12:17:52.89,96,-152,-2037,-42,64,-12,-127,108,-235,9
,666,2023-10-27 12:17:52.90,96,-152,-2036,-35,93,3,-232,-30,-202,131
,667,2023-10-27 12:17:52.91,101,-139,-2030,-34,67,14,-130,117,-247,6
,668,2023-10-27 12:17:52.92,120,-136,-2030,-39,90,15,-227,-16,-211,121
,669,2023-10-27 12:17:52.93,107,-145,-2030,-44,56,-4,-130,128,-258,1
,670,2023-10-27 12:17:52.94,105,-139,-2049,-51,48,-27,-218,-17,-201,117
,671,2023-10-27 12:17:52.95,118,-146,-2044,-56,44,-45,-128,122,-250,3
,672,2023-10-27 12:17:52.96,103,-133,-2049,-58,60,-56,-216,-33,-183,124
,673,2023-10-27 12:17:52.97,108,-140,-2046,-55,89,-48,-130,115,-245,7
,674,2023-10-27 12:17:52.98,123,-138,-2049,-48,120,-31,-213,-35,-178,124
,675,2023-10-27 12:17:52.99,126,-144,-2053,-48,119,-24,-141,112,-253,14
,676,2023-10-27 12:17:53.00,114,-139,-2062,-42,96,-16,-214,-50,-164,132
,677,2023-10-27 12:17:53.01,113,-135,-2049,-43,63,-36,-131,105,-236,13
,678,2023-10-27 12:17:53.02,131,-127,-2047,-41,43,-66,-204,-48,-156,126
,679,2023-10-27 12:17:53.03,124,-132,-2050,-38,37,-60,-142,119,-261,11
,680,2023-10-27 12:17:53.04,141,-133,-2045,-36,31,-58,-221,-43,-178,132
,681,2023-10-27 12:17:53.05,133,-127,-2051,-30,44,-40,-152,121,-273,15
,682,2023-10-27 12:17:53.06,134,-124,-2047,-35,28,-63,-212,-42,-170,127
,683,2023-10-27 12:17:53.07,138,-124,-2049,-31,63,-63,-147,119,-266,14
,684,2023-10-27 12:17:53.08,134,-127,-2059,-29,50,-64,-210,-55,-155,132
,685,2023-10-27 12:17:53.09,137,-129,-2063,-25,67,-53,-151,112,-263,19
,686,2023-10-27 12:17:53.10,147,-120,-2054,-16,70,-48,-207,-51,-156,129
,687,2023-10-27 12:17:53.11,147,-127,-2054,-7,79,-37,-146,115,-261,15
,688,2023-10-27 12:17:53.12,148,-123,-2054,-7,72,-44,-193,-49,-144,121
,689,2023-10-27 12:17:53.13,142,-129,-2055,0,95,-26,-154,111,-265,21
,690,2023-10-27 12:17:53.14,151,-129,-2049,4,46,-21,-191,-58,-133,124
,691,2023-10-27 12:17:53.15,140,-131,-2056,9,85,-20,-153,102,-255,25
,692,2023-10-27 12:17:53.16,138,-135,-2046,12,55,-20,-189,-65,-124,127
,693,2023-10-27 12:17:53.17,147,-130,-2045,14,42,-25,-153,121,-274,16
,694,2023-10-27 12:17:53.18,146,-139,-2052,17,27,-29,-186,-52,-134,119
,695,2023-10-27 12:17:53.19,139,-133,-2047,21,22,-31,-158,123,-281,17
,696,2023-10-27 12:17:53.20,138,-127,-2049,18,5,-44,-184,-52,-132,118
,697,2023-10-27 12:17:53.21,147,-121,-2042,22,16,-52,-162,124,-286,19
,698,2023-10-27 12:17:53.22,140,-131,-2042,22,14,-53,-183,-54,-129,118
,699,2023-10-27 12:17:53.23,137,-129,-2043,18,43,-45,-161,122,-283,19
,700,2023-10-27 12:17:53.24,151,-132,-2045,16,24,-54,-179,-49,-130,114
,701,2023-10-27 12:17:53.25,152,-131,-2034,16,64,-35,-164,124,-288,20
,702,2023-10-27 12:17:53.26,157,-127,-2027,10,33,-53,-183,-59,-124,121
,703,2023-10-27 12:17:53.27,158,-127,-2040,8,68,-42,-162,123,-285,19
,704,2023-10-27 12:17:53.28,167,-118,-2039,10,103,-28,-172,-42,-130,107
,705,2023-10-27 12:17:53.29,165,-132,-2050,4,81,-39,-176,126,-302,25
,706,2023-10-27 12:17:53.30,155,-130,-2053,4,86,-31,-174,-43,-131,108
,707,2023-10-27 12:17:53.31,165,-133,-2053,4,78,-36,-181,121,-302,30
,708,2023-10-27 12:17:53.32,149,-131,-2045,6,87,-18,-167,-48,-119,107
,709,2023-10-27 12:17:53.33,159,-124,-2053,0,21,-39,-173,117,-290,28
,710,2023-10-27 12:17:53.34,163,-127,-2043,-2,24,-39,-158,-51,-107,104
,711,2023-10-27 12:17:53.35,164,-129,-2044,2,34,-15,-177,111,-288,33
,712,2023-10-27 12:17:53.36,167,-124,-2047,-6,19,-39,-156,-59,-97,107
,713,2023-10-27 12:17:53.37,171,-126,-2050,-4,29,-24,-182,106,-288,38
,714,2023-10-27 12:17:53.38,161,-126,-2052,-13,20,-41,-158,-53,-105,105
,715,2023-10-27 12:17:53.39,160,-117,-2051,-15,41,-51,-181,114,-295,33
,716,2023-10-27 12:17:53.40,178,-106,-2046,-14,30,-57,-150,-51,-99,100
,717,2023-10-27 12:17:53.41,173,-124,-2052,-19,65,-50,-184,111,-295,36
,718,2023-10-27 12:17:53.42,174,-116,-2057,-16,88,-34,-153,-58,-95,105
,719,2023-10-27 12:17:53.43,178,-121,-2052,-11,96,-33,-187,109,-296,39
,720,2023-10-27 12:17:53.44,174,-121,-2052,-9,86,-27,-151,-52,-99,101
,721,2023-10-27 12:17:53.45,174,-123,-2054,-6,55,-19,-193,111,-304,41
,722,2023-10-27 12:17:53.46,164,-135,-2061,-7,2,-55,-152,-38,-114,95
,723,2023-10-27 12:17:53.47,168,-133,-2064,0,0,-37,-198,110,-308,44
,724,2023-10-27 12:17:53.48,170,-130,-2056,5,0,-58,-142,-47,-95,94
,725,2023-10-27 12:17:53.49,173,-133,-2051,14,25,-44,-190,100,-290,45
,726,2023-10-27 12:17:53.50,179,-131,-2031,19,26,-38,-129,-52,-77,90
,727,2023-10-27 12:17:53.51,163,-140,-2043,28,47,-21,-192,99,-291,46
,728,2023-10-27 12:17:53.52,158,-135,-2045,29,18,-32,-127,-50,-77,88
,729,2023-10-27 12:17:53.53,166,-139,-2043,41,38,-16,-194,93,-287,50
,730,2023-10-27 12:17:53.54,173,-137,-2042,40,13,-25,-127,-51,-76,89
,731,2023-10-27 12:17:53.55,183,-134,-2048,50,49,-3,-195,98,-293,48
,732,2023-10-27 12:17:53.56,169,-128,-2053,51,50,9,-124,-41,-83,82
,733,2023-10-27 12:17:53.57,182,-129,-2054,52,58,2,-205,94,-299,55
,734,2023-10-27 12:17:53.58,179,-130,-2042,49,43,10,-122,-40,-82,81
,735,2023-10-27 12:17:53.59,187,-123,-2043,50,47,4,-198,92,-290,53
,736,2023-10-27 12:17:53.60,180,-135,-2063,49,7,-4,-120,-38,-82,79
,737,2023-10-27 12:17:53.61,180,-128,-2057,50,30,4,-199,90,-289,54
,738,2023-10-27 12:17:53.62,185,-131,-2039,46,-8,-5,-127,-32,-95,79
,739,2023-10-27 12:17:53.63,191,-116,-2035,36,-31,-27,-215,92,-307,61
,740,2023-10-27 12:17:53.64,193,-122,-2046,33,-28,-26,-119,-30,-89,74
,741,2023-10-27 12:17:53.65,184,-127,-2054,28,-25,-26,-208,94,-302,57
,742,2023-10-27 12:17:53.66,190,-129,-2053,23,-40,-46,-124,-22,-102,73
,743,2023-10-27 12:17:53.67,185,-132,-2048,21,-41,-55,-234,89,-323,72
,744,2023-10-27 12:17:53.68,198,-133,-2054,19,-45,-51,-122,-13,-109,67
,745,2023-10-27 12:17:53.69,175,-133,-2060,17,-46,-65,-218,107,-325,55
,746,2023-10-27 12:17:53.70,178,-133,-2060,18,-9,-54,-112,-6,-106,59
,747,2023-10-27 12:17:53.71,176,-139,-2063,17,-53,-69,-221,102,-323,59
,748,2023-10-27 12:17:53.72,183,-141,-2056,19,-33,-59,-122,-9,-113,65
,749,2023-10-27 12:17:53.73,180,-141,-2048,19,-27,-52,-243,84,-327,79
,750,2023-10-27 12:17:53.74,178,-140,-2046,29,-3,-30,-136,-19,-117,77
,751,2023-10-27 12:17:53.75,194,-150,-2060,30,-1,-40,-260,79,-339,90
,752,2023-10-27 12:17:53.76,170,-141,-2059,27,-12,-31,-145,-13,-132,79
,753,2023-10-27 12:17:53.77,180,-142,-2046,19,-23,-47,-259,84,-343,87
,754,2023-10-27 12:17:53.78,174,-134,-2033,24,-7,-29,-131,3,-134,64
,755,2023-10-27 12:17:53.79,175,-133,-2040,31,-3,-29,-244,82,-326,81
,756,2023-10-27 12:17:53.80,168,-149,-2051,34,-30,-11,-115,-3,-112,59
,757,2023-10-27 12:17:53.81,170,-140,-2057,28,-69,-21,-236,75,-311,80
,758,2023-10-27 12:17:53.82,161,-148,-2046,30,-36,-7,-106,8,-114,49
,759,2023-10-27 12:17:53.83,171,-153,-2063,39,-65,-6,-227,78,-305,74
,760,2023-10-27 12:17:53.84,154,-149,-2057,31,-99,-28,-90,8,-98,41
,761,2023-10-27 12:17:53.85,162,-155,-2055,35,-101,-34,-216,74,-290,71
,762,2023-10-27 12:17:53.86,156,-153,-2055,38,-103,-40,-87,10,-97,38
,763,2023-10-27 12:17:53.87,164,-153,-2065,45,-106,-42,-221,72,-293,74
,764,2023-10-27 12:17:53.88,153,-150,-2053,45,-59,-31,-89,13,-102,38
,765,2023-10-27 12:17:53.89,151,-151,-2049,46,-93,-40,-218,75,-293,71
,766,2023-10-27 12:17:53.90,160,-142,-2058,56,-44,-19,-83,23,-106,30
,767,2023-10-27 12:17:53.91,154,-147,-2050,55,-35,-12,-210,68,-278,71
,768,2023-10-27 12:17:53.92,143,-146,-2035,53,-36,-4,-78,23,-101,27
,769,2023-10-27 12:17:53.93,148,-152,-2045,55,-26,-2,-213,53,-266,80
,770,2023-10-27 12:17:53.94,144,-145,-2049,56,-53,3,-80,16,-96,32
,771,2023-10-27 12:17:53.95,139,-145,-2044,47,-90,-8,-221,54,-275,83
,772,2023-10-27 12:17:53.96,138,-159,-2061,47,-92,-8,-76,31,-107,22
,773,2023-10-27 12:17:53.97,133,-158,-2055,40,-110,-20,-219,65,-284,77
,774,2023-10-27 12:17:53.98,141,-157,-2056,39,-115,-36,-75,37,-112,19
,775,2023-10-27 12:17:53.99,142,-152,-2063,37,-119,-37,-219,63,-282,78
,776,2023-10-27 12:17:54.00,135,-149,-2056,34,-101,-33,-75,32,-107,21
,777,2023-10-27 12:17:54.01,134,-144,-2053,35,-63,-17,-224,57,-281,83
,778,2023-10-27 12:17:54.02,152,-152,-2056,44,-49,11,-80,41,-121,19
,779,2023-10-27 12:17:54.03,127,-152,-2053,37,-44,-8,-227,54,-281,86
,780,2023-10-27 12:17:54.04,124,-154,-2045,32,-44,11,-79,43,-122,18
,781,2023-10-27 12:17:54.05,122,-159,-2051,31,-55,16,-232,41,-273,95
,782,2023-10-27 12:17:54.06,124,-162,-2051,34,-71,21,-84,44,-128,20
,783,2023-10-27 12:17:54.07,117,-157,-2047,31,-77,19,-234,42,-276,96
,784,2023-10-27 12:17:54.08,114,-157,-2047,29,-92,16,-81,52,-133,14
,785,2023-10-27 12:17:54.09,120,-154,-2051,20,-101,4,-230,44,-274,93
,786,2023-10-27 12:17:54.10,106,-160,-2040,27,-73,27,-81,60,-141,10
,787,2023-10-27 12:17:54.11,114,-158,-2049,29,-79,26,-237,49,-286,94
,788,2023-10-27 12:17:54.12,104,-152,-2046,26,-69,34,-78,65,-143,6
,789,2023-10-27 12:17:54.13,110,-168,-2036,25,-62,39,-227,38,-265,94
,790,2023-10-27 12:17:54.14,117,-154,-2037,28,-51,46,-78,58,-136,10
,791,2023-10-27 12:17:54.15,100,-164,-2040,25,-46,51,-240,40,-280,100
,792,2023-10-27 12:17:54.16,123,-164,-2059,27,-85,36,-85,69,-154,8
,793,2023-10-27 12:17:54.17,94,-163,-2051,28,-44,55,-236,39,-275,98
,794,2023-10-27 12:17:54.18,105,-179,-2033,19,-61,43,-82,66,-148,8
,795,2023-10-27 12:17:54.19,108,-176,-2043,21,-69,33,-240,33,-273,103
,796,2023-10-27 12:17:54.20,102,-174,-2040,25,-53,40,-86,72,-158,7
,797,2023-10-27 12:17:54.21,101,-164,-2030,21,-51,33,-232,30,-262,101
,798,2023-10-27 12:17:54.22,103,-168,-2027,17,-42,31,-81,68,-149,6
,799,2023-10-27 12:17:54.23,99,-164,-2041,15,-27,43,-231,25,-256,103
,800,2023-10-27 12:17:54.24,91,-171,-2049,15,-36,50,-86,74,-160,6
,801,2023-10-27 12:17:54.25,100,-169,-2054,17,-38,39,-242,27,-269,107
,802,2023-10-27 12:17:54.26,120,-162,-2048,15,-13,40,-87,82,-169,2
,803,2023-10-27 12:17:54.27,98,-158,-2059,12,-29,36,-231,16,-247,107
,804,2023-10-27 12:17:54.28,100,-154,-2054,10,-15,34,-87,76,-163,5
,805,2023-10-27 12:17:54.29,98,-154,-2054,9,-12,30,-240,7,-247,116
,806,2023-10-27 12:17:54.30,98,-156,-2049,9,30,42,-92,78,-170,7
,807,2023-10-27 12:17:54.31,100,-159,-2045,4,6,33,-247,12,-259,117
,808,2023-10-27 12:17:54.32,97,-155,-2043,6,50,51,-92,86,-178,3
,809,2023-10-27 12:17:54.33,111,-148,-2048,6,56,55,-246,13,-259,116
,810,2023-10-27 12:17:54.34,113,-155,-2036,2,55,47,-92,90,-182,1
,811,2023-10-27 12:17:54.35,114,-148,-2037,-1,61,46,-238,5,-243,116
,812,2023-10-27 12:17:54.36,108,-149,-2049,-7,63,52,-88,78,-166,5
,813,2023-10-27 12:17:54.37,120,-143,-2045,-9,42,45,-235,-6,-229,120
,814,2023-10-27 12:17:54.38,116,-144,-2048,-10,63,41,-96,82,-178,7
,815,2023-10-27 12:17:54.39,108,-150,-2052,-14,65,40,-241,0,-241,120
,816,2023-10-27 12:17:54.40,114,-150,-2047,-10,38,43,-102,96,-198,3
,817,2023-10-27 12:17:54.41,114,-152,-2052,-10,46,43,-240,-6,-234,123
,818,2023-10-27 12:17:54.42,113,-144,-2045,-10,8,27,-98,88,-186,5
,819,2023-10-27 12:17:54.43,119,-149,-2058,-13,3,22,-228,-17,-211,122
,820,2023-10-27 12:17:54.44,117,-148,-2057,-17,-13,-1,-99,86,-185,6
,821,2023-10-27 12:17:54.45,115,-143,-2056,-10,0,16,-240,-20,-220,130
,822,2023-10-27 12:17:54.46,108,-149,-2059,-14,-13,1,-107,84,-191,11
,823,2023-10-27 12:17:54.47,114,-142,-2061,-12,-23,-15,-234,-21,-213,127
,824,2023-10-27 12:17:54.48,113,-137,-2056,-9,-18,3,-98,98,-196,0
,825,2023-10-27 12:17:54.49,124,-139,-2058,-8,-21,-1,-232,-18,-214,125
,826,2023-10-27 12:17:54.50,119,-143,-2047,-6,-27,-10,-109,103,-212,3
,827,2023-10-27 12:17:54.51,130,-150,-2052,4,-21,-5,-240,-12,-228,126
,828,2023-10-27 12:17:54.52,122,-155,-2065,13,-7,15,-110,109,-219,0
,829,2023-10-27 12:17:54.53,120,-155,-2059,20,-24,20,-233,-23,-210,128
,830,2023-10-27 12:17:54.54,117,-158,-2045,26,-48,2,-107,102,-209,2
,831,2023-10-27 12:17:54.55,109,-162,-2052,40,-10,31,-235,-15,-220,125
,832,2023-10-27 12:17:54.56,122,-168,-2054,38,-45,14,-116,112,-228,2
,833,2023-10-27 12:17:54.57,112,-166,-2045,43,-58,4,-232,-17,-215,124
,834,2023-10-27 12:17:54.58,109,-169,-2047,54,-53,9,-122,103,-225,9
,835,2023-10-27 12:17:54.59,105,-171,-2051,52,-60,4,-235,-35,-200,135
,836,2023-10-27 12:17:54.60,96,-178,-2048,56,-57,8,-127,97,-224,15
,837,2023-10-27 12:17:54.61,91,-177,-2048,62,-21,35,-234,-42,-192,138
,838,2023-10-27 12:17:54.62,87,-173,-2043,62,-24,45,-116,98,-214,9
,839,2023-10-27 12:17:54.63,97,-170,-2042,62,-25,53,-222,-41,-181,131
,840,2023-10-27 12:17:54.64,88,-178,-2033,55,-19,58,-126,101,-227,12
,841,2023-10-27 12:17:54.65,99,-182,-2040,53,-13,61,-230,-43,-187,136
,842,2023-10-27 12:17:54.66,95,-178,-2038,51,-5,61,-138,107,-245,15
,843,2023-10-27 12:17:54.67,103,-175,-2039,48,-2,64,-239,-38,-201,138
,844,2023-10-27 12:17:54.68,102,-169,-2045,43,4,64,-152,114,-266,19
,845,2023-10-27 12:17:54.69,95,-165,-2047,35,5,60,-239,-36,-203,137
,846,2023-10-27 12:17:54.70,90,-167,-2047,33,2,57,-149,113,-262,18
,847,2023-10-27 12:17:54.71,100,-162,-2053,32,2,53,-231,-41,-190,136
,848,2023-10-27 12:17:54.72,100,-166,-2060,25,-1,49,-133,112,-245,10
,849,2023-10-27 12:17:54.73,106,-164,-2052,24,-5,46,-203,-44,-159,123
,850,2023-10-27 12:17:54.74,98,-171,-2045,20,-11,44,-124,111,-235,6
,851,2023-10-27 12:17:54.75,89,-173,-2040,18,-9,42,-203,-47,-156,125
,852,2023-10-27 12:17:54.76,98,-177,-2050,16,-15,40,-141,113,-254,14
,853,2023-10-27 12:17:54.77,103,-184,-2051,14,-15,42,-223,-41,-182,132
,854,2023-10-27 12:17:54.78,95,-182,-2045,16,-19,44,-142,117,-259,12
,855,2023-10-27 12:17:54.79,94,-190,-2048,18,-19,47,-202,-52,-150,127
,856,2023-10-27 12:17:54.80,81,-187,-2053,21,-21,51,-145,109,-254,18
,857,2023-10-27 12:17:54.81,86,-186,-2046,22,-20,58,-212,-46,-166,129
,858,2023-10-27 12:17:54.82,93,-180,-2036,21,-18,61,-142,117,-259,12
,859,2023-10-27 12:17:54.83,92,-181,-2037,20,-15,62,-198,-41,-157,119
,860,2023-10-27 12:17:54.84,80,-188,-2036,20,-8,64,-146,123,-269,11
,861,2023-10-27 12:17:54.85,92,-191,-2045,23,-3,65,-205,-45,-160,125
,862,2023-10-27 12:17:54.86,94,-184,-2039,27,0,67,-160,118,-278,21
,863,2023-10-27 12:17:54.87,95,-189,-2036,31,6,65,-217,-54,-163,135
,864,2023-10-27 12:17:54.88,84,-190,-2040,32,11,67,-159,115,-274,22
,865,2023-10-27 12:17:54.89,86,-184,-2029,34,9,67,-193,-54,-139,123
,866,2023-10-27 12:17:54.90,80,-193,-2038,31,11,68,-157,117,-274,20
,867,2023-10-27 12:17:54.91,82,-200,-2046,26,17,69,-197,-45,-152,121
,868,2023-10-27 12:17:54.92,86,-202,-2053,32,6,71,-159,115,-274,22
,869,2023-10-27 12:17:54.93,91,-191,-2040,38,10,69,-201,-56,-145,128
,870,2023-10-27 12:17:54.94,82,-191,-2032,34,21,67,-183,112,-295,35
,871,2023-10-27 12:17:54.95,95,-191,-2037,28,26,63,-200,-48,-152,124
,872,2023-10-27 12:17:54.96,94,-183,-2040,26,37,63,-173,117,-290,28
,873,2023-10-27 12:17:54.97,99,-188,-2029,24,42,57,-192,-50,-142,121
,874,2023-10-27 12:17:54.98,100,-189,-2035,14,44,58,-184,113,-297,35
,875,2023-10-27 12:17:54.99,105,-184,-2040,9,52,52,-204,-52,-152,128
,876,2023-10-27 12:17:55.00,102,-182,-2041,7,50,50,-204,114,-318,45
,877,2023-10-27 12:17:55.01,111,-178,-2038,2,52,46,-209,-45,-164,127
,878,2023-10-27 12:17:55.02,111,-172,-2047,-9,59,42,-205,117,-322,44
,879,2023-10-27 12:17:55.03,111,-177,-2047,-17,58,36,-194,-48,-146,121
,880,2023-10-27 12:17:55.04,121,-166,-2055,-21,55,32,-192,106,-298,43
,881,2023-10-27 12:17:55.05,108,-170,-2047,-27,53,28,-185,-56,-129,120
,882,2023-10-27 12:17:55.06,121,-175,-2054,-35,44,19,-190,96,-286,47
,883,2023-10-27 12:17:55.07,122,-169,-2051,-35,37,13,-180,-68,-112,124
,884,2023-10-27 12:17:55.08,126,-169,-2055,-32,30,9,-202,96,-298,53
,885,2023-10-27 12:17:55.09,122,-164,-2054,-30,26,3,-193,-55,-138,124
,886,2023-10-27 12:17:55.10,122,-167,-2058,-31,25,0,-216,100,-316,58
,887,2023-10-27 12:17:55.11,117,-166,-2055,-33,20,0,-194,-52,-142,123
,888,2023-10-27 12:17:55.12,128,-162,-2044,-31,14,-3,-213,111,-324,51
,889,2023-10-27 12:17:55.13,131,-162,-2040,-31,10,-3,-180,-46,-134,113
,890,2023-10-27 12:17:55.14,131,-160,-2043,-36,11,-4,-206,109,-315,48
,891,2023-10-27 12:17:55.15,141,-158,-2040,-34,8,-4,-174,-46,-128,110
,892,2023-10-27 12:17:55.16,134,-160,-2036,-35,11,-3,-213,105,-318,54
,893,2023-10-27 12:17:55.17,129,-162,-2057,-39,10,-2,-175,-37,-138,106
,894,2023-10-27 12:17:55.18,130,-156,-2061,-36,-3,6,-219,110,-329,54
,895,2023-10-27 12:17:55.19,134,-162,-2047,-33,-6,10,-171,-37,-134,104
,896,2023-10-27 12:17:55.20,136,-161,-2056,-34,-4,13,-218,99,-317,59
,897,2023-10-27 12:17:55.21,124,-157,-2062,-37,-9,16,-164,-44,-120,104
,898,2023-10-27 12:17:55.22,126,-158,-2065,-36,-9,20,-226,100,-326,63
,899,2023-10-27 12:17:55.23,118,-155,-2064,-31,-10,26,-164,-44,-120,104
,900,2023-10-27 12:17:55.24,117,-159,-2064,-26,-14,32,-221,83,-304,69
,901,2023-10-27 12:17:55.25,125,-163,-2056,-22,-18,37,-151,-53,-98,102
,902,2023-10-27 12:17:55.26,124,-157,-2060,-14,-23,43,-215,82,-297,66
,903,2023-10-27 12:17:55.27,116,-156,-2063,-9,-24,47,-152,-38,-114,95
,904,2023-10-27 12:17:55.28,116,-153,-2052,-5,-26,49,-228,88,-316,70
,905,2023-10-27 12:17:55.29,115,-147,-2049,-3,-27,49,-159,-42,-117,100
,906,2023-10-27 12:17:55.30,110,-151,-2047,2,-28,49,-237,79,-316,79
,907,2023-10-27 12:17:55.31,114,-150,-2048,5,-27,47,-165,-50,-115,107
,908,2023-10-27 12:17:55.32,107,-150,-2043,12,-23,48,-230,77,-307,76
,909,2023-10-27 12:17:55.33,113,-155,-2045,17,-28,48,-146,-37,-109,91
,910,2023-10-27 12:17:55.34,113,-150,-2037,20,-27,47,-233,78,-311,77
,911,2023-10-27 12:17:55.35,106,-157,-2036,25,-24,45,-147,-35,-112,91
,912,2023-10-27 12:17:55.36,102,-157,-2041,28,-21,44,-238,84,-322,77
,913,2023-10-27 12:17:55.37,107,-154,-2041,30,-18,43,-148,-23,-125,85
,914,2023-10-27 12:17:55.38,112,-159,-2042,28,-13,41,-234,80,-314,77
,915,2023-10-27 12:17:55.39,114,-161,-2043,32,-15,38,-137,-29,-108,83
,916,2023-10-27 12:17:55.40,117,-164,-2049,30,-11,37,-240,76,-316,82
,917,2023-10-27 12:17:55.41,99,-164,-2044,28,-7,35,-144,-17,-127,80
,918,2023-10-27 12:17:55.42,107,-161,-2049,29,-13,36,-252,82,-334,85
,919,2023-10-27 12:17:55.43,97,-159,-2055,25,-12,33,-148,-14,-134,81
,920,2023-10-27 12:17:55.44,109,-154,-2057,24,-13,33,-252,68,-320,92
,921,2023-10-27 12:17:55.45,120,-157,-2062,20,-13,33,-135,-24,-111,79
,922,2023-10-27 12:17:55.46,106,-155,-2058,16,-11,30,-233,64,-297,84
,923,2023-10-27 12:17:55.47,118,-155,-2059,13,-9,29,-126,-14,-112,70
,924,2023-10-27 12:17:55.48,97,-170,-2063,12,-13,32,-254,76,-330,89
,925,2023-10-27 12:17:55.49,103,-166,-2067,14,-16,38,-143,2,-145,70
,926,2023-10-27 12:17:55.50,93,-169,-2051,17,-16,45,-258,76,-334,91
,927,2023-10-27 12:17:55.51,96,-181,-2042,14,-14,50,-137,3,-140,67
,928,2023-10-27 12:17:55.52,89,-178,-2036,22,-20,59,-256,72,-328,92
,929,2023-10-27 12:17:55.53,94,-181,-2040,27,-23,63,-127,4,-131,61
,930,2023-10-27 12:17:55.54,80,-173,-2043,33,-22,71,-243,68,-311,87
,931,2023-10-27 12:17:55.55,75,-173,-2040,38,-27,75,-124,5,-129,59
,932,2023-10-27 12:17:55.56,82,-175,-2034,46,-30,76,-260,66,-326,97
,933,2023-10-27 12:17:55.57,93,-162,-2025,53,-29,76,-133,13,-146,60
,934,2023-10-27 12:17:55.58,93,-168,-2030,56,-21,69,-253,64,-317,94
,935,2023-10-27 12:17:55.59,99,-154,-2038,58,-19,65,-134,13,-147,60
,936,2023-10-27 12:17:55.60,93,-166,-2031,58,-12,54,-280,64,-344,108
,937,2023-10-27 12:17:55.61,84,-156,-2033,61,-10,47,-144,21,-165,61
,938,2023-10-27 12:17:55.62,101,-172,-2045,59,-8,38,-270,68,-338,101
,939,2023-10-27 12:17:55.63,96,-164,-2049,52,-13,32,-123,36,-159,43
,940,2023-10-27 12:17:55.64,95,-167,-2053,47,-16,25,-255,54,-309,100
,941,2023-10-27 12:17:55.65,99,-168,-2060,42,-15,17,-115,17,-132,49
,942,2023-10-27 12:17:55.66,101,-173,-2066,36,-16,12,-253,43,-296,105
,943,2023-10-27 12:17:55.67,99,-171,-2068,29,-21,10,-118,20,-138,49
,944,2023-10-27 12:17:55.68,90,-173,-2067,25,-28,9,-259,48,-307,105
,945,2023-10-27 12:17:55.69,93,-179,-2070,18,-30,10,-111,30,-141,40
,946,2023-10-27 12:17:55.70,89,-183,-2072,15,-36,9,-256,49,-305,103
,947,2023-10-27 12:17:55.71,86,-189,-2066,12,-43,12,-112,35,-147,38
,948,2023-10-27 12:17:55.72,87,-187,-2062,11,-49,16,-269,31,-300,119
,949,2023-10-27 12:17:55.73,78,-185,-2060,11,-52,21,-122,32,-154,45
,950,2023-10-27 12:17:55.74,74,-192,-2056,10,-53,26,-265,37,-302,114
,951,2023-10-27 12:17:55.75,82,-183,-2048,13,-53,29,-108,37,-145,35
,952,2023-10-27 12:17:55.76,71,-198,-2034,16,-59,38,-263,39,-302,112
,953,2023-10-27 12:17:55.77,71,-175,-2037,20,-59,43,-118,45,-163,36
,954,2023-10-27 12:17:55.78,69,-188,-2029,18,-52,47,-271,43,-314,114
,955,2023-10-27 12:17:55.79,60,-191,-2040,14,-49,52,-125,54,-179,35
,956,2023-10-27 12:17:55.80,67,-186,-2034,18,-47,54,-277,47,-324,115
,957,2023-10-27 12:17:55.81,71,-174,-2022,23,-45,59,-114,60,-174,27
,958,2023-10-27 12:17:55.82,59,-188,-2036,22,-36,59,-265,40,-305,112
,959,2023-10-27 12:17:55.83,59,-179,-2035,21,-33,60,-109,56,-165,26
,960,2023-10-27 12:17:55.84,71,-180,-2021,24,-30,60,-266,31,-297,117
,961,2023-10-27 12:17:55.85,63,-181,-2030,23,-24,55,-115,56,-171,29
,962,2023-10-27 12:17:55.86,68,-175,-2040,17,-11,52,-268,28,-296,120
,963,2023-10-27 12:17:55.87,84,-171,-2040,18,-5,48,-112,61,-173,25
,964,2023-10-27 12:17:55.88,80,-178,-2054,22,1,44,-267,18,-285,124
,965,2023-10-27 12:17:55.89,75,-173,-2046,17,5,40,-114,57,-171,28
,966,2023-10-27 12:17:55.90,68,-177,-2039,15,7,38,-270,23,-293,123
,967,2023-10-27 12:17:55.91,97,-178,-2054,15,5,36,-111,62,-173,24
,968,2023-10-27 12:17:55.92,77,-164,-2058,14,3,37,-260,20,-280,120
,969,2023-10-27 12:17:55.93,73,-176,-2057,14,3,33,-107,72,-179,17
,970,2023-10-27 12:17:55.94,78,-184,-2069,13,3,32,-270,24,-294,123
,971,2023-10-27 12:17:55.95,84,-187,-2059,14,3,33,-115,75,-190,20
,972,2023-10-27 12:17:55.96,66,-182,-2054,17,-1,32,-273,17,-290,128
,973,2023-10-27 12:17:55.97,68,-191,-2043,20,-1,33,-123,76,-199,23
,974,2023-10-27 12:17:55.98,82,-181,-2045,27,-6,34,-277,11,-288,133
,975,2023-10-27 12:17:55.99,82,-184,-2041,29,-1,37,-117,80,-197,18
,976,2023-10-27 12:17:56.00,79,-174,-2038,28,1,39,-266,12,-278,127
,977,2023-10-27 12:17:56.01,81,-180,-2043,29,-2,42,-109,80,-189,14
,978,2023-10-27 12:17:56.02,73,-187,-2055,29,-3,46,-263,11,-274,126
,979,2023-10-27 12:17:56.03,74,-194,-2057,32,-6,49,-120,85,-205,17
,980,2023-10-27 12:17:56.04,64,-195,-2056,43,-13,54,-272,11,-283,130
,981,2023-10-27 12:17:56.05,64,-201,-2047,50,-25,59,-125,81,-206,22
,982,2023-10-27 12:17:56.06,72,-190,-2038,58,-31,62,-271,6,-277,132
,983,2023-10-27 12:17:56.07,76,-200,-2019,64,-34,63,-115,93,-208,11
,984,2023-10-27 12:17:56.08,79,-176,-2051,70,-38,64,-266,-7,-259,136
,985,2023-10-27 12:17:56.09,66,-196,-2056,69,-41,60,-126,77,-203,24
,986,2023-10-27 12:17:56.10,69,-195,-2043,67,-43,58,-278,-11,-267,144
,987,2023-10-27 12:17:56.11,72,-195,-2047,69,-47,55,-123,87,-210,18
,988,2023-10-27 12:17:56.12,70,-196,-2047,68,-52,51,-268,-9,-259,138
,989,2023-10-27 12:17:56.13,61,-189,-2043,62,-55,47,-122,95,-217,13
,990,2023-10-27 12:17:56.14,62,-193,-2040,60,-58,41,-257,-11,-246,134
,991,2023-10-27 12:17:56.15,52,-198,-2043,58,-58,40,-120,90,-210,15
,992,2023-10-27 12:17:56.16,57,-210,-2051,57,-64,34,-267,-8,-259,137
,993,2023-10-27 12:17:56.17,44,-220,-2020,56,-65,33,-133,100,-233,16
,994,2023-10-27 12:17:56.18,72,-203,-2036,57,-65,33,-267,-10,-257,138
,995,2023-10-27 12:17:56.19,64,-208,-2034,50,-61,31,-128,96,-224,16
,996,2023-10-27 12:17:56.20,53,-221,-2041,44,-56,29,-257,-27,-230,142
,997,2023-10-27 12:17:56.21,39,-220,-2053,44,-59,32,-129,88,-217,20
,998,2023-10-27 12:17:56.22,51,-224,-2047,43,-64,32,-258,-23,-235,140
,999,2023-10-27 12:17:56.23,46,-221,-2049,43,-62,34,-128,102,-230,13
,1000,2023-10-27 12:17:56.24,51,-216,-2056,37,-61,33,-252,-23,-229,137
,1001,2023-10-27 12:17:56.25,50,-212,-2046,33,-59,34,-130,98,-228,16
,1002,2023-10-27 12:17:56.26,46,-210,-2052,27,-55,33,-255,-30,-225,142
,1003,2023-10-27 12:17:56.27,47,-227,-2037,28,-50,39,-136,97,-233,19
,1004,2023-10-27 12:17:56.28,35,-203,-2049,21,-42,38,-255,-33,-222,144
,1005,2023-10-27 12:17:56.29,24,-224,-2048,9,-47,42,-139,99,-238,20
,1006,2023-10-27 12:17:56.30,14,-227,-2050,3,-46,49,-257,-35,-222,146
,1007,2023-10-27 12:17:56.31,-3,-250,-2032,3,-49,57,-143,100,-243,21
,1008,2023-10-27 12:17:56.32,29,-207,-2040,11,-55,67,-248,-33,-215,140
,1009,2023-10-27 12:17:56.33,12,-218,-2038,-3,-48,67,-134,101,-235,16
,1010,2023-10-27 12:17:56.34,21,-213,-2034,-12,-44,68,-245,-45,-200,145
,1011,2023-10-27 12:17:56.35,24,-207,-2049,-15,-34,68,-158,98,-256,30
,1012,2023-10-27 12:17:56.36,17,-202,-2040,-15,-32,69,-263,-40,-223,151
,1013,2023-10-27 12:17:56.37,18,-190,-2032,-21,-25,66,-150,103,-253,23
,1014,2023-10-27 12:17:56.38,21,-190,-2040,-26,-23,63,-245,-45,-200,145
,1015,2023-10-27 12:17:56.39,17,-192,-2036,-27,-19,64,-152,101,-253,25
,1016,2023-10-27 12:17:56.40,15,-185,-2044,-27,-19,58,-244,-47,-197,145
,1017,2023-10-27 12:17:56.41,23,-191,-2034,-28,-13,55,-164,106,-270,29
,1018,2023-10-27 12:17:56.42,21,-192,-2040,-28,-10,51,-253,-43,-210,148
,1019,2023-10-27 12:17:56.43,16,-194,-2046,-24,-10,47,-154,101,-255,26
,1020,2023-10-27 12:17:56.44,18,-192,-2040,-18,-11,49,-228,-61,-167,144
,1021,2023-10-27 12:17:56.45,28,-198,-2040,-13,-13,46,-150,88,-238,31
,1022,2023-10-27 12:17:56.46,24,-202,-2042,-8,-11,45,-225,-62,-163,143
,1023,2023-10-27 12:17:56.47,35,-194,-2047,-5,-11,46,-150,104,-254,23
,1024,2023-10-27 12:17:56.48,18,-205,-2041,-2,-5,46,-221,-46,-175,133
,1025,2023-10-27 12:17:56.49,23,-194,-2046,1,3,45,-151,108,-259,21
,1026,2023-10-27 12:17:56.50,8,-205,-2040,-3,10,50,-214,-57,-157,135
,1027,2023-10-27 12:17:56.51,14,-202,-2034,4,-2,54,-145,91,-236,27
,1028,2023-10-27 12:17:56.52,20,-202,-2026,13,12,55,-210,-56,-154,133
,1029,2023-10-27 12:17:56.53,33,-213,-2039,11,19,57,-153,101,-254,26
,1030,2023-10-27 12:17:56.54,18,-211,-2050,15,16,59,-213,-58,-155,135
,1031,2023-10-27 12:17:56.55,19,-203,-2056,19,18,59,-167,102,-269,32
,1032,2023-10-27 12:17:56.56,24,-200,-2051,23,11,62,-222,-57,-165,139
,1033,2023-10-27 12:17:56.57,22,-204,-2045,20,14,63,-173,107,-280,33
,1034,2023-10-27 12:17:56.58,3,-203,-2055,18,2,63,-219,-54,-165,136
,1035,2023-10-27 12:17:56.59,17,-199,-2062,18,-3,62,-173,103,-276,35
,1036,2023-10-27 12:17:56.60,18,-190,-2062,13,-7,61,-213,-68,-145,140
,1037,2023-10-27 12:17:56.61,15,-191,-2051,9,-11,60,-187,102,-289,42
,1038,2023-10-27 12:17:56.62,11,-191,-2048,9,-15,51,-221,-54,-167,137
,1039,2023-10-27 12:17:56.63,5,-194,-2045,6,-13,49,-175,106,-281,34
,1040,2023-10-27 12:17:56.64,1,-187,-2042,1,-11,42,-198,-66,-132,132
,1041,2023-10-27 12:17:56.65,15,-191,-2039,-2,-10,35,-173,89,-262,42
,1042,2023-10-27 12:17:56.66,15,-183,-2034,-2,-4,28,-194,-72,-122,133
,1043,2023-10-27 12:17:56.67,16,-191,-2032,-2,-1,21,-170,88,-258,41
,1044,2023-10-27 12:17:56.68,19,-190,-2040,-4,7,15,-186,-74,-112,130
,1045,2023-10-27 12:17:56.69,14,-194,-2043,-3,7,11,-171,87,-258,42
,1046,2023-10-27 12:17:56.70,5,-194,-2044,-1,8,9,-180,-72,-108,126
,1047,2023-10-27 12:17:56.71,9,-201,-2045,-1,12,3,-179,92,-271,43
,1048,2023-10-27 12:17:56.72,8,-197,-2050,0,10,1,-182,-65,-117,123
,1049,2023-10-27 12:17:56.73,-6,-199,-2048,4,6,0,-166,91,-257,37
,1050,2023-10-27 12:17:56.74,12,-203,-2047,7,6,-1,-172,-59,-113,115
,1051,2023-10-27 12:17:56.75,10,-207,-2037,11,5,-1,-178,98,-276,40
,1052,2023-10-27 12:17:56.76,11,-200,-2049,12,7,-4,-171,-70,-101,120
,1053,2023-10-27 12:17:56.77,0,-210,-2036,11,19,-4,-179,74,-253,52
,1054,2023-10-27 12:17:56.78,13,-208,-2048,14,9,-5,-166,-86,-80,126
,1055,2023-10-27 12:17:56.79,20,-210,-2035,15,18,-2,-179,80,-259,49
,1056,2023-10-27 12:17:56.80,17,-202,-2048,16,19,-3,-160,-66,-94,113
,1057,2023-10-27 12:17:56.81,11,-205,-2040,17,24,0,-176,88,-264,44
,1058,2023-10-27 12:17:56.82,11,-203,-2037,19,27,-3,-150,-68,-82,109
,1059,2023-10-27 12:17:56.83,15,-209,-2036,18,34,-4,-167,84,-251,41
,1060,2023-10-27 12:17:56.84,6,-212,-2037,21,38,-2,-142,-65,-77,103
,1061,2023-10-27 12:17:56.85,14,-211,-2035,26,40,-2,-174,84,-258,45
,1062,2023-10-27 12:17:56.86,25,-214,-2042,29,49,-2,-149,-71,-78,110
,1063,2023-10-27 12:17:56.87,22,-218,-2044,30,51,-5,-174,81,-255,46
,1064,2023-10-27 12:17:56.88,30,-221,-2034,31,53,-2,-139,-62,-77,100
,1065,2023-10-27 12:17:56.89,35,-213,-2038,29,63,1,-175,88,-263,43
,1066,2023-10-27 12:17:56.90,43,-212,-2024,27,62,2,-137,-62,-75,99
,1067,2023-10-27 12:17:56.91,29,-210,-2034,23,74,2,-189,75,-264,57
,1068,2023-10-27 12:17:56.92,26,-216,-2058,20,73,6,-147,-77,-70,112
,1069,2023-10-27 12:17:56.93,38,-205,-2060,18,68,7,-187,66,-253,60
,1070,2023-10-27 12:17:56.94,26,-199,-2052,13,66,11,-133,-67,-66,100
,1071,2023-10-27 12:17:56.95,38,-192,-2049,7,64,8,-196,69,-265,63
,1072,2023-10-27 12:17:56.96,50,-189,-2056,-3,65,4,-130,-70,-60,100
,1073,2023-10-27 12:17:56.97,48,-181,-2056,-9,66,1,-184,63,-247,60
,1074,2023-10-27 12:17:56.98,50,-193,-2040,-14,66,-2,-116,-65,-51,90
,1075,2023-10-27 12:17:56.99,35,-193,-2053,-16,60,-5,-159,62,-221,48
,1076,2023-10-27 12:17:57.00,52,-193,-2056,-23,53,-8,-78,-65,-13,71
,1077,2023-10-27 12:17:57.01,62,-197,-2058,-23,47,-10,-151,60,-211,45
,1078,2023-10-27 12:17:57.02,40,-194,-2052,-16,45,-12,-72,-62,-10,67
,1079,2023-10-27 12:17:57.03,48,-193,-2052,-19,43,-11,-165,61,-226,52
,1080,2023-10-27 12:17:57.04,51,-190,-2048,-18,43,-12,-93,-52,-41,72
,1081,2023-10-27 12:17:57.05,55,-198,-2046,-17,43,-11,-167,57,-224,55
,1082,2023-10-27 12:17:57.06,57,-199,-2052,-19,42,-11,-81,-57,-24,69
,1083,2023-10-27 12:17:57.07,58,-199,-2058,-22,41,-5,-174,60,-234,57
,1084,2023-10-27 12:17:57.08,66,-201,-2059,-18,37,1,-88,-40,-48,64
,1085,2023-10-27 12:17:57.09,60,-199,-2056,-20,35,7,-174,70,-244,52
,1086,2023-10-27 12:17:57.10,54,-201,-2057,-17,18,13,-87,-40,-47,63
,1087,2023-10-27 12:17:57.11,46,-191,-2049,-15,12,18,-182,57,-239,62
,1088,2023-10-27 12:17:57.12,56,-196,-2053,-12,10,20,-94,-36,-58,65
,1089,2023-10-27 12:17:57.13,57,-196,-2049,-11,6,25,-205,53,-258,76
,1090,2023-10-27 12:17:57.14,46,-198,-2042,-9,3,27,-93,-37,-56,65
,1091,2023-10-27 12:17:57.15,56,-188,-2044,-7,3,30,-184,56,-240,64
,1092,2023-10-27 12:17:57.16,49,-192,-2047,-7,2,31,-74,-32,-42,53
,1093,2023-10-27 12:17:57.17,56,-192,-2049,-8,3,35,-186,59,-245,63
,1094,2023-10-27 12:17:57.18,49,-181,-2046,-4,0,36,-78,-23,-55,50
,1095,2023-10-27 12:17:57.19,51,-194,-2047,0,1,37,-199,60,-259,69
,1096,2023-10-27 12:17:57.20,36,-193,-2050,3,-1,40,-82,-12,-70,47
,1097,2023-10-27 12:17:57.21,42,-191,-2041,11,-9,38,-202,67,-269,67
,1098,2023-10-27 12:17:57.22,44,-187,-2032,16,0,36,-83,-3,-80,43
,1099,2023-10-27 12:17:57.23,51,-192,-2032,17,3,33,-205,53,-258,76
,1100,2023-10-27 12:17:57.24,48,-187,-2040,20,13,25,-76,-14,-62,45
,1101,2023-10-27 12:17:57.25,60,-179,-2037,22,16,18,-215,61,-276,77
,1102,2023-10-27 12:17:57.26,53,-191,-2031,26,22,11,-90,10,-100,40
,1103,2023-10-27 12:17:57.27,53,-196,-2032,25,28,9,-231,57,-288,87
,1104,2023-10-27 12:17:57.28,71,-202,-2027,28,34,3,-94,4,-98,45
,1105,2023-10-27 12:17:57.29,64,-193,-2038,26,37,3,-228,51,-279,88
,1106,2023-10-27 12:17:57.30,65,-192,-2044,24,37,-1,-82,10,-92,36
,1107,2023-10-27 12:17:57.31,61,-187,-2050,20,38,-2,-222,49,-271,86
,1108,2023-10-27 12:17:57.32,57,-188,-2045,14,37,-2,-80,6,-86,37
,1109,2023-10-27 12:17:57.33,62,-188,-2047,10,32,-6,-220,48,-268,86
,1110,2023-10-27 12:17:57.34,60,-195,-2048,4,33,-4,-82,17,-99,32
,1111,2023-10-27 12:17:57.35,63,-198,-2050,-5,32,-4,-226,49,-275,88
,1112,2023-10-27 12:17:57.36,65,-200,-2047,-8,32,-3,-84,19,-103,32
,1113,2023-10-27 12:17:57.37,57,-199,-2048,-10,33,-4,-232,52,-284,90
,1114,2023-10-27 12:17:57.38,64,-198,-2046,-10,30,-6,-86,28,-114,29
,1115,2023-10-27 12:17:57.39,60,-200,-2050,-8,30,-6,-234,36,-270,99
,1116,2023-10-27 12:17:57.40,71,-197,-2047,-5,30,-9,-88,14,-102,37
,1117,2023-10-27 12:17:57.41,67,-195,-2052,-3,28,-12,-234,32,-266,101
,1118,2023-10-27 12:17:57.42,66,-198,-2043,1,31,-15,-85,23,-108,31
,1119,2023-10-27 12:17:57.43,58,-200,-2045,4,27,-17,-234,34,-268,100
,1120,2023-10-27 12:17:57.44,76,-202,-2045,10,27,-18,-90,29,-119,30
,1121,2023-10-27 12:17:57.45,74,-195,-2043,12,23,-18,-245,36,-281,104
,1122,2023-10-27 12:17:57.46,65,-198,-2044,15,24,-19,-94,35,-129,29
,1123,2023-10-27 12:17:57.47,62,-202,-2045,14,26,-18,-246,37,-283,104
,1124,2023-10-27 12:17:57.48,60,-197,-2047,12,24,-18,-90,42,-132,24
,1125,2023-10-27 12:17:57.49,65,-192,-2042,7,24,-17,-241,26,-267,107
,1126,2023-10-27 12:17:57.50,62,-202,-2051,4,23,-19,-76,34,-110,21
,1127,2023-10-27 12:17:57.51,56,-192,-2058,-1,23,-21,-227,32,-259,97
,1128,2023-10-27 12:17:57.52,65,-191,-2059,-8,19,-23,-80,52,-132,14
,1129,2023-10-27 12:17:57.53,60,-185,-2058,-15,21,-26,-238,25,-263,106
,1130,2023-10-27 12:17:57.54,66,-180,-2061,-23,21,-27,-80,44,-124,18
,1131,2023-10-27 12:17:57.55,78,-184,-2056,-29,20,-32,-241,18,-259,111
,1132,2023-10-27 12:17:57.56,71,-175,-2050,-36,23,-36,-94,48,-142,23
,1133,2023-10-27 12:17:57.57,75,-175,-2037,-41,29,-39,-252,14,-266,119
,1134,2023-10-27 12:17:57.58,62,-179,-2045,-46,36,-44,-96,44,-140,26
,1135,2023-10-27 12:17:57.59,68,-176,-2039,-50,37,-46,-249,6,-255,121
,1136,2023-10-27 12:17:57.60,65,-184,-2062,-49,41,-48,-81,47,-128,17
,1137,2023-10-27 12:17:57.61,63,-188,-2072,-48,37,-46,-235,11,-246,112
,1138,2023-10-27 12:17:57.62,60,-186,-2082,-41,28,-48,-78,57,-135,10
,1139,2023-10-27 12:17:57.63,79,-176,-2071,-36,22,-48,-238,-2,-236,120
,1140,2023-10-27 12:17:57.64,70,-168,-2061,-31,23,-48,-90,39,-129,25
,1141,2023-10-27 12:17:57.65,56,-167,-2066,-30,27,-54,-244,-8,-236,126
,1142,2023-10-27 12:17:57.66,67,-160,-2064,-29,22,-57,-94,54,-148,20
,1143,2023-10-27 12:17:57.67,62,-164,-2053,-24,15,-62,-248,5,-253,121
,1144,2023-10-27 12:17:57.68,48,-162,-2044,-20,12,-65,-91,54,-145,18
,1145,2023-10-27 12:17:57.69,64,-161,-2039,-24,16,-67,-239,-14,-225,126
,1146,2023-10-27 12:17:57.70,69,-164,-2039,-20,17,-72,-93,40,-133,26
,1147,2023-10-27 12:17:57.71,61,-158,-2041,-14,16,-77,-246,-23,-223,134
,1148,2023-10-27 12:17:57.72,66,-165,-2045,-9,17,-84,-101,56,-157,22
,1149,2023-10-27 12:17:57.73,66,-165,-2040,-7,19,-89,-257,-6,-251,131
,1150,2023-10-27 12:17:57.74,67,-172,-2048,-2,17,-99,-104,73,-177,15
,1151,2023-10-27 12:17:57.75,51,-159,-2048,0,18,-104,-247,-15,-232,131
,1152,2023-10-27 12:17:57.76,62,-158,-2042,6,18,-111,-96,54,-150,21
,1153,2023-10-27 12:17:57.77,67,-162,-2040,7,18,-119,-253,-26,-227,139
,1154,2023-10-27 12:17:57.78,65,-159,-2044,5,21,-127,-98,64,-162,17
,1155,2023-10-27 12:17:57.79,77,-162,-2042,0,21,-132,-242,-37,-205,139
,1156,2023-10-27 12:17:57.80,83,-160,-2032,5,22,-145,-89,57,-146,16
,1157,2023-10-27 12:17:57.81,81,-163,-2034,7,30,-153,-239,-36,-203,137
,1158,2023-10-27 12:17:57.82,86,-156,-2033,7,33,-165,-96,60,-156,18
,1159,2023-10-27 12:17:57.83,91,-161,-2036,5,43,-178,-242,-37,-205,139
,1160,2023-10-27 12:17:57.84,86,-168,-2032,7,44,-189,-100,64,-164,18
,1161,2023-10-27 12:17:57.85,91,-169,-2053,9,46,-199,-237,-48,-189,142
,1162,2023-10-27 12:17:57.86,91,-163,-2046,6,43,-205,-95,60,-155,17
,1163,2023-10-27 12:17:57.87,92,-161,-2039,5,39,-215,-233,-46,-187,139
,1164,2023-10-27 12:17:57.88,93,-175,-2048,0,42,-226,-112,67,-179,22
,1165,2023-10-27 12:17:57.89,94,-167,-2061,-5,26,-228,-248,-38,-210,143
,1166,2023-10-27 12:17:57.90,112,-163,-2051,-4,19,-237,-104,79,-183,12
,1167,2023-10-27 12:17:57.91,124,-158,-2046,-3,23,-247,-223,-39,-184,131
,1168,2023-10-27 12:17:57.92,106,-159,-2048,-6,18,-264,-84,84,-168,0
,1169,2023-10-27 12:17:57.93,111,-174,-2057,-10,29,-277,-212,-37,-175,124
,1170,2023-10-27 12:17:57.94,98,-168,-2068,-8,27,-287,-89,84,-173,2
,1171,2023-10-27 12:17:57.95,113,-169,-2054,-6,23,-293,-212,-44,-168,128
,1172,2023-10-27 12:17:57.96,119,-174,-2059,-9,25,-305,-88,80,-168,4
,1173,2023-10-27 12:17:57.97,105,-168,-2054,-9,27,-306,-202,-55,-147,128
,1174,2023-10-27 12:17:57.98,111,-167,-2054,-13,30,-307,-89,75,-164,7
,1175,2023-10-27 12:17:57.99,115,-165,-2047,-18,32,-313,-221,-60,-161,140
,1176,2023-10-27 12:17:58.00,113,-165,-2042,-22,35,-317,-107,76,-183,15
,1177,2023-10-27 12:17:58.01,105,-155,-2043,-28,38,-324,-223,-56,-167,139
,1178,2023-10-27 12:17:58.02,119,-161,-2039,-31,40,-322,-110,78,-188,16
,1179,2023-10-27 12:17:58.03,116,-172,-2055,-34,41,-321,-216,-68,-148,142
,1180,2023-10-27 12:17:58.04,112,-163,-2054,-32,34,-318,-116,78,-194,19
,1181,2023-10-27 12:17:58.05,115,-170,-2054,-32,34,-313,-225,-59,-166,142
,1182,2023-10-27 12:17:58.06,102,-163,-2035,-31,39,-311,-105,90,-195,7
,1183,2023-10-27 12:17:58.07,124,-157,-2043,-32,40,-307,-196,-64,-132,130
,1184,2023-10-27 12:17:58.08,122,-154,-2042,-32,49,-303,-97,82,-179,7
,1185,2023-10-27 12:17:58.09,128,-157,-2037,-33,54,-298,-213,-78,-135,145
,1186,2023-10-27 12:17:58.10,116,-154,-2021,-28,49,-294,-120,87,-207,16
,1187,2023-10-27 12:17:58.11,123,-155,-2026,-29,62,-289,-214,-62,-152,138
,1188,2023-10-27 12:17:58.12,132,-164,-2019,-21,64,-286,-127,94,-221,16
,1189,2023-10-27 12:17:58.13,124,-164,-2011,-15,79,-285,-211,-64,-147,137
,1190,2023-10-27 12:17:58.14,146,-163,-2023,-3,78,-280,-126,86,-212,20
,1191,2023-10-27 12:17:58.15,148,-167,-2015,8,87,-278,-208,-71,-137,139
,1192,2023-10-27 12:17:58.16,152,-168,-2025,15,89,-271,-140,88,-228,26
,1193,2023-10-27 12:17:58.17,158,-163,-2019,19,102,-270,-216,-73,-143,144
,1194,2023-10-27 12:17:58.18,148,-164,-2032,17,108,-269,-144,82,-226,31
,1195,2023-10-27 12:17:58.19,156,-167,-2032,19,112,-259,-211,-80,-131,145
,1196,2023-10-27 12:17:58.20,139,-165,-2035,24,118,-256,-143,84,-227,29
,1197,2023-10-27 12:17:58.21,138,-153,-2041,20,125,-253,-207,-70,-137,138
,1198,2023-10-27 12:17:58.22,160,-168,-2030,18,141,-249,-149,93,-242,28
,1199,2023-10-27 12:17:58.23,136,-166,-2024,13,162,-249,-209,-71,-138,140
,1200,2023-10-27 12:17:58.24,139,-176,-2019,10,173,-243,-162,86,-248,38
,1201,2023-10-27 12:17:58.25,147,-165,-2034,12,175,-241,-210,-81,-129,145
,1202,2023-10-27 12:17:58.26,162,-180,-2042,12,184,-234,-162,83,-245,39
,1203,2023-10-27 12:17:58.27,134,-183,-2058,17,189,-230,-204,-76,-128,140
,1204,2023-10-27 12:17:58.28,134,-182,-2048,25,178,-221,-168,83,-251,42
,1205,2023-10-27 12:17:58.29,171,-186,-2034,37,182,-210,-209,-86,-123,147
,1206,2023-10-27 12:17:58.30,167,-175,-2033,42,198,-206,-175,75,-250,50
,1207,2023-10-27 12:17:58.31,180,-169,-2036,46,201,-204,-205,-86,-119,145
,1208,2023-10-27 12:17:58.32,186,-176,-2028,56,212,-200,-188,83,-271,52
,1209,2023-10-27 12:17:58.33,187,-178,-2026,67,213,-197,-201,-81,-120,141
,1210,2023-10-27 12:17:58.34,187,-176,-2045,72,227,-191,-186,87,-273,49
,1211,2023-10-27 12:17:58.35,207,-173,-2037,80,223,-186,-214,-75,-139,144
,1212,2023-10-27 12:17:58.36,185,-172,-2032,83,228,-184,-214,94,-308,60
,1213,2023-10-27 12:17:58.37,202,-167,-2047,93,226,-176,-218,-71,-147,144
,1214,2023-10-27 12:17:58.38,224,-159,-2055,104,212,-169,-186,82,-268,52
,1215,2023-10-27 12:17:58.39,233,-162,-2049,115,204,-164,-171,-82,-89,126
,1216,2023-10-27 12:17:58.40,228,-167,-2048,121,197,-159,-178,83,-261,47
,1217,2023-10-27 12:17:58.41,220,-167,-2044,127,196,-156,-187,-76,-111,131
,1218,2023-10-27 12:17:58.42,246,-163,-2054,132,189,-150,-212,85,-297,63
,1219,2023-10-27 12:17:58.43,258,-164,-2049,143,170,-144,-191,-84,-107,137
,1220,2023-10-27 12:17:58.44,251,-160,-2053,146,163,-138,-180,80,-260,50
,1221,2023-10-27 12:17:58.45,255,-168,-2047,145,163,-133,-157,-69,-88,113
,1222,2023-10-27 12:17:58.46,276,-176,-2044,145,157,-127,-175,92,-267,41
,1223,2023-10-27 12:17:58.47,275,-183,-2049,148,154,-122,-144,-67,-77,105
,1224,2023-10-27 12:17:58.48,282,-190,-2032,157,143,-114,-176,90,-266,43
,1225,2023-10-27 12:17:58.49,299,-197,-2016,178,131,-107,-152,-61,-91,106
,1226,2023-10-27 12:17:58.50,287,-217,-2026,198,116,-94,-198,75,-273,61
,1227,2023-10-27 12:17:58.51,280,-217,-2035,211,104,-81,-152,-68,-84,110
,1228,2023-10-27 12:17:58.52,263,-220,-2051,209,95,-67,-155,86,-241,34
,1229,2023-10-27 12:17:58.53,257,-214,-2053,203,82,-55,-70,-63,-7,66
,1230,2023-10-27 12:17:58.54,282,-215,-2042,197,69,-43,-56,96,-152,-20
,1231,2023-10-27 12:17:58.55,277,-218,-2054,186,64,-30,-15,-57,42,36
,1232,2023-10-27 12:17:58.56,283,-211,-2057,173,55,-23,-84,111,-195,-13
,1233,2023-10-27 12:17:58.57,286,-209,-2056,159,41,-14,-61,-31,-30,46
,1234,2023-10-27 12:17:58.58,283,-203,-2065,145,41,-12,-125,125,-250,0
,1235,2023-10-27 12:17:58.59,277,-195,-2071,127,43,-11,-75,-32,-43,53
,1236,2023-10-27 12:17:58.60,283,-206,-2063,111,35,-9,-138,110,-248,14
,1237,2023-10-27 12:17:58.61,286,-215,-2056,102,21,-9,-98,-42,-56,70
,1238,2023-10-27 12:17:58.62,293,-217,-2046,90,12,-8,-149,100,-249,24
,1239,2023-10-27 12:17:58.63,295,-226,-2043,85,4,-8,-52,-43,-9,47
,1240,2023-10-27 12:17:58.64,303,-230,-2042,77,0,-5,-99,100,-199,0
,1241,2023-10-27 12:17:58.65,301,-234,-2051,77,-13,-4,-33,-41,8,37
,1242,2023-10-27 12:17:58.66,295,-235,-2045,71,-23,-4,-115,98,-213,8
,1243,2023-10-27 12:17:58.67,289,-247,-2040,67,-38,0,-57,-37,-20,47
,1244,2023-10-27 12:17:58.68,278,-247,-2047,61,-44,5,-158,100,-258,29
,1245,2023-10-27 12:17:58.69,287,-250,-2035,61,-47,12,-95,-31,-64,63
,1246,2023-10-27 12:17:58.70,278,-262,-2028,57,-57,16,-212,89,-301,61
,1247,2023-10-27 12:17:58.71,269,-258,-2045,54,-57,21,-134,-36,-98,85
,1248,2023-10-27 12:17:58.72,277,-255,-2045,41,-65,23,-232,81,-313,75
,1249,2023-10-27 12:17:58.73,272,-252,-2030,33,-71,27,-134,-36,-98,85
,1250,2023-10-27 12:17:58.74,270,-253,-2038,23,-67,29,-231,78,-309,76
,1251,2023-10-27 12:17:58.75,271,-256,-2015,12,-59,34,-128,-36,-92,82
,1252,2023-10-27 12:17:58.76,264,-249,-2031,4,-60,37,-242,82,-324,80
,1253,2023-10-27 12:17:58.77,260,-251,-2035,-10,-56,38,-133,-22,-111,77
,1254,2023-10-27 12:17:58.78,266,-252,-2025,-25,-49,39,-237,82,-319,77
,1255,2023-10-27 12:17:58.79,272,-249,-2029,-34,-37,44,-134,-26,-108,80
,1256,2023-10-27 12:17:58.80,266,-261,-2032,-47,-28,49,-248,74,-322,87
,1257,2023-10-27 12:17:58.81,270,-256,-2025,-55,-24,52,-132,-20,-112,76
,1258,2023-10-27 12:17:58.82,268,-253,-2012,-59,-21,57,-250,59,-309,95
,1259,2023-10-27 12:17:58.83,269,-256,-2006,-66,-10,62,-125,-41,-84,83
,1260,2023-10-27 12:17:58.84,281,-250,-2012,-75,0,64,-246,54,-300,96
,1261,2023-10-27 12:17:58.85,272,-242,-2010,-80,12,64,-128,-26,-102,77
,1262,2023-10-27 12:17:58.86,278,-245,-2012,-84,19,63,-253,64,-317,94
,1263,2023-10-27 12:17:58.87,278,-240,-2012,-85,24,65,-128,-13,-115,70
,1264,2023-10-27 12:17:58.88,279,-240,-2007,-91,28,67,-252,62,-314,95
,1265,2023-10-27 12:17:58.89,275,-238,-1994,-90,27,70,-133,-14,-119,73
,1266,2023-10-27 12:17:58.90,291,-247,-2009,-84,27,71,-272,66,-338,103
,1267,2023-10-27 12:17:58.91,284,-244,-2032,-86,28,70,-154,-10,-144,82
,1268,2023-10-27 12:17:58.92,298,-245,-2034,-87,23,73,-276,70,-346,103
,1269,2023-10-27 12:17:58.93,281,-235,-2026,-82,16,73,-134,7,-141,63
,1270,2023-10-27 12:17:58.94,290,-234,-2029,-82,16,70,-270,67,-337,101
,1271,2023-10-27 12:17:58.95,293,-224,-2031,-85,19,67,-125,9,-134,58
,1272,2023-10-27 12:17:58.96,309,-220,-2037,-85,18,65,-271,64,-335,103
,1273,2023-10-27 12:17:58.97,287,-227,-2048,-86,16,65,-128,10,-138,59
,1274,2023-10-27 12:17:58.98,294,-218,-2051,-85,9,62,-274,67,-341,103
,1275,2023-10-27 12:17:58.99,285,-216,-2053,-82,-3,60,-131,18,-149,56
,1276,2023-10-27 12:17:59.00,287,-215,-2054,-84,-14,63,-277,64,-341,106
,1277,2023-10-27 12:17:59.01,281,-197,-2051,-86,-28,61,-126,22,-148,52
,1278,2023-10-27 12:17:59.02,278,-193,-2051,-85,-39,59,-276,57,-333,109
,1279,2023-10-27 12:17:59.03,267,-193,-2048,-82,-51,56,-129,22,-151,53
,1280,2023-10-27 12:17:59.04,267,-203,-2041,-88,-59,50,-284,67,-351,108
,1281,2023-10-27 12:17:59.05,274,-188,-2053,-83,-70,48,-127,38,-165,44
,1282,2023-10-27 12:17:59.06,270,-184,-2052,-79,-80,46,-212,47,-259,82
,1283,2023-10-27 12:17:59.07,277,-179,-2045,-75,-92,43,-19,22,-41,-1
,1284,2023-10-27 12:17:59.08,262,-177,-2041,-70,-97,40,-111,44,-155,33
,1285,2023-10-27 12:17:59.09,261,-179,-2035,-67,-98,38,42,36,6,-39
,1286,2023-10-27 12:17:59.10,263,-181,-2035,-64,-102,34,-54,59,-113,-2
,1287,2023-10-27 12:17:59.11,262,-181,-2030,-59,-106,35,98,53,45,-75
,1288,2023-10-27 12:17:59.12,241,-179,-2028,-57,-98,34,18,57,-39,-37
,1289,2023-10-27 12:17:59.13,243,-176,-2030,-56,-96,32,164,54,110,-109
,1290,2023-10-27 12:17:59.14,229,-176,-2034,-49,-96,37,88,48,40,-68
,1291,2023-10-27 12:17:59.15,210,-176,-2041,-47,-99,38,229,51,178,-140
,1292,2023-10-27 12:17:59.16,216,-168,-2040,-44,-98,40,168,40,128,-104
,1293,2023-10-27 12:17:59.17,213,-168,-2036,-46,-96,42,287,52,235,-169
,1294,2023-10-27 12:17:59.18,224,-175,-2020,-46,-91,43,204,44,160,-124
,1295,2023-10-27 12:17:59.19,210,-172,-2034,-44,-84,46,318,64,254,-191
,1296,2023-10-27 12:17:59.20,204,-170,-2041,-41,-86,47,266,42,224,-154
,1297,2023-10-27 12:17:59.21,202,-170,-2035,-36,-88,46,367,57,310,-212
,1298,2023-10-27 12:17:59.22,203,-169,-2036,-35,-80,44,288,38,250,-163
,1299,2023-10-27 12:17:59.23,199,-164,-2043,-37,-69,42,363,74,289,-218
,1300,2023-10-27 12:17:59.24,202,-164,-2044,-34,-55,36,213,43,170,-128
,1301,2023-10-27 12:17:59.25,205,-162,-2043,-32,-51,33,272,77,195,-174
,1302,2023-10-27 12:17:59.26,207,-161,-2041,-24,-50,32,117,42,75,-79
,1303,2023-10-27 12:17:59.27,210,-161,-2043,-19,-49,31,210,73,137,-141
,1304,2023-10-27 12:17:59.28,205,-159,-2032,-19,-46,35,53,25,28,-39
,1305,2023-10-27 12:17:59.29,191,-157,-2039,-17,-40,32,168,66,102,-117
,1306,2023-10-27 12:17:59.30,202,-155,-2028,-20,-35,30,-4,21,-25,-8
,1307,2023-10-27 12:17:59.31,209,-157,-2035,-16,-31,30,105,70,35,-87
,1308,2023-10-27 12:17:59.32,207,-153,-2034,-13,-26,30,-82,12,-94,35
,1309,2023-10-27 12:17:59.33,215,-159,-2029,-7,-24,29,50,75,-25,-62
,1310,2023-10-27 12:17:59.34,218,-154,-2036,-5,-17,27,-109,20,-129,44
,1311,2023-10-27 12:17:59.35,215,-156,-2040,0,-15,25,17,81,-64,-49
,1312,2023-10-27 12:17:59.36,220,-154,-2048,3,-14,24,-156,24,-180,66
,1313,2023-10-27 12:17:59.37,216,-154,-2038,10,-8,21,-23,84,-107,-30
,1314,2023-10-27 12:17:59.38,227,-163,-2049,15,-7,17,-189,10,-199,89
,1315,2023-10-27 12:17:59.39,219,-151,-2048,18,-6,15,-45,78,-123,-16
,1316,2023-10-27 12:17:59.40,225,-156,-2049,21,-7,15,-202,14,-216,94
,1317,2023-10-27 12:17:59.41,217,-156,-2046,24,-11,14,-63,92,-155,-14
,1318,2023-10-27 12:17:59.42,227,-162,-2045,27,-16,13,-222,15,-237,103
,1319,2023-10-27 12:17:59.43,221,-162,-2047,31,-25,14,-75,89,-164,-7
,1320,2023-10-27 12:17:59.44,205,-153,-2045,36,-30,13,-234,8,-242,113
,1321,2023-10-27 12:17:59.45,214,-162,-2049,38,-33,14,-95,90,-185,2
,1322,2023-10-27 12:17:59.46,215,-165,-2055,38,-41,14,-246,1,-247,122
,1323,2023-10-27 12:17:59.47,215,-169,-2055,39,-48,17,-101,90,-191,5
,1324,2023-10-27 12:17:59.48,205,-172,-2051,39,-53,17,-250,1,-251,124
,1325,2023-10-27 12:17:59.49,205,-175,-2051,42,-58,22,-101,94,-195,3
,1326,2023-10-27 12:17:59.50,211,-185,-2038,38,-62,27,-244,-2,-242,123
,1327,2023-10-27 12:17:59.51,204,-161,-2067,41,-66,28,-100,94,-194,3
,1328,2023-10-27 12:17:59.52,178,-173,-2057,39,-71,32,-248,-1,-247,124
,1329,2023-10-27 12:17:59.53,191,-172,-2048,35,-79,34,-114,98,-212,8
,1330,2023-10-27 12:17:59.54,174,-177,-2035,37,-81,35,-253,-23,-230,138
,1331,2023-10-27 12:17:59.55,187,-166,-2050,36,-84,35,-109,86,-195,11
,1332,2023-10-27 12:17:59.56,186,-164,-2029,31,-87,37,-249,-20,-229,134
,1333,2023-10-27 12:17:59.57,174,-176,-2037,29,-84,35,-110,92,-202,9
,1334,2023-10-27 12:17:59.58,178,-180,-2058,29,-84,35,-244,-19,-225,131
,1335,2023-10-27 12:17:59.59,179,-185,-2050,32,-85,38,-113,96,-209,8
,1336,2023-10-27 12:17:59.60,180,-175,-2044,36,-86,38,-244,-24,-220,134
,1337,2023-10-27 12:17:59.61,157,-186,-2023,34,-84,40,-120,97,-217,11
,1338,2023-10-27 12:17:59.62,186,-168,-2042,34,-82,41,-253,-23,-230,138
,1339,2023-10-27 12:17:59.63,178,-177,-2050,33,-70,39,-120,107,-227,6
,1340,2023-10-27 12:17:59.64,174,-171,-2040,30,-61,37,-239,-20,-219,129
,1341,2023-10-27 12:17:59.65,163,-174,-2033,29,-60,38,-115,106,-221,4
,1342,2023-10-27 12:17:59.66,155,-186,-2025,31,-64,40,-234,-22,-212,128
,1343,2023-10-27 12:17:59.67,166,-176,-2037,31,-67,38,-117,101,-218,8
,1344,2023-10-27 12:17:59.68,163,-184,-2041,29,-62,40,-234,-42,-192,138
,1345,2023-10-27 12:17:59.69,167,-184,-2047,27,-61,39,-120,90,-210,15
,1346,2023-10-27 12:17:59.70,175,-175,-2036,28,-60,40,-230,-33,-197,131
,1347,2023-10-27 12:17:59.71,169,-178,-2039,33,-59,38,-124,100,-224,12
,1348,2023-10-27 12:17:59.72,163,-186,-2041,34,-59,37,-224,-48,-176,136
,1349,2023-10-27 12:17:59.73,161,-191,-2049,39,-59,39,-136,81,-217,27
,1350,2023-10-27 12:17:59.74,158,-187,-2036,44,-60,40,-235,-49,-186,142
,1351,2023-10-27 12:17:59.75,169,-176,-2058,51,-67,38,-135,99,-234,18
,1352,2023-10-27 12:17:59.76,158,-186,-2051,51,-66,38,-229,-38,-191,133
,1353,2023-10-27 12:17:59.77,147,-200,-2043,56,-65,38,-129,103,-232,13
,1354,2023-10-27 12:17:59.78,156,-183,-2059,62,-62,36,-220,-47,-173,133
,1355,2023-10-27 12:17:59.79,148,-184,-2045,65,-60,36,-132,98,-230,17
,1356,2023-10-27 12:17:59.80,161,-189,-2043,67,-62,31,-219,-54,-165,136
,1357,2023-10-27 12:17:59.81,148,-189,-2046,66,-60,29,-138,106,-244,16
,1358,2023-10-27 12:17:59.82,145,-191,-2053,72,-63,26,-229,-31,-198,130
,1359,2023-10-27 12:17:59.83,150,-188,-2044,74,-58,21,-144,118,-262,13
,1360,2023-10-27 12:17:59.84,149,-184,-2039,73,-59,15,-216,-49,-167,132
,1361,2023-10-27 12:17:59.85,149,-186,-2036,75,-60,12,-132,100,-232,16
,1362,2023-10-27 12:17:59.86,134,-200,-2034,72,-53,8,-204,-62,-142,133
,1363,2023-10-27 12:17:59.87,155,-200,-2038,72,-56,8,-137,100,-237,18
,1364,2023-10-27 12:17:59.88,142,-200,-2040,78,-57,5,-209,-53,-156,131
,1365,2023-10-27 12:17:59.89,154,-202,-2038,80,-57,3,-147,109,-256,19
,1366,2023-10-27 12:17:59.90,143,-199,-2030,77,-54,-1,-209,-53,-156,131
,1367,2023-10-27 12:17:59.91,145,-199,-2046,75,-50,-6,-142,109,-251,16
,1368,2023-10-27 12:17:59.92,135,-208,-2043,74,-43,-7,-196,-60,-136,128
,1369,2023-10-27 12:17:59.93,145,-205,-2048,75,-46,-10,-139,99,-238,20
,1370,2023-10-27 12:17:59.94,124,-209,-2050,76,-45,-10,-195,-64,-131,129
,1371,2023-10-27 12:17:59.95,131,-210,-2048,74,-46,-13,-143,101,-244,21
,1372,2023-10-27 12:17:59.96,136,-226,-2046,72,-49,-14,-195,-62,-133,128
,1373,2023-10-27 12:17:59.97,120,-204,-2034,69,-52,-18,-156,110,-266,23
,1374,2023-10-27 12:17:59.98,122,-220,-2040,64,-50,-18,-198,-48,-150,123
,1375,2023-10-27 12:17:59.99,120,-211,-2044,58,-53,-22,-160,141,-301,9
,1376,2023-10-27 12:18:00.00,127,-216,-2039,49,-50,-27,-208,-14,-194,111
,1377,2023-10-27 12:18:00.01,121,-213,-2038,52,-55,-28,-170,120,-290,25
,1378,2023-10-27 12:18:00.02,111,-217,-2033,45,-44,-30,-176,-64,-112,120
,1379,2023-10-27 12:18:00.03,126,-212,-2042,40,-49,-32,-118,83,-201,17
,1380,2023-10-27 12:18:00.04,98,-222,-2039,34,-49,-32,-133,-75,-58,104
,1381,2023-10-27 12:18:00.05,113,-213,-2049,34,-50,-33,-81,94,-175,-6
,1382,2023-10-27 12:18:00.06,110,-223,-2046,30,-53,-34,-79,-53,-26,66
,1383,2023-10-27 12:18:00.07,117,-223,-2035,29,-45,-31,-48,109,-157,-30
,1384,2023-10-27 12:18:00.08,105,-209,-2036,27,-48,-34,-69,-44,-25,56
,1385,2023-10-27 12:18:00.09,101,-221,-2045,23,-48,-33,-53,116,-169,-31
,1386,2023-10-27 12:18:00.10,96,-218,-2038,20,-42,-33,-68,-50,-18,59
,1387,2023-10-27 12:18:00.11,117,-229,-2030,20,-43,-29,-48,120,-168,-36
,1388,2023-10-27 12:18:00.12,96,-226,-2041,20,-43,-26,-68,-47,-21,57
,1389,2023-10-27 12:18:00.13,111,-224,-2057,20,-44,-21,-79,110,-189,-15
,1390,2023-10-27 12:18:00.14,104,-218,-2038,17,-41,-15,-100,-54,-46,77
,1391,2023-10-27 12:18:00.15,116,-228,-2025,17,-36,-15,-94,114,-208,-10
,1392,2023-10-27 12:18:00.16,110,-233,-2036,26,-37,-9,-92,-38,-54,65
,1393,2023-10-27 12:18:00.17,110,-216,-2044,28,-33,-7,-112,107,-219,2
,1394,2023-10-27 12:18:00.18,95,-229,-2044,25,-31,-5,-102,-53,-49,77
,1395,2023-10-27 12:18:00.19,97,-235,-2041,24,-30,-4,-116,96,-212,10
,1396,2023-10-27 12:18:00.20,96,-235,-2021,29,-26,0,-95,-54,-41,74
,1397,2023-10-27 12:18:00.21,94,-232,-2034,29,-23,-2,-97,107,-204,-5
,1398,2023-10-27 12:18:00.22,89,-231,-2032,26,-17,0,-87,-40,-47,63
,1399,2023-10-27 12:18:00.23,102,-228,-2046,21,-15,-2,-131,108,-239,11
,1400,2023-10-27 12:18:00.24,97,-237,-2043,24,-27,2,-112,-46,-66,79
,1401,2023-10-27 12:18:00.25,91,-235,-2041,26,-20,1,-133,102,-235,15
,1402,2023-10-27 12:18:00.26,99,-235,-2045,26,-11,2,-94,-46,-48,70
,1403,2023-10-27 12:18:00.27,110,-224,-2044,26,-10,-2,-128,99,-227,14
,1404,2023-10-27 12:18:00.28,105,-224,-2023,22,-5,-2,-104,-48,-56,76
,1405,2023-10-27 12:18:00.29,117,-225,-2027,27,2,-2,-155,98,-253,28
,1406,2023-10-27 12:18:00.30,86,-219,-2036,19,14,-7,-116,-48,-68,82
,1407,2023-10-27 12:18:00.31,103,-234,-2031,11,8,-3,-154,98,-252,28
,1408,2023-10-27 12:18:00.32,90,-237,-2042,8,13,0,-111,-39,-72,75
,1409,2023-10-27 12:18:00.33,97,-234,-2041,9,12,7,-163,88,-251,37
,1410,2023-10-27 12:18:00.34,99,-235,-2032,8,6,6,-113,-57,-56,85
,1411,2023-10-27 12:18:00.35,114,-230,-2034,4,5,9,-173,78,-251,47
,1412,2023-10-27 12:18:00.36,103,-234,-2050,5,8,10,-126,-51,-75,88
,1413,2023-10-27 12:18:00.37,87,-230,-2047,2,7,11,-193,80,-273,56
,1414,2023-10-27 12:18:00.38,101,-228,-2049,0,5,9,-132,-49,-83,90
,1415,2023-10-27 12:18:00.39,102,-225,-2045,-2,7,10,-195,73,-268,61
,1416,2023-10-27 12:18:00.40,103,-223,-2045,-3,7,11,-123,-51,-72,87
,1417,2023-10-27 12:18:00.41,109,-228,-2038,-5,5,7,-186,68,-254,59
,1418,2023-10-27 12:18:00.42,115,-225,-2053,-6,5,6,-117,-48,-69,82
,1419,2023-10-27 12:18:00.43,101,-222,-2047,-10,3,6,-196,69,-265,63
,1420,2023-10-27 12:18:00.44,109,-227,-2046,-11,2,3,-112,-47,-65,79
,1421,2023-10-27 12:18:00.45,99,-221,-2051,-11,1,0,-189,63,-252,63
,1422,2023-10-27 12:18:00.46,105,-215,-2048,-9,-1,-2,-107,-45,-62,76
,1423,2023-10-27 12:18:00.47,109,-217,-2041,-9,-2,-3,-192,74,-266,59
,1424,2023-10-27 12:18:00.48,113,-212,-2042,-8,-6,-7,-114,-31,-83,72
,1425,2023-10-27 12:18:00.49,116,-211,-2041,-9,-4,-10,-206,63,-269,71
,1426,2023-10-27 12:18:00.50,117,-209,-2033,-8,-3,-15,-114,-36,-78,75
,1427,2023-10-27 12:18:00.51,128,-218,-2028,-5,-3,-17,-199,56,-255,71
,1428,2023-10-27 12:18:00.52,121,-223,-2039,0,-6,-22,-87,-23,-64,55
,1429,2023-10-27 12:18:00.53,119,-232,-2039,13,-20,-24,-187,64,-251,61
,1430,2023-10-27 12:18:00.54,126,-234,-2040,28,-19,-25,-88,-26,-62,57
,1431,2023-10-27 12:18:00.55,123,-234,-2044,34,-19,-28,-201,54,-255,73
,1432,2023-10-27 12:18:00.56,111,-239,-2014,41,-25,-29,-94,-18,-76,56
,1433,2023-10-27 12:18:00.57,108,-254,-2051,59,-29,-27,-192,65,-257,63
,1434,2023-10-27 12:18:00.58,102,-245,-2055,69,-38,-29,-83,-11,-72,47
,1435,2023-10-27 12:18:00.59,107,-251,-2049,70,-43,-26,-180,68,-248,56
,1436,2023-10-27 12:18:00.60,100,-249,-2038,74,-37,-25,-67,-6,-61,36
,1437,2023-10-27 12:18:00.61,93,-243,-2050,76,-36,-24,-172,64,-236,54
,1438,2023-10-27 12:18:00.62,94,-241,-2060,71,-41,-23,-60,-1,-59,30
,1439,2023-10-27 12:18:00.63,85,-249,-2053,56,-35,-22,-175,63,-238,56
,1440,2023-10-27 12:18:00.64,54,-266,-2041,37,-21,-25,-75,0,-75,37
,1441,2023-10-27 12:18:00.65,76,-250,-2032,24,-19,-21,-203,60,-263,71
,1442,2023-10-27 12:18:00.66,88,-251,-2042,18,-18,-21,-91,2,-93,44
,1443,2023-10-27 12:18:00.67,79,-252,-2033,8,-16,-18,-201,53,-254,74
,1444,2023-10-27 12:18:00.68,82,-242,-2040,-3,-14,-17,-79,0,-79,39
,1445,2023-10-27 12:18:00.69,92,-233,-2032,-14,-8,-18,-200,49,-249,75
,1446,2023-10-27 12:18:00.70,94,-237,-2037,-26,-4,-17,-69,10,-79,29
,1447,2023-10-27 12:18:00.71,90,-232,-2029,-36,5,-17,-180,49,-229,65
,1448,2023-10-27 12:18:00.72,99,-228,-2028,-48,11,-17,-57,12,-69,22
,1449,2023-10-27 12:18:00.73,98,-230,-2037,-54,18,-17,-187,51,-238,68
,1450,2023-10-27 12:18:00.74,105,-237,-2031,-57,24,-16,-59,18,-77,20
,1451,2023-10-27 12:18:00.75,102,-232,-2036,-58,30,-11,-183,39,-222,72
,1452,2023-10-27 12:18:00.76,108,-229,-2043,-59,31,-9,-50,9,-59,20
,1453,2023-10-27 12:18:00.77,118,-228,-2037,-59,28,-8,-180,35,-215,72
,1454,2023-10-27 12:18:00.78,115,-222,-2040,-55,28,-5,-52,18,-70,17
,1455,2023-10-27 12:18:00.79,115,-210,-2046,-53,27,-6,-184,36,-220,74
,1456,2023-10-27 12:18:00.80,112,-211,-2043,-52,25,-3,-47,17,-64,15
,1457,2023-10-27 12:18:00.81,123,-212,-2049,-50,21,-2,-179,22,-201,78
,1458,2023-10-27 12:18:00.82,120,-210,-2052,-46,15,-1,-47,11,-58,18
,1459,2023-10-27 12:18:00.83,112,-216,-2062,-40,5,2,-191,28,-219,81
,1460,2023-10-27 12:18:00.84,109,-219,-2058,-33,-4,7,-46,27,-73,9
,1461,2023-10-27 12:18:00.85,112,-216,-2047,-25,-9,11,-174,24,-198,75
,1462,2023-10-27 12:18:00.86,109,-217,-2051,-22,-13,12,-30,19,-49,5
,1463,2023-10-27 12:18:00.87,94,-221,-2045,-19,-21,18,-171,15,-186,78
,1464,2023-10-27 12:18:00.88,103,-212,-2047,-15,-26,19,-21,26,-47,-2
,1465,2023-10-27 12:18:00.89,102,-222,-2058,-12,-33,22,-158,22,-180,68
,1466,2023-10-27 12:18:00.90,94,-215,-2054,-11,-35,22,-10,34,-44,-12
,1467,2023-10-27 12:18:00.91,90,-207,-2054,-10,-36,22,-154,19,-173,67
,1468,2023-10-27 12:18:00.92,100,-197,-2045,-12,-32,18,-6,35,-41,-14
,1469,2023-10-27 12:18:00.93,88,-193,-2057,-15,-21,10,-133,27,-160,53
,1470,2023-10-27 12:18:00.94,87,-195,-2046,-18,-18,8,19,43,-24,-31
,1471,2023-10-27 12:18:00.95,92,-195,-2038,-22,-19,4,-122,16,-138,53
,1472,2023-10-27 12:18:00.96,97,-199,-2032,-22,-21,1,23,30,-7,-26
,1473,2023-10-27 12:18:00.97,81,-204,-2035,-20,-20,-2,-108,14,-122,47
,1474,2023-10-27 12:18:00.98,92,-199,-2026,-20,-20,-5,36,48,-12,-42
,1475,2023-10-27 12:18:00.99,86,-209,-2042,-12,-21,-4,-116,7,-123,54
,1476,2023-10-27 12:18:01.00,68,-200,-2037,-12,-24,-6,40,49,-9,-44
,1477,2023-10-27 12:18:01.01,89,-203,-2035,-13,-20,-7,-117,7,-124,55
,1478,2023-10-27 12:18:01.02,83,-206,-2035,-14,-14,-11,46,49,-3,-47
,1479,2023-10-27 12:18:01.03,82,-207,-2044,-10,-17,-9,-106,-6,-100,56
,1480,2023-10-27 12:18:01.04,73,-203,-2046,-11,-14,-12,49,43,6,-46
,1481,2023-10-27 12:18:01.05,82,-200,-2055,-7,-22,-9,-104,-8,-96,56
,1482,2023-10-27 12:18:01.06,83,-192,-2052,-10,-20,-9,47,50,-3,-48
,1483,2023-10-27 12:18:01.07,72,-206,-2051,-16,-11,-10,-119,-8,-111,63
,1484,2023-10-27 12:18:01.08,65,-201,-2051,-21,-12,-7,41,54,-13,-47
,1485,2023-10-27 12:18:01.09,77,-203,-2048,-23,-12,-7,-110,-3,-107,56
,1486,2023-10-27 12:18:01.10,97,-192,-2050,-18,-17,-2,50,62,-12,-56
,1487,2023-10-27 12:18:01.11,67,-203,-2047,-22,-7,-4,-95,-6,-89,50
,1488,2023-10-27 12:18:01.12,78,-198,-2048,-29,-1,0,68,61,7,-64
,1489,2023-10-27 12:18:01.13,76,-191,-2039,-29,-1,-1,-87,-16,-71,51
,1490,2023-10-27 12:18:01.14,87,-197,-2039,-27,6,-1,75,59,16,-67
,1491,2023-10-27 12:18:01.15,85,-185,-2042,-28,12,1,-80,-16,-64,48
,1492,2023-10-27 12:18:01.16,75,-188,-2041,-32,17,2,84,65,19,-74
,1493,2023-10-27 12:18:01.17,80,-194,-2059,-26,14,8,-60,-19,-41,39
,1494,2023-10-27 12:18:01.18,87,-188,-2038,-22,17,9,105,70,35,-87
,1495,2023-10-27 12:18:01.19,89,-188,-2046,-21,21,10,-59,-20,-39,39
,1496,2023-10-27 12:18:01.20,93,-183,-2049,-19,24,13,102,67,35,-84
,1497,2023-10-27 12:18:01.21,106,-185,-2041,-17,31,12,-60,-29,-31,44
,1498,2023-10-27 12:18:01.22,93,-185,-2048,-9,35,15,101,64,37,-82
,1499,2023-10-27 12:18:01.23,97,-179,-2040,-8,37,13,-52,-37,-15,44
,1500,2023-10-27 12:18:01.24,106,-184,-2040,-4,38,16,106,72,34,-89
,1501,2023-10-27 12:18:01.25,109,-189,-2039,2,37,17,-47,-25,-22,36
,1502,2023-10-27 12:18:01.26,97,-189,-2032,11,34,18,122,88,34,-105
,1503,2023-10-27 12:18:01.27,111,-208,-2034,17,29,19,-44,-20,-24,32
,1504,2023-10-27 12:18:01.28,122,-196,-2030,40,16,24,101,92,9,-96
,1505,2023-10-27 12:18:01.29,102,-174,-2045,49,22,20,-59,-14,-45,36
,1506,2023-10-27 12:18:01.30,102,-199,-2042,38,34,19,102,103,-1,-102
,1507,2023-10-27 12:18:01.31,112,-203,-2037,25,42,17,-45,-8,-37,26
,1508,2023-10-27 12:18:01.32,102,-208,-2043,24,41,20,123,116,7,-119
,1509,2023-10-27 12:18:01.33,101,-203,-2044,21,38,19,-33,2,-35,15
,1510,2023-10-27 12:18:01.34,111,-197,-2047,15,37,15,125,131,-6,-128
,1511,2023-10-27 12:18:01.35,101,-194,-2046,7,42,11,-47,-8,-39,27
,1512,2023-10-27 12:18:01.36,99,-191,-2047,1,43,6,113,116,-3,-114
,1513,2023-10-27 12:18:01.37,116,-190,-2052,-9,45,1,-38,-28,-10,33
,1514,2023-10-27 12:18:01.38,119,-186,-2048,-16,45,-2,130,115,15,-122
,1515,2023-10-27 12:18:01.39,115,-188,-2057,-21,44,-9,-29,-24,-5,26
,1516,2023-10-27 12:18:01.40,106,-186,-2055,-26,44,-12,123,118,5,-120
,1517,2023-10-27 12:18:01.41,124,-181,-2050,-30,40,-18,-30,-26,-4,28
,1518,2023-10-27 12:18:01.42,133,-179,-2052,-33,38,-23,130,119,11,-124
,1519,2023-10-27 12:18:01.43,107,-183,-2057,-35,35,-23,-14,-29,15,21
,1520,2023-10-27 12:18:01.44,122,-191,-2058,-34,29,-27,143,129,14,-136
,1521,2023-10-27 12:18:01.45,122,-185,-2061,-33,24,-21,-2,-12,10,7
,1522,2023-10-27 12:18:01.46,125,-178,-2057,-32,21,-21,157,152,5,-154
,1523,2023-10-27 12:18:01.47,113,-182,-2055,-36,16,-19,4,7,-3,-5
,1524,2023-10-27 12:18:01.48,107,-183,-2057,-33,12,-16,154,164,-10,-159
,1525,2023-10-27 12:18:01.49,121,-185,-2050,-30,3,-11,2,3,-1,-2
,1526,2023-10-27 12:18:01.50,118,-191,-2047,-25,-7,-5,157,165,-8,-161
,1527,2023-10-27 12:18:01.51,111,-194,-2041,-20,-7,0,14,5,9,-9
,1528,2023-10-27 12:18:01.52,109,-191,-2048,-17,-6,4,168,178,-10,-173
,1529,2023-10-27 12:18:01.53,107,-185,-2034,-10,-9,10,21,19,2,-20
,1530,2023-10-27 12:18:01.54,116,-197,-2032,-4,-9,12,160,196,-36,-178
,1531,2023-10-27 12:18:01.55,111,-202,-2055,1,-13,15,13,30,-17,-21
,1532,2023-10-27 12:18:01.56,112,-199,-2053,4,-19,21,163,217,-54,-190
,1533,2023-10-27 12:18:01.57,105,-192,-2054,7,-15,26,14,62,-48,-38
,1534,2023-10-27 12:18:01.58,102,-186,-2049,8,-15,30,153,242,-89,-197
,1535,2023-10-27 12:18:01.59,106,-180,-2047,6,-12,30,7,62,-55,-34
,1536,2023-10-27 12:18:01.60,98,-182,-2051,7,-8,28,131,242,-111,-186
,1537,2023-10-27 12:18:01.61,105,-185,-2051,5,-9,32,1,68,-67,-34
,1538,2023-10-27 12:18:01.62,77,-215,-2042,7,-11,35,146,254,-108,-200
,1539,2023-10-27 12:18:01.63,99,-174,-2046,8,-13,38,23,62,-39,-42
,1540,2023-10-27 12:18:01.64,86,-195,-2036,1,-15,44,168,241,-73,-204
,1541,2023-10-27 12:18:01.65,101,-181,-2045,-11,-5,45,44,45,-1,-44
,1542,2023-10-27 12:18:01.66,103,-182,-2046,-14,-6,45,179,227,-48,-203
,1543,2023-10-27 12:18:01.67,98,-189,-2049,-15,-4,47,49,38,11,-43
,1544,2023-10-27 12:18:01.68,90,-187,-2049,-21,0,48,175,227,-52,-201
,1545,2023-10-27 12:18:01.69,100,-183,-2054,-21,0,49,46,35,11,-40
,1546,2023-10-27 12:18:01.70,98,-178,-2048,-19,1,51,157,200,-43,-178
,1547,2023-10-27 12:18:01.71,93,-180,-2051,-21,-3,55,28,0,28,-14
,1548,2023-10-27 12:18:01.72,105,-177,-2047,-23,-3,54,136,154,-18,-145
,1549,2023-10-27 12:18:01.73,98,-183,-2052,-20,-4,55,30,-46,76,8
,1550,2023-10-27 12:18:01.74,94,-204,-2022,-16,-7,55,150,124,26,-137
,1551,2023-10-27 12:18:01.75,109,-153,-2047,-12,-11,60,51,-53,104,1
,1552,2023-10-27 12:18:01.76,95,-175,-2042,-16,-4,55,145,114,31,-129
,1553,2023-10-27 12:18:01.77,88,-181,-2042,-23,4,54,43,-67,110,12
,1554,2023-10-27 12:18:01.78,97,-171,-2055,-20,-1,55,145,94,51,-119
,1555,2023-10-27 12:18:01.79,97,-172,-2060,-20,-1,54,58,-80,138,11
,1556,2023-10-27 12:18:01.80,101,-168,-2054,-23,2,54,160,93,67,-126
,1557,2023-10-27 12:18:01.81,102,-166,-2059,-19,-2,54,60,-82,142,11
,1558,2023-10-27 12:18:01.82,81,-165,-2043,-26,4,51,154,97,57,-125
,1559,2023-10-27 12:18:01.83,90,-168,-2047,-29,2,46,49,-80,129,15
,1560,2023-10-27 12:18:01.84,96,-167,-2057,-30,4,45,134,96,38,-115
,1561,2023-10-27 12:18:01.85,101,-172,-2047,-27,1,44,49,-79,128,15
,1562,2023-10-27 12:18:01.86,92,-165,-2040,-22,3,40,142,98,44,-120
,1563,2023-10-27 12:18:01.87,95,-165,-2049,-23,5,37,63,-75,138,6
,1564,2023-10-27 12:18:01.88,92,-165,-2051,-23,7,33,148,100,48,-124
,1565,2023-10-27 12:18:01.89,90,-160,-2051,-20,8,32,72,-76,148,2
,1566,2023-10-27 12:18:01.90,80,-160,-2044,-21,11,28,156,98,58,-127
,1567,2023-10-27 12:18:01.91,94,-164,-2050,-22,12,28,91,-69,160,-11
,1568,2023-10-27 12:18:01.92,88,-163,-2053,-25,13,30,167,100,67,-133
,1569,2023-10-27 12:18:01.93,82,-162,-2052,-25,13,35,95,-79,174,-8
,1570,2023-10-27 12:18:01.94,89,-158,-2048,-24,13,38,163,85,78,-124
,1571,2023-10-27 12:18:01.95,85,-160,-2042,-30,12,39,96,-85,181,-5
,1572,2023-10-27 12:18:01.96,90,-148,-2040,-32,15,42,156,76,80,-116
,1573,2023-10-27 12:18:01.97,87,-149,-2047,-37,17,38,96,-92,188,-2
,1574,2023-10-27 12:18:01.98,98,-148,-2050,-41,20,39,150,76,74,-113
,1575,2023-10-27 12:18:01.99,90,-147,-2052,-42,21,36,96,-89,185,-3
,1576,2023-10-27 12:18:02.00,106,-142,-2057,-44,24,31,158,75,83,-116
,1577,2023-10-27 12:18:02.01,97,-130,-2054,-44,26,24,110,-88,198,-11
,1578,2023-10-27 12:18:02.02,98,-126,-2045,-48,27,20,156,85,71,-120
,1579,2023-10-27 12:18:02.03,105,-122,-2048,-49,30,17,116,-73,189,-21
,1580,2023-10-27 12:18:02.04,104,-127,-2055,-51,31,10,158,91,67,-124
,1581,2023-10-27 12:18:02.05,113,-122,-2046,-50,33,4,119,-71,190,-24
,1582,2023-10-27 12:18:02.06,107,-130,-2051,-50,35,4,139,95,44,-117
,1583,2023-10-27 12:18:02.07,109,-133,-2061,-50,36,6,98,-59,157,-19
,1584,2023-10-27 12:18:02.08,117,-128,-2057,-45,32,2,124,82,42,-103
,1585,2023-10-27 12:18:02.09,108,-124,-2053,-45,30,7,97,-75,172,-11
,1586,2023-10-27 12:18:02.10,122,-133,-2050,-43,29,8,107,70,37,-88
,1587,2023-10-27 12:18:02.11,109,-132,-2058,-40,27,9,101,-71,172,-15
,1588,2023-10-27 12:18:02.12,106,-132,-2060,-33,25,11,110,78,32,-94
,1589,2023-10-27 12:18:02.13,122,-127,-2054,-24,16,13,105,-69,174,-18
,1590,2023-10-27 12:18:02.14,107,-138,-2052,-18,10,17,120,70,50,-95
,1591,2023-10-27 12:18:02.15,114,-139,-2051,-13,8,18,121,-54,175,-33
,1592,2023-10-27 12:18:02.16,110,-139,-2055,-8,7,22,142,79,63,-110
,1593,2023-10-27 12:18:02.17,111,-135,-2054,-3,3,25,132,-58,190,-37
,1594,2023-10-27 12:18:02.18,106,-136,-2055,1,1,25,126,54,72,-90
,1595,2023-10-27 12:18:02.19,114,-120,-2050,2,-2,26,130,-78,208,-26
,1596,2023-10-27 12:18:02.20,105,-130,-2059,3,-3,27,126,48,78,-87
,1597,2023-10-27 12:18:02.21,102,-126,-2046,5,0,24,135,-61,196,-37
,1598,2023-10-27 12:18:02.22,102,-135,-2053,2,2,25,124,55,69,-89
,1599,2023-10-27 12:18:02.23,103,-133,-2055,3,3,23,146,-51,197,-47
,1600,2023-10-27 12:18:02.24,106,-137,-2040,4,5,23,131,47,84,-89
,1601,2023-10-27 12:18:02.25,106,-129,-2040,10,10,19,160,-52,212,-54
,1602,2023-10-27 12:18:02.26,112,-129,-2037,11,17,17,133,51,82,-92
,1603,2023-10-27 12:18:02.27,107,-136,-2019,13,17,15,156,-36,192,-60
,1604,2023-10-27 12:18:02.28,113,-147,-2039,16,22,11,112,56,56,-84
,1605,2023-10-27 12:18:02.29,109,-150,-2049,23,22,12,157,-29,186,-64
,1606,2023-10-27 12:18:02.30,113,-147,-2042,31,25,10,124,48,76,-86
,1607,2023-10-27 12:18:02.31,122,-140,-2047,32,31,8,162,-38,200,-62
,1608,2023-10-27 12:18:02.32,126,-134,-2055,32,31,2,109,32,77,-70
,1609,2023-10-27 12:18:02.33,116,-128,-2051,34,39,-5,153,-39,192,-57
,1610,2023-10-27 12:18:02.34,118,-127,-2044,35,40,-8,100,39,61,-69
,1611,2023-10-27 12:18:02.35,119,-136,-2039,31,44,-13,152,-25,177,-63
,1612,2023-10-27 12:18:02.36,125,-138,-2048,30,42,-12,98,32,66,-65
,1613,2023-10-27 12:18:02.37,111,-138,-2041,31,36,-13,159,-34,193,-62
,1614,2023-10-27 12:18:02.38,102,-141,-2046,33,32,-11,105,23,82,-64
,1615,2023-10-27 12:18:02.39,117,-144,-2057,29,26,-9,170,-33,203,-68
,1616,2023-10-27 12:18:02.40,116,-142,-2056,26,20,-6,101,16,85,-58
,1617,2023-10-27 12:18:02.41,126,-139,-2071,26,17,-5,166,-30,196,-68
,1618,2023-10-27 12:18:02.42,123,-145,-2062,25,10,-3,92,10,82,-51
,1619,2023-10-27 12:18:02.43,113,-144,-2066,21,8,2,170,-30,200,-70
,1620,2023-10-27 12:18:02.44,103,-139,-2071,20,3,5,97,15,82,-56
,1621,2023-10-27 12:18:02.45,123,-138,-2062,23,-3,7,176,-16,192,-80
,1622,2023-10-27 12:18:02.46,122,-138,-2058,23,-4,11,99,12,87,-55
,1623,2023-10-27 12:18:02.47,124,-149,-2044,30,-13,19,192,-19,211,-86
,1624,2023-10-27 12:18:02.48,142,-135,-2058,31,-15,19,108,2,106,-55
,1625,2023-10-27 12:18:02.49,126,-152,-2061,37,-18,29,183,-18,201,-82
,1626,2023-10-27 12:18:02.50,103,-136,-2062,30,-12,31,87,12,75,-49
,1627,2023-10-27 12:18:02.51,112,-158,-2044,22,-10,36,184,-11,195,-86
,1628,2023-10-27 12:18:02.52,108,-160,-2041,21,-6,40,99,-1,100,-49
,1629,2023-10-27 12:18:02.53,119,-156,-2053,22,-6,45,208,-9,217,-99
,1630,2023-10-27 12:18:02.54,112,-152,-2052,19,-1,45,109,-5,114,-52
,1631,2023-10-27 12:18:02.55,120,-141,-2043,9,10,44,208,-7,215,-100
,1632,2023-10-27 12:18:02.56,132,-122,-2037,1,21,40,96,5,91,-50
,1633,2023-10-27 12:18:02.57,127,-133,-2044,-10,31,35,208,17,191,-112
,1634,2023-10-27 12:18:02.58,126,-125,-2037,-20,30,31,92,5,87,-48
,1635,2023-10-27 12:18:02.59,142,-117,-2051,-27,31,29,201,5,196,-103
,1636,2023-10-27 12:18:02.60,141,-127,-2046,-37,35,22,73,-24,97,-24
,1637,2023-10-27 12:18:02.61,143,-115,-2052,-36,34,18,202,0,202,-101
,1638,2023-10-27 12:18:02.62,150,-128,-2051,-35,32,12,80,-7,87,-36
,1639,2023-10-27 12:18:02.63,137,-123,-2064,-28,23,8,189,11,178,-100
,1640,2023-10-27 12:18:02.64,145,-116,-2072,-29,19,4,65,2,63,-33
,1641,2023-10-27 12:18:02.65,167,-112,-2070,-24,11,0,190,24,166,-107
,1642,2023-10-27 12:18:02.66,128,-127,-2056,-16,2,0,64,-2,66,-31
,1643,2023-10-27 12:18:02.67,139,-111,-2071,-4,-10,-1,199,26,173,-112
,1644,2023-10-27 12:18:02.68,138,-116,-2061,-2,-22,-1,59,-4,63,-27
,1645,2023-10-27 12:18:02.69,152,-121,-2061,-1,-28,-3,189,25,164,-107
,1646,2023-10-27 12:18:02.70,126,-125,-2063,0,-37,-4,50,-16,66,-17
,1647,2023-10-27 12:18:02.71,121,-124,-2066,4,-49,-1,187,23,164,-105
,1648,2023-10-27 12:18:02.72,128,-128,-2051,5,-56,1,49,-18,67,-15
,1649,2023-10-27 12:18:02.73,125,-127,-2056,1,-56,3,201,31,170,-116
,1650,2023-10-27 12:18:02.74,115,-128,-2061,-3,-60,6,52,-22,74,-15
,1651,2023-10-27 12:18:02.75,118,-130,-2048,-7,-61,9,198,26,172,-112
,1652,2023-10-27 12:18:02.76,109,-134,-2050,-10,-61,11,46,-22,68,-12
,1653,2023-10-27 12:18:02.77,93,-133,-2047,-17,-59,13,194,34,160,-114
,1654,2023-10-27 12:18:02.78,90,-132,-2049,-22,-59,14,46,-24,70,-11
,1655,2023-10-27 12:18:02.79,92,-143,-2049,-23,-58,16,196,35,161,-115
,1656,2023-10-27 12:18:02.80,106,-136,-2041,-25,-52,17,39,-32,71,-3
,1657,2023-10-27 12:18:02.81,92,-139,-2057,-32,-45,14,198,32,166,-115
,1658,2023-10-27 12:18:02.82,72,-141,-2053,-38,-46,15,52,-38,90,-7
,1659,2023-10-27 12:18:02.83,70,-142,-2053,-38,-41,14,222,29,193,-125
,1660,2023-10-27 12:18:02.84,78,-141,-2048,-39,-39,15,61,-52,113,-4
,1661,2023-10-27 12:18:02.85,89,-132,-2039,-42,-34,12,226,30,196,-128
,1662,2023-10-27 12:18:02.86,90,-135,-2046,-41,-28,12,48,-50,98,1
,1663,2023-10-27 12:18:02.87,82,-138,-2038,-42,-22,10,207,35,172,-121
,1664,2023-10-27 12:18:02.88,90,-148,-2038,-40,-18,6,43,-45,88,1
,1665,2023-10-27 12:18:02.89,89,-140,-2037,-37,-9,7,207,39,168,-123
,1666,2023-10-27 12:18:02.90,83,-146,-2034,-30,-4,6,41,-53,94,6
,1667,2023-10-27 12:18:02.91,81,-150,-2026,-22,-4,4,223,38,185,-130
,1668,2023-10-27 12:18:02.92,88,-144,-2033,-15,-1,6,64,-54,118,-5
,1669,2023-10-27 12:18:02.93,77,-153,-2014,-23,9,10,229,47,182,-138
,1670,2023-10-27 12:18:02.94,91,-143,-2023,-18,8,10,59,-52,111,-3
,1671,2023-10-27 12:18:02.95,88,-160,-2035,-17,23,12,221,48,173,-134
,1672,2023-10-27 12:18:02.96,82,-152,-2008,-9,26,11,41,-52,93,5
,1673,2023-10-27 12:18:02.97,99,-179,-2027,2,23,19,229,51,178,-140
,1674,2023-10-27 12:18:02.98,98,-150,-2038,14,18,25,76,-44,120,-16
,1675,2023-10-27 12:18:02.99,95,-152,-2032,10,27,26,235,56,179,-145
,1676,2023-10-27 12:18:03.00,88,-188,-2041,20,19,27,67,-55,122,-6
,1677,2023-10-27 12:18:03.01,86,-154,-2066,32,14,32,243,54,189,-148
,1678,2023-10-27 12:18:03.02,90,-174,-2050,52,3,37,86,-46,132,-20
,1679,2023-10-27 12:18:03.03,92,-174,-2058,72,-7,40,284,71,213,-177
,1680,2023-10-27 12:18:03.04,99,-138,-2080,77,-5,38,99,-50,149,-24
,1681,2023-10-27 12:18:03.05,84,-153,-2071,64,11,35,281,81,200,-181
,1682,2023-10-27 12:18:03.06,78,-150,-2064,45,23,34,89,-36,125,-26
,1683,2023-10-27 12:18:03.07,78,-161,-2046,37,29,32,261,84,177,-172
,1684,2023-10-27 12:18:03.08,80,-163,-2045,41,22,36,84,-48,132,-18
,1685,2023-10-27 12:18:03.09,70,-149,-2066,34,25,39,254,74,180,-164
,1686,2023-10-27 12:18:03.10,79,-147,-2074,16,31,39,64,-72,136,4
,1687,2023-10-27 12:18:03.11,97,-136,-2056,5,27,37,260,63,197,-161
,1688,2023-10-27 12:18:03.12,88,-145,-2057,2,25,38,74,-61,135,-6
,1689,2023-10-27 12:18:03.13,81,-150,-2050,-5,19,40,266,78,188,-172
,1690,2023-10-27 12:18:03.14,98,-144,-2049,-9,21,40,74,-56,130,-9
,1691,2023-10-27 12:18:03.15,91,-132,-2041,-15,19,41,253,81,172,-167
,1692,2023-10-27 12:18:03.16,95,-136,-2043,-23,25,42,64,-63,127,0
,1693,2023-10-27 12:18:03.17,91,-137,-2051,-24,26,42,249,79,170,-164
,1694,2023-10-27 12:18:03.18,97,-127,-2050,-18,15,44,65,-64,129,0
,1695,2023-10-27 12:18:03.19,107,-128,-2050,-14,10,43,252,79,173,-165
,1696,2023-10-27 12:18:03.20,101,-124,-2051,-17,9,43,62,-66,128,2
,1697,2023-10-27 12:18:03.21,105,-113,-2049,-15,7,41,238,80,158,-159
,1698,2023-10-27 12:18:03.22,103,-117,-2039,-12,1,37,48,-68,116,10
,1699,2023-10-27 12:18:03.23,90,-143,-2032,2,-5,39,230,75,155,-152
,1700,2023-10-27 12:18:03.24,112,-75,-2071,-3,8,35,38,-79,117,20
,1701,2023-10-27 12:18:03.25,111,-111,-2050,-24,2,33,224,65,159,-144
,1702,2023-10-27 12:18:03.26,106,-113,-2035,-35,24,23,72,-83,155,5
,1703,2023-10-27 12:18:03.27,108,-112,-2072,-33,18,22,279,65,214,-172
,1704,2023-10-27 12:18:03.28,103,-111,-2041,-35,16,23,119,-84,203,-17
,1705,2023-10-27 12:18:03.29,112,-112,-2038,-31,18,17,332,74,258,-203
,1706,2023-10-27 12:18:03.30,113,-119,-2043,-26,20,14,173,-72,245,-50
,1707,2023-10-27 12:18:03.31,103,-118,-2046,-26,28,10,384,81,303,-232
,1708,2023-10-27 12:18:03.32,102,-118,-2049,-29,35,9,219,-72,291,-73
,1709,2023-10-27 12:18:03.33,107,-122,-2050,-28,41,8,396,80,316,-238
,1710,2023-10-27 12:18:03.34,106,-126,-2055,-24,44,11,200,-76,276,-62
,1711,2023-10-27 12:18:03.35,116,-124,-2060,-22,40,10,392,81,311,-236
,1712,2023-10-27 12:18:03.36,113,-125,-2050,-18,41,8,220,-74,294,-73
,1713,2023-10-27 12:18:03.37,117,-127,-2052,-13,41,10,407,80,327,-243
,1714,2023-10-27 12:18:03.38,114,-120,-2039,-10,46,13,232,-73,305,-79
,1715,2023-10-27 12:18:03.39,129,-121,-2039,-8,45,15,439,89,350,-264
,1716,2023-10-27 12:18:03.40,107,-114,-2034,-12,54,15,269,-77,346,-96
,1717,2023-10-27 12:18:03.41,120,-123,-2034,-9,61,16,447,74,373,-260
,1718,2023-10-27 12:18:03.42,126,-122,-2047,-13,73,14,254,-94,348,-80
,1719,2023-10-27 12:18:03.43,128,-118,-2048,-9,67,19,417,74,343,-245
,1720,2023-10-27 12:18:03.44,121,-122,-2049,-9,71,17,236,-74,310,-81
,1721,2023-10-27 12:18:03.45,127,-115,-2046,-5,72,16,383,84,299,-233
,1722,2023-10-27 12:18:03.46,145,-110,-2051,-5,74,15,201,-76,277,-62
,1723,2023-10-27 12:18:03.47,132,-118,-2050,0,77,11,358,80,278,-219
,1724,2023-10-27 12:18:03.48,149,-113,-2054,2,81,7,175,-78,253,-48
,1725,2023-10-27 12:18:03.49,151,-115,-2052,6,76,4,328,76,252,-202
,1726,2023-10-27 12:18:03.50,146,-111,-2053,8,81,-1,161,-80,241,-40
,1727,2023-10-27 12:18:03.51,134,-110,-2058,11,76,-1,310,69,241,-189
,1728,2023-10-27 12:18:03.52,134,-109,-2058,16,68,-2,144,-83,227,-30
,1729,2023-10-27 12:18:03.53,136,-117,-2055,20,65,-2,292,72,220,-182
,1730,2023-10-27 12:18:03.54,144,-117,-2061,22,60,-1,132,-85,217,-23
,1731,2023-10-27 12:18:03.55,134,-116,-2064,23,53,4,266,66,200,-166
,1732,2023-10-27 12:18:03.56,138,-120,-2060,21,45,6,115,-87,202,-14
,1733,2023-10-27 12:18:03.57,134,-121,-2066,19,45,10,258,70,188,-164
,1734,2023-10-27 12:18:03.58,137,-116,-2065,12,43,11,118,-76,194,-21
,1735,2023-10-27 12:18:03.59,143,-114,-2060,7,42,16,244,69,175,-156
,1736,2023-10-27 12:18:03.60,142,-113,-2062,1,42,18,108,-85,193,-11
,1737,2023-10-27 12:18:03.61,137,-117,-2063,-3,43,23,223,64,159,-143
,1738,2023-10-27 12:18:03.62,131,-115,-2049,-1,40,24,103,-81,184,-11
,1739,2023-10-27 12:18:03.63,134,-115,-2049,-3,44,27,220,67,153,-143
,1740,2023-10-27 12:18:03.64,143,-112,-2044,-6,44,27,106,-80,186,-13
,1741,2023-10-27 12:18:03.65,141,-114,-2049,-6,49,27,222,65,157,-143
,1742,2023-10-27 12:18:03.66,139,-109,-2051,-8,51,26,112,-76,188,-18
,1743,2023-10-27 12:18:03.67,144,-116,-2046,-8,49,27,236,62,174,-149
,1744,2023-10-27 12:18:03.68,157,-106,-2052,6,45,29,132,-83,215,-24
,1745,2023-10-27 12:18:03.69,152,-89,-2057,13,49,26,229,55,174,-142
,1746,2023-10-27 12:18:03.70,161,-110,-2047,15,48,19,130,-81,211,-24
,1747,2023-10-27 12:18:03.71,164,-114,-2051,16,53,13,235,54,181,-144
,1748,2023-10-27 12:18:03.72,152,-98,-2059,29,50,8,149,-79,228,-35
