// Data mode  : Full
// Data quality  : High
// Acceleration sensor's range  : 16g
// Gyroscope sensor's range  : 2000dps
//
//ARTIFACT,NUM,DATE,ACC_X,ACC_Y,ACC_Z,GYRO_X,GYRO_Y,GYRO_Z,EOG_L,EOG_R,EOG_H,EOG_V
,1,2023-10-27 12:24:44.80,209,-87,-2059,153,-39,25,601,803,-202,-702
,2,2023-10-27 12:24:44.81,209,-100,-2047,154,-55,21,478,568,-90,-523
,3,2023-10-27 12:24:44.82,205,-105,-2038,162,-56,24,588,794,-206,-691
,4,2023-10-27 12:24:44.83,199,-123,-2048,174,-56,23,487,566,-79,-526
,5,2023-10-27 12:24:44.84,199,-127,-2050,179,-60,21,586,793,-207,-689
,6,2023-10-27 12:24:44.85,202,-133,-2037,191,-70,25,493,578,-85,-535
,7,2023-10-27 12:24:44.86,207,-144,-2041,202,-69,24,569,797,-228,-683
,8,2023-10-27 12:24:44.87,191,-148,-2042,209,-81,24,488,583,-95,-535
,9,2023-10-27 12:24:44.88,200,-148,-2027,210,-85,29,562,793,-231,-677
,10,2023-10-27 12:24:44.89,191,-152,-2033,209,-87,31,500,592,-92,-546
,11,2023-10-27 12:24:44.90,191,-167,-2042,204,-93,36,552,794,-242,-673
,12,2023-10-27 12:24:44.91,184,-168,-2037,203,-101,39,500,589,-89,-544
,13,2023-10-27 12:24:44.92,187,-181,-2042,202,-99,46,545,785,-240,-665
,14,2023-10-27 12:24:44.93,166,-186,-2041,197,-109,48,511,594,-83,-552
,15,2023-10-27 12:24:44.94,165,-188,-2048,193,-115,54,536,792,-256,-664
,16,2023-10-27 12:24:44.95,173,-195,-2054,187,-119,55,518,610,-92,-564
,17,2023-10-27 12:24:44.96,169,-197,-2039,182,-125,62,526,790,-264,-658
,18,2023-10-27 12:24:44.97,167,-196,-2028,178,-131,65,528,610,-82,-569
,19,2023-10-27 12:24:44.98,174,-197,-2031,167,-125,64,522,786,-264,-654
,20,2023-10-27 12:24:44.99,171,-198,-2024,153,-116,64,542,628,-86,-585
,21,2023-10-27 12:24:45.00,173,-198,-2013,142,-110,61,513,776,-263,-644
,22,2023-10-27 12:24:45.01,172,-202,-2012,134,-99,60,539,618,-79,-578
,23,2023-10-27 12:24:45.02,157,-203,-2023,120,-89,60,493,762,-269,-627
,24,2023-10-27 12:24:45.03,167,-204,-2037,106,-79,57,544,632,-88,-588
,25,2023-10-27 12:24:45.04,153,-201,-2043,93,-69,60,498,773,-275,-635
,26,2023-10-27 12:24:45.05,158,-196,-2046,79,-73,62,547,630,-83,-588
,27,2023-10-27 12:24:45.06,169,-199,-2054,65,-76,67,492,761,-269,-626
,28,2023-10-27 12:24:45.07,152,-204,-2058,50,-79,72,562,635,-73,-598
,29,2023-10-27 12:24:45.08,144,-219,-2050,41,-85,77,481,755,-274,-618
,30,2023-10-27 12:24:45.09,154,-190,-2066,31,-81,83,561,643,-82,-602
,31,2023-10-27 12:24:45.10,150,-200,-2057,20,-90,91,461,744,-283,-602
,32,2023-10-27 12:24:45.11,151,-202,-2026,14,-93,95,554,636,-82,-595
,33,2023-10-27 12:24:45.12,161,-204,-2019,11,-100,104,448,734,-286,-591
,34,2023-10-27 12:24:45.13,149,-200,-2004,4,-92,110,559,641,-82,-600
,35,2023-10-27 12:24:45.14,161,-198,-2005,3,-82,118,446,736,-290,-591
,36,2023-10-27 12:24:45.15,160,-200,-1995,2,-75,116,569,656,-87,-612
,37,2023-10-27 12:24:45.16,172,-197,-1999,2,-57,118,445,729,-284,-587
,38,2023-10-27 12:24:45.17,168,-206,-2020,8,-39,124,578,661,-83,-619
,39,2023-10-27 12:24:45.18,169,-209,-2015,9,-21,125,447,732,-285,-589
,40,2023-10-27 12:24:45.19,146,-204,-2004,16,-12,129,588,668,-80,-628
,41,2023-10-27 12:24:45.20,148,-199,-2025,23,-8,135,448,728,-280,-588
,42,2023-10-27 12:24:45.21,172,-195,-2040,24,-8,140,598,678,-80,-638
,43,2023-10-27 12:24:45.22,144,-179,-2041,24,-12,138,437,732,-295,-584
,44,2023-10-27 12:24:45.23,149,-187,-2057,24,-15,138,595,686,-91,-640
,45,2023-10-27 12:24:45.24,143,-178,-2070,21,-15,136,433,722,-289,-577
,46,2023-10-27 12:24:45.25,129,-185,-2067,18,-13,133,604,692,-88,-648
,47,2023-10-27 12:24:45.26,132,-177,-2065,14,-30,129,428,723,-295,-575
,48,2023-10-27 12:24:45.27,139,-181,-2074,14,-32,127,608,700,-92,-654
,49,2023-10-27 12:24:45.28,133,-186,-2070,4,-31,122,423,722,-299,-572
,50,2023-10-27 12:24:45.29,133,-195,-2068,7,-43,118,614,709,-95,-661
,51,2023-10-27 12:24:45.30,127,-179,-2078,11,-42,118,418,716,-298,-567
,52,2023-10-27 12:24:45.31,121,-186,-2067,5,-49,111,617,717,-100,-667
,53,2023-10-27 12:24:45.32,128,-185,-2057,-1,-58,103,412,714,-302,-563
,54,2023-10-27 12:24:45.33,132,-191,-2061,4,-57,99,622,725,-103,-673
,55,2023-10-27 12:24:45.34,117,-186,-2053,2,-55,92,418,723,-305,-570
,56,2023-10-27 12:24:45.35,114,-180,-2046,1,-60,92,635,742,-107,-688
,57,2023-10-27 12:24:45.36,128,-179,-2036,-2,-53,88,423,693,-270,-558
,58,2023-10-27 12:24:45.37,126,-182,-2038,-5,-54,81,646,720,-74,-683
,59,2023-10-27 12:24:45.38,109,-180,-2044,-7,-56,80,427,670,-243,-548
,60,2023-10-27 12:24:45.39,110,-180,-2043,-11,-54,81,657,728,-71,-692
,61,2023-10-27 12:24:45.40,109,-180,-2055,-14,-51,79,435,683,-248,-559
,62,2023-10-27 12:24:45.41,100,-186,-2067,-19,-67,77,660,733,-73,-696
,63,2023-10-27 12:24:45.42,115,-183,-2059,-14,-75,83,424,673,-249,-548
,64,2023-10-27 12:24:45.43,118,-178,-2057,-16,-66,84,654,731,-77,-692
,65,2023-10-27 12:24:45.44,114,-180,-2059,-16,-87,83,414,673,-259,-543
,66,2023-10-27 12:24:45.45,103,-176,-2065,-18,-81,85,662,750,-88,-706
,67,2023-10-27 12:24:45.46,109,-174,-2072,-16,-85,79,401,660,-259,-530
,68,2023-10-27 12:24:45.47,89,-177,-2074,-14,-91,77,669,753,-84,-711
,69,2023-10-27 12:24:45.48,101,-174,-2076,-8,-98,79,407,656,-249,-531
,70,2023-10-27 12:24:45.49,96,-187,-2066,-4,-101,78,670,757,-87,-713
,71,2023-10-27 12:24:45.50,77,-191,-2072,3,-110,80,399,643,-244,-521
,72,2023-10-27 12:24:45.51,73,-183,-2055,12,-115,85,674,759,-85,-716
,73,2023-10-27 12:24:45.52,77,-193,-2043,19,-125,85,394,640,-246,-517
,74,2023-10-27 12:24:45.53,63,-210,-2030,27,-121,91,671,762,-91,-716
,75,2023-10-27 12:24:45.54,73,-173,-2045,34,-120,96,396,641,-245,-518
,76,2023-10-27 12:24:45.55,85,-196,-2041,39,-134,97,682,783,-101,-732
,77,2023-10-27 12:24:45.56,86,-190,-2027,43,-117,104,396,641,-245,-518
,78,2023-10-27 12:24:45.57,85,-208,-2033,56,-115,111,680,777,-97,-728
,79,2023-10-27 12:24:45.58,64,-192,-2040,57,-117,110,390,631,-241,-510
,80,2023-10-27 12:24:45.59,71,-191,-2045,59,-109,115,682,781,-99,-731
,81,2023-10-27 12:24:45.60,62,-203,-2039,65,-114,114,390,627,-237,-508
,82,2023-10-27 12:24:45.61,50,-205,-2043,71,-116,120,689,783,-94,-736
,83,2023-10-27 12:24:45.62,73,-197,-2047,78,-109,122,394,620,-226,-507
,84,2023-10-27 12:24:45.63,70,-200,-2033,75,-103,119,697,788,-91,-742
,85,2023-10-27 12:24:45.64,70,-213,-2034,76,-99,117,389,623,-234,-506
,86,2023-10-27 12:24:45.65,57,-210,-2011,75,-82,117,691,798,-107,-744
,87,2023-10-27 12:24:45.66,73,-186,-2045,77,-89,113,385,609,-224,-497
,88,2023-10-27 12:24:45.67,53,-196,-2037,75,-74,117,696,791,-95,-743
,89,2023-10-27 12:24:45.68,56,-187,-2035,68,-59,110,391,606,-215,-498
,90,2023-10-27 12:24:45.69,71,-186,-2044,66,-61,107,698,805,-107,-751
,91,2023-10-27 12:24:45.70,54,-195,-2040,67,-53,100,386,604,-218,-495
,92,2023-10-27 12:24:45.71,51,-200,-2040,66,-43,97,693,802,-109,-747
,93,2023-10-27 12:24:45.72,58,-197,-2053,63,-49,90,386,598,-212,-492
,94,2023-10-27 12:24:45.73,32,-191,-2050,56,-43,90,696,815,-119,-755
,95,2023-10-27 12:24:45.74,51,-198,-2044,53,-43,86,383,609,-226,-496
,96,2023-10-27 12:24:45.75,52,-199,-2039,46,-41,81,696,820,-124,-758
,97,2023-10-27 12:24:45.76,38,-202,-2045,40,-32,79,388,590,-202,-489
,98,2023-10-27 12:24:45.77,25,-209,-2046,38,-30,80,701,813,-112,-757
,99,2023-10-27 12:24:45.78,26,-210,-2053,34,-36,74,393,591,-198,-492
,100,2023-10-27 12:24:45.79,16,-211,-2052,39,-43,77,703,817,-114,-760
,101,2023-10-27 12:24:45.80,17,-232,-2048,40,-38,74,393,587,-194,-490
,102,2023-10-27 12:24:45.81,9,-199,-2044,43,-41,72,717,832,-115,-774
,103,2023-10-27 12:24:45.82,23,-214,-2036,45,-36,71,386,583,-197,-484
,104,2023-10-27 12:24:45.83,24,-220,-2027,47,-41,70,697,820,-123,-758
,105,2023-10-27 12:24:45.84,36,-221,-2027,50,-31,68,378,572,-194,-475
,106,2023-10-27 12:24:45.85,15,-223,-2043,57,-31,67,705,827,-122,-766
,107,2023-10-27 12:24:45.86,27,-221,-2043,61,-31,64,393,585,-192,-489
,108,2023-10-27 12:24:45.87,31,-220,-2043,68,-18,66,709,840,-131,-774
,109,2023-10-27 12:24:45.88,18,-221,-2045,71,-6,62,392,583,-191,-487
,110,2023-10-27 12:24:45.89,39,-222,-2046,75,-12,61,707,834,-127,-770
,111,2023-10-27 12:24:45.90,21,-221,-2036,82,-19,61,389,572,-183,-480
,112,2023-10-27 12:24:45.91,23,-231,-2033,88,-14,67,702,838,-136,-770
,113,2023-10-27 12:24:45.92,32,-239,-2037,90,-9,64,392,574,-182,-483
,114,2023-10-27 12:24:45.93,4,-260,-2029,93,-14,66,695,831,-136,-763
,115,2023-10-27 12:24:45.94,21,-234,-2036,94,-7,70,396,573,-177,-484
,116,2023-10-27 12:24:45.95,19,-248,-2043,96,-18,70,694,839,-145,-766
,117,2023-10-27 12:24:45.96,17,-246,-2040,98,-19,76,392,573,-181,-482
,118,2023-10-27 12:24:45.97,21,-246,-2045,97,-9,79,691,836,-145,-763
,119,2023-10-27 12:24:45.98,23,-258,-2047,98,-17,79,400,573,-173,-486
,120,2023-10-27 12:24:45.99,9,-251,-2048,100,-18,86,692,845,-153,-768
,121,2023-10-27 12:24:46.00,19,-259,-2041,101,-19,90,403,575,-172,-489
,122,2023-10-27 12:24:46.01,-2,-287,-2036,97,-25,89,693,842,-149,-767
,123,2023-10-27 12:24:46.02,16,-250,-2052,99,-30,95,409,573,-164,-491
,124,2023-10-27 12:24:46.03,9,-250,-2051,95,-27,90,693,843,-150,-768
,125,2023-10-27 12:24:46.04,15,-268,-2036,88,-25,92,406,570,-164,-488
,126,2023-10-27 12:24:46.05,1,-276,-2029,85,-18,98,683,841,-158,-762
,127,2023-10-27 12:24:46.06,21,-257,-2041,81,-13,99,405,567,-162,-486
,128,2023-10-27 12:24:46.07,16,-270,-2044,76,-19,95,686,842,-156,-764
,129,2023-10-27 12:24:46.08,7,-270,-2041,68,-9,99,412,565,-153,-488
,130,2023-10-27 12:24:46.09,14,-255,-2045,59,-14,93,682,842,-160,-762
,131,2023-10-27 12:24:46.10,9,-249,-2023,51,-14,90,415,566,-151,-490
,132,2023-10-27 12:24:46.11,12,-254,-2026,42,-6,85,681,850,-169,-765
,133,2023-10-27 12:24:46.12,10,-259,-2041,32,-1,82,419,576,-157,-497
,134,2023-10-27 12:24:46.13,35,-260,-2039,27,-6,84,673,846,-173,-759
,135,2023-10-27 12:24:46.14,23,-258,-2026,22,-1,79,421,565,-144,-493
,136,2023-10-27 12:24:46.15,20,-259,-2032,14,-3,73,673,836,-163,-754
,137,2023-10-27 12:24:46.16,16,-263,-2036,6,5,71,425,564,-139,-494
,138,2023-10-27 12:24:46.17,22,-255,-2033,1,9,64,665,838,-173,-751
,139,2023-10-27 12:24:46.18,8,-253,-2035,-4,10,64,427,564,-137,-495
,140,2023-10-27 12:24:46.19,9,-265,-2042,-9,14,56,667,838,-171,-752
,141,2023-10-27 12:24:46.20,16,-265,-2038,-13,7,51,436,572,-136,-504
,142,2023-10-27 12:24:46.21,5,-258,-2044,-13,18,52,662,848,-186,-755
,143,2023-10-27 12:24:46.22,9,-259,-2038,-18,14,45,446,586,-140,-516
,144,2023-10-27 12:24:46.23,10,-257,-2030,-22,19,40,659,844,-185,-751
,145,2023-10-27 12:24:46.24,15,-259,-2030,-28,29,33,441,572,-131,-506
,146,2023-10-27 12:24:46.25,9,-249,-2029,-37,37,25,635,822,-187,-728
,147,2023-10-27 12:24:46.26,12,-239,-2026,-41,40,17,441,570,-129,-505
,148,2023-10-27 12:24:46.27,16,-240,-2025,-47,48,11,649,843,-194,-746
,149,2023-10-27 12:24:46.28,11,-247,-2027,-54,52,7,458,584,-126,-521
,150,2023-10-27 12:24:46.29,14,-245,-2036,-60,58,-3,642,838,-196,-740
,151,2023-10-27 12:24:46.30,12,-237,-2037,-64,63,-10,458,577,-119,-517
,152,2023-10-27 12:24:46.31,29,-239,-2041,-67,65,-15,635,831,-196,-733
,153,2023-10-27 12:24:46.32,18,-236,-2032,-74,73,-25,463,585,-122,-524
,154,2023-10-27 12:24:46.33,22,-229,-2038,-75,73,-28,628,832,-204,-730
,155,2023-10-27 12:24:46.34,20,-232,-2045,-82,79,-37,463,574,-111,-518
,156,2023-10-27 12:24:46.35,32,-225,-2047,-86,76,-44,629,828,-199,-728
,157,2023-10-27 12:24:46.36,31,-225,-2043,-88,77,-47,475,583,-108,-529
,158,2023-10-27 12:24:46.37,30,-232,-2049,-87,79,-54,622,831,-209,-726
,159,2023-10-27 12:24:46.38,27,-228,-2050,-87,74,-57,477,585,-108,-531
,160,2023-10-27 12:24:46.39,26,-230,-2043,-87,75,-57,621,828,-207,-724
,161,2023-10-27 12:24:46.40,44,-233,-2052,-85,74,-57,492,593,-101,-542
,162,2023-10-27 12:24:46.41,34,-227,-2050,-83,72,-61,612,829,-217,-720
,163,2023-10-27 12:24:46.42,27,-232,-2051,-83,78,-60,491,592,-101,-541
,164,2023-10-27 12:24:46.43,29,-222,-2057,-81,79,-57,604,817,-213,-710
,165,2023-10-27 12:24:46.44,32,-217,-2045,-77,73,-56,498,592,-94,-545
,166,2023-10-27 12:24:46.45,39,-214,-2036,-76,69,-57,599,816,-217,-707
,167,2023-10-27 12:24:46.46,29,-210,-2044,-73,68,-56,499,590,-91,-544
,168,2023-10-27 12:24:46.47,46,-213,-2031,-72,77,-54,587,806,-219,-696
,169,2023-10-27 12:24:46.48,44,-219,-2034,-74,81,-59,513,603,-90,-558
,170,2023-10-27 12:24:46.49,57,-220,-2048,-74,85,-55,590,811,-221,-700
,171,2023-10-27 12:24:46.50,35,-211,-2036,-69,83,-52,520,602,-82,-561
,172,2023-10-27 12:24:46.51,56,-221,-2043,-63,91,-54,583,807,-224,-695
,173,2023-10-27 12:24:46.52,41,-215,-2040,-55,94,-43,526,616,-90,-571
,174,2023-10-27 12:24:46.53,47,-215,-2039,-54,91,-44,573,808,-235,-690
,175,2023-10-27 12:24:46.54,61,-210,-2055,-47,81,-41,531,612,-81,-571
,176,2023-10-27 12:24:46.55,54,-217,-2051,-41,85,-33,570,794,-224,-682
,177,2023-10-27 12:24:46.56,54,-210,-2057,-38,84,-30,540,612,-72,-576
,178,2023-10-27 12:24:46.57,76,-202,-2051,-32,83,-27,562,797,-235,-679
,179,2023-10-27 12:24:46.58,80,-197,-2048,-31,102,-24,543,619,-76,-581
,180,2023-10-27 12:24:46.59,73,-198,-2046,-33,107,-28,554,790,-236,-672
,181,2023-10-27 12:24:46.60,75,-195,-2050,-39,110,-25,555,629,-74,-592
,182,2023-10-27 12:24:46.61,73,-202,-2049,-42,117,-22,548,791,-243,-669
,183,2023-10-27 12:24:46.62,76,-198,-2036,-42,114,-17,558,632,-74,-595
,184,2023-10-27 12:24:46.63,91,-198,-2042,-41,124,-12,553,789,-236,-671
,185,2023-10-27 12:24:46.64,77,-202,-2046,-53,117,-8,568,636,-68,-602
,186,2023-10-27 12:24:46.65,98,-195,-2041,-56,116,-4,538,776,-238,-657
,187,2023-10-27 12:24:46.66,100,-183,-2047,-60,126,-2,561,623,-62,-592
,188,2023-10-27 12:24:46.67,97,-187,-2051,-60,124,1,527,765,-238,-646
,189,2023-10-27 12:24:46.68,92,-189,-2053,-63,139,5,579,640,-61,-609
,190,2023-10-27 12:24:46.69,101,-174,-2059,-66,126,5,518,771,-253,-644
,191,2023-10-27 12:24:46.70,97,-178,-2046,-67,126,12,572,648,-76,-610
,192,2023-10-27 12:24:46.71,115,-175,-2045,-62,116,13,502,754,-252,-628
,193,2023-10-27 12:24:46.72,133,-172,-2050,-59,118,20,574,645,-71,-609
,194,2023-10-27 12:24:46.73,132,-176,-2049,-57,117,14,501,749,-248,-625
,195,2023-10-27 12:24:46.74,128,-172,-2045,-62,125,17,596,655,-59,-625
,196,2023-10-27 12:24:46.75,120,-182,-2048,-62,117,17,498,745,-247,-621
,197,2023-10-27 12:24:46.76,140,-185,-2037,-53,108,19,601,671,-70,-636
,198,2023-10-27 12:24:46.77,137,-177,-2060,-40,113,19,486,742,-256,-614
,199,2023-10-27 12:24:46.78,140,-184,-2056,-29,100,21,600,668,-68,-634
,200,2023-10-27 12:24:46.79,134,-180,-2057,-25,92,31,471,729,-258,-600
,201,2023-10-27 12:24:46.80,143,-177,-2056,-19,87,38,606,678,-72,-642
,202,2023-10-27 12:24:46.81,151,-180,-2053,-10,85,40,471,736,-265,-603
,203,2023-10-27 12:24:46.82,127,-184,-2070,-5,69,46,610,686,-76,-648
,204,2023-10-27 12:24:46.83,125,-191,-2072,3,54,59,464,721,-257,-592
,205,2023-10-27 12:24:46.84,136,-191,-2058,7,47,65,617,684,-67,-650
,206,2023-10-27 12:24:46.85,130,-188,-2058,10,41,70,455,715,-260,-585
,207,2023-10-27 12:24:46.86,142,-176,-2063,11,47,78,619,690,-71,-654
,208,2023-10-27 12:24:46.87,132,-178,-2053,11,44,76,454,709,-255,-581
,209,2023-10-27 12:24:46.88,145,-178,-2065,15,27,81,634,701,-67,-667
,210,2023-10-27 12:24:46.89,115,-169,-2073,9,45,84,451,711,-260,-581
,211,2023-10-27 12:24:46.90,124,-187,-2048,10,36,85,633,708,-75,-670
,212,2023-10-27 12:24:46.91,145,-174,-2048,8,31,90,441,702,-261,-571
,213,2023-10-27 12:24:46.92,141,-175,-2045,4,42,99,641,711,-70,-676
,214,2023-10-27 12:24:46.93,134,-175,-2044,-7,30,96,441,694,-253,-567
,215,2023-10-27 12:24:46.94,153,-178,-2037,-6,40,103,644,720,-76,-682
,216,2023-10-27 12:24:46.95,135,-167,-2051,-15,55,107,430,688,-258,-559
,217,2023-10-27 12:24:46.96,147,-168,-2048,-20,42,109,644,721,-77,-682
,218,2023-10-27 12:24:46.97,143,-171,-2032,-31,57,106,430,684,-254,-557
,219,2023-10-27 12:24:46.98,151,-165,-2052,-29,53,112,650,732,-82,-691
,220,2023-10-27 12:24:46.99,126,-158,-2057,-31,50,111,418,677,-259,-547
,221,2023-10-27 12:24:47.00,130,-177,-2040,-37,45,109,652,733,-81,-692
,222,2023-10-27 12:24:47.01,146,-167,-2053,-31,47,114,420,672,-252,-546
,223,2023-10-27 12:24:47.02,139,-158,-2060,-37,38,113,659,743,-84,-701
,224,2023-10-27 12:24:47.03,158,-153,-2070,-38,29,115,412,665,-253,-538
,225,2023-10-27 12:24:47.04,156,-168,-2059,-40,37,115,668,754,-86,-711
,226,2023-10-27 12:24:47.05,127,-165,-2049,-37,25,112,410,659,-249,-534
,227,2023-10-27 12:24:47.06,138,-155,-2061,-33,16,111,665,753,-88,-709
,228,2023-10-27 12:24:47.07,134,-160,-2067,-32,14,113,396,640,-244,-518
,229,2023-10-27 12:24:47.08,146,-162,-2054,-29,1,111,665,754,-89,-709
,230,2023-10-27 12:24:47.09,152,-160,-2060,-26,2,114,402,649,-247,-525
,231,2023-10-27 12:24:47.10,134,-161,-2058,-25,-8,115,667,754,-87,-710
,232,2023-10-27 12:24:47.11,137,-171,-2053,-27,-15,114,398,632,-234,-515
,233,2023-10-27 12:24:47.12,134,-169,-2055,-19,-23,116,673,756,-83,-714
,234,2023-10-27 12:24:47.13,124,-168,-2053,-19,-19,117,385,628,-243,-506
,235,2023-10-27 12:24:47.14,132,-170,-2048,-20,-26,120,666,763,-97,-714
,236,2023-10-27 12:24:47.15,129,-159,-2052,-18,-28,120,388,638,-250,-513
,237,2023-10-27 12:24:47.16,134,-162,-2040,-19,-25,121,678,776,-98,-727
,238,2023-10-27 12:24:47.17,135,-167,-2046,-21,-20,122,385,626,-241,-505
,239,2023-10-27 12:24:47.18,136,-160,-2049,-19,-27,122,682,773,-91,-727
,240,2023-10-27 12:24:47.19,141,-154,-2050,-22,-19,121,384,626,-242,-505
,241,2023-10-27 12:24:47.20,131,-163,-2033,-19,-14,124,677,781,-104,-729
,242,2023-10-27 12:24:47.21,132,-161,-2027,-21,-11,117,381,614,-233,-497
,243,2023-10-27 12:24:47.22,128,-159,-2026,-24,-2,117,684,779,-95,-731
,244,2023-10-27 12:24:47.23,129,-154,-2036,-28,2,115,377,617,-240,-497
,245,2023-10-27 12:24:47.24,122,-152,-2041,-31,5,113,678,792,-114,-735
,246,2023-10-27 12:24:47.25,137,-154,-2050,-29,12,111,374,613,-239,-493
,247,2023-10-27 12:24:47.26,151,-144,-2059,-30,14,104,685,794,-109,-739
,248,2023-10-27 12:24:47.27,138,-147,-2041,-37,29,103,374,606,-232,-490
,249,2023-10-27 12:24:47.28,148,-131,-2059,-43,25,95,680,798,-118,-739
,250,2023-10-27 12:24:47.29,136,-126,-2044,-43,22,93,366,603,-237,-484
,251,2023-10-27 12:24:47.30,135,-127,-2058,-49,21,82,681,803,-122,-742
,252,2023-10-27 12:24:47.31,136,-137,-2045,-56,16,81,371,595,-224,-483
,253,2023-10-27 12:24:47.32,139,-127,-2053,-60,15,81,682,801,-119,-741
,254,2023-10-27 12:24:47.33,146,-120,-2058,-68,12,76,368,593,-225,-480
,255,2023-10-27 12:24:47.34,133,-128,-2045,-73,11,73,678,804,-126,-741
,256,2023-10-27 12:24:47.35,146,-116,-2057,-76,12,73,367,593,-226,-480
,257,2023-10-27 12:24:47.36,144,-109,-2064,-78,10,69,679,811,-132,-745
,258,2023-10-27 12:24:47.37,159,-119,-2065,-83,-2,61,364,588,-224,-476
,259,2023-10-27 12:24:47.38,144,-125,-2058,-80,4,63,680,812,-132,-746
,260,2023-10-27 12:24:47.39,148,-127,-2058,-74,-1,62,368,592,-224,-480
,261,2023-10-27 12:24:47.40,130,-126,-2063,-70,-7,61,680,825,-145,-752
,262,2023-10-27 12:24:47.41,130,-132,-2060,-64,-5,62,362,588,-226,-475
,263,2023-10-27 12:24:47.42,149,-125,-2055,-58,-4,60,675,819,-144,-747
,264,2023-10-27 12:24:47.43,132,-130,-2057,-54,-15,57,362,577,-215,-469
,265,2023-10-27 12:24:47.44,137,-134,-2052,-44,-13,59,682,824,-142,-753
,266,2023-10-27 12:24:47.45,143,-130,-2057,-34,-8,59,375,590,-215,-482
,267,2023-10-27 12:24:47.46,141,-132,-2055,-27,-11,55,674,825,-151,-749
,268,2023-10-27 12:24:47.47,133,-131,-2048,-20,-16,56,365,572,-207,-468
,269,2023-10-27 12:24:47.48,139,-119,-2051,-11,-13,54,669,815,-146,-742
,270,2023-10-27 12:24:47.49,132,-119,-2035,-6,-20,53,365,570,-205,-467
,271,2023-10-27 12:24:47.50,127,-121,-2034,-2,-7,48,674,831,-157,-752
,272,2023-10-27 12:24:47.51,132,-129,-2038,5,-16,41,365,569,-204,-467
,273,2023-10-27 12:24:47.52,128,-129,-2028,17,-15,42,669,839,-170,-754
,274,2023-10-27 12:24:47.53,136,-135,-2038,26,-15,37,364,574,-210,-469
,275,2023-10-27 12:24:47.54,146,-136,-2048,31,-20,35,663,830,-167,-746
,276,2023-10-27 12:24:47.55,138,-140,-2056,34,-8,30,369,572,-203,-470
,277,2023-10-27 12:24:47.56,143,-137,-2056,41,-13,26,667,837,-170,-752
,278,2023-10-27 12:24:47.57,143,-140,-2059,49,-14,25,368,565,-197,-466
,279,2023-10-27 12:24:47.58,119,-136,-2060,49,-26,24,658,832,-174,-745
,280,2023-10-27 12:24:47.59,130,-144,-2068,51,-28,27,369,565,-196,-467
,281,2023-10-27 12:24:47.60,126,-149,-2062,53,-30,27,660,844,-184,-752
,282,2023-10-27 12:24:47.61,122,-146,-2065,51,-44,27,374,570,-196,-472
,283,2023-10-27 12:24:47.62,126,-145,-2059,47,-43,32,656,838,-182,-747
,284,2023-10-27 12:24:47.63,132,-150,-2048,46,-39,30,375,563,-188,-469
,285,2023-10-27 12:24:47.64,132,-144,-2040,45,-48,26,657,843,-186,-750
,286,2023-10-27 12:24:47.65,129,-153,-2046,46,-43,32,382,570,-188,-476
,287,2023-10-27 12:24:47.66,123,-158,-2047,47,-40,34,650,839,-189,-744
,288,2023-10-27 12:24:47.67,135,-155,-2037,46,-50,33,373,555,-182,-464
,289,2023-10-27 12:24:47.68,126,-164,-2045,50,-43,39,641,833,-192,-737
,290,2023-10-27 12:24:47.69,128,-170,-2045,52,-36,41,385,564,-179,-474
,291,2023-10-27 12:24:47.70,128,-161,-2046,54,-41,43,644,841,-197,-742
,292,2023-10-27 12:24:47.71,113,-171,-2051,57,-44,51,384,564,-180,-474
,293,2023-10-27 12:24:47.72,122,-177,-2061,61,-43,55,636,838,-202,-737
,294,2023-10-27 12:24:47.73,135,-171,-2054,62,-56,58,383,564,-181,-473
,295,2023-10-27 12:24:47.74,139,-168,-2052,66,-52,72,626,837,-211,-731
,296,2023-10-27 12:24:47.75,119,-177,-2052,63,-58,75,389,562,-173,-475
,297,2023-10-27 12:24:47.76,121,-169,-2052,62,-63,79,635,844,-209,-739
,298,2023-10-27 12:24:47.77,116,-175,-2059,62,-66,89,400,578,-178,-489
,299,2023-10-27 12:24:47.78,104,-159,-2059,56,-68,88,629,851,-222,-740
,300,2023-10-27 12:24:47.79,107,-169,-2056,54,-79,89,397,569,-172,-483
,301,2023-10-27 12:24:47.80,100,-171,-2063,50,-73,91,620,837,-217,-728
,302,2023-10-27 12:24:47.81,115,-159,-2062,45,-80,91,406,563,-157,-484
,303,2023-10-27 12:24:47.82,96,-160,-2054,42,-92,90,619,840,-221,-729
,304,2023-10-27 12:24:47.83,77,-164,-2043,34,-75,96,411,564,-153,-487
,305,2023-10-27 12:24:47.84,96,-156,-2049,24,-87,89,615,834,-219,-724
,306,2023-10-27 12:24:47.85,85,-156,-2045,7,-75,84,420,568,-148,-494
,307,2023-10-27 12:24:47.86,72,-154,-2056,-4,-77,80,618,853,-235,-735
,308,2023-10-27 12:24:47.87,82,-147,-2052,-9,-73,80,416,574,-158,-495
,309,2023-10-27 12:24:47.88,87,-160,-2045,-11,-75,73,600,832,-232,-716
,310,2023-10-27 12:24:47.89,69,-157,-2055,-13,-73,77,422,556,-134,-489
,311,2023-10-27 12:24:47.90,66,-153,-2065,-19,-72,77,596,823,-227,-709
,312,2023-10-27 12:24:47.91,72,-153,-2057,-24,-79,75,430,568,-138,-499
,313,2023-10-27 12:24:47.92,76,-142,-2045,-24,-78,80,596,828,-232,-712
,314,2023-10-27 12:24:47.93,59,-146,-2044,-35,-71,80,438,569,-131,-503
,315,2023-10-27 12:24:47.94,62,-142,-2059,-44,-82,81,592,827,-235,-709
,316,2023-10-27 12:24:47.95,61,-138,-2046,-48,-82,90,429,558,-129,-493
,317,2023-10-27 12:24:47.96,52,-131,-2047,-49,-79,89,583,824,-241,-703
,318,2023-10-27 12:24:47.97,71,-123,-2046,-55,-73,87,446,575,-129,-510
,319,2023-10-27 12:24:47.98,73,-120,-2037,-61,-60,87,579,821,-242,-700
,320,2023-10-27 12:24:47.99,71,-118,-2047,-64,-45,82,451,572,-121,-511
,321,2023-10-27 12:24:48.00,54,-123,-2039,-61,-52,78,568,810,-242,-689
,322,2023-10-27 12:24:48.01,65,-120,-2036,-64,-41,78,462,573,-111,-517
,323,2023-10-27 12:24:48.02,52,-121,-2048,-65,-40,74,562,813,-251,-687
,324,2023-10-27 12:24:48.03,49,-123,-2055,-61,-28,82,462,582,-120,-522
,325,2023-10-27 12:24:48.04,64,-106,-2054,-66,-32,76,552,805,-253,-678
,326,2023-10-27 12:24:48.05,53,-106,-2059,-68,-33,79,472,576,-104,-524
,327,2023-10-27 12:24:48.06,57,-93,-2041,-75,-25,81,551,803,-252,-677
,328,2023-10-27 12:24:48.07,72,-81,-2031,-84,-20,77,473,584,-111,-528
,329,2023-10-27 12:24:48.08,77,-84,-2028,-92,-13,73,543,795,-252,-669
,330,2023-10-27 12:24:48.09,81,-82,-2048,-104,-8,66,483,584,-101,-533
,331,2023-10-27 12:24:48.10,70,-89,-2053,-100,1,66,534,796,-262,-665
,332,2023-10-27 12:24:48.11,84,-91,-2070,-89,-11,68,490,592,-102,-541
,333,2023-10-27 12:24:48.12,62,-97,-2068,-87,-14,71,526,828,-302,-677
,334,2023-10-27 12:24:48.13,74,-80,-2058,-76,-23,75,490,633,-143,-561
,335,2023-10-27 12:24:48.14,62,-89,-2051,-67,-23,79,519,799,-280,-659
,336,2023-10-27 12:24:48.15,64,-87,-2058,-62,-31,80,501,590,-89,-545
,337,2023-10-27 12:24:48.16,65,-82,-2059,-52,-29,85,523,784,-261,-653
,338,2023-10-27 12:24:48.17,81,-83,-2061,-44,-29,88,525,621,-96,-573
,339,2023-10-27 12:24:48.18,86,-74,-2058,-36,-32,89,514,787,-273,-650
,340,2023-10-27 12:24:48.19,79,-78,-2060,-28,-26,89,510,604,-94,-557
,341,2023-10-27 12:24:48.20,81,-74,-2051,-21,-27,92,496,762,-266,-629
,342,2023-10-27 12:24:48.21,71,-82,-2055,-14,-25,95,520,603,-83,-561
,343,2023-10-27 12:24:48.22,88,-84,-2059,-1,-22,96,500,767,-267,-633
,344,2023-10-27 12:24:48.23,58,-94,-2065,2,-22,95,528,615,-87,-571
,345,2023-10-27 12:24:48.24,52,-86,-2062,15,-32,98,486,759,-273,-622
,346,2023-10-27 12:24:48.25,61,-92,-2058,23,-22,101,539,620,-81,-579
,347,2023-10-27 12:24:48.26,67,-89,-2061,29,-27,103,490,734,-244,-612
,348,2023-10-27 12:24:48.27,72,-99,-2060,35,-25,102,566,610,-44,-588
,349,2023-10-27 12:24:48.28,65,-92,-2062,40,-23,101,486,740,-254,-613
,350,2023-10-27 12:24:48.29,66,-107,-2055,43,-25,104,552,629,-77,-590
,351,2023-10-27 12:24:48.30,49,-106,-2063,49,-25,104,462,743,-281,-602
,352,2023-10-27 12:24:48.31,56,-115,-2058,56,-28,106,548,636,-88,-592
,353,2023-10-27 12:24:48.32,46,-111,-2056,59,-35,109,456,741,-285,-598
,354,2023-10-27 12:24:48.33,35,-117,-2059,65,-30,114,558,640,-82,-599
,355,2023-10-27 12:24:48.34,26,-125,-2064,70,-41,111,458,731,-273,-594
,356,2023-10-27 12:24:48.35,37,-125,-2063,75,-39,118,572,645,-73,-608
,357,2023-10-27 12:24:48.36,16,-130,-2063,81,-40,123,443,704,-261,-573
,358,2023-10-27 12:24:48.37,20,-129,-2063,77,-42,119,578,645,-67,-611
,359,2023-10-27 12:24:48.38,19,-127,-2063,78,-42,123,454,717,-263,-585
,360,2023-10-27 12:24:48.39,-1,-134,-2058,83,-40,124,584,660,-76,-622
,361,2023-10-27 12:24:48.40,5,-132,-2048,80,-39,122,441,712,-271,-576
,362,2023-10-27 12:24:48.41,11,-128,-2028,81,-35,119,582,655,-73,-618
,363,2023-10-27 12:24:48.42,15,-133,-2026,78,-27,114,435,713,-278,-574
,364,2023-10-27 12:24:48.43,14,-128,-2028,71,-15,110,585,672,-87,-628
,365,2023-10-27 12:24:48.44,30,-125,-2017,65,-3,100,418,708,-290,-563
,366,2023-10-27 12:24:48.45,25,-129,-2015,61,9,93,589,672,-83,-630
,367,2023-10-27 12:24:48.46,31,-129,-2012,62,24,89,421,701,-280,-561
,368,2023-10-27 12:24:48.47,32,-126,-2033,58,32,74,598,685,-87,-641
,369,2023-10-27 12:24:48.48,31,-142,-2046,54,32,70,410,701,-291,-555
,370,2023-10-27 12:24:48.49,33,-124,-2038,46,42,61,602,690,-88,-646
,371,2023-10-27 12:24:48.50,41,-128,-2040,44,33,52,409,702,-293,-555
,372,2023-10-27 12:24:48.51,41,-123,-2068,36,38,45,604,700,-96,-652
,373,2023-10-27 12:24:48.52,32,-126,-2069,27,15,40,403,696,-293,-549
,374,2023-10-27 12:24:48.53,30,-136,-2056,20,12,37,614,709,-95,-661
,375,2023-10-27 12:24:48.54,28,-139,-2082,16,-2,33,401,689,-288,-545
,376,2023-10-27 12:24:48.55,19,-143,-2073,10,-7,37,620,707,-87,-663
,377,2023-10-27 12:24:48.56,31,-139,-2066,6,-10,34,399,680,-281,-539
,378,2023-10-27 12:24:48.57,24,-141,-2065,2,-20,32,626,717,-91,-671
,379,2023-10-27 12:24:48.58,28,-133,-2058,-2,-24,32,390,678,-288,-534
,380,2023-10-27 12:24:48.59,9,-133,-2066,-7,-36,32,624,724,-100,-674
,381,2023-10-27 12:24:48.60,14,-131,-2066,-13,-23,36,379,661,-282,-520
,382,2023-10-27 12:24:48.61,22,-137,-2061,-14,-42,28,630,725,-95,-677
,383,2023-10-27 12:24:48.62,25,-150,-2055,-14,-36,31,381,670,-289,-525
,384,2023-10-27 12:24:48.63,22,-142,-2051,-10,-41,30,633,739,-106,-686
,385,2023-10-27 12:24:48.64,26,-138,-2045,-9,-36,35,378,655,-277,-516
,386,2023-10-27 12:24:48.65,18,-142,-2042,-13,-25,33,636,733,-97,-684
,387,2023-10-27 12:24:48.66,13,-146,-2057,-12,-33,41,370,649,-279,-509
,388,2023-10-27 12:24:48.67,10,-162,-2058,-9,-29,46,636,742,-106,-689
,389,2023-10-27 12:24:48.68,11,-148,-2057,-6,-35,51,371,657,-286,-514
,390,2023-10-27 12:24:48.69,13,-148,-2054,1,-26,63,637,754,-117,-695
,391,2023-10-27 12:24:48.70,26,-156,-2055,-4,-28,67,354,638,-284,-496
,392,2023-10-27 12:24:48.71,17,-144,-2042,-6,-19,74,632,741,-109,-686
,393,2023-10-27 12:24:48.72,20,-146,-2040,-3,-14,79,357,630,-273,-493
,394,2023-10-27 12:24:48.73,15,-137,-2049,1,-14,86,641,759,-118,-700
,395,2023-10-27 12:24:48.74,20,-129,-2041,-5,2,87,348,622,-274,-485
,396,2023-10-27 12:24:48.75,30,-140,-2056,-8,-11,86,643,757,-114,-700
,397,2023-10-27 12:24:48.76,22,-142,-2042,-7,6,95,348,620,-272,-484
,398,2023-10-27 12:24:48.77,18,-149,-2045,-2,6,95,629,754,-125,-691
,399,2023-10-27 12:24:48.78,11,-147,-2066,0,-14,98,339,618,-279,-478
,400,2023-10-27 12:24:48.79,7,-141,-2053,0,4,104,635,764,-129,-699
,401,2023-10-27 12:24:48.80,5,-128,-2052,6,-11,105,337,609,-272,-473
,402,2023-10-27 12:24:48.81,19,-130,-2048,6,-6,106,644,775,-131,-709
,403,2023-10-27 12:24:48.82,35,-123,-2055,2,-3,104,338,608,-270,-473
,404,2023-10-27 12:24:48.83,27,-123,-2065,-5,-3,101,647,777,-130,-712
,405,2023-10-27 12:24:48.84,17,-127,-2043,-6,1,107,335,602,-267,-468
,406,2023-10-27 12:24:48.85,8,-120,-2040,-3,0,97,644,785,-141,-714
,407,2023-10-27 12:24:48.86,18,-129,-2059,-5,-1,106,327,599,-272,-463
,408,2023-10-27 12:24:48.87,5,-124,-2039,-12,-1,109,638,783,-145,-710
,409,2023-10-27 12:24:48.88,32,-118,-2054,-13,-7,107,331,588,-257,-459
,410,2023-10-27 12:24:48.89,15,-118,-2035,-13,-2,113,645,785,-140,-715
,411,2023-10-27 12:24:48.90,23,-120,-2038,-18,-3,106,328,589,-261,-458
,412,2023-10-27 12:24:48.91,24,-122,-2034,-22,5,112,638,788,-150,-713
,413,2023-10-27 12:24:48.92,18,-118,-2046,-28,9,114,324,588,-264,-456
,414,2023-10-27 12:24:48.93,15,-112,-2057,-31,6,118,641,794,-153,-717
,415,2023-10-27 12:24:48.94,17,-109,-2074,-35,0,118,323,580,-257,-451
,416,2023-10-27 12:24:48.95,23,-106,-2061,-41,0,126,647,798,-151,-722
,417,2023-10-27 12:24:48.96,11,-105,-2071,-50,3,126,328,585,-257,-456
,418,2023-10-27 12:24:48.97,13,-95,-2066,-56,-6,124,640,808,-168,-724
,419,2023-10-27 12:24:48.98,10,-96,-2070,-57,-6,126,318,572,-254,-445
,420,2023-10-27 12:24:48.99,9,-87,-2064,-58,-13,128,641,797,-156,-719
,421,2023-10-27 12:24:49.00,1,-98,-2061,-55,-13,125,325,571,-246,-448
,422,2023-10-27 12:24:49.01,4,-96,-2056,-54,-17,124,634,808,-174,-721
,423,2023-10-27 12:24:49.02,-8,-99,-2050,-51,-16,125,319,566,-247,-442
,424,2023-10-27 12:24:49.03,-2,-90,-2032,-51,-8,126,630,805,-175,-717
,425,2023-10-27 12:24:49.04,17,-83,-2048,-45,-5,127,318,568,-250,-443
,426,2023-10-27 12:24:49.05,12,-83,-2027,-41,-1,126,628,811,-183,-719
,427,2023-10-27 12:24:49.06,6,-90,-2053,-36,19,122,317,563,-246,-440
,428,2023-10-27 12:24:49.07,14,-92,-2048,-32,14,119,628,813,-185,-720
,429,2023-10-27 12:24:49.08,10,-86,-2050,-24,19,116,322,565,-243,-443
,430,2023-10-27 12:24:49.09,10,-83,-2041,-18,21,118,636,833,-197,-734
,431,2023-10-27 12:24:49.10,10,-86,-2034,-20,26,112,315,560,-245,-437
,432,2023-10-27 12:24:49.11,12,-91,-2048,-15,31,111,620,814,-194,-717
,433,2023-10-27 12:24:49.12,5,-88,-2043,-8,36,106,319,541,-222,-430
,434,2023-10-27 12:24:49.13,18,-90,-2049,-1,27,106,624,817,-193,-720
,435,2023-10-27 12:24:49.14,22,-88,-2058,0,33,104,322,549,-227,-435
,436,2023-10-27 12:24:49.15,19,-92,-2056,2,39,102,607,810,-203,-708
,437,2023-10-27 12:24:49.16,25,-87,-2061,10,38,95,319,552,-233,-435
,438,2023-10-27 12:24:49.17,23,-87,-2063,9,33,89,606,824,-218,-715
,439,2023-10-27 12:24:49.18,22,-92,-2060,13,39,88,320,554,-234,-437
,440,2023-10-27 12:24:49.19,25,-97,-2063,11,45,81,606,823,-217,-714
,441,2023-10-27 12:24:49.20,18,-100,-2060,11,42,82,330,554,-224,-442
,442,2023-10-27 12:24:49.21,24,-99,-2059,9,42,79,608,833,-225,-720
,443,2023-10-27 12:24:49.22,30,-100,-2048,11,37,79,324,552,-228,-438
,444,2023-10-27 12:24:49.23,29,-108,-2047,12,40,78,599,826,-227,-712
,445,2023-10-27 12:24:49.24,24,-96,-2056,11,37,81,331,552,-221,-441
,446,2023-10-27 12:24:49.25,18,-97,-2064,6,37,79,600,828,-228,-714
,447,2023-10-27 12:24:49.26,15,-99,-2051,0,37,76,327,547,-220,-437
,448,2023-10-27 12:24:49.27,18,-102,-2031,0,38,76,588,822,-234,-705
,449,2023-10-27 12:24:49.28,31,-103,-2055,0,37,75,332,547,-215,-439
,450,2023-10-27 12:24:49.29,21,-107,-2048,-2,50,72,592,838,-246,-715
,451,2023-10-27 12:24:49.30,22,-106,-2065,-7,50,71,339,558,-219,-448
,452,2023-10-27 12:24:49.31,21,-99,-2068,-6,55,76,584,833,-249,-708
,453,2023-10-27 12:24:49.32,24,-95,-2047,-4,47,74,344,548,-204,-446
,454,2023-10-27 12:24:49.33,15,-97,-2042,-1,44,70,581,830,-249,-705
,455,2023-10-27 12:24:49.34,20,-93,-2031,2,49,74,344,550,-206,-447
,456,2023-10-27 12:24:49.35,29,-109,-2046,9,51,71,573,829,-256,-701
,457,2023-10-27 12:24:49.36,8,-94,-2052,14,51,70,348,548,-200,-448
,458,2023-10-27 12:24:49.37,26,-104,-2055,22,45,67,566,825,-259,-695
,459,2023-10-27 12:24:49.38,30,-100,-2050,26,51,67,347,551,-204,-449
,460,2023-10-27 12:24:49.39,20,-101,-2054,30,54,68,560,826,-266,-693
,461,2023-10-27 12:24:49.40,17,-103,-2051,31,58,65,356,553,-197,-454
,462,2023-10-27 12:24:49.41,10,-99,-2060,28,53,58,567,837,-270,-702
,463,2023-10-27 12:24:49.42,18,-103,-2057,30,59,58,366,562,-196,-464
,464,2023-10-27 12:24:49.43,26,-102,-2045,32,59,46,553,835,-282,-694
,465,2023-10-27 12:24:49.44,15,-108,-2048,34,67,47,365,558,-193,-461
,466,2023-10-27 12:24:49.45,6,-102,-2039,33,81,37,548,832,-284,-690
,467,2023-10-27 12:24:49.46,30,-99,-2049,37,82,32,372,563,-191,-467
,468,2023-10-27 12:24:49.47,17,-102,-2035,43,92,27,542,830,-288,-686
,469,2023-10-27 12:24:49.48,27,-115,-2040,46,97,16,378,561,-183,-469
,470,2023-10-27 12:24:49.49,25,-115,-2040,48,94,12,538,835,-297,-686
,471,2023-10-27 12:24:49.50,34,-114,-2043,55,111,7,388,580,-192,-484
,472,2023-10-27 12:24:49.51,32,-109,-2042,59,92,-1,524,828,-304,-676
,473,2023-10-27 12:24:49.52,21,-110,-2042,60,96,-8,385,569,-184,-477
,474,2023-10-27 12:24:49.53,39,-104,-2059,55,87,-16,522,820,-298,-671
,475,2023-10-27 12:24:49.54,33,-107,-2066,52,85,-18,393,567,-174,-480
,476,2023-10-27 12:24:49.55,43,-103,-2066,50,71,-33,514,814,-300,-664
,477,2023-10-27 12:24:49.56,64,-108,-2072,48,70,-37,392,557,-165,-474
,478,2023-10-27 12:24:49.57,54,-108,-2073,39,75,-48,509,817,-308,-663
,479,2023-10-27 12:24:49.58,53,-108,-2070,31,75,-56,403,569,-166,-486
,480,2023-10-27 12:24:49.59,51,-108,-2069,26,73,-57,504,818,-314,-661
,481,2023-10-27 12:24:49.60,55,-114,-2061,18,75,-66,413,572,-159,-492
,482,2023-10-27 12:24:49.61,59,-108,-2042,7,72,-68,493,816,-323,-654
,483,2023-10-27 12:24:49.62,57,-114,-2048,-1,83,-69,412,577,-165,-494
,484,2023-10-27 12:24:49.63,60,-112,-2059,-12,77,-74,480,806,-326,-643
,485,2023-10-27 12:24:49.64,70,-101,-2057,-17,77,-72,420,577,-157,-498
,486,2023-10-27 12:24:49.65,66,-97,-2065,-23,68,-80,480,808,-328,-644
,487,2023-10-27 12:24:49.66,67,-95,-2071,-30,69,-76,428,585,-157,-506
,488,2023-10-27 12:24:49.67,68,-101,-2070,-35,57,-82,466,800,-334,-633
,489,2023-10-27 12:24:49.68,69,-92,-2069,-38,57,-82,436,583,-147,-509
,490,2023-10-27 12:24:49.69,71,-88,-2053,-40,51,-79,468,802,-334,-635
,491,2023-10-27 12:24:49.70,82,-96,-2054,-45,36,-83,441,592,-151,-516
,492,2023-10-27 12:24:49.71,67,-97,-2056,-41,31,-84,456,802,-346,-629
,493,2023-10-27 12:24:49.72,81,-99,-2067,-36,29,-81,452,595,-143,-523
,494,2023-10-27 12:24:49.73,80,-96,-2060,-34,15,-81,456,798,-342,-627
,495,2023-10-27 12:24:49.74,76,-96,-2060,-29,15,-79,456,602,-146,-529
,496,2023-10-27 12:24:49.75,79,-96,-2058,-26,8,-80,442,792,-350,-617
,497,2023-10-27 12:24:49.76,81,-98,-2058,-19,-4,-77,464,602,-138,-533
,498,2023-10-27 12:24:49.77,81,-94,-2059,-14,7,-75,435,788,-353,-611
,499,2023-10-27 12:24:49.78,75,-94,-2059,-11,-2,-76,470,614,-144,-542
,500,2023-10-27 12:24:49.79,91,-92,-2050,-3,4,-69,429,786,-357,-607
,501,2023-10-27 12:24:49.80,72,-93,-2047,-1,14,-72,472,619,-147,-545
,502,2023-10-27 12:24:49.81,84,-100,-2073,0,6,-68,416,781,-365,-598
,503,2023-10-27 12:24:49.82,74,-99,-2065,0,11,-61,472,620,-148,-546
,504,2023-10-27 12:24:49.83,98,-103,-2050,5,8,-58,408,774,-366,-591
,505,2023-10-27 12:24:49.84,87,-97,-2058,8,15,-55,484,623,-139,-553
,506,2023-10-27 12:24:49.85,83,-91,-2056,7,20,-54,413,776,-363,-594
,507,2023-10-27 12:24:49.86,94,-92,-2055,7,21,-52,498,636,-138,-567
,508,2023-10-27 12:24:49.87,86,-91,-2053,9,27,-50,402,771,-369,-586
,509,2023-10-27 12:24:49.88,96,-102,-2053,10,30,-50,492,636,-144,-564
,510,2023-10-27 12:24:49.89,96,-87,-2056,8,33,-48,395,759,-364,-577
,511,2023-10-27 12:24:49.90,90,-101,-2045,13,22,-44,508,639,-131,-573
,512,2023-10-27 12:24:49.91,108,-95,-2056,14,43,-40,394,759,-365,-576
,513,2023-10-27 12:24:49.92,105,-98,-2040,14,44,-33,505,639,-134,-572
,514,2023-10-27 12:24:49.93,111,-99,-2038,14,58,-35,377,745,-368,-561
,515,2023-10-27 12:24:49.94,109,-98,-2042,11,55,-33,515,650,-135,-582
,516,2023-10-27 12:24:49.95,104,-103,-2044,8,60,-29,372,747,-375,-559
,517,2023-10-27 12:24:49.96,115,-96,-2044,5,68,-25,518,661,-143,-589
,518,2023-10-27 12:24:49.97,126,-90,-2040,4,59,-30,364,733,-369,-548
,519,2023-10-27 12:24:49.98,112,-94,-2051,2,62,-28,528,663,-135,-595
,520,2023-10-27 12:24:49.99,125,-96,-2057,1,67,-27,360,733,-373,-546
,521,2023-10-27 12:24:50.00,120,-90,-2058,-1,59,-32,522,657,-135,-589
,522,2023-10-27 12:24:50.01,131,-93,-2056,0,57,-33,360,730,-370,-545
,523,2023-10-27 12:24:50.02,146,-85,-2052,-1,60,-36,544,679,-135,-611
,524,2023-10-27 12:24:50.03,126,-87,-2053,-5,52,-41,353,732,-379,-542
,525,2023-10-27 12:24:50.04,139,-86,-2065,-9,38,-50,535,686,-151,-610
,526,2023-10-27 12:24:50.05,134,-83,-2072,-8,41,-49,340,716,-376,-528
,527,2023-10-27 12:24:50.06,145,-81,-2066,-14,25,-55,542,685,-143,-613
,528,2023-10-27 12:24:50.07,143,-87,-2076,-17,9,-53,343,717,-374,-530
,529,2023-10-27 12:24:50.08,137,-88,-2071,-17,9,-54,555,696,-141,-625
,530,2023-10-27 12:24:50.09,129,-86,-2074,-19,-14,-60,340,713,-373,-526
,531,2023-10-27 12:24:50.10,131,-89,-2068,-20,-16,-51,556,701,-145,-628
,532,2023-10-27 12:24:50.11,133,-85,-2069,-20,-24,-48,333,711,-378,-522
,533,2023-10-27 12:24:50.12,123,-89,-2072,-24,-36,-45,560,710,-150,-635
,534,2023-10-27 12:24:50.13,117,-88,-2061,-24,-44,-45,327,698,-371,-512
,535,2023-10-27 12:24:50.14,124,-81,-2048,-27,-46,-40,558,710,-152,-634
,536,2023-10-27 12:24:50.15,115,-85,-2050,-26,-49,-42,322,693,-371,-507
,537,2023-10-27 12:24:50.16,122,-85,-2066,-20,-43,-37,571,721,-150,-646
,538,2023-10-27 12:24:50.17,98,-85,-2057,-14,-47,-36,320,687,-367,-503
,539,2023-10-27 12:24:50.18,109,-92,-2044,-12,-51,-31,571,727,-156,-649
,540,2023-10-27 12:24:50.19,102,-89,-2043,-8,-45,-30,317,686,-369,-501
,541,2023-10-27 12:24:50.20,100,-101,-2056,-3,-47,-25,572,737,-165,-654
,542,2023-10-27 12:24:50.21,103,-104,-2060,-2,-45,-19,308,680,-372,-494
,543,2023-10-27 12:24:50.22,99,-99,-2061,6,-47,-14,572,732,-160,-652
,544,2023-10-27 12:24:50.23,93,-93,-2057,12,-50,-14,309,666,-357,-487
,545,2023-10-27 12:24:50.24,99,-88,-2048,17,-39,-10,581,741,-160,-661
,546,2023-10-27 12:24:50.25,93,-84,-2047,19,-29,-14,311,670,-359,-490
,547,2023-10-27 12:24:50.26,92,-90,-2039,18,-21,-11,589,749,-160,-669
,548,2023-10-27 12:24:50.27,96,-86,-2044,19,-13,-10,308,669,-361,-488
,549,2023-10-27 12:24:50.28,91,-87,-2041,15,-16,-10,593,758,-165,-675
,550,2023-10-27 12:24:50.29,93,-96,-2042,14,-6,-7,298,659,-361,-478
,551,2023-10-27 12:24:50.30,84,-103,-2042,11,-7,-7,589,757,-168,-673
,552,2023-10-27 12:24:50.31,83,-97,-2045,11,1,-4,298,648,-350,-473
,553,2023-10-27 12:24:50.32,87,-96,-2053,9,2,0,598,772,-174,-685
,554,2023-10-27 12:24:50.33,87,-102,-2049,7,-3,2,297,647,-350,-472
,555,2023-10-27 12:24:50.34,99,-87,-2056,4,9,5,593,765,-172,-679
,556,2023-10-27 12:24:50.35,90,-91,-2058,4,-2,7,300,641,-341,-470
,557,2023-10-27 12:24:50.36,105,-83,-2054,3,7,12,601,776,-175,-688
,558,2023-10-27 12:24:50.37,99,-88,-2065,-1,5,14,298,640,-342,-469
,559,2023-10-27 12:24:50.38,89,-95,-2061,-7,2,16,600,773,-173,-686
,560,2023-10-27 12:24:50.39,103,-94,-2053,-11,5,18,294,633,-339,-463
,561,2023-10-27 12:24:50.40,92,-90,-2057,-16,6,18,598,783,-185,-690
,562,2023-10-27 12:24:50.41,106,-92,-2053,-17,0,25,276,619,-343,-447
,563,2023-10-27 12:24:50.42,95,-90,-2053,-17,10,27,599,788,-189,-693
,564,2023-10-27 12:24:50.43,84,-90,-2071,-20,8,28,285,625,-340,-455
,565,2023-10-27 12:24:50.44,93,-79,-2061,-24,11,33,602,792,-190,-697
,566,2023-10-27 12:24:50.45,93,-84,-2052,-25,9,34,283,622,-339,-452
,567,2023-10-27 12:24:50.46,92,-80,-2053,-22,8,36,596,796,-200,-696
,568,2023-10-27 12:24:50.47,92,-73,-2042,-22,7,41,275,614,-339,-444
,569,2023-10-27 12:24:50.48,101,-76,-2053,-19,11,37,597,799,-202,-698
,570,2023-10-27 12:24:50.49,87,-70,-2062,-16,5,38,280,608,-328,-444
,571,2023-10-27 12:24:50.50,88,-67,-2058,-13,-2,40,599,796,-197,-697
,572,2023-10-27 12:24:50.51,96,-66,-2047,-9,-3,36,283,607,-324,-445
,573,2023-10-27 12:24:50.52,93,-68,-2043,-8,-8,33,605,812,-207,-708
,574,2023-10-27 12:24:50.53,98,-62,-2050,-7,-4,34,282,608,-326,-445
,575,2023-10-27 12:24:50.54,99,-65,-2052,-6,-2,27,597,810,-213,-703
,576,2023-10-27 12:24:50.55,89,-63,-2055,-6,-3,22,280,601,-321,-440
,577,2023-10-27 12:24:50.56,88,-60,-2052,-5,0,24,599,811,-212,-705
,578,2023-10-27 12:24:50.57,92,-69,-2054,-3,-7,23,286,603,-317,-444
,579,2023-10-27 12:24:50.58,86,-70,-2060,-6,-11,22,600,818,-218,-709
,580,2023-10-27 12:24:50.59,94,-68,-2054,-6,-7,29,282,596,-314,-439
,581,2023-10-27 12:24:50.60,94,-68,-2065,-9,-10,26,599,816,-217,-707
,582,2023-10-27 12:24:50.61,84,-64,-2055,-12,0,28,279,592,-313,-435
,583,2023-10-27 12:24:50.62,92,-70,-2059,-16,-7,25,596,825,-229,-710
,584,2023-10-27 12:24:50.63,100,-64,-2052,-19,3,31,279,596,-317,-437
,585,2023-10-27 12:24:50.64,102,-71,-2063,-21,17,35,598,829,-231,-713
,586,2023-10-27 12:24:50.65,90,-71,-2053,-24,10,30,286,595,-309,-440
,587,2023-10-27 12:24:50.66,90,-72,-2053,-24,15,38,590,836,-246,-713
,588,2023-10-27 12:24:50.67,88,-75,-2051,-21,18,40,280,590,-310,-435
,589,2023-10-27 12:24:50.68,85,-71,-2042,-19,17,44,588,832,-244,-710
,590,2023-10-27 12:24:50.69,82,-73,-2039,-14,33,48,288,590,-302,-439
,591,2023-10-27 12:24:50.70,84,-75,-2039,-10,34,49,590,836,-246,-713
,592,2023-10-27 12:24:50.71,94,-77,-2032,-3,47,58,289,583,-294,-436
,593,2023-10-27 12:24:50.72,98,-78,-2028,-3,52,54,590,835,-245,-712
,594,2023-10-27 12:24:50.73,87,-79,-2028,-2,56,62,297,600,-303,-448
,595,2023-10-27 12:24:50.74,109,-76,-2034,1,74,63,587,846,-259,-716
,596,2023-10-27 12:24:50.75,94,-70,-2025,-3,80,61,290,580,-290,-435
,597,2023-10-27 12:24:50.76,96,-78,-2042,-5,92,64,587,836,-249,-711
,598,2023-10-27 12:24:50.77,95,-80,-2038,-13,106,65,293,576,-283,-434
,599,2023-10-27 12:24:50.78,100,-69,-2033,-13,106,63,579,848,-269,-713
,600,2023-10-27 12:24:50.79,118,-67,-2036,-19,129,65,288,579,-291,-433
,601,2023-10-27 12:24:50.80,128,-61,-2047,-31,136,57,571,841,-270,-706
,602,2023-10-27 12:24:50.81,118,-68,-2039,-33,141,57,299,567,-268,-433
,603,2023-10-27 12:24:50.82,115,-67,-2046,-35,168,59,558,830,-272,-694
,604,2023-10-27 12:24:50.83,108,-67,-2048,-33,160,55,297,572,-275,-434
,605,2023-10-27 12:24:50.84,119,-71,-2047,-32,172,55,560,843,-283,-701
,606,2023-10-27 12:24:50.85,131,-59,-2037,-27,194,55,299,570,-271,-434
,607,2023-10-27 12:24:50.86,120,-63,-2028,-17,187,50,552,843,-291,-697
,608,2023-10-27 12:24:50.87,141,-54,-2055,-15,209,46,299,570,-271,-434
,609,2023-10-27 12:24:50.88,139,-70,-2061,-10,197,43,545,846,-301,-695
,610,2023-10-27 12:24:50.89,142,-53,-2043,-9,200,38,300,572,-272,-436
,611,2023-10-27 12:24:50.90,155,-58,-2048,3,203,35,536,848,-312,-692
,612,2023-10-27 12:24:50.91,165,-47,-2038,11,210,34,303,567,-264,-435
,613,2023-10-27 12:24:50.92,174,-55,-2022,20,218,28,536,850,-314,-693
,614,2023-10-27 12:24:50.93,189,-57,-2039,28,221,21,311,573,-262,-442
,615,2023-10-27 12:24:50.94,176,-52,-2034,36,224,13,522,848,-326,-685
,616,2023-10-27 12:24:50.95,192,-45,-2044,45,227,5,305,567,-262,-436
,617,2023-10-27 12:24:50.96,191,-48,-2044,51,218,2,513,844,-331,-678
,618,2023-10-27 12:24:50.97,190,-52,-2058,52,211,-2,306,572,-266,-439
,619,2023-10-27 12:24:50.98,190,-43,-2067,53,214,-4,500,842,-342,-671
,620,2023-10-27 12:24:50.99,200,-41,-2064,53,204,-10,310,560,-250,-435
,621,2023-10-27 12:24:51.00,203,-39,-2072,49,193,-9,494,838,-344,-666
,622,2023-10-27 12:24:51.01,203,-37,-2076,41,190,-12,312,571,-259,-441
,623,2023-10-27 12:24:51.02,217,-41,-2074,34,169,-18,478,843,-365,-660
,624,2023-10-27 12:24:51.03,218,-37,-2078,33,167,-19,308,565,-257,-436
,625,2023-10-27 12:24:51.04,227,-39,-2078,33,153,-25,445,831,-386,-638
,626,2023-10-27 12:24:51.05,213,-53,-2067,33,142,-27,289,553,-264,-421
,627,2023-10-27 12:24:51.06,238,-53,-2087,36,132,-28,422,827,-405,-624
,628,2023-10-27 12:24:51.07,228,-51,-2075,40,120,-32,299,561,-262,-430
,629,2023-10-27 12:24:51.08,234,-57,-2060,49,110,-39,422,840,-418,-631
,630,2023-10-27 12:24:51.09,240,-60,-2069,55,109,-43,304,573,-269,-438
,631,2023-10-27 12:24:51.10,242,-76,-2058,61,93,-45,414,836,-422,-625
,632,2023-10-27 12:24:51.11,235,-70,-2053,70,92,-50,317,572,-255,-444
,633,2023-10-27 12:24:51.12,233,-79,-2062,78,78,-55,416,847,-431,-631
,634,2023-10-27 12:24:51.13,230,-77,-2053,85,76,-58,324,590,-266,-457
,635,2023-10-27 12:24:51.14,241,-80,-2057,91,66,-61,403,849,-446,-626
,636,2023-10-27 12:24:51.15,246,-74,-2039,98,59,-63,331,586,-255,-458
,637,2023-10-27 12:24:51.16,240,-82,-2041,95,60,-68,409,845,-436,-627
,638,2023-10-27 12:24:51.17,249,-91,-2044,97,50,-69,342,593,-251,-467
,639,2023-10-27 12:24:51.18,234,-95,-2049,97,46,-64,399,847,-448,-623
,640,2023-10-27 12:24:51.19,245,-92,-2044,97,37,-66,349,600,-251,-474
,641,2023-10-27 12:24:51.20,243,-96,-2048,98,41,-64,385,842,-457,-613
,642,2023-10-27 12:24:51.21,231,-92,-2055,94,39,-63,352,603,-251,-477
,643,2023-10-27 12:24:51.22,252,-98,-2059,91,32,-61,380,840,-460,-610
,644,2023-10-27 12:24:51.23,234,-103,-2056,89,26,-59,362,604,-242,-483
,645,2023-10-27 12:24:51.24,250,-106,-2061,89,18,-54,378,838,-460,-608
,646,2023-10-27 12:24:51.25,250,-106,-2068,86,10,-54,364,606,-242,-485
,647,2023-10-27 12:24:51.26,249,-100,-2067,82,3,-54,366,836,-470,-601
,648,2023-10-27 12:24:51.27,248,-103,-2058,81,-5,-52,372,615,-243,-493
,649,2023-10-27 12:24:51.28,256,-102,-2057,76,-5,-50,359,837,-478,-598
,650,2023-10-27 12:24:51.29,252,-99,-2051,69,-9,-50,368,611,-243,-489
,651,2023-10-27 12:24:51.30,249,-96,-2052,63,-14,-50,348,832,-484,-590
,652,2023-10-27 12:24:51.31,243,-104,-2049,63,-18,-54,381,616,-235,-498
,653,2023-10-27 12:24:51.32,253,-114,-2051,59,-24,-51,343,829,-486,-586
,654,2023-10-27 12:24:51.33,241,-113,-2058,56,-32,-49,384,618,-234,-501
,655,2023-10-27 12:24:51.34,238,-112,-2051,56,-39,-51,333,821,-488,-577
,656,2023-10-27 12:24:51.35,240,-111,-2046,57,-47,-45,390,624,-234,-507
,657,2023-10-27 12:24:51.36,230,-116,-2058,57,-55,-47,325,816,-491,-570
,658,2023-10-27 12:24:51.37,240,-117,-2058,54,-67,-46,391,625,-234,-508
,659,2023-10-27 12:24:51.38,235,-122,-2050,57,-66,-44,314,812,-498,-563
,660,2023-10-27 12:24:51.39,239,-120,-2054,56,-75,-41,399,635,-236,-517
,661,2023-10-27 12:24:51.40,223,-119,-2053,58,-80,-39,315,818,-503,-566
,662,2023-10-27 12:24:51.41,221,-122,-2046,56,-83,-33,404,640,-236,-522
,663,2023-10-27 12:24:51.42,241,-128,-2042,58,-84,-33,313,810,-497,-561
,664,2023-10-27 12:24:51.43,240,-120,-2048,54,-77,-34,419,643,-224,-531
,665,2023-10-27 12:24:51.44,228,-121,-2046,51,-85,-33,304,805,-501,-554
,666,2023-10-27 12:24:51.45,212,-128,-2042,52,-80,-32,418,641,-223,-529
,667,2023-10-27 12:24:51.46,213,-130,-2059,53,-77,-31,292,793,-501,-542
,668,2023-10-27 12:24:51.47,205,-135,-2052,51,-88,-30,425,646,-221,-535
,669,2023-10-27 12:24:51.48,205,-129,-2050,49,-75,-29,291,793,-502,-542
,670,2023-10-27 12:24:51.49,212,-128,-2046,43,-77,-27,430,655,-225,-542
,671,2023-10-27 12:24:51.50,206,-125,-2038,47,-79,-28,279,786,-507,-532
,672,2023-10-27 12:24:51.51,204,-119,-2044,44,-73,-29,436,660,-224,-548
,673,2023-10-27 12:24:51.52,198,-129,-2039,38,-74,-30,278,783,-505,-530
,674,2023-10-27 12:24:51.53,202,-133,-2037,38,-64,-29,437,662,-225,-549
,675,2023-10-27 12:24:51.54,201,-131,-2041,41,-67,-27,272,768,-496,-520
,676,2023-10-27 12:24:51.55,198,-127,-2043,40,-69,-23,436,663,-227,-549
,677,2023-10-27 12:24:51.56,209,-136,-2039,40,-76,-25,262,773,-511,-517
,678,2023-10-27 12:24:51.57,201,-135,-2040,42,-68,-21,444,674,-230,-559
,679,2023-10-27 12:24:51.58,194,-138,-2058,40,-67,-23,265,770,-505,-517
,680,2023-10-27 12:24:51.59,193,-132,-2068,39,-79,-19,455,680,-225,-567
,681,2023-10-27 12:24:51.60,196,-133,-2064,44,-83,-15,254,767,-513,-510
,682,2023-10-27 12:24:51.61,196,-124,-2064,39,-83,-16,450,686,-236,-568
,683,2023-10-27 12:24:51.62,193,-123,-2060,33,-84,-14,248,757,-509,-502
,684,2023-10-27 12:24:51.63,195,-122,-2052,29,-80,-21,464,690,-226,-577
,685,2023-10-27 12:24:51.64,190,-113,-2051,27,-79,-22,250,749,-499,-499
,686,2023-10-27 12:24:51.65,188,-124,-2053,22,-75,-21,468,692,-224,-580
,687,2023-10-27 12:24:51.66,183,-118,-2051,16,-78,-25,242,744,-502,-493
,688,2023-10-27 12:24:51.67,178,-125,-2054,16,-84,-18,470,708,-238,-589
,689,2023-10-27 12:24:51.68,171,-129,-2055,13,-78,-16,237,742,-505,-489
,690,2023-10-27 12:24:51.69,179,-130,-2051,12,-88,-10,477,705,-228,-591
,691,2023-10-27 12:24:51.70,173,-126,-2039,14,-86,-4,240,740,-500,-490
,692,2023-10-27 12:24:51.71,165,-119,-2057,12,-88,-4,481,720,-239,-600
,693,2023-10-27 12:24:51.72,171,-113,-2037,9,-78,2,224,731,-507,-477
,694,2023-10-27 12:24:51.73,174,-121,-2048,6,-80,-3,479,719,-240,-599
,695,2023-10-27 12:24:51.74,158,-118,-2039,5,-76,3,222,724,-502,-473
,696,2023-10-27 12:24:51.75,171,-120,-2042,8,-69,6,486,726,-240,-606
,697,2023-10-27 12:24:51.76,174,-122,-2046,8,-78,3,220,717,-497,-468
,698,2023-10-27 12:24:51.77,164,-125,-2037,7,-57,10,486,728,-242,-607
,699,2023-10-27 12:24:51.78,170,-124,-2050,6,-66,6,214,715,-501,-464
,700,2023-10-27 12:24:51.79,163,-129,-2039,11,-62,10,490,739,-249,-614
,701,2023-10-27 12:24:51.80,162,-125,-2044,8,-53,12,212,703,-491,-457
,702,2023-10-27 12:24:51.81,167,-123,-2047,11,-66,16,491,739,-248,-615
,703,2023-10-27 12:24:51.82,162,-116,-2055,3,-42,19,210,702,-492,-456
,704,2023-10-27 12:24:51.83,160,-126,-2055,3,-58,15,488,744,-256,-616
,705,2023-10-27 12:24:51.84,167,-123,-2045,4,-45,21,200,693,-493,-446
,706,2023-10-27 12:24:51.85,165,-120,-2047,2,-50,20,496,747,-251,-621
,707,2023-10-27 12:24:51.86,161,-120,-2039,2,-42,20,204,685,-481,-444
,708,2023-10-27 12:24:51.87,169,-122,-2047,0,-42,20,496,752,-256,-624
,709,2023-10-27 12:24:51.88,151,-129,-2048,3,-43,26,198,677,-479,-437
,710,2023-10-27 12:24:51.89,147,-125,-2051,7,-40,25,496,763,-267,-629
,711,2023-10-27 12:24:51.90,153,-128,-2049,8,-35,33,197,682,-485,-439
,712,2023-10-27 12:24:51.91,159,-121,-2040,9,-37,29,498,767,-269,-632
,713,2023-10-27 12:24:51.92,155,-128,-2059,13,-36,31,195,668,-473,-431
,714,2023-10-27 12:24:51.93,155,-132,-2058,11,-32,33,503,771,-268,-637
,715,2023-10-27 12:24:51.94,165,-135,-2044,12,-40,34,194,675,-481,-434
,716,2023-10-27 12:24:51.95,157,-131,-2049,17,-32,38,500,779,-279,-639
,717,2023-10-27 12:24:51.96,160,-128,-2047,16,-39,40,192,668,-476,-430
,718,2023-10-27 12:24:51.97,160,-125,-2048,7,-40,40,504,781,-277,-642
,719,2023-10-27 12:24:51.98,150,-129,-2039,8,-37,46,191,656,-465,-423
,720,2023-10-27 12:24:51.99,150,-118,-2038,4,-33,41,511,787,-276,-649
,721,2023-10-27 12:24:52.00,162,-130,-2046,2,-35,44,196,650,-454,-423
,722,2023-10-27 12:24:52.01,163,-124,-2046,-1,-15,46,510,790,-280,-650
,723,2023-10-27 12:24:52.02,152,-125,-2054,-1,-25,41,192,645,-453,-418
,724,2023-10-27 12:24:52.03,152,-132,-2060,-1,-20,45,507,796,-289,-651
,725,2023-10-27 12:24:52.04,151,-127,-2066,-1,-28,41,191,642,-451,-416
,726,2023-10-27 12:24:52.05,142,-130,-2071,0,-31,44,509,804,-295,-656
,727,2023-10-27 12:24:52.06,128,-131,-2074,-4,-32,46,193,641,-448,-417
,728,2023-10-27 12:24:52.07,147,-127,-2076,-4,-47,46,506,801,-295,-653
,729,2023-10-27 12:24:52.08,125,-123,-2071,-4,-50,51,195,636,-441,-415
,730,2023-10-27 12:24:52.09,130,-129,-2065,-13,-60,49,515,809,-294,-662
,731,2023-10-27 12:24:52.10,115,-132,-2069,-12,-57,59,195,632,-437,-413
,732,2023-10-27 12:24:52.11,130,-130,-2064,-13,-60,59,511,808,-297,-659
,733,2023-10-27 12:24:52.12,131,-119,-2054,-11,-67,59,196,625,-429,-410
,734,2023-10-27 12:24:52.13,124,-125,-2051,-11,-52,62,509,813,-304,-661
,735,2023-10-27 12:24:52.14,117,-127,-2043,-12,-60,63,191,611,-420,-401
,736,2023-10-27 12:24:52.15,129,-122,-2048,-1,-60,60,501,806,-305,-653
,737,2023-10-27 12:24:52.16,117,-124,-2039,-2,-50,60,199,614,-415,-406
,738,2023-10-27 12:24:52.17,120,-133,-2037,3,-46,60,504,820,-316,-662
,739,2023-10-27 12:24:52.18,124,-123,-2031,5,-40,61,192,617,-425,-404
,740,2023-10-27 12:24:52.19,119,-134,-2037,6,-34,59,502,818,-316,-660
,741,2023-10-27 12:24:52.20,116,-124,-2037,6,-23,61,197,605,-408,-401
,742,2023-10-27 12:24:52.21,121,-125,-2041,6,-16,61,508,825,-317,-666
,743,2023-10-27 12:24:52.22,123,-131,-2046,7,-15,62,199,608,-409,-403
,744,2023-10-27 12:24:52.23,119,-124,-2039,4,-17,60,503,827,-324,-665
,745,2023-10-27 12:24:52.24,121,-119,-2042,2,-4,65,198,609,-411,-403
,746,2023-10-27 12:24:52.25,121,-128,-2046,-3,4,66,500,834,-334,-667
,747,2023-10-27 12:24:52.26,127,-116,-2047,-10,1,64,200,601,-401,-400
,748,2023-10-27 12:24:52.27,115,-120,-2057,-14,6,66,500,837,-337,-668
,749,2023-10-27 12:24:52.28,129,-117,-2068,-21,1,65,206,603,-397,-404
,750,2023-10-27 12:24:52.29,128,-109,-2066,-27,-2,67,492,840,-348,-666
,751,2023-10-27 12:24:52.30,145,-104,-2056,-29,-9,65,203,599,-396,-401
,752,2023-10-27 12:24:52.31,117,-111,-2056,-33,-5,62,490,839,-349,-664
,753,2023-10-27 12:24:52.32,128,-112,-2057,-34,-5,58,203,594,-391,-398
,754,2023-10-27 12:24:52.33,122,-108,-2063,-33,-12,55,487,836,-349,-661
,755,2023-10-27 12:24:52.34,140,-106,-2061,-33,-18,56,210,587,-377,-398
,756,2023-10-27 12:24:52.35,130,-110,-2060,-30,-20,54,489,846,-357,-667
,757,2023-10-27 12:24:52.36,130,-111,-2053,-28,-29,53,210,594,-384,-402
,758,2023-10-27 12:24:52.37,120,-114,-2054,-22,-28,57,471,853,-382,-662
,759,2023-10-27 12:24:52.38,117,-112,-2055,-15,-39,60,210,589,-379,-399
,760,2023-10-27 12:24:52.39,127,-119,-2051,-12,-38,57,482,853,-371,-667
,761,2023-10-27 12:24:52.40,124,-120,-2053,-9,-34,61,226,597,-371,-411
,762,2023-10-27 12:24:52.41,130,-119,-2054,0,-43,65,483,849,-366,-666
,763,2023-10-27 12:24:52.42,118,-115,-2061,3,-42,67,230,576,-346,-403
,764,2023-10-27 12:24:52.43,118,-109,-2044,4,-42,69,479,845,-366,-662
,765,2023-10-27 12:24:52.44,108,-108,-2026,5,-35,69,232,590,-358,-411
,766,2023-10-27 12:24:52.45,103,-121,-2053,6,-30,69,481,853,-372,-667
,767,2023-10-27 12:24:52.46,105,-113,-2056,4,-42,71,233,572,-339,-402
,768,2023-10-27 12:24:52.47,103,-107,-2058,3,-35,72,481,859,-378,-670
,769,2023-10-27 12:24:52.48,103,-105,-2062,5,-44,72,242,578,-336,-410
,770,2023-10-27 12:24:52.49,114,-103,-2060,-3,-28,67,474,846,-372,-660
,771,2023-10-27 12:24:52.50,109,-103,-2048,-6,-31,65,252,577,-325,-414
,772,2023-10-27 12:24:52.51,107,-102,-2039,-5,-20,62,476,855,-379,-665
,773,2023-10-27 12:24:52.52,111,-111,-2053,-7,-19,55,254,576,-322,-415
,774,2023-10-27 12:24:52.53,110,-104,-2045,-4,-19,55,469,853,-384,-661
,775,2023-10-27 12:24:52.54,108,-106,-2048,-8,-21,52,258,584,-326,-421
,776,2023-10-27 12:24:52.55,103,-97,-2048,-11,-10,55,457,857,-400,-657
,777,2023-10-27 12:24:52.56,101,-98,-2056,-13,-20,48,255,579,-324,-417
,778,2023-10-27 12:24:52.57,103,-101,-2052,-16,-7,51,459,851,-392,-655
,779,2023-10-27 12:24:52.58,92,-100,-2058,-17,-13,47,267,577,-310,-422
,780,2023-10-27 12:24:52.59,102,-97,-2064,-22,-12,47,454,856,-402,-655
,781,2023-10-27 12:24:52.60,99,-102,-2062,-25,-19,45,276,577,-301,-426
,782,2023-10-27 12:24:52.61,102,-98,-2061,-24,-21,43,452,858,-406,-655
,783,2023-10-27 12:24:52.62,98,-102,-2058,-22,-18,45,279,575,-296,-427
,784,2023-10-27 12:24:52.63,95,-100,-2065,-25,-20,45,442,846,-404,-644
,785,2023-10-27 12:24:52.64,84,-107,-2060,-23,-17,50,287,575,-288,-431
,786,2023-10-27 12:24:52.65,92,-102,-2058,-19,-27,51,446,858,-412,-652
,787,2023-10-27 12:24:52.66,90,-96,-2058,-17,-21,57,289,585,-296,-437
,788,2023-10-27 12:24:52.67,81,-104,-2069,-21,-28,53,434,856,-422,-645
,789,2023-10-27 12:24:52.68,69,-95,-2067,-21,-27,55,297,580,-283,-438
,790,2023-10-27 12:24:52.69,99,-95,-2060,-20,-33,57,429,852,-423,-640
,791,2023-10-27 12:24:52.70,79,-87,-2058,-19,-17,62,300,579,-279,-439
,792,2023-10-27 12:24:52.71,73,-87,-2062,-21,-29,58,429,848,-419,-638
,793,2023-10-27 12:24:52.72,77,-92,-2051,-19,-23,61,313,585,-272,-449
,794,2023-10-27 12:24:52.73,90,-84,-2039,-17,-21,61,425,851,-426,-638
,795,2023-10-27 12:24:52.74,91,-95,-2029,-16,-13,64,316,580,-264,-448
,796,2023-10-27 12:24:52.75,98,-86,-2034,-13,-1,62,426,846,-420,-636
,797,2023-10-27 12:24:52.76,95,-92,-2028,-7,-5,66,328,593,-265,-460
,798,2023-10-27 12:24:52.77,107,-99,-2029,-1,17,65,412,849,-437,-630
,799,2023-10-27 12:24:52.78,102,-100,-2031,3,18,59,320,581,-261,-450
,800,2023-10-27 12:24:52.79,101,-105,-2031,15,37,64,405,838,-433,-621
,801,2023-10-27 12:24:52.80,108,-104,-2027,26,28,60,335,588,-253,-461
,802,2023-10-27 12:24:52.81,123,-101,-2023,35,35,61,408,849,-441,-628
,803,2023-10-27 12:24:52.82,114,-100,-2035,36,46,56,345,591,-246,-468
,804,2023-10-27 12:24:52.83,116,-102,-2053,39,41,52,402,843,-441,-622
,805,2023-10-27 12:24:52.84,113,-93,-2048,43,37,52,349,592,-243,-470
,806,2023-10-27 12:24:52.85,121,-92,-2049,44,35,50,384,833,-449,-608
,807,2023-10-27 12:24:52.86,108,-85,-2068,39,30,44,357,596,-239,-476
,808,2023-10-27 12:24:52.87,112,-90,-2072,29,28,42,375,827,-452,-601
,809,2023-10-27 12:24:52.88,136,-81,-2053,21,19,37,364,603,-239,-483
,810,2023-10-27 12:24:52.89,117,-90,-2052,14,5,34,375,830,-455,-602
,811,2023-10-27 12:24:52.90,123,-81,-2071,7,9,31,372,599,-227,-485
,812,2023-10-27 12:24:52.91,129,-90,-2088,3,-11,27,370,833,-463,-601
,813,2023-10-27 12:24:52.92,107,-102,-2099,1,-9,31,375,601,-226,-488
,814,2023-10-27 12:24:52.93,102,-95,-2098,2,-35,31,357,822,-465,-589
,815,2023-10-27 12:24:52.94,96,-102,-2095,4,-45,37,380,608,-228,-494
,816,2023-10-27 12:24:52.95,101,-102,-2093,6,-65,40,350,820,-470,-585
,817,2023-10-27 12:24:52.96,83,-102,-2080,10,-71,47,386,607,-221,-496
,818,2023-10-27 12:24:52.97,78,-111,-2072,13,-87,54,352,818,-466,-585
,819,2023-10-27 12:24:52.98,73,-111,-2064,11,-81,63,395,623,-228,-509
,820,2023-10-27 12:24:52.99,80,-121,-2052,13,-89,69,343,816,-473,-579
,821,2023-10-27 12:24:53.00,77,-124,-2034,18,-86,75,400,619,-219,-509
,822,2023-10-27 12:24:53.01,63,-116,-2029,20,-72,83,329,816,-487,-572
,823,2023-10-27 12:24:53.02,68,-117,-2027,23,-66,86,402,618,-216,-510
,824,2023-10-27 12:24:53.03,68,-119,-2024,29,-52,86,324,806,-482,-565
,825,2023-10-27 12:24:53.04,56,-117,-2016,35,-40,90,410,634,-224,-522
,826,2023-10-27 12:24:53.05,68,-112,-2022,37,-29,87,319,803,-484,-561
,827,2023-10-27 12:24:53.06,77,-111,-2021,39,-20,89,413,628,-215,-520
,828,2023-10-27 12:24:53.07,73,-110,-2026,38,-2,83,317,802,-485,-559
,829,2023-10-27 12:24:53.08,64,-109,-2035,37,-2,81,424,637,-213,-530
,830,2023-10-27 12:24:53.09,60,-110,-2053,35,13,83,311,796,-485,-553
,831,2023-10-27 12:24:53.10,64,-101,-2055,31,10,75,432,640,-208,-536
,832,2023-10-27 12:24:53.11,79,-99,-2067,27,16,75,304,791,-487,-547
,833,2023-10-27 12:24:53.12,75,-105,-2059,23,16,68,436,648,-212,-542
,834,2023-10-27 12:24:53.13,78,-104,-2053,16,25,60,298,784,-486,-541
,835,2023-10-27 12:24:53.14,90,-90,-2052,8,26,52,443,656,-213,-549
,836,2023-10-27 12:24:53.15,91,-94,-2057,1,35,49,294,784,-490,-539
,837,2023-10-27 12:24:53.16,83,-99,-2058,-5,39,39,448,658,-210,-553
,838,2023-10-27 12:24:53.17,92,-98,-2054,-9,43,34,289,773,-484,-531
,839,2023-10-27 12:24:53.18,86,-95,-2062,3,36,31,454,660,-206,-557
,840,2023-10-27 12:24:53.19,90,-100,-2072,4,45,30,276,761,-485,-518
,841,2023-10-27 12:24:53.20,98,-96,-2052,0,28,25,458,662,-204,-560
,842,2023-10-27 12:24:53.21,87,-98,-2070,-3,23,21,280,761,-481,-520
,843,2023-10-27 12:24:53.22,82,-117,-2084,2,8,27,472,682,-210,-577
,844,2023-10-27 12:24:53.23,84,-112,-2081,17,-5,30,273,762,-489,-517
,845,2023-10-27 12:24:53.24,79,-120,-2077,28,-24,35,470,677,-207,-573
,846,2023-10-27 12:24:53.25,90,-113,-2068,38,-29,40,265,746,-481,-505
,847,2023-10-27 12:24:53.26,89,-117,-2060,49,-41,43,474,689,-215,-581
,848,2023-10-27 12:24:53.27,82,-125,-2055,61,-40,48,262,752,-490,-507
,849,2023-10-27 12:24:53.28,61,-122,-2052,68,-45,49,475,694,-219,-584
,850,2023-10-27 12:24:53.29,70,-123,-2045,71,-51,56,259,747,-488,-503
,851,2023-10-27 12:24:53.30,69,-132,-2049,72,-48,62,483,701,-218,-592
,852,2023-10-27 12:24:53.31,55,-132,-2047,73,-53,65,253,740,-487,-496
,853,2023-10-27 12:24:53.32,62,-125,-2046,74,-52,71,484,698,-214,-591
,854,2023-10-27 12:24:53.33,66,-122,-2046,69,-50,72,251,733,-482,-492
,855,2023-10-27 12:24:53.34,58,-121,-2053,66,-52,72,488,706,-218,-597
,856,2023-10-27 12:24:53.35,61,-126,-2056,64,-44,72,245,727,-482,-486
,857,2023-10-27 12:24:53.36,40,-121,-2057,59,-47,68,496,716,-220,-606
,858,2023-10-27 12:24:53.37,40,-126,-2055,56,-48,66,242,724,-482,-483
,859,2023-10-27 12:24:53.38,34,-126,-2051,52,-46,64,495,719,-224,-607
,860,2023-10-27 12:24:53.39,42,-126,-2051,47,-45,62,240,718,-478,-479
,861,2023-10-27 12:24:53.40,41,-120,-2039,41,-41,58,504,727,-223,-615
,862,2023-10-27 12:24:53.41,55,-121,-2033,34,-35,52,239,712,-473,-475
,863,2023-10-27 12:24:53.42,60,-122,-2034,26,-27,48,506,731,-225,-618
,864,2023-10-27 12:24:53.43,44,-121,-2042,18,-20,42,231,704,-473,-467
,865,2023-10-27 12:24:53.44,61,-122,-2045,11,-14,37,506,734,-228,-620
,866,2023-10-27 12:24:53.45,67,-117,-2049,5,-6,35,228,699,-471,-463
,867,2023-10-27 12:24:53.46,47,-126,-2054,1,-3,32,508,742,-234,-625
,868,2023-10-27 12:24:53.47,54,-124,-2059,-1,-1,29,226,695,-469,-460
,869,2023-10-27 12:24:53.48,47,-123,-2062,-5,0,27,509,751,-242,-630
,870,2023-10-27 12:24:53.49,63,-117,-2043,-5,3,30,216,684,-468,-450
,871,2023-10-27 12:24:53.50,41,-132,-2057,-8,3,28,511,749,-238,-630
,872,2023-10-27 12:24:53.51,61,-130,-2054,-5,-4,33,214,682,-468,-448
,873,2023-10-27 12:24:53.52,65,-126,-2050,-4,-3,33,509,752,-243,-630
,874,2023-10-27 12:24:53.53,65,-124,-2050,-3,2,31,216,677,-461,-446
,875,2023-10-27 12:24:53.54,46,-127,-2046,-2,8,32,512,758,-246,-635
,876,2023-10-27 12:24:53.55,56,-130,-2057,0,10,28,214,673,-459,-443
,877,2023-10-27 12:24:53.56,65,-133,-2060,5,9,28,513,770,-257,-641
,878,2023-10-27 12:24:53.57,64,-135,-2054,15,7,28,211,665,-454,-438
,879,2023-10-27 12:24:53.58,61,-129,-2042,21,7,27,513,770,-257,-641
,880,2023-10-27 12:24:53.59,72,-122,-2049,25,5,26,204,662,-458,-433
,881,2023-10-27 12:24:53.60,74,-122,-2041,27,1,23,507,771,-264,-639
,882,2023-10-27 12:24:53.61,66,-121,-2049,27,3,19,207,655,-448,-431
,883,2023-10-27 12:24:53.62,67,-124,-2054,25,2,13,521,782,-261,-651
,884,2023-10-27 12:24:53.63,61,-118,-2061,23,1,12,204,657,-453,-430
,885,2023-10-27 12:24:53.64,67,-118,-2067,21,-3,10,518,789,-271,-653
,886,2023-10-27 12:24:53.65,58,-121,-2068,21,-4,7,196,647,-451,-421
,887,2023-10-27 12:24:53.66,57,-122,-2068,22,-13,10,508,786,-278,-647
,888,2023-10-27 12:24:53.67,60,-128,-2068,23,-20,10,192,642,-450,-417
,889,2023-10-27 12:24:53.68,39,-129,-2064,26,-27,11,514,795,-281,-654
,890,2023-10-27 12:24:53.69,46,-130,-2059,30,-30,15,200,636,-436,-418
,891,2023-10-27 12:24:53.70,52,-140,-2048,37,-35,16,508,796,-288,-652
,892,2023-10-27 12:24:53.71,60,-134,-2051,41,-41,18,191,630,-439,-410
,893,2023-10-27 12:24:53.72,49,-138,-2052,46,-46,18,508,798,-290,-653
,894,2023-10-27 12:24:53.73,39,-139,-2045,53,-50,20,196,621,-425,-408
,895,2023-10-27 12:24:53.74,53,-157,-2043,72,-57,23,509,805,-296,-657
,896,2023-10-27 12:24:53.75,35,-179,-2049,111,-63,26,196,624,-428,-410
,897,2023-10-27 12:24:53.76,32,-180,-2053,181,-67,28,505,813,-308,-659
,898,2023-10-27 12:24:53.77,30,-183,-2077,281,-89,28,187,624,-437,-405
,899,2023-10-27 12:24:53.78,36,-131,-2057,407,-126,26,486,817,-331,-651
,900,2023-10-27 12:24:53.79,39,-93,-2054,524,-148,18,171,618,-447,-394
,901,2023-10-27 12:24:53.80,47,-80,-2067,636,-212,4,472,820,-348,-646
,902,2023-10-27 12:24:53.81,32,-62,-2076,707,-251,-8,171,614,-443,-392
,903,2023-10-27 12:24:53.82,31,-55,-2054,762,-300,-25,481,826,-345,-653
,904,2023-10-27 12:24:53.83,25,-61,-2038,795,-328,-44,181,623,-442,-402
,905,2023-10-27 12:24:53.84,28,-84,-2029,804,-333,-61,481,833,-352,-657
,906,2023-10-27 12:24:53.85,9,-118,-2015,794,-321,-75,173,617,-444,-395
,907,2023-10-27 12:24:53.86,25,-157,-2017,783,-296,-84,474,830,-356,-652
,908,2023-10-27 12:24:53.87,-16,-210,-2001,752,-258,-101,181,610,-429,-395
,909,2023-10-27 12:24:53.88,-24,-267,-1985,709,-207,-107,488,838,-350,-663
,910,2023-10-27 12:24:53.89,-30,-324,-1998,667,-153,-107,183,604,-421,-393
,911,2023-10-27 12:24:53.90,-30,-336,-2008,627,-101,-102,485,839,-354,-662
,912,2023-10-27 12:24:53.91,-59,-374,-1985,576,-56,-99,194,604,-410,-399
,913,2023-10-27 12:24:53.92,-33,-391,-1985,520,-7,-89,482,839,-357,-660
,914,2023-10-27 12:24:53.93,-27,-398,-1989,462,38,-85,196,607,-411,-401
,915,2023-10-27 12:24:53.94,-28,-424,-1987,409,81,-75,491,844,-353,-667
,916,2023-10-27 12:24:53.95,-23,-423,-1996,355,122,-71,202,604,-402,-403
,917,2023-10-27 12:24:53.96,-14,-421,-1999,300,143,-65,486,846,-360,-666
,918,2023-10-27 12:24:53.97,3,-421,-2002,246,175,-70,203,600,-397,-401
,919,2023-10-27 12:24:53.98,4,-420,-2002,197,202,-74,498,855,-357,-676
,920,2023-10-27 12:24:53.99,10,-407,-2014,148,220,-78,210,591,-381,-400
,921,2023-10-27 12:24:54.00,37,-408,-1999,109,215,-81,491,847,-356,-669
,922,2023-10-27 12:24:54.01,12,-400,-1993,71,222,-93,203,579,-376,-391
,923,2023-10-27 12:24:54.02,31,-401,-1997,38,222,-102,485,857,-372,-671
,924,2023-10-27 12:24:54.03,33,-406,-2004,-14,202,-120,219,594,-375,-406
,925,2023-10-27 12:24:54.04,42,-402,-2004,-36,200,-126,488,866,-378,-677
,926,2023-10-27 12:24:54.05,27,-412,-2002,-62,201,-134,217,588,-371,-402
,927,2023-10-27 12:24:54.06,36,-406,-2011,-77,204,-142,470,856,-386,-663
,928,2023-10-27 12:24:54.07,50,-412,-2015,-91,209,-146,219,582,-363,-400
,929,2023-10-27 12:24:54.08,46,-420,-2023,-98,205,-150,462,855,-393,-658
,930,2023-10-27 12:24:54.09,64,-430,-2027,-104,205,-151,224,591,-367,-407
,931,2023-10-27 12:24:54.10,75,-432,-2039,-112,204,-147,460,857,-397,-658
,932,2023-10-27 12:24:54.11,80,-404,-2015,-122,204,-144,222,582,-360,-402
,933,2023-10-27 12:24:54.12,81,-412,-2015,-132,214,-143,452,861,-409,-656
,934,2023-10-27 12:24:54.13,85,-404,-2035,-138,218,-140,223,586,-363,-404
,935,2023-10-27 12:24:54.14,87,-407,-2021,-142,217,-137,438,859,-421,-648
,936,2023-10-27 12:24:54.15,105,-408,-2026,-146,219,-129,231,587,-356,-409
,937,2023-10-27 12:24:54.16,122,-400,-2025,-148,221,-124,434,857,-423,-645
,938,2023-10-27 12:24:54.17,119,-402,-2021,-145,209,-114,232,586,-354,-409
,939,2023-10-27 12:24:54.18,113,-400,-2034,-144,210,-106,424,859,-435,-641
,940,2023-10-27 12:24:54.19,119,-404,-2014,-145,202,-99,234,585,-351,-409
,941,2023-10-27 12:24:54.20,130,-382,-2017,-145,202,-88,417,852,-435,-634
,942,2023-10-27 12:24:54.21,146,-385,-2028,-145,194,-78,240,584,-344,-412
,943,2023-10-27 12:24:54.22,130,-395,-2040,-142,186,-70,414,862,-448,-638
,944,2023-10-27 12:24:54.23,129,-381,-2055,-137,165,-56,244,592,-348,-418
,945,2023-10-27 12:24:54.24,160,-378,-2040,-138,152,-47,407,860,-453,-633
,946,2023-10-27 12:24:54.25,154,-376,-2027,-138,140,-36,248,589,-341,-418
,947,2023-10-27 12:24:54.26,164,-364,-2052,-135,131,-30,395,856,-461,-625
,948,2023-10-27 12:24:54.27,153,-359,-2043,-135,122,-24,249,582,-333,-415
,949,2023-10-27 12:24:54.28,163,-360,-2053,-130,100,-13,388,854,-466,-621
,950,2023-10-27 12:24:54.29,153,-360,-2044,-128,96,-7,254,585,-331,-419
,951,2023-10-27 12:24:54.30,166,-358,-2045,-125,79,-1,387,853,-466,-620
,952,2023-10-27 12:24:54.31,150,-363,-2052,-120,68,8,260,583,-323,-421
,953,2023-10-27 12:24:54.32,141,-347,-2061,-117,60,16,382,849,-467,-615
,954,2023-10-27 12:24:54.33,165,-342,-2051,-109,35,26,264,582,-318,-423
,955,2023-10-27 12:24:54.34,171,-334,-2054,-108,32,32,369,848,-479,-608
,956,2023-10-27 12:24:54.35,157,-330,-2050,-106,18,36,268,582,-314,-425
,957,2023-10-27 12:24:54.36,151,-335,-2042,-105,10,42,366,852,-486,-609
,958,2023-10-27 12:24:54.37,144,-329,-2044,-102,11,48,274,585,-311,-429
,959,2023-10-27 12:24:54.38,147,-323,-2041,-99,0,51,357,846,-489,-601
,960,2023-10-27 12:24:54.39,160,-319,-2037,-95,-9,55,286,589,-303,-437
,961,2023-10-27 12:24:54.40,127,-316,-2041,-95,-5,61,354,844,-490,-599
,962,2023-10-27 12:24:54.41,148,-308,-2038,-94,-15,64,284,586,-302,-435
,963,2023-10-27 12:24:54.42,132,-312,-2024,-97,-19,64,329,834,-505,-581
,964,2023-10-27 12:24:54.43,144,-303,-2030,-99,-24,67,285,591,-306,-438
,965,2023-10-27 12:24:54.44,142,-300,-2034,-98,-15,67,335,847,-512,-591
,966,2023-10-27 12:24:54.45,147,-299,-2032,-102,-19,66,297,595,-298,-446
,967,2023-10-27 12:24:54.46,141,-291,-2031,-108,-16,66,330,844,-514,-587
,968,2023-10-27 12:24:54.47,122,-295,-2026,-110,-14,65,298,593,-295,-445
,969,2023-10-27 12:24:54.48,128,-296,-2038,-112,-9,63,320,840,-520,-580
,970,2023-10-27 12:24:54.49,128,-286,-2033,-113,-6,60,307,594,-287,-450
,971,2023-10-27 12:24:54.50,138,-290,-2029,-116,-4,58,317,841,-524,-579
,972,2023-10-27 12:24:54.51,139,-286,-2030,-121,-1,53,317,598,-281,-457
,973,2023-10-27 12:24:54.52,135,-278,-2035,-124,6,48,308,835,-527,-571
,974,2023-10-27 12:24:54.53,137,-278,-2030,-124,6,41,319,601,-282,-460
,975,2023-10-27 12:24:54.54,122,-281,-2044,-124,13,38,299,832,-533,-565
,976,2023-10-27 12:24:54.55,134,-281,-2040,-127,4,33,328,605,-277,-466
,977,2023-10-27 12:24:54.56,136,-256,-2050,-131,7,30,292,828,-536,-560
,978,2023-10-27 12:24:54.57,150,-268,-2049,-131,-1,26,330,611,-281,-470
,979,2023-10-27 12:24:54.58,122,-262,-2041,-133,-4,23,288,820,-532,-554
,980,2023-10-27 12:24:54.59,122,-263,-2047,-137,-2,20,343,604,-261,-473
,981,2023-10-27 12:24:54.60,127,-259,-2048,-136,-6,16,285,817,-532,-551
,982,2023-10-27 12:24:54.61,122,-258,-2050,-134,-13,15,351,616,-265,-483
,983,2023-10-27 12:24:54.62,129,-250,-2043,-130,-17,13,281,820,-539,-550
,984,2023-10-27 12:24:54.63,131,-245,-2041,-130,-21,11,353,626,-273,-489
,985,2023-10-27 12:24:54.64,130,-244,-2037,-126,-26,8,271,815,-544,-543
,986,2023-10-27 12:24:54.65,127,-250,-2031,-123,-30,7,358,626,-268,-492
,987,2023-10-27 12:24:54.66,135,-244,-2046,-118,-35,6,264,808,-544,-536
,988,2023-10-27 12:24:54.67,130,-245,-2049,-112,-40,5,365,626,-261,-495
,989,2023-10-27 12:24:54.68,134,-238,-2047,-104,-42,5,265,803,-538,-534
,990,2023-10-27 12:24:54.69,138,-237,-2046,-97,-43,5,373,626,-253,-499
,991,2023-10-27 12:24:54.70,133,-224,-2047,-95,-40,3,262,803,-541,-532
,992,2023-10-27 12:24:54.71,133,-228,-2054,-93,-39,3,379,633,-254,-506
,993,2023-10-27 12:24:54.72,127,-226,-2042,-87,-40,4,258,804,-546,-531
,994,2023-10-27 12:24:54.73,117,-232,-2044,-85,-43,6,382,643,-261,-512
,995,2023-10-27 12:24:54.74,120,-215,-2037,-82,-45,8,248,796,-548,-522
,996,2023-10-27 12:24:54.75,120,-224,-2040,-84,-45,12,388,642,-254,-515
,997,2023-10-27 12:24:54.76,120,-210,-2039,-87,-45,14,247,790,-543,-518
,998,2023-10-27 12:24:54.77,133,-209,-2037,-88,-42,15,399,645,-246,-522
,999,2023-10-27 12:24:54.78,130,-205,-2048,-90,-41,14,247,784,-537,-515
,1000,2023-10-27 12:24:54.79,137,-202,-2063,-93,-42,15,405,649,-244,-527
,1001,2023-10-27 12:24:54.80,130,-197,-2055,-93,-41,18,248,791,-543,-519
,1002,2023-10-27 12:24:54.81,127,-191,-2051,-93,-44,20,408,660,-252,-534
,1003,2023-10-27 12:24:54.82,125,-191,-2048,-95,-46,18,234,778,-544,-506
,1004,2023-10-27 12:24:54.83,118,-190,-2056,-94,-48,22,403,648,-245,-525
,1005,2023-10-27 12:24:54.84,118,-196,-2054,-91,-51,23,229,775,-546,-502
,1006,2023-10-27 12:24:54.85,112,-184,-2041,-90,-52,24,419,670,-251,-544
,1007,2023-10-27 12:24:54.86,104,-184,-2046,-89,-49,26,225,770,-545,-497
,1008,2023-10-27 12:24:54.87,112,-194,-2041,-93,-45,27,420,675,-255,-547
,1009,2023-10-27 12:24:54.88,107,-185,-2040,-92,-39,28,216,757,-541,-486
,1010,2023-10-27 12:24:54.89,104,-181,-2049,-90,-30,26,430,680,-250,-555
,1011,2023-10-27 12:24:54.90,114,-179,-2042,-93,-33,30,219,758,-539,-488
,1012,2023-10-27 12:24:54.91,113,-184,-2032,-90,-25,30,445,691,-246,-568
,1013,2023-10-27 12:24:54.92,110,-172,-2040,-88,-15,28,216,747,-531,-481
,1014,2023-10-27 12:24:54.93,108,-168,-2042,-90,-10,28,445,688,-243,-566
,1015,2023-10-27 12:24:54.94,102,-169,-2041,-88,-9,27,207,740,-533,-473
,1016,2023-10-27 12:24:54.95,105,-168,-2046,-86,-8,26,445,701,-256,-573
,1017,2023-10-27 12:24:54.96,102,-161,-2046,-82,-11,27,205,738,-533,-471
,1018,2023-10-27 12:24:54.97,112,-158,-2046,-81,-12,26,454,705,-251,-579
,1019,2023-10-27 12:24:54.98,103,-155,-2041,-78,-8,24,203,729,-526,-466
,1020,2023-10-27 12:24:54.99,108,-155,-2053,-77,-1,25,453,709,-256,-581
,1021,2023-10-27 12:24:55.00,122,-153,-2056,-73,-3,23,197,720,-523,-458
,1022,2023-10-27 12:24:55.01,115,-155,-2054,-69,-6,23,457,715,-258,-586
,1023,2023-10-27 12:24:55.02,120,-147,-2049,-64,-8,25,195,718,-523,-456
,1024,2023-10-27 12:24:55.03,114,-155,-2052,-60,-9,24,462,723,-261,-592
,1025,2023-10-27 12:24:55.04,108,-147,-2056,-57,-13,27,192,711,-519,-451
,1026,2023-10-27 12:24:55.05,117,-144,-2051,-52,-15,27,466,728,-262,-597
,1027,2023-10-27 12:24:55.06,120,-139,-2051,-46,-18,29,192,706,-514,-449
,1028,2023-10-27 12:24:55.07,120,-150,-2060,-43,-21,26,466,734,-268,-600
,1029,2023-10-27 12:24:55.08,130,-141,-2049,-42,-19,29,191,701,-510,-446
,1030,2023-10-27 12:24:55.09,126,-139,-2048,-40,-17,27,472,739,-267,-605
,1031,2023-10-27 12:24:55.10,111,-139,-2055,-37,-14,26,193,696,-503,-444
,1032,2023-10-27 12:24:55.11,120,-137,-2046,-31,-16,25,478,743,-265,-610
,1033,2023-10-27 12:24:55.12,110,-141,-2047,-27,-12,21,191,693,-502,-442
,1034,2023-10-27 12:24:55.13,113,-139,-2050,-26,-12,18,478,750,-272,-614
,1035,2023-10-27 12:24:55.14,124,-135,-2048,-23,-13,18,188,694,-506,-441
,1036,2023-10-27 12:24:55.15,110,-138,-2049,-19,-8,15,480,760,-280,-620
,1037,2023-10-27 12:24:55.16,133,-141,-2043,-14,-3,12,186,685,-499,-435
,1038,2023-10-27 12:24:55.17,112,-141,-2044,-13,-2,8,488,756,-268,-622
,1039,2023-10-27 12:24:55.18,113,-145,-2040,-9,0,6,194,680,-486,-437
,1040,2023-10-27 12:24:55.19,104,-151,-2044,-9,11,4,492,766,-274,-629
,1041,2023-10-27 12:24:55.20,114,-142,-2034,-6,14,2,190,681,-491,-435
,1042,2023-10-27 12:24:55.21,117,-143,-2033,-3,19,-1,501,778,-277,-639
,1043,2023-10-27 12:24:55.22,124,-138,-2040,-5,24,-2,188,673,-485,-430
,1044,2023-10-27 12:24:55.23,113,-139,-2043,-4,28,-6,489,773,-284,-631
,1045,2023-10-27 12:24:55.24,124,-144,-2043,-4,36,-4,169,649,-480,-409
,1046,2023-10-27 12:24:55.25,126,-142,-2042,-4,36,-6,489,775,-286,-632
,1047,2023-10-27 12:24:55.26,124,-135,-2039,-8,40,-9,184,661,-477,-422
,1048,2023-10-27 12:24:55.27,112,-138,-2050,-11,44,-10,488,780,-292,-634
,1049,2023-10-27 12:24:55.28,121,-139,-2047,-16,46,-8,184,659,-475,-421
,1050,2023-10-27 12:24:55.29,116,-136,-2059,-17,50,-10,495,786,-291,-640
,1051,2023-10-27 12:24:55.30,118,-146,-2054,-19,51,-8,182,649,-467,-415
,1052,2023-10-27 12:24:55.31,124,-147,-2051,-21,51,-9,492,792,-300,-642
,1053,2023-10-27 12:24:55.32,132,-142,-2057,-23,53,-5,178,652,-474,-415
,1054,2023-10-27 12:24:55.33,119,-137,-2052,-23,53,-5,497,800,-303,-648
,1055,2023-10-27 12:24:55.34,131,-134,-2049,-24,56,-2,178,644,-466,-411
,1056,2023-10-27 12:24:55.35,130,-134,-2048,-27,59,0,491,796,-305,-643
,1057,2023-10-27 12:24:55.36,117,-143,-2046,-29,55,3,177,631,-454,-404
,1058,2023-10-27 12:24:55.37,131,-140,-2047,-32,62,6,490,799,-309,-644
,1059,2023-10-27 12:24:55.38,120,-136,-2044,-32,60,8,175,631,-456,-403
,1060,2023-10-27 12:24:55.39,116,-130,-2045,-32,64,10,494,809,-315,-651
,1061,2023-10-27 12:24:55.40,123,-128,-2051,-35,62,11,179,628,-449,-403
,1062,2023-10-27 12:24:55.41,122,-133,-2038,-34,64,12,497,814,-317,-655
,1063,2023-10-27 12:24:55.42,124,-130,-2042,-32,67,12,178,624,-446,-401
,1064,2023-10-27 12:24:55.43,125,-143,-2056,-37,66,11,493,814,-321,-653
,1065,2023-10-27 12:24:55.44,134,-127,-2066,-32,57,14,175,615,-440,-395
,1066,2023-10-27 12:24:55.45,123,-126,-2060,-29,55,13,488,819,-331,-653
,1067,2023-10-27 12:24:55.46,139,-127,-2059,-26,51,15,176,616,-440,-396
,1068,2023-10-27 12:24:55.47,132,-120,-2070,-25,58,10,485,828,-343,-656
,1069,2023-10-27 12:24:55.48,137,-113,-2064,-24,55,6,175,612,-437,-393
,1070,2023-10-27 12:24:55.49,137,-110,-2054,-26,55,1,484,831,-347,-657
,1071,2023-10-27 12:24:55.50,131,-114,-2056,-24,57,-2,175,610,-435,-392
,1072,2023-10-27 12:24:55.51,136,-122,-2060,-22,50,-2,480,836,-356,-658
,1073,2023-10-27 12:24:55.52,136,-113,-2051,-20,48,-3,183,608,-425,-395
,1074,2023-10-27 12:24:55.53,134,-119,-2057,-20,44,-4,482,835,-353,-658
,1075,2023-10-27 12:24:55.54,134,-95,-2067,-25,41,-6,186,604,-418,-395
,1076,2023-10-27 12:24:55.55,151,-115,-2055,-32,31,-4,476,838,-362,-657
,1077,2023-10-27 12:24:55.56,148,-100,-2061,-31,27,-7,183,602,-419,-392
,1078,2023-10-27 12:24:55.57,142,-105,-2057,-28,19,-1,475,841,-366,-658
,1079,2023-10-27 12:24:55.58,141,-108,-2064,-26,11,-3,190,598,-408,-394
,1080,2023-10-27 12:24:55.59,144,-108,-2062,-23,2,-1,469,840,-371,-654
,1081,2023-10-27 12:24:55.60,139,-116,-2065,-15,-9,2,190,598,-408,-394
,1082,2023-10-27 12:24:55.61,147,-112,-2055,-12,-12,5,467,844,-377,-655
,1083,2023-10-27 12:24:55.62,149,-113,-2052,-7,-19,7,200,592,-392,-396
,1084,2023-10-27 12:24:55.63,153,-113,-2052,-3,-17,12,462,840,-378,-651
,1085,2023-10-27 12:24:55.64,144,-123,-2058,0,-22,16,196,595,-399,-395
,1086,2023-10-27 12:24:55.65,140,-116,-2057,5,-22,20,448,830,-382,-639
,1087,2023-10-27 12:24:55.66,134,-118,-2057,11,-24,25,202,586,-384,-394
,1088,2023-10-27 12:24:55.67,144,-111,-2059,16,-23,29,462,846,-384,-654
,1089,2023-10-27 12:24:55.68,152,-120,-2056,18,-28,35,205,587,-382,-396
,1090,2023-10-27 12:24:55.69,135,-120,-2050,24,-26,38,457,850,-393,-653
,1091,2023-10-27 12:24:55.70,135,-110,-2053,25,-25,40,204,589,-385,-396
,1092,2023-10-27 12:24:55.71,137,-118,-2039,28,-24,40,448,847,-399,-647
,1093,2023-10-27 12:24:55.72,139,-128,-2050,30,-22,43,211,587,-376,-399
,1094,2023-10-27 12:24:55.73,118,-126,-2050,33,-27,47,449,851,-402,-650
,1095,2023-10-27 12:24:55.74,131,-132,-2044,41,-26,52,216,588,-372,-402
,1096,2023-10-27 12:24:55.75,128,-126,-2041,40,-21,54,450,855,-405,-652
,1097,2023-10-27 12:24:55.76,130,-121,-2043,40,-15,55,224,589,-365,-406
,1098,2023-10-27 12:24:55.77,130,-118,-2048,36,-14,52,443,853,-410,-648
,1099,2023-10-27 12:24:55.78,122,-123,-2047,36,-10,51,225,586,-361,-405
,1100,2023-10-27 12:24:55.79,134,-121,-2052,36,-6,44,439,855,-416,-647
,1101,2023-10-27 12:24:55.80,121,-124,-2058,37,-9,46,232,587,-355,-409
,1102,2023-10-27 12:24:55.81,138,-123,-2061,36,-7,45,437,857,-420,-647
,1103,2023-10-27 12:24:55.82,119,-127,-2053,32,-10,45,236,586,-350,-411
,1104,2023-10-27 12:24:55.83,124,-128,-2049,30,-4,40,431,857,-426,-644
,1105,2023-10-27 12:24:55.84,125,-121,-2054,25,-5,39,238,587,-349,-412
,1106,2023-10-27 12:24:55.85,129,-118,-2048,21,-2,37,423,859,-436,-641
,1107,2023-10-27 12:24:55.86,125,-116,-2041,16,3,30,244,588,-344,-416
,1108,2023-10-27 12:24:55.87,127,-119,-2047,13,8,25,420,857,-437,-638
,1109,2023-10-27 12:24:55.88,128,-119,-2041,9,7,21,248,581,-333,-414
,1110,2023-10-27 12:24:55.89,128,-119,-2043,8,11,14,415,851,-436,-633
,1111,2023-10-27 12:24:55.90,130,-119,-2044,5,18,8,256,582,-326,-419
,1112,2023-10-27 12:24:55.91,141,-117,-2041,3,17,4,413,855,-442,-634
,1113,2023-10-27 12:24:55.92,137,-121,-2040,1,21,0,264,588,-324,-426
,1114,2023-10-27 12:24:55.93,131,-117,-2042,1,24,-5,410,860,-450,-635
,1115,2023-10-27 12:24:55.94,134,-116,-2046,-2,25,-11,268,590,-322,-429
,1116,2023-10-27 12:24:55.95,144,-124,-2051,-4,27,-11,402,854,-452,-628
,1117,2023-10-27 12:24:55.96,142,-129,-2054,-3,25,-15,270,579,-309,-424
,1118,2023-10-27 12:24:55.97,148,-116,-2060,-4,20,-14,393,848,-455,-620
,1119,2023-10-27 12:24:55.98,133,-116,-2057,0,16,-14,278,582,-304,-430
,1120,2023-10-27 12:24:55.99,144,-123,-2057,0,14,-13,397,850,-453,-623
,1121,2023-10-27 12:24:56.00,148,-126,-2065,3,12,-11,285,588,-303,-436
,1122,2023-10-27 12:24:56.01,140,-133,-2060,5,9,-7,393,850,-457,-621
,1123,2023-10-27 12:24:56.02,135,-125,-2058,9,7,-2,294,586,-292,-440
,1124,2023-10-27 12:24:56.03,144,-124,-2056,9,3,0,395,859,-464,-627
,1125,2023-10-27 12:24:56.04,144,-130,-2058,9,1,5,299,587,-288,-443
,1126,2023-10-27 12:24:56.05,143,-125,-2057,10,-2,8,379,849,-470,-614
,1127,2023-10-27 12:24:56.06,130,-131,-2053,13,-2,15,288,572,-284,-430
,1128,2023-10-27 12:24:56.07,131,-123,-2059,12,-6,19,373,844,-471,-608
,1129,2023-10-27 12:24:56.08,138,-125,-2058,13,-7,21,314,591,-277,-452
,1130,2023-10-27 12:24:56.09,138,-127,-2058,13,-11,21,370,845,-475,-607
,1131,2023-10-27 12:24:56.10,138,-121,-2048,17,-17,25,318,595,-277,-456
,1132,2023-10-27 12:24:56.11,135,-122,-2046,15,-16,23,361,846,-485,-603
,1133,2023-10-27 12:24:56.12,133,-121,-2046,15,-15,20,316,591,-275,-453
,1134,2023-10-27 12:24:56.13,130,-121,-2046,18,-14,16,356,840,-484,-598
,1135,2023-10-27 12:24:56.14,137,-124,-2045,20,-13,13,329,593,-264,-461
,1136,2023-10-27 12:24:56.15,130,-127,-2041,21,-12,10,359,841,-482,-600
,1137,2023-10-27 12:24:56.16,131,-128,-2039,24,-14,6,338,599,-261,-468
,1138,2023-10-27 12:24:56.17,130,-135,-2054,25,-15,5,350,843,-493,-596
,1139,2023-10-27 12:24:56.18,130,-138,-2061,31,-19,2,346,604,-258,-475
,1140,2023-10-27 12:24:56.19,133,-129,-2063,31,-21,0,345,842,-497,-593
,1141,2023-10-27 12:24:56.20,131,-123,-2057,31,-23,-2,352,606,-254,-479
,1142,2023-10-27 12:24:56.21,137,-114,-2049,32,-20,-5,340,833,-493,-586
,1143,2023-10-27 12:24:56.22,133,-122,-2049,26,-10,-7,359,610,-251,-484
,1144,2023-10-27 12:24:56.23,124,-128,-2056,24,-3,-8,333,835,-502,-584
,1145,2023-10-27 12:24:56.24,121,-127,-2046,17,-12,-6,367,610,-243,-488
,1146,2023-10-27 12:24:56.25,128,-133,-2034,10,-12,-6,329,825,-496,-577
,1147,2023-10-27 12:24:56.26,123,-136,-2052,3,-1,-3,368,612,-244,-490
,1148,2023-10-27 12:24:56.27,128,-134,-2048,1,-7,-2,316,821,-505,-568
,1149,2023-10-27 12:24:56.28,125,-127,-2044,-4,3,-2,378,613,-235,-495
,1150,2023-10-27 12:24:56.29,133,-125,-2047,-4,-1,0,318,818,-500,-568
,1151,2023-10-27 12:24:56.30,139,-126,-2057,-9,4,1,399,626,-227,-512
,1152,2023-10-27 12:24:56.31,129,-136,-2060,-13,2,4,320,823,-503,-571
,1153,2023-10-27 12:24:56.32,128,-124,-2057,-12,1,7,399,628,-229,-513
,1154,2023-10-27 12:24:56.33,134,-131,-2062,-13,-4,9,305,809,-504,-557
,1155,2023-10-27 12:24:56.34,138,-129,-2057,-15,-4,16,400,627,-227,-513
,1156,2023-10-27 12:24:56.35,124,-120,-2066,-16,-11,19,302,806,-504,-554
,1157,2023-10-27 12:24:56.36,129,-122,-2065,-17,-18,23,413,636,-223,-524
,1158,2023-10-27 12:24:56.37,143,-118,-2051,-19,-19,27,300,807,-507,-553
,1159,2023-10-27 12:24:56.38,122,-128,-2059,-20,-17,33,415,638,-223,-526
,1160,2023-10-27 12:24:56.39,127,-113,-2057,-17,-18,35,288,793,-505,-540
,1161,2023-10-27 12:24:56.40,130,-125,-2048,-16,-18,37,426,643,-217,-534
,1162,2023-10-27 12:24:56.41,116,-130,-2050,-15,-17,40,289,794,-505,-541
,1163,2023-10-27 12:24:56.42,117,-126,-2050,-13,-15,41,432,656,-224,-544
,1164,2023-10-27 12:24:56.43,131,-115,-2051,-8,-16,45,284,788,-504,-536
,1165,2023-10-27 12:24:56.44,116,-110,-2038,-6,-12,47,447,668,-221,-557
,1166,2023-10-27 12:24:56.45,123,-122,-2049,-7,-8,47,273,778,-505,-525
,1167,2023-10-27 12:24:56.46,124,-115,-2063,-13,-15,50,442,663,-221,-552
,1168,2023-10-27 12:24:56.47,132,-114,-2049,-5,-23,55,262,761,-499,-511
,1169,2023-10-27 12:24:56.48,141,-115,-2045,-2,-16,55,451,671,-220,-561
,1170,2023-10-27 12:24:56.49,140,-116,-2049,-1,-21,53,270,772,-502,-521
,1171,2023-10-27 12:24:56.50,124,-116,-2048,-6,-10,53,460,680,-220,-570
,1172,2023-10-27 12:24:56.51,141,-116,-2073,2,-13,55,260,762,-502,-511
,1173,2023-10-27 12:24:56.52,133,-116,-2061,0,-18,56,454,677,-223,-565
,1174,2023-10-27 12:24:56.53,122,-118,-2061,-4,-15,56,248,754,-506,-501
,1175,2023-10-27 12:24:56.54,122,-105,-2062,-4,-18,58,459,687,-228,-573
,1176,2023-10-27 12:24:56.55,121,-104,-2050,-4,-23,58,257,753,-496,-505
,1177,2023-10-27 12:24:56.56,122,-115,-2045,-11,-14,58,470,691,-221,-580
,1178,2023-10-27 12:24:56.57,129,-100,-2049,-15,-11,54,259,747,-488,-503
,1179,2023-10-27 12:24:56.58,117,-111,-2053,-14,-12,54,477,696,-219,-586
,1180,2023-10-27 12:24:56.59,126,-114,-2049,-13,-6,51,248,742,-494,-495
,1181,2023-10-27 12:24:56.60,126,-116,-2052,-11,-5,51,477,701,-224,-589
,1182,2023-10-27 12:24:56.61,115,-115,-2049,-11,0,50,249,735,-486,-492
,1183,2023-10-27 12:24:56.62,110,-109,-2058,-8,5,49,482,707,-225,-594
,1184,2023-10-27 12:24:56.63,117,-110,-2046,-6,0,50,244,733,-489,-488
,1185,2023-10-27 12:24:56.64,117,-119,-2055,-2,3,48,485,714,-229,-599
,1186,2023-10-27 12:24:56.65,118,-104,-2045,1,0,47,243,728,-485,-485
,1187,2023-10-27 12:24:56.66,117,-105,-2038,3,-1,47,488,720,-232,-604
,1188,2023-10-27 12:24:56.67,114,-110,-2049,1,10,43,235,727,-492,-481
,1189,2023-10-27 12:24:56.68,123,-109,-2065,6,2,45,496,722,-226,-609
,1190,2023-10-27 12:24:56.69,118,-112,-2059,9,-1,41,240,717,-477,-478
,1191,2023-10-27 12:24:56.70,116,-104,-2057,11,-4,41,502,727,-225,-614
,1192,2023-10-27 12:24:56.71,114,-120,-2053,13,-12,39,239,712,-473,-475
,1193,2023-10-27 12:24:56.72,114,-118,-2060,15,-16,38,506,734,-228,-620
,1194,2023-10-27 12:24:56.73,116,-104,-2052,20,-24,38,233,711,-478,-472
,1195,2023-10-27 12:24:56.74,121,-117,-2050,21,-22,36,508,740,-232,-624
,1196,2023-10-27 12:24:56.75,125,-120,-2051,24,-23,35,232,707,-475,-469
,1197,2023-10-27 12:24:56.76,116,-116,-2050,27,-22,32,511,745,-234,-628
,1198,2023-10-27 12:24:56.77,113,-116,-2057,26,-24,30,229,698,-469,-463
,1199,2023-10-27 12:24:56.78,107,-115,-2062,26,-29,32,514,747,-233,-630
,1200,2023-10-27 12:24:56.79,118,-113,-2060,26,-37,27,222,690,-468,-456
,1201,2023-10-27 12:24:56.80,104,-119,-2053,27,-29,26,517,752,-235,-634
,1202,2023-10-27 12:24:56.81,97,-119,-2060,23,-34,26,226,687,-461,-456
,1203,2023-10-27 12:24:56.82,114,-123,-2047,18,-35,24,518,758,-240,-638
,1204,2023-10-27 12:24:56.83,107,-119,-2050,16,-27,24,219,683,-464,-451
,1205,2023-10-27 12:24:56.84,106,-122,-2035,18,-26,20,518,766,-248,-642
,1206,2023-10-27 12:24:56.85,105,-127,-2054,20,-22,22,233,692,-459,-462
,1207,2023-10-27 12:24:56.86,103,-131,-2041,20,-26,22,529,769,-240,-649
,1208,2023-10-27 12:24:56.87,92,-131,-2044,20,-10,22,220,674,-454,-447
,1209,2023-10-27 12:24:56.88,97,-126,-2042,21,-20,24,513,758,-245,-635
,1210,2023-10-27 12:24:56.89,104,-137,-2047,22,-14,23,216,667,-451,-441
,1211,2023-10-27 12:24:56.90,91,-130,-2055,22,-15,24,525,780,-255,-652
,1212,2023-10-27 12:24:56.91,90,-131,-2058,21,-15,25,221,668,-447,-444
,1213,2023-10-27 12:24:56.92,113,-130,-2054,25,-19,26,532,781,-249,-656
,1214,2023-10-27 12:24:56.93,95,-127,-2055,22,-10,25,214,659,-445,-436
,1215,2023-10-27 12:24:56.94,101,-126,-2049,21,-4,23,513,779,-266,-646
,1216,2023-10-27 12:24:56.95,97,-129,-2046,18,5,21,213,658,-445,-435
,1217,2023-10-27 12:24:56.96,100,-130,-2043,12,6,23,529,798,-269,-663
,1218,2023-10-27 12:24:56.97,89,-126,-2039,4,7,21,216,653,-437,-434
,1219,2023-10-27 12:24:56.98,103,-130,-2046,-5,10,23,535,795,-260,-665
,1220,2023-10-27 12:24:56.99,94,-116,-2056,-13,13,23,211,644,-433,-427
,1221,2023-10-27 12:24:57.00,90,-118,-2057,-20,10,21,527,802,-275,-664
,1222,2023-10-27 12:24:57.01,104,-107,-2056,-31,10,20,212,645,-433,-428
,1223,2023-10-27 12:24:57.02,110,-108,-2054,-32,7,17,533,810,-277,-671
,1224,2023-10-27 12:24:57.03,112,-106,-2060,-34,7,15,211,640,-429,-425
,1225,2023-10-27 12:24:57.04,112,-108,-2061,-38,4,15,530,811,-281,-670
,1226,2023-10-27 12:24:57.05,101,-102,-2058,-38,1,11,207,631,-424,-419
,1227,2023-10-27 12:24:57.06,112,-110,-2062,-39,0,11,523,814,-291,-668
,1228,2023-10-27 12:24:57.07,108,-111,-2058,-37,-7,11,208,631,-423,-419
,1229,2023-10-27 12:24:57.08,118,-113,-2057,-36,-10,9,527,825,-298,-676
,1230,2023-10-27 12:24:57.09,105,-103,-2066,-34,-14,11,208,626,-418,-417
,1231,2023-10-27 12:24:57.10,109,-105,-2055,-34,-17,15,522,822,-300,-672
,1232,2023-10-27 12:24:57.11,108,-105,-2058,-34,-19,15,206,612,-406,-409
,1233,2023-10-27 12:24:57.12,115,-101,-2060,-34,-22,19,524,821,-297,-672
,1234,2023-10-27 12:24:57.13,105,-107,-2065,-32,-24,22,209,623,-414,-416
,1235,2023-10-27 12:24:57.14,92,-103,-2056,-29,-27,27,520,840,-320,-680
,1236,2023-10-27 12:24:57.15,110,-99,-2058,-30,-28,29,207,614,-407,-410
,1237,2023-10-27 12:24:57.16,101,-108,-2059,-31,-31,32,519,832,-313,-675
,1238,2023-10-27 12:24:57.17,92,-99,-2046,-31,-32,36,210,607,-397,-408
,1239,2023-10-27 12:24:57.18,99,-102,-2052,-28,-30,42,518,835,-317,-676
,1240,2023-10-27 12:24:57.19,94,-105,-2054,-25,-37,47,214,607,-393,-410
,1241,2023-10-27 12:24:57.20,97,-101,-2045,-23,-41,51,520,842,-322,-681
,1242,2023-10-27 12:24:57.21,92,-101,-2043,-18,-38,54,218,606,-388,-412
,1243,2023-10-27 12:24:57.22,91,-110,-2048,-15,-32,56,517,846,-329,-681
,1244,2023-10-27 12:24:57.23,90,-99,-2056,-11,-28,57,217,603,-386,-410
,1245,2023-10-27 12:24:57.24,85,-102,-2054,-4,-30,59,511,848,-337,-679
,1246,2023-10-27 12:24:57.25,94,-101,-2058,-2,-24,59,220,599,-379,-409
,1247,2023-10-27 12:24:57.26,90,-101,-2058,0,-28,61,525,863,-338,-694
,1248,2023-10-27 12:24:57.27,88,-97,-2058,1,-27,61,226,598,-372,-412
,1249,2023-10-27 12:24:57.28,71,-98,-2055,4,-28,63,510,854,-344,-682
,1250,2023-10-27 12:24:57.29,86,-95,-2054,3,-27,63,218,585,-367,-401
,1251,2023-10-27 12:24:57.30,77,-88,-2059,1,-28,63,503,858,-355,-680
,1252,2023-10-27 12:24:57.31,78,-96,-2055,-3,-24,62,227,595,-368,-411
,1253,2023-10-27 12:24:57.32,84,-84,-2054,-2,-21,60,494,852,-358,-673
,1254,2023-10-27 12:24:57.33,82,-92,-2042,-3,-21,59,232,587,-355,-409
,1255,2023-10-27 12:24:57.34,78,-94,-2048,-5,-15,57,505,852,-347,-678
,1256,2023-10-27 12:24:57.35,87,-89,-2041,-8,-6,50,238,590,-352,-414
,1257,2023-10-27 12:24:57.36,87,-88,-2046,-10,-6,45,496,861,-365,-678
,1258,2023-10-27 12:24:57.37,84,-82,-2053,-10,0,39,240,589,-349,-414
,1259,2023-10-27 12:24:57.38,90,-79,-2055,-10,1,33,495,859,-364,-677
,1260,2023-10-27 12:24:57.39,75,-80,-2064,-10,7,25,245,589,-344,-417
,1261,2023-10-27 12:24:57.40,95,-79,-2064,-10,3,25,494,865,-371,-679
,1262,2023-10-27 12:24:57.41,76,-85,-2062,-8,-2,25,251,588,-337,-419
,1263,2023-10-27 12:24:57.42,83,-92,-2063,-6,-6,24,488,863,-375,-675
,1264,2023-10-27 12:24:57.43,77,-88,-2059,-1,-8,27,253,587,-334,-420
,1265,2023-10-27 12:24:57.44,82,-90,-2049,2,-10,27,485,867,-382,-676
,1266,2023-10-27 12:24:57.45,69,-92,-2051,1,-12,27,264,590,-326,-427
,1267,2023-10-27 12:24:57.46,91,-86,-2039,6,-17,25,482,868,-386,-675
,1268,2023-10-27 12:24:57.47,84,-95,-2044,11,-6,23,263,585,-322,-424
,1269,2023-10-27 12:24:57.48,83,-92,-2055,16,-12,22,474,862,-388,-668
,1270,2023-10-27 12:24:57.49,81,-95,-2049,21,-12,23,273,583,-310,-428
,1271,2023-10-27 12:24:57.50,83,-97,-2057,26,-19,24,472,865,-393,-668
,1272,2023-10-27 12:24:57.51,64,-98,-2060,29,-20,23,278,581,-303,-429
,1273,2023-10-27 12:24:57.52,82,-104,-2056,31,-24,26,468,863,-395,-665
,1274,2023-10-27 12:24:57.53,80,-99,-2050,32,-24,29,283,587,-304,-435
,1275,2023-10-27 12:24:57.54,88,-103,-2052,29,-23,29,462,863,-401,-662
,1276,2023-10-27 12:24:57.55,89,-104,-2055,29,-17,28,290,581,-291,-435
,1277,2023-10-27 12:24:57.56,84,-111,-2054,25,-18,32,458,859,-401,-658
,1278,2023-10-27 12:24:57.57,72,-105,-2059,24,-12,34,294,582,-288,-438
,1279,2023-10-27 12:24:57.58,79,-104,-2058,25,-9,38,451,859,-408,-655
,1280,2023-10-27 12:24:57.59,83,-99,-2055,23,-7,38,300,582,-282,-441
,1281,2023-10-27 12:24:57.60,68,-98,-2043,20,-8,41,448,859,-411,-653
,1282,2023-10-27 12:24:57.61,67,-105,-2043,16,0,43,309,588,-279,-448
,1283,2023-10-27 12:24:57.62,77,-103,-2053,10,-4,45,444,857,-413,-650
,1284,2023-10-27 12:24:57.63,62,-107,-2051,12,-5,45,314,590,-276,-452
,1285,2023-10-27 12:24:57.64,74,-103,-2052,14,-10,51,438,854,-416,-646
,1286,2023-10-27 12:24:57.65,68,-100,-2055,14,-3,50,321,590,-269,-455
,1287,2023-10-27 12:24:57.66,70,-90,-2059,8,2,48,431,854,-423,-642
,1288,2023-10-27 12:24:57.67,81,-97,-2060,8,6,46,334,604,-270,-469
,1289,2023-10-27 12:24:57.68,63,-96,-2059,8,9,46,424,853,-429,-638
,1290,2023-10-27 12:24:57.69,71,-101,-2054,9,7,44,330,595,-265,-462
,1291,2023-10-27 12:24:57.70,70,-95,-2057,7,7,41,415,838,-423,-626
,1292,2023-10-27 12:24:57.71,67,-97,-2045,7,2,43,337,596,-259,-466
,1293,2023-10-27 12:24:57.72,66,-90,-2046,6,3,44,416,852,-436,-634
,1294,2023-10-27 12:24:57.73,91,-94,-2057,4,5,41,340,596,-256,-468
,1295,2023-10-27 12:24:57.74,74,-89,-2049,0,3,40,409,849,-440,-629
,1296,2023-10-27 12:24:57.75,73,-85,-2054,-4,6,37,348,599,-251,-473
,1297,2023-10-27 12:24:57.76,73,-94,-2057,-6,5,38,406,842,-436,-624
,1298,2023-10-27 12:24:57.77,77,-94,-2056,-4,4,39,358,598,-240,-478
,1299,2023-10-27 12:24:57.78,75,-96,-2062,-5,3,40,399,844,-445,-621
,1300,2023-10-27 12:24:57.79,54,-93,-2057,-2,-3,42,364,608,-244,-486
,1301,2023-10-27 12:24:57.80,76,-90,-2056,-2,-4,43,392,843,-451,-617
,1302,2023-10-27 12:24:57.81,69,-85,-2057,-3,-4,44,372,609,-237,-490
,1303,2023-10-27 12:24:57.82,68,-89,-2062,-3,-10,44,389,840,-451,-614
,1304,2023-10-27 12:24:57.83,77,-84,-2050,1,-15,42,378,613,-235,-495
,1305,2023-10-27 12:24:57.84,75,-90,-2048,7,-18,42,378,838,-460,-608
,1306,2023-10-27 12:24:57.85,82,-88,-2046,8,-16,41,380,617,-237,-498
,1307,2023-10-27 12:24:57.86,88,-90,-2044,8,-14,40,374,835,-461,-604
,1308,2023-10-27 12:24:57.87,73,-85,-2059,7,-8,39,388,617,-229,-502
,1309,2023-10-27 12:24:57.88,79,-87,-2058,10,-11,37,372,826,-454,-599
,1310,2023-10-27 12:24:57.89,80,-89,-2056,11,-9,37,399,618,-219,-508
,1311,2023-10-27 12:24:57.90,76,-81,-2063,11,-12,38,366,832,-466,-599
,1312,2023-10-27 12:24:57.91,68,-102,-2067,13,-16,39,408,630,-222,-519
,1313,2023-10-27 12:24:57.92,70,-94,-2071,14,-21,42,365,825,-460,-595
,1314,2023-10-27 12:24:57.93,56,-95,-2069,13,-31,46,416,630,-214,-523
,1315,2023-10-27 12:24:57.94,64,-92,-2056,16,-31,46,357,819,-462,-588
,1316,2023-10-27 12:24:57.95,69,-97,-2051,13,-25,46,420,631,-211,-525
,1317,2023-10-27 12:24:57.96,71,-95,-2054,19,-28,48,346,813,-467,-579
,1318,2023-10-27 12:24:57.97,56,-103,-2023,25,-20,48,430,633,-203,-531
,1319,2023-10-27 12:24:57.98,56,-93,-2055,30,-20,48,354,812,-458,-583
,1320,2023-10-27 12:24:57.99,63,-104,-2052,31,-17,49,440,646,-206,-543
,1321,2023-10-27 12:24:58.00,74,-106,-2053,32,-16,51,340,814,-474,-577
,1322,2023-10-27 12:24:58.01,58,-106,-2044,33,-16,54,442,649,-207,-545
,1323,2023-10-27 12:24:58.02,63,-113,-2049,37,-13,57,334,805,-471,-569
,1324,2023-10-27 12:24:58.03,63,-108,-2046,40,-11,58,444,650,-206,-547
,1325,2023-10-27 12:24:58.04,52,-108,-2045,35,-11,59,331,799,-468,-565
,1326,2023-10-27 12:24:58.05,54,-105,-2031,33,-10,61,453,653,-200,-553
,1327,2023-10-27 12:24:58.06,51,-101,-2045,34,-5,65,327,793,-466,-560
,1328,2023-10-27 12:24:58.07,62,-102,-2042,29,-4,64,458,660,-202,-559
,1329,2023-10-27 12:24:58.08,58,-105,-2046,20,5,66,327,805,-478,-566
,1330,2023-10-27 12:24:58.09,52,-96,-2037,13,8,64,464,662,-198,-563
,1331,2023-10-27 12:24:58.10,64,-104,-2034,10,11,60,314,789,-475,-551
,1332,2023-10-27 12:24:58.11,80,-98,-2039,6,17,57,468,660,-192,-564
,1333,2023-10-27 12:24:58.12,72,-99,-2042,2,24,51,311,781,-470,-546
,1334,2023-10-27 12:24:58.13,79,-89,-2059,-4,29,45,474,676,-202,-575
,1335,2023-10-27 12:24:58.14,71,-96,-2065,-8,27,40,295,773,-478,-534
,1336,2023-10-27 12:24:58.15,71,-84,-2076,-9,20,38,481,682,-201,-581
,1337,2023-10-27 12:24:58.16,64,-85,-2076,-15,-9,32,300,772,-472,-536
,1338,2023-10-27 12:24:58.17,60,-77,-2072,-17,-20,29,487,682,-195,-584
,1339,2023-10-27 12:24:58.18,68,-73,-2074,-17,-32,25,294,765,-471,-529
,1340,2023-10-27 12:24:58.19,63,-83,-2069,-17,-41,23,486,693,-207,-589
,1341,2023-10-27 12:24:58.20,54,-83,-2061,-15,-48,19,284,763,-479,-523
,1342,2023-10-27 12:24:58.21,62,-93,-2061,-8,-53,16,491,695,-204,-593
,1343,2023-10-27 12:24:58.22,57,-92,-2065,0,-62,15,284,754,-470,-519
,1344,2023-10-27 12:24:58.23,58,-101,-2058,7,-65,15,501,699,-198,-600
,1345,2023-10-27 12:24:58.24,49,-104,-2047,12,-68,20,281,750,-469,-515
,1346,2023-10-27 12:24:58.25,54,-104,-2045,21,-64,22,504,712,-208,-608
,1347,2023-10-27 12:24:58.26,44,-104,-2051,22,-55,28,273,751,-478,-512
,1348,2023-10-27 12:24:58.27,42,-112,-2045,25,-48,28,511,717,-206,-614
,1349,2023-10-27 12:24:58.28,35,-108,-2034,25,-42,35,268,743,-475,-505
,1350,2023-10-27 12:24:58.29,19,-122,-2018,29,-33,43,512,720,-208,-616
,1351,2023-10-27 12:24:58.30,42,-99,-2041,27,-21,46,272,732,-460,-502
,1352,2023-10-27 12:24:58.31,50,-104,-2037,27,-16,51,521,722,-201,-621
,1353,2023-10-27 12:24:58.32,41,-106,-2033,27,-7,55,268,728,-460,-498
,1354,2023-10-27 12:24:58.33,48,-105,-2041,28,0,54,525,731,-206,-628
,1355,2023-10-27 12:24:58.34,46,-105,-2043,30,9,54,262,725,-463,-493
,1356,2023-10-27 12:24:58.35,44,-108,-2045,34,15,53,526,739,-213,-632
,1357,2023-10-27 12:24:58.36,44,-111,-2050,31,13,50,259,720,-461,-489
,1358,2023-10-27 12:24:58.37,64,-104,-2048,29,18,46,529,746,-217,-637
,1359,2023-10-27 12:24:58.38,55,-94,-2052,26,19,40,256,718,-462,-487
,1360,2023-10-27 12:24:58.39,54,-99,-2044,27,19,36,535,749,-214,-642
,1361,2023-10-27 12:24:58.40,67,-89,-2049,23,19,25,252,708,-456,-480
,1362,2023-10-27 12:24:58.41,59,-95,-2058,18,14,16,537,753,-216,-645
,1363,2023-10-27 12:24:58.42,60,-101,-2068,14,8,8,256,704,-448,-480
,1364,2023-10-27 12:24:58.43,52,-91,-2068,13,2,2,544,763,-219,-653
,1365,2023-10-27 12:24:58.44,63,-88,-2061,9,-2,-5,253,706,-453,-479
,1366,2023-10-27 12:24:58.45,61,-87,-2057,1,-2,-11,546,777,-231,-661
,1367,2023-10-27 12:24:58.46,49,-95,-2063,-6,-5,-19,244,697,-453,-470
,1368,2023-10-27 12:24:58.47,50,-95,-2065,-9,-8,-24,546,773,-227,-659
,1369,2023-10-27 12:24:58.48,40,-93,-2062,-11,-11,-24,245,689,-444,-467
,1370,2023-10-27 12:24:58.49,48,-95,-2060,-12,-16,-26,558,798,-240,-678
,1371,2023-10-27 12:24:58.50,46,-89,-2057,-16,-20,-28,245,686,-441,-465
,1372,2023-10-27 12:24:58.51,42,-93,-2055,-19,-19,-29,553,791,-238,-672
,1373,2023-10-27 12:24:58.52,44,-89,-2049,-20,-19,-30,242,669,-427,-455
,1374,2023-10-27 12:24:58.53,46,-89,-2050,-21,-16,-33,553,792,-239,-672
,1375,2023-10-27 12:24:58.54,49,-90,-2050,-24,-11,-32,239,667,-428,-453
,1376,2023-10-27 12:24:58.55,52,-90,-2044,-26,-6,-34,553,795,-242,-674
,1377,2023-10-27 12:24:58.56,33,-97,-2053,-24,-4,-34,240,667,-427,-453
,1378,2023-10-27 12:24:58.57,44,-86,-2049,-24,1,-31,557,802,-245,-679
,1379,2023-10-27 12:24:58.58,43,-87,-2053,-21,1,-29,240,666,-426,-453
,1380,2023-10-27 12:24:58.59,46,-87,-2047,-18,4,-28,558,809,-251,-683
,1381,2023-10-27 12:24:58.60,49,-97,-2052,-18,4,-24,238,655,-417,-446
,1382,2023-10-27 12:24:58.61,52,-95,-2052,-14,4,-21,554,806,-252,-680
,1383,2023-10-27 12:24:58.62,43,-89,-2049,-11,6,-19,236,651,-415,-443
,1384,2023-10-27 12:24:58.63,44,-89,-2050,-6,7,-19,560,816,-256,-688
,1385,2023-10-27 12:24:58.64,46,-91,-2048,-3,6,-15,238,648,-410,-443
,1386,2023-10-27 12:24:58.65,49,-94,-2076,5,10,-13,560,819,-259,-689
,1387,2023-10-27 12:24:58.66,47,-97,-2055,5,9,-12,236,645,-409,-440
,1388,2023-10-27 12:24:58.67,41,-94,-2048,10,9,-12,558,822,-264,-690
,1389,2023-10-27 12:24:58.68,40,-94,-2062,15,9,-12,238,643,-405,-440
,1390,2023-10-27 12:24:58.69,49,-93,-2055,16,9,-8,559,828,-269,-693
,1391,2023-10-27 12:24:58.70,34,-92,-2062,13,13,-11,239,632,-393,-435
,1392,2023-10-27 12:24:58.71,47,-89,-2059,12,11,-11,561,825,-264,-693
,1393,2023-10-27 12:24:58.72,50,-90,-2054,21,7,-6,242,628,-386,-435
,1394,2023-10-27 12:24:58.73,40,-90,-2060,25,4,-7,565,832,-267,-698
,1395,2023-10-27 12:24:58.74,42,-93,-2032,25,4,-5,250,632,-382,-441
,1396,2023-10-27 12:24:58.75,46,-95,-2058,33,8,-5,563,842,-279,-702
,1397,2023-10-27 12:24:58.76,40,-101,-2048,36,8,-5,245,625,-380,-435
,1398,2023-10-27 12:24:58.77,40,-93,-2049,43,7,-1,560,837,-277,-698
,1399,2023-10-27 12:24:58.78,46,-95,-2064,43,5,-1,244,622,-378,-433
,1400,2023-10-27 12:24:58.79,43,-101,-2057,48,2,0,559,845,-286,-702
,1401,2023-10-27 12:24:58.80,42,-101,-2061,50,-1,4,249,618,-369,-433
,1402,2023-10-27 12:24:58.81,44,-103,-2051,51,-2,7,562,845,-283,-703
,1403,2023-10-27 12:24:58.82,44,-106,-2051,55,0,7,252,610,-358,-431
,1404,2023-10-27 12:24:58.83,28,-110,-2047,62,-3,6,562,843,-281,-702
,1405,2023-10-27 12:24:58.84,51,-109,-2065,66,-2,8,257,608,-351,-432
,1406,2023-10-27 12:24:58.85,50,-111,-2060,60,-1,4,562,845,-283,-703
,1407,2023-10-27 12:24:58.86,40,-121,-2035,59,10,2,255,599,-344,-427
,1408,2023-10-27 12:24:58.87,48,-110,-2055,70,-2,0,563,846,-283,-704
,1409,2023-10-27 12:24:58.88,44,-116,-2036,67,12,-2,260,606,-346,-433
,1410,2023-10-27 12:24:58.89,44,-108,-2051,66,12,-8,558,855,-297,-706
,1411,2023-10-27 12:24:58.90,49,-110,-2041,57,21,-13,269,612,-343,-440
,1412,2023-10-27 12:24:58.91,47,-112,-2048,57,22,-19,555,852,-297,-703
,1413,2023-10-27 12:24:58.92,58,-114,-2042,60,28,-24,262,597,-335,-429
,1414,2023-10-27 12:24:58.93,55,-115,-2035,55,27,-29,543,840,-297,-691
,1415,2023-10-27 12:24:58.94,53,-112,-2030,49,32,-32,266,595,-329,-430
,1416,2023-10-27 12:24:58.95,54,-116,-2042,49,29,-39,547,856,-309,-701
,1417,2023-10-27 12:24:58.96,52,-112,-2043,49,28,-42,270,597,-327,-433
,1418,2023-10-27 12:24:58.97,57,-112,-2046,45,25,-48,546,855,-309,-700
,1419,2023-10-27 12:24:58.98,69,-108,-2052,36,29,-51,274,591,-317,-432
,1420,2023-10-27 12:24:58.99,55,-117,-2051,31,30,-57,547,853,-306,-700
,1421,2023-10-27 12:24:59.00,57,-110,-2061,26,28,-61,287,593,-306,-440
,1422,2023-10-27 12:24:59.01,61,-105,-2051,17,34,-67,552,860,-308,-706
,1423,2023-10-27 12:24:59.02,81,-109,-2054,11,34,-73,292,599,-307,-445
,1424,2023-10-27 12:24:59.03,72,-112,-2058,2,39,-74,550,863,-313,-706
,1425,2023-10-27 12:24:59.04,72,-118,-2064,-4,36,-76,294,593,-299,-443
,1426,2023-10-27 12:24:59.05,74,-112,-2076,-9,35,-79,544,854,-310,-699
,1427,2023-10-27 12:24:59.06,70,-106,-2075,-6,33,-78,300,582,-282,-441
,1428,2023-10-27 12:24:59.07,80,-108,-2085,-6,25,-77,544,853,-309,-698
,1429,2023-10-27 12:24:59.08,67,-110,-2073,-10,21,-79,303,589,-286,-446
,1430,2023-10-27 12:24:59.09,65,-109,-2065,-13,17,-78,541,863,-322,-702
,1431,2023-10-27 12:24:59.10,58,-108,-2069,-17,16,-79,306,592,-286,-449
,1432,2023-10-27 12:24:59.11,62,-118,-2071,-13,15,-78,537,862,-325,-699
,1433,2023-10-27 12:24:59.12,62,-108,-2065,-13,10,-75,316,588,-272,-452
,1434,2023-10-27 12:24:59.13,62,-103,-2068,-17,8,-71,536,861,-325,-698
,1435,2023-10-27 12:24:59.14,46,-101,-2061,-19,5,-68,312,584,-272,-448
,1436,2023-10-27 12:24:59.15,46,-104,-2053,-30,12,-66,528,856,-328,-692
,1437,2023-10-27 12:24:59.16,57,-95,-2054,-33,7,-68,318,585,-267,-451
,1438,2023-10-27 12:24:59.17,47,-105,-2061,-37,16,-70,525,857,-332,-691
,1439,2023-10-27 12:24:59.18,51,-97,-2059,-42,16,-65,325,586,-261,-455
,1440,2023-10-27 12:24:59.19,48,-94,-2054,-45,25,-66,517,855,-338,-686
,1441,2023-10-27 12:24:59.20,43,-97,-2045,-47,26,-67,323,581,-258,-452
,1442,2023-10-27 12:24:59.21,51,-94,-2038,-50,32,-67,516,855,-339,-685
,1443,2023-10-27 12:24:59.22,55,-104,-2064,-47,32,-72,340,586,-246,-463
,1444,2023-10-27 12:24:59.23,66,-87,-2064,-45,27,-71,522,859,-337,-690
,1445,2023-10-27 12:24:59.24,59,-91,-2059,-39,27,-73,350,590,-240,-470
,1446,2023-10-27 12:24:59.25,68,-79,-2055,-34,28,-77,516,855,-339,-685
,1447,2023-10-27 12:24:59.26,63,-70,-2057,-35,33,-84,350,587,-237,-468
,1448,2023-10-27 12:24:59.27,66,-68,-2048,-33,40,-93,509,856,-347,-682
,1449,2023-10-27 12:24:59.28,74,-67,-2041,-27,45,-97,360,593,-233,-476
,1450,2023-10-27 12:24:59.29,67,-76,-2028,-28,51,-102,510,863,-353,-686
,1451,2023-10-27 12:24:59.30,68,-72,-2033,-31,57,-105,370,602,-232,-486
,1452,2023-10-27 12:24:59.31,67,-79,-2039,-38,62,-101,513,872,-359,-692
,1453,2023-10-27 12:24:59.32,56,-93,-2030,-43,66,-97,376,597,-221,-486
,1454,2023-10-27 12:24:59.33,79,-85,-2053,-38,61,-89,500,847,-347,-673
,1455,2023-10-27 12:24:59.34,67,-100,-2048,-44,72,-80,379,579,-200,-479
,1456,2023-10-27 12:24:59.35,71,-80,-2060,-45,63,-71,499,844,-345,-671
,1457,2023-10-27 12:24:59.36,59,-84,-2068,-56,77,-63,396,593,-197,-494
,1458,2023-10-27 12:24:59.37,52,-94,-2065,-58,76,-56,490,834,-344,-662
,1459,2023-10-27 12:24:59.38,70,-86,-2082,-62,73,-45,404,595,-191,-499
,1460,2023-10-27 12:24:59.39,53,-84,-2097,-74,79,-36,500,828,-328,-664
,1461,2023-10-27 12:24:59.40,60,-85,-2084,-86,75,-28,425,585,-160,-505
,1462,2023-10-27 12:24:59.41,50,-84,-2091,-89,75,-23,502,829,-327,-665
,1463,2023-10-27 12:24:59.42,57,-74,-2079,-89,71,-20,423,598,-175,-510
,1464,2023-10-27 12:24:59.43,80,-61,-2056,-96,74,-19,466,846,-380,-656
,1465,2023-10-27 12:24:59.44,67,-65,-2046,-94,91,-25,400,613,-213,-506
,1466,2023-10-27 12:24:59.45,74,-65,-2043,-83,93,-34,445,841,-396,-643
,1467,2023-10-27 12:24:59.46,89,-60,-2045,-70,101,-40,407,609,-202,-508
,1468,2023-10-27 12:24:59.47,108,-56,-2029,-62,107,-51,448,830,-382,-639
,1469,2023-10-27 12:24:59.48,117,-56,-2042,-47,118,-60,422,606,-184,-514
,1470,2023-10-27 12:24:59.49,111,-45,-2032,-37,126,-70,446,832,-386,-639
,1471,2023-10-27 12:24:59.50,124,-46,-2016,-20,122,-75,432,623,-191,-527
,1472,2023-10-27 12:24:59.51,129,-49,-2023,-9,116,-86,435,842,-407,-638
,1473,2023-10-27 12:24:59.52,140,-43,-2047,-4,112,-89,430,629,-199,-529
,1474,2023-10-27 12:24:59.53,135,-45,-2034,-7,112,-96,429,833,-404,-631
,1475,2023-10-27 12:24:59.54,156,-34,-2048,-1,100,-101,443,624,-181,-533
,1476,2023-10-27 12:24:59.55,146,-41,-2063,0,98,-105,429,833,-404,-631
,1477,2023-10-27 12:24:59.56,145,-44,-2068,3,85,-107,453,641,-188,-547
,1478,2023-10-27 12:24:59.57,143,-48,-2072,5,78,-108,413,828,-415,-620
,1479,2023-10-27 12:24:59.58,143,-59,-2072,5,70,-106,453,635,-182,-544
,1480,2023-10-27 12:24:59.59,141,-63,-2078,6,53,-102,415,828,-413,-621
,1481,2023-10-27 12:24:59.60,129,-59,-2064,0,54,-97,465,649,-184,-557
,1482,2023-10-27 12:24:59.61,132,-68,-2076,-2,51,-96,411,827,-416,-619
,1483,2023-10-27 12:24:59.62,112,-77,-2082,-9,50,-88,475,652,-177,-563
,1484,2023-10-27 12:24:59.63,112,-87,-2099,-7,42,-81,399,818,-419,-608
,1485,2023-10-27 12:24:59.64,136,-90,-2067,-4,47,-72,476,652,-176,-564
,1486,2023-10-27 12:24:59.65,134,-89,-2080,2,38,-63,379,797,-418,-588
,1487,2023-10-27 12:24:59.66,115,-92,-2065,3,41,-54,470,635,-165,-552
,1488,2023-10-27 12:24:59.67,121,-81,-2047,2,49,-47,370,787,-417,-578
,1489,2023-10-27 12:24:59.68,129,-80,-2042,0,58,-43,476,654,-178,-565
,1490,2023-10-27 12:24:59.69,116,-82,-2027,-3,75,-40,362,796,-434,-579
,1491,2023-10-27 12:24:59.70,123,-85,-2024,0,80,-39,484,660,-176,-572
,1492,2023-10-27 12:24:59.71,136,-82,-2024,0,91,-39,370,790,-420,-580
,1493,2023-10-27 12:24:59.72,135,-75,-2019,-4,103,-42,515,685,-170,-600
,1494,2023-10-27 12:24:59.73,149,-67,-2019,-5,110,-47,375,794,-419,-584
,1495,2023-10-27 12:24:59.74,156,-64,-2019,-10,129,-53,512,679,-167,-595
,1496,2023-10-27 12:24:59.75,162,-52,-2038,-10,124,-62,365,783,-418,-574
,1497,2023-10-27 12:24:59.76,166,-59,-2040,-12,143,-70,519,686,-167,-602
,1498,2023-10-27 12:24:59.77,172,-54,-2030,-17,143,-76,366,785,-419,-575
,1499,2023-10-27 12:24:59.78,174,-55,-2038,-20,142,-85,517,686,-169,-601
,1500,2023-10-27 12:24:59.79,181,-50,-2048,-19,131,-88,350,782,-432,-566
,1501,2023-10-27 12:24:59.80,194,-49,-2038,-25,143,-94,521,696,-175,-608
,1502,2023-10-27 12:24:59.81,197,-70,-2044,-26,147,-95,351,778,-427,-564
,1503,2023-10-27 12:24:59.82,182,-62,-2062,-26,146,-94,537,710,-173,-623
,1504,2023-10-27 12:24:59.83,204,-82,-2050,-21,138,-95,350,778,-428,-564
,1505,2023-10-27 12:24:59.84,206,-84,-2057,-10,140,-94,538,717,-179,-627
,1506,2023-10-27 12:24:59.85,214,-92,-2068,7,140,-94,328,770,-442,-549
,1507,2023-10-27 12:24:59.86,231,-77,-2064,22,137,-98,534,719,-185,-626
,1508,2023-10-27 12:24:59.87,216,-81,-2048,36,148,-103,321,758,-437,-539
,1509,2023-10-27 12:24:59.88,213,-57,-2069,57,157,-112,539,718,-179,-628
,1510,2023-10-27 12:24:59.89,223,-60,-2057,74,141,-117,317,752,-435,-534
,1511,2023-10-27 12:24:59.90,212,-58,-2051,85,146,-118,539,726,-187,-632
,1512,2023-10-27 12:24:59.91,228,-70,-2057,94,147,-117,312,751,-439,-531
,1513,2023-10-27 12:24:59.92,211,-85,-2056,109,153,-120,549,736,-187,-642
,1514,2023-10-27 12:24:59.93,219,-89,-2045,130,144,-120,308,743,-435,-525
,1515,2023-10-27 12:24:59.94,222,-89,-2040,153,141,-120,549,739,-190,-644
,1516,2023-10-27 12:24:59.95,217,-87,-2037,165,142,-122,309,735,-426,-522
,1517,2023-10-27 12:24:59.96,220,-90,-2027,177,144,-125,557,742,-185,-649
,1518,2023-10-27 12:24:59.97,226,-99,-2026,196,142,-124,305,730,-425,-517
,1519,2023-10-27 12:24:59.98,242,-93,-2023,216,147,-123,558,748,-190,-653
,1520,2023-10-27 12:24:59.99,244,-86,-2016,224,162,-126,299,729,-430,-514
,1521,2023-10-27 12:25:00.00,254,-98,-2011,226,172,-130,561,755,-194,-658
,1522,2023-10-27 12:25:00.01,246,-104,-2033,239,174,-128,294,724,-430,-509
,1523,2023-10-27 12:25:00.02,245,-120,-2038,252,189,-128,563,764,-201,-663
,1524,2023-10-27 12:25:00.03,255,-124,-2029,264,185,-123,290,722,-432,-506
,1525,2023-10-27 12:25:00.04,259,-135,-2032,271,193,-117,561,770,-209,-665
,1526,2023-10-27 12:25:00.05,270,-145,-2038,283,185,-108,277,718,-441,-497
,1527,2023-10-27 12:25:00.06,253,-160,-2048,301,177,-99,557,772,-215,-664
,1528,2023-10-27 12:25:00.07,268,-156,-2039,318,180,-90,268,705,-437,-486
,1529,2023-10-27 12:25:00.08,277,-158,-2043,328,184,-84,553,774,-221,-663
,1530,2023-10-27 12:25:00.09,278,-154,-2042,335,177,-78,260,703,-443,-481
,1531,2023-10-27 12:25:00.10,286,-149,-2064,341,168,-75,548,777,-229,-662
,1532,2023-10-27 12:25:00.11,281,-157,-2071,343,162,-69,250,697,-447,-473
,1533,2023-10-27 12:25:00.12,275,-157,-2072,339,156,-68,548,786,-238,-667
,1534,2023-10-27 12:25:00.13,276,-170,-2082,326,149,-63,252,700,-448,-476
,1535,2023-10-27 12:25:00.14,277,-167,-2075,311,140,-57,545,788,-243,-666
,1536,2023-10-27 12:25:00.15,290,-170,-2058,296,129,-52,241,690,-449,-465
,1537,2023-10-27 12:25:00.16,272,-175,-2056,290,114,-51,544,795,-251,-669
,1538,2023-10-27 12:25:00.17,286,-181,-2067,273,100,-48,227,680,-453,-453
,1539,2023-10-27 12:25:00.18,285,-195,-2053,255,81,-42,530,798,-268,-664
,1540,2023-10-27 12:25:00.19,276,-196,-2052,232,83,-42,214,668,-454,-441
,1541,2023-10-27 12:25:00.20,288,-209,-2052,214,71,-37,536,806,-270,-671
,1542,2023-10-27 12:25:00.21,281,-218,-2057,190,60,-33,221,679,-458,-450
,1543,2023-10-27 12:25:00.22,258,-216,-2054,165,26,-25,533,815,-282,-674
,1544,2023-10-27 12:25:00.23,275,-219,-2043,152,5,-22,209,674,-465,-441
,1545,2023-10-27 12:25:00.24,270,-217,-2039,134,-5,-22,526,826,-300,-676
,1546,2023-10-27 12:25:00.25,274,-223,-2046,111,-15,-23,206,667,-461,-436
,1547,2023-10-27 12:25:00.26,277,-214,-2036,90,-16,-24,517,818,-301,-667
,1548,2023-10-27 12:25:00.27,264,-220,-2024,64,-6,-33,197,656,-459,-426
,1549,2023-10-27 12:25:00.28,266,-225,-2033,46,-7,-40,514,820,-306,-667
,1550,2023-10-27 12:25:00.29,289,-234,-2041,35,-15,-41,200,657,-457,-428
,1551,2023-10-27 12:25:00.30,271,-241,-2041,27,-9,-50,514,838,-324,-676
,1552,2023-10-27 12:25:00.31,275,-246,-2031,23,-13,-51,196,657,-461,-426
,1553,2023-10-27 12:25:00.32,264,-239,-2039,19,-21,-51,505,839,-334,-672
,1554,2023-10-27 12:25:00.33,259,-234,-2029,4,-14,-52,182,647,-465,-414
,1555,2023-10-27 12:25:00.34,283,-235,-2032,-10,-8,-56,489,838,-349,-663
,1556,2023-10-27 12:25:00.35,263,-245,-2023,-22,2,-57,176,642,-466,-409
,1557,2023-10-27 12:25:00.36,261,-241,-2027,-27,8,-61,480,845,-365,-662
,1558,2023-10-27 12:25:00.37,269,-235,-2027,-29,12,-62,168,642,-474,-405
,1559,2023-10-27 12:25:00.38,262,-234,-2029,-42,29,-66,467,852,-385,-659
,1560,2023-10-27 12:25:00.39,268,-243,-2029,-49,34,-69,162,637,-475,-399
,1561,2023-10-27 12:25:00.40,258,-236,-2035,-49,38,-72,461,852,-391,-656
,1562,2023-10-27 12:25:00.41,255,-236,-2042,-48,40,-71,160,630,-470,-395
,1563,2023-10-27 12:25:00.42,269,-234,-2044,-50,37,-68,452,854,-402,-653
,1564,2023-10-27 12:25:00.43,271,-220,-2041,-52,31,-64,157,633,-476,-395
,1565,2023-10-27 12:25:00.44,271,-220,-2029,-57,35,-64,441,860,-419,-650
,1566,2023-10-27 12:25:00.45,264,-213,-2031,-61,34,-61,147,622,-475,-384
,1567,2023-10-27 12:25:00.46,289,-208,-2040,-67,33,-61,429,858,-429,-643
,1568,2023-10-27 12:25:00.47,287,-217,-2048,-74,34,-55,148,624,-476,-386
,1569,2023-10-27 12:25:00.48,268,-209,-2040,-78,24,-49,424,864,-440,-644
,1570,2023-10-27 12:25:00.49,287,-205,-2038,-81,18,-45,151,617,-466,-384
,1571,2023-10-27 12:25:00.50,283,-201,-2046,-85,9,-39,415,861,-446,-638
,1572,2023-10-27 12:25:00.51,280,-215,-2064,-94,4,-30,146,613,-467,-379
,1573,2023-10-27 12:25:00.52,277,-212,-2089,-103,-12,-20,411,864,-453,-637
,1574,2023-10-27 12:25:00.53,262,-228,-2119,-99,-40,-2,153,615,-462,-384
,1575,2023-10-27 12:25:00.54,268,-243,-2148,-82,-89,26,410,877,-467,-643
,1576,2023-10-27 12:25:00.55,270,-246,-2165,-58,-149,66,151,612,-461,-381
,1577,2023-10-27 12:25:00.56,286,-230,-2150,-34,-223,110,400,869,-469,-634
,1578,2023-10-27 12:25:00.57,293,-215,-2129,-20,-285,152,154,603,-449,-378
,1579,2023-10-27 12:25:00.58,288,-203,-2117,-17,-332,188,389,866,-477,-627
,1580,2023-10-27 12:25:00.59,310,-195,-2097,-16,-368,223,148,602,-454,-375
,1581,2023-10-27 12:25:00.60,298,-197,-2100,-14,-393,253,371,868,-497,-619
,1582,2023-10-27 12:25:00.61,284,-182,-2072,-16,-424,284,145,605,-460,-375
,1583,2023-10-27 12:25:00.62,262,-162,-2048,-23,-434,305,370,872,-502,-621
,1584,2023-10-27 12:25:00.63,248,-151,-2026,-36,-436,313,137,584,-447,-360
,1585,2023-10-27 12:25:00.64,241,-155,-2021,-51,-438,317,365,867,-502,-616
,1586,2023-10-27 12:25:00.65,224,-163,-2025,-57,-437,319,160,597,-437,-378
,1587,2023-10-27 12:25:00.66,195,-169,-2040,-55,-435,312,368,870,-502,-619
,1588,2023-10-27 12:25:00.67,169,-161,-2024,-56,-437,310,166,600,-434,-383
,1589,2023-10-27 12:25:00.68,162,-162,-2019,-64,-421,303,369,875,-506,-622
,1590,2023-10-27 12:25:00.69,172,-158,-2008,-73,-395,292,180,596,-416,-388
,1591,2023-10-27 12:25:00.70,147,-148,-2009,-82,-366,278,376,874,-498,-625
,1592,2023-10-27 12:25:00.71,137,-152,-1992,-89,-330,263,188,605,-417,-396
,1593,2023-10-27 12:25:00.72,128,-161,-1987,-87,-306,250,377,881,-504,-629
,1594,2023-10-27 12:25:00.73,128,-152,-2000,-90,-275,239,195,598,-403,-396
,1595,2023-10-27 12:25:00.74,107,-170,-2009,-99,-248,221,372,875,-503,-623
,1596,2023-10-27 12:25:00.75,112,-163,-2014,-103,-225,208,208,599,-391,-403
,1597,2023-10-27 12:25:00.76,116,-149,-2004,-101,-200,193,380,875,-495,-627
,1598,2023-10-27 12:25:00.77,109,-148,-2012,-91,-179,178,219,593,-374,-406
,1599,2023-10-27 12:25:00.78,98,-143,-1995,-92,-149,160,378,956,-578,-667
,1600,2023-10-27 12:25:00.79,113,-149,-2007,-82,-139,143,216,749,-533,-482
,1601,2023-10-27 12:25:00.80,87,-135,-2015,-75,-124,127,368,949,-581,-658
,1602,2023-10-27 12:25:00.81,89,-137,-2016,-66,-113,111,224,586,-362,-405
,1603,2023-10-27 12:25:00.82,87,-138,-2016,-63,-94,95,373,844,-471,-608
,1604,2023-10-27 12:25:00.83,92,-152,-2018,-62,-70,82,238,591,-353,-414
,1605,2023-10-27 12:25:00.84,96,-148,-2027,-57,-61,70,383,883,-500,-633
,1606,2023-10-27 12:25:00.85,105,-152,-2034,-47,-47,61,258,610,-352,-434
,1607,2023-10-27 12:25:00.86,98,-157,-2041,-34,-48,52,381,881,-500,-631
,1608,2023-10-27 12:25:00.87,106,-149,-2042,-26,-45,46,264,604,-340,-434
,1609,2023-10-27 12:25:00.88,100,-141,-2048,-21,-37,38,370,873,-503,-621
,1610,2023-10-27 12:25:00.89,103,-137,-2032,-22,-32,30,265,604,-339,-434
,1611,2023-10-27 12:25:00.90,96,-137,-2011,-16,-35,26,365,873,-508,-619
,1612,2023-10-27 12:25:00.91,103,-135,-2060,-15,-28,21,270,596,-326,-433
,1613,2023-10-27 12:25:00.92,101,-138,-2049,-29,-32,23,365,861,-496,-613
,1614,2023-10-27 12:25:00.93,117,-128,-2045,-35,-33,21,277,590,-313,-433
,1615,2023-10-27 12:25:00.94,101,-149,-2022,-44,-19,19,364,864,-500,-614
,1616,2023-10-27 12:25:00.95,112,-137,-2053,-40,-28,22,294,607,-313,-450
,1617,2023-10-27 12:25:00.96,103,-133,-2049,-47,-22,24,368,865,-497,-616
,1618,2023-10-27 12:25:00.97,117,-136,-2020,-58,-22,26,300,596,-296,-448
,1619,2023-10-27 12:25:00.98,116,-131,-2034,-60,-13,24,371,856,-485,-613
,1620,2023-10-27 12:25:00.99,131,-136,-2052,-64,-5,23,317,599,-282,-458
,1621,2023-10-27 12:25:01.00,132,-122,-2036,-70,1,19,368,857,-489,-612
,1622,2023-10-27 12:25:01.01,126,-124,-2051,-80,10,16,324,600,-276,-462
,1623,2023-10-27 12:25:01.02,132,-126,-2056,-87,22,10,362,849,-487,-605
,1624,2023-10-27 12:25:01.03,134,-130,-2068,-81,23,11,332,600,-268,-466
,1625,2023-10-27 12:25:01.04,136,-126,-2064,-69,11,14,359,848,-489,-603
,1626,2023-10-27 12:25:01.05,119,-124,-2068,-61,13,15,340,601,-261,-470
,1627,2023-10-27 12:25:01.06,128,-128,-2056,-62,12,15,349,846,-497,-597
,1628,2023-10-27 12:25:01.07,120,-118,-2048,-59,10,13,346,607,-261,-476
,1629,2023-10-27 12:25:01.08,119,-120,-2057,-57,9,18,346,850,-504,-598
,1630,2023-10-27 12:25:01.09,116,-120,-2044,-61,15,20,346,613,-267,-479
,1631,2023-10-27 12:25:01.10,134,-119,-2041,-62,16,19,339,838,-499,-588
,1632,2023-10-27 12:25:01.11,105,-127,-2056,-64,19,22,364,609,-245,-486
,1633,2023-10-27 12:25:01.12,111,-133,-2042,-63,19,22,347,832,-485,-589
,1634,2023-10-27 12:25:01.13,123,-130,-2047,-48,11,28,381,614,-233,-497
,1635,2023-10-27 12:25:01.14,119,-131,-2058,-40,5,32,350,832,-482,-591
,1636,2023-10-27 12:25:01.15,112,-129,-2047,-39,8,31,393,619,-226,-506
,1637,2023-10-27 12:25:01.16,124,-113,-2061,-34,9,32,351,830,-479,-590
,1638,2023-10-27 12:25:01.17,99,-116,-2056,-35,23,31,403,625,-222,-514
,1639,2023-10-27 12:25:01.18,114,-111,-2039,-50,35,26,354,825,-471,-589
,1640,2023-10-27 12:25:01.19,114,-113,-2030,-59,48,22,412,634,-222,-523
,1641,2023-10-27 12:25:01.20,114,-106,-2042,-62,54,17,342,819,-477,-580
,1642,2023-10-27 12:25:01.21,119,-112,-2032,-62,59,14,416,625,-209,-520
,1643,2023-10-27 12:25:01.22,123,-106,-2040,-61,68,8,345,813,-468,-579
,1644,2023-10-27 12:25:01.23,117,-99,-2042,-60,70,6,428,638,-210,-533
,1645,2023-10-27 12:25:01.24,126,-103,-2049,-61,73,1,339,815,-476,-577
,1646,2023-10-27 12:25:01.25,130,-94,-2046,-63,76,-2,432,646,-214,-539
,1647,2023-10-27 12:25:01.26,130,-107,-2062,-60,82,-4,331,804,-473,-567
,1648,2023-10-27 12:25:01.27,129,-89,-2057,-64,90,-7,434,640,-206,-537
,1649,2023-10-27 12:25:01.28,122,-99,-2053,-72,97,-7,332,802,-470,-567
,1650,2023-10-27 12:25:01.29,125,-100,-2062,-79,99,-8,446,653,-207,-549
,1651,2023-10-27 12:25:01.30,136,-91,-2066,-80,96,-6,332,801,-469,-566
,1652,2023-10-27 12:25:01.31,116,-93,-2068,-82,96,0,456,659,-203,-557
,1653,2023-10-27 12:25:01.32,121,-88,-2059,-84,93,1,330,792,-462,-561
,1654,2023-10-27 12:25:01.33,130,-83,-2055,-87,91,5,468,657,-189,-562
,1655,2023-10-27 12:25:01.34,138,-75,-2058,-87,88,4,336,793,-457,-564
,1656,2023-10-27 12:25:01.35,130,-77,-2064,-91,85,5,478,672,-194,-575
,1657,2023-10-27 12:25:01.36,136,-72,-2074,-92,79,4,329,791,-462,-560
,1658,2023-10-27 12:25:01.37,132,-73,-2076,-95,72,5,481,668,-187,-574
,1659,2023-10-27 12:25:01.38,130,-69,-2072,-92,64,7,332,787,-455,-559
,1660,2023-10-27 12:25:01.39,131,-72,-2065,-82,50,9,500,691,-191,-595
,1661,2023-10-27 12:25:01.40,140,-69,-2061,-75,49,7,330,784,-454,-557
,1662,2023-10-27 12:25:01.41,143,-74,-2049,-62,48,7,497,685,-188,-591
,1663,2023-10-27 12:25:01.42,156,-75,-2053,-51,55,3,325,763,-438,-544
,1664,2023-10-27 12:25:01.43,155,-62,-2052,-42,53,1,505,689,-184,-597
,1665,2023-10-27 12:25:01.44,150,-66,-2026,-33,50,-1,329,770,-441,-549
,1666,2023-10-27 12:25:01.45,149,-67,-2038,-22,51,-3,514,700,-186,-607
,1667,2023-10-27 12:25:01.46,149,-64,-2049,-12,48,-5,323,765,-442,-544
,1668,2023-10-27 12:25:01.47,150,-59,-2037,-5,50,-12,517,701,-184,-609
,1669,2023-10-27 12:25:01.48,151,-58,-2065,3,49,-14,328,769,-441,-548
,1670,2023-10-27 12:25:01.49,160,-58,-2059,2,50,-17,526,710,-184,-618
,1671,2023-10-27 12:25:01.50,147,-50,-2067,5,48,-24,324,759,-435,-541
,1672,2023-10-27 12:25:01.51,157,-57,-2065,6,47,-30,529,715,-186,-622
,1673,2023-10-27 12:25:01.52,158,-47,-2065,11,37,-37,321,752,-431,-536
,1674,2023-10-27 12:25:01.53,146,-51,-2059,13,37,-44,537,716,-179,-626
,1675,2023-10-27 12:25:01.54,161,-50,-2062,19,32,-55,323,751,-428,-537
,1676,2023-10-27 12:25:01.55,159,-49,-2051,20,24,-65,549,732,-183,-640
,1677,2023-10-27 12:25:01.56,169,-46,-2052,23,18,-76,317,738,-421,-527
,1678,2023-10-27 12:25:01.57,168,-55,-2069,28,17,-89,538,720,-182,-629
,1679,2023-10-27 12:25:01.58,158,-50,-2053,29,13,-99,313,737,-424,-525
,1680,2023-10-27 12:25:01.59,161,-71,-2045,27,21,-106,556,739,-183,-647
,1681,2023-10-27 12:25:01.60,174,-67,-2073,34,13,-111,320,740,-420,-530
,1682,2023-10-27 12:25:01.61,163,-71,-2062,35,21,-116,565,749,-184,-657
,1683,2023-10-27 12:25:01.62,163,-82,-2054,39,21,-117,323,744,-421,-533
,1684,2023-10-27 12:25:01.63,158,-90,-2063,42,24,-114,568,758,-190,-663
,1685,2023-10-27 12:25:01.64,164,-82,-2064,42,26,-110,309,723,-414,-516
,1686,2023-10-27 12:25:01.65,149,-89,-2066,35,32,-102,565,744,-179,-654
,1687,2023-10-27 12:25:01.66,155,-86,-2068,35,31,-95,305,712,-407,-508
,1688,2023-10-27 12:25:01.67,159,-87,-2063,36,28,-89,577,757,-180,-667
,1689,2023-10-27 12:25:01.68,157,-86,-2063,40,22,-81,312,723,-411,-517
,1690,2023-10-27 12:25:01.69,158,-80,-2070,35,19,-73,581,771,-190,-676
,1691,2023-10-27 12:25:01.70,159,-79,-2057,32,16,-66,304,710,-406,-507
,1692,2023-10-27 12:25:01.71,155,-80,-2066,31,15,-61,578,765,-187,-671
,1693,2023-10-27 12:25:01.72,135,-75,-2069,31,10,-53,302,698,-396,-500
,1694,2023-10-27 12:25:01.73,155,-75,-2063,36,-1,-48,588,767,-179,-677
