// Data mode  : Full
// Data quality  : High
// Acceleration sensor's range  : 16g
// Gyroscope sensor's range  : 2000dps
//
//ARTIFACT,NUM,DATE,ACC_X,ACC_Y,ACC_Z,GYRO_X,GYRO_Y,GYRO_Z,EOG_L,EOG_R,EOG_H,EOG_V
,1,2023-10-20 13:46:54.07,285,-301,-2033,-57,-29,15,-59,37,-96,11
,2,2023-10-20 13:46:54.08,281,-293,-2030,-65,-27,15,-230,-84,-146,157
,3,2023-10-20 13:46:54.09,273,-291,-2023,-63,-37,20,-54,19,-73,17
,4,2023-10-20 13:46:54.10,284,-291,-2024,-53,-43,17,-222,-94,-128,158
,5,2023-10-20 13:46:54.11,281,-289,-2013,-47,-45,13,-46,6,-52,20
,6,2023-10-20 13:46:54.12,279,-302,-2026,-46,-42,20,-223,-94,-129,158
,7,2023-10-20 13:46:54.13,281,-304,-2020,-38,-40,24,-50,27,-77,11
,8,2023-10-20 13:46:54.14,262,-302,-2032,-31,-40,26,-227,-80,-147,153
,9,2023-10-20 13:46:54.15,270,-305,-2031,-28,-31,45,-54,37,-91,8
,10,2023-10-20 13:46:54.16,270,-309,-2025,-20,-24,53,-232,-77,-155,154
,11,2023-10-20 13:46:54.17,264,-308,-2028,-16,-20,62,-49,28,-77,10
,12,2023-10-20 13:46:54.18,274,-303,-2018,-15,-22,69,-229,-78,-151,153
,13,2023-10-20 13:46:54.19,275,-291,-2019,-11,-22,70,-53,22,-75,15
,14,2023-10-20 13:46:54.20,274,-315,-2016,-8,-20,71,-236,-88,-148,162
,15,2023-10-20 13:46:54.21,280,-319,-2022,-4,-15,77,-56,20,-76,18
,16,2023-10-20 13:46:54.22,273,-306,-2025,3,-6,91,-238,-90,-148,164
,17,2023-10-20 13:46:54.23,271,-305,-2032,7,-9,94,-60,-25,-35,42
,18,2023-10-20 13:46:54.24,266,-297,-2023,10,-8,100,-236,-133,-103,184
,19,2023-10-20 13:46:54.25,274,-294,-2026,14,-9,97,-56,-52,-4,54
,20,2023-10-20 13:46:54.26,260,-298,-2013,20,-6,99,-240,-128,-112,184
,21,2023-10-20 13:46:54.27,265,-299,-2011,26,0,100,-55,7,-62,24
,22,2023-10-20 13:46:54.28,269,-307,-2020,26,14,106,-238,-76,-162,157
,23,2023-10-20 13:46:54.29,269,-299,-2015,33,21,101,-53,47,-100,3
,24,2023-10-20 13:46:54.30,258,-260,-2073,37,18,95,-231,-61,-170,146
,25,2023-10-20 13:46:54.31,276,-267,-2044,27,17,91,-57,-7,-50,32
,26,2023-10-20 13:46:54.32,266,-283,-1996,20,23,73,-238,-113,-125,175
,27,2023-10-20 13:46:54.33,278,-310,-2012,24,14,51,-59,3,-62,28
,28,2023-10-20 13:46:54.34,262,-290,-2023,14,11,44,-230,-77,-153,153
,29,2023-10-20 13:46:54.35,267,-299,-2030,7,7,49,-62,27,-89,17
,30,2023-10-20 13:46:54.36,256,-320,-2039,6,3,53,-240,-75,-165,157
,31,2023-10-20 13:46:54.37,257,-309,-2031,1,3,59,-68,-10,-58,39
,32,2023-10-20 13:46:54.38,268,-301,-2015,1,0,61,-236,-98,-138,167
,33,2023-10-20 13:46:54.39,269,-299,-2023,5,-2,53,-66,-29,-37,47
,34,2023-10-20 13:46:54.40,277,-295,-2017,7,0,50,-240,-105,-135,172
,35,2023-10-20 13:46:54.41,268,-297,-2012,9,-5,45,-65,-2,-63,33
,36,2023-10-20 13:46:54.42,274,-304,-2020,8,-9,39,-235,-78,-157,156
,37,2023-10-20 13:46:54.43,267,-299,-2020,6,-8,38,-61,3,-64,29
,38,2023-10-20 13:46:54.44,251,-310,-2025,6,-1,50,-229,-81,-148,155
,39,2023-10-20 13:46:54.45,254,-303,-2022,6,6,58,-66,-18,-48,42
,40,2023-10-20 13:46:54.46,257,-307,-2020,9,6,59,-233,-100,-133,166
,41,2023-10-20 13:46:54.47,251,-304,-2022,10,1,61,-72,-19,-53,45
,42,2023-10-20 13:46:54.48,264,-310,-2027,4,4,61,-228,-83,-145,155
,43,2023-10-20 13:46:54.49,268,-319,-2020,-3,7,55,-68,-3,-65,35
,44,2023-10-20 13:46:54.50,266,-311,-2021,-3,12,52,-224,-77,-147,150
,45,2023-10-20 13:46:54.51,258,-307,-2030,2,17,52,-69,-40,-29,54
,46,2023-10-20 13:46:54.52,250,-301,-2025,9,21,50,-220,-105,-115,162
,47,2023-10-20 13:46:54.53,261,-294,-2024,9,27,49,-72,-47,-25,59
,48,2023-10-20 13:46:54.54,248,-301,-2024,16,29,48,-219,-95,-124,157
,49,2023-10-20 13:46:54.55,248,-292,-2020,24,31,49,-72,-29,-43,50
,50,2023-10-20 13:46:54.56,252,-295,-2025,27,35,49,-216,-84,-132,150
,51,2023-10-20 13:46:54.57,250,-291,-2025,19,37,51,-74,-39,-35,56
,52,2023-10-20 13:46:54.58,263,-281,-2026,13,39,46,-210,-82,-128,146
,53,2023-10-20 13:46:54.59,260,-298,-2024,8,32,45,-78,-18,-60,48
,54,2023-10-20 13:46:54.60,286,-300,-2024,-4,33,44,-211,-64,-147,137
,55,2023-10-20 13:46:54.61,270,-315,-2007,-11,37,51,-84,-23,-61,53
,56,2023-10-20 13:46:54.62,272,-331,-2021,-17,48,66,-204,-64,-140,134
,57,2023-10-20 13:46:54.63,263,-337,-2044,-24,62,90,-78,-34,-44,56
,58,2023-10-20 13:46:54.64,273,-311,-2029,-31,53,109,-199,-65,-134,132
,59,2023-10-20 13:46:54.65,286,-301,-2033,-29,44,108,-81,-13,-68,47
,60,2023-10-20 13:46:54.66,285,-281,-2041,-30,37,92,-199,-47,-152,123
,61,2023-10-20 13:46:54.67,283,-264,-2034,-29,38,80,-91,-24,-67,57
,62,2023-10-20 13:46:54.68,279,-260,-2024,-25,43,65,-193,-58,-135,125
,63,2023-10-20 13:46:54.69,289,-265,-2016,-22,45,54,-92,-38,-54,65
,64,2023-10-20 13:46:54.70,274,-281,-2017,-20,46,42,-192,-58,-134,125
,65,2023-10-20 13:46:54.71,279,-291,-2022,-14,38,37,-90,-34,-56,62
,66,2023-10-20 13:46:54.72,290,-300,-2017,-13,38,43,-182,-53,-129,117
,67,2023-10-20 13:46:54.73,280,-300,-2018,-11,36,50,-96,-49,-47,72
,68,2023-10-20 13:46:54.74,291,-297,-2018,-10,35,56,-184,-60,-124,122
,69,2023-10-20 13:46:54.75,283,-291,-2032,-14,26,59,-93,-43,-50,68
,70,2023-10-20 13:46:54.76,292,-293,-2038,-19,22,65,-176,-43,-133,109
,71,2023-10-20 13:46:54.77,287,-299,-2038,-32,13,70,-100,-28,-72,64
,72,2023-10-20 13:46:54.78,281,-291,-2035,-36,10,75,-179,-41,-138,110
,73,2023-10-20 13:46:54.79,270,-299,-2028,-40,9,80,-103,-37,-66,70
,74,2023-10-20 13:46:54.80,287,-302,-2035,-48,7,90,-168,-33,-135,100
,75,2023-10-20 13:46:54.81,286,-277,-2027,-47,4,95,-113,-42,-71,77
,76,2023-10-20 13:46:54.82,288,-280,-2023,-47,4,97,-167,-28,-139,97
,77,2023-10-20 13:46:54.83,282,-280,-2038,-42,7,99,-109,-29,-80,69
,78,2023-10-20 13:46:54.84,289,-273,-2022,-41,7,102,-156,-24,-132,90
,79,2023-10-20 13:46:54.85,285,-273,-2039,-35,12,101,-108,-54,-54,81
,80,2023-10-20 13:46:54.86,278,-256,-2039,-22,11,91,-148,-26,-122,87
,81,2023-10-20 13:46:54.87,259,-231,-2030,9,9,58,-118,-51,-67,84
,82,2023-10-20 13:46:54.88,285,-222,-2025,32,-1,24,-152,-15,-137,83
,83,2023-10-20 13:46:54.89,299,-204,-2014,41,-9,-21,-123,-30,-93,76
,84,2023-10-20 13:46:54.90,302,-263,-1990,34,-28,-57,-142,-18,-124,80
,85,2023-10-20 13:46:54.91,299,-296,-2011,5,-23,-64,-116,-65,-51,90
,86,2023-10-20 13:46:54.92,302,-324,-2015,-19,-15,-48,-133,-38,-95,85
,87,2023-10-20 13:46:54.93,301,-367,-2028,-35,8,-2,-120,-67,-53,93
,88,2023-10-20 13:46:54.94,299,-364,-2037,-41,34,53,-134,-23,-111,78
,89,2023-10-20 13:46:54.95,294,-309,-2030,-31,43,94,-122,-61,-61,91
,90,2023-10-20 13:46:54.96,306,-291,-2023,-21,38,124,-124,-14,-110,69
,91,2023-10-20 13:46:54.97,299,-267,-2035,-19,32,139,-124,-61,-63,92
,92,2023-10-20 13:46:54.98,291,-237,-2056,-16,13,136,-124,-29,-95,76
,93,2023-10-20 13:46:54.99,280,-225,-2079,-26,-9,126,-128,-81,-47,104
,94,2023-10-20 13:46:55.00,293,-216,-2062,-33,-25,106,-117,-47,-70,82
,95,2023-10-20 13:46:55.01,283,-215,-2029,-31,-38,75,-130,-116,-14,123
,96,2023-10-20 13:46:55.02,278,-249,-2023,-31,-43,54,-112,-57,-55,84
,97,2023-10-20 13:46:55.03,271,-275,-2038,-27,-36,50,-139,-94,-45,116
,98,2023-10-20 13:46:55.04,264,-259,-2037,-7,-35,42,-112,-48,-64,80
,99,2023-10-20 13:46:55.05,259,-255,-2034,13,-30,42,-138,-121,-17,129
,100,2023-10-20 13:46:55.06,240,-237,-2036,20,-26,41,-102,-64,-38,83
,101,2023-10-20 13:46:55.07,254,-231,-2014,33,-24,22,-142,-115,-27,128
,102,2023-10-20 13:46:55.08,239,-245,-2020,53,-18,-8,-109,-27,-82,68
,103,2023-10-20 13:46:55.09,237,-261,-2024,57,-14,-18,-158,-74,-84,116
,104,2023-10-20 13:46:55.10,237,-260,-2012,56,-9,-27,-113,-1,-112,57
,105,2023-10-20 13:46:55.11,237,-269,-2022,53,-2,-34,-159,-70,-89,114
,106,2023-10-20 13:46:55.12,238,-280,-2031,30,3,-23,-100,-22,-78,61
,107,2023-10-20 13:46:55.13,229,-281,-2025,10,6,-9,-155,-104,-51,129
,108,2023-10-20 13:46:55.14,234,-293,-2032,-5,8,7,-96,-35,-61,65
,109,2023-10-20 13:46:55.15,239,-292,-2021,-18,19,23,-166,-104,-62,135
,110,2023-10-20 13:46:55.16,249,-296,-2025,-34,34,47,-84,-32,-52,58
,111,2023-10-20 13:46:55.17,246,-294,-2030,-36,43,71,-156,-117,-39,136
,112,2023-10-20 13:46:55.18,251,-275,-2039,-33,43,86,-86,-37,-49,61
,113,2023-10-20 13:46:55.19,256,-274,-2032,-29,38,94,-181,-124,-57,152
,114,2023-10-20 13:46:55.20,255,-260,-2039,-18,34,88,-89,-11,-78,50
,115,2023-10-20 13:46:55.21,270,-261,-2026,-9,27,88,-172,-71,-101,121
,116,2023-10-20 13:46:55.22,258,-253,-2028,2,28,80,-83,17,-100,33
,117,2023-10-20 13:46:55.23,273,-262,-2033,15,28,68,-172,-72,-100,122
,118,2023-10-20 13:46:55.24,256,-270,-2028,21,29,64,-76,-2,-74,39
,119,2023-10-20 13:46:55.25,266,-286,-2014,31,30,63,-181,-104,-77,142
,120,2023-10-20 13:46:55.26,268,-288,-2024,45,36,58,-78,6,-84,36
,121,2023-10-20 13:46:55.27,277,-290,-2010,54,44,61,-180,-63,-117,121
,122,2023-10-20 13:46:55.28,273,-280,-2009,63,55,59,-72,34,-106,19
,123,2023-10-20 13:46:55.29,271,-288,-2017,73,58,48,-187,-75,-112,131
,124,2023-10-20 13:46:55.30,281,-285,-2007,78,58,41,-74,8,-82,33
,125,2023-10-20 13:46:55.31,288,-279,-2007,76,61,36,-190,-84,-106,137
,126,2023-10-20 13:46:55.32,297,-282,-2007,68,66,27,-71,16,-87,27
,127,2023-10-20 13:46:55.33,306,-286,-2013,61,69,26,-197,-77,-120,137
,128,2023-10-20 13:46:55.34,306,-282,-2012,48,70,25,-62,17,-79,22
,129,2023-10-20 13:46:55.35,306,-283,-2022,43,72,22,-191,-89,-102,140
,130,2023-10-20 13:46:55.36,317,-282,-2021,33,71,22,-64,34,-98,15
,131,2023-10-20 13:46:55.37,327,-282,-2017,24,71,21,-198,-47,-151,122
,132,2023-10-20 13:46:55.38,333,-272,-2023,6,64,20,-60,50,-110,5
,133,2023-10-20 13:46:55.39,328,-278,-2024,1,58,18,-201,-70,-131,135
,134,2023-10-20 13:46:55.40,326,-277,-2036,-3,54,21,-56,34,-90,11
,135,2023-10-20 13:46:55.41,340,-267,-2036,-4,45,23,-204,-78,-126,141
,136,2023-10-20 13:46:55.42,338,-272,-2042,-8,38,26,-64,8,-72,28
,137,2023-10-20 13:46:55.43,334,-274,-2045,-11,29,31,-213,-97,-116,155
,138,2023-10-20 13:46:55.44,341,-271,-2039,-11,19,31,-63,-32,-31,47
,139,2023-10-20 13:46:55.45,327,-266,-2043,-3,10,24,-212,-138,-74,175
,140,2023-10-20 13:46:55.46,325,-249,-2030,11,0,15,-56,7,-63,24
,141,2023-10-20 13:46:55.47,342,-245,-2005,37,1,-12,-214,-67,-147,140
,142,2023-10-20 13:46:55.48,322,-266,-2019,53,8,-27,-57,44,-101,6
,143,2023-10-20 13:46:55.49,301,-263,-2012,53,10,-27,-219,-79,-140,149
,144,2023-10-20 13:46:55.50,327,-267,-2017,37,-4,-25,-58,0,-58,29
,145,2023-10-20 13:46:55.51,331,-279,-2015,21,-19,-35,-223,-119,-104,171
,146,2023-10-20 13:46:55.52,336,-314,-2029,4,-22,-32,-53,-19,-34,36
,147,2023-10-20 13:46:55.53,354,-351,-2018,-14,5,10,-222,-115,-107,168
,148,2023-10-20 13:46:55.54,321,-341,-2045,-15,39,58,-52,0,-52,26
,149,2023-10-20 13:46:55.55,328,-282,-2053,-6,53,92,-223,-104,-119,163
,150,2023-10-20 13:46:55.56,324,-267,-2029,4,45,97,-56,-1,-55,28
,151,2023-10-20 13:46:55.57,324,-247,-2043,4,27,90,-222,-97,-125,159
,152,2023-10-20 13:46:55.58,329,-232,-2034,6,-3,78,-55,-5,-50,30
,153,2023-10-20 13:46:55.59,339,-258,-2027,9,-21,64,-231,-103,-128,167
,154,2023-10-20 13:46:55.60,323,-271,-2026,6,-30,60,-67,3,-70,32
,155,2023-10-20 13:46:55.61,321,-262,-2030,3,-35,63,-232,-89,-143,160
,156,2023-10-20 13:46:55.62,318,-245,-2040,0,-47,56,-59,12,-71,23
,157,2023-10-20 13:46:55.63,322,-266,-2033,0,-59,44,-230,-90,-140,160
,158,2023-10-20 13:46:55.64,327,-299,-2028,3,-66,40,-54,13,-67,20
,159,2023-10-20 13:46:55.65,318,-298,-2028,11,-47,49,-234,-99,-135,166
,160,2023-10-20 13:46:55.66,305,-293,-2036,21,-38,64,-57,-7,-50,32
,161,2023-10-20 13:46:55.67,293,-275,-2032,23,-28,77,-240,-108,-132,174
,162,2023-10-20 13:46:55.68,292,-264,-2028,29,-35,74,-56,-9,-47,32
,163,2023-10-20 13:46:55.69,295,-258,-2022,26,-39,72,-234,-106,-128,170
,164,2023-10-20 13:46:55.70,289,-272,-2031,23,-38,77,-60,0,-60,30
,165,2023-10-20 13:46:55.71,295,-274,-2030,22,-38,81,-244,-104,-140,174
,166,2023-10-20 13:46:55.72,286,-296,-2029,23,-43,86,-60,-26,-34,43
,167,2023-10-20 13:46:55.73,287,-289,-2022,22,-43,93,-237,-126,-111,181
,168,2023-10-20 13:46:55.74,290,-292,-2016,22,-43,97,-63,-43,-20,53
,169,2023-10-20 13:46:55.75,290,-288,-2021,24,-42,106,-243,-133,-110,188
,170,2023-10-20 13:46:55.76,278,-294,-2023,26,-38,109,-61,-46,-15,53
,171,2023-10-20 13:46:55.77,277,-297,-2021,26,-35,110,-246,-130,-116,188
,172,2023-10-20 13:46:55.78,270,-286,-2020,27,-37,112,-74,-57,-17,65
,173,2023-10-20 13:46:55.79,268,-283,-2014,26,-36,111,-247,-138,-109,192
,174,2023-10-20 13:46:55.80,260,-281,-2013,23,-31,112,-64,-47,-17,55
,175,2023-10-20 13:46:55.81,270,-285,-2025,17,-27,115,-240,-124,-116,182
,176,2023-10-20 13:46:55.82,269,-290,-2034,16,-30,112,-71,-38,-33,54
,177,2023-10-20 13:46:55.83,278,-296,-2023,25,-36,104,-247,-109,-138,178
,178,2023-10-20 13:46:55.84,275,-299,-2021,32,-34,103,-76,-33,-43,54
,179,2023-10-20 13:46:55.85,279,-303,-2029,30,-22,107,-247,-114,-133,180
,180,2023-10-20 13:46:55.86,279,-300,-2033,31,-11,113,-76,-28,-48,52
,181,2023-10-20 13:46:55.87,263,-279,-2028,35,-3,113,-251,-112,-139,181
,182,2023-10-20 13:46:55.88,262,-285,-2024,40,-13,114,-91,-90,-1,90
,183,2023-10-20 13:46:55.89,281,-293,-2002,47,-20,103,-256,-140,-116,198
,184,2023-10-20 13:46:55.90,274,-294,-2009,52,-28,106,-78,59,-137,9
,185,2023-10-20 13:46:55.91,274,-293,-2030,43,-26,112,-234,14,-248,110
,186,2023-10-20 13:46:55.92,279,-307,-2028,41,-23,121,-64,99,-163,-17
,187,2023-10-20 13:46:55.93,275,-309,-2034,45,-23,128,-229,-48,-181,138
,188,2023-10-20 13:46:55.94,259,-307,-2028,40,-25,142,-80,-126,46,103
,189,2023-10-20 13:46:55.95,280,-287,-2022,44,-26,155,-242,-182,-60,212
,190,2023-10-20 13:46:55.96,260,-281,-2026,53,-30,156,-88,-33,-55,60
,191,2023-10-20 13:46:55.97,275,-278,-2026,58,-26,153,-240,-70,-170,155
,192,2023-10-20 13:46:55.98,271,-280,-2015,51,-19,155,-73,-48,-25,60
,193,2023-10-20 13:46:55.99,273,-272,-2017,55,-11,152,-230,-110,-120,170
,194,2023-10-20 13:46:56.00,264,-287,-2027,62,-1,151,-78,11,-89,33
,195,2023-10-20 13:46:56.01,260,-309,-2014,69,0,153,-232,-49,-183,140
,196,2023-10-20 13:46:56.02,262,-294,-2047,69,-1,158,-90,-24,-66,57
,197,2023-10-20 13:46:56.03,262,-285,-2035,66,5,159,-226,-89,-137,157
,198,2023-10-20 13:46:56.04,271,-280,-2035,64,3,154,-88,-16,-72,52
,199,2023-10-20 13:46:56.05,272,-290,-2027,64,-6,149,-222,-46,-176,134
,200,2023-10-20 13:46:56.06,268,-299,-2024,56,-12,150,-92,-5,-87,48
,201,2023-10-20 13:46:56.07,272,-293,-2046,49,-15,153,-216,-51,-165,133
,202,2023-10-20 13:46:56.08,264,-300,-2033,44,-15,152,-87,20,-107,33
,203,2023-10-20 13:46:56.09,254,-309,-2025,44,-23,157,-213,-29,-184,121
,204,2023-10-20 13:46:56.10,259,-301,-2013,53,-27,158,-95,-13,-82,54
,205,2023-10-20 13:46:56.11,260,-309,-2015,63,-18,147,-207,-45,-162,126
,206,2023-10-20 13:46:56.12,263,-311,-2027,52,-18,146,-100,4,-104,48
,207,2023-10-20 13:46:56.13,262,-325,-2046,45,-14,143,-209,-18,-191,113
,208,2023-10-20 13:46:56.14,247,-297,-2047,44,-16,140,-96,26,-122,35
,209,2023-10-20 13:46:56.15,244,-310,-2036,44,-21,132,-196,-5,-191,100
,210,2023-10-20 13:46:56.16,234,-312,-2035,33,-19,129,-93,6,-99,43
,211,2023-10-20 13:46:56.17,241,-326,-2040,27,-23,136,-189,-19,-170,104
,212,2023-10-20 13:46:56.18,229,-328,-2051,21,-34,142,-96,-9,-87,52
,213,2023-10-20 13:46:56.19,239,-311,-2035,18,-46,142,-191,-20,-171,105
,214,2023-10-20 13:46:56.20,219,-323,-2034,6,-51,147,-110,-7,-103,58
,215,2023-10-20 13:46:56.21,224,-319,-2032,-3,-52,155,-187,-11,-176,99
,216,2023-10-20 13:46:56.22,213,-315,-2028,-6,-53,160,-104,-6,-98,55
,217,2023-10-20 13:46:56.23,202,-321,-2030,-6,-63,172,-176,-22,-154,99
,218,2023-10-20 13:46:56.24,211,-327,-2004,-6,-64,170,-105,-24,-81,64
,219,2023-10-20 13:46:56.25,210,-298,-2016,9,-66,160,-179,-30,-149,104
,220,2023-10-20 13:46:56.26,213,-320,-1998,11,-59,150,-117,-48,-69,82
,221,2023-10-20 13:46:56.27,223,-314,-1985,6,-45,148,-171,-25,-146,98
,222,2023-10-20 13:46:56.28,224,-295,-1987,14,-36,147,-113,-21,-92,67
,223,2023-10-20 13:46:56.29,229,-306,-2008,11,-22,140,-167,-7,-160,87
,224,2023-10-20 13:46:56.30,213,-309,-2026,3,-17,139,-120,-27,-93,73
,225,2023-10-20 13:46:56.31,221,-331,-2028,7,-16,142,-165,-8,-157,86
,226,2023-10-20 13:46:56.32,222,-322,-2033,8,-18,145,-119,-36,-83,77
,227,2023-10-20 13:46:56.33,217,-309,-2030,7,-20,144,-154,4,-158,75
,228,2023-10-20 13:46:56.34,219,-310,-2035,15,-22,137,-121,12,-133,54
,229,2023-10-20 13:46:56.35,234,-303,-2032,22,-25,123,-152,34,-186,59
,230,2023-10-20 13:46:56.36,227,-297,-2027,27,-30,109,-124,-9,-115,66
,231,2023-10-20 13:46:56.37,231,-288,-2027,30,-28,92,-149,25,-174,62
,232,2023-10-20 13:46:56.38,221,-293,-2045,28,-29,75,-128,-8,-120,68
,233,2023-10-20 13:46:56.39,212,-299,-2027,29,-24,60,-133,27,-160,53
,234,2023-10-20 13:46:56.40,212,-313,-2038,29,-21,46,-132,-26,-106,79
,235,2023-10-20 13:46:56.41,203,-325,-2042,28,-26,39,-137,9,-146,64
,236,2023-10-20 13:46:56.42,186,-319,-2042,36,-34,31,-132,-43,-89,87
,237,2023-10-20 13:46:56.43,194,-318,-2033,36,-45,24,-132,11,-143,60
,238,2023-10-20 13:46:56.44,207,-337,-2015,26,-47,20,-138,-46,-92,92
,239,2023-10-20 13:46:56.45,192,-341,-2019,18,-38,18,-136,10,-146,63
,240,2023-10-20 13:46:56.46,194,-335,-2013,15,-21,20,-141,-16,-125,78
,241,2023-10-20 13:46:56.47,202,-337,-2011,20,-14,22,-125,31,-156,47
,242,2023-10-20 13:46:56.48,180,-336,-2007,21,-10,18,-143,-41,-102,92
,243,2023-10-20 13:46:56.49,204,-332,-2008,20,-6,22,-121,18,-139,51
,244,2023-10-20 13:46:56.50,199,-331,-2017,21,1,24,-149,-32,-117,90
,245,2023-10-20 13:46:56.51,211,-331,-2026,19,8,28,-116,22,-138,47
,246,2023-10-20 13:46:56.52,217,-335,-2029,14,9,38,-142,-58,-84,100
,247,2023-10-20 13:46:56.53,211,-338,-2039,7,9,44,-111,27,-138,42
,248,2023-10-20 13:46:56.54,210,-327,-2032,2,6,50,-152,-15,-137,83
,249,2023-10-20 13:46:56.55,218,-324,-2039,-2,0,58,-103,60,-163,21
,250,2023-10-20 13:46:56.56,205,-335,-2034,-5,-4,66,-150,-15,-135,82
,251,2023-10-20 13:46:56.57,219,-336,-2043,-10,-9,70,-102,50,-152,26
,252,2023-10-20 13:46:56.58,227,-333,-2032,-13,-14,81,-158,-25,-133,91
,253,2023-10-20 13:46:56.59,231,-313,-2022,-5,-16,80,-104,53,-157,25
,254,2023-10-20 13:46:56.60,220,-322,-2026,6,-19,83,-163,-24,-139,93
,255,2023-10-20 13:46:56.61,239,-321,-2018,5,-18,85,-99,31,-130,34
,256,2023-10-20 13:46:56.62,224,-306,-2028,5,-16,85,-165,-64,-101,114
,257,2023-10-20 13:46:56.63,220,-296,-2016,10,-21,77,-93,29,-122,32
,258,2023-10-20 13:46:56.64,220,-306,-2022,11,-23,68,-171,-39,-132,105
,259,2023-10-20 13:46:56.65,228,-311,-2024,10,-21,69,-86,53,-139,16
,260,2023-10-20 13:46:56.66,215,-316,-2035,13,-22,69,-168,-37,-131,102
,261,2023-10-20 13:46:56.67,218,-321,-2036,14,-24,73,-85,38,-123,23
,262,2023-10-20 13:46:56.68,214,-327,-2030,13,-28,78,-175,-54,-121,114
,263,2023-10-20 13:46:56.69,211,-329,-2028,9,-28,82,-81,42,-123,19
,264,2023-10-20 13:46:56.70,212,-330,-2031,13,-26,89,-181,-45,-136,113
,265,2023-10-20 13:46:56.71,203,-339,-2034,12,-17,97,-78,46,-124,16
,266,2023-10-20 13:46:56.72,191,-343,-2031,12,-18,108,-180,-49,-131,114
,267,2023-10-20 13:46:56.73,205,-347,-2032,16,-12,114,-74,31,-105,21
,268,2023-10-20 13:46:56.74,206,-336,-2022,22,-13,121,-190,-70,-120,130
,269,2023-10-20 13:46:56.75,206,-332,-2015,22,-10,122,-78,50,-128,14
,270,2023-10-20 13:46:56.76,190,-355,-2012,18,-3,129,-194,-34,-160,114
,271,2023-10-20 13:46:56.77,194,-336,-2018,15,2,136,-73,41,-114,16
,272,2023-10-20 13:46:56.78,196,-318,-2011,10,7,144,-196,-76,-120,136
,273,2023-10-20 13:46:56.79,207,-316,-2014,-7,10,151,-73,40,-113,16
,274,2023-10-20 13:46:56.80,207,-324,-2021,-34,7,160,-186,-35,-151,110
,275,2023-10-20 13:46:56.81,197,-330,-2025,-54,10,172,-66,83,-149,-8
,276,2023-10-20 13:46:56.82,217,-335,-2028,-67,20,187,-198,-16,-182,107
,277,2023-10-20 13:46:56.83,218,-344,-2013,-67,29,207,-68,44,-112,12
,278,2023-10-20 13:46:56.84,248,-338,-2008,-69,30,230,-207,-69,-138,138
,279,2023-10-20 13:46:56.85,208,-329,-2012,-62,43,242,-66,46,-112,10
,280,2023-10-20 13:46:56.86,199,-341,-2071,-53,51,276,-211,-59,-152,135
,281,2023-10-20 13:46:56.87,200,-251,-2056,-35,42,273,-63,57,-120,3
,282,2023-10-20 13:46:56.88,208,-236,-2055,-17,17,250,-212,-54,-158,133
,283,2023-10-20 13:46:56.89,217,-244,-2040,-22,2,201,-59,79,-138,-10
,284,2023-10-20 13:46:56.90,212,-245,-2024,-22,-5,163,-211,-26,-185,118
,285,2023-10-20 13:46:56.91,222,-263,-2020,-17,1,140,-60,89,-149,-14
,286,2023-10-20 13:46:56.92,214,-287,-2026,-7,7,117,-211,-32,-179,121
,287,2023-10-20 13:46:56.93,212,-286,-2032,-1,5,100,-55,71,-126,-8
,288,2023-10-20 13:46:56.94,207,-293,-2035,14,1,87,-216,-51,-165,133
,289,2023-10-20 13:46:56.95,216,-304,-2032,23,-9,87,-54,60,-114,-3
,290,2023-10-20 13:46:56.96,216,-321,-2026,23,-15,90,-216,-54,-162,135
,291,2023-10-20 13:46:56.97,212,-308,-2019,28,-20,88,-56,66,-122,-5
,292,2023-10-20 13:46:56.98,214,-322,-2014,37,-19,89,-224,-44,-180,134
,293,2023-10-20 13:46:56.99,215,-334,-2028,48,-16,98,-61,79,-140,-9
,294,2023-10-20 13:46:57.00,181,-314,-2041,53,-17,103,-227,-42,-185,134
,295,2023-10-20 13:46:57.01,192,-294,-2049,54,-23,104,-51,79,-130,-14
,296,2023-10-20 13:46:57.02,166,-311,-2051,61,-31,90,-223,-44,-179,133
,297,2023-10-20 13:46:57.03,158,-328,-2056,60,-43,85,-51,36,-87,7
,298,2023-10-20 13:46:57.04,139,-339,-2063,59,-42,86,-226,-80,-146,153
,299,2023-10-20 13:46:57.05,135,-336,-2054,68,-51,83,-58,41,-99,8
,300,2023-10-20 13:46:57.06,152,-326,-2034,71,-56,70,-231,-60,-171,145
,301,2023-10-20 13:46:57.07,150,-297,-2013,64,-49,50,-57,61,-118,-2
,302,2023-10-20 13:46:57.08,158,-308,-2000,47,-37,33,-237,-62,-175,149
,303,2023-10-20 13:46:57.09,155,-312,-2001,38,-16,15,-55,37,-92,9
,304,2023-10-20 13:46:57.10,174,-328,-1995,24,-4,15,-235,-74,-161,154
,305,2023-10-20 13:46:57.11,173,-364,-1994,6,15,28,-54,29,-83,12
,306,2023-10-20 13:46:57.12,176,-377,-2028,0,33,55,-230,-73,-157,151
,307,2023-10-20 13:46:57.13,161,-358,-2037,-10,37,79,-55,47,-102,4
,308,2023-10-20 13:46:57.14,172,-334,-2039,-14,23,99,-240,-63,-177,151
,309,2023-10-20 13:46:57.15,181,-301,-2050,-19,13,112,-53,53,-106,0
,310,2023-10-20 13:46:57.16,190,-282,-2050,-28,0,109,-232,-56,-176,144
,311,2023-10-20 13:46:57.17,202,-278,-2044,-33,-12,96,-60,42,-102,9
,312,2023-10-20 13:46:57.18,210,-263,-2037,-33,-21,76,-242,-64,-178,153
,313,2023-10-20 13:46:57.19,202,-275,-2039,-31,-24,60,-54,42,-96,6
,314,2023-10-20 13:46:57.20,208,-300,-2046,-34,-29,51,-233,-63,-170,148
,315,2023-10-20 13:46:57.21,198,-307,-2051,-21,-31,50,-40,76,-116,-18
,316,2023-10-20 13:46:57.22,198,-294,-2064,0,-37,50,-233,-39,-194,136
,317,2023-10-20 13:46:57.23,181,-287,-2066,16,-51,44,-55,44,-99,5
,318,2023-10-20 13:46:57.24,178,-286,-2045,18,-63,38,-234,-69,-165,151
,319,2023-10-20 13:46:57.25,182,-294,-2028,12,-57,31,-58,51,-109,3
,320,2023-10-20 13:46:57.26,189,-299,-2011,15,-50,32,-240,-48,-192,144
,321,2023-10-20 13:46:57.27,190,-312,-2001,23,-37,33,-60,73,-133,-6
,322,2023-10-20 13:46:57.28,194,-339,-2010,42,-20,39,-234,-37,-197,135
,323,2023-10-20 13:46:57.29,177,-353,-2018,55,-10,61,-58,56,-114,1
,324,2023-10-20 13:46:57.30,180,-353,-2016,71,-4,80,-236,-57,-179,146
,325,2023-10-20 13:46:57.31,178,-343,-2032,92,1,101,-62,-8,-54,35
,326,2023-10-20 13:46:57.32,167,-330,-2048,105,-5,119,-238,-99,-139,168
,327,2023-10-20 13:46:57.33,177,-319,-2047,100,-14,128,-66,48,-114,9
,328,2023-10-20 13:46:57.34,173,-310,-2048,86,-20,131,-236,-23,-213,129
,329,2023-10-20 13:46:57.35,175,-296,-2051,74,-26,126,-64,71,-135,-3
,330,2023-10-20 13:46:57.36,171,-307,-2036,70,-31,120,-231,-37,-194,134
,331,2023-10-20 13:46:57.37,178,-307,-2026,61,-36,104,-69,9,-78,30
,332,2023-10-20 13:46:57.38,184,-312,-2024,54,-33,88,-235,-81,-154,158
,333,2023-10-20 13:46:57.39,184,-335,-2022,56,-40,76,-70,-1,-69,35
,334,2023-10-20 13:46:57.40,177,-344,-2024,62,-47,68,-232,-70,-162,151
,335,2023-10-20 13:46:57.41,172,-368,-2005,66,-47,73,-72,10,-82,31
,336,2023-10-20 13:46:57.42,180,-388,-2004,72,-47,83,-226,-58,-168,142
,337,2023-10-20 13:46:57.43,157,-382,-2014,80,-45,97,-69,6,-75,31
,338,2023-10-20 13:46:57.44,133,-404,-2025,66,-52,134,-221,-56,-165,138
,339,2023-10-20 13:46:57.45,140,-393,-2019,54,-52,156,-71,32,-103,19
,340,2023-10-20 13:46:57.46,141,-405,-2016,49,-50,175,-218,-37,-181,127
,341,2023-10-20 13:46:57.47,124,-388,-2013,50,-52,189,-69,23,-92,23
,342,2023-10-20 13:46:57.48,122,-387,-2008,45,-55,205,-217,-46,-171,131
,343,2023-10-20 13:46:57.49,114,-376,-2020,42,-52,216,-69,19,-88,25
,344,2023-10-20 13:46:57.50,101,-377,-2029,35,-52,221,-210,-27,-183,118
,345,2023-10-20 13:46:57.51,107,-382,-2032,21,-51,228,-74,42,-116,16
,346,2023-10-20 13:46:57.52,92,-372,-2021,9,-41,232,-204,-15,-189,109
,347,2023-10-20 13:46:57.53,99,-374,-2024,-2,-42,238,-70,36,-106,17
,348,2023-10-20 13:46:57.54,100,-371,-2022,-14,-34,244,-199,-19,-180,109
,349,2023-10-20 13:46:57.55,105,-378,-2046,-22,-30,249,-65,27,-92,19
,350,2023-10-20 13:46:57.56,107,-351,-2026,-36,-32,250,-193,-38,-155,115
,351,2023-10-20 13:46:57.57,116,-337,-2018,-42,-24,245,-73,-36,-37,54
,352,2023-10-20 13:46:57.58,109,-349,-2028,-49,-13,235,-189,-57,-132,123
,353,2023-10-20 13:46:57.59,103,-358,-2006,-49,-1,231,-78,21,-99,28
,354,2023-10-20 13:46:57.60,124,-347,-2006,-39,8,226,-189,4,-193,92
,355,2023-10-20 13:46:57.61,109,-346,-2031,-35,11,217,-77,27,-104,25
,356,2023-10-20 13:46:57.62,126,-339,-2019,-34,1,211,-176,-8,-168,92
,357,2023-10-20 13:46:57.63,113,-340,-2026,-37,-3,196,-84,-13,-71,48
,358,2023-10-20 13:46:57.64,118,-323,-2045,-42,-7,184,-180,-35,-145,107
,359,2023-10-20 13:46:57.65,110,-342,-2023,-40,-12,171,-87,-6,-81,46
,360,2023-10-20 13:46:57.66,130,-346,-2029,-50,-5,168,-176,-6,-170,91
,361,2023-10-20 13:46:57.67,117,-325,-1997,-60,4,157,-82,23,-105,29
,362,2023-10-20 13:46:57.68,97,-377,-2022,-63,15,159,-173,2,-175,85
,363,2023-10-20 13:46:57.69,88,-303,-2053,-44,16,168,-88,12,-100,38
,364,2023-10-20 13:46:57.70,93,-253,-2077,-10,-10,135,-163,14,-177,74
,365,2023-10-20 13:46:57.71,91,-238,-2020,9,-24,66,-103,25,-128,39
,366,2023-10-20 13:46:57.72,83,-209,-2008,40,-31,-14,-162,27,-189,67
,367,2023-10-20 13:46:57.73,100,-255,-2041,36,-37,-60,-95,16,-111,39
,368,2023-10-20 13:46:57.74,79,-270,-2054,6,-30,-89,-157,8,-165,74
,369,2023-10-20 13:46:57.75,90,-289,-2049,-27,-24,-117,-96,5,-101,45
,370,2023-10-20 13:46:57.76,119,-306,-2020,-53,-22,-140,-150,17,-167,66
,371,2023-10-20 13:46:57.77,116,-360,-2016,-68,-10,-137,-100,0,-100,50
,372,2023-10-20 13:46:57.78,131,-406,-2004,-73,14,-104,-143,17,-160,63
,373,2023-10-20 13:46:57.79,113,-426,-2016,-45,44,-59,-100,-1,-99,50
,374,2023-10-20 13:46:57.80,129,-399,-2023,-3,57,-9,-138,8,-146,65
,375,2023-10-20 13:46:57.81,132,-360,-2020,32,49,23,-105,-19,-86,62
,376,2023-10-20 13:46:57.82,142,-323,-2031,50,39,35,-143,11,-154,66
,377,2023-10-20 13:46:57.83,123,-304,-2049,45,33,38,-116,-11,-105,63
,378,2023-10-20 13:46:57.84,129,-274,-2045,36,30,37,-140,25,-165,57
,379,2023-10-20 13:46:57.85,140,-265,-2038,25,27,16,-113,-3,-110,58
,380,2023-10-20 13:46:57.86,134,-277,-2050,13,16,-3,-130,36,-166,47
,381,2023-10-20 13:46:57.87,126,-298,-2035,3,11,-22,-110,7,-117,51
,382,2023-10-20 13:46:57.88,136,-318,-2026,4,7,-30,-127,31,-158,48
,383,2023-10-20 13:46:57.89,132,-318,-2036,16,0,-41,-119,-31,-88,75
,384,2023-10-20 13:46:57.90,137,-328,-2029,27,-2,-46,-126,5,-131,60
,385,2023-10-20 13:46:57.91,142,-347,-2026,30,4,-46,-131,-45,-86,88
,386,2023-10-20 13:46:57.92,112,-355,-2045,26,13,-38,-120,18,-138,51
,387,2023-10-20 13:46:57.93,121,-337,-2051,23,9,-28,-126,-26,-100,76
,388,2023-10-20 13:46:57.94,111,-333,-2052,18,-3,-24,-113,5,-118,54
,389,2023-10-20 13:46:57.95,132,-337,-2032,8,-16,-25,-125,-60,-65,92
,390,2023-10-20 13:46:57.96,122,-346,-2019,-5,-17,-25,-103,-2,-101,52
,391,2023-10-20 13:46:57.97,125,-355,-2034,-11,-8,-9,-124,-49,-75,86
,392,2023-10-20 13:46:57.98,130,-353,-2021,-15,-2,9,-98,18,-116,40
,393,2023-10-20 13:46:57.99,120,-353,-2021,-7,3,21,-135,-42,-93,88
,394,2023-10-20 13:46:58.00,128,-347,-2031,-5,-1,34,-101,18,-119,41
,395,2023-10-20 13:46:58.01,125,-340,-2032,2,0,44,-142,-46,-96,94
,396,2023-10-20 13:46:58.02,133,-320,-2035,7,2,45,-102,16,-118,43
,397,2023-10-20 13:46:58.03,139,-321,-2035,10,-1,44,-139,-45,-94,92
,398,2023-10-20 13:46:58.04,137,-319,-2023,13,-5,38,-94,-19,-75,56
,399,2023-10-20 13:46:58.05,129,-322,-2020,11,-6,29,-148,-110,-38,129
,400,2023-10-20 13:46:58.06,138,-326,-2024,12,-5,25,-87,8,-95,39
,401,2023-10-20 13:46:58.07,127,-346,-2029,15,2,30,-149,-28,-121,88
,402,2023-10-20 13:46:58.08,119,-338,-2028,22,2,25,-88,46,-134,21
,403,2023-10-20 13:46:58.09,139,-342,-2029,23,0,29,-159,-46,-113,102
,404,2023-10-20 13:46:58.10,137,-340,-2029,23,0,34,-86,27,-113,29
,405,2023-10-20 13:46:58.11,125,-331,-2037,21,-3,37,-158,-57,-101,107
,406,2023-10-20 13:46:58.12,133,-328,-2040,16,-6,38,-85,-6,-79,45
,407,2023-10-20 13:46:58.13,124,-313,-2034,12,-9,33,-156,-80,-76,118
,408,2023-10-20 13:46:58.14,141,-314,-2038,9,-13,26,-76,20,-96,28
,409,2023-10-20 13:46:58.15,124,-309,-2037,2,-15,16,-167,-45,-122,106
,410,2023-10-20 13:46:58.16,127,-325,-2045,-5,-17,17,-75,36,-111,19
,411,2023-10-20 13:46:58.17,115,-339,-2042,-14,-18,18,-168,-64,-104,116
,412,2023-10-20 13:46:58.18,118,-340,-2028,-12,-20,22,-71,23,-94,24
,413,2023-10-20 13:46:58.19,112,-335,-2028,-4,-25,22,-173,-60,-113,116
,414,2023-10-20 13:46:58.20,108,-331,-2034,2,-32,27,-73,42,-115,15
,415,2023-10-20 13:46:58.21,116,-326,-2023,4,-30,27,-181,-44,-137,112
,416,2023-10-20 13:46:58.22,116,-324,-2030,1,-22,28,-69,39,-108,15
,417,2023-10-20 13:46:58.23,120,-318,-2026,-8,-9,29,-182,-69,-113,125
,418,2023-10-20 13:46:58.24,109,-317,-2023,-14,1,29,-68,23,-91,22
,419,2023-10-20 13:46:58.25,114,-323,-2024,-16,8,31,-190,-71,-119,130
,420,2023-10-20 13:46:58.26,112,-319,-2024,-21,11,33,-63,30,-93,16
,421,2023-10-20 13:46:58.27,106,-316,-2015,-24,13,36,-192,-69,-123,130
,422,2023-10-20 13:46:58.28,112,-322,-2020,-26,12,41,-57,12,-69,22
,423,2023-10-20 13:46:58.29,122,-316,-2032,-20,14,41,-181,-88,-93,134
,424,2023-10-20 13:46:58.30,112,-321,-2036,-19,15,41,-49,30,-79,9
,425,2023-10-20 13:46:58.31,124,-308,-2035,-24,7,45,-188,-64,-124,126
,426,2023-10-20 13:46:58.32,107,-310,-2039,-28,9,47,-52,54,-106,-1
,427,2023-10-20 13:46:58.33,123,-313,-2046,-33,8,51,-200,-52,-148,126
,428,2023-10-20 13:46:58.34,124,-321,-2032,-37,9,60,-56,31,-87,12
,429,2023-10-20 13:46:58.35,120,-326,-2037,-38,10,72,-204,-81,-123,142
,430,2023-10-20 13:46:58.36,129,-329,-2032,-36,7,82,-59,38,-97,10
,431,2023-10-20 13:46:58.37,118,-332,-2024,-29,6,93,-205,-54,-151,129
,432,2023-10-20 13:46:58.38,116,-346,-2028,-27,11,115,-50,50,-100,0
,433,2023-10-20 13:46:58.39,119,-328,-2023,-26,16,133,-202,-69,-133,135
,434,2023-10-20 13:46:58.40,109,-331,-2028,-19,17,144,-53,33,-86,10
,435,2023-10-20 13:46:58.41,95,-325,-2037,-18,26,157,-217,-81,-136,149
,436,2023-10-20 13:46:58.42,96,-306,-2039,1,31,152,-56,38,-94,9
,437,2023-10-20 13:46:58.43,97,-326,-2021,11,29,141,-216,-64,-152,140
,438,2023-10-20 13:46:58.44,94,-346,-2014,-10,45,149,-50,59,-109,-4
,439,2023-10-20 13:46:58.45,105,-349,-2001,-33,57,170,-220,-67,-153,143
,440,2023-10-20 13:46:58.46,104,-364,-2006,-58,69,200,-52,50,-102,1
,441,2023-10-20 13:46:58.47,132,-394,-1987,-95,91,244,-217,-66,-151,141
,442,2023-10-20 13:46:58.48,142,-417,-1984,-120,125,302,-53,28,-81,12
,443,2023-10-20 13:46:58.49,142,-403,-2041,-136,160,371,-226,-87,-139,156
,444,2023-10-20 13:46:58.50,140,-394,-2001,-108,156,424,-55,43,-98,6
,445,2023-10-20 13:46:58.51,170,-339,-2037,-53,146,456,-222,-57,-165,139
,446,2023-10-20 13:46:58.52,176,-288,-2068,-25,123,478,-46,62,-108,-8
,447,2023-10-20 13:46:58.53,152,-266,-2046,-44,133,486,-222,-52,-170,137
,448,2023-10-20 13:46:58.54,136,-252,-2083,-53,111,474,-46,13,-59,16
,449,2023-10-20 13:46:58.55,153,-247,-2055,-46,70,450,-224,-105,-119,164
,450,2023-10-20 13:46:58.56,166,-249,-2049,-58,58,431,-47,30,-77,8
,451,2023-10-20 13:46:58.57,154,-257,-2053,-59,68,420,-228,-67,-161,147
,452,2023-10-20 13:46:58.58,150,-232,-2057,-46,60,399,-42,37,-79,2
,453,2023-10-20 13:46:58.59,155,-232,-2037,-34,35,369,-224,-79,-145,151
,454,2023-10-20 13:46:58.60,155,-215,-2054,-22,31,332,-44,38,-82,3
,455,2023-10-20 13:46:58.61,155,-228,-2036,-13,14,297,-226,-68,-158,147
,456,2023-10-20 13:46:58.62,143,-231,-2045,-22,27,263,-49,38,-87,5
,457,2023-10-20 13:46:58.63,151,-248,-2049,-24,25,238,-236,-77,-159,156
,458,2023-10-20 13:46:58.64,133,-272,-2035,-18,16,219,-52,35,-87,8
,459,2023-10-20 13:46:58.65,133,-268,-2055,-23,24,212,-236,-72,-164,154
,460,2023-10-20 13:46:58.66,138,-275,-2024,-22,17,211,-56,34,-90,11
,461,2023-10-20 13:46:58.67,135,-268,-2039,-11,12,203,-236,-67,-169,151
,462,2023-10-20 13:46:58.68,132,-248,-2048,-12,14,192,-59,35,-94,12
,463,2023-10-20 13:46:58.69,138,-225,-2027,-12,9,172,-239,-69,-170,154
,464,2023-10-20 13:46:58.70,129,-219,-2038,-7,7,141,-58,30,-88,14
,465,2023-10-20 13:46:58.71,139,-225,-2033,-7,5,119,-241,-79,-162,160
,466,2023-10-20 13:46:58.72,145,-237,-2057,-12,8,93,-56,32,-88,12
,467,2023-10-20 13:46:58.73,112,-248,-2043,-15,7,74,-234,-60,-174,147
,468,2023-10-20 13:46:58.74,119,-269,-2057,-5,-8,61,-56,32,-88,12
,469,2023-10-20 13:46:58.75,130,-267,-2063,0,-11,53,-235,-66,-169,150
,470,2023-10-20 13:46:58.76,125,-257,-2043,10,-20,40,-58,34,-92,12
,471,2023-10-20 13:46:58.77,121,-263,-2019,21,-27,31,-227,-61,-166,144
,472,2023-10-20 13:46:58.78,122,-281,-2045,32,-21,25,-50,32,-82,9
,473,2023-10-20 13:46:58.79,122,-279,-2048,40,-21,27,-230,-61,-169,145
,474,2023-10-20 13:46:58.80,138,-276,-2031,44,-17,23,-58,46,-104,6
,475,2023-10-20 13:46:58.81,131,-282,-2039,44,-17,20,-231,-48,-183,139
,476,2023-10-20 13:46:58.82,139,-257,-2044,39,-7,12,-58,26,-84,16
,477,2023-10-20 13:46:58.83,140,-252,-2042,28,4,7,-227,-61,-166,144
,478,2023-10-20 13:46:58.84,141,-253,-2034,20,13,-2,-64,23,-87,20
,479,2023-10-20 13:46:58.85,144,-261,-2026,22,8,-14,-222,-51,-171,136
,480,2023-10-20 13:46:58.86,138,-266,-2020,24,7,-22,-66,28,-94,19
,481,2023-10-20 13:46:58.87,134,-275,-2036,34,-6,-30,-225,-52,-173,138
,482,2023-10-20 13:46:58.88,139,-271,-2045,38,-19,-34,-59,39,-98,10
,483,2023-10-20 13:46:58.89,145,-262,-2049,37,-31,-41,-218,-32,-186,125
,484,2023-10-20 13:46:58.90,137,-264,-2049,33,-41,-56,-58,60,-118,-1
,485,2023-10-20 13:46:58.91,135,-269,-2041,30,-42,-67,-222,-21,-201,121
,486,2023-10-20 13:46:58.92,119,-287,-2045,38,-47,-79,-64,65,-129,0
,487,2023-10-20 13:46:58.93,123,-275,-2058,47,-67,-84,-211,-11,-200,111
,488,2023-10-20 13:46:58.94,112,-282,-2055,43,-62,-89,-60,58,-118,1
,489,2023-10-20 13:46:58.95,119,-283,-2049,38,-67,-84,-210,-24,-186,117
,490,2023-10-20 13:46:58.96,119,-273,-2041,33,-64,-91,-64,25,-89,19
,491,2023-10-20 13:46:58.97,105,-276,-2039,40,-61,-95,-206,-39,-167,122
,492,2023-10-20 13:46:58.98,86,-281,-2053,40,-66,-91,-71,9,-80,31
,493,2023-10-20 13:46:58.99,85,-266,-2042,40,-73,-96,-204,-49,-155,126
,494,2023-10-20 13:46:59.00,90,-273,-2040,34,-75,-98,-74,-26,-48,50
,495,2023-10-20 13:46:59.01,85,-290,-2029,30,-72,-99,-200,-68,-132,134
,496,2023-10-20 13:46:59.02,77,-282,-2034,18,-57,-93,-70,-16,-54,43
,497,2023-10-20 13:46:59.03,77,-280,-2026,5,-40,-81,-193,-42,-151,117
,498,2023-10-20 13:46:59.04,80,-283,-2031,9,-33,-79,-70,27,-97,21
,499,2023-10-20 13:46:59.05,84,-282,-2028,13,-52,-82,-191,-9,-182,100
,500,2023-10-20 13:46:59.06,109,-278,-2024,15,-35,-85,-74,33,-107,20
,501,2023-10-20 13:46:59.07,107,-281,-2027,20,-18,-85,-185,-12,-173,98
,502,2023-10-20 13:46:59.08,121,-282,-2052,24,-10,-84,-81,-3,-78,42
,503,2023-10-20 13:46:59.09,107,-271,-2047,20,8,-84,-184,-29,-155,106
,504,2023-10-20 13:46:59.10,113,-283,-2055,6,15,-82,-84,11,-95,36
,505,2023-10-20 13:46:59.11,87,-282,-2044,-2,19,-78,-183,-15,-168,99
,506,2023-10-20 13:46:59.12,102,-286,-2032,-6,17,-77,-84,-11,-73,47
,507,2023-10-20 13:46:59.13,110,-290,-2020,-11,12,-81,-172,-24,-148,98
,508,2023-10-20 13:46:59.14,111,-283,-2023,-12,7,-96,-83,-2,-81,42
,509,2023-10-20 13:46:59.15,126,-279,-2004,-21,9,-109,-166,7,-173,79
,510,2023-10-20 13:46:59.16,124,-279,-2003,-29,21,-116,-91,32,-123,29
,511,2023-10-20 13:46:59.17,126,-300,-1984,-37,37,-123,-168,18,-186,75
,512,2023-10-20 13:46:59.18,134,-308,-2011,-43,46,-126,-96,14,-110,41
,513,2023-10-20 13:46:59.19,110,-328,-2035,-61,56,-112,-167,-1,-166,84
,514,2023-10-20 13:46:59.20,112,-327,-2025,-71,63,-101,-102,-15,-87,58
,515,2023-10-20 13:46:59.21,102,-334,-2040,-83,63,-80,-161,-16,-145,88
,516,2023-10-20 13:46:59.22,100,-327,-2043,-100,63,-58,-98,-27,-71,62
,517,2023-10-20 13:46:59.23,80,-329,-2056,-107,64,-45,-150,-1,-149,75
,518,2023-10-20 13:46:59.24,94,-310,-2059,-86,53,-40,-104,-6,-98,55
,519,2023-10-20 13:46:59.25,100,-265,-2034,-50,41,-65,-147,15,-162,66
,520,2023-10-20 13:46:59.26,111,-247,-2037,-34,33,-89,-101,-1,-100,51
,521,2023-10-20 13:46:59.27,136,-241,-2021,-67,31,-98,-146,10,-156,68
,522,2023-10-20 13:46:59.28,145,-272,-2010,-119,40,-112,-106,-10,-96,58
,523,2023-10-20 13:46:59.29,139,-326,-2040,-165,57,-85,-135,15,-150,60
,524,2023-10-20 13:46:59.30,142,-382,-2052,-196,79,-25,-112,-9,-103,60
,525,2023-10-20 13:46:59.31,136,-393,-2059,-186,101,45,-138,23,-161,57
,526,2023-10-20 13:46:59.32,149,-337,-2065,-141,106,103,-119,-22,-97,70
,527,2023-10-20 13:46:59.33,144,-282,-2058,-104,99,143,-131,20,-151,55
,528,2023-10-20 13:46:59.34,136,-260,-2044,-90,86,168,-116,-13,-103,64
,529,2023-10-20 13:46:59.35,132,-230,-2031,-100,79,185,-123,29,-152,47
,530,2023-10-20 13:46:59.36,141,-190,-2027,-104,73,189,-114,-10,-104,62
,531,2023-10-20 13:46:59.37,132,-195,-2023,-100,54,184,-123,29,-152,47
,532,2023-10-20 13:46:59.38,138,-220,-2023,-114,56,181,-131,-29,-102,80
,533,2023-10-20 13:46:59.39,132,-244,-2042,-131,66,197,-123,-3,-120,63
,534,2023-10-20 13:46:59.40,136,-245,-2032,-119,73,212,-140,-69,-71,104
,535,2023-10-20 13:46:59.41,133,-262,-2038,-102,77,223,-124,-22,-102,73
,536,2023-10-20 13:46:59.42,139,-267,-2040,-98,92,241,-138,-65,-73,101
,537,2023-10-20 13:46:59.43,141,-254,-2038,-88,107,257,-114,20,-134,47
,538,2023-10-20 13:46:59.44,136,-236,-2040,-72,119,273,-132,-15,-117,73
,539,2023-10-20 13:46:59.45,164,-226,-2036,-58,122,279,-110,33,-143,38
,540,2023-10-20 13:46:59.46,150,-216,-2041,-41,121,281,-143,-45,-98,94
,541,2023-10-20 13:46:59.47,161,-199,-2050,-18,109,267,-108,-24,-84,66
,542,2023-10-20 13:46:59.48,159,-188,-2054,-4,94,253,-149,-107,-42,128
,543,2023-10-20 13:46:59.49,155,-174,-2068,22,89,221,-100,-3,-97,51
,544,2023-10-20 13:46:59.50,149,-155,-2062,43,76,188,-150,-39,-111,94
,545,2023-10-20 13:46:59.51,164,-154,-2052,66,54,147,-102,48,-150,27
,546,2023-10-20 13:46:59.52,163,-177,-2043,82,33,108,-147,-12,-135,79
,547,2023-10-20 13:46:59.53,152,-199,-2053,94,18,82,-91,70,-161,10
,548,2023-10-20 13:46:59.54,153,-205,-2042,103,9,59,-149,1,-150,74
,549,2023-10-20 13:46:59.55,149,-219,-2044,104,1,51,-80,72,-152,4
,550,2023-10-20 13:46:59.56,148,-241,-2057,105,-7,48,-147,-16,-131,81
,551,2023-10-20 13:46:59.57,164,-236,-2039,101,-12,49,-80,54,-134,13
,552,2023-10-20 13:46:59.58,174,-236,-2040,99,-20,49,-161,-29,-132,95
,553,2023-10-20 13:46:59.59,177,-228,-2039,91,-16,40,-82,42,-124,20
,554,2023-10-20 13:46:59.60,174,-220,-2033,73,-8,37,-164,-46,-118,105
,555,2023-10-20 13:46:59.61,166,-227,-2038,57,1,37,-86,-36,-50,61
,556,2023-10-20 13:46:59.62,169,-226,-2045,44,1,34,-177,-135,-42,156
,557,2023-10-20 13:46:59.63,169,-227,-2046,31,1,30,-86,2,-88,42
,558,2023-10-20 13:46:59.64,167,-238,-2046,29,-1,24,-176,-40,-136,108
,559,2023-10-20 13:46:59.65,183,-253,-2044,25,-5,20,-74,77,-151,-1
,560,2023-10-20 13:46:59.66,173,-249,-2053,19,-2,25,-178,-15,-163,96
,561,2023-10-20 13:46:59.67,172,-246,-2063,19,1,24,-73,54,-127,9
,562,2023-10-20 13:46:59.68,181,-235,-2069,20,-3,21,-185,-59,-126,122
,563,2023-10-20 13:46:59.69,177,-240,-2058,17,-6,20,-78,36,-114,21
,564,2023-10-20 13:46:59.70,169,-231,-2046,12,-7,18,-186,-52,-134,119
,565,2023-10-20 13:46:59.71,179,-242,-2040,10,-8,20,-69,16,-85,26
,566,2023-10-20 13:46:59.72,165,-253,-2040,17,0,22,-190,-91,-99,140
,567,2023-10-20 13:46:59.73,166,-226,-2029,29,4,22,-66,20,-86,23
,568,2023-10-20 13:46:59.74,179,-224,-2025,48,3,18,-192,-59,-133,125
,569,2023-10-20 13:46:59.75,176,-221,-2028,65,3,16,-67,45,-112,11
,570,2023-10-20 13:46:59.76,165,-222,-2031,78,-1,9,-203,-64,-139,133
,571,2023-10-20 13:46:59.77,176,-232,-2036,81,-7,3,-62,52,-114,5
,572,2023-10-20 13:46:59.78,157,-231,-2047,87,-15,-3,-196,-52,-144,124
,573,2023-10-20 13:46:59.79,174,-235,-2051,95,-26,-7,-53,54,-107,0
,574,2023-10-20 13:46:59.80,170,-256,-2037,100,-37,-6,-202,-47,-155,124
,575,2023-10-20 13:46:59.81,175,-253,-2033,100,-36,-5,-56,94,-150,-19
,576,2023-10-20 13:46:59.82,166,-254,-2044,96,-31,1,-196,3,-199,96
,577,2023-10-20 13:46:59.83,168,-267,-2047,98,-33,6,-54,97,-151,-21
,578,2023-10-20 13:46:59.84,162,-265,-2033,99,-32,11,-205,-34,-171,119
,579,2023-10-20 13:46:59.85,155,-268,-2044,99,-33,16,-56,80,-136,-12
,580,2023-10-20 13:46:59.86,151,-268,-2042,97,-37,23,-214,-32,-182,123
,581,2023-10-20 13:46:59.87,132,-280,-2045,99,-47,33,-59,47,-106,6
,582,2023-10-20 13:46:59.88,133,-272,-2052,99,-51,46,-219,-85,-134,152
,583,2023-10-20 13:46:59.89,132,-269,-2039,96,-64,55,-60,8,-68,26
,584,2023-10-20 13:46:59.90,130,-268,-2048,84,-65,60,-219,-93,-126,156
,585,2023-10-20 13:46:59.91,119,-268,-2035,72,-62,62,-49,52,-101,-1
,586,2023-10-20 13:46:59.92,132,-271,-2029,63,-59,69,-215,-45,-170,130
,587,2023-10-20 13:46:59.93,117,-279,-2026,56,-49,73,-53,89,-142,-18
,588,2023-10-20 13:46:59.94,114,-272,-2027,50,-42,81,-223,-25,-198,124
,589,2023-10-20 13:46:59.95,114,-280,-2012,30,-12,82,-55,70,-125,-7
,590,2023-10-20 13:46:59.96,106,-288,-2001,33,11,74,-224,-54,-170,139
,591,2023-10-20 13:46:59.97,125,-265,-2050,50,-8,71,-53,57,-110,-2
,592,2023-10-20 13:46:59.98,131,-231,-2050,56,-2,67,-227,-60,-167,143
,593,2023-10-20 13:46:59.99,138,-239,-2079,45,2,62,-55,12,-67,21
,594,2023-10-20 13:47:00.00,134,-264,-2001,17,30,54,-231,-104,-127,167
,595,2023-10-20 13:47:00.01,106,-281,-2011,17,43,44,-54,9,-63,22
,596,2023-10-20 13:47:00.02,127,-264,-2061,17,27,41,-235,-85,-150,160
,597,2023-10-20 13:47:00.03,141,-247,-2026,19,20,38,-51,57,-108,-3
,598,2023-10-20 13:47:00.04,125,-260,-2022,19,21,36,-227,-41,-186,134
,599,2023-10-20 13:47:00.05,129,-268,-2026,10,27,31,-52,86,-138,-17
,600,2023-10-20 13:47:00.06,145,-268,-2031,4,30,30,-229,-35,-194,132
,601,2023-10-20 13:47:00.07,135,-263,-2038,7,28,36,-47,80,-127,-16
,602,2023-10-20 13:47:00.08,135,-257,-2039,8,22,31,-231,-45,-186,138
,603,2023-10-20 13:47:00.09,126,-242,-2044,14,19,19,-55,6,-61,24
,604,2023-10-20 13:47:00.10,129,-206,-2046,32,12,-14,-241,-110,-131,175
,605,2023-10-20 13:47:00.11,128,-215,-2052,32,-2,-40,-57,-22,-35,39
,606,2023-10-20 13:47:00.12,144,-231,-2049,13,-7,-64,-239,-103,-136,171
,607,2023-10-20 13:47:00.13,146,-243,-2035,3,-9,-88,-54,48,-102,3
,608,2023-10-20 13:47:00.14,153,-283,-2027,-1,-5,-95,-237,-46,-191,141
,609,2023-10-20 13:47:00.15,154,-322,-2037,-2,17,-79,-47,65,-112,-9
,610,2023-10-20 13:47:00.16,147,-304,-2039,16,36,-62,-228,-48,-180,138
,611,2023-10-20 13:47:00.17,152,-294,-2040,35,41,-51,-53,43,-96,5
,612,2023-10-20 13:47:00.18,144,-280,-2044,45,36,-43,-227,-46,-181,136
,613,2023-10-20 13:47:00.19,167,-260,-2037,51,32,-45,-54,64,-118,-5
,614,2023-10-20 13:47:00.20,150,-265,-2032,55,34,-50,-232,-44,-188,138
,615,2023-10-20 13:47:00.21,165,-251,-2023,59,42,-58,-61,49,-110,6
,616,2023-10-20 13:47:00.22,177,-257,-2023,56,38,-62,-239,-58,-181,148
,617,2023-10-20 13:47:00.23,173,-258,-2029,60,33,-75,-60,52,-112,4
,618,2023-10-20 13:47:00.24,181,-248,-2027,66,29,-104,-237,-45,-192,141
,619,2023-10-20 13:47:00.25,185,-264,-2024,63,40,-119,-54,50,-104,2
,620,2023-10-20 13:47:00.26,188,-264,-2039,61,58,-131,-231,-48,-183,139
,621,2023-10-20 13:47:00.27,168,-247,-2057,61,60,-147,-64,32,-96,16
,622,2023-10-20 13:47:00.28,174,-257,-2067,61,45,-166,-231,-59,-172,145
,623,2023-10-20 13:47:00.29,174,-282,-2062,55,25,-178,-61,50,-111,5
,624,2023-10-20 13:47:00.30,166,-295,-2059,48,15,-180,-232,-35,-197,133
,625,2023-10-20 13:47:00.31,154,-308,-2055,51,3,-179,-58,57,-115,0
,626,2023-10-20 13:47:00.32,152,-305,-2047,71,-7,-181,-224,-40,-184,132
,627,2023-10-20 13:47:00.33,157,-308,-2025,90,-17,-174,-57,26,-83,15
,628,2023-10-20 13:47:00.34,149,-305,-2020,105,-21,-174,-222,-62,-160,142
,629,2023-10-20 13:47:00.35,146,-301,-2012,114,-21,-176,-58,1,-59,28
,630,2023-10-20 13:47:00.36,140,-313,-2018,121,-19,-176,-217,-64,-153,140
,631,2023-10-20 13:47:00.37,148,-305,-2018,124,-19,-182,-64,0,-64,32
,632,2023-10-20 13:47:00.38,158,-293,-2013,118,-22,-186,-223,-62,-161,142
,633,2023-10-20 13:47:00.39,155,-316,-2009,111,-27,-192,-68,20,-88,24
,634,2023-10-20 13:47:00.40,178,-328,-2013,103,-26,-199,-222,-42,-180,132
,635,2023-10-20 13:47:00.41,184,-330,-2010,97,-16,-204,-75,38,-113,18
,636,2023-10-20 13:47:00.42,161,-349,-2007,86,-1,-190,-222,-35,-187,128
,637,2023-10-20 13:47:00.43,170,-349,-2031,70,10,-176,-73,-2,-71,37
,638,2023-10-20 13:47:00.44,173,-345,-2032,57,4,-158,-209,-57,-152,133
,639,2023-10-20 13:47:00.45,184,-338,-2036,42,-5,-149,-67,-5,-62,36
,640,2023-10-20 13:47:00.46,181,-325,-2040,26,-13,-141,-208,-49,-159,128
,641,2023-10-20 13:47:00.47,177,-320,-2050,10,-13,-130,-79,-12,-67,45
,642,2023-10-20 13:47:00.48,178,-309,-2053,-9,-14,-116,-210,-59,-151,134
,643,2023-10-20 13:47:00.49,186,-300,-2058,-20,-27,-113,-74,11,-85,31
,644,2023-10-20 13:47:00.50,188,-293,-2048,-37,-39,-116,-198,-21,-177,109
,645,2023-10-20 13:47:00.51,185,-286,-2053,-46,-47,-120,-79,22,-101,28
,646,2023-10-20 13:47:00.52,190,-281,-2048,-64,-49,-118,-192,-13,-179,102
,647,2023-10-20 13:47:00.53,177,-292,-2029,-69,-51,-120,-80,12,-92,34
,648,2023-10-20 13:47:00.54,171,-291,-2042,-66,-51,-124,-192,-27,-165,109
,649,2023-10-20 13:47:00.55,170,-300,-2044,-61,-51,-121,-82,12,-94,35
,650,2023-10-20 13:47:00.56,162,-281,-2051,-51,-57,-117,-183,-14,-169,98
,651,2023-10-20 13:47:00.57,148,-279,-2043,-40,-67,-116,-77,-3,-74,40
,652,2023-10-20 13:47:00.58,165,-273,-2047,-36,-72,-114,-174,-16,-158,95
,653,2023-10-20 13:47:00.59,166,-258,-2044,-33,-68,-113,-78,22,-100,28
,654,2023-10-20 13:47:00.60,149,-253,-2044,-36,-56,-113,-172,-10,-162,91
,655,2023-10-20 13:47:00.61,152,-258,-2043,-37,-42,-104,-79,-15,-64,47
,656,2023-10-20 13:47:00.62,151,-262,-2037,-30,-31,-98,-172,-37,-135,104
,657,2023-10-20 13:47:00.63,155,-269,-2030,-18,-28,-93,-86,-32,-54,59
,658,2023-10-20 13:47:00.64,160,-259,-2034,-4,-27,-91,-162,-23,-139,92
,659,2023-10-20 13:47:00.65,162,-262,-2021,9,-25,-90,-88,-5,-83,46
,660,2023-10-20 13:47:00.66,152,-269,-2022,26,-22,-87,-160,3,-163,78
,661,2023-10-20 13:47:00.67,150,-271,-2039,41,-18,-84,-93,11,-104,41
,662,2023-10-20 13:47:00.68,145,-274,-2045,50,-16,-77,-158,3,-161,77
,663,2023-10-20 13:47:00.69,154,-262,-2050,58,-20,-75,-89,-5,-84,47
,664,2023-10-20 13:47:00.70,144,-269,-2059,66,-27,-68,-149,5,-154,72
,665,2023-10-20 13:47:00.71,144,-253,-2052,68,-28,-65,-97,-7,-90,52
,666,2023-10-20 13:47:00.72,139,-266,-2037,74,-26,-68,-146,-4,-142,75
,667,2023-10-20 13:47:00.73,138,-278,-2033,75,-26,-71,-97,-21,-76,59
,668,2023-10-20 13:47:00.74,124,-277,-2029,81,-27,-74,-140,2,-142,69
,669,2023-10-20 13:47:00.75,129,-274,-2041,91,-27,-70,-100,-9,-91,54
,670,2023-10-20 13:47:00.76,127,-283,-2032,98,-28,-74,-140,6,-146,67
,671,2023-10-20 13:47:00.77,147,-289,-2011,100,-25,-82,-108,-24,-84,66
,672,2023-10-20 13:47:00.78,155,-290,-1996,98,-12,-93,-130,-10,-120,70
,673,2023-10-20 13:47:00.79,157,-299,-1988,96,4,-97,-104,-60,-44,82
,674,2023-10-20 13:47:00.80,164,-303,-2003,96,12,-102,-125,-30,-95,77
,675,2023-10-20 13:47:00.81,172,-327,-2020,98,19,-100,-111,-56,-55,83
,676,2023-10-20 13:47:00.82,174,-324,-2016,93,21,-98,-124,-3,-121,63
,677,2023-10-20 13:47:00.83,192,-325,-2021,90,20,-100,-110,-39,-71,74
,678,2023-10-20 13:47:00.84,200,-334,-2034,87,24,-96,-120,20,-140,50
,679,2023-10-20 13:47:00.85,181,-331,-2048,80,27,-89,-120,-12,-108,66
,680,2023-10-20 13:47:00.86,182,-320,-2067,77,25,-88,-116,22,-138,47
,681,2023-10-20 13:47:00.87,172,-312,-2062,66,8,-93,-120,-36,-84,78
,682,2023-10-20 13:47:00.88,163,-318,-2060,58,-12,-101,-115,2,-117,56
,683,2023-10-20 13:47:00.89,176,-314,-2045,65,-32,-115,-122,-45,-77,83
,684,2023-10-20 13:47:00.90,153,-316,-2033,69,-45,-128,-115,8,-123,53
,685,2023-10-20 13:47:00.91,178,-342,-2022,66,-48,-125,-128,-46,-82,87
,686,2023-10-20 13:47:00.92,164,-349,-2026,56,-42,-116,-105,23,-128,41
,687,2023-10-20 13:47:00.93,165,-362,-2031,43,-36,-94,-130,-25,-105,77
,688,2023-10-20 13:47:00.94,163,-386,-2023,23,-29,-57,-104,28,-132,38
,689,2023-10-20 13:47:00.95,147,-388,-2021,12,-19,-23,-134,-39,-95,86
,690,2023-10-20 13:47:00.96,159,-372,-2015,10,-20,5,-100,-2,-98,51
,691,2023-10-20 13:47:00.97,156,-365,-2016,4,-12,35,-137,-69,-68,103
,692,2023-10-20 13:47:00.98,160,-355,-2013,-4,-3,58,-90,30,-120,30
,693,2023-10-20 13:47:00.99,149,-329,-2011,-8,3,71,-142,-14,-128,78
,694,2023-10-20 13:47:01.00,148,-325,-2013,-12,13,76,-86,50,-136,18
,695,2023-10-20 13:47:01.01,159,-312,-2033,-22,25,88,-142,-41,-101,91
,696,2023-10-20 13:47:01.02,154,-299,-2040,-30,24,95,-85,17,-102,34
,697,2023-10-20 13:47:01.03,152,-294,-2044,-34,16,92,-154,-64,-90,109
,698,2023-10-20 13:47:01.04,160,-287,-2038,-34,7,86,-86,15,-101,35
,699,2023-10-20 13:47:01.05,175,-277,-2038,-27,7,72,-157,-64,-93,110
,700,2023-10-20 13:47:01.06,173,-269,-2033,-18,8,59,-79,25,-104,27
,701,2023-10-20 13:47:01.07,163,-265,-2044,-8,8,43,-152,-50,-102,101
,702,2023-10-20 13:47:01.08,158,-286,-2056,-3,0,32,-69,21,-90,24
,703,2023-10-20 13:47:01.09,165,-283,-2043,3,-8,19,-160,-72,-88,116
,704,2023-10-20 13:47:01.10,173,-289,-2032,6,-14,10,-70,16,-86,27
,705,2023-10-20 13:47:01.11,178,-295,-2031,-3,-5,12,-152,-62,-90,107
,706,2023-10-20 13:47:01.12,174,-296,-2011,-8,2,13,-64,35,-99,14
,707,2023-10-20 13:47:01.13,161,-303,-2023,-4,6,15,-165,-58,-107,111
,708,2023-10-20 13:47:01.14,164,-317,-2036,-5,12,22,-70,52,-122,9
,709,2023-10-20 13:47:01.15,161,-314,-2055,-4,14,39,-176,-31,-145,103
,710,2023-10-20 13:47:01.16,150,-313,-2060,-4,9,51,-66,32,-98,17
,711,2023-10-20 13:47:01.17,145,-310,-2071,-6,6,60,-176,-85,-91,130
,712,2023-10-20 13:47:01.18,140,-298,-2056,-14,4,62,-64,11,-75,26
,713,2023-10-20 13:47:01.19,150,-301,-2026,-10,-1,65,-180,-68,-112,124
,714,2023-10-20 13:47:01.20,145,-308,-2018,-9,10,71,-62,53,-115,4
,715,2023-10-20 13:47:01.21,136,-296,-2000,-1,22,74,-177,-43,-134,110
,716,2023-10-20 13:47:01.22,143,-269,-2034,4,12,69,-50,35,-85,7
,717,2023-10-20 13:47:01.23,150,-259,-2028,1,6,53,-180,-82,-98,131
,718,2023-10-20 13:47:01.24,160,-258,-2039,-7,-1,40,-52,17,-69,17
,719,2023-10-20 13:47:01.25,162,-255,-2030,-22,3,26,-190,-67,-123,128
,720,2023-10-20 13:47:01.26,152,-251,-2026,-25,8,-1,-54,49,-103,2
,721,2023-10-20 13:47:01.27,155,-265,-2031,-33,14,-23,-188,-49,-139,118
,722,2023-10-20 13:47:01.28,151,-270,-2038,-40,15,-43,-47,40,-87,3
,723,2023-10-20 13:47:01.29,149,-289,-2047,-39,12,-48,-188,-81,-107,134
,724,2023-10-20 13:47:01.30,137,-301,-2048,-31,8,-43,-46,49,-95,-1
,725,2023-10-20 13:47:01.31,148,-302,-2045,-12,5,-36,-196,-50,-146,123
,726,2023-10-20 13:47:01.32,147,-288,-2034,10,-4,-35,-38,78,-116,-20
,727,2023-10-20 13:47:01.33,159,-284,-2040,22,-6,-29,-194,-38,-156,116
,728,2023-10-20 13:47:01.34,160,-280,-2030,24,0,-31,-34,27,-61,3
,729,2023-10-20 13:47:01.35,156,-297,-2037,23,10,-29,-195,-99,-96,147
,730,2023-10-20 13:47:01.36,156,-301,-2047,23,24,-8,-36,45,-81,-4
,731,2023-10-20 13:47:01.37,165,-292,-2033,34,36,3,-196,-42,-154,119
,732,2023-10-20 13:47:01.38,155,-290,-2014,44,34,8,-33,78,-111,-22
,733,2023-10-20 13:47:01.39,166,-292,-2016,49,33,12,-193,-43,-150,118
,734,2023-10-20 13:47:01.40,172,-294,-2003,47,39,10,-38,52,-90,-7
,735,2023-10-20 13:47:01.41,166,-318,-2027,44,41,13,-214,-75,-139,144
,736,2023-10-20 13:47:01.42,164,-314,-2027,47,38,15,-50,-12,-38,31
,737,2023-10-20 13:47:01.43,167,-317,-2031,54,28,19,-219,-125,-94,172
,738,2023-10-20 13:47:01.44,163,-309,-2029,49,18,23,-39,9,-48,15
,739,2023-10-20 13:47:01.45,170,-333,-2029,35,15,33,-210,-72,-138,141
,740,2023-10-20 13:47:01.46,150,-322,-2053,25,19,46,-29,91,-120,-31
,741,2023-10-20 13:47:01.47,152,-326,-2054,14,15,57,-199,-19,-180,109
,742,2023-10-20 13:47:01.48,165,-334,-2061,0,0,67,-34,40,-74,-3
,743,2023-10-20 13:47:01.49,153,-328,-2048,-18,-10,82,-220,-97,-123,158
,744,2023-10-20 13:47:01.50,153,-316,-2026,-25,-10,87,-45,-14,-31,29
,745,2023-10-20 13:47:01.51,160,-322,-2036,-25,-9,94,-222,-103,-119,162
,746,2023-10-20 13:47:01.52,158,-304,-2048,-30,-2,104,-39,20,-59,9
,747,2023-10-20 13:47:01.53,149,-296,-2051,-33,0,108,-223,-83,-140,153
,748,2023-10-20 13:47:01.54,145,-271,-2045,-38,1,102,-39,62,-101,-11
,749,2023-10-20 13:47:01.55,143,-264,-2037,-33,-4,85,-221,-39,-182,130
,750,2023-10-20 13:47:01.56,161,-271,-2042,-30,-8,75,-38,74,-112,-18
,751,2023-10-20 13:47:01.57,153,-270,-2042,-30,-6,65,-217,-45,-172,131
,752,2023-10-20 13:47:01.58,148,-264,-2035,-27,-6,56,-46,22,-68,12
,753,2023-10-20 13:47:01.59,164,-273,-2026,-25,1,48,-235,-93,-142,164
,754,2023-10-20 13:47:01.60,156,-274,-2026,-16,9,40,-54,74,-128,-10
,755,2023-10-20 13:47:01.61,161,-264,-2031,-12,10,31,-230,-21,-209,125
,756,2023-10-20 13:47:01.62,164,-275,-2026,-7,12,21,-40,23,-63,8
,757,2023-10-20 13:47:01.63,165,-294,-2009,0,8,11,-224,-105,-119,164
,758,2023-10-20 13:47:01.64,159,-291,-2039,18,-9,9,-40,6,-46,17
,759,2023-10-20 13:47:01.65,166,-280,-2042,23,-14,16,-225,-70,-155,147
,760,2023-10-20 13:47:01.66,166,-278,-2038,17,-3,17,-45,81,-126,-18
,761,2023-10-20 13:47:01.67,168,-301,-2024,11,-10,19,-224,-27,-197,125
,762,2023-10-20 13:47:01.68,161,-299,-2050,5,-12,11,-46,50,-96,-2
,763,2023-10-20 13:47:01.69,168,-298,-2054,-5,-17,17,-230,-70,-160,150
,764,2023-10-20 13:47:01.70,174,-295,-2048,-15,-17,20,-50,24,-74,13
,765,2023-10-20 13:47:01.71,156,-297,-2031,-19,-12,19,-232,-63,-169,147
,766,2023-10-20 13:47:01.72,154,-290,-2028,-26,-7,23,-52,66,-118,-7
,767,2023-10-20 13:47:01.73,148,-290,-2035,-26,-5,22,-220,-35,-185,127
,768,2023-10-20 13:47:01.74,151,-279,-2038,-24,-11,17,-43,26,-69,8
,769,2023-10-20 13:47:01.75,144,-269,-2031,-22,-17,13,-215,-71,-144,143
,770,2023-10-20 13:47:01.76,150,-270,-2037,-25,-13,8,-42,23,-65,9
,771,2023-10-20 13:47:01.77,154,-285,-2035,-30,-6,3,-214,-54,-160,134
,772,2023-10-20 13:47:01.78,153,-285,-2030,-23,6,3,-46,66,-112,-10
,773,2023-10-20 13:47:01.79,139,-269,-2038,-15,9,0,-219,-33,-186,126
,774,2023-10-20 13:47:01.80,139,-260,-2025,-8,10,-7,-48,21,-69,13
,775,2023-10-20 13:47:01.81,126,-266,-2034,-1,17,-17,-226,-74,-152,150
,776,2023-10-20 13:47:01.82,132,-259,-2037,18,11,-39,-53,41,-94,6
,777,2023-10-20 13:47:01.83,145,-268,-2040,30,7,-58,-216,-33,-183,124
,778,2023-10-20 13:47:01.84,143,-277,-2024,24,8,-68,-49,18,-67,15
,779,2023-10-20 13:47:01.85,137,-271,-2031,27,5,-75,-215,-75,-140,145
,780,2023-10-20 13:47:01.86,149,-278,-2017,29,3,-90,-56,7,-63,24
,781,2023-10-20 13:47:01.87,147,-316,-2005,25,5,-98,-213,-64,-149,138
,782,2023-10-20 13:47:01.88,148,-338,-2018,24,18,-85,-52,-11,-41,31
,783,2023-10-20 13:47:01.89,162,-336,-2029,30,22,-58,-208,-68,-140,138
,784,2023-10-20 13:47:01.90,143,-331,-2035,35,20,-29,-59,3,-62,28
,785,2023-10-20 13:47:01.91,135,-340,-2046,36,22,-3,-208,-50,-158,129
,786,2023-10-20 13:47:01.92,145,-317,-2022,40,14,8,-60,12,-72,24
,787,2023-10-20 13:47:01.93,145,-311,-2019,39,18,18,-204,-53,-151,128
,788,2023-10-20 13:47:01.94,140,-315,-2024,32,31,30,-65,-9,-56,37
,789,2023-10-20 13:47:01.95,138,-302,-2024,27,46,34,-209,-60,-149,134
,790,2023-10-20 13:47:01.96,131,-320,-2047,14,64,42,-68,2,-70,33
,791,2023-10-20 13:47:01.97,137,-316,-2042,1,75,46,-203,-39,-164,121
,792,2023-10-20 13:47:01.98,139,-300,-2031,7,82,39,-72,10,-82,31
,793,2023-10-20 13:47:01.99,146,-298,-2019,16,92,29,-198,-32,-166,115
,794,2023-10-20 13:47:02.00,146,-306,-2002,19,101,23,-76,2,-78,37
,795,2023-10-20 13:47:02.01,151,-297,-2018,22,114,17,-195,-37,-158,116
,796,2023-10-20 13:47:02.02,143,-295,-2040,23,120,19,-79,-6,-73,42
,797,2023-10-20 13:47:02.03,148,-315,-2046,14,127,21,-190,-40,-150,115
,798,2023-10-20 13:47:02.04,144,-300,-2043,20,127,22,-74,-18,-56,46
,799,2023-10-20 13:47:02.05,166,-294,-2040,26,117,21,-186,-54,-132,120
,800,2023-10-20 13:47:02.06,158,-289,-2038,24,121,18,-76,-38,-38,57
,801,2023-10-20 13:47:02.07,157,-282,-2037,13,117,15,-180,-42,-138,111
,802,2023-10-20 13:47:02.08,155,-292,-2036,9,123,6,-81,-9,-72,45
,803,2023-10-20 13:47:02.09,153,-310,-2062,19,107,2,-175,-9,-166,92
,804,2023-10-20 13:47:02.10,159,-292,-2048,24,95,-6,-80,16,-96,32
,805,2023-10-20 13:47:02.11,178,-274,-2037,28,91,-10,-168,-3,-165,85
,806,2023-10-20 13:47:02.12,162,-284,-2034,37,82,-21,-82,9,-91,36
,807,2023-10-20 13:47:02.13,165,-259,-2039,27,82,-33,-169,-12,-157,90
,808,2023-10-20 13:47:02.14,165,-271,-2033,17,88,-37,-80,-16,-64,48
,809,2023-10-20 13:47:02.15,167,-286,-2013,17,89,-51,-156,-18,-138,87
,810,2023-10-20 13:47:02.16,166,-302,-2002,24,90,-57,-90,0,-90,45
,811,2023-10-20 13:47:02.17,185,-295,-2023,35,101,-57,-158,-8,-150,83
,812,2023-10-20 13:47:02.18,195,-277,-2040,28,116,-49,-90,-24,-66,57
,813,2023-10-20 13:47:02.19,200,-290,-2020,20,129,-51,-150,-24,-126,87
,814,2023-10-20 13:47:02.20,204,-290,-2012,22,137,-53,-95,-31,-64,63
,815,2023-10-20 13:47:02.21,214,-312,-2012,29,133,-48,-146,4,-150,71
,816,2023-10-20 13:47:02.22,206,-287,-2028,37,128,-46,-101,-7,-94,54
,817,2023-10-20 13:47:02.23,222,-284,-2047,30,125,-44,-140,17,-157,61
,818,2023-10-20 13:47:02.24,207,-281,-2048,22,117,-49,-98,-7,-91,52
,819,2023-10-20 13:47:02.25,222,-282,-2053,17,105,-48,-135,2,-137,66
,820,2023-10-20 13:47:02.26,220,-272,-2036,16,94,-54,-98,-34,-64,66
,821,2023-10-20 13:47:02.27,226,-279,-2036,13,88,-66,-129,18,-147,55
,822,2023-10-20 13:47:02.28,230,-296,-2049,23,79,-71,-103,14,-117,44
,823,2023-10-20 13:47:02.29,241,-294,-2044,29,76,-80,-130,37,-167,46
,824,2023-10-20 13:47:02.30,238,-308,-2051,27,76,-75,-114,-7,-107,60
,825,2023-10-20 13:47:02.31,235,-298,-2026,36,67,-73,-128,29,-157,49
,826,2023-10-20 13:47:02.32,243,-292,-2018,45,58,-75,-114,-3,-111,58
,827,2023-10-20 13:47:02.33,235,-300,-2016,50,47,-68,-117,0,-117,58
,828,2023-10-20 13:47:02.34,243,-302,-2038,51,48,-66,-113,-76,-37,94
,829,2023-10-20 13:47:02.35,240,-298,-2023,50,44,-61,-116,-9,-107,62
,830,2023-10-20 13:47:02.36,241,-309,-2038,49,40,-60,-117,-22,-95,69
,831,2023-10-20 13:47:02.37,256,-308,-2032,50,35,-55,-112,54,-166,29
,832,2023-10-20 13:47:02.38,247,-298,-2040,47,36,-50,-116,20,-136,48
,833,2023-10-20 13:47:02.39,241,-300,-2040,42,37,-43,-102,76,-178,13
,834,2023-10-20 13:47:02.40,249,-293,-2037,34,30,-36,-111,32,-143,39
,835,2023-10-20 13:47:02.41,247,-296,-2020,31,25,-31,-92,74,-166,9
,836,2023-10-20 13:47:02.42,240,-295,-2027,30,13,-25,-118,4,-122,57
,837,2023-10-20 13:47:02.43,247,-298,-2030,26,11,-21,-89,38,-127,25
,838,2023-10-20 13:47:02.44,240,-292,-2034,29,4,-19,-127,-37,-90,82
,839,2023-10-20 13:47:02.45,241,-289,-2036,33,-5,-22,-92,32,-124,30
,840,2023-10-20 13:47:02.46,247,-287,-2034,31,-17,-24,-137,-35,-102,86
,841,2023-10-20 13:47:02.47,236,-286,-2039,26,-26,-19,-90,31,-121,29
,842,2023-10-20 13:47:02.48,235,-285,-2039,14,-32,-19,-135,-48,-87,91
,843,2023-10-20 13:47:02.49,231,-291,-2042,12,-36,-23,-83,47,-130,18
,844,2023-10-20 13:47:02.50,251,-284,-2038,11,-44,-25,-128,-1,-127,64
,845,2023-10-20 13:47:02.51,232,-296,-2038,7,-36,-25,-66,86,-152,-10
,846,2023-10-20 13:47:02.52,237,-290,-2044,8,-36,-19,-135,4,-139,65
,847,2023-10-20 13:47:02.53,242,-295,-2033,13,-38,-13,-76,68,-144,4
,848,2023-10-20 13:47:02.54,232,-296,-2041,22,-31,-13,-158,-34,-124,96
,849,2023-10-20 13:47:02.55,210,-271,-2044,45,-25,-26,-76,17,-93,29
,850,2023-10-20 13:47:02.56,213,-214,-2018,87,-41,-62,-149,-74,-75,111
,851,2023-10-20 13:47:02.57,238,-248,-2025,99,-68,-91,-66,30,-96,18
,852,2023-10-20 13:47:02.58,234,-252,-2013,90,-88,-124,-150,-32,-118,91
,853,2023-10-20 13:47:02.59,232,-276,-1995,72,-90,-156,-63,84,-147,-10
,854,2023-10-20 13:47:02.60,243,-326,-2003,58,-75,-151,-158,-2,-156,80
,855,2023-10-20 13:47:02.61,215,-346,-2026,54,-46,-122,-66,65,-131,0
,856,2023-10-20 13:47:02.62,235,-343,-2044,51,-31,-78,-164,-49,-115,106
,857,2023-10-20 13:47:02.63,222,-327,-2051,51,-23,-55,-68,9,-77,29
,858,2023-10-20 13:47:02.64,216,-297,-2051,57,-31,-52,-167,-77,-90,122
,859,2023-10-20 13:47:02.65,232,-285,-2045,68,-41,-51,-62,43,-105,9
,860,2023-10-20 13:47:02.66,230,-276,-2071,43,-37,-49,-165,-34,-131,99
,861,2023-10-20 13:47:02.67,215,-339,-1930,27,-22,-63,-53,68,-121,-7
,862,2023-10-20 13:47:02.68,210,-314,-2039,65,-46,-81,-175,-31,-144,103
,863,2023-10-20 13:47:02.69,235,-289,-2035,71,-52,-67,-55,75,-130,-10
,864,2023-10-20 13:47:02.70,222,-317,-2034,72,-36,-72,-171,-22,-149,96
,865,2023-10-20 13:47:02.71,226,-286,-2031,68,-26,-71,-50,29,-79,10
,866,2023-10-20 13:47:02.72,219,-299,-2023,69,-27,-78,-184,-94,-90,139
,867,2023-10-20 13:47:02.73,228,-290,-2025,76,-27,-88,-56,16,-72,20
,868,2023-10-20 13:47:02.74,234,-301,-2004,82,-34,-96,-186,-65,-121,125
,869,2023-10-20 13:47:02.75,220,-268,-2076,78,-29,-108,-50,81,-131,-15
,870,2023-10-20 13:47:02.76,227,-295,-2002,26,3,-116,-182,-19,-163,100
,871,2023-10-20 13:47:02.77,233,-377,-1944,40,21,-135,-46,71,-117,-12
,872,2023-10-20 13:47:02.78,240,-330,-2020,80,-18,-135,-189,-48,-141,118
,873,2023-10-20 13:47:02.79,249,-314,-2020,88,-21,-126,-47,56,-103,-4
,874,2023-10-20 13:47:02.80,246,-302,-2008,90,-18,-138,-201,-57,-144,129
,875,2023-10-20 13:47:02.81,245,-311,-2032,83,-12,-150,-49,63,-112,-7
,876,2023-10-20 13:47:02.82,250,-319,-2043,78,-9,-154,-194,-43,-151,118
,877,2023-10-20 13:47:02.83,247,-281,-2072,64,-7,-155,-46,56,-102,-5
,878,2023-10-20 13:47:02.84,256,-331,-1982,44,-4,-164,-206,-62,-144,134
,879,2023-10-20 13:47:02.85,242,-359,-1991,75,-19,-189,-42,23,-65,9
,880,2023-10-20 13:47:02.86,262,-320,-2027,98,-45,-186,-202,-89,-113,145
,881,2023-10-20 13:47:02.87,264,-328,-2015,102,-36,-188,-40,54,-94,-7
,882,2023-10-20 13:47:02.88,236,-317,-2017,105,-30,-188,-205,-40,-165,122
,883,2023-10-20 13:47:02.89,249,-285,-2111,78,-15,-189,-37,81,-118,-22
,884,2023-10-20 13:47:02.90,259,-327,-2003,60,-6,-196,-204,-38,-166,121
,885,2023-10-20 13:47:02.91,234,-374,-1977,95,-23,-220,-36,57,-93,-10
,886,2023-10-20 13:47:02.92,245,-356,-2034,131,-49,-214,-203,-71,-132,137
,887,2023-10-20 13:47:02.93,245,-359,-2029,132,-49,-202,-40,46,-86,-3
,888,2023-10-20 13:47:02.94,225,-362,-2050,123,-49,-192,-212,-56,-156,134
,889,2023-10-20 13:47:02.95,236,-323,-2098,69,-25,-185,-55,30,-85,12
,890,2023-10-20 13:47:02.96,239,-401,-1959,53,-17,-192,-226,-84,-142,155
,891,2023-10-20 13:47:02.97,237,-395,-1990,76,-28,-198,-45,27,-72,9
,892,2023-10-20 13:47:02.98,222,-386,-2010,87,-36,-194,-214,-72,-142,143
,893,2023-10-20 13:47:02.99,233,-359,-2041,87,-37,-189,-40,33,-73,3
,894,2023-10-20 13:47:03.00,237,-354,-2033,67,-35,-181,-221,-77,-144,149
,895,2023-10-20 13:47:03.01,220,-363,-2031,47,-24,-183,-46,23,-69,11
,896,2023-10-20 13:47:03.02,224,-370,-2031,27,-14,-182,-223,-90,-133,156
,897,2023-10-20 13:47:03.03,224,-364,-2020,19,-6,-175,-50,11,-61,19
,898,2023-10-20 13:47:03.04,228,-361,-2021,12,0,-174,-231,-92,-139,161
,899,2023-10-20 13:47:03.05,230,-354,-2021,5,3,-173,-51,25,-76,13
,900,2023-10-20 13:47:03.06,226,-342,-2016,-2,6,-179,-234,-75,-159,154
,901,2023-10-20 13:47:03.07,243,-338,-2020,-5,2,-180,-51,34,-85,8
,902,2023-10-20 13:47:03.08,224,-319,-2018,-6,4,-190,-234,-88,-146,161
,903,2023-10-20 13:47:03.09,222,-317,-2004,-7,4,-201,-54,-46,-8,50
,904,2023-10-20 13:47:03.10,235,-322,-2025,-16,11,-211,-234,-141,-93,187
,905,2023-10-20 13:47:03.11,233,-313,-2033,-20,5,-217,-52,-8,-44,30
,906,2023-10-20 13:47:03.12,245,-313,-2018,-25,-1,-227,-235,-88,-147,161
,907,2023-10-20 13:47:03.13,239,-299,-2022,-35,-5,-237,-51,25,-76,13
,908,2023-10-20 13:47:03.14,246,-278,-2013,-45,-7,-253,-233,-80,-153,156
,909,2023-10-20 13:47:03.15,248,-276,-2023,-53,-8,-271,-64,-14,-50,39
,910,2023-10-20 13:47:03.16,239,-274,-2030,-60,-12,-292,-253,-130,-123,191
,911,2023-10-20 13:47:03.17,246,-267,-2032,-73,-13,-312,-73,-174,101,123
,912,2023-10-20 13:47:03.18,246,-302,-2028,-61,-28,-331,-248,-264,16,256
,913,2023-10-20 13:47:03.19,261,-290,-2047,-51,-46,-336,-73,-234,161,153
,914,2023-10-20 13:47:03.20,253,-312,-2016,-46,-55,-337,-252,-232,-20,242
,915,2023-10-20 13:47:03.21,261,-311,-1997,-36,-55,-343,-67,55,-122,6
,916,2023-10-20 13:47:03.22,257,-320,-2013,-25,-48,-344,-241,25,-266,108
,917,2023-10-20 13:47:03.23,268,-328,-2008,-16,-47,-342,-64,115,-179,-25
,918,2023-10-20 13:47:03.24,261,-322,-2017,-2,-45,-339,-236,-25,-211,130
,919,2023-10-20 13:47:03.25,254,-307,-2047,6,-45,-335,-59,40,-99,9
,920,2023-10-20 13:47:03.26,255,-330,-2007,7,-39,-330,-232,-58,-174,145
,921,2023-10-20 13:47:03.27,254,-340,-2020,25,-37,-319,-60,64,-124,-2
,922,2023-10-20 13:47:03.28,254,-325,-2018,42,-36,-307,-230,-24,-206,127
,923,2023-10-20 13:47:03.29,260,-348,-2021,33,-34,-294,-59,68,-127,-4
,924,2023-10-20 13:47:03.30,253,-352,-2035,19,-27,-267,-224,-30,-194,127
,925,2023-10-20 13:47:03.31,241,-304,-2050,27,-25,-261,-55,72,-127,-8
,926,2023-10-20 13:47:03.32,217,-290,-2063,43,-21,-264,-219,-25,-194,122
,927,2023-10-20 13:47:03.33,223,-260,-2022,74,-31,-303,-51,52,-103,0
,928,2023-10-20 13:47:03.34,213,-307,-1971,93,-45,-328,-218,-31,-187,124
,929,2023-10-20 13:47:03.35,225,-320,-1973,109,-75,-332,-54,82,-136,-14
,930,2023-10-20 13:47:03.36,228,-296,-1967,121,-103,-336,-222,-9,-213,115
,931,2023-10-20 13:47:03.37,203,-373,-2013,118,-103,-331,-52,75,-127,-11
,932,2023-10-20 13:47:03.38,194,-405,-2015,101,-97,-297,-205,-49,-156,127
,933,2023-10-20 13:47:03.39,188,-402,-2023,78,-86,-246,-63,-72,9,67
,934,2023-10-20 13:47:03.40,189,-362,-2038,51,-74,-188,-217,-138,-79,177
,935,2023-10-20 13:47:03.41,201,-312,-2044,32,-72,-154,-68,-76,8,72
,936,2023-10-20 13:47:03.42,212,-284,-2058,-11,-78,-136,-208,-96,-112,152
,937,2023-10-20 13:47:03.43,223,-257,-2016,-60,-83,-135,-61,-18,-43,39
,938,2023-10-20 13:47:03.44,206,-277,-2018,-96,-76,-138,-203,-52,-151,127
,939,2023-10-20 13:47:03.45,218,-287,-1989,-124,-76,-133,-64,20,-84,22
,940,2023-10-20 13:47:03.46,231,-295,-1975,-129,-83,-122,-197,-23,-174,110
,941,2023-10-20 13:47:03.47,220,-309,-1988,-116,-83,-119,-70,32,-102,19
,942,2023-10-20 13:47:03.48,221,-322,-1992,-105,-69,-109,-194,-17,-177,105
,943,2023-10-20 13:47:03.49,216,-352,-2024,-96,-58,-82,-66,25,-91,20
,944,2023-10-20 13:47:03.50,191,-291,-2093,-92,-50,-44,-188,-16,-172,102
,945,2023-10-20 13:47:03.51,221,-319,-1990,-97,-30,-9,-73,34,-107,19
,946,2023-10-20 13:47:03.52,199,-365,-1991,-77,7,4,-185,-15,-170,100
,947,2023-10-20 13:47:03.53,207,-318,-2074,-53,-4,25,-73,-11,-62,42
,948,2023-10-20 13:47:03.54,213,-280,-2073,-59,1,49,-180,-29,-151,104
,949,2023-10-20 13:47:03.55,207,-295,-2064,-72,29,48,-75,35,-110,20
,950,2023-10-20 13:47:03.56,210,-300,-2087,-88,50,48,-173,9,-182,82
,951,2023-10-20 13:47:03.57,206,-313,-2081,-100,70,60,-66,13,-79,26
,952,2023-10-20 13:47:03.58,208,-306,-2063,-107,90,69,-165,-22,-143,93
,953,2023-10-20 13:47:03.59,225,-283,-2048,-121,108,75,-82,-7,-75,44
,954,2023-10-20 13:47:03.60,246,-276,-2064,-138,123,78,-169,-14,-155,91
,955,2023-10-20 13:47:03.61,246,-254,-2047,-148,137,83,-80,-8,-72,44
,956,2023-10-20 13:47:03.62,254,-243,-2044,-154,139,75,-162,-2,-160,82
,957,2023-10-20 13:47:03.63,258,-229,-2021,-158,150,61,-87,22,-109,32
,958,2023-10-20 13:47:03.64,261,-237,-2034,-161,147,52,-162,30,-192,66
,959,2023-10-20 13:47:03.65,255,-240,-2029,-163,138,47,-88,30,-118,29
,960,2023-10-20 13:47:03.66,272,-227,-2019,-152,121,32,-156,29,-185,63
,961,2023-10-20 13:47:03.67,257,-222,-2019,-143,105,22,-85,37,-122,24
,962,2023-10-20 13:47:03.68,284,-234,-2017,-141,92,19,-143,28,-171,57
,963,2023-10-20 13:47:03.69,261,-204,-2034,-143,88,11,-91,3,-94,44
,964,2023-10-20 13:47:03.70,255,-178,-2041,-135,74,-7,-143,10,-153,66
,965,2023-10-20 13:47:03.71,276,-160,-2052,-136,57,-30,-96,-7,-89,51
,966,2023-10-20 13:47:03.72,266,-159,-2040,-138,41,-67,-138,5,-143,66
,967,2023-10-20 13:47:03.73,265,-197,-2049,-145,29,-92,-98,-16,-82,57
,968,2023-10-20 13:47:03.74,290,-191,-2035,-145,22,-112,-126,33,-159,46
,969,2023-10-20 13:47:03.75,292,-188,-2014,-149,11,-123,-95,24,-119,35
,970,2023-10-20 13:47:03.76,291,-204,-2022,-158,-2,-111,-127,54,-181,36
,971,2023-10-20 13:47:03.77,279,-244,-2063,-167,-12,-75,-112,20,-132,46
,972,2023-10-20 13:47:03.78,262,-208,-2067,-151,-20,-57,-124,49,-173,37
,973,2023-10-20 13:47:03.79,283,-176,-2062,-120,-29,-49,-106,2,-108,52
,974,2023-10-20 13:47:03.80,284,-191,-2060,-104,-28,-41,-116,16,-132,50
,975,2023-10-20 13:47:03.81,267,-164,-2044,-92,-32,-32,-116,-47,-69,81
,976,2023-10-20 13:47:03.82,282,-172,-2034,-70,-43,-34,-119,18,-137,50
,977,2023-10-20 13:47:03.83,273,-157,-2021,-44,-46,-39,-108,6,-114,51
,978,2023-10-20 13:47:03.84,267,-188,-2029,-27,-45,-32,-105,27,-132,39
,979,2023-10-20 13:47:03.85,259,-202,-2021,-10,-40,-22,-110,-53,-57,81
,980,2023-10-20 13:47:03.86,245,-194,-2008,17,-33,-24,-106,10,-116,48
,981,2023-10-20 13:47:03.87,247,-212,-2018,37,-25,-19,-116,-10,-106,63
,982,2023-10-20 13:47:03.88,246,-208,-2050,48,-18,-7,-104,66,-170,19
,983,2023-10-20 13:47:03.89,239,-189,-2050,52,-18,-2,-122,23,-145,49
,984,2023-10-20 13:47:03.90,232,-189,-2045,46,-14,-4,-100,50,-150,25
,985,2023-10-20 13:47:03.91,254,-182,-2039,30,-2,-9,-127,-43,-84,85
,986,2023-10-20 13:47:03.92,236,-189,-2037,17,6,-5,-94,46,-140,24
,987,2023-10-20 13:47:03.93,243,-185,-2049,12,11,-5,-126,13,-139,56
,988,2023-10-20 13:47:03.94,234,-181,-2042,6,15,-6,-90,61,-151,14
,989,2023-10-20 13:47:03.95,237,-208,-2053,-3,20,-9,-134,-37,-97,85
,990,2023-10-20 13:47:03.96,253,-213,-2051,-10,22,-1,-89,56,-145,16
,991,2023-10-20 13:47:03.97,263,-206,-2047,-14,28,10,-132,14,-146,59
,992,2023-10-20 13:47:03.98,260,-208,-2040,-12,35,18,-78,89,-167,-5
,993,2023-10-20 13:47:03.99,268,-194,-2043,-6,43,26,-142,1,-143,70
,994,2023-10-20 13:47:04.00,264,-192,-2036,2,42,33,-80,61,-141,9
,995,2023-10-20 13:47:04.01,268,-183,-2034,12,40,34,-140,-27,-113,83
,996,2023-10-20 13:47:04.02,281,-197,-2024,23,35,42,-71,57,-128,7
,997,2023-10-20 13:47:04.03,273,-211,-2007,36,26,46,-140,-14,-126,77
,998,2023-10-20 13:47:04.04,268,-218,-2020,50,23,58,-71,59,-130,6
,999,2023-10-20 13:47:04.05,284,-208,-2013,67,34,63,-150,-33,-117,91
,1000,2023-10-20 13:47:04.06,285,-222,-2018,72,46,75,-67,48,-115,9
,1001,2023-10-20 13:47:04.07,268,-211,-2029,73,56,82,-147,-44,-103,95
,1002,2023-10-20 13:47:04.08,276,-197,-2031,79,53,80,-64,44,-108,10
,1003,2023-10-20 13:47:04.09,275,-212,-2043,74,55,71,-159,-44,-115,101
,1004,2023-10-20 13:47:04.10,257,-214,-2043,62,55,56,-65,43,-108,11
,1005,2023-10-20 13:47:04.11,281,-205,-2043,48,55,38,-165,-46,-119,105
,1006,2023-10-20 13:47:04.12,272,-226,-2047,28,57,32,-64,47,-111,8
,1007,2023-10-20 13:47:04.13,286,-207,-2039,10,62,22,-166,-48,-118,107
,1008,2023-10-20 13:47:04.14,286,-171,-2066,-14,63,14,-66,48,-114,9
,1009,2023-10-20 13:47:04.15,273,-180,-2065,-47,61,5,-172,-47,-125,109
,1010,2023-10-20 13:47:04.16,287,-172,-2055,-74,66,-8,-62,17,-79,22
,1011,2023-10-20 13:47:04.17,288,-172,-2052,-101,65,-21,-176,-90,-86,133
,1012,2023-10-20 13:47:04.18,297,-153,-2047,-117,61,-31,-70,11,-81,29
,1013,2023-10-20 13:47:04.19,298,-143,-2052,-117,55,-50,-185,-55,-130,120
,1014,2023-10-20 13:47:04.20,295,-139,-2061,-107,50,-59,-59,71,-130,-6
,1015,2023-10-20 13:47:04.21,307,-109,-2043,-82,36,-82,-180,-27,-153,103
,1016,2023-10-20 13:47:04.22,309,-113,-2037,-51,23,-108,-58,40,-98,9
,1017,2023-10-20 13:47:04.23,299,-135,-2049,-20,9,-125,-193,-78,-115,135
,1018,2023-10-20 13:47:04.24,313,-125,-2041,14,-14,-152,-58,31,-89,13
,1019,2023-10-20 13:47:04.25,299,-151,-2022,43,-30,-176,-197,-60,-137,128
,1020,2023-10-20 13:47:04.26,296,-185,-2024,52,-41,-170,-53,85,-138,-16
,1021,2023-10-20 13:47:04.27,311,-206,-2017,48,-39,-150,-193,-20,-173,106
,1022,2023-10-20 13:47:04.28,310,-246,-2028,36,-25,-97,-42,97,-139,-27
,1023,2023-10-20 13:47:04.29,303,-266,-2041,30,-14,-29,-192,-26,-166,109
,1024,2023-10-20 13:47:04.30,308,-251,-2035,44,-5,32,-50,71,-121,-10
,1025,2023-10-20 13:47:04.31,299,-229,-2045,54,10,83,-205,-47,-158,126
,1026,2023-10-20 13:47:04.32,305,-203,-2041,63,21,121,-43,81,-124,-19
,1027,2023-10-20 13:47:04.33,300,-174,-2041,78,24,131,-192,-29,-163,110
,1028,2023-10-20 13:47:04.34,308,-175,-2044,96,18,118,-36,95,-131,-29
,1029,2023-10-20 13:47:04.35,289,-176,-2035,102,15,99,-206,-28,-178,117
,1030,2023-10-20 13:47:04.36,301,-165,-2032,104,10,88,-47,77,-124,-15
,1031,2023-10-20 13:47:04.37,304,-181,-2036,104,2,79,-208,-47,-161,127
,1032,2023-10-20 13:47:04.38,305,-193,-2036,102,-1,74,-44,54,-98,-5
,1033,2023-10-20 13:47:04.39,307,-206,-2044,82,-1,82,-209,-64,-145,136
,1034,2023-10-20 13:47:04.40,319,-198,-2038,73,18,88,-39,64,-103,-12
,1035,2023-10-20 13:47:04.41,308,-181,-2023,89,38,80,-214,-52,-162,133
,1036,2023-10-20 13:47:04.42,309,-201,-2039,116,57,84,-47,56,-103,-4
,1037,2023-10-20 13:47:04.43,293,-178,-2033,158,70,85,-220,-64,-156,142
,1038,2023-10-20 13:47:04.44,287,-186,-2026,203,71,82,-43,62,-105,-9
,1039,2023-10-20 13:47:04.45,286,-180,-2025,246,70,73,-214,-48,-166,131
,1040,2023-10-20 13:47:04.46,295,-175,-2028,286,63,50,-40,79,-119,-19
,1041,2023-10-20 13:47:04.47,301,-172,-2007,311,56,22,-220,-44,-176,132
,1042,2023-10-20 13:47:04.48,304,-212,-2006,327,62,5,-49,65,-114,-8
,1043,2023-10-20 13:47:04.49,301,-239,-2000,334,72,0,-229,-60,-169,144
,1044,2023-10-20 13:47:04.50,286,-267,-2020,340,89,10,-43,28,-71,7
,1045,2023-10-20 13:47:04.51,298,-272,-2029,354,95,27,-227,-91,-136,159
,1046,2023-10-20 13:47:04.52,293,-286,-2037,369,92,48,-54,31,-85,11
,1047,2023-10-20 13:47:04.53,301,-273,-2024,376,85,60,-236,-69,-167,152
,1048,2023-10-20 13:47:04.54,313,-267,-2017,369,81,68,-47,77,-124,-15
,1049,2023-10-20 13:47:04.55,307,-279,-2018,353,82,70,-228,-35,-193,131
,1050,2023-10-20 13:47:04.56,302,-273,-2014,348,83,64,-38,72,-110,-17
,1051,2023-10-20 13:47:04.57,314,-270,-2027,348,76,60,-228,-61,-167,144
,1052,2023-10-20 13:47:04.58,311,-284,-2002,346,76,51,-54,20,-74,17
,1053,2023-10-20 13:47:04.59,310,-299,-2020,337,76,44,-247,-98,-149,172
,1054,2023-10-20 13:47:04.60,307,-325,-2002,326,73,44,-53,46,-99,3
,1055,2023-10-20 13:47:04.61,317,-329,-2021,312,72,49,-235,-53,-182,144
,1056,2023-10-20 13:47:04.62,300,-338,-2018,302,67,53,-51,45,-96,3
,1057,2023-10-20 13:47:04.63,305,-337,-2015,277,73,58,-228,-63,-165,145
,1058,2023-10-20 13:47:04.64,309,-361,-2008,240,73,73,-41,57,-98,-8
,1059,2023-10-20 13:47:04.65,316,-349,-2002,217,80,79,-226,-47,-179,136
,1060,2023-10-20 13:47:04.66,307,-352,-2000,200,79,85,-52,58,-110,-3
,1061,2023-10-20 13:47:04.67,313,-356,-2027,186,72,87,-233,-58,-175,145
,1062,2023-10-20 13:47:04.68,319,-356,-2033,165,65,89,-53,-11,-42,32
,1063,2023-10-20 13:47:04.69,341,-345,-2026,137,61,92,-236,-100,-136,168
,1064,2023-10-20 13:47:04.70,346,-330,-2021,110,58,91,-53,65,-118,-6
,1065,2023-10-20 13:47:04.71,342,-342,-2030,87,59,86,-225,-14,-211,119
,1066,2023-10-20 13:47:04.72,335,-357,-2043,70,59,90,-48,80,-128,-16
,1067,2023-10-20 13:47:04.73,331,-351,-2022,60,54,89,-226,-36,-190,131
,1068,2023-10-20 13:47:04.74,351,-378,-2013,45,49,105,-48,56,-104,-4
,1069,2023-10-20 13:47:04.75,313,-377,-1978,43,48,111,-223,-44,-179,133
,1070,2023-10-20 13:47:04.76,308,-433,-2034,52,48,140,-50,29,-79,10
,1071,2023-10-20 13:47:04.77,302,-345,-2018,84,46,124,-224,-59,-165,141
,1072,2023-10-20 13:47:04.78,318,-279,-2007,130,14,71,-54,63,-117,-4
,1073,2023-10-20 13:47:04.79,325,-295,-2003,141,-4,21,-218,-18,-200,118
,1074,2023-10-20 13:47:04.80,315,-337,-1976,123,-4,-13,-52,50,-102,1
,1075,2023-10-20 13:47:04.81,307,-369,-2012,103,-5,-28,-218,-47,-171,132
,1076,2023-10-20 13:47:04.82,312,-410,-2017,74,-3,-27,-57,28,-85,14
,1077,2023-10-20 13:47:04.83,323,-414,-1986,54,-5,-14,-216,-42,-174,129
,1078,2023-10-20 13:47:04.84,322,-445,-1991,41,12,12,-51,54,-105,-1
,1079,2023-10-20 13:47:04.85,332,-450,-1997,20,48,50,-217,-26,-191,121
,1080,2023-10-20 13:47:04.86,356,-415,-1985,9,83,87,-56,46,-102,5
,1081,2023-10-20 13:47:04.87,347,-409,-2013,21,97,120,-212,-43,-169,127
,1082,2023-10-20 13:47:04.88,331,-411,-2034,52,96,136,-60,-3,-57,31
,1083,2023-10-20 13:47:04.89,354,-359,-2070,58,64,142,-208,-62,-146,135
,1084,2023-10-20 13:47:04.90,360,-341,-2019,37,70,142,-64,10,-74,27
,1085,2023-10-20 13:47:04.91,365,-369,-2024,23,67,147,-213,-44,-169,128
,1086,2023-10-20 13:47:04.92,355,-360,-2031,19,55,139,-72,-8,-64,40
,1087,2023-10-20 13:47:04.93,361,-369,-2013,21,44,133,-206,-57,-149,131
,1088,2023-10-20 13:47:04.94,373,-368,-1993,33,36,123,-74,12,-86,31
,1089,2023-10-20 13:47:04.95,353,-382,-1982,42,35,104,-206,-10,-196,108
,1090,2023-10-20 13:47:04.96,365,-373,-1974,53,37,87,-63,87,-150,-12
,1091,2023-10-20 13:47:04.97,346,-402,-1999,65,33,67,-188,-26,-162,107
,1092,2023-10-20 13:47:04.98,351,-420,-1998,63,30,71,-86,-145,59,115
,1093,2023-10-20 13:47:04.99,330,-383,-2000,56,26,73,-206,-165,-41,185
,1094,2023-10-20 13:47:05.00,350,-387,-1978,55,12,56,-100,-68,-32,84
,1095,2023-10-20 13:47:05.01,343,-411,-1988,49,-4,35,-196,-31,-165,113
,1096,2023-10-20 13:47:05.02,333,-468,-2013,28,-3,36,-72,-3,-69,37
,1097,2023-10-20 13:47:05.03,346,-466,-1983,5,4,59,-186,-36,-150,111
,1098,2023-10-20 13:47:05.04,350,-454,-1976,7,15,84,-77,-1,-76,39
,1099,2023-10-20 13:47:05.05,347,-441,-1999,19,24,99,-183,-22,-161,102
,1100,2023-10-20 13:47:05.06,343,-444,-2003,4,21,103,-87,10,-97,38
,1101,2023-10-20 13:47:05.07,345,-427,-1981,-13,22,107,-177,-5,-172,91
,1102,2023-10-20 13:47:05.08,357,-393,-1997,-18,15,102,-80,5,-85,37
,1103,2023-10-20 13:47:05.09,348,-418,-2008,-20,3,91,-170,-4,-166,87
,1104,2023-10-20 13:47:05.10,356,-410,-2008,-27,-10,90,-81,18,-99,31
,1105,2023-10-20 13:47:05.11,348,-419,-2026,-47,-13,95,-167,6,-173,80
,1106,2023-10-20 13:47:05.12,325,-411,-2023,-50,-21,98,-96,8,-104,44
,1107,2023-10-20 13:47:05.13,331,-381,-2020,-40,-37,95,-168,5,-173,81
,1108,2023-10-20 13:47:05.14,336,-396,-2022,-45,-50,101,-92,10,-102,41
,1109,2023-10-20 13:47:05.15,320,-382,-2019,-46,-65,95,-160,5,-165,77
,1110,2023-10-20 13:47:05.16,324,-376,-2007,-51,-88,93,-91,0,-91,45
,1111,2023-10-20 13:47:05.17,302,-400,-2020,-61,-108,103,-153,8,-161,72
,1112,2023-10-20 13:47:05.18,301,-391,-2010,-63,-121,105,-102,3,-105,49
,1113,2023-10-20 13:47:05.19,277,-378,-2010,-58,-130,109,-157,18,-175,69
,1114,2023-10-20 13:47:05.20,276,-388,-1995,-64,-137,110,-102,12,-114,45
,1115,2023-10-20 13:47:05.21,270,-388,-2001,-61,-135,108,-142,20,-162,61
,1116,2023-10-20 13:47:05.22,265,-383,-1979,-51,-131,107,-104,-6,-98,55
,1117,2023-10-20 13:47:05.23,263,-376,-1983,-39,-121,97,-145,17,-162,64
,1118,2023-10-20 13:47:05.24,262,-355,-1988,-22,-104,79,-109,1,-110,54
,1119,2023-10-20 13:47:05.25,275,-349,-1998,-15,-85,65,-135,26,-161,54
,1120,2023-10-20 13:47:05.26,275,-338,-1984,-13,-60,43,-107,-7,-100,57
,1121,2023-10-20 13:47:05.27,282,-326,-2041,-10,-52,20,-130,20,-150,55
,1122,2023-10-20 13:47:05.28,263,-339,-2045,-30,-44,7,-110,-13,-97,61
,1123,2023-10-20 13:47:05.29,266,-354,-2058,-44,-42,10,-128,23,-151,52
,1124,2023-10-20 13:47:05.30,262,-360,-2049,-59,-51,16,-113,-6,-107,59
,1125,2023-10-20 13:47:05.31,254,-368,-2040,-68,-47,26,-124,37,-161,43
,1126,2023-10-20 13:47:05.32,249,-359,-2048,-82,-46,46,-114,-5,-109,59
,1127,2023-10-20 13:47:05.33,254,-362,-2022,-96,-42,68,-111,40,-151,35
,1128,2023-10-20 13:47:05.34,255,-362,-2001,-91,-41,86,-112,-2,-110,57
,1129,2023-10-20 13:47:05.35,257,-372,-1996,-87,-35,106,-109,46,-155,31
,1130,2023-10-20 13:47:05.36,257,-327,-1997,-88,-27,122,-126,0,-126,63
,1131,2023-10-20 13:47:05.37,275,-328,-1984,-84,-14,131,-115,40,-155,37
,1132,2023-10-20 13:47:05.38,275,-325,-1992,-76,1,131,-114,-10,-104,62
,1133,2023-10-20 13:47:05.39,283,-327,-1958,-61,14,128,-104,50,-154,27
,1134,2023-10-20 13:47:05.40,295,-337,-1989,-41,34,130,-126,9,-135,58
,1135,2023-10-20 13:47:05.41,302,-298,-2005,-10,48,113,-109,49,-158,30
,1136,2023-10-20 13:47:05.42,294,-289,-2016,36,54,64,-132,-22,-110,77
,1137,2023-10-20 13:47:05.43,301,-292,-2012,66,54,20,-96,41,-137,27
,1138,2023-10-20 13:47:05.44,306,-308,-2008,75,42,-19,-134,-19,-115,76
,1139,2023-10-20 13:47:05.45,318,-333,-2022,55,16,-44,-90,54,-144,18
,1140,2023-10-20 13:47:05.46,318,-382,-2040,28,-3,-56,-134,-16,-118,75
,1141,2023-10-20 13:47:05.47,314,-416,-2028,11,-9,-46,-88,49,-137,19
,1142,2023-10-20 13:47:05.48,318,-439,-2024,10,2,-15,-133,-21,-112,77
,1143,2023-10-20 13:47:05.49,311,-442,-2028,17,5,16,-75,58,-133,8
,1144,2023-10-20 13:47:05.50,302,-417,-2023,42,11,32,-130,-11,-119,70
,1145,2023-10-20 13:47:05.51,294,-377,-2037,62,6,27,-70,76,-146,-3
,1146,2023-10-20 13:47:05.52,304,-367,-2008,69,-19,19,-135,2,-137,66
,1147,2023-10-20 13:47:05.53,296,-392,-2031,47,-35,22,-73,64,-137,4
,1148,2023-10-20 13:47:05.54,285,-385,-2039,33,-56,13,-155,-27,-128,91
,1149,2023-10-20 13:47:05.55,292,-388,-2010,38,-64,-6,-74,51,-125,11
,1150,2023-10-20 13:47:05.56,278,-419,-2017,37,-58,-4,-151,-39,-112,95
,1151,2023-10-20 13:47:05.57,279,-417,-2015,35,-44,12,-66,51,-117,7
,1152,2023-10-20 13:47:05.58,271,-410,-2023,33,-39,28,-153,-32,-121,92
,1153,2023-10-20 13:47:05.59,273,-392,-2003,39,-46,27,-67,67,-134,0
,1154,2023-10-20 13:47:05.60,271,-406,-1977,47,-50,20,-165,-28,-137,96
,1155,2023-10-20 13:47:05.61,262,-396,-1970,51,-44,24,-67,54,-121,6
,1156,2023-10-20 13:47:05.62,266,-404,-1961,52,-34,36,-166,-44,-122,105
,1157,2023-10-20 13:47:05.63,266,-409,-1978,52,-29,47,-69,45,-114,12
,1158,2023-10-20 13:47:05.64,247,-391,-1981,53,-20,48,-180,-51,-129,115
,1159,2023-10-20 13:47:05.65,251,-396,-1991,50,-10,49,-68,59,-127,4
,1160,2023-10-20 13:47:05.66,240,-397,-1999,51,1,52,-172,-35,-137,103
,1161,2023-10-20 13:47:05.67,260,-408,-2000,39,6,47,-59,60,-119,0
,1162,2023-10-20 13:47:05.68,244,-406,-2009,38,4,45,-178,-45,-133,111
,1163,2023-10-20 13:47:05.69,256,-371,-2019,34,5,34,-55,73,-128,-9
,1164,2023-10-20 13:47:05.70,256,-381,-2005,22,1,28,-183,-30,-153,106
,1165,2023-10-20 13:47:05.71,252,-400,-2013,11,-3,22,-46,77,-123,-15
,1166,2023-10-20 13:47:05.72,256,-397,-2010,10,-5,11,-164,-24,-140,94
,1167,2023-10-20 13:47:05.73,259,-418,-2003,7,-10,15,-43,89,-132,-23
,1168,2023-10-20 13:47:05.74,238,-420,-2015,11,-8,12,-188,-17,-171,102
,1169,2023-10-20 13:47:05.75,246,-382,-2003,13,-10,6,-56,79,-135,-11
,1170,2023-10-20 13:47:05.76,254,-415,-2018,-2,-7,12,-192,-46,-146,119
,1171,2023-10-20 13:47:05.77,234,-413,-2015,-7,-11,10,-46,31,-77,7
,1172,2023-10-20 13:47:05.78,238,-386,-1988,-6,-10,3,-190,-82,-108,136
,1173,2023-10-20 13:47:05.79,228,-401,-2007,-14,-4,5,-34,69,-103,-17
,1174,2023-10-20 13:47:05.80,231,-393,-2030,-19,-5,0,-194,-38,-156,116
,1175,2023-10-20 13:47:05.81,244,-376,-2011,-18,-9,-10,-45,75,-120,-15
,1176,2023-10-20 13:47:05.82,247,-394,-2009,-14,-12,-11,-202,-54,-148,128
,1177,2023-10-20 13:47:05.83,267,-365,-2007,-50,7,-15,-37,43,-80,-3
,1178,2023-10-20 13:47:05.84,233,-458,-1939,-28,35,-26,-197,-80,-117,138
,1179,2023-10-20 13:47:05.85,239,-419,-2027,15,22,-27,-32,55,-87,-11
,1180,2023-10-20 13:47:05.86,251,-347,-2031,11,21,-16,-194,-47,-147,120
,1181,2023-10-20 13:47:05.87,247,-361,-2016,0,34,-21,-30,77,-107,-23
,1182,2023-10-20 13:47:05.88,237,-390,-2026,2,27,-29,-207,-51,-156,129
,1183,2023-10-20 13:47:05.89,259,-336,-2031,0,15,-45,-33,53,-86,-10
,1184,2023-10-20 13:47:05.90,274,-353,-2003,4,6,-64,-204,-70,-134,137
,1185,2023-10-20 13:47:05.91,270,-369,-1996,2,4,-80,-44,25,-69,9
,1186,2023-10-20 13:47:05.92,272,-397,-1995,-7,14,-71,-215,-76,-139,145
,1187,2023-10-20 13:47:05.93,271,-411,-1999,-8,18,-53,-39,58,-97,-9
,1188,2023-10-20 13:47:05.94,274,-428,-2007,-6,19,-32,-212,-59,-153,135
,1189,2023-10-20 13:47:05.95,284,-408,-2028,-10,20,-8,-40,58,-98,-9
,1190,2023-10-20 13:47:05.96,274,-382,-2022,-8,23,1,-220,-63,-157,141
,1191,2023-10-20 13:47:05.97,275,-367,-2004,-14,27,6,-43,18,-61,12
,1192,2023-10-20 13:47:05.98,288,-380,-2016,-11,15,2,-224,-101,-123,162
,1193,2023-10-20 13:47:05.99,297,-334,-2011,-14,15,-9,-46,-1,-45,23
,1194,2023-10-20 13:47:06.00,285,-385,-1993,-17,16,-17,-225,-102,-123,163
,1195,2023-10-20 13:47:06.01,292,-369,-2006,-8,14,-23,-43,48,-91,-2
,1196,2023-10-20 13:47:06.02,277,-356,-2041,-6,18,-17,-224,-50,-174,137
,1197,2023-10-20 13:47:06.03,279,-342,-2038,-9,24,-21,-33,94,-127,-30
,1198,2023-10-20 13:47:06.04,278,-348,-2015,-5,30,-27,-211,-39,-172,125
,1199,2023-10-20 13:47:06.05,284,-336,-2004,8,28,-37,-36,-82,46,59
,1200,2023-10-20 13:47:06.06,275,-337,-1994,8,33,-42,-226,-200,-26,213
,1201,2023-10-20 13:47:06.07,272,-364,-1995,16,30,-45,-49,-67,18,58
,1202,2023-10-20 13:47:06.08,258,-348,-2025,44,31,-55,-230,-117,-113,173
,1203,2023-10-20 13:47:06.09,259,-347,-2029,58,39,-61,-50,15,-65,17
,1204,2023-10-20 13:47:06.10,251,-342,-2017,67,40,-66,-232,-83,-149,157
,1205,2023-10-20 13:47:06.11,273,-336,-2015,76,42,-75,-49,24,-73,12
,1206,2023-10-20 13:47:06.12,259,-345,-2021,87,27,-91,-228,-75,-153,151
,1207,2023-10-20 13:47:06.13,253,-350,-2034,77,22,-107,-44,42,-86,1
,1208,2023-10-20 13:47:06.14,261,-355,-2014,60,22,-116,-224,-63,-161,143
,1209,2023-10-20 13:47:06.15,263,-343,-2010,63,17,-130,-46,65,-111,-9
,1210,2023-10-20 13:47:06.16,271,-337,-2029,57,16,-133,-225,-38,-187,131
,1211,2023-10-20 13:47:06.17,280,-365,-2004,40,26,-133,-47,52,-99,-2
,1212,2023-10-20 13:47:06.18,268,-370,-2026,36,23,-146,-230,-63,-167,146
,1213,2023-10-20 13:47:06.19,270,-360,-2018,40,16,-141,-60,40,-100,10
,1214,2023-10-20 13:47:06.20,283,-350,-2016,34,15,-135,-228,-44,-184,136
,1215,2023-10-20 13:47:06.21,301,-360,-2008,21,18,-130,-47,83,-130,-18
,1216,2023-10-20 13:47:06.22,298,-364,-2030,4,30,-131,-222,-22,-200,122
,1217,2023-10-20 13:47:06.23,296,-356,-2011,-14,28,-129,-55,36,-91,9
,1218,2023-10-20 13:47:06.24,303,-354,-1998,-23,35,-123,-223,-58,-165,140
,1219,2023-10-20 13:47:06.25,317,-359,-2006,-34,41,-113,-55,34,-89,10
,1220,2023-10-20 13:47:06.26,317,-346,-2004,-49,49,-108,-229,-46,-183,137
,1221,2023-10-20 13:47:06.27,327,-355,-2013,-61,48,-95,-57,48,-105,4
,1222,2023-10-20 13:47:06.28,328,-358,-2003,-68,42,-77,-224,-50,-174,137
,1223,2023-10-20 13:47:06.29,316,-355,-2012,-68,42,-57,-65,22,-87,21
,1224,2023-10-20 13:47:06.30,333,-353,-2005,-70,44,-42,-222,-47,-175,134
,1225,2023-10-20 13:47:06.31,350,-342,-2008,-78,51,-20,-51,83,-134,-16
,1226,2023-10-20 13:47:06.32,357,-338,-1988,-81,50,-5,-214,-1,-213,107
,1227,2023-10-20 13:47:06.33,344,-373,-2020,-81,64,19,-49,88,-137,-19
,1228,2023-10-20 13:47:06.34,345,-309,-2005,-61,73,31,-211,-7,-204,109
,1229,2023-10-20 13:47:06.35,356,-292,-2007,-26,63,15,-58,70,-128,-6
,1230,2023-10-20 13:47:06.36,358,-288,-2001,3,52,-13,-212,-15,-197,113
,1231,2023-10-20 13:47:06.37,359,-304,-1995,19,41,-48,-54,66,-120,-6
,1232,2023-10-20 13:47:06.38,360,-343,-1994,34,40,-69,-205,-16,-189,110
,1233,2023-10-20 13:47:06.39,360,-349,-2010,49,53,-69,-62,50,-112,6
,1234,2023-10-20 13:47:06.40,356,-369,-2011,53,64,-55,-208,-26,-182,117
,1235,2023-10-20 13:47:06.41,344,-383,-2022,51,74,-36,-57,26,-83,15
,1236,2023-10-20 13:47:06.42,353,-352,-2019,49,85,-31,-206,-25,-181,115
,1237,2023-10-20 13:47:06.43,365,-362,-2018,42,85,-24,-68,66,-134,1
,1238,2023-10-20 13:47:06.44,372,-355,-2019,31,92,-15,-202,4,-206,99
,1239,2023-10-20 13:47:06.45,370,-341,-2008,18,97,-7,-59,40,-99,9
,1240,2023-10-20 13:47:06.46,370,-338,-2005,8,95,-2,-194,-20,-174,107
,1241,2023-10-20 13:47:06.47,364,-330,-2001,1,96,3,-63,47,-110,8
,1242,2023-10-20 13:47:06.48,361,-327,-2006,-8,91,7,-189,2,-191,93
,1243,2023-10-20 13:47:06.49,358,-317,-2021,-15,78,5,-69,53,-122,8
,1244,2023-10-20 13:47:06.50,352,-302,-2013,-9,72,-9,-190,4,-194,93
,1245,2023-10-20 13:47:06.51,358,-295,-2005,-1,61,-33,-69,47,-116,11
,1246,2023-10-20 13:47:06.52,366,-291,-2008,9,50,-60,-181,9,-190,86
,1247,2023-10-20 13:47:06.53,375,-292,-1992,8,39,-89,-72,50,-122,11
,1248,2023-10-20 13:47:06.54,388,-317,-1998,-6,36,-99,-182,17,-199,82
,1249,2023-10-20 13:47:06.55,382,-334,-2005,-25,42,-95,-78,48,-126,15
,1250,2023-10-20 13:47:06.56,373,-356,-2017,-40,47,-86,-175,22,-197,76
,1251,2023-10-20 13:47:06.57,389,-367,-2000,-55,53,-63,-69,62,-131,3
,1252,2023-10-20 13:47:06.58,360,-393,-2024,-79,69,-20,-162,36,-198,63
,1253,2023-10-20 13:47:06.59,371,-376,-2040,-88,77,19,-70,51,-121,9
,1254,2023-10-20 13:47:06.60,376,-364,-2034,-86,71,49,-162,25,-187,68
,1255,2023-10-20 13:47:06.61,363,-366,-2035,-87,64,74,-69,53,-122,8
,1256,2023-10-20 13:47:06.62,361,-337,-2032,-84,52,88,-159,23,-182,68
,1257,2023-10-20 13:47:06.63,362,-299,-2019,-78,38,84,-75,30,-105,22
,1258,2023-10-20 13:47:06.64,373,-293,-2009,-72,18,68,-152,16,-168,68
,1259,2023-10-20 13:47:06.65,366,-323,-2006,-75,2,49,-74,36,-110,19
,1260,2023-10-20 13:47:06.66,380,-356,-2011,-74,-11,50,-150,26,-176,62
,1261,2023-10-20 13:47:06.67,375,-349,-2004,-60,-18,59,-80,21,-101,29
,1262,2023-10-20 13:47:06.68,377,-347,-2002,-27,-14,59,-143,25,-168,59
,1263,2023-10-20 13:47:06.69,360,-337,-2008,0,-7,61,-80,23,-103,28
,1264,2023-10-20 13:47:06.70,354,-326,-2016,28,-1,69,-139,25,-164,57
,1265,2023-10-20 13:47:06.71,359,-319,-2019,58,-4,65,-95,13,-108,41
,1266,2023-10-20 13:47:06.72,333,-314,-1998,81,-10,61,-137,40,-177,48
,1267,2023-10-20 13:47:06.73,358,-332,-2005,92,-5,50,-90,38,-128,26
,1268,2023-10-20 13:47:06.74,344,-329,-2001,108,1,39,-129,50,-179,39
,1269,2023-10-20 13:47:06.75,360,-332,-1994,111,10,30,-93,7,-100,43
,1270,2023-10-20 13:47:06.76,350,-362,-1995,99,24,40,-126,11,-137,57
,1271,2023-10-20 13:47:06.77,342,-368,-1999,85,30,48,-102,-32,-70,67
,1272,2023-10-20 13:47:06.78,352,-352,-1993,74,36,45,-128,22,-150,53
,1273,2023-10-20 13:47:06.79,349,-349,-1997,64,32,49,-106,18,-124,44
,1274,2023-10-20 13:47:06.80,359,-329,-2002,56,30,49,-118,32,-150,43
,1275,2023-10-20 13:47:06.81,358,-346,-2002,45,27,43,-109,-49,-60,79
,1276,2023-10-20 13:47:06.82,368,-330,-2011,29,26,38,-122,21,-143,50
,1277,2023-10-20 13:47:06.83,359,-335,-2012,14,26,39,-111,26,-137,42
,1278,2023-10-20 13:47:06.84,378,-335,-2007,2,27,37,-109,85,-194,12
,1279,2023-10-20 13:47:06.85,378,-324,-2009,-16,28,30,-110,33,-143,38
,1280,2023-10-20 13:47:06.86,383,-321,-2018,-34,27,20,-109,50,-159,29
,1281,2023-10-20 13:47:06.87,390,-308,-2015,-55,25,10,-124,-31,-93,77
,1282,2023-10-20 13:47:06.88,379,-306,-2010,-66,23,4,-112,32,-144,40
,1283,2023-10-20 13:47:06.89,379,-309,-2015,-75,17,-2,-123,1,-124,61
,1284,2023-10-20 13:47:06.90,382,-310,-2025,-81,10,-2,-99,55,-154,22
,1285,2023-10-20 13:47:06.91,370,-307,-2044,-90,0,0,-129,-22,-107,75
,1286,2023-10-20 13:47:06.92,373,-307,-2039,-105,-2,7,-107,44,-151,31
,1287,2023-10-20 13:47:06.93,386,-294,-2037,-109,-9,12,-140,-13,-127,76
,1288,2023-10-20 13:47:06.94,375,-284,-2034,-108,-19,15,-97,48,-145,24
,1289,2023-10-20 13:47:06.95,374,-309,-2046,-99,-24,23,-133,-29,-104,81
,1290,2023-10-20 13:47:06.96,377,-292,-2005,-81,-35,25,-85,43,-128,21
,1291,2023-10-20 13:47:06.97,380,-311,-2020,-72,-39,38,-129,-27,-102,78
,1292,2023-10-20 13:47:06.98,351,-307,-2004,-60,-39,42,-89,51,-140,19
,1293,2023-10-20 13:47:06.99,334,-340,-2042,-44,-37,67,-142,-15,-127,78
,1294,2023-10-20 13:47:07.00,325,-271,-2031,5,-46,69,-80,62,-142,9
,1295,2023-10-20 13:47:07.01,334,-223,-1992,83,-63,24,-138,-15,-123,76
,1296,2023-10-20 13:47:07.02,329,-257,-1966,130,-77,-31,-68,65,-133,1
,1297,2023-10-20 13:47:07.03,305,-312,-1970,130,-68,-49,-146,-23,-123,84
,1298,2023-10-20 13:47:07.04,309,-343,-2001,132,-55,-41,-71,67,-138,2
,1299,2023-10-20 13:47:07.05,313,-357,-2003,130,-44,-23,-157,-27,-130,92
,1300,2023-10-20 13:47:07.06,313,-361,-2003,108,-32,-1,-76,72,-148,2
,1301,2023-10-20 13:47:07.07,318,-401,-2010,80,-14,31,-155,-8,-147,81
,1302,2023-10-20 13:47:07.08,316,-389,-2003,71,19,64,-78,83,-161,-2
,1303,2023-10-20 13:47:07.09,332,-371,-1990,69,48,105,-166,1,-167,82
,1304,2023-10-20 13:47:07.10,330,-349,-1992,54,70,138,-69,66,-135,1
,1305,2023-10-20 13:47:07.11,347,-311,-1993,49,71,145,-161,-45,-116,103
,1306,2023-10-20 13:47:07.12,348,-320,-2019,44,53,138,-61,46,-107,7
,1307,2023-10-20 13:47:07.13,345,-303,-2014,29,35,123,-168,-42,-126,105
,1308,2023-10-20 13:47:07.14,361,-292,-2023,16,19,105,-65,77,-142,-6
,1309,2023-10-20 13:47:07.15,366,-311,-2028,15,11,92,-172,-12,-160,92
,1310,2023-10-20 13:47:07.16,364,-330,-2025,18,12,91,-57,85,-142,-14
,1311,2023-10-20 13:47:07.17,369,-292,-2019,18,11,88,-170,-25,-145,97
,1312,2023-10-20 13:47:07.18,378,-275,-2021,19,4,75,-54,57,-111,-1
,1313,2023-10-20 13:47:07.19,371,-281,-2029,26,-6,46,-178,-56,-122,117
,1314,2023-10-20 13:47:07.20,363,-305,-2021,32,-19,18,-55,68,-123,-6
,1315,2023-10-20 13:47:07.21,357,-315,-2024,41,-23,-2,-177,-23,-154,100
,1316,2023-10-20 13:47:07.22,376,-298,-2018,48,-23,-13,-52,75,-127,-11
,1317,2023-10-20 13:47:07.23,363,-297,-2010,52,-25,-26,-184,-38,-146,111
,1318,2023-10-20 13:47:07.24,379,-316,-2006,52,-29,-39,-44,66,-110,-11
,1319,2023-10-20 13:47:07.25,384,-338,-2016,50,-34,-38,-179,-46,-133,112
,1320,2023-10-20 13:47:07.26,372,-367,-2026,43,-37,-25,-48,46,-94,1
,1321,2023-10-20 13:47:07.27,373,-374,-2020,35,-38,-5,-194,-66,-128,130
,1322,2023-10-20 13:47:07.28,360,-372,-2025,30,-36,20,-48,32,-80,8
,1323,2023-10-20 13:47:07.29,353,-380,-2024,33,-27,43,-194,-76,-118,135
,1324,2023-10-20 13:47:07.30,354,-372,-2028,40,-20,66,-47,41,-88,3
,1325,2023-10-20 13:47:07.31,341,-352,-2019,50,-17,83,-200,-65,-135,132
,1326,2023-10-20 13:47:07.32,337,-359,-2010,61,-19,90,-46,64,-110,-9
,1327,2023-10-20 13:47:07.33,346,-352,-2003,74,-24,91,-205,-45,-160,125
,1328,2023-10-20 13:47:07.34,335,-316,-1984,91,-25,79,-47,38,-85,4
,1329,2023-10-20 13:47:07.35,334,-325,-1972,102,-28,73,-203,-79,-124,141
,1330,2023-10-20 13:47:07.36,346,-336,-1966,109,-25,61,-48,12,-60,18
,1331,2023-10-20 13:47:07.37,343,-353,-1981,111,-17,53,-211,-100,-111,155
,1332,2023-10-20 13:47:07.38,351,-377,-1972,97,-9,68,-48,11,-59,18
,1333,2023-10-20 13:47:07.39,346,-393,-2005,84,0,93,-212,-91,-121,151
,1334,2023-10-20 13:47:07.40,337,-388,-2022,81,-2,115,-45,24,-69,10
,1335,2023-10-20 13:47:07.41,348,-355,-2003,77,-4,121,-216,-76,-140,146
,1336,2023-10-20 13:47:07.42,340,-366,-2019,68,-13,115,-41,71,-112,-15
,1337,2023-10-20 13:47:07.43,338,-347,-2024,53,-11,108,-202,-31,-171,116
,1338,2023-10-20 13:47:07.44,340,-347,-2022,48,-18,89,-42,73,-115,-15
,1339,2023-10-20 13:47:07.45,321,-363,-2029,46,-19,72,-219,-56,-163,137
,1340,2023-10-20 13:47:07.46,331,-365,-2017,42,-23,62,-42,48,-90,-3
,1341,2023-10-20 13:47:07.47,334,-369,-2014,37,-21,51,-216,-66,-150,141
,1342,2023-10-20 13:47:07.48,333,-369,-2005,39,-19,39,-35,46,-81,-5
,1343,2023-10-20 13:47:07.49,327,-382,-2007,37,-13,34,-216,-70,-146,143
,1344,2023-10-20 13:47:07.50,320,-392,-2013,33,-12,33,-36,50,-86,-7
,1345,2023-10-20 13:47:07.51,318,-387,-1994,22,-6,35,-226,-68,-158,147
,1346,2023-10-20 13:47:07.52,321,-394,-1994,17,-3,42,-46,59,-105,-6
,1347,2023-10-20 13:47:07.53,322,-395,-1986,14,1,49,-227,-57,-170,142
,1348,2023-10-20 13:47:07.54,324,-377,-1983,4,3,64,-48,49,-97,0
,1349,2023-10-20 13:47:07.55,320,-370,-1974,2,5,70,-228,-66,-162,147
,1350,2023-10-20 13:47:07.56,321,-376,-1978,-1,11,74,-42,42,-84,0
,1351,2023-10-20 13:47:07.57,318,-371,-1987,-9,15,83,-224,-73,-151,148
,1352,2023-10-20 13:47:07.58,320,-354,-1989,-18,15,90,-50,38,-88,6
,1353,2023-10-20 13:47:07.59,329,-371,-2000,-22,17,93,-233,-73,-160,153
,1354,2023-10-20 13:47:07.60,324,-372,-1999,-27,17,93,-48,40,-88,4
,1355,2023-10-20 13:47:07.61,334,-371,-2004,-31,11,96,-228,-75,-153,151
,1356,2023-10-20 13:47:07.62,305,-384,-2049,-35,14,103,-46,32,-78,7
,1357,2023-10-20 13:47:07.63,335,-292,-2021,-53,24,96,-227,-71,-156,149
,1358,2023-10-20 13:47:07.64,290,-286,-2077,-15,34,33,-46,19,-65,13
,1359,2023-10-20 13:47:07.65,310,-339,-1973,1,17,-19,-229,-92,-137,160
,1360,2023-10-20 13:47:07.66,321,-327,-1994,3,13,-34,-52,4,-56,24
,1361,2023-10-20 13:47:07.67,325,-379,-2001,-14,-6,-16,-234,-91,-143,162
,1362,2023-10-20 13:47:07.68,336,-389,-2010,-41,-6,3,-52,7,-59,22
,1363,2023-10-20 13:47:07.69,326,-399,-2030,-66,-3,27,-229,-90,-139,159
,1364,2023-10-20 13:47:07.70,332,-367,-2034,-93,5,61,-47,27,-74,10
,1365,2023-10-20 13:47:07.71,346,-356,-2006,-106,19,88,-223,-61,-162,142
,1366,2023-10-20 13:47:07.72,345,-354,-2022,-115,35,109,-46,44,-90,1
,1367,2023-10-20 13:47:07.73,357,-311,-2032,-108,30,113,-224,-60,-164,142
,1368,2023-10-20 13:47:07.74,350,-282,-2039,-108,12,103,-49,25,-74,12
,1369,2023-10-20 13:47:07.75,351,-287,-2011,-106,-2,82,-225,-71,-154,148
,1370,2023-10-20 13:47:07.76,350,-310,-2024,-107,-7,68,-55,16,-71,19
,1371,2023-10-20 13:47:07.77,330,-308,-2040,-104,-2,63,-227,-78,-149,152
,1372,2023-10-20 13:47:07.78,337,-283,-2042,-84,3,57,-55,7,-62,24
,1373,2023-10-20 13:47:07.79,343,-253,-2036,-54,-1,40,-221,-76,-145,148
,1374,2023-10-20 13:47:07.80,331,-267,-2022,-35,-9,22,-56,9,-65,23
,1375,2023-10-20 13:47:07.81,327,-268,-2017,-23,-21,-7,-221,-70,-151,145
,1376,2023-10-20 13:47:07.82,338,-261,-2004,-7,-31,-46,-53,13,-66,20
,1377,2023-10-20 13:47:07.83,327,-303,-2008,-12,-29,-63,-219,-65,-154,142
,1378,2023-10-20 13:47:07.84,327,-329,-2003,-26,-21,-51,-51,27,-78,12
,1379,2023-10-20 13:47:07.85,326,-349,-2005,-31,-11,-26,-216,-56,-160,136
,1380,2023-10-20 13:47:07.86,338,-356,-2017,-31,-1,4,-58,5,-63,26
,1381,2023-10-20 13:47:07.87,321,-363,-2006,-35,2,36,-214,-81,-133,147
,1382,2023-10-20 13:47:07.88,343,-349,-2001,-37,4,63,-56,-30,-26,43
,1383,2023-10-20 13:47:07.89,340,-341,-2005,-42,0,91,-208,-90,-118,149
,1384,2023-10-20 13:47:07.90,349,-332,-2013,-43,5,110,-64,-38,-26,51
,1385,2023-10-20 13:47:07.91,343,-338,-2018,-45,1,124,-209,-80,-129,144
,1386,2023-10-20 13:47:07.92,333,-324,-2032,-43,-2,135,-65,-12,-53,38
,1387,2023-10-20 13:47:07.93,338,-314,-2034,-44,-11,141,-218,-69,-149,143
,1388,2023-10-20 13:47:07.94,330,-319,-2033,-41,-21,140,-72,0,-72,36
,1389,2023-10-20 13:47:07.95,334,-318,-2024,-33,-28,135,-203,-55,-148,129
,1390,2023-10-20 13:47:07.96,320,-310,-2023,-25,-38,131,-61,-11,-50,36
,1391,2023-10-20 13:47:07.97,322,-299,-2016,-14,-42,120,-196,-64,-132,130
,1392,2023-10-20 13:47:07.98,323,-300,-2014,-3,-43,109,-65,-35,-30,50
,1393,2023-10-20 13:47:07.99,319,-299,-2026,8,-43,97,-191,-64,-127,127
,1394,2023-10-20 13:47:08.00,314,-294,-2021,13,-41,88,-74,-27,-47,50
,1395,2023-10-20 13:47:08.01,307,-307,-2017,16,-35,77,-192,-63,-129,127
,1396,2023-10-20 13:47:08.02,313,-308,-2014,19,-24,67,-75,-45,-30,60
,1397,2023-10-20 13:47:08.03,300,-311,-2022,21,-19,58,-184,-73,-111,128
,1398,2023-10-20 13:47:08.04,313,-323,-2017,22,-17,55,-79,-54,-25,66
,1399,2023-10-20 13:47:08.05,308,-311,-2019,26,-17,50,-183,-61,-122,122
,1400,2023-10-20 13:47:08.06,309,-315,-2013,27,-17,45,-82,-28,-54,55
,1401,2023-10-20 13:47:08.07,305,-327,-2021,27,-17,43,-181,-69,-112,125
,1402,2023-10-20 13:47:08.08,306,-316,-2014,22,-19,39,-82,-102,20,92
,1403,2023-10-20 13:47:08.09,293,-316,-2022,17,-18,35,-172,-91,-81,131
,1404,2023-10-20 13:47:08.10,294,-314,-2023,15,-19,38,-91,-57,-34,74
,1405,2023-10-20 13:47:08.11,288,-302,-2016,13,-21,34,-177,-41,-136,109
,1406,2023-10-20 13:47:08.12,299,-307,-2022,12,-20,29,-98,-23,-75,60
,1407,2023-10-20 13:47:08.13,302,-304,-2015,5,-19,25,-169,-37,-132,103
,1408,2023-10-20 13:47:08.14,288,-303,-2020,1,-18,18,-93,-52,-41,72
,1409,2023-10-20 13:47:08.15,296,-312,-2028,1,-18,16,-159,-46,-113,102
,1410,2023-10-20 13:47:08.16,295,-297,-2017,3,-17,18,-89,-36,-53,62
,1411,2023-10-20 13:47:08.17,283,-304,-2008,1,-9,20,-158,-22,-136,90
,1412,2023-10-20 13:47:08.18,284,-304,-2007,1,-3,18,-100,-28,-72,64
,1413,2023-10-20 13:47:08.19,288,-302,-1996,5,5,16,-150,-2,-148,76
,1414,2023-10-20 13:47:08.20,286,-309,-2004,9,10,15,-99,-13,-86,56
,1415,2023-10-20 13:47:08.21,284,-303,-2012,10,18,16,-148,-9,-139,78
,1416,2023-10-20 13:47:08.22,300,-303,-2013,11,18,16,-103,-37,-66,70
,1417,2023-10-20 13:47:08.23,304,-301,-2026,11,20,14,-141,-19,-122,80
,1418,2023-10-20 13:47:08.24,305,-305,-2024,17,24,14,-104,-44,-60,74
,1419,2023-10-20 13:47:08.25,294,-307,-2030,15,28,16,-130,1,-131,64
,1420,2023-10-20 13:47:08.26,293,-293,-2037,25,28,16,-108,-22,-86,65
,1421,2023-10-20 13:47:08.27,293,-258,-2011,37,17,-8,-132,-7,-125,69
,1422,2023-10-20 13:47:08.28,286,-309,-2017,30,7,-12,-104,-59,-45,81
,1423,2023-10-20 13:47:08.29,285,-329,-2030,18,8,-9,-125,-30,-95,77
,1424,2023-10-20 13:47:08.30,293,-295,-2033,36,12,-28,-116,-62,-54,89
,1425,2023-10-20 13:47:08.31,289,-259,-1996,70,15,-60,-126,-22,-104,74
,1426,2023-10-20 13:47:08.32,299,-291,-1992,70,19,-76,-115,-67,-48,91
,1427,2023-10-20 13:47:08.33,332,-311,-2003,34,18,-78,-122,-14,-108,68
,1428,2023-10-20 13:47:08.34,323,-360,-2011,-2,3,-70,-132,-63,-69,97
,1429,2023-10-20 13:47:08.35,302,-378,-2035,-26,0,-42,-117,-12,-105,64
,1430,2023-10-20 13:47:08.36,331,-369,-2021,-31,1,-4,-123,-79,-44,101
,1431,2023-10-20 13:47:08.37,334,-367,-2027,-28,13,26,-111,-34,-77,72
,1432,2023-10-20 13:47:08.38,331,-357,-2028,-28,30,59,-124,-93,-31,108
,1433,2023-10-20 13:47:08.39,329,-335,-2032,-20,34,85,-102,-18,-84,60
,1434,2023-10-20 13:47:08.40,331,-317,-2023,-7,30,92,-128,-56,-72,92
,1435,2023-10-20 13:47:08.41,332,-310,-2034,-8,18,100,-103,0,-103,51
,1436,2023-10-20 13:47:08.42,328,-291,-2038,-11,-1,101,-129,-73,-56,101
,1437,2023-10-20 13:47:08.43,318,-276,-2027,-8,-19,84,-97,-10,-87,53
,1438,2023-10-20 13:47:08.44,305,-289,-2021,-24,-31,72,-140,-66,-74,103
,1439,2023-10-20 13:47:08.45,315,-280,-2021,-24,-34,55,-93,-21,-72,57
,1440,2023-10-20 13:47:08.46,325,-289,-2013,-16,-30,33,-127,-96,-31,111
,1441,2023-10-20 13:47:08.47,312,-310,-2016,-8,-23,17,-84,-9,-75,46
,1442,2023-10-20 13:47:08.48,311,-319,-2016,1,-11,14,-141,-66,-75,103
,1443,2023-10-20 13:47:08.49,307,-294,-2007,18,-1,8,-85,13,-98,36
,1444,2023-10-20 13:47:08.50,317,-304,-2018,25,0,2,-144,-60,-84,102
,1445,2023-10-20 13:47:08.51,311,-308,-2018,29,-1,2,-84,-11,-73,47
,1446,2023-10-20 13:47:08.52,312,-331,-2015,25,-5,3,-148,-98,-50,123
,1447,2023-10-20 13:47:08.53,305,-335,-2016,17,-3,14,-81,-1,-80,41
,1448,2023-10-20 13:47:08.54,303,-326,-2021,6,2,25,-152,-61,-91,106
,1449,2023-10-20 13:47:08.55,309,-311,-2022,0,0,29,-76,10,-86,33
,1450,2023-10-20 13:47:08.56,309,-316,-2018,-3,0,24,-155,-86,-69,120
,1451,2023-10-20 13:47:08.57,312,-306,-2011,-8,0,19,-69,-3,-66,36
,1452,2023-10-20 13:47:08.58,315,-320,-2018,-13,2,21,-159,-87,-72,123
,1453,2023-10-20 13:47:08.59,321,-325,-2021,-19,5,25,-75,7,-82,34
,1454,2023-10-20 13:47:08.60,319,-327,-2023,-24,8,30,-166,-72,-94,119
,1455,2023-10-20 13:47:08.61,320,-319,-2014,-27,10,28,-65,11,-76,27
,1456,2023-10-20 13:47:08.62,307,-318,-2021,-30,19,32,-165,-83,-82,124
,1457,2023-10-20 13:47:08.63,323,-309,-2015,-32,20,38,-58,15,-73,21
,1458,2023-10-20 13:47:08.64,317,-307,-2024,-31,21,40,-169,-78,-91,123
,1459,2023-10-20 13:47:08.65,317,-298,-2018,-22,20,38,-65,3,-68,31
,1460,2023-10-20 13:47:08.66,324,-293,-2009,-18,16,31,-168,-82,-86,125
,1461,2023-10-20 13:47:08.67,317,-292,-2015,-16,15,26,-57,-5,-52,31
,1462,2023-10-20 13:47:08.68,318,-287,-2006,-16,16,19,-180,-100,-80,140
,1463,2023-10-20 13:47:08.69,310,-281,-2006,-14,19,17,-60,6,-66,27
,1464,2023-10-20 13:47:08.70,313,-297,-2025,-13,20,19,-180,-79,-101,129
,1465,2023-10-20 13:47:08.71,311,-299,-2019,-11,20,18,-48,33,-81,7
,1466,2023-10-20 13:47:08.72,321,-300,-2024,-16,21,19,-189,-72,-117,130
,1467,2023-10-20 13:47:08.73,312,-291,-2026,-23,22,25,-48,5,-53,21
,1468,2023-10-20 13:47:08.74,321,-295,-2042,-27,21,28,-176,-111,-65,143
,1469,2023-10-20 13:47:08.75,303,-290,-2031,-25,21,29,-43,-8,-35,25
,1470,2023-10-20 13:47:08.76,313,-284,-2028,-19,16,26,-189,-100,-89,144
,1471,2023-10-20 13:47:08.77,320,-282,-2025,-20,17,21,-50,6,-56,22
,1472,2023-10-20 13:47:08.78,319,-285,-2015,-18,15,17,-197,-100,-97,148
,1473,2023-10-20 13:47:08.79,312,-306,-2019,-23,12,21,-43,34,-77,4
,1474,2023-10-20 13:47:08.80,315,-296,-2010,-17,20,24,-188,-68,-120,128
,1475,2023-10-20 13:47:08.81,313,-315,-2013,-13,22,37,-34,-4,-30,19
,1476,2023-10-20 13:47:08.82,304,-298,-2023,-14,28,50,-196,-119,-77,157
,1477,2023-10-20 13:47:08.83,309,-268,-2017,-4,23,50,-46,-2,-44,24
,1478,2023-10-20 13:47:08.84,312,-283,-2026,-3,22,44,-203,-98,-105,150
,1479,2023-10-20 13:47:08.85,328,-294,-2027,-11,25,43,-42,18,-60,12
,1480,2023-10-20 13:47:08.86,309,-285,-2022,-12,39,37,-202,-84,-118,143
,1481,2023-10-20 13:47:08.87,306,-275,-2024,-5,43,37,-43,12,-55,15
,1482,2023-10-20 13:47:08.88,306,-270,-2025,4,44,37,-212,-106,-106,159
,1483,2023-10-20 13:47:08.89,309,-256,-2018,13,44,30,-41,13,-54,14
,1484,2023-10-20 13:47:08.90,307,-268,-2017,12,39,19,-208,-90,-118,149
,1485,2023-10-20 13:47:08.91,293,-253,-2028,12,35,4,-43,10,-53,16
,1486,2023-10-20 13:47:08.92,320,-251,-2019,23,28,-17,-212,-104,-108,158
,1487,2023-10-20 13:47:08.93,319,-267,-2026,33,26,-34,-42,6,-48,18
,1488,2023-10-20 13:47:08.94,311,-266,-2017,44,27,-51,-221,-101,-120,161
,1489,2023-10-20 13:47:08.95,328,-273,-2013,50,30,-68,-44,-13,-31,28
,1490,2023-10-20 13:47:08.96,339,-289,-2006,52,31,-73,-218,-126,-92,172
,1491,2023-10-20 13:47:08.97,329,-295,-2010,43,34,-62,-40,-26,-14,33
,1492,2023-10-20 13:47:08.98,328,-314,-2023,28,37,-40,-223,-120,-103,171
,1493,2023-10-20 13:47:08.99,329,-317,-2041,15,28,-17,-45,7,-52,19
,1494,2023-10-20 13:47:09.00,319,-304,-2027,19,27,-5,-222,-91,-131,156
,1495,2023-10-20 13:47:09.01,337,-299,-2021,25,30,4,-35,-5,-30,20
,1496,2023-10-20 13:47:09.02,325,-278,-2022,25,33,11,-218,-111,-107,164
,1497,2023-10-20 13:47:09.03,333,-251,-2025,30,29,0,-42,10,-52,16
,1498,2023-10-20 13:47:09.04,321,-256,-2025,32,17,-23,-226,-90,-136,158
,1499,2023-10-20 13:47:09.05,324,-270,-2019,32,7,-45,-46,9,-55,18
,1500,2023-10-20 13:47:09.06,331,-290,-2011,31,4,-57,-229,-101,-128,165
,1501,2023-10-20 13:47:09.07,329,-309,-2022,25,13,-52,-42,1,-43,20
,1502,2023-10-20 13:47:09.08,337,-307,-2004,25,26,-42,-231,-111,-120,171
,1503,2023-10-20 13:47:09.09,341,-307,-2004,23,38,-29,-45,-14,-31,29
,1504,2023-10-20 13:47:09.10,332,-316,-2016,17,56,-16,-232,-111,-121,171
,1505,2023-10-20 13:47:09.11,330,-304,-2016,15,68,-11,-42,-16,-26,29
,1506,2023-10-20 13:47:09.12,345,-290,-2024,22,74,-7,-223,-109,-114,166
,1507,2023-10-20 13:47:09.13,342,-293,-2021,27,81,-3,-50,-2,-48,26
,1508,2023-10-20 13:47:09.14,339,-294,-2020,37,83,-3,-236,-97,-139,166
,1509,2023-10-20 13:47:09.15,340,-276,-2019,50,79,-10,-56,-23,-33,39
,1510,2023-10-20 13:47:09.16,341,-281,-2021,58,67,-19,-230,-121,-109,175
,1511,2023-10-20 13:47:09.17,348,-289,-2025,56,55,-22,-53,-9,-44,31
,1512,2023-10-20 13:47:09.18,339,-289,-2021,55,44,-23,-233,-91,-142,162
,1513,2023-10-20 13:47:09.19,339,-295,-2012,56,35,-26,-48,-1,-47,24
,1514,2023-10-20 13:47:09.20,344,-308,-2013,48,37,-25,-224,-100,-124,162
,1515,2023-10-20 13:47:09.21,348,-305,-2017,42,38,-15,-49,5,-54,22
,1516,2023-10-20 13:47:09.22,346,-298,-2017,45,40,-8,-228,-77,-151,152
,1517,2023-10-20 13:47:09.23,342,-301,-2014,43,39,-8,-53,29,-82,12
,1518,2023-10-20 13:47:09.24,332,-296,-2023,34,41,-8,-227,-73,-154,150
,1519,2023-10-20 13:47:09.25,354,-288,-2020,23,44,-7,-47,-5,-42,26
,1520,2023-10-20 13:47:09.26,346,-295,-2024,24,42,-2,-220,-101,-119,160
,1521,2023-10-20 13:47:09.27,358,-301,-2016,22,40,5,-53,-16,-37,34
,1522,2023-10-20 13:47:09.28,363,-306,-2021,16,35,10,-225,-89,-136,157
,1523,2023-10-20 13:47:09.29,349,-296,-2019,13,29,14,-47,-8,-39,27
,1524,2023-10-20 13:47:09.30,351,-298,-2026,9,24,18,-213,-89,-124,151
,1525,2023-10-20 13:47:09.31,351,-302,-2021,9,19,25,-45,-7,-38,26
,1526,2023-10-20 13:47:09.32,354,-290,-2017,9,9,27,-213,-91,-122,152
,1527,2023-10-20 13:47:09.33,361,-302,-2016,5,10,29,-52,-55,3,53
,1528,2023-10-20 13:47:09.34,353,-297,-2025,1,5,32,-215,-120,-95,167
,1529,2023-10-20 13:47:09.35,358,-298,-2022,-1,1,38,-58,-50,-8,54
,1530,2023-10-20 13:47:09.36,368,-299,-2005,3,0,39,-218,-101,-117,159
,1531,2023-10-20 13:47:09.37,350,-319,-2018,-2,6,46,-65,-34,-31,49
,1532,2023-10-20 13:47:09.38,334,-306,-2033,4,14,57,-212,-90,-122,151
,1533,2023-10-20 13:47:09.39,335,-276,-2018,37,23,42,-51,-23,-28,37
,1534,2023-10-20 13:47:09.40,333,-221,-2023,82,32,10,-199,-74,-125,136
,1535,2023-10-20 13:47:09.41,347,-236,-1990,95,12,-26,-60,-9,-51,34
,1536,2023-10-20 13:47:09.42,348,-263,-1973,75,-2,-62,-206,-71,-135,138
,1537,2023-10-20 13:47:09.43,345,-300,-1978,43,-7,-95,-58,-38,-20,48
,1538,2023-10-20 13:47:09.44,347,-376,-2011,20,0,-71,-192,-88,-104,140
,1539,2023-10-20 13:47:09.45,355,-382,-2024,14,16,-28,-53,-51,-2,52
,1540,2023-10-20 13:47:09.46,366,-349,-2014,4,32,6,-192,-87,-105,139
,1541,2023-10-20 13:47:09.47,366,-331,-2023,-13,49,36,-74,-43,-31,58
,1542,2023-10-20 13:47:09.48,371,-318,-2030,-23,56,51,-196,-60,-136,128
,1543,2023-10-20 13:47:09.49,365,-299,-2023,-29,52,52,-74,-9,-65,41
,1544,2023-10-20 13:47:09.50,373,-294,-2044,-41,43,58,-192,-54,-138,123
,1545,2023-10-20 13:47:09.51,360,-268,-2031,-42,26,55,-66,-41,-25,53
,1546,2023-10-20 13:47:09.52,355,-256,-2015,-24,15,36,-180,-71,-109,125
,1547,2023-10-20 13:47:09.53,362,-258,-2007,-13,6,13,-78,-52,-26,65
,1548,2023-10-20 13:47:09.54,368,-268,-2002,-11,0,0,-194,-74,-120,134
,1549,2023-10-20 13:47:09.55,350,-284,-2040,-8,4,-6,-76,-41,-35,58
,1550,2023-10-20 13:47:09.56,341,-255,-2030,15,-3,-25,-174,-50,-124,112
,1551,2023-10-20 13:47:09.57,359,-266,-2009,31,-17,-54,-77,-21,-56,49
,1552,2023-10-20 13:47:09.58,361,-276,-2001,30,-18,-69,-175,-50,-125,112
,1553,2023-10-20 13:47:09.59,363,-293,-2014,26,-4,-64,-87,-65,-22,76
,1554,2023-10-20 13:47:09.60,358,-300,-2020,19,3,-42,-177,-67,-110,122
,1555,2023-10-20 13:47:09.61,367,-296,-2021,22,6,-28,-90,-47,-43,68
,1556,2023-10-20 13:47:09.62,366,-306,-2009,23,13,-15,-165,-45,-120,105
,1557,2023-10-20 13:47:09.63,372,-311,-2011,17,22,4,-87,-47,-40,67
,1558,2023-10-20 13:47:09.64,380,-301,-2012,16,27,18,-161,-51,-110,106
,1559,2023-10-20 13:47:09.65,393,-294,-2010,19,31,29,-95,-65,-30,80
,1560,2023-10-20 13:47:09.66,376,-298,-2012,18,28,36,-162,-64,-98,113
,1561,2023-10-20 13:47:09.67,375,-291,-2029,21,23,42,-96,-75,-21,85
,1562,2023-10-20 13:47:09.68,380,-283,-2023,34,11,41,-150,-57,-93,103
,1563,2023-10-20 13:47:09.69,375,-298,-2038,49,-2,34,-88,-79,-9,83
,1564,2023-10-20 13:47:09.70,367,-282,-2019,54,-6,21,-150,-117,-33,133
,1565,2023-10-20 13:47:09.71,369,-281,-2011,51,-8,16,-110,-212,102,161
,1566,2023-10-20 13:47:09.72,367,-275,-2013,56,-8,6,-152,-191,39,171
,1567,2023-10-20 13:47:09.73,362,-294,-2013,61,-4,-1,-109,-214,105,161
,1568,2023-10-20 13:47:09.74,356,-298,-2007,60,4,-2,-148,-153,5,150
,1569,2023-10-20 13:47:09.75,372,-301,-2002,58,7,7,-120,-183,63,151
,1570,2023-10-20 13:47:09.76,368,-309,-2010,58,6,18,-146,-157,11,151
,1571,2023-10-20 13:47:09.77,361,-311,-2011,58,6,24,-106,-187,81,146
,1572,2023-10-20 13:47:09.78,368,-306,-2007,42,17,36,-120,-31,-89,75
,1573,2023-10-20 13:47:09.79,359,-307,-2009,35,22,43,-94,59,-153,17
,1574,2023-10-20 13:47:09.80,357,-293,-2013,38,24,45,-117,112,-229,2
,1575,2023-10-20 13:47:09.81,358,-290,-2011,44,15,38,-92,59,-151,16
,1576,2023-10-20 13:47:09.82,359,-285,-2005,47,9,28,-102,76,-178,13
,1577,2023-10-20 13:47:09.83,363,-293,-2002,44,6,21,-97,36,-133,30
,1578,2023-10-20 13:47:09.84,354,-305,-2015,44,4,13,-96,78,-174,9
,1579,2023-10-20 13:47:09.85,372,-301,-2008,37,4,12,-84,30,-114,27
,1580,2023-10-20 13:47:09.86,365,-305,-2012,34,4,12,-84,76,-160,4
,1581,2023-10-20 13:47:09.87,370,-318,-2020,26,4,12,-93,33,-126,30
,1582,2023-10-20 13:47:09.88,369,-311,-2011,20,2,11,-80,78,-158,1
,1583,2023-10-20 13:47:09.89,376,-317,-2010,18,-2,12,-82,28,-110,27
,1584,2023-10-20 13:47:09.90,375,-309,-2014,6,0,12,-65,75,-140,-5
,1585,2023-10-20 13:47:09.91,352,-313,-2006,0,6,6,-90,12,-102,39
,1586,2023-10-20 13:47:09.92,357,-318,-2010,-7,2,8,-66,69,-135,-1
,1587,2023-10-20 13:47:09.93,367,-307,-2017,-13,0,10,-97,18,-115,39
,1588,2023-10-20 13:47:09.94,372,-308,-2014,-14,-8,5,-62,76,-138,-7
,1589,2023-10-20 13:47:09.95,363,-325,-2017,-20,-12,6,-94,5,-99,44
,1590,2023-10-20 13:47:09.96,374,-314,-2021,-25,-11,7,-55,70,-125,-7
,1591,2023-10-20 13:47:09.97,369,-335,-2003,-21,-7,9,-100,-3,-97,51
,1592,2023-10-20 13:47:09.98,356,-317,-2012,2,8,6,-63,44,-107,9
,1593,2023-10-20 13:47:09.99,361,-267,-1996,41,21,-17,-96,-18,-78,57
,1594,2023-10-20 13:47:10.00,376,-306,-1990,46,19,-29,-43,80,-123,-18
,1595,2023-10-20 13:47:10.01,381,-303,-2000,24,7,-30,-103,17,-120,43
,1596,2023-10-20 13:47:10.02,370,-323,-1990,4,-10,-39,-44,78,-122,-17
,1597,2023-10-20 13:47:10.03,368,-340,-1992,-5,-10,-41,-111,-13,-98,62
,1598,2023-10-20 13:47:10.04,372,-367,-2020,-20,2,-17,-49,-97,48,73
,1599,2023-10-20 13:47:10.05,380,-324,-2004,-25,18,11,-136,-264,128,200
,1600,2023-10-20 13:47:10.06,367,-304,-2021,-23,20,21,-72,-222,150,147
,1601,2023-10-20 13:47:10.07,384,-304,-2025,-27,20,26,-161,-265,104,213
,1602,2023-10-20 13:47:10.08,382,-299,-2025,-32,11,18,-76,-124,48,100
,1603,2023-10-20 13:47:10.09,377,-289,-2019,-41,3,8,-159,-154,-5,156
,1604,2023-10-20 13:47:10.10,377,-277,-2020,-55,-1,0,-71,-94,23,82
,1605,2023-10-20 13:47:10.11,358,-285,-2031,-65,-8,3,-166,-188,22,177
,1606,2023-10-20 13:47:10.12,364,-281,-2024,-66,-18,3,-66,-125,59,95
,1607,2023-10-20 13:47:10.13,368,-276,-2015,-60,-28,-2,-175,-192,17,183
,1608,2023-10-20 13:47:10.14,362,-282,-2016,-66,-25,3,-70,-114,44,92
,1609,2023-10-20 13:47:10.15,348,-271,-2021,-68,-27,9,-177,-179,2,178
,1610,2023-10-20 13:47:10.16,368,-254,-2007,-51,-30,1,-72,-52,-20,62
,1611,2023-10-20 13:47:10.17,347,-270,-2011,-35,-28,5,-194,-114,-80,154
,1612,2023-10-20 13:47:10.18,348,-266,-2004,-22,-20,5,-71,-96,25,83
,1613,2023-10-20 13:47:10.19,369,-272,-2012,-12,-17,14,-183,-206,23,194
,1614,2023-10-20 13:47:10.20,346,-275,-2005,3,-12,15,-62,-144,82,103
,1615,2023-10-20 13:47:10.21,350,-279,-2016,20,-7,15,-197,-204,7,200
,1616,2023-10-20 13:47:10.22,339,-272,-2017,35,-6,15,-64,45,-109,9
,1617,2023-10-20 13:47:10.23,354,-265,-2015,44,-4,12,-182,29,-211,76
,1618,2023-10-20 13:47:10.24,350,-263,-2009,58,-8,1,-37,139,-176,-51
,1619,2023-10-20 13:47:10.25,344,-259,-2008,71,-14,-18,-167,-2,-165,84
,1620,2023-10-20 13:47:10.26,352,-271,-2014,72,-18,-30,-27,107,-134,-40
,1621,2023-10-20 13:47:10.27,349,-278,-2012,70,-15,-40,-168,-8,-160,88
,1622,2023-10-20 13:47:10.28,331,-286,-2017,71,-13,-46,-31,109,-140,-39
,1623,2023-10-20 13:47:10.29,354,-280,-2008,75,-9,-53,-176,-9,-167,92
,1624,2023-10-20 13:47:10.30,349,-299,-2004,76,-7,-66,-24,107,-131,-41
,1625,2023-10-20 13:47:10.31,361,-311,-2013,65,2,-67,-172,-24,-148,98
,1626,2023-10-20 13:47:10.32,361,-299,-2000,54,7,-59,-37,56,-93,-9
,1627,2023-10-20 13:47:10.33,360,-322,-2009,43,8,-37,-202,-88,-114,145
,1628,2023-10-20 13:47:10.34,367,-319,-2021,37,15,-24,-45,-134,89,89
,1629,2023-10-20 13:47:10.35,352,-315,-2022,30,21,-16,-205,-263,58,234
,1630,2023-10-20 13:47:10.36,360,-316,-2017,11,21,-3,-44,-103,59,73
,1631,2023-10-20 13:47:10.37,359,-318,-2019,-1,16,9,-202,-126,-76,164
,1632,2023-10-20 13:47:10.38,362,-306,-2020,-6,11,13,-40,12,-52,14
,1633,2023-10-20 13:47:10.39,369,-314,-2018,-18,10,29,-215,-106,-109,160
,1634,2023-10-20 13:47:10.40,384,-311,-2022,-28,15,51,-42,-8,-34,25
,1635,2023-10-20 13:47:10.41,364,-294,-2031,-22,17,72,-205,-111,-94,158
,1636,2023-10-20 13:47:10.42,359,-281,-2030,-4,19,86,-35,7,-42,14
,1637,2023-10-20 13:47:10.43,378,-281,-2021,7,11,87,-208,-99,-109,153
,1638,2023-10-20 13:47:10.44,376,-271,-2013,16,7,79,-34,-11,-23,22
,1639,2023-10-20 13:47:10.45,364,-282,-2011,19,-2,74,-206,-114,-92,160
,1640,2023-10-20 13:47:10.46,375,-276,-2008,33,-6,58,-36,29,-65,3
,1641,2023-10-20 13:47:10.47,364,-290,-2007,43,0,50,-219,-72,-147,145
,1642,2023-10-20 13:47:10.48,367,-300,-2005,50,5,46,-40,35,-75,2
,1643,2023-10-20 13:47:10.49,367,-305,-2014,57,10,52,-215,-85,-130,150
,1644,2023-10-20 13:47:10.50,366,-286,-2004,65,5,45,-36,38,-74,-1
,1645,2023-10-20 13:47:10.51,368,-317,-2007,61,2,46,-215,-70,-145,142
,1646,2023-10-20 13:47:10.52,365,-308,-2018,47,6,52,-33,39,-72,-3
,1647,2023-10-20 13:47:10.53,362,-289,-2011,43,8,46,-215,-78,-137,146
,1648,2023-10-20 13:47:10.54,375,-292,-2014,38,11,43,-32,37,-69,-2
,1649,2023-10-20 13:47:10.55,368,-289,-2013,39,9,39,-213,-76,-137,144
,1650,2023-10-20 13:47:10.56,369,-284,-2005,43,6,29,-31,21,-52,5
,1651,2023-10-20 13:47:10.57,377,-293,-2013,42,6,19,-221,-100,-121,160
,1652,2023-10-20 13:47:10.58,366,-299,-2016,40,4,14,-43,-34,-9,38
,1653,2023-10-20 13:47:10.59,374,-306,-2016,39,3,7,-228,-130,-98,179
,1654,2023-10-20 13:47:10.60,374,-305,-2017,36,0,7,-42,7,-49,17
,1655,2023-10-20 13:47:10.61,374,-298,-2013,28,3,8,-224,-86,-138,155
,1656,2023-10-20 13:47:10.62,370,-303,-2007,18,2,9,-46,15,-61,15
,1657,2023-10-20 13:47:10.63,361,-302,-2008,10,6,12,-228,-95,-133,161
,1658,2023-10-20 13:47:10.64,373,-315,-1997,5,4,12,-38,-23,-15,30
,1659,2023-10-20 13:47:10.65,373,-307,-2010,-3,7,18,-223,-117,-106,170
,1660,2023-10-20 13:47:10.66,362,-305,-2014,-6,10,22,-40,12,-52,14
,1661,2023-10-20 13:47:10.67,367,-294,-2015,-7,7,25,-221,-81,-140,151
,1662,2023-10-20 13:47:10.68,374,-291,-2016,-14,6,23,-40,1,-41,19
,1663,2023-10-20 13:47:10.69,368,-292,-2024,-21,4,21,-229,-95,-134,162
,1664,2023-10-20 13:47:10.70,366,-297,-2029,-26,5,21,-50,7,-57,21
,1665,2023-10-20 13:47:10.71,352,-290,-2023,-23,5,20,-228,-85,-143,156
,1666,2023-10-20 13:47:10.72,351,-298,-2019,-4,3,12,-50,-14,-36,32
,1667,2023-10-20 13:47:10.73,363,-256,-2003,22,9,-14,-226,-108,-118,167
,1668,2023-10-20 13:47:10.74,362,-266,-1994,28,1,-32,-44,-9,-35,26
,1669,2023-10-20 13:47:10.75,368,-288,-2011,21,-9,-42,-224,-97,-127,160
,1670,2023-10-20 13:47:10.76,365,-302,-2009,9,-27,-53,-51,-23,-28,37
,1671,2023-10-20 13:47:10.77,362,-324,-2016,-5,-33,-51,-224,-115,-109,169
,1672,2023-10-20 13:47:10.78,359,-351,-2020,-23,-25,-28,-49,-56,7,52
,1673,2023-10-20 13:47:10.79,377,-334,-2015,-33,-12,6,-223,-131,-92,177
,1674,2023-10-20 13:47:10.80,368,-334,-2014,-41,-3,37,-47,-60,13,53
,1675,2023-10-20 13:47:10.81,362,-317,-2018,-50,1,55,-214,-118,-96,166
,1676,2023-10-20 13:47:10.82,360,-315,-2021,-58,0,65,-49,-26,-23,37
,1677,2023-10-20 13:47:10.83,365,-299,-2028,-63,-5,76,-218,-94,-124,156
,1678,2023-10-20 13:47:10.84,360,-293,-2024,-63,-16,82,-57,-44,-13,50
,1679,2023-10-20 13:47:10.85,358,-277,-2020,-65,-22,76,-215,-102,-113,158
,1680,2023-10-20 13:47:10.86,368,-280,-2028,-62,-26,73,-52,-16,-36,34
,1681,2023-10-20 13:47:10.87,364,-276,-2036,-60,-30,72,-209,-72,-137,140
,1682,2023-10-20 13:47:10.88,362,-267,-2032,-51,-34,61,-52,-2,-50,27
,1683,2023-10-20 13:47:10.89,370,-261,-2023,-47,-42,49,-208,-73,-135,140
,1684,2023-10-20 13:47:10.90,354,-271,-2012,-46,-45,43,-57,-22,-35,39
,1685,2023-10-20 13:47:10.91,348,-278,-2008,-44,-46,36,-205,-76,-129,140
,1686,2023-10-20 13:47:10.92,360,-303,-2007,-48,-40,47,-60,-6,-54,33
,1687,2023-10-20 13:47:10.93,342,-288,-2014,-53,-31,61,-201,-57,-144,129
,1688,2023-10-20 13:47:10.94,355,-280,-2019,-58,-25,71,-56,0,-56,28
,1689,2023-10-20 13:47:10.95,361,-270,-2009,-60,-23,72,-193,-64,-129,128
,1690,2023-10-20 13:47:10.96,354,-273,-2021,-60,-19,67,-59,-52,-7,55
