// Data mode  : Full
// Data quality  : High
// Acceleration sensor's range  : 16g
// Gyroscope sensor's range  : 2000dps
//
//ARTIFACT,NUM,DATE,ACC_X,ACC_Y,ACC_Z,GYRO_X,GYRO_Y,GYRO_Z,EOG_L,EOG_R,EOG_H,EOG_V
,1,2023-10-27 11:16:51.90,175,-111,-2066,34,31,0,-353,-544,191,448
,2,2023-10-27 11:16:51.91,183,-108,-2071,22,44,6,-166,-400,234,283
,3,2023-10-27 11:16:51.92,153,-109,-2061,8,58,8,-369,-575,206,472
,4,2023-10-27 11:16:51.93,155,-111,-2048,5,40,14,-178,-438,260,308
,5,2023-10-27 11:16:51.94,172,-112,-2050,9,29,22,-369,-592,223,480
,6,2023-10-27 11:16:51.95,152,-116,-2041,2,31,24,-172,-424,252,298
,7,2023-10-27 11:16:51.96,167,-107,-2050,1,28,30,-366,-557,191,461
,8,2023-10-27 11:16:51.97,173,-105,-2058,-3,39,30,-156,-356,200,256
,9,2023-10-27 11:16:51.98,153,-107,-2049,-2,30,31,-354,-506,152,430
,10,2023-10-27 11:16:51.99,183,-102,-2051,2,18,34,-150,-333,183,241
,11,2023-10-27 11:16:52.00,178,-96,-2063,1,24,30,-359,-510,151,434
,12,2023-10-27 11:16:52.01,170,-94,-2057,-5,33,28,-166,-362,196,264
,13,2023-10-27 11:16:52.02,170,-92,-2064,-9,25,26,-365,-520,155,442
,14,2023-10-27 11:16:52.03,184,-90,-2074,-13,30,25,-160,-329,169,244
,15,2023-10-27 11:16:52.04,175,-96,-2050,-14,29,23,-354,-495,141,424
,16,2023-10-27 11:16:52.05,182,-94,-2057,-7,19,24,-162,-348,186,255
,17,2023-10-27 11:16:52.06,170,-95,-2053,-17,44,15,-364,-509,145,436
,18,2023-10-27 11:16:52.07,159,-96,-2051,-20,36,15,-160,-324,164,242
,19,2023-10-27 11:16:52.08,176,-96,-2061,-6,8,20,-351,-464,113,407
,20,2023-10-27 11:16:52.09,205,-102,-2060,1,12,19,-147,-291,144,219
,21,2023-10-27 11:16:52.10,168,-102,-2055,3,21,15,-357,-478,121,417
,22,2023-10-27 11:16:52.11,165,-104,-2055,7,8,16,-157,-333,176,245
,23,2023-10-27 11:16:52.12,184,-92,-2060,10,3,16,-356,-493,137,424
,24,2023-10-27 11:16:52.13,172,-98,-2062,15,2,18,-148,-308,160,228
,25,2023-10-27 11:16:52.14,176,-104,-2051,23,-9,19,-358,-487,129,422
,26,2023-10-27 11:16:52.15,164,-109,-2061,28,-11,17,-163,-349,186,256
,27,2023-10-27 11:16:52.16,166,-104,-2063,27,-16,21,-370,-504,134,437
,28,2023-10-27 11:16:52.17,166,-105,-2045,29,-20,23,-162,-321,159,241
,29,2023-10-27 11:16:52.18,179,-98,-2051,35,-21,23,-357,-458,101,407
,30,2023-10-27 11:16:52.19,172,-100,-2056,35,-22,23,-156,-287,131,221
,31,2023-10-27 11:16:52.20,161,-103,-2056,34,-24,21,-362,-492,130,427
,32,2023-10-27 11:16:52.21,171,-109,-2060,32,-25,24,-178,-394,216,286
,33,2023-10-27 11:16:52.22,179,-106,-2056,36,-26,25,-385,-582,197,483
,34,2023-10-27 11:16:52.23,160,-111,-2055,34,-29,27,-188,-430,242,309
,35,2023-10-27 11:16:52.24,154,-114,-2056,32,-27,28,-384,-618,234,501
,36,2023-10-27 11:16:52.25,164,-115,-2057,28,-22,32,-193,-519,326,356
,37,2023-10-27 11:16:52.26,156,-108,-2054,26,-19,34,-385,-679,294,532
,38,2023-10-27 11:16:52.27,162,-111,-2049,23,-21,34,-197,-535,338,366
,39,2023-10-27 11:16:52.28,158,-112,-2049,18,-20,33,-388,-669,281,528
,40,2023-10-27 11:16:52.29,168,-109,-2048,16,-16,36,-204,-519,315,361
,41,2023-10-27 11:16:52.30,158,-102,-2044,12,-9,36,-390,-682,292,536
,42,2023-10-27 11:16:52.31,156,-109,-2046,8,-5,34,-202,-571,369,386
,43,2023-10-27 11:16:52.32,150,-114,-2058,6,-3,33,-388,-700,312,544
,44,2023-10-27 11:16:52.33,159,-104,-2057,5,-3,33,-209,-544,335,376
,45,2023-10-27 11:16:52.34,163,-109,-2053,5,-4,34,-384,-640,256,512
,46,2023-10-27 11:16:52.35,151,-103,-2061,5,-4,35,-207,-482,275,344
,47,2023-10-27 11:16:52.36,161,-110,-2057,6,-10,32,-364,-565,201,464
,48,2023-10-27 11:16:52.37,167,-104,-2055,3,-8,31,-182,-393,211,287
,49,2023-10-27 11:16:52.38,151,-106,-2061,6,-9,26,-356,-524,168,440
,50,2023-10-27 11:16:52.39,147,-106,-2056,5,-6,26,-190,-408,218,299
,51,2023-10-27 11:16:52.40,151,-108,-2048,7,-5,23,-361,-529,168,445
,52,2023-10-27 11:16:52.41,152,-113,-2050,8,-4,19,-194,-392,198,293
,53,2023-10-27 11:16:52.42,149,-112,-2053,11,0,16,-363,-554,191,458
,54,2023-10-27 11:16:52.43,147,-110,-2065,12,-2,13,-207,-478,271,342
,55,2023-10-27 11:16:52.44,148,-113,-2052,15,-1,17,-374,-646,272,510
,56,2023-10-27 11:16:52.45,142,-108,-2054,16,-1,16,-219,-545,326,382
,57,2023-10-27 11:16:52.46,156,-108,-2050,17,2,12,-374,-623,249,498
,58,2023-10-27 11:16:52.47,155,-111,-2040,17,4,13,-213,-462,249,337
,59,2023-10-27 11:16:52.48,148,-109,-2057,15,11,11,-349,-525,176,437
,60,2023-10-27 11:16:52.49,156,-108,-2049,17,15,10,-189,-389,200,289
,61,2023-10-27 11:16:52.50,149,-116,-2049,15,18,11,-326,-484,158,405
,62,2023-10-27 11:16:52.51,147,-108,-2046,14,17,9,-198,-393,195,295
,63,2023-10-27 11:16:52.52,142,-109,-2047,16,16,9,-321,-473,152,397
,64,2023-10-27 11:16:52.53,154,-118,-2053,12,20,10,-194,-370,176,282
,65,2023-10-27 11:16:52.54,153,-115,-2049,8,31,11,-336,-487,151,411
,66,2023-10-27 11:16:52.55,165,-110,-2047,7,31,8,-214,-412,198,313
,67,2023-10-27 11:16:52.56,154,-116,-2054,5,36,10,-356,-580,224,468
,68,2023-10-27 11:16:52.57,160,-113,-2056,0,35,12,-243,-539,296,391
,69,2023-10-27 11:16:52.58,154,-116,-2058,3,34,13,-349,-596,247,472
,70,2023-10-27 11:16:52.59,153,-118,-2063,2,32,15,-222,-475,253,348
,71,2023-10-27 11:16:52.60,163,-112,-2055,1,34,18,-326,-531,205,428
,72,2023-10-27 11:16:52.61,171,-108,-2055,1,36,17,-220,-460,240,340
,73,2023-10-27 11:16:52.62,169,-104,-2054,-1,38,14,-334,-588,254,461
,74,2023-10-27 11:16:52.63,162,-120,-2061,-5,37,13,-246,-552,306,399
,75,2023-10-27 11:16:52.64,156,-114,-2059,-2,35,15,-344,-623,279,483
,76,2023-10-27 11:16:52.65,161,-110,-2053,3,28,18,-252,-538,286,395
,77,2023-10-27 11:16:52.66,160,-118,-2044,2,23,16,-333,-534,201,433
,78,2023-10-27 11:16:52.67,165,-117,-2043,2,26,16,-239,-432,193,335
,79,2023-10-27 11:16:52.68,172,-104,-2047,0,32,18,-309,-442,133,375
,80,2023-10-27 11:16:52.69,168,-108,-2050,-1,35,19,-231,-391,160,311
,81,2023-10-27 11:16:52.70,161,-108,-2047,1,31,16,-318,-467,149,392
,82,2023-10-27 11:16:52.71,166,-104,-2050,-1,33,16,-258,-458,200,358
,83,2023-10-27 11:16:52.72,95,-125,-2019,24,-27,23,-338,-607,269,472
,84,2023-10-27 11:16:52.73,230,-108,-2091,38,-26,36,-280,-617,337,448
,85,2023-10-27 11:16:52.74,161,-121,-2065,13,33,18,-327,-614,287,470
,86,2023-10-27 11:16:52.75,162,-105,-2040,-4,39,18,-262,-521,259,391
,87,2023-10-27 11:16:52.76,164,-122,-2064,1,34,22,-305,-495,190,400
,88,2023-10-27 11:16:52.77,168,-117,-2060,13,21,21,-257,-459,202,358
,89,2023-10-27 11:16:52.78,171,-107,-2053,27,9,24,-301,-530,229,415
,90,2023-10-27 11:16:52.79,176,-105,-2030,29,12,22,-271,-550,279,410
,91,2023-10-27 11:16:52.80,197,-96,-2052,16,38,20,-319,-623,304,471
,92,2023-10-27 11:16:52.81,169,-100,-2062,1,58,11,-293,-615,322,454
,93,2023-10-27 11:16:52.82,146,-105,-2049,11,31,12,-314,-597,283,455
,94,2023-10-27 11:16:52.83,184,-106,-2070,31,4,19,-279,-551,272,415
,95,2023-10-27 11:16:52.84,186,-106,-2047,22,33,12,-295,-541,246,418
,96,2023-10-27 11:16:52.85,175,-105,-2039,8,46,8,-278,-536,258,407
,97,2023-10-27 11:16:52.86,166,-116,-2036,3,46,8,-268,-503,235,385
,98,2023-10-27 11:16:52.87,170,-130,-2073,19,15,15,-272,-512,240,392
,99,2023-10-27 11:16:52.88,214,-116,-2053,31,14,21,-291,-554,263,422
,100,2023-10-27 11:16:52.89,169,-110,-2046,30,21,23,-313,-597,284,455
,101,2023-10-27 11:16:52.90,194,-109,-2051,18,30,24,-288,-565,277,426
,102,2023-10-27 11:16:52.91,179,-110,-2055,4,52,22,-284,-554,270,419
,103,2023-10-27 11:16:52.92,154,-125,-2062,12,37,27,-264,-480,216,372
,104,2023-10-27 11:16:52.93,187,-119,-2052,27,13,34,-291,-497,206,394
,105,2023-10-27 11:16:52.94,194,-117,-2064,27,22,37,-278,-524,246,401
,106,2023-10-27 11:16:52.95,178,-119,-2055,15,44,37,-323,-597,274,460
,107,2023-10-27 11:16:52.96,176,-120,-2051,11,40,41,-278,-562,284,420
,108,2023-10-27 11:16:52.97,180,-116,-2056,14,31,45,-312,-575,263,443
,109,2023-10-27 11:16:52.98,188,-115,-2063,23,23,45,-262,-488,226,375
,110,2023-10-27 11:16:52.99,186,-118,-2051,22,29,47,-299,-511,212,405
,111,2023-10-27 11:16:53.00,193,-111,-2052,18,33,48,-249,-455,206,352
,112,2023-10-27 11:16:53.01,193,-110,-2051,12,38,47,-303,-513,210,408
,113,2023-10-27 11:16:53.02,178,-113,-2050,13,40,45,-251,-444,193,347
,114,2023-10-27 11:16:53.03,182,-119,-2053,18,30,45,-313,-504,191,408
,115,2023-10-27 11:16:53.04,200,-105,-2060,22,23,46,-243,-456,213,349
,116,2023-10-27 11:16:53.05,189,-109,-2054,17,40,40,-315,-542,227,428
,117,2023-10-27 11:16:53.06,186,-109,-2049,11,47,37,-254,-519,265,386
,118,2023-10-27 11:16:53.07,198,-110,-2052,8,43,35,-336,-594,258,465
,119,2023-10-27 11:16:53.08,177,-114,-2055,20,19,35,-243,-475,232,359
,120,2023-10-27 11:16:53.09,193,-111,-2056,27,14,32,-323,-533,210,428
,121,2023-10-27 11:16:53.10,195,-111,-2052,26,23,27,-256,-520,264,388
,122,2023-10-27 11:16:53.11,191,-101,-2050,15,32,25,-351,-615,264,483
,123,2023-10-27 11:16:53.12,195,-110,-2046,11,36,25,-243,-476,233,359
,124,2023-10-27 11:16:53.13,196,-115,-2053,11,33,21,-330,-519,189,424
,125,2023-10-27 11:16:53.14,202,-117,-2043,15,32,23,-215,-387,172,301
,126,2023-10-27 11:16:53.15,185,-125,-2045,19,29,26,-327,-495,168,411
,127,2023-10-27 11:16:53.16,198,-128,-2049,23,13,36,-221,-424,203,322
,128,2023-10-27 11:16:53.17,206,-129,-2062,19,24,40,-345,-552,207,448
,129,2023-10-27 11:16:53.18,188,-129,-2054,14,38,45,-230,-478,248,354
,130,2023-10-27 11:16:53.19,200,-124,-2044,12,40,49,-352,-597,245,474
,131,2023-10-27 11:16:53.20,195,-127,-2048,16,29,57,-240,-561,321,400
,132,2023-10-27 11:16:53.21,205,-133,-2050,22,21,64,-366,-669,303,517
,133,2023-10-27 11:16:53.22,215,-116,-2041,22,26,68,-239,-549,310,394
,134,2023-10-27 11:16:53.23,211,-114,-2039,17,38,69,-363,-625,262,494
,135,2023-10-27 11:16:53.24,190,-129,-2042,7,56,69,-218,-481,263,349
,136,2023-10-27 11:16:53.25,175,-128,-2058,13,45,73,-355,-579,224,467
,137,2023-10-27 11:16:53.26,200,-125,-2055,20,40,75,-205,-444,239,324
,138,2023-10-27 11:16:53.27,187,-128,-2046,26,40,73,-348,-581,233,464
,139,2023-10-27 11:16:53.28,204,-126,-2058,26,33,73,-227,-576,349,401
,140,2023-10-27 11:16:53.29,213,-109,-2058,21,49,64,-384,-723,339,553
,141,2023-10-27 11:16:53.30,201,-98,-2053,24,46,56,-241,-615,374,428
,142,2023-10-27 11:16:53.31,216,-99,-2069,29,38,50,-381,-695,314,538
,143,2023-10-27 11:16:53.32,201,-103,-2067,22,47,36,-218,-567,349,392
,144,2023-10-27 11:16:53.33,196,-102,-2073,22,40,26,-377,-683,306,530
,145,2023-10-27 11:16:53.34,192,-105,-2060,22,26,19,-221,-581,360,401
,146,2023-10-27 11:16:53.35,208,-107,-2055,28,15,15,-385,-687,302,536
,147,2023-10-27 11:16:53.36,196,-118,-2055,33,4,11,-208,-516,308,362
,148,2023-10-27 11:16:53.37,188,-114,-2044,28,-2,5,-359,-594,235,476
,149,2023-10-27 11:16:53.38,192,-114,-2043,26,-3,2,-174,-402,228,288
,150,2023-10-27 11:16:53.39,201,-122,-2046,28,-6,2,-352,-554,202,453
,151,2023-10-27 11:16:53.40,202,-121,-2042,26,-7,3,-183,-474,291,328
,152,2023-10-27 11:16:53.41,202,-128,-2054,23,-2,4,-367,-625,258,496
,153,2023-10-27 11:16:53.42,206,-138,-2051,19,-1,9,-185,-432,247,308
,154,2023-10-27 11:16:53.43,208,-131,-2058,18,3,14,-365,-552,187,458
,155,2023-10-27 11:16:53.44,206,-138,-2051,18,5,18,-169,-391,222,280
,156,2023-10-27 11:16:53.45,212,-134,-2055,21,11,24,-357,-541,184,449
,157,2023-10-27 11:16:53.46,219,-134,-2049,20,14,27,-166,-364,198,265
,158,2023-10-27 11:16:53.47,195,-135,-2048,23,19,29,-357,-508,151,432
,159,2023-10-27 11:16:53.48,205,-130,-2056,26,20,32,-168,-344,176,256
,160,2023-10-27 11:16:53.49,205,-134,-2050,28,23,32,-360,-521,161,440
,161,2023-10-27 11:16:53.50,210,-136,-2049,31,27,34,-168,-378,210,273
,162,2023-10-27 11:16:53.51,213,-133,-2050,33,28,33,-365,-555,190,460
,163,2023-10-27 11:16:53.52,204,-127,-2051,38,26,31,-170,-399,229,284
,164,2023-10-27 11:16:53.53,207,-131,-2043,41,25,32,-369,-563,194,466
,165,2023-10-27 11:16:53.54,205,-128,-2050,44,24,27,-168,-397,229,282
,166,2023-10-27 11:16:53.55,223,-131,-2051,45,24,25,-370,-544,174,457
,167,2023-10-27 11:16:53.56,211,-124,-2041,46,19,22,-165,-352,187,258
,168,2023-10-27 11:16:53.57,216,-142,-2051,48,14,19,-370,-506,136,438
,169,2023-10-27 11:16:53.58,206,-141,-2053,52,15,19,-172,-343,171,257
,170,2023-10-27 11:16:53.59,219,-137,-2048,52,12,18,-372,-506,134,439
,171,2023-10-27 11:16:53.60,211,-138,-2051,50,13,17,-169,-329,160,249
,172,2023-10-27 11:16:53.61,215,-134,-2045,47,15,15,-374,-524,150,449
,173,2023-10-27 11:16:53.62,218,-142,-2045,43,19,14,-181,-402,221,291
,174,2023-10-27 11:16:53.63,200,-140,-2053,41,22,16,-384,-568,184,476
,175,2023-10-27 11:16:53.64,194,-143,-2053,37,18,17,-172,-373,201,272
,176,2023-10-27 11:16:53.65,213,-146,-2048,36,13,20,-367,-502,135,434
,177,2023-10-27 11:16:53.66,210,-151,-2052,31,18,24,-152,-304,152,228
,178,2023-10-27 11:16:53.67,215,-148,-2051,27,21,27,-351,-455,104,403
,179,2023-10-27 11:16:53.68,212,-146,-2052,21,21,29,-134,-273,139,203
,180,2023-10-27 11:16:53.69,212,-144,-2050,19,20,31,-355,-478,123,416
,181,2023-10-27 11:16:53.70,205,-143,-2050,21,20,33,-166,-351,185,258
,182,2023-10-27 11:16:53.71,204,-148,-2055,16,20,34,-369,-517,148,443
,183,2023-10-27 11:16:53.72,212,-143,-2052,11,19,36,-149,-311,162,230
,184,2023-10-27 11:16:53.73,215,-146,-2054,12,18,35,-352,-479,127,415
,185,2023-10-27 11:16:53.74,211,-144,-2048,12,15,36,-158,-339,181,248
,186,2023-10-27 11:16:53.75,213,-145,-2050,12,12,33,-359,-505,146,432
,187,2023-10-27 11:16:53.76,205,-138,-2063,8,3,35,-156,-339,183,247
,188,2023-10-27 11:16:53.77,220,-155,-2029,12,-3,35,-351,-480,129,415
,189,2023-10-27 11:16:53.78,217,-144,-2049,19,9,33,-148,-309,161,228
,190,2023-10-27 11:16:53.79,204,-149,-2047,22,2,29,-343,-464,121,403
,191,2023-10-27 11:16:53.80,212,-146,-2049,18,-1,32,-150,-310,160,230
,192,2023-10-27 11:16:53.81,212,-148,-2047,23,-2,30,-342,-492,150,417
,193,2023-10-27 11:16:53.82,215,-150,-2048,24,-6,27,-152,-372,220,262
,194,2023-10-27 11:16:53.83,214,-147,-2047,24,-2,26,-340,-542,202,441
,195,2023-10-27 11:16:53.84,218,-150,-2043,22,1,26,-147,-395,248,271
,196,2023-10-27 11:16:53.85,215,-145,-2042,23,6,25,-335,-551,216,443
,197,2023-10-27 11:16:53.86,220,-155,-2052,21,5,25,-145,-409,264,277
,198,2023-10-27 11:16:53.87,205,-148,-2044,19,6,26,-332,-560,228,446
,199,2023-10-27 11:16:53.88,217,-146,-2058,18,6,26,-150,-420,270,285
,200,2023-10-27 11:16:53.89,213,-146,-2051,14,7,28,-341,-535,194,438
,201,2023-10-27 11:16:53.90,206,-149,-2060,13,3,30,-170,-375,205,272
,202,2023-10-27 11:16:53.91,213,-144,-2051,15,-2,30,-355,-519,164,437
,203,2023-10-27 11:16:53.92,210,-150,-2051,15,-6,28,-186,-402,216,294
,204,2023-10-27 11:16:53.93,213,-146,-2047,15,-7,32,-358,-535,177,446
,205,2023-10-27 11:16:53.94,218,-149,-2044,16,-4,29,-180,-392,212,286
,206,2023-10-27 11:16:53.95,217,-149,-2031,14,6,27,-347,-525,178,436
,207,2023-10-27 11:16:53.96,215,-151,-2043,14,13,23,-176,-401,225,288
,208,2023-10-27 11:16:53.97,209,-151,-2046,15,17,23,-335,-499,164,417
,209,2023-10-27 11:16:53.98,205,-151,-2043,19,19,22,-169,-354,185,261
,210,2023-10-27 11:16:53.99,225,-156,-2041,23,17,21,-329,-491,162,410
,211,2023-10-27 11:16:54.00,207,-155,-2044,25,22,21,-176,-397,221,286
,212,2023-10-27 11:16:54.01,210,-162,-2046,27,24,23,-329,-519,190,424
,213,2023-10-27 11:16:54.02,209,-151,-2054,26,24,23,-178,-393,215,285
,214,2023-10-27 11:16:54.03,212,-146,-2055,27,23,21,-328,-482,154,405
,215,2023-10-27 11:16:54.04,217,-152,-2057,28,21,18,-179,-359,180,269
,216,2023-10-27 11:16:54.05,212,-145,-2060,27,14,18,-328,-451,123,389
,217,2023-10-27 11:16:54.06,206,-145,-2063,24,6,14,-189,-345,156,267
,218,2023-10-27 11:16:54.07,202,-151,-2048,28,-6,17,-321,-461,140,391
,219,2023-10-27 11:16:54.08,209,-153,-2045,29,-18,21,-184,-379,195,281
,220,2023-10-27 11:16:54.09,223,-152,-2035,29,-17,20,-331,-576,245,453
,221,2023-10-27 11:16:54.10,223,-158,-2033,22,-6,21,-228,-560,332,394
,222,2023-10-27 11:16:54.11,214,-158,-2031,18,5,19,-368,-691,323,529
,223,2023-10-27 11:16:54.12,214,-158,-2036,21,10,19,-251,-606,355,428
,224,2023-10-27 11:16:54.13,205,-154,-2045,21,15,18,-352,-645,293,498
,225,2023-10-27 11:16:54.14,191,-157,-2051,19,17,18,-217,-518,301,367
,226,2023-10-27 11:16:54.15,199,-153,-2051,17,19,15,-354,-628,274,491
,227,2023-10-27 11:16:54.16,203,-147,-2047,19,15,13,-251,-569,318,410
,228,2023-10-27 11:16:54.17,212,-140,-2045,17,13,9,-348,-612,264,480
,229,2023-10-27 11:16:54.18,213,-139,-2035,18,13,5,-228,-495,267,361
,230,2023-10-27 11:16:54.19,227,-143,-2044,17,20,-3,-320,-551,231,435
,231,2023-10-27 11:16:54.20,215,-139,-2050,18,24,-13,-228,-487,259,357
,232,2023-10-27 11:16:54.21,236,-134,-2044,24,23,-25,-335,-593,258,464
,233,2023-10-27 11:16:54.22,223,-161,-2040,35,1,-19,-247,-544,297,395
,234,2023-10-27 11:16:54.23,243,-161,-2041,36,29,-24,-331,-567,236,449
,235,2023-10-27 11:16:54.24,218,-174,-2059,33,44,-28,-242,-476,234,359
,236,2023-10-27 11:16:54.25,219,-181,-2071,37,40,-19,-330,-565,235,447
,237,2023-10-27 11:16:54.26,230,-170,-2070,43,38,-14,-257,-550,293,403
,238,2023-10-27 11:16:54.27,211,-173,-2060,51,32,-5,-338,-625,287,481
,239,2023-10-27 11:16:54.28,227,-168,-2045,53,24,1,-271,-576,305,423
,240,2023-10-27 11:16:54.29,222,-160,-2039,45,24,4,-329,-571,242,450
,241,2023-10-27 11:16:54.30,218,-167,-2045,39,21,7,-262,-495,233,378
,242,2023-10-27 11:16:54.31,209,-161,-2050,40,15,14,-317,-504,187,410
,243,2023-10-27 11:16:54.32,222,-171,-2041,39,10,17,-261,-464,203,362
,244,2023-10-27 11:16:54.33,211,-168,-2046,31,12,19,-305,-467,162,386
,245,2023-10-27 11:16:54.34,229,-159,-2050,23,10,23,-255,-436,181,345
,246,2023-10-27 11:16:54.35,212,-169,-2048,15,14,27,-298,-422,124,360
,247,2023-10-27 11:16:54.36,223,-168,-2059,9,12,31,-263,-411,148,337
,248,2023-10-27 11:16:54.37,219,-163,-2044,5,10,35,-296,-429,133,362
,249,2023-10-27 11:16:54.38,222,-159,-2042,3,13,38,-269,-436,167,352
,250,2023-10-27 11:16:54.39,214,-165,-2048,-3,15,40,-282,-416,134,349
,251,2023-10-27 11:16:54.40,216,-170,-2054,-11,13,40,-262,-410,148,336
,252,2023-10-27 11:16:54.41,226,-164,-2059,-10,12,45,-286,-420,134,353
,253,2023-10-27 11:16:54.42,225,-162,-2043,-5,11,47,-277,-443,166,360
,254,2023-10-27 11:16:54.43,237,-165,-2035,-2,15,46,-283,-447,164,365
,255,2023-10-27 11:16:54.44,219,-159,-2019,0,15,48,-276,-466,190,371
,256,2023-10-27 11:16:54.45,245,-161,-2032,-1,22,46,-275,-440,165,357
,257,2023-10-27 11:16:54.46,215,-164,-2034,-1,29,45,-284,-462,178,373
,258,2023-10-27 11:16:54.47,248,-168,-2035,10,20,48,-276,-458,182,367
,259,2023-10-27 11:16:54.48,240,-169,-2050,15,28,48,-295,-496,201,395
,260,2023-10-27 11:16:54.49,247,-159,-2043,16,29,46,-277,-447,170,362
,261,2023-10-27 11:16:54.50,232,-170,-2054,15,36,50,-288,-454,166,371
,262,2023-10-27 11:16:54.51,227,-171,-2059,19,28,54,-264,-392,128,328
,263,2023-10-27 11:16:54.52,226,-169,-2061,27,10,58,-290,-432,142,361
,264,2023-10-27 11:16:54.53,244,-173,-2071,31,3,62,-266,-426,160,346
,265,2023-10-27 11:16:54.54,226,-172,-2068,27,5,67,-306,-490,184,398
,266,2023-10-27 11:16:54.55,220,-173,-2066,26,-2,67,-257,-403,146,330
,267,2023-10-27 11:16:54.56,221,-173,-2079,26,-13,75,-308,-447,139,377
,268,2023-10-27 11:16:54.57,215,-174,-2065,29,-27,77,-247,-370,123,308
,269,2023-10-27 11:16:54.58,226,-173,-2059,31,-36,85,-303,-435,132,369
,270,2023-10-27 11:16:54.59,220,-169,-2042,33,-44,87,-245,-356,111,300
,271,2023-10-27 11:16:54.60,213,-174,-2042,29,-42,87,-309,-424,115,366
,272,2023-10-27 11:16:54.61,208,-183,-2054,21,-37,86,-235,-340,105,287
,273,2023-10-27 11:16:54.62,212,-182,-2051,19,-38,89,-310,-423,113,366
,274,2023-10-27 11:16:54.63,204,-178,-2044,21,-39,90,-242,-345,103,293
,275,2023-10-27 11:16:54.64,215,-179,-2043,16,-33,89,-320,-441,121,380
,276,2023-10-27 11:16:54.65,217,-170,-2037,9,-26,90,-232,-372,140,302
,277,2023-10-27 11:16:54.66,225,-172,-2043,6,-17,87,-317,-470,153,393
,278,2023-10-27 11:16:54.67,209,-169,-2032,2,-11,82,-214,-364,150,289
,279,2023-10-27 11:16:54.68,222,-160,-2039,-3,-6,80,-308,-448,140,378
,280,2023-10-27 11:16:54.69,210,-165,-2039,-8,-1,79,-203,-326,123,264
,281,2023-10-27 11:16:54.70,212,-163,-2051,-14,3,79,-308,-422,114,365
,282,2023-10-27 11:16:54.71,217,-163,-2048,-21,4,79,-195,-300,105,247
,283,2023-10-27 11:16:54.72,211,-160,-2043,-27,0,79,-306,-409,103,357
,284,2023-10-27 11:16:54.73,206,-166,-2043,-34,5,83,-189,-277,88,233
,285,2023-10-27 11:16:54.74,205,-169,-2050,-46,8,88,-305,-410,105,357
,286,2023-10-27 11:16:54.75,203,-175,-2050,-53,14,92,-189,-342,153,265
,287,2023-10-27 11:16:54.76,203,-176,-2045,-55,22,99,-318,-502,184,410
,288,2023-10-27 11:16:54.77,213,-171,-2038,-55,27,104,-195,-448,253,321
,289,2023-10-27 11:16:54.78,202,-175,-2033,-56,38,106,-331,-578,247,454
,290,2023-10-27 11:16:54.79,207,-181,-2039,-55,52,107,-192,-458,266,325
,291,2023-10-27 11:16:54.80,203,-157,-2044,-58,63,106,-328,-560,232,444
,292,2023-10-27 11:16:54.81,192,-158,-2047,-55,65,103,-177,-440,263,308
,293,2023-10-27 11:16:54.82,185,-148,-2031,-47,56,106,-321,-546,225,433
,294,2023-10-27 11:16:54.83,182,-141,-2041,-21,13,111,-169,-394,225,281
,295,2023-10-27 11:16:54.84,242,-135,-2056,-6,-4,112,-320,-500,180,410
,296,2023-10-27 11:16:54.85,238,-114,-2032,-17,31,98,-172,-348,176,260
,297,2023-10-27 11:16:54.86,211,-121,-2033,-41,56,90,-332,-516,184,424
,298,2023-10-27 11:16:54.87,240,-129,-2050,-62,67,85,-186,-505,319,345
,299,2023-10-27 11:16:54.88,206,-144,-2051,-62,71,82,-351,-665,314,508
,300,2023-10-27 11:16:54.89,216,-150,-2034,-41,40,85,-185,-508,323,346
,301,2023-10-27 11:16:54.90,226,-143,-2039,-29,24,93,-349,-596,247,472
,302,2023-10-27 11:16:54.91,239,-146,-2035,-42,50,88,-167,-421,254,294
,303,2023-10-27 11:16:54.92,214,-143,-2038,-48,55,90,-348,-556,208,452
,304,2023-10-27 11:16:54.93,241,-144,-2052,-37,35,97,-184,-416,232,300
,305,2023-10-27 11:16:54.94,246,-138,-2050,-23,34,95,-354,-547,193,450
,306,2023-10-27 11:16:54.95,250,-136,-2047,-16,32,93,-171,-356,185,263
,307,2023-10-27 11:16:54.96,246,-146,-2057,-17,39,89,-346,-499,153,422
,308,2023-10-27 11:16:54.97,250,-137,-2064,-21,52,89,-169,-356,187,262
,309,2023-10-27 11:16:54.98,238,-144,-2074,-14,44,89,-358,-537,179,447
,310,2023-10-27 11:16:54.99,241,-151,-2065,-3,40,91,-178,-419,241,298
,311,2023-10-27 11:16:55.00,251,-148,-2057,7,36,89,-370,-566,196,468
,312,2023-10-27 11:16:55.01,231,-155,-2066,10,33,87,-158,-357,199,257
,313,2023-10-27 11:16:55.02,245,-159,-2069,21,24,88,-347,-491,144,419
,314,2023-10-27 11:16:55.03,240,-159,-2062,35,20,93,-169,-332,163,250
,315,2023-10-27 11:16:55.04,243,-159,-2054,49,10,88,-360,-501,141,430
,316,2023-10-27 11:16:55.05,235,-158,-2043,60,5,88,-164,-344,180,254
,317,2023-10-27 11:16:55.06,240,-162,-2040,72,9,85,-351,-498,147,424
,318,2023-10-27 11:16:55.07,233,-172,-2048,81,6,85,-153,-305,152,229
,319,2023-10-27 11:16:55.08,246,-175,-2047,91,-3,83,-357,-472,115,414
,320,2023-10-27 11:16:55.09,232,-170,-2045,105,-8,85,-161,-309,148,235
,321,2023-10-27 11:16:55.10,225,-169,-2051,109,-15,84,-360,-482,122,421
,322,2023-10-27 11:16:55.11,220,-167,-2045,112,-26,84,-154,-307,153,230
,323,2023-10-27 11:16:55.12,233,-175,-2048,114,-31,81,-364,-523,159,443
,324,2023-10-27 11:16:55.13,216,-183,-2058,113,-36,84,-178,-445,267,311
,325,2023-10-27 11:16:55.14,228,-177,-2046,111,-44,83,-380,-630,250,505
,326,2023-10-27 11:16:55.15,234,-178,-2038,106,-41,81,-175,-460,285,317
,327,2023-10-27 11:16:55.16,218,-181,-2039,105,-38,77,-366,-578,212,472
,328,2023-10-27 11:16:55.17,235,-178,-2047,98,-35,72,-156,-367,211,261
,329,2023-10-27 11:16:55.18,226,-178,-2039,90,-26,68,-359,-506,147,432
,330,2023-10-27 11:16:55.19,238,-176,-2040,85,-19,62,-152,-318,166,235
,331,2023-10-27 11:16:55.20,241,-186,-2052,73,-11,59,-360,-506,146,433
,332,2023-10-27 11:16:55.21,232,-189,-2048,58,6,53,-157,-372,215,264
,333,2023-10-27 11:16:55.22,219,-184,-2043,54,-1,53,-359,-532,173,445
,334,2023-10-27 11:16:55.23,243,-180,-2038,49,-8,53,-151,-342,191,246
,335,2023-10-27 11:16:55.24,231,-176,-2037,39,5,50,-347,-471,124,409
,336,2023-10-27 11:16:55.25,239,-170,-2036,35,-1,48,-138,-274,136,206
,337,2023-10-27 11:16:55.26,236,-178,-2039,27,5,47,-342,-450,108,396
,338,2023-10-27 11:16:55.27,228,-182,-2043,21,10,43,-141,-307,166,224
,339,2023-10-27 11:16:55.28,241,-188,-2042,14,10,41,-365,-565,200,465
,340,2023-10-27 11:16:55.29,237,-186,-2042,10,10,42,-184,-502,318,343
,341,2023-10-27 11:16:55.30,229,-184,-2032,6,12,44,-394,-709,315,551
,342,2023-10-27 11:16:55.31,239,-172,-2038,4,10,44,-190,-585,395,387
,343,2023-10-27 11:16:55.32,239,-179,-2047,3,8,43,-384,-726,342,555
,344,2023-10-27 11:16:55.33,243,-179,-2050,0,8,44,-187,-577,390,382
,345,2023-10-27 11:16:55.34,233,-179,-2049,-5,9,47,-367,-669,302,518
,346,2023-10-27 11:16:55.35,227,-189,-2042,-1,-1,52,-154,-465,311,309
,347,2023-10-27 11:16:55.36,240,-183,-2045,5,-4,56,-342,-566,224,454
,348,2023-10-27 11:16:55.37,222,-192,-2051,5,-6,59,-147,-394,247,270
,349,2023-10-27 11:16:55.38,207,-203,-2055,5,-13,64,-341,-543,202,442
,350,2023-10-27 11:16:55.39,222,-194,-2051,9,-19,71,-156,-400,244,278
,351,2023-10-27 11:16:55.40,235,-197,-2064,18,-27,72,-367,-623,256,495
,352,2023-10-27 11:16:55.41,224,-189,-2055,19,-26,73,-189,-550,361,369
,353,2023-10-27 11:16:55.42,211,-202,-2058,24,-31,77,-376,-673,297,524
,354,2023-10-27 11:16:55.43,216,-204,-2074,25,-34,77,-173,-475,302,324
,355,2023-10-27 11:16:55.44,195,-200,-2049,32,-49,79,-367,-643,276,505
,356,2023-10-27 11:16:55.45,224,-194,-2047,36,-43,77,-190,-569,379,379
,357,2023-10-27 11:16:55.46,209,-202,-2043,34,-44,75,-363,-696,333,529
,358,2023-10-27 11:16:55.47,219,-204,-2051,29,-27,71,-171,-523,352,347
,359,2023-10-27 11:16:55.48,180,-206,-2048,23,-27,67,-341,-584,243,462
,360,2023-10-27 11:16:55.49,182,-211,-2060,31,-44,70,-167,-401,234,284
,361,2023-10-27 11:16:55.50,190,-211,-2046,39,-49,71,-340,-498,158,419
,362,2023-10-27 11:16:55.51,204,-195,-2039,44,-57,71,-168,-353,185,260
,363,2023-10-27 11:16:55.52,201,-192,-2015,39,-46,66,-338,-477,139,407
,364,2023-10-27 11:16:55.53,210,-191,-2014,33,-40,62,-167,-346,179,256
,365,2023-10-27 11:16:55.54,213,-196,-2025,32,-30,53,-334,-471,137,402
,366,2023-10-27 11:16:55.55,219,-194,-2017,31,-24,46,-171,-351,180,261
,367,2023-10-27 11:16:55.56,231,-177,-2011,34,-12,37,-339,-504,165,421
,368,2023-10-27 11:16:55.57,231,-189,-1989,28,8,24,-190,-416,226,303
,369,2023-10-27 11:16:55.58,242,-186,-2006,24,28,12,-332,-506,174,419
,370,2023-10-27 11:16:55.59,240,-184,-2025,16,45,-1,-169,-356,187,262
,371,2023-10-27 11:16:55.60,235,-186,-2033,16,57,-11,-310,-446,136,378
,372,2023-10-27 11:16:55.61,239,-190,-2037,17,60,-15,-160,-329,169,244
,373,2023-10-27 11:16:55.62,237,-187,-2035,17,60,-25,-315,-483,168,399
,374,2023-10-27 11:16:55.63,251,-188,-2043,12,65,-28,-181,-413,232,297
,375,2023-10-27 11:16:55.64,241,-185,-2057,7,60,-31,-315,-497,182,406
,376,2023-10-27 11:16:55.65,223,-184,-2086,10,44,-32,-175,-367,192,271
,377,2023-10-27 11:16:55.66,218,-191,-2095,7,19,-27,-306,-517,211,411
,378,2023-10-27 11:16:55.67,201,-195,-2105,11,-12,-18,-182,-470,288,326
,379,2023-10-27 11:16:55.68,209,-202,-2095,6,-39,-5,-303,-546,243,424
,380,2023-10-27 11:16:55.69,195,-202,-2081,-2,-55,9,-178,-412,234,295
,381,2023-10-27 11:16:55.70,187,-195,-2068,-15,-61,20,-319,-548,229,433
,382,2023-10-27 11:16:55.71,219,-194,-2105,-33,-61,31,-212,-501,289,356
,383,2023-10-27 11:16:55.72,210,-206,-2079,-58,-45,31,-342,-646,304,494
,384,2023-10-27 11:16:55.73,192,-197,-2064,-63,-56,44,-226,-579,353,402
,385,2023-10-27 11:16:55.74,194,-199,-2058,-64,-65,54,-360,-818,458,589
,386,2023-10-27 11:16:55.75,170,-213,-2038,-61,-80,64,-266,-853,587,559
,387,2023-10-27 11:16:55.76,204,-214,-2033,-48,-91,78,-353,-870,517,611
,388,2023-10-27 11:16:55.77,196,-218,-2026,-35,-86,82,-241,-676,435,458
,389,2023-10-27 11:16:55.78,187,-203,-2021,-33,-66,86,-343,-650,307,496
,390,2023-10-27 11:16:55.79,170,-203,-2022,-26,-63,89,-262,-541,279,401
,391,2023-10-27 11:16:55.80,192,-198,-2039,-14,-71,93,-360,-578,218,469
,392,2023-10-27 11:16:55.81,172,-203,-2030,-6,-69,94,-279,-514,235,396
,393,2023-10-27 11:16:55.82,186,-194,-2035,5,-81,99,-360,-723,363,541
,394,2023-10-27 11:16:55.83,185,-199,-2032,8,-72,98,-271,-759,488,515
,395,2023-10-27 11:16:55.84,190,-184,-2029,4,-62,96,-354,-846,492,600
,396,2023-10-27 11:16:55.85,172,-185,-2034,0,-58,94,-292,-765,473,528
,397,2023-10-27 11:16:55.86,181,-178,-2037,-1,-59,94,-322,-732,410,527
,398,2023-10-27 11:16:55.87,188,-175,-2038,0,-59,89,-239,-624,385,431
,399,2023-10-27 11:16:55.88,195,-172,-2016,-8,-45,86,-297,-630,333,463
,400,2023-10-27 11:16:55.89,192,-182,-2014,-16,-28,78,-262,-580,318,421
,401,2023-10-27 11:16:55.90,193,-195,-2036,-18,-22,74,-309,-551,242,430
,402,2023-10-27 11:16:55.91,198,-193,-2040,-20,-11,75,-257,-487,230,372
,403,2023-10-27 11:16:55.92,202,-188,-2032,-16,7,74,-288,-481,193,384
,404,2023-10-27 11:16:55.93,202,-182,-2031,-11,19,70,-253,-467,214,360
,405,2023-10-27 11:16:55.94,213,-180,-2041,-15,31,65,-283,-484,201,383
,406,2023-10-27 11:16:55.95,195,-187,-2055,-16,42,59,-263,-482,219,372
,407,2023-10-27 11:16:55.96,177,-191,-2058,-7,39,54,-284,-460,176,372
,408,2023-10-27 11:16:55.97,190,-196,-2069,6,30,57,-267,-441,174,354
,409,2023-10-27 11:16:55.98,186,-194,-2076,15,21,54,-277,-407,130,342
,410,2023-10-27 11:16:55.99,178,-200,-2067,22,13,57,-266,-418,152,342
,411,2023-10-27 11:16:56.00,177,-189,-2060,26,1,61,-292,-482,190,387
,412,2023-10-27 11:16:56.01,175,-184,-2050,33,-11,64,-297,-544,247,420
,413,2023-10-27 11:16:56.02,187,-185,-2051,38,-25,63,-306,-590,284,448
,414,2023-10-27 11:16:56.03,200,-188,-2032,40,-25,60,-312,-620,308,466
,415,2023-10-27 11:16:56.04,190,-172,-2028,40,-21,53,-298,-638,340,468
,416,2023-10-27 11:16:56.05,203,-188,-2024,37,-9,48,-305,-654,349,479
,417,2023-10-27 11:16:56.06,189,-180,-2024,35,2,40,-277,-620,343,448
,418,2023-10-27 11:16:56.07,179,-196,-2035,37,16,31,-295,-613,318,454
,419,2023-10-27 11:16:56.08,174,-216,-2054,42,18,30,-267,-562,295,414
,420,2023-10-27 11:16:56.09,169,-220,-2059,50,13,31,-297,-576,279,436
,421,2023-10-27 11:16:56.10,170,-219,-2058,61,4,34,-258,-489,231,373
,422,2023-10-27 11:16:56.11,168,-211,-2048,66,-1,35,-299,-516,217,407
,423,2023-10-27 11:16:56.12,173,-217,-2043,65,-5,40,-266,-503,237,384
,424,2023-10-27 11:16:56.13,170,-212,-2055,61,-7,43,-324,-576,252,450
,425,2023-10-27 11:16:56.14,156,-223,-2064,57,-12,48,-267,-534,267,400
,426,2023-10-27 11:16:56.15,162,-220,-2066,55,-20,56,-322,-576,254,449
,427,2023-10-27 11:16:56.16,159,-222,-2063,50,-31,64,-245,-475,230,360
,428,2023-10-27 11:16:56.17,160,-209,-2048,47,-38,74,-297,-505,208,401
,429,2023-10-27 11:16:56.18,156,-216,-2049,37,-35,76,-229,-397,168,313
,430,2023-10-27 11:16:56.19,160,-200,-2046,25,-34,78,-307,-468,161,387
,431,2023-10-27 11:16:56.20,159,-200,-2041,12,-30,78,-232,-404,172,318
,432,2023-10-27 11:16:56.21,174,-207,-2046,5,-28,82,-313,-504,191,408
,433,2023-10-27 11:16:56.22,173,-202,-2047,-4,-18,79,-235,-470,235,352
,434,2023-10-27 11:16:56.23,163,-185,-2033,-12,-15,77,-329,-566,237,447
,435,2023-10-27 11:16:56.24,164,-193,-2042,-19,-14,72,-239,-486,247,362
,436,2023-10-27 11:16:56.25,169,-189,-2042,-28,-3,67,-329,-557,228,443
,437,2023-10-27 11:16:56.26,157,-178,-2041,-33,-4,59,-222,-446,224,334
,438,2023-10-27 11:16:56.27,171,-186,-2050,-34,-10,58,-321,-529,208,425
,439,2023-10-27 11:16:56.28,169,-180,-2055,-38,-7,52,-216,-427,211,321
,440,2023-10-27 11:16:56.29,163,-183,-2055,-36,-9,47,-328,-520,192,424
,441,2023-10-27 11:16:56.30,161,-181,-2055,-33,-14,41,-198,-376,178,287
,442,2023-10-27 11:16:56.31,167,-187,-2059,-34,-16,39,-319,-477,158,398
,443,2023-10-27 11:16:56.32,163,-186,-2040,-32,-13,32,-205,-385,180,295
,444,2023-10-27 11:16:56.33,173,-181,-2048,-27,-16,27,-338,-506,168,422
,445,2023-10-27 11:16:56.34,167,-188,-2056,-25,-15,23,-208,-371,163,289
,446,2023-10-27 11:16:56.35,145,-195,-2051,-26,-9,20,-334,-479,145,406
,447,2023-10-27 11:16:56.36,159,-205,-2056,-20,-16,21,-197,-361,164,279
,448,2023-10-27 11:16:56.37,161,-223,-2056,-14,-15,22,-342,-517,175,429
,449,2023-10-27 11:16:56.38,143,-211,-2058,-2,-28,27,-228,-473,245,350
,450,2023-10-27 11:16:56.39,171,-207,-2041,5,-23,32,-378,-607,229,492
,451,2023-10-27 11:16:56.40,171,-198,-2030,9,-11,28,-218,-442,224,330
,452,2023-10-27 11:16:56.41,174,-194,-2040,11,-4,28,-360,-550,190,455
,453,2023-10-27 11:16:56.42,168,-193,-2030,8,11,24,-202,-461,259,331
,454,2023-10-27 11:16:56.43,164,-189,-2035,11,14,21,-358,-610,252,484
,455,2023-10-27 11:16:56.44,178,-195,-2025,10,20,20,-209,-507,298,358
,456,2023-10-27 11:16:56.45,163,-189,-2028,2,36,19,-366,-625,259,495
,457,2023-10-27 11:16:56.46,166,-185,-2041,-8,44,19,-198,-487,289,342
,458,2023-10-27 11:16:56.47,174,-181,-2040,-17,49,21,-352,-602,250,477
,459,2023-10-27 11:16:56.48,185,-175,-2041,-25,53,17,-168,-441,273,304
,460,2023-10-27 11:16:56.49,181,-168,-2041,-37,55,15,-339,-570,231,454
,461,2023-10-27 11:16:56.50,182,-166,-2047,-49,62,11,-168,-424,256,296
,462,2023-10-27 11:16:56.51,185,-162,-2045,-59,63,9,-348,-557,209,452
,463,2023-10-27 11:16:56.52,174,-164,-2055,-64,61,4,-167,-384,217,275
,464,2023-10-27 11:16:56.53,144,-144,-2114,-76,48,10,-350,-521,171,435
,465,2023-10-27 11:16:56.54,192,-201,-1996,-69,8,8,-182,-373,191,277
,466,2023-10-27 11:16:56.55,189,-156,-2050,-28,16,5,-358,-513,155,435
,467,2023-10-27 11:16:56.56,197,-159,-2085,-24,6,-3,-172,-334,162,253
,468,2023-10-27 11:16:56.57,182,-167,-2056,-29,18,-9,-355,-499,144,427
,469,2023-10-27 11:16:56.58,182,-166,-2072,-18,14,-16,-162,-369,207,265
,470,2023-10-27 11:16:56.59,185,-177,-2059,-4,3,-16,-354,-528,174,441
,471,2023-10-27 11:16:56.60,175,-171,-2059,8,-8,-16,-156,-347,191,251
,472,2023-10-27 11:16:56.61,180,-186,-2046,18,-13,-15,-360,-533,173,446
,473,2023-10-27 11:16:56.62,189,-184,-2051,27,-12,-14,-170,-431,261,300
,474,2023-10-27 11:16:56.63,183,-186,-2043,33,-16,-12,-368,-610,242,489
,475,2023-10-27 11:16:56.64,179,-188,-2048,38,-14,-8,-174,-457,283,315
,476,2023-10-27 11:16:56.65,174,-191,-2051,40,-14,-2,-376,-617,241,496
,477,2023-10-27 11:16:56.66,168,-191,-2046,36,-13,4,-189,-484,295,336
,478,2023-10-27 11:16:56.67,160,-210,-2057,34,-13,13,-386,-627,241,506
,479,2023-10-27 11:16:56.68,157,-198,-2050,33,-15,23,-180,-423,243,301
,480,2023-10-27 11:16:56.69,182,-194,-2048,23,-8,36,-380,-570,190,475
,481,2023-10-27 11:16:56.70,179,-186,-2044,18,-6,41,-180,-422,242,301
,482,2023-10-27 11:16:56.71,188,-184,-2050,11,0,46,-375,-575,200,475
,483,2023-10-27 11:16:56.72,170,-182,-2057,6,-2,47,-159,-382,223,270
,484,2023-10-27 11:16:56.73,170,-180,-2056,2,-5,49,-363,-540,177,451
,485,2023-10-27 11:16:56.74,174,-183,-2052,5,-12,50,-169,-394,225,281
,486,2023-10-27 11:16:56.75,158,-177,-2048,6,-18,47,-382,-590,208,486
,487,2023-10-27 11:16:56.76,175,-179,-2058,9,-24,48,-192,-467,275,329
,488,2023-10-27 11:16:56.77,165,-175,-2058,11,-25,45,-400,-624,224,512
,489,2023-10-27 11:16:56.78,171,-182,-2055,13,-28,44,-192,-437,245,314
,490,2023-10-27 11:16:56.79,163,-194,-2062,17,-33,42,-384,-564,180,474
,491,2023-10-27 11:16:56.80,179,-190,-2071,18,-31,41,-164,-371,207,267
,492,2023-10-27 11:16:56.81,146,-199,-2042,21,-28,39,-361,-505,144,433
,493,2023-10-27 11:16:56.82,150,-182,-2040,31,-40,43,-149,-320,171,234
,494,2023-10-27 11:16:56.83,186,-194,-2045,28,-26,43,-352,-478,126,415
,495,2023-10-27 11:16:56.84,149,-182,-2036,19,-18,39,-151,-313,162,232
,496,2023-10-27 11:16:56.85,170,-172,-2040,17,-12,39,-350,-490,140,420
,497,2023-10-27 11:16:56.86,164,-175,-2032,16,-7,35,-150,-345,195,247
,498,2023-10-27 11:16:56.87,163,-163,-2038,10,-7,35,-348,-523,175,435
,499,2023-10-27 11:16:56.88,162,-178,-2043,-1,5,32,-147,-368,221,257
,500,2023-10-27 11:16:56.89,155,-186,-2054,-10,12,29,-346,-517,171,431
,501,2023-10-27 11:16:56.90,156,-189,-2063,-10,5,30,-141,-337,196,239
,502,2023-10-27 11:16:56.91,150,-193,-2058,-6,6,34,-346,-527,181,436
,503,2023-10-27 11:16:56.92,145,-205,-2054,-3,6,39,-153,-417,264,285
,504,2023-10-27 11:16:56.93,159,-201,-2056,1,8,39,-348,-554,206,451
,505,2023-10-27 11:16:56.94,147,-209,-2053,3,20,41,-150,-359,209,254
,506,2023-10-27 11:16:56.95,152,-195,-2043,8,21,44,-338,-469,131,403
,507,2023-10-27 11:16:56.96,162,-194,-2044,12,16,45,-141,-293,152,217
,508,2023-10-27 11:16:56.97,170,-179,-2028,8,27,43,-331,-437,106,384
,509,2023-10-27 11:16:56.98,171,-172,-2024,2,42,38,-142,-282,140,212
,510,2023-10-27 11:16:56.99,171,-172,-2028,-4,58,29,-329,-438,109,383
,511,2023-10-27 11:16:57.00,165,-173,-2035,-14,65,25,-147,-300,153,223
,512,2023-10-27 11:16:57.01,166,-180,-2051,-14,64,20,-346,-473,127,409
,513,2023-10-27 11:16:57.02,166,-172,-2055,-15,60,13,-172,-352,180,262
,514,2023-10-27 11:16:57.03,176,-169,-2053,-14,59,6,-364,-518,154,441
,515,2023-10-27 11:16:57.04,175,-175,-2050,-17,62,0,-194,-402,208,298
,516,2023-10-27 11:16:57.05,164,-176,-2029,-14,55,-5,-365,-532,167,448
,517,2023-10-27 11:16:57.06,157,-173,-2030,6,20,-1,-189,-385,196,287
,518,2023-10-27 11:16:57.07,217,-170,-2046,14,10,-2,-348,-486,138,417
,519,2023-10-27 11:16:57.08,203,-168,-2049,8,39,-13,-176,-336,160,256
,520,2023-10-27 11:16:57.09,175,-170,-2028,0,58,-22,-343,-450,107,396
,521,2023-10-27 11:16:57.10,185,-170,-2040,-3,49,-25,-175,-316,141,245
,522,2023-10-27 11:16:57.11,187,-177,-2058,-1,37,-28,-331,-442,111,386
,523,2023-10-27 11:16:57.12,183,-179,-2061,3,28,-26,-164,-329,165,246
,524,2023-10-27 11:16:57.13,186,-185,-2065,7,22,-24,-342,-557,215,449
,525,2023-10-27 11:16:57.14,190,-193,-2052,0,35,-24,-201,-530,329,365
,526,2023-10-27 11:16:57.15,173,-190,-2052,2,17,-20,-354,-629,275,491
,527,2023-10-27 11:16:57.16,201,-197,-2062,-1,21,-17,-194,-467,273,330
,528,2023-10-27 11:16:57.17,184,-185,-2054,-6,25,-9,-333,-525,192,429
,529,2023-10-27 11:16:57.18,199,-191,-2056,-10,26,-8,-189,-406,217,297
,530,2023-10-27 11:16:57.19,174,-183,-2042,-16,21,-6,-331,-486,155,408
,531,2023-10-27 11:16:57.20,191,-176,-2052,-20,8,4,-198,-376,178,287
,532,2023-10-27 11:16:57.21,189,-175,-2055,-22,6,2,-333,-458,125,395
,533,2023-10-27 11:16:57.22,182,-182,-2061,-29,14,2,-200,-356,156,278
,534,2023-10-27 11:16:57.23,180,-184,-2059,-34,6,6,-331,-440,109,385
,535,2023-10-27 11:16:57.24,194,-182,-2048,-31,-1,9,-206,-349,143,277
,536,2023-10-27 11:16:57.25,189,-176,-2048,-26,-9,12,-327,-418,91,372
,537,2023-10-27 11:16:57.26,188,-168,-2048,-25,-11,11,-203,-334,131,268
,538,2023-10-27 11:16:57.27,179,-167,-2049,-26,-17,11,-325,-473,148,399
,539,2023-10-27 11:16:57.28,178,-173,-2056,-21,-24,11,-219,-444,225,331
,540,2023-10-27 11:16:57.29,184,-184,-2065,-12,-35,13,-324,-518,194,421
,541,2023-10-27 11:16:57.30,176,-194,-2064,3,-44,20,-221,-430,209,325
,542,2023-10-27 11:16:57.31,173,-200,-2053,16,-48,25,-324,-469,145,396
,543,2023-10-27 11:16:57.32,168,-203,-2054,23,-55,31,-225,-388,163,306
,544,2023-10-27 11:16:57.33,186,-192,-2066,25,-48,36,-316,-432,116,374
,545,2023-10-27 11:16:57.34,186,-191,-2038,9,-10,31,-219,-369,150,294
,546,2023-10-27 11:16:57.35,162,-162,-2045,17,-27,35,-308,-411,103,359
,547,2023-10-27 11:16:57.36,193,-178,-2041,13,-18,34,-223,-358,135,290
,548,2023-10-27 11:16:57.37,165,-178,-2051,5,-3,28,-296,-395,99,345
,549,2023-10-27 11:16:57.38,162,-170,-2040,3,-15,29,-222,-363,141,292
,550,2023-10-27 11:16:57.39,181,-172,-2049,2,-8,28,-290,-387,97,338
,551,2023-10-27 11:16:57.40,165,-172,-2042,-6,-2,23,-225,-352,127,288
,552,2023-10-27 11:16:57.41,160,-174,-2049,-9,-8,25,-289,-376,87,332
,553,2023-10-27 11:16:57.42,168,-172,-2047,-15,-1,20,-235,-355,120,295
,554,2023-10-27 11:16:57.43,153,-178,-2046,-16,1,21,-288,-395,107,341
,555,2023-10-27 11:16:57.44,167,-173,-2043,-14,-6,19,-232,-384,152,308
,556,2023-10-27 11:16:57.45,167,-172,-2042,-22,8,18,-285,-432,147,358
,557,2023-10-27 11:16:57.46,159,-164,-2037,-26,6,14,-240,-427,187,333
,558,2023-10-27 11:16:57.47,167,-168,-2044,-29,5,15,-277,-417,140,347
,559,2023-10-27 11:16:57.48,163,-172,-2049,-31,13,15,-238,-390,152,314
,560,2023-10-27 11:16:57.49,182,-172,-2053,-30,19,14,-274,-371,97,322
,561,2023-10-27 11:16:57.50,174,-179,-2046,-33,20,16,-250,-373,123,311
,562,2023-10-27 11:16:57.51,171,-170,-2057,-30,27,12,-273,-415,142,344
,563,2023-10-27 11:16:57.52,168,-169,-2062,-31,25,10,-257,-452,195,354
,564,2023-10-27 11:16:57.53,173,-170,-2069,-34,26,17,-288,-524,236,406
,565,2023-10-27 11:16:57.54,164,-176,-2051,-32,21,18,-282,-557,275,419
,566,2023-10-27 11:16:57.55,174,-173,-2046,-35,27,23,-299,-615,316,457
,567,2023-10-27 11:16:57.56,179,-162,-2037,-43,36,23,-287,-625,338,456
,568,2023-10-27 11:16:57.57,172,-156,-2037,-48,43,22,-280,-553,273,416
,569,2023-10-27 11:16:57.58,185,-153,-2039,-50,53,22,-277,-517,240,397
,570,2023-10-27 11:16:57.59,188,-162,-2043,-52,54,19,-270,-510,240,390
,571,2023-10-27 11:16:57.60,187,-148,-2033,-49,57,20,-289,-549,260,419
,572,2023-10-27 11:16:57.61,159,-138,-2001,-43,40,21,-265,-543,278,404
,573,2023-10-27 11:16:57.62,182,-148,-2038,-23,8,28,-286,-561,275,423
,574,2023-10-27 11:16:57.63,204,-142,-2067,-20,10,24,-258,-508,250,383
,575,2023-10-27 11:16:57.64,216,-131,-2056,-31,32,18,-291,-518,227,404
,576,2023-10-27 11:16:57.65,185,-140,-2062,-42,46,12,-255,-456,201,355
,577,2023-10-27 11:16:57.66,184,-150,-2069,-41,32,11,-288,-488,200,388
,578,2023-10-27 11:16:57.67,181,-143,-2084,-24,4,12,-241,-430,189,335
,579,2023-10-27 11:16:57.68,198,-155,-2076,-17,1,10,-287,-483,196,385
,580,2023-10-27 11:16:57.69,182,-153,-2067,-12,1,11,-224,-424,200,324
,581,2023-10-27 11:16:57.70,199,-156,-2057,-12,-8,12,-284,-482,198,383
,582,2023-10-27 11:16:57.71,178,-152,-2057,-7,-9,12,-222,-393,171,307
,583,2023-10-27 11:16:57.72,180,-153,-2051,-1,-15,13,-295,-460,165,377
,584,2023-10-27 11:16:57.73,184,-142,-2052,2,-15,15,-240,-452,212,346
,585,2023-10-27 11:16:57.74,189,-141,-2044,-4,-9,16,-320,-554,234,437
,586,2023-10-27 11:16:57.75,185,-139,-2050,-12,-6,15,-254,-531,277,392
,587,2023-10-27 11:16:57.76,190,-142,-2047,-14,-5,16,-332,-603,271,467
,588,2023-10-27 11:16:57.77,172,-141,-2045,-15,-5,17,-251,-545,294,398
,589,2023-10-27 11:16:57.78,172,-137,-2044,-20,-2,18,-333,-601,268,467
,590,2023-10-27 11:16:57.79,194,-139,-2047,-21,-1,19,-244,-481,237,362
,591,2023-10-27 11:16:57.80,183,-145,-2041,-20,1,20,-334,-532,198,433
,592,2023-10-27 11:16:57.81,180,-145,-2048,-19,10,19,-231,-408,177,319
,593,2023-10-27 11:16:57.82,186,-141,-2052,-20,11,18,-337,-494,157,415
,594,2023-10-27 11:16:57.83,184,-142,-2057,-17,10,22,-233,-385,152,309
,595,2023-10-27 11:16:57.84,171,-132,-2056,-13,9,18,-343,-482,139,412
,596,2023-10-27 11:16:57.85,185,-143,-2053,-14,11,19,-221,-353,132,287
,597,2023-10-27 11:16:57.86,185,-140,-2048,-12,8,14,-335,-451,116,393
,598,2023-10-27 11:16:57.87,187,-144,-2052,-9,11,15,-220,-325,105,272
,599,2023-10-27 11:16:57.88,179,-148,-2049,-4,13,12,-340,-440,100,390
,600,2023-10-27 11:16:57.89,151,-152,-2032,8,-3,13,-205,-304,99,254
,601,2023-10-27 11:16:57.90,200,-138,-2061,20,-18,17,-328,-434,106,381
,602,2023-10-27 11:16:57.91,187,-132,-2066,14,-1,10,-205,-339,134,272
,603,2023-10-27 11:16:57.92,171,-136,-2065,12,-9,9,-345,-493,148,419
,604,2023-10-27 11:16:57.93,184,-131,-2057,14,-17,7,-197,-396,199,296
,605,2023-10-27 11:16:57.94,182,-142,-2054,18,-27,5,-345,-557,212,451
,606,2023-10-27 11:16:57.95,185,-146,-2049,21,-32,5,-219,-546,327,382
,607,2023-10-27 11:16:57.96,171,-150,-2049,18,-32,4,-381,-709,328,545
,608,2023-10-27 11:16:57.97,174,-158,-2059,14,-29,6,-250,-680,430,465
,609,2023-10-27 11:16:57.98,169,-168,-2054,15,-33,10,-388,-773,385,580
,610,2023-10-27 11:16:57.99,175,-154,-2055,21,-31,14,-218,-607,389,412
,611,2023-10-27 11:16:58.00,157,-153,-2045,17,-32,20,-365,-668,303,516
,612,2023-10-27 11:16:58.01,177,-141,-2049,6,-28,24,-215,-523,308,369
,613,2023-10-27 11:16:58.02,167,-145,-2051,-3,-23,29,-378,-630,252,504
,614,2023-10-27 11:16:58.03,181,-141,-2042,-11,-15,31,-208,-467,259,337
,615,2023-10-27 11:16:58.04,176,-130,-2046,-18,-13,31,-370,-572,202,471
,616,2023-10-27 11:16:58.05,180,-127,-2047,-27,-9,32,-196,-405,209,300
,617,2023-10-27 11:16:58.06,172,-120,-2055,-35,-6,31,-364,-528,164,446
,618,2023-10-27 11:16:58.07,164,-126,-2061,-42,-11,27,-185,-352,167,268
,619,2023-10-27 11:16:58.08,172,-131,-2071,-43,-20,30,-362,-504,142,433
,620,2023-10-27 11:16:58.09,147,-131,-2068,-41,-28,31,-201,-382,181,291
,621,2023-10-27 11:16:58.10,176,-125,-2060,-34,-32,31,-378,-538,160,458
,622,2023-10-27 11:16:58.11,163,-123,-2056,-35,-33,30,-189,-354,165,271
,623,2023-10-27 11:16:58.12,176,-116,-2054,-35,-31,28,-364,-497,133,430
,624,2023-10-27 11:16:58.13,168,-121,-2052,-39,-31,25,-171,-333,162,252
,625,2023-10-27 11:16:58.14,169,-115,-2051,-38,-32,23,-358,-493,135,425
,626,2023-10-27 11:16:58.15,158,-112,-2050,-38,-29,23,-162,-316,154,239
,627,2023-10-27 11:16:58.16,171,-112,-2050,-37,-27,23,-349,-465,116,407
,628,2023-10-27 11:16:58.17,154,-112,-2048,-36,-26,21,-154,-286,132,220
,629,2023-10-27 11:16:58.18,165,-115,-2049,-37,-26,22,-355,-471,116,413
,630,2023-10-27 11:16:58.19,160,-117,-2054,-34,-25,23,-179,-351,172,265
,631,2023-10-27 11:16:58.20,172,-112,-2044,-33,-18,22,-366,-520,154,443
,632,2023-10-27 11:16:58.21,169,-116,-2037,-32,-19,19,-164,-328,164,246
,633,2023-10-27 11:16:58.22,160,-111,-2053,-30,-15,19,-352,-476,124,414
,634,2023-10-27 11:16:58.23,171,-113,-2047,-27,-9,18,-157,-298,141,227
,635,2023-10-27 11:16:58.24,169,-124,-2051,-21,-7,15,-362,-467,105,414
,636,2023-10-27 11:16:58.25,159,-125,-2052,-10,-7,14,-162,-290,128,226
,637,2023-10-27 11:16:58.26,160,-122,-2051,-2,-5,13,-368,-497,129,432
,638,2023-10-27 11:16:58.27,164,-129,-2053,7,-5,16,-170,-392,222,281
,639,2023-10-27 11:16:58.28,152,-136,-2062,13,-8,17,-369,-563,194,466
,640,2023-10-27 11:16:58.29,157,-124,-2061,22,-13,17,-168,-376,208,272
,641,2023-10-27 11:16:58.30,170,-112,-2049,29,-14,16,-363,-503,140,433
,642,2023-10-27 11:16:58.31,165,-123,-2049,33,-13,14,-154,-299,145,226
,643,2023-10-27 11:16:58.32,153,-118,-2068,34,-13,9,-363,-511,148,437
,644,2023-10-27 11:16:58.33,152,-119,-2076,36,-19,8,-174,-417,243,295
,645,2023-10-27 11:16:58.34,152,-121,-2075,40,-29,5,-384,-595,211,489
,646,2023-10-27 11:16:58.35,147,-124,-2062,47,-43,7,-175,-406,231,290
,647,2023-10-27 11:16:58.36,154,-128,-2057,47,-52,5,-382,-564,182,473
,648,2023-10-27 11:16:58.37,175,-115,-2061,37,-41,0,-180,-418,238,299
,649,2023-10-27 11:16:58.38,140,-129,-2046,30,-43,-4,-373,-557,184,465
,650,2023-10-27 11:16:58.39,152,-123,-2037,28,-46,-1,-156,-356,200,256
,651,2023-10-27 11:16:58.40,131,-129,-2041,32,-53,0,-349,-481,132,415
,652,2023-10-27 11:16:58.41,161,-134,-2053,29,-47,5,-144,-295,151,219
,653,2023-10-27 11:16:58.42,132,-146,-2055,23,-37,6,-344,-449,105,396
,654,2023-10-27 11:16:58.43,146,-147,-2057,16,-30,13,-143,-283,140,213
,655,2023-10-27 11:16:58.44,148,-147,-2051,8,-18,22,-357,-495,138,426
,656,2023-10-27 11:16:58.45,140,-144,-2039,6,-18,29,-172,-384,212,278
,657,2023-10-27 11:16:58.46,146,-141,-2040,4,-15,37,-370,-540,170,455
,658,2023-10-27 11:16:58.47,139,-135,-2049,-5,-4,40,-160,-350,190,255
,659,2023-10-27 11:16:58.48,145,-141,-2057,-15,8,42,-352,-502,150,427
,660,2023-10-27 11:16:58.49,148,-129,-2055,-17,10,42,-154,-353,199,253
,661,2023-10-27 11:16:58.50,148,-122,-2054,-14,11,44,-352,-500,148,426
,662,2023-10-27 11:16:58.51,150,-118,-2048,-15,13,41,-162,-336,174,249
,663,2023-10-27 11:16:58.52,150,-119,-2054,-18,17,33,-354,-470,116,412
,664,2023-10-27 11:16:58.53,164,-111,-2050,-19,17,29,-165,-306,141,235
,665,2023-10-27 11:16:58.54,151,-114,-2049,-16,15,21,-346,-453,107,399
,666,2023-10-27 11:16:58.55,152,-104,-2057,-10,9,13,-154,-302,148,228
,667,2023-10-27 11:16:58.56,165,-107,-2053,-4,9,6,-338,-459,121,398
,668,2023-10-27 11:16:58.57,154,-114,-2045,-4,11,2,-150,-317,167,233
,669,2023-10-27 11:16:58.58,163,-139,-2056,0,11,1,-330,-456,126,393
,670,2023-10-27 11:16:58.59,151,-116,-2058,5,2,-1,-144,-304,160,224
,671,2023-10-27 11:16:58.60,161,-113,-2048,8,8,-2,-331,-435,104,383
,672,2023-10-27 11:16:58.61,159,-117,-2051,9,10,-5,-148,-290,142,219
,673,2023-10-27 11:16:58.62,161,-117,-2056,4,4,-7,-328,-452,124,390
,674,2023-10-27 11:16:58.63,152,-128,-2064,8,6,-6,-159,-347,188,253
,675,2023-10-27 11:16:58.64,155,-128,-2062,7,0,-8,-335,-503,168,419
,676,2023-10-27 11:16:58.65,145,-129,-2056,8,-4,-2,-171,-383,212,277
,677,2023-10-27 11:16:58.66,145,-124,-2058,7,-6,1,-345,-531,186,438
,678,2023-10-27 11:16:58.67,139,-126,-2061,4,-7,1,-180,-410,230,295
,679,2023-10-27 11:16:58.68,152,-132,-2055,2,-8,6,-338,-542,204,440
,680,2023-10-27 11:16:58.69,154,-128,-2046,5,-4,11,-172,-422,250,297
,681,2023-10-27 11:16:58.70,158,-126,-2049,3,-2,14,-340,-542,202,441
,682,2023-10-27 11:16:58.71,145,-125,-2052,-2,4,18,-196,-426,230,311
,683,2023-10-27 11:16:58.72,150,-124,-2052,-1,8,20,-358,-580,222,469
,684,2023-10-27 11:16:58.73,150,-130,-2054,-4,6,25,-210,-493,283,351
,685,2023-10-27 11:16:58.74,145,-125,-2048,-2,6,28,-336,-559,223,447
,686,2023-10-27 11:16:58.75,149,-126,-2053,-2,9,30,-184,-404,220,294
,687,2023-10-27 11:16:58.76,156,-127,-2053,0,9,31,-328,-512,184,420
,688,2023-10-27 11:16:58.77,156,-116,-2054,0,4,26,-199,-425,226,312
,689,2023-10-27 11:16:58.78,155,-111,-2062,5,2,26,-339,-515,176,427
,690,2023-10-27 11:16:58.79,147,-113,-2063,8,-5,23,-204,-397,193,300
,691,2023-10-27 11:16:58.80,151,-111,-2062,9,-15,20,-330,-464,134,397
,692,2023-10-27 11:16:58.81,149,-111,-2056,13,-18,17,-201,-361,160,281
,693,2023-10-27 11:16:58.82,153,-120,-2049,17,-22,17,-329,-458,129,393
,694,2023-10-27 11:16:58.83,145,-123,-2059,22,-26,12,-214,-386,172,300
,695,2023-10-27 11:16:58.84,148,-130,-2050,21,-25,17,-328,-474,146,401
,696,2023-10-27 11:16:58.85,149,-130,-2048,25,-23,21,-214,-400,186,307
,697,2023-10-27 11:16:58.86,146,-137,-2053,27,-22,19,-317,-464,147,390
,698,2023-10-27 11:16:58.87,150,-136,-2056,28,-18,23,-214,-388,174,301
,699,2023-10-27 11:16:58.88,148,-135,-2067,26,-12,25,-312,-435,123,373
,700,2023-10-27 11:16:58.89,144,-142,-2059,16,8,23,-215,-358,143,286
,701,2023-10-27 11:16:58.90,159,-118,-2060,12,5,28,-310,-408,98,359
,702,2023-10-27 11:16:58.91,161,-134,-2075,6,9,27,-218,-349,131,283
,703,2023-10-27 11:16:58.92,131,-131,-2085,-1,7,29,-303,-403,100,353
,704,2023-10-27 11:16:58.93,150,-101,-2105,3,-24,37,-215,-356,141,285
,705,2023-10-27 11:16:58.94,159,-119,-2091,-6,5,33,-301,-420,119,360
,706,2023-10-27 11:16:58.95,154,-126,-2078,-11,10,31,-226,-387,161,306
,707,2023-10-27 11:16:58.96,148,-140,-2069,-12,1,31,-292,-407,115,349
,708,2023-10-27 11:16:58.97,168,-131,-2101,-8,-9,31,-222,-356,134,289
,709,2023-10-27 11:16:58.98,157,-136,-2143,-3,-8,28,-278,-375,97,326
,710,2023-10-27 11:16:58.99,154,-123,-2167,8,-15,33,-222,-349,127,285
,711,2023-10-27 11:16:59.00,169,-103,-2168,3,-4,26,-274,-368,94,321
,712,2023-10-27 11:16:59.01,141,-114,-2122,-4,-2,20,-231,-347,116,289
,713,2023-10-27 11:16:59.02,147,-137,-2088,2,-17,22,-268,-353,85,310
,714,2023-10-27 11:16:59.03,157,-141,-2077,17,-19,22,-221,-340,119,280
,715,2023-10-27 11:16:59.04,158,-141,-2094,36,-18,16,-256,-368,112,312
,716,2023-10-27 11:16:59.05,137,-129,-2086,56,-31,11,-224,-379,155,301
,717,2023-10-27 11:16:59.06,160,-106,-2090,67,-31,4,-259,-390,131,324
,718,2023-10-27 11:16:59.07,144,-110,-2028,62,-23,2,-240,-393,153,316
,719,2023-10-27 11:16:59.08,142,-137,-1990,67,-25,-3,-258,-389,131,323
,720,2023-10-27 11:16:59.09,147,-154,-1975,73,-13,-3,-235,-387,152,311
,721,2023-10-27 11:16:59.10,136,-128,-1945,84,-17,-7,-257,-403,146,330
,722,2023-10-27 11:16:59.11,152,-128,-1940,88,-12,-6,-243,-415,172,329
,723,2023-10-27 11:16:59.12,147,-123,-1956,87,-12,-5,-247,-407,160,327
,724,2023-10-27 11:16:59.13,120,-126,-1978,78,-19,-4,-250,-430,180,340
,725,2023-10-27 11:16:59.14,151,-121,-2000,64,-18,1,-246,-412,166,329
,726,2023-10-27 11:16:59.15,101,-121,-2002,44,-17,11,-254,-434,180,344
,727,2023-10-27 11:16:59.16,123,-139,-2003,21,-29,22,-253,-388,135,320
,728,2023-10-27 11:16:59.17,104,-141,-2021,-1,-31,31,-269,-413,144,341
,729,2023-10-27 11:16:59.18,123,-148,-2073,-20,-38,44,-256,-359,103,307
,730,2023-10-27 11:16:59.19,128,-142,-2133,-36,-43,58,-281,-400,119,340
,731,2023-10-27 11:16:59.20,168,-159,-2087,-48,-45,70,-257,-386,129,321
,732,2023-10-27 11:16:59.21,132,-126,-2066,-17,-22,71,-290,-451,161,370
,733,2023-10-27 11:16:59.22,122,-149,-2133,1,-25,81,-254,-415,161,334
,734,2023-10-27 11:16:59.23,151,-187,-2158,-8,-28,89,-289,-468,179,378
,735,2023-10-27 11:16:59.24,131,-185,-2185,-10,-6,96,-256,-477,221,366
,736,2023-10-27 11:16:59.25,145,-160,-2157,-6,8,98,-302,-544,242,423
,737,2023-10-27 11:16:59.26,146,-167,-2070,5,11,102,-253,-452,199,352
,738,2023-10-27 11:16:59.27,136,-159,-2062,22,38,100,-304,-473,169,388
,739,2023-10-27 11:16:59.28,123,-155,-2054,39,29,99,-247,-378,131,312
,740,2023-10-27 11:16:59.29,127,-149,-2061,55,28,97,-310,-442,132,376
,741,2023-10-27 11:16:59.30,125,-124,-2042,70,24,92,-242,-361,119,301
,742,2023-10-27 11:16:59.31,125,-119,-2034,72,18,83,-311,-431,120,371
,743,2023-10-27 11:16:59.32,101,-128,-2012,66,16,78,-227,-329,102,278
,744,2023-10-27 11:16:59.33,109,-113,-2010,61,11,74,-302,-407,105,354
,745,2023-10-27 11:16:59.34,95,-129,-2003,55,3,69,-227,-346,119,286
,746,2023-10-27 11:16:59.35,98,-141,-2011,51,-7,65,-312,-452,140,382
,747,2023-10-27 11:16:59.36,102,-136,-2001,49,-20,63,-221,-378,157,299
,748,2023-10-27 11:16:59.37,111,-158,-1982,50,-18,65,-314,-471,157,392
,749,2023-10-27 11:16:59.38,107,-177,-1983,59,-21,73,-224,-360,136,292
,750,2023-10-27 11:16:59.39,106,-190,-1966,64,-21,79,-326,-454,128,390
,751,2023-10-27 11:16:59.40,118,-189,-1976,69,-24,91,-223,-355,132,289
,752,2023-10-27 11:16:59.41,119,-186,-1964,74,-18,99,-328,-456,128,392
,753,2023-10-27 11:16:59.42,134,-180,-1967,71,3,109,-223,-346,123,284
,754,2023-10-27 11:16:59.43,123,-175,-1990,55,28,115,-329,-438,109,383
,755,2023-10-27 11:16:59.44,110,-145,-1997,26,47,116,-213,-307,94,260
,756,2023-10-27 11:16:59.45,123,-130,-2005,5,53,118,-324,-420,96,372
,757,2023-10-27 11:16:59.46,123,-112,-2024,-15,56,118,-196,-312,116,254
,758,2023-10-27 11:16:59.47,126,-101,-2036,-38,50,115,-322,-443,121,382
,759,2023-10-27 11:16:59.48,127,-87,-2029,-62,47,108,-187,-311,124,249
,760,2023-10-27 11:16:59.49,144,-89,-2041,-83,51,97,-327,-444,117,385
,761,2023-10-27 11:16:59.50,134,-75,-2047,-102,51,80,-197,-342,145,269
,762,2023-10-27 11:16:59.51,135,-65,-2069,-117,51,65,-344,-482,138,413
,763,2023-10-27 11:16:59.52,138,-74,-2052,-134,48,51,-184,-317,133,250
,764,2023-10-27 11:16:59.53,159,-106,-2030,-135,55,33,-316,-421,105,368
,765,2023-10-27 11:16:59.54,143,-88,-2051,-124,62,20,-158,-253,95,205
,766,2023-10-27 11:16:59.55,155,-105,-2054,-109,36,11,-307,-390,83,348
,767,2023-10-27 11:16:59.56,184,-124,-2075,-98,48,1,-154,-230,76,192
,768,2023-10-27 11:16:59.57,143,-116,-2069,-86,57,-7,-317,-386,69,351
,769,2023-10-27 11:16:59.58,164,-133,-2088,-67,53,-11,-156,-231,75,193
,770,2023-10-27 11:16:59.59,154,-124,-2106,-52,63,-14,-321,-386,65,353
,771,2023-10-27 11:16:59.60,151,-126,-2099,-40,58,-15,-142,-211,69,176
,772,2023-10-27 11:16:59.61,143,-131,-2104,-24,44,-8,-311,-367,56,339
,773,2023-10-27 11:16:59.62,148,-131,-2098,-19,39,-2,-131,-199,68,165
,774,2023-10-27 11:16:59.63,113,-140,-2077,-14,28,7,-310,-373,63,341
,775,2023-10-27 11:16:59.64,135,-139,-2087,-3,3,16,-131,-220,89,175
,776,2023-10-27 11:16:59.65,140,-131,-2069,4,-3,28,-313,-404,91,358
,777,2023-10-27 11:16:59.66,144,-112,-2052,8,-11,32,-139,-267,128,203
,778,2023-10-27 11:16:59.67,142,-112,-2049,9,-13,34,-319,-427,108,373
,779,2023-10-27 11:16:59.68,130,-111,-2047,0,-9,33,-129,-242,113,185
,780,2023-10-27 11:16:59.69,113,-114,-2058,3,-32,34,-319,-399,80,359
,781,2023-10-27 11:16:59.70,106,-124,-2051,15,-60,39,-140,-227,87,183
,782,2023-10-27 11:16:59.71,113,-132,-2047,30,-76,46,-328,-399,71,363
,783,2023-10-27 11:16:59.72,118,-147,-2051,41,-83,53,-133,-218,85,175
,784,2023-10-27 11:16:59.73,125,-143,-2037,42,-79,61,-325,-412,87,368
,785,2023-10-27 11:16:59.74,123,-144,-2015,43,-59,68,-135,-271,136,203
,786,2023-10-27 11:16:59.75,103,-168,-2033,43,-33,71,-337,-456,119,396
,787,2023-10-27 11:16:59.76,119,-165,-2041,46,-27,78,-138,-270,132,204
,788,2023-10-27 11:16:59.77,109,-165,-2037,55,-16,84,-328,-424,96,376
,789,2023-10-27 11:16:59.78,134,-166,-2042,64,-1,92,-117,-235,118,176
,790,2023-10-27 11:16:59.79,129,-167,-2048,67,10,94,-320,-451,131,385
,791,2023-10-27 11:16:59.80,130,-146,-2040,63,29,92,-121,-361,240,241
,792,2023-10-27 11:16:59.81,82,-151,-2014,68,27,87,-336,-546,210,441
,793,2023-10-27 11:16:59.82,110,-155,-2061,100,-14,95,-146,-361,215,253
,794,2023-10-27 11:16:59.83,161,-137,-2086,107,-2,93,-361,-504,143,432
,795,2023-10-27 11:16:59.84,122,-138,-2061,90,32,77,-155,-302,147,228
,796,2023-10-27 11:16:59.85,136,-127,-2062,63,59,65,-350,-473,123,411
,797,2023-10-27 11:16:59.86,143,-142,-2073,42,75,49,-135,-302,167,218
,798,2023-10-27 11:16:59.87,105,-152,-2078,53,41,45,-343,-491,148,417
,799,2023-10-27 11:16:59.88,159,-146,-2088,69,6,45,-135,-333,198,234
,800,2023-10-27 11:16:59.89,178,-129,-2063,61,34,29,-348,-493,145,420
,801,2023-10-27 11:16:59.90,140,-133,-2047,34,63,13,-137,-281,144,209
,802,2023-10-27 11:16:59.91,136,-124,-2096,8,65,6,-335,-442,107,388
,803,2023-10-27 11:16:59.92,150,-162,-2043,0,37,5,-112,-274,162,193
,804,2023-10-27 11:16:59.93,138,-165,-2030,16,34,0,-326,-455,129,390
,805,2023-10-27 11:16:59.94,130,-146,-2065,22,26,0,-126,-288,162,207
,806,2023-10-27 11:16:59.95,150,-160,-2044,-1,21,4,-325,-441,116,383
,807,2023-10-27 11:16:59.96,139,-149,-2049,-13,32,5,-116,-255,139,185
,808,2023-10-27 11:16:59.97,136,-152,-2027,-11,15,12,-328,-464,136,396
,809,2023-10-27 11:16:59.98,156,-145,-2025,-14,9,16,-134,-349,215,241
,810,2023-10-27 11:16:59.99,138,-136,-2019,-24,13,18,-342,-536,194,439
,811,2023-10-27 11:17:00.00,150,-134,-2038,-32,16,15,-134,-364,230,249
,812,2023-10-27 11:17:00.01,141,-138,-2051,-45,23,15,-337,-496,159,416
,813,2023-10-27 11:17:00.02,132,-131,-2057,-45,8,19,-128,-298,170,213
,814,2023-10-27 11:17:00.03,146,-137,-2059,-46,5,23,-338,-469,131,403
,815,2023-10-27 11:17:00.04,160,-125,-2055,-50,10,20,-140,-329,189,234
,816,2023-10-27 11:17:00.05,145,-124,-2044,-55,8,22,-339,-482,143,410
,817,2023-10-27 11:17:00.06,162,-121,-2050,-56,5,23,-139,-303,164,221
,818,2023-10-27 11:17:00.07,147,-118,-2043,-55,10,20,-337,-447,110,392
,819,2023-10-27 11:17:00.08,152,-131,-2061,-53,6,19,-144,-284,140,214
,820,2023-10-27 11:17:00.09,152,-137,-2070,-53,16,19,-340,-440,100,390
,821,2023-10-27 11:17:00.10,159,-126,-2060,-51,18,21,-149,-281,132,215
,822,2023-10-27 11:17:00.11,128,-144,-2053,-42,12,24,-348,-458,110,403
,823,2023-10-27 11:17:00.12,148,-136,-2084,-37,14,27,-165,-331,166,248
,824,2023-10-27 11:17:00.13,139,-139,-2079,-34,15,35,-355,-480,125,417
,825,2023-10-27 11:17:00.14,153,-135,-2074,-30,19,37,-159,-313,154,236
,826,2023-10-27 11:17:00.15,138,-131,-2055,-24,13,41,-340,-442,102,391
,827,2023-10-27 11:17:00.16,147,-118,-2044,-18,10,42,-150,-288,138,219
,828,2023-10-27 11:17:00.17,151,-129,-2048,-13,10,41,-332,-413,81,372
,829,2023-10-27 11:17:00.18,143,-123,-2063,-8,12,38,-147,-255,108,201
,830,2023-10-27 11:17:00.19,146,-109,-2048,-8,23,37,-331,-419,88,375
,831,2023-10-27 11:17:00.20,161,-114,-2039,-1,16,34,-158,-310,152,234
,832,2023-10-27 11:17:00.21,161,-124,-2055,2,17,31,-328,-445,117,386
,833,2023-10-27 11:17:00.22,158,-128,-2065,7,17,28,-155,-296,141,225
,834,2023-10-27 11:17:00.23,159,-126,-2072,16,17,25,-318,-434,116,376
,835,2023-10-27 11:17:00.24,157,-123,-2070,18,13,22,-156,-321,165,238
,836,2023-10-27 11:17:00.25,149,-114,-2061,22,17,22,-310,-463,153,386
,837,2023-10-27 11:17:00.26,160,-127,-2052,21,20,19,-145,-345,200,245
,838,2023-10-27 11:17:00.27,140,-132,-2048,21,17,15,-316,-502,186,409
,839,2023-10-27 11:17:00.28,154,-125,-2052,27,0,17,-171,-409,238,290
,840,2023-10-27 11:17:00.29,175,-124,-2061,30,-1,14,-327,-523,196,425
,841,2023-10-27 11:17:00.30,159,-117,-2054,26,9,10,-169,-388,219,278
,842,2023-10-27 11:17:00.31,159,-113,-2056,19,13,4,-317,-464,147,390
,843,2023-10-27 11:17:00.32,162,-116,-2056,11,13,2,-170,-332,162,251
,844,2023-10-27 11:17:00.33,153,-120,-2061,12,8,0,-308,-410,102,359
,845,2023-10-27 11:17:00.34,155,-124,-2049,15,3,-2,-159,-288,129,223
,846,2023-10-27 11:17:00.35,158,-129,-2048,11,3,-3,-309,-428,119,368
,847,2023-10-27 11:17:00.36,155,-129,-2044,5,8,-3,-177,-358,181,267
,848,2023-10-27 11:17:00.37,157,-135,-2051,4,9,-1,-311,-444,133,377
,849,2023-10-27 11:17:00.38,151,-132,-2056,-3,13,3,-178,-328,150,253
,850,2023-10-27 11:17:00.39,149,-134,-2052,-6,10,7,-306,-425,119,365
,851,2023-10-27 11:17:00.40,150,-127,-2052,-12,7,11,-184,-344,160,264
,852,2023-10-27 11:17:00.41,151,-129,-2052,-16,6,17,-313,-462,149,387
,853,2023-10-27 11:17:00.42,161,-127,-2049,-22,6,23,-193,-386,193,289
,854,2023-10-27 11:17:00.43,152,-130,-2050,-21,8,28,-308,-473,165,390
,855,2023-10-27 11:17:00.44,157,-125,-2053,-20,10,31,-192,-393,201,292
,856,2023-10-27 11:17:00.45,159,-126,-2043,-17,7,32,-296,-464,168,380
,857,2023-10-27 11:17:00.46,132,-128,-2049,2,-23,37,-188,-380,192,284
,858,2023-10-27 11:17:00.47,195,-119,-2063,7,-9,38,-281,-401,120,341
,859,2023-10-27 11:17:00.48,147,-118,-2050,0,16,25,-186,-312,126,249
,860,2023-10-27 11:17:00.49,157,-122,-2060,2,10,26,-268,-347,79,307
,861,2023-10-27 11:17:00.50,156,-118,-2064,2,10,21,-181,-285,104,233
,862,2023-10-27 11:17:00.51,149,-113,-2063,10,-4,22,-261,-333,72,297
,863,2023-10-27 11:17:00.52,156,-116,-2059,14,-12,18,-184,-287,103,235
,864,2023-10-27 11:17:00.53,152,-121,-2056,17,-14,13,-270,-383,113,326
,865,2023-10-27 11:17:00.54,152,-121,-2062,15,-17,9,-203,-367,164,285
,866,2023-10-27 11:17:00.55,165,-116,-2051,19,-22,8,-272,-394,122,333
,867,2023-10-27 11:17:00.56,144,-126,-2053,20,-22,9,-198,-331,133,264
,868,2023-10-27 11:17:00.57,153,-133,-2053,18,-24,13,-268,-363,95,315
,869,2023-10-27 11:17:00.58,139,-129,-2058,13,-28,17,-207,-338,131,272
,870,2023-10-27 11:17:00.59,137,-129,-2055,11,-30,19,-276,-412,136,344
,871,2023-10-27 11:17:00.60,139,-138,-2058,10,-30,25,-225,-404,179,314
,872,2023-10-27 11:17:00.61,130,-131,-2061,3,-31,32,-272,-413,141,342
,873,2023-10-27 11:17:00.62,129,-131,-2054,2,-29,40,-214,-374,160,294
,874,2023-10-27 11:17:00.63,135,-134,-2053,2,-32,45,-285,-435,150,360
,875,2023-10-27 11:17:00.64,144,-133,-2053,4,-36,49,-254,-447,193,350
,876,2023-10-27 11:17:00.65,140,-129,-2054,4,-32,54,-307,-480,173,393
,877,2023-10-27 11:17:00.66,141,-125,-2058,6,-29,51,-265,-456,191,360
,878,2023-10-27 11:17:00.67,132,-115,-2044,7,-19,50,-273,-416,143,344
,879,2023-10-27 11:17:00.68,141,-129,-2044,5,-14,49,-244,-387,143,315
,880,2023-10-27 11:17:00.69,142,-118,-2046,3,-10,48,-263,-408,145,335
,881,2023-10-27 11:17:00.70,142,-118,-2046,7,-4,45,-257,-437,180,347
,882,2023-10-27 11:17:00.71,129,-130,-2054,10,-2,46,-268,-447,179,357
,883,2023-10-27 11:17:00.72,120,-130,-2060,13,-4,45,-260,-447,187,353
,884,2023-10-27 11:17:00.73,132,-114,-2058,14,1,43,-244,-386,142,315
,885,2023-10-27 11:17:00.74,137,-109,-2059,16,4,38,-243,-380,137,311
,886,2023-10-27 11:17:00.75,147,-109,-2063,15,10,30,-241,-365,124,303
,887,2023-10-27 11:17:00.76,143,-102,-2057,17,8,23,-257,-401,144,329
,888,2023-10-27 11:17:00.77,135,-100,-2053,16,5,17,-245,-358,113,301
,889,2023-10-27 11:17:00.78,144,-119,-2054,16,5,12,-265,-384,119,324
,890,2023-10-27 11:17:00.79,138,-128,-2045,18,2,13,-240,-341,101,290
,891,2023-10-27 11:17:00.80,133,-135,-2046,19,3,13,-261,-380,119,320
,892,2023-10-27 11:17:00.81,136,-135,-2046,15,2,16,-231,-311,80,271
,893,2023-10-27 11:17:00.82,128,-129,-2047,12,5,18,-265,-356,91,310
,894,2023-10-27 11:17:00.83,139,-133,-2044,10,6,22,-227,-310,83,268
,895,2023-10-27 11:17:00.84,136,-124,-2046,8,9,25,-267,-381,114,324
,896,2023-10-27 11:17:00.85,132,-133,-2049,-5,14,28,-216,-308,92,262
,897,2023-10-27 11:17:00.86,116,-143,-2079,-9,14,34,-267,-370,103,318
,898,2023-10-27 11:17:00.87,119,-138,-2068,-7,6,43,-224,-309,85,266
,899,2023-10-27 11:17:00.88,121,-146,-2067,-8,-1,56,-289,-396,107,342
,900,2023-10-27 11:17:00.89,132,-147,-2065,-8,2,65,-223,-318,95,270
,901,2023-10-27 11:17:00.90,107,-142,-2043,-7,-2,69,-292,-399,107,345
,902,2023-10-27 11:17:00.91,133,-131,-2043,-1,-4,81,-221,-313,92,267
,903,2023-10-27 11:17:00.92,115,-135,-2051,5,3,84,-303,-405,102,354
,904,2023-10-27 11:17:00.93,133,-125,-2049,5,8,86,-230,-314,84,272
,905,2023-10-27 11:17:00.94,128,-118,-2052,4,22,83,-312,-405,93,358
,906,2023-10-27 11:17:00.95,148,-117,-2042,5,29,77,-215,-296,81,255
,907,2023-10-27 11:17:00.96,152,-107,-2036,5,37,68,-301,-394,93,347
,908,2023-10-27 11:17:00.97,135,-112,-2038,11,40,59,-206,-304,98,255
,909,2023-10-27 11:17:00.98,150,-103,-2036,17,44,48,-308,-416,108,362
,910,2023-10-27 11:17:00.99,141,-106,-2048,22,49,36,-206,-332,126,269
,911,2023-10-27 11:17:01.00,146,-107,-2048,26,45,24,-312,-444,132,378
,912,2023-10-27 11:17:01.01,138,-111,-2045,30,46,8,-193,-346,153,269
,913,2023-10-27 11:17:01.02,135,-112,-2051,47,9,7,-309,-468,159,388
,914,2023-10-27 11:17:01.03,186,-113,-2071,51,10,-2,-204,-404,200,304
,915,2023-10-27 11:17:01.04,153,-106,-2055,46,23,-14,-333,-520,187,426
,916,2023-10-27 11:17:01.05,164,-118,-2040,41,25,-22,-212,-392,180,302
,917,2023-10-27 11:17:01.06,153,-114,-2042,33,30,-27,-339,-500,161,419
,918,2023-10-27 11:17:01.07,148,-132,-2060,32,20,-27,-201,-393,192,297
,919,2023-10-27 11:17:01.08,165,-137,-2071,29,15,-25,-324,-500,176,412
,920,2023-10-27 11:17:01.09,131,-147,-2073,31,5,-18,-178,-332,154,255
,921,2023-10-27 11:17:01.10,140,-148,-2069,28,-8,-10,-320,-448,128,384
,922,2023-10-27 11:17:01.11,141,-148,-2069,25,-16,1,-191,-349,158,270
,923,2023-10-27 11:17:01.12,148,-142,-2066,18,-21,10,-338,-494,156,416
,924,2023-10-27 11:17:01.13,152,-138,-2062,13,-19,16,-188,-367,179,277
,925,2023-10-27 11:17:01.14,150,-133,-2053,7,-12,20,-334,-496,162,415
,926,2023-10-27 11:17:01.15,156,-136,-2042,2,-8,22,-188,-374,186,281
,927,2023-10-27 11:17:01.16,152,-142,-2039,-1,1,24,-340,-500,160,420
,928,2023-10-27 11:17:01.17,158,-135,-2049,-2,8,27,-191,-345,154,268
,929,2023-10-27 11:17:01.18,157,-131,-2046,-3,17,28,-348,-474,126,411
,930,2023-10-27 11:17:01.19,157,-126,-2057,-3,22,24,-187,-307,120,247
,931,2023-10-27 11:17:01.20,141,-120,-2060,-5,28,22,-344,-445,101,394
,932,2023-10-27 11:17:01.21,162,-122,-2059,-2,23,19,-177,-276,99,226
,933,2023-10-27 11:17:01.22,164,-117,-2051,2,18,14,-341,-425,84,383
,934,2023-10-27 11:17:01.23,154,-115,-2050,8,17,6,-167,-257,90,212
,935,2023-10-27 11:17:01.24,148,-118,-2050,13,13,-3,-336,-424,88,380
,936,2023-10-27 11:17:01.25,161,-118,-2049,18,11,-9,-152,-275,123,213
,937,2023-10-27 11:17:01.26,165,-121,-2053,26,7,-16,-328,-439,111,383
,938,2023-10-27 11:17:01.27,149,-124,-2048,30,2,-21,-136,-255,119,195
,939,2023-10-27 11:17:01.28,155,-129,-2053,35,-4,-25,-328,-412,84,370
,940,2023-10-27 11:17:01.29,148,-135,-2058,40,-7,-25,-148,-235,87,191
,941,2023-10-27 11:17:01.30,148,-135,-2057,40,-9,-25,-342,-417,75,379
,942,2023-10-27 11:17:01.31,150,-125,-2053,37,-10,-27,-156,-269,113,212
,943,2023-10-27 11:17:01.32,141,-124,-2041,32,-7,-27,-347,-443,96,395
,944,2023-10-27 11:17:01.33,147,-127,-2051,29,-14,-23,-151,-263,112,207
,945,2023-10-27 11:17:01.34,155,-143,-2053,22,-2,-24,-345,-440,95,392
,946,2023-10-27 11:17:01.35,155,-140,-2053,22,1,-24,-155,-293,138,224
,947,2023-10-27 11:17:01.36,152,-145,-2050,26,-1,-22,-356,-475,119,415
,948,2023-10-27 11:17:01.37,154,-147,-2056,27,4,-17,-156,-307,151,231
,949,2023-10-27 11:17:01.38,147,-157,-2053,25,7,-12,-353,-458,105,405
,950,2023-10-27 11:17:01.39,147,-144,-2060,24,5,-6,-154,-261,107,207
,951,2023-10-27 11:17:01.40,141,-149,-2057,22,5,3,-363,-445,82,404
,952,2023-10-27 11:17:01.41,149,-142,-2052,22,0,13,-177,-312,135,244
,953,2023-10-27 11:17:01.42,149,-152,-2055,18,-4,21,-374,-486,112,430
,954,2023-10-27 11:17:01.43,137,-153,-2054,14,1,24,-168,-292,124,230
,955,2023-10-27 11:17:01.44,161,-137,-2046,13,-3,28,-354,-434,80,394
,956,2023-10-27 11:17:01.45,150,-133,-2050,17,-8,26,-151,-245,94,198
,957,2023-10-27 11:17:01.46,147,-124,-2050,22,-15,18,-345,-400,55,372
,958,2023-10-27 11:17:01.47,160,-111,-2057,31,-19,9,-138,-223,85,180
,959,2023-10-27 11:17:01.48,150,-102,-2059,34,-23,-2,-331,-403,72,367
,960,2023-10-27 11:17:01.49,157,-103,-2049,33,-25,-18,-130,-251,121,190
,961,2023-10-27 11:17:01.50,158,-114,-2045,33,-24,-28,-338,-440,102,389
,962,2023-10-27 11:17:01.51,137,-121,-2049,34,-23,-37,-137,-282,145,209
,963,2023-10-27 11:17:01.52,140,-140,-2052,28,-21,-37,-343,-458,115,400
,964,2023-10-27 11:17:01.53,148,-137,-2053,19,-19,-38,-139,-290,151,214
,965,2023-10-27 11:17:01.54,144,-144,-2052,19,-23,-31,-337,-443,106,390
,966,2023-10-27 11:17:01.55,149,-144,-2053,17,-17,-26,-134,-260,126,197
,967,2023-10-27 11:17:01.56,141,-148,-2040,7,-6,-19,-336,-440,104,388
,968,2023-10-27 11:17:01.57,141,-172,-2058,3,2,-11,-144,-300,156,222
,969,2023-10-27 11:17:01.58,137,-174,-2058,8,1,4,-347,-490,143,418
,970,2023-10-27 11:17:01.59,127,-180,-2060,14,-4,20,-144,-333,189,238
,971,2023-10-27 11:17:01.60,121,-177,-2069,15,-6,32,-338,-473,135,405
,972,2023-10-27 11:17:01.61,135,-157,-2064,15,-1,46,-127,-273,146,200
,973,2023-10-27 11:17:01.62,140,-157,-2064,8,8,55,-330,-445,115,387
,974,2023-10-27 11:17:01.63,141,-139,-2059,1,17,63,-140,-303,163,221
,975,2023-10-27 11:17:01.64,148,-126,-2052,1,22,57,-349,-474,125,411
,976,2023-10-27 11:17:01.65,136,-117,-2060,-5,24,52,-153,-306,153,229
,977,2023-10-27 11:17:01.66,140,-116,-2056,-7,23,45,-352,-470,118,411
,978,2023-10-27 11:17:01.67,144,-111,-2051,-2,18,35,-158,-314,156,236
,979,2023-10-27 11:17:01.68,158,-109,-2041,8,10,23,-367,-480,113,423
,980,2023-10-27 11:17:01.69,143,-110,-2043,15,4,8,-178,-320,142,249
,981,2023-10-27 11:17:01.70,153,-114,-2046,23,5,-7,-365,-462,97,413
,982,2023-10-27 11:17:01.71,161,-104,-2034,29,5,-23,-159,-284,125,221
,983,2023-10-27 11:17:01.72,160,-105,-2027,40,0,-39,-348,-445,97,396
,984,2023-10-27 11:17:01.73,170,-112,-2031,48,-6,-51,-156,-304,148,230
,985,2023-10-27 11:17:01.74,151,-120,-2035,52,-13,-62,-345,-485,140,415
,986,2023-10-27 11:17:01.75,151,-125,-2049,48,-11,-66,-150,-351,201,250
,987,2023-10-27 11:17:01.76,150,-140,-2062,40,-7,-69,-341,-490,149,415
,988,2023-10-27 11:17:01.77,139,-143,-2086,33,-9,-65,-158,-327,169,242
,989,2023-10-27 11:17:01.78,142,-152,-2097,24,-11,-57,-347,-448,101,397
,990,2023-10-27 11:17:01.79,143,-178,-2094,9,-9,-47,-161,-286,125,223
,991,2023-10-27 11:17:01.80,133,-175,-2071,9,-18,-31,-348,-420,72,384
,992,2023-10-27 11:17:01.81,129,-183,-2067,22,-38,-14,-175,-288,113,231
,993,2023-10-27 11:17:01.82,125,-187,-2045,30,-42,5,-362,-475,113,418
,994,2023-10-27 11:17:01.83,128,-180,-2038,35,-43,24,-188,-377,189,282
,995,2023-10-27 11:17:01.84,117,-173,-2026,29,-26,37,-344,-485,141,414
,996,2023-10-27 11:17:01.85,133,-165,-2037,32,-17,48,-152,-311,159,231
,997,2023-10-27 11:17:01.86,113,-170,-2043,33,-10,58,-318,-439,121,378
,998,2023-10-27 11:17:01.87,128,-158,-2038,36,-13,67,-154,-327,173,240
,999,2023-10-27 11:17:01.88,134,-155,-2043,37,-5,71,-317,-438,121,377
,1000,2023-10-27 11:17:01.89,122,-145,-2038,32,5,70,-151,-289,138,220
,1001,2023-10-27 11:17:01.90,132,-151,-2041,30,13,67,-308,-411,103,359
,1002,2023-10-27 11:17:01.91,131,-157,-2050,31,20,62,-169,-314,145,241
,1003,2023-10-27 11:17:01.92,144,-139,-2035,32,19,57,-318,-441,123,379
,1004,2023-10-27 11:17:01.93,141,-145,-2024,31,29,47,-173,-336,163,254
,1005,2023-10-27 11:17:01.94,134,-136,-2035,30,37,32,-320,-453,133,386
,1006,2023-10-27 11:17:01.95,138,-135,-2044,27,37,21,-171,-341,170,256
,1007,2023-10-27 11:17:01.96,142,-147,-2051,27,36,10,-304,-435,131,369
,1008,2023-10-27 11:17:01.97,132,-149,-2064,30,27,2,-165,-328,163,246
,1009,2023-10-27 11:17:01.98,126,-149,-2068,29,14,-2,-296,-404,108,350
,1010,2023-10-27 11:17:01.99,132,-145,-2066,26,3,-5,-163,-296,133,229
,1011,2023-10-27 11:17:02.00,125,-158,-2066,23,-5,-7,-311,-417,106,364
,1012,2023-10-27 11:17:02.01,130,-165,-2070,23,-12,-7,-196,-353,157,274
,1013,2023-10-27 11:17:02.02,121,-162,-2056,22,-19,-7,-312,-428,116,370
,1014,2023-10-27 11:17:02.03,123,-169,-2053,21,-23,-5,-183,-329,146,256
,1015,2023-10-27 11:17:02.04,125,-177,-2043,21,-22,-2,-297,-382,85,339
,1016,2023-10-27 11:17:02.05,128,-182,-2051,19,-14,-1,-188,-302,114,245
,1017,2023-10-27 11:17:02.06,121,-177,-2043,17,-6,0,-308,-395,87,351
,1018,2023-10-27 11:17:02.07,137,-173,-2045,13,7,3,-206,-346,140,276
,1019,2023-10-27 11:17:02.08,142,-171,-2041,7,29,3,-313,-424,111,368
,1020,2023-10-27 11:17:02.09,125,-167,-2037,0,40,1,-215,-364,149,289
,1021,2023-10-27 11:17:02.10,145,-168,-2044,0,35,7,-301,-424,123,362
,1022,2023-10-27 11:17:02.11,121,-163,-2053,2,29,12,-204,-359,155,281
,1023,2023-10-27 11:17:02.12,129,-168,-2048,6,26,14,-282,-380,98,331
,1024,2023-10-27 11:17:02.13,129,-167,-2049,9,18,15,-192,-314,122,253
,1025,2023-10-27 11:17:02.14,122,-162,-2063,9,14,15,-278,-379,101,328
,1026,2023-10-27 11:17:02.15,141,-157,-2051,10,12,16,-209,-363,154,286
,1027,2023-10-27 11:17:02.16,135,-156,-2046,12,8,13,-284,-412,128,348
,1028,2023-10-27 11:17:02.17,143,-155,-2039,11,11,12,-217,-378,161,297
,1029,2023-10-27 11:17:02.18,139,-145,-2046,10,16,10,-286,-406,120,346
,1030,2023-10-27 11:17:02.19,146,-157,-2048,6,20,8,-227,-370,143,298
,1031,2023-10-27 11:17:02.20,152,-157,-2051,4,23,6,-276,-379,103,327
,1032,2023-10-27 11:17:02.21,141,-160,-2050,1,25,8,-224,-353,129,288
,1033,2023-10-27 11:17:02.22,145,-154,-2051,-1,25,7,-272,-384,112,328
,1034,2023-10-27 11:17:02.23,142,-153,-2056,1,28,9,-236,-383,147,309
,1035,2023-10-27 11:17:02.24,141,-165,-2055,-1,26,8,-281,-395,114,338
,1036,2023-10-27 11:17:02.25,145,-156,-2062,1,26,8,-251,-380,129,315
,1037,2023-10-27 11:17:02.26,154,-148,-2051,5,21,8,-289,-379,90,334
,1038,2023-10-27 11:17:02.27,146,-151,-2050,11,18,9,-275,-394,119,334
,1039,2023-10-27 11:17:02.28,152,-153,-2058,15,19,7,-307,-421,114,364
,1040,2023-10-27 11:17:02.29,145,-149,-2050,14,16,6,-286,-438,152,362
,1041,2023-10-27 11:17:02.30,146,-155,-2043,15,16,6,-289,-396,107,342
,1042,2023-10-27 11:17:02.31,145,-151,-2046,18,11,6,-262,-378,116,320
,1043,2023-10-27 11:17:02.32,147,-146,-2049,18,5,6,-257,-335,78,296
,1044,2023-10-27 11:17:02.33,134,-151,-2053,19,-1,4,-248,-346,98,297
,1045,2023-10-27 11:17:02.34,147,-158,-2055,21,-2,3,-245,-325,80,285
,1046,2023-10-27 11:17:02.35,148,-159,-2055,24,-3,2,-242,-355,113,298
,1047,2023-10-27 11:17:02.36,143,-162,-2053,27,-1,3,-235,-327,92,281
,1048,2023-10-27 11:17:02.37,156,-157,-2042,27,3,1,-252,-361,109,306
,1049,2023-10-27 11:17:02.38,151,-159,-2033,26,16,-1,-247,-315,68,281
,1050,2023-10-27 11:17:02.39,155,-163,-2043,21,22,-4,-266,-352,86,309
,1051,2023-10-27 11:17:02.40,154,-171,-2036,18,28,-6,-248,-301,53,274
,1052,2023-10-27 11:17:02.41,133,-173,-2026,26,18,-1,-274,-354,80,314
,1053,2023-10-27 11:17:02.42,172,-170,-2067,26,14,8,-236,-288,52,262
,1054,2023-10-27 11:17:02.43,144,-181,-2068,17,28,8,-266,-347,81,306
,1055,2023-10-27 11:17:02.44,155,-170,-2059,21,17,15,-240,-323,83,281
,1056,2023-10-27 11:17:02.45,166,-164,-2046,27,18,20,-285,-405,120,345
,1057,2023-10-27 11:17:02.46,156,-178,-2045,26,18,21,-229,-319,90,274
,1058,2023-10-27 11:17:02.47,150,-171,-2061,21,12,23,-270,-374,104,322
,1059,2023-10-27 11:17:02.48,143,-172,-2070,22,6,28,-206,-298,92,252
,1060,2023-10-27 11:17:02.49,149,-178,-2061,26,-2,33,-268,-377,109,322
,1061,2023-10-27 11:17:02.50,144,-169,-2059,26,-10,37,-200,-285,85,242
,1062,2023-10-27 11:17:02.51,138,-155,-2052,20,-9,39,-277,-389,112,333
,1063,2023-10-27 11:17:02.52,148,-154,-2044,9,-5,39,-218,-421,203,319
,1064,2023-10-27 11:17:02.53,150,-152,-2040,-1,-4,37,-299,-535,236,417
,1065,2023-10-27 11:17:02.54,146,-147,-2045,-3,-3,34,-198,-394,196,296
,1066,2023-10-27 11:17:02.55,147,-151,-2050,-10,-3,33,-276,-425,149,350
,1067,2023-10-27 11:17:02.56,138,-159,-2052,-10,-6,28,-180,-294,114,237
,1068,2023-10-27 11:17:02.57,128,-160,-2062,-7,-11,29,-282,-391,109,336
,1069,2023-10-27 11:17:02.58,140,-165,-2066,-1,-19,26,-194,-300,106,247
,1070,2023-10-27 11:17:02.59,147,-163,-2060,6,-25,26,-300,-417,117,358
,1071,2023-10-27 11:17:02.60,137,-158,-2050,12,-25,26,-189,-336,147,262
,1072,2023-10-27 11:17:02.61,145,-157,-2044,13,-24,24,-300,-456,156,378
,1073,2023-10-27 11:17:02.62,150,-158,-2040,15,-16,19,-199,-373,174,286
,1074,2023-10-27 11:17:02.63,152,-166,-2030,16,-2,15,-314,-478,164,396
,1075,2023-10-27 11:17:02.64,150,-163,-2036,16,9,15,-199,-345,146,272
,1076,2023-10-27 11:17:02.65,143,-164,-2047,18,23,12,-318,-443,125,380
,1077,2023-10-27 11:17:02.66,135,-163,-2057,20,27,9,-196,-325,129,260
,1078,2023-10-27 11:17:02.67,149,-160,-2053,22,30,7,-314,-448,134,381
,1079,2023-10-27 11:17:02.68,148,-159,-2060,24,29,5,-205,-366,161,285
,1080,2023-10-27 11:17:02.69,152,-154,-2054,26,24,-2,-332,-483,151,407
,1081,2023-10-27 11:17:02.70,148,-151,-2055,28,21,-5,-195,-334,139,264
,1082,2023-10-27 11:17:02.71,151,-159,-2041,31,14,-7,-316,-437,121,376
,1083,2023-10-27 11:17:02.72,153,-177,-2054,33,14,-13,-169,-313,144,241
,1084,2023-10-27 11:17:02.73,148,-165,-2043,38,11,-16,-308,-446,138,377
,1085,2023-10-27 11:17:02.74,149,-162,-2047,36,13,-21,-162,-313,151,237
,1086,2023-10-27 11:17:02.75,158,-171,-2057,41,13,-21,-310,-443,133,376
,1087,2023-10-27 11:17:02.76,154,-169,-2054,41,8,-21,-158,-278,120,218
,1088,2023-10-27 11:17:02.77,143,-165,-2070,45,-7,-21,-316,-419,103,367
,1089,2023-10-27 11:17:02.78,144,-170,-2059,46,-19,-19,-162,-275,113,218
,1090,2023-10-27 11:17:02.79,138,-179,-2059,47,-21,-13,-320,-439,119,379
,1091,2023-10-27 11:17:02.80,136,-184,-2049,41,-18,-10,-151,-302,151,226
,1092,2023-10-27 11:17:02.81,147,-194,-2045,34,-10,-1,-323,-468,145,395
,1093,2023-10-27 11:17:02.82,133,-196,-2040,25,-1,4,-157,-326,169,241
,1094,2023-10-27 11:17:02.83,137,-197,-2043,19,10,14,-333,-485,152,409
,1095,2023-10-27 11:17:02.84,136,-190,-2038,13,18,19,-160,-333,173,246
,1096,2023-10-27 11:17:02.85,155,-176,-2036,4,26,25,-333,-483,150,408
,1097,2023-10-27 11:17:02.86,140,-167,-2045,-5,36,28,-148,-315,167,231
,1098,2023-10-27 11:17:02.87,159,-166,-2040,-13,39,30,-332,-479,147,405
,1099,2023-10-27 11:17:02.88,148,-157,-2049,-18,41,29,-150,-337,187,243
,1100,2023-10-27 11:17:02.89,146,-165,-2055,-20,41,29,-336,-488,152,412
,1101,2023-10-27 11:17:02.90,151,-156,-2059,-25,37,26,-143,-302,159,222
,1102,2023-10-27 11:17:02.91,163,-158,-2060,-25,35,20,-333,-468,135,400
,1103,2023-10-27 11:17:02.92,226,-153,-2075,6,-24,22,-149,-343,194,246
,1104,2023-10-27 11:17:02.93,148,-143,-2059,-7,36,-1,-345,-508,163,426
,1105,2023-10-27 11:17:02.94,124,-151,-2017,0,14,-7,-163,-327,164,245
,1106,2023-10-27 11:17:02.95,171,-154,-2072,16,-15,-7,-359,-487,128,423
,1107,2023-10-27 11:17:02.96,167,-163,-2059,19,10,-16,-181,-344,163,262
,1108,2023-10-27 11:17:02.97,137,-161,-2046,26,2,-23,-365,-507,142,436
,1109,2023-10-27 11:17:02.98,171,-161,-2062,31,-3,-22,-160,-325,165,242
,1110,2023-10-27 11:17:02.99,156,-174,-2058,31,7,-25,-345,-471,126,408
,1111,2023-10-27 11:17:03.00,154,-178,-2060,37,-8,-23,-135,-263,128,199
,1112,2023-10-27 11:17:03.01,160,-179,-2050,46,-13,-17,-330,-418,88,374
,1113,2023-10-27 11:17:03.02,158,-179,-2037,47,-15,-11,-129,-228,99,178
,1114,2023-10-27 11:17:03.03,153,-189,-2039,44,-12,-6,-336,-417,81,376
,1115,2023-10-27 11:17:03.04,156,-194,-2050,43,-6,1,-143,-261,118,202
,1116,2023-10-27 11:17:03.05,160,-183,-2051,41,-6,6,-357,-454,97,405
,1117,2023-10-27 11:17:03.06,147,-187,-2049,42,-10,13,-165,-293,128,229
,1118,2023-10-27 11:17:03.07,163,-177,-2053,42,-4,18,-370,-467,97,418
,1119,2023-10-27 11:17:03.08,140,-178,-2053,38,-3,19,-152,-262,110,207
,1120,2023-10-27 11:17:03.09,165,-174,-2041,31,7,18,-360,-425,65,392
,1121,2023-10-27 11:17:03.10,151,-172,-2050,30,3,13,-146,-226,80,186
,1122,2023-10-27 11:17:03.11,157,-164,-2046,32,2,10,-356,-451,95,403
,1123,2023-10-27 11:17:03.12,146,-167,-2051,32,-5,7,-146,-335,189,240
,1124,2023-10-27 11:17:03.13,148,-162,-2044,30,-8,3,-354,-513,159,433
,1125,2023-10-27 11:17:03.14,144,-174,-2055,31,-13,-3,-138,-304,166,221
,1126,2023-10-27 11:17:03.15,143,-171,-2060,28,-13,-8,-336,-442,106,389
,1127,2023-10-27 11:17:03.16,143,-177,-2057,28,-16,-9,-117,-248,131,182
,1128,2023-10-27 11:17:03.17,146,-178,-2058,30,-21,-10,-340,-424,84,382
,1129,2023-10-27 11:17:03.18,148,-181,-2044,32,-18,-12,-132,-245,113,188
,1130,2023-10-27 11:17:03.19,145,-190,-2041,31,-16,-11,-344,-430,86,387
,1131,2023-10-27 11:17:03.20,146,-190,-2033,24,-4,-11,-136,-271,135,203
,1132,2023-10-27 11:17:03.21,152,-195,-2034,20,14,-9,-339,-428,89,383
,1133,2023-10-27 11:17:03.22,140,-201,-2045,13,30,-5,-130,-243,113,186
,1134,2023-10-27 11:17:03.23,141,-201,-2042,9,34,-1,-338,-428,90,383
,1135,2023-10-27 11:17:03.24,140,-193,-2044,5,43,4,-142,-289,147,215
,1136,2023-10-27 11:17:03.25,144,-182,-2034,5,49,4,-346,-478,132,412
,1137,2023-10-27 11:17:03.26,130,-169,-2012,6,47,4,-143,-327,184,235
,1138,2023-10-27 11:17:03.27,159,-161,-2045,4,34,5,-335,-468,133,401
,1139,2023-10-27 11:17:03.28,162,-170,-2059,-1,53,-6,-135,-290,155,212
,1140,2023-10-27 11:17:03.29,136,-172,-2057,2,50,-13,-331,-442,111,386
,1141,2023-10-27 11:17:03.30,147,-175,-2060,17,25,-12,-136,-283,147,209
,1142,2023-10-27 11:17:03.31,158,-177,-2061,19,28,-17,-322,-425,103,373
,1143,2023-10-27 11:17:03.32,135,-178,-2050,20,24,-18,-124,-255,131,189
,1144,2023-10-27 11:17:03.33,170,-178,-2054,21,16,-23,-311,-399,88,355
,1145,2023-10-27 11:17:03.34,143,-176,-2048,24,18,-25,-123,-241,118,182
,1146,2023-10-27 11:17:03.35,153,-173,-2061,29,3,-30,-335,-470,135,402
,1147,2023-10-27 11:17:03.36,153,-181,-2055,27,1,-30,-169,-399,230,284
,1148,2023-10-27 11:17:03.37,136,-193,-2059,25,4,-30,-360,-548,188,454
,1149,2023-10-27 11:17:03.38,155,-203,-2059,23,5,-24,-170,-368,198,269
,1150,2023-10-27 11:17:03.39,133,-198,-2058,27,-6,-18,-346,-472,126,409
,1151,2023-10-27 11:17:03.40,148,-197,-2058,35,-21,-10,-160,-307,147,233
,1152,2023-10-27 11:17:03.41,143,-196,-2066,35,-20,-4,-337,-473,136,405
,1153,2023-10-27 11:17:03.42,128,-198,-2056,32,-14,-1,-153,-346,193,249
,1154,2023-10-27 11:17:03.43,158,-206,-2055,31,-13,7,-331,-476,145,403
,1155,2023-10-27 11:17:03.44,150,-195,-2034,33,-12,11,-155,-320,165,237
,1156,2023-10-27 11:17:03.45,157,-206,-2040,41,-17,18,-324,-431,107,377
,1157,2023-10-27 11:17:03.46,160,-206,-2030,43,3,22,-148,-284,136,216
,1158,2023-10-27 11:17:03.47,158,-198,-2035,38,20,23,-308,-418,110,363
,1159,2023-10-27 11:17:03.48,150,-195,-2046,36,29,28,-135,-290,155,212
,1160,2023-10-27 11:17:03.49,138,-200,-2048,40,30,28,-298,-426,128,362
,1161,2023-10-27 11:17:03.50,148,-191,-2046,42,30,31,-148,-322,174,235
,1162,2023-10-27 11:17:03.51,140,-187,-2048,44,25,33,-320,-481,161,400
,1163,2023-10-27 11:17:03.52,159,-188,-2036,38,30,33,-168,-389,221,278
,1164,2023-10-27 11:17:03.53,137,-188,-2040,37,35,30,-314,-484,170,399
,1165,2023-10-27 11:17:03.54,147,-197,-2051,38,23,32,-155,-353,198,254
,1166,2023-10-27 11:17:03.55,156,-204,-2036,42,19,36,-293,-417,124,355
,1167,2023-10-27 11:17:03.56,153,-202,-2044,44,25,38,-142,-278,136,210
,1168,2023-10-27 11:17:03.57,136,-200,-2039,41,31,38,-280,-360,80,320
,1169,2023-10-27 11:17:03.58,149,-199,-2044,37,31,38,-140,-255,115,197
,1170,2023-10-27 11:17:03.59,143,-198,-2052,39,28,39,-294,-402,108,348
,1171,2023-10-27 11:17:03.60,162,-197,-2054,46,26,36,-172,-338,166,255
,1172,2023-10-27 11:17:03.61,170,-215,-2035,43,38,43,-299,-424,125,361
,1173,2023-10-27 11:17:03.62,145,-206,-2044,40,46,35,-174,-318,144,246
,1174,2023-10-27 11:17:03.63,158,-202,-2043,34,42,37,-280,-394,114,337
,1175,2023-10-27 11:17:03.64,168,-191,-2063,38,39,36,-154,-299,145,226
,1176,2023-10-27 11:17:03.65,157,-188,-2045,40,43,32,-261,-375,114,318
,1177,2023-10-27 11:17:03.66,166,-195,-2039,40,37,29,-148,-285,137,216
,1178,2023-10-27 11:17:03.67,171,-186,-2036,32,45,22,-257,-355,98,306
,1179,2023-10-27 11:17:03.68,176,-186,-2034,29,49,14,-154,-277,123,215
,1180,2023-10-27 11:17:03.69,179,-184,-2041,34,49,7,-266,-408,142,337
,1181,2023-10-27 11:17:03.70,165,-203,-2051,36,50,-2,-162,-363,201,262
,1182,2023-10-27 11:17:03.71,174,-198,-2050,38,49,-10,-267,-424,157,345
,1183,2023-10-27 11:17:03.72,176,-203,-2044,38,56,-17,-175,-337,162,256
,1184,2023-10-27 11:17:03.73,182,-199,-2058,37,59,-26,-291,-392,101,341
,1185,2023-10-27 11:17:03.74,175,-201,-2048,37,57,-28,-207,-333,126,270
,1186,2023-10-27 11:17:03.75,185,-199,-2048,39,49,-31,-308,-392,84,350
,1187,2023-10-27 11:17:03.76,194,-204,-2025,39,53,-33,-221,-341,120,281
,1188,2023-10-27 11:17:03.77,192,-204,-2021,42,57,-37,-309,-397,88,353
,1189,2023-10-27 11:17:03.78,199,-215,-2023,46,50,-41,-237,-370,133,303
,1190,2023-10-27 11:17:03.79,200,-217,-2033,43,61,-40,-314,-668,354,491
,1191,2023-10-27 11:17:03.80,202,-211,-2042,45,61,-40,-246,-769,523,507
,1192,2023-10-27 11:17:03.81,196,-210,-2042,44,61,-40,-318,-872,554,595
,1193,2023-10-27 11:17:03.82,203,-214,-2035,44,60,-42,-256,-782,526,519
,1194,2023-10-27 11:17:03.83,207,-215,-2046,42,64,-41,-301,-723,422,512
,1195,2023-10-27 11:17:03.84,200,-224,-2070,40,59,-43,-244,-595,351,419
,1196,2023-10-27 11:17:03.85,202,-224,-2093,38,60,-40,-299,-659,360,479
,1197,2023-10-27 11:17:03.86,187,-227,-2090,42,40,-38,-260,-650,390,455
,1198,2023-10-27 11:17:03.87,207,-213,-2080,43,30,-39,-283,-625,342,454
,1199,2023-10-27 11:17:03.88,194,-212,-2073,42,15,-43,-235,-533,298,384
,1200,2023-10-27 11:17:03.89,199,-216,-2077,36,5,-48,-232,-498,266,365
,1201,2023-10-27 11:17:03.90,171,-221,-2093,34,-12,-47,-198,-465,267,331
,1202,2023-10-27 11:17:03.91,175,-223,-2076,37,-45,-43,-250,-501,251,375
,1203,2023-10-27 11:17:03.92,184,-224,-2058,38,-71,-35,-250,-504,254,377
,1204,2023-10-27 11:17:03.93,193,-203,-2030,32,-83,-36,-284,-492,208,388
,1205,2023-10-27 11:17:03.94,202,-204,-2025,21,-71,-40,-264,-462,198,363
,1206,2023-10-27 11:17:03.95,188,-218,-2037,4,-57,-43,-270,-416,146,343
,1207,2023-10-27 11:17:03.96,177,-233,-2039,-7,-45,-45,-263,-416,153,339
,1208,2023-10-27 11:17:03.97,175,-254,-2044,-1,-43,-39,-262,-405,143,333
,1209,2023-10-27 11:17:03.98,176,-243,-2041,9,-45,-28,-265,-431,166,348
,1210,2023-10-27 11:17:03.99,173,-259,-2025,8,-45,-16,-258,-398,140,328
,1211,2023-10-27 11:17:04.00,167,-262,-2028,7,-34,-2,-276,-420,144,348
,1212,2023-10-27 11:17:04.01,167,-275,-2023,3,-25,14,-270,-378,108,324
,1213,2023-10-27 11:17:04.02,174,-262,-2008,3,-11,28,-290,-414,124,352
,1214,2023-10-27 11:17:04.03,177,-256,-2007,1,14,43,-265,-365,100,315
,1215,2023-10-27 11:17:04.04,201,-240,-1981,-11,44,50,-292,-414,122,353
,1216,2023-10-27 11:17:04.05,197,-225,-1979,-24,78,53,-263,-368,105,315
,1217,2023-10-27 11:17:04.06,203,-215,-2010,-40,102,55,-304,-428,124,366
,1218,2023-10-27 11:17:04.07,177,-173,-2110,-53,113,60,-266,-370,104,318
,1219,2023-10-27 11:17:04.08,135,-216,-2037,-73,30,78,-312,-430,118,371
,1220,2023-10-27 11:17:04.09,242,-225,-1947,-36,13,89,-266,-361,95,313
,1221,2023-10-27 11:17:04.10,173,-155,-2092,-10,45,75,-320,-432,112,376
,1222,2023-10-27 11:17:04.11,220,-182,-2052,-36,22,65,-253,-375,122,314
,1223,2023-10-27 11:17:04.12,217,-172,-2069,-62,64,58,-309,-445,136,377
,1224,2023-10-27 11:17:04.13,208,-186,-2073,-63,54,45,-235,-343,108,289
,1225,2023-10-27 11:17:04.14,217,-182,-2083,-48,24,40,-304,-408,104,356
,1226,2023-10-27 11:17:04.15,221,-173,-2074,-39,11,32,-214,-302,88,258
,1227,2023-10-27 11:17:04.16,211,-197,-2067,-40,14,29,-289,-388,99,338
,1228,2023-10-27 11:17:04.17,205,-201,-2058,-33,4,27,-199,-316,117,257
,1229,2023-10-27 11:17:04.18,214,-210,-2046,-17,-4,29,-287,-417,130,352
,1230,2023-10-27 11:17:04.19,203,-209,-2044,10,-20,27,-196,-338,142,267
,1231,2023-10-27 11:17:04.20,210,-216,-2033,33,-25,30,-288,-433,145,360
,1232,2023-10-27 11:17:04.21,202,-223,-2042,52,-24,32,-180,-333,153,256
,1233,2023-10-27 11:17:04.22,192,-230,-2045,65,-28,42,-277,-420,143,348
,1234,2023-10-27 11:17:04.23,204,-236,-2055,82,-26,52,-165,-285,120,225
,1235,2023-10-27 11:17:04.24,218,-233,-2101,87,-18,65,-274,-391,117,332
,1236,2023-10-27 11:17:04.25,184,-250,-2053,66,3,65,-162,-306,144,234
,1237,2023-10-27 11:17:04.26,147,-256,-2065,64,-15,83,-283,-443,160,363
,1238,2023-10-27 11:17:04.27,151,-265,-2076,76,-41,104,-170,-366,196,268
,1239,2023-10-27 11:17:04.28,148,-247,-2076,83,-57,122,-300,-493,193,396
,1240,2023-10-27 11:17:04.29,162,-230,-2068,75,-66,135,-156,-387,231,271
,1241,2023-10-27 11:17:04.30,161,-226,-2050,55,-59,139,-282,-485,203,383
,1242,2023-10-27 11:17:04.31,157,-218,-2041,31,-48,140,-131,-329,198,230
,1243,2023-10-27 11:17:04.32,160,-216,-2032,15,-42,140,-289,-445,156,367
,1244,2023-10-27 11:17:04.33,158,-222,-2035,9,-57,142,-155,-305,150,230
,1245,2023-10-27 11:17:04.34,160,-234,-2044,1,-54,142,-314,-434,120,374
,1246,2023-10-27 11:17:04.35,151,-227,-2035,-8,-47,140,-176,-298,122,237
,1247,2023-10-27 11:17:04.36,156,-221,-2029,-15,-43,140,-330,-432,102,381
,1248,2023-10-27 11:17:04.37,167,-233,-2025,-22,-22,139,-163,-277,114,220
,1249,2023-10-27 11:17:04.38,153,-236,-2014,-23,-28,140,-308,-415,107,361
,1250,2023-10-27 11:17:04.39,191,-208,-1968,-19,-27,143,-130,-264,134,197
,1251,2023-10-27 11:17:04.40,212,-185,-1956,-23,0,133,-298,-419,121,358
,1252,2023-10-27 11:17:04.41,213,-173,-1981,-37,35,114,-131,-281,150,206
,1253,2023-10-27 11:17:04.42,202,-178,-2027,-54,71,94,-302,-430,128,366
,1254,2023-10-27 11:17:04.43,194,-174,-2047,-63,88,76,-131,-262,131,196
,1255,2023-10-27 11:17:04.44,208,-177,-2055,-58,86,61,-317,-442,125,379
,1256,2023-10-27 11:17:04.45,198,-185,-2050,-52,73,53,-172,-367,195,269
,1257,2023-10-27 11:17:04.46,189,-182,-2061,-53,71,44,-350,-539,189,444
,1258,2023-10-27 11:17:04.47,172,-201,-2088,-63,63,43,-167,-389,222,278
,1259,2023-10-27 11:17:04.48,161,-201,-2123,-62,38,46,-336,-526,190,431
,1260,2023-10-27 11:17:04.49,146,-201,-2124,-49,-12,51,-136,-363,227,249
,1261,2023-10-27 11:17:04.50,134,-202,-2108,-30,-62,65,-330,-514,184,422
,1262,2023-10-27 11:17:04.51,143,-209,-2089,-12,-100,77,-179,-453,274,316
,1263,2023-10-27 11:17:04.52,187,-205,-2116,-6,-100,78,-335,-625,290,480
,1264,2023-10-27 11:17:04.53,191,-214,-2063,-33,-64,61,-159,-515,356,337
,1265,2023-10-27 11:17:04.54,146,-178,-2030,-41,-44,47,-359,-663,304,511
,1266,2023-10-27 11:17:04.55,164,-214,-2038,-31,-54,44,-181,-492,311,336
,1267,2023-10-27 11:17:04.56,150,-214,-2039,-27,-42,34,-379,-604,225,491
,1268,2023-10-27 11:17:04.57,143,-218,-2030,-5,-55,33,-188,-407,219,297
,1269,2023-10-27 11:17:04.58,176,-218,-2036,22,-65,31,-372,-535,163,453
,1270,2023-10-27 11:17:04.59,155,-221,-2025,32,-50,22,-168,-351,183,259
,1271,2023-10-27 11:17:04.60,143,-231,-2030,37,-48,20,-365,-510,145,437
,1272,2023-10-27 11:17:04.61,135,-243,-2059,42,-49,18,-169,-331,162,250
,1273,2023-10-27 11:17:04.62,130,-246,-2050,54,-56,26,-355,-475,120,415
,1274,2023-10-27 11:17:04.63,118,-242,-2052,69,-71,37,-132,-264,132,198
,1275,2023-10-27 11:17:04.64,136,-258,-2039,65,-61,45,-331,-425,94,378
,1276,2023-10-27 11:17:04.65,134,-247,-2030,56,-53,57,-137,-255,118,196
,1277,2023-10-27 11:17:04.66,141,-241,-2014,45,-38,67,-342,-432,90,387
,1278,2023-10-27 11:17:04.67,136,-224,-2011,34,-37,75,-140,-258,118,199
,1279,2023-10-27 11:17:04.68,147,-220,-2021,22,-33,87,-344,-447,103,395
,1280,2023-10-27 11:17:04.69,145,-212,-2022,1,-18,93,-138,-293,155,215
,1281,2023-10-27 11:17:04.70,130,-212,-2025,-21,-7,99,-337,-471,134,404
,1282,2023-10-27 11:17:04.71,135,-210,-2035,-45,-2,104,-117,-291,174,204
,1283,2023-10-27 11:17:04.72,140,-203,-2056,-66,3,110,-302,-431,129,366
,1284,2023-10-27 11:17:04.73,126,-193,-2067,-85,-1,116,-133,-265,132,199
,1285,2023-10-27 11:17:04.74,127,-180,-2057,-101,-9,116,-355,-452,97,403
,1286,2023-10-27 11:17:04.75,145,-170,-2060,-114,-14,117,-164,-297,133,230
,1287,2023-10-27 11:17:04.76,145,-175,-2055,-126,-16,110,-370,-468,98,419
,1288,2023-10-27 11:17:04.77,157,-164,-2060,-130,-20,102,-173,-293,120,233
,1289,2023-10-27 11:17:04.78,155,-166,-2053,-136,-18,93,-381,-479,98,430
,1290,2023-10-27 11:17:04.79,171,-164,-2046,-131,-15,83,-174,-326,152,250
,1291,2023-10-27 11:17:04.80,167,-159,-2043,-123,-11,70,-367,-479,112,423
,1292,2023-10-27 11:17:04.81,160,-163,-2026,-112,-4,57,-162,-292,130,227
,1293,2023-10-27 11:17:04.82,162,-172,-2037,-101,6,47,-359,-461,102,410
,1294,2023-10-27 11:17:04.83,155,-169,-2036,-84,13,32,-156,-313,157,234
,1295,2023-10-27 11:17:04.84,167,-180,-2042,-64,21,25,-362,-478,116,420
,1296,2023-10-27 11:17:04.85,155,-191,-2055,-44,24,18,-149,-290,141,219
,1297,2023-10-27 11:17:04.86,155,-184,-2053,-26,25,10,-349,-454,105,401
,1298,2023-10-27 11:17:04.87,162,-176,-2053,-9,22,4,-140,-293,153,216
,1299,2023-10-27 11:17:04.88,155,-173,-2046,6,17,-1,-342,-451,109,396
,1300,2023-10-27 11:17:04.89,149,-172,-2061,18,11,-1,-140,-272,132,206
,1301,2023-10-27 11:17:04.90,142,-167,-2058,22,2,-4,-337,-418,81,377
,1302,2023-10-27 11:17:04.91,151,-157,-2055,29,-6,-7,-136,-251,115,193
,1303,2023-10-27 11:17:04.92,149,-160,-2058,29,-14,-10,-328,-436,108,382
,1304,2023-10-27 11:17:04.93,153,-164,-2056,27,-21,-13,-127,-307,180,217
,1305,2023-10-27 11:17:04.94,135,-172,-2061,24,-30,-11,-318,-455,137,386
,1306,2023-10-27 11:17:04.95,139,-179,-2062,22,-41,-7,-128,-286,158,207
,1307,2023-10-27 11:17:04.96,142,-182,-2045,24,-53,-3,-320,-416,96,368
,1308,2023-10-27 11:17:04.97,139,-176,-2042,20,-49,2,-130,-256,126,193
,1309,2023-10-27 11:17:04.98,148,-176,-2045,11,-45,5,-325,-464,139,394
,1310,2023-10-27 11:17:04.99,161,-178,-2040,-5,-19,2,-149,-378,229,263
,1311,2023-10-27 11:17:05.00,150,-179,-2043,-2,-29,11,-326,-506,180,416
,1312,2023-10-27 11:17:05.01,125,-176,-2051,-7,-24,14,-134,-326,192,230
,1313,2023-10-27 11:17:05.02,136,-179,-2047,-11,-25,19,-307,-453,146,380
,1314,2023-10-27 11:17:05.03,140,-178,-2057,-12,-18,18,-131,-315,184,223
,1315,2023-10-27 11:17:05.04,124,-173,-2050,-14,-9,21,-304,-448,144,376
,1316,2023-10-27 11:17:05.05,119,-172,-2048,-4,-24,25,-130,-303,173,216
,1317,2023-10-27 11:17:05.06,144,-170,-2045,0,-27,26,-322,-500,178,411
,1318,2023-10-27 11:17:05.07,139,-167,-2057,-1,-11,21,-158,-416,258,287
,1319,2023-10-27 11:17:05.08,123,-174,-2052,0,-7,23,-345,-614,269,479
,1320,2023-10-27 11:17:05.09,128,-181,-2055,7,-13,22,-180,-519,339,349
,1321,2023-10-27 11:17:05.10,117,-181,-2052,16,-16,20,-364,-696,332,530
,1322,2023-10-27 11:17:05.11,134,-181,-2061,22,-21,21,-207,-601,394,404
,1323,2023-10-27 11:17:05.12,126,-181,-2046,22,-2,19,-346,-657,311,501
,1324,2023-10-27 11:17:05.13,129,-178,-2034,26,-1,18,-160,-459,299,309
,1325,2023-10-27 11:17:05.14,124,-184,-2042,30,-6,17,-309,-518,209,413
,1326,2023-10-27 11:17:05.15,126,-183,-2045,31,-8,21,-157,-386,229,271
,1327,2023-10-27 11:17:05.16,141,-179,-2032,33,-5,20,-315,-526,211,420
,1328,2023-10-27 11:17:05.17,124,-197,-2054,29,5,23,-174,-440,266,307
,1329,2023-10-27 11:17:05.18,129,-189,-2059,24,8,28,-309,-528,219,418
,1330,2023-10-27 11:17:05.19,124,-188,-2032,21,13,32,-167,-405,238,286
,1331,2023-10-27 11:17:05.20,131,-181,-2041,22,17,35,-319,-537,218,428
,1332,2023-10-27 11:17:05.21,128,-186,-2040,14,23,37,-199,-467,268,333
,1333,2023-10-27 11:17:05.22,133,-187,-2048,8,31,36,-347,-586,239,466
,1334,2023-10-27 11:17:05.23,124,-180,-2051,8,35,37,-215,-479,264,347
,1335,2023-10-27 11:17:05.24,129,-173,-2055,9,35,35,-361,-639,278,500
,1336,2023-10-27 11:17:05.25,140,-170,-2049,7,33,32,-242,-592,350,417
,1337,2023-10-27 11:17:05.26,131,-172,-2051,7,33,29,-357,-665,308,511
,1338,2023-10-27 11:17:05.27,137,-167,-2047,4,34,24,-227,-534,307,380
,1339,2023-10-27 11:17:05.28,144,-164,-2039,5,31,19,-316,-551,235,433
,1340,2023-10-27 11:17:05.29,143,-164,-2041,11,31,11,-192,-430,238,311
,1341,2023-10-27 11:17:05.30,144,-171,-2038,13,29,5,-300,-471,171,385
,1342,2023-10-27 11:17:05.31,155,-168,-2040,16,30,-1,-200,-390,190,295
,1343,2023-10-27 11:17:05.32,147,-164,-2043,17,32,-9,-320,-520,200,420
,1344,2023-10-27 11:17:05.33,143,-169,-2047,23,27,-14,-232,-496,264,364
,1345,2023-10-27 11:17:05.34,133,-175,-2050,26,25,-17,-350,-638,288,494
,1346,2023-10-27 11:17:05.35,144,-188,-2060,27,23,-17,-264,-607,343,435
,1347,2023-10-27 11:17:05.36,149,-182,-2060,31,21,-18,-349,-621,272,485
,1348,2023-10-27 11:17:05.37,138,-187,-2058,32,21,-15,-254,-512,258,383
,1349,2023-10-27 11:17:05.38,129,-190,-2048,32,19,-11,-323,-564,241,443
,1350,2023-10-27 11:17:05.39,151,-197,-2056,35,19,-8,-243,-525,282,384
,1351,2023-10-27 11:17:05.40,155,-195,-2056,35,21,-3,-306,-562,256,434
,1352,2023-10-27 11:17:05.41,134,-190,-2063,37,18,2,-236,-503,267,369
,1353,2023-10-27 11:17:05.42,138,-197,-2063,37,16,7,-304,-552,248,428
,1354,2023-10-27 11:17:05.43,145,-195,-2055,40,5,13,-246,-518,272,382
,1355,2023-10-27 11:17:05.44,134,-202,-2051,44,5,15,-298,-559,261,428
,1356,2023-10-27 11:17:05.45,140,-195,-2046,44,7,18,-241,-518,277,379
,1357,2023-10-27 11:17:05.46,138,-191,-2051,38,5,20,-304,-553,249,428
,1358,2023-10-27 11:17:05.47,143,-195,-2047,40,6,21,-258,-517,259,387
,1359,2023-10-27 11:17:05.48,145,-195,-2043,36,10,21,-297,-543,246,420
,1360,2023-10-27 11:17:05.49,147,-195,-2049,32,10,24,-260,-526,266,393
,1361,2023-10-27 11:17:05.50,144,-186,-2051,29,14,24,-319,-590,271,454
,1362,2023-10-27 11:17:05.51,148,-186,-2048,25,11,22,-290,-582,292,436
,1363,2023-10-27 11:17:05.52,150,-183,-2049,21,7,19,-310,-554,244,432
,1364,2023-10-27 11:17:05.53,141,-181,-2049,18,9,19,-277,-518,241,397
,1365,2023-10-27 11:17:05.54,138,-184,-2055,12,6,17,-320,-588,268,454
,1366,2023-10-27 11:17:05.55,145,-195,-2057,8,3,17,-313,-624,311,468
,1367,2023-10-27 11:17:05.56,147,-187,-2066,9,4,12,-305,-567,262,436
,1368,2023-10-27 11:17:05.57,157,-188,-2063,10,-2,11,-281,-522,241,401
,1369,2023-10-27 11:17:05.58,158,-176,-2049,10,-2,11,-288,-555,267,421
,1370,2023-10-27 11:17:05.59,156,-190,-2048,11,-2,9,-293,-595,302,444
,1371,2023-10-27 11:17:05.60,152,-196,-2059,15,1,11,-274,-549,275,411
,1372,2023-10-27 11:17:05.61,153,-193,-2060,18,-3,10,-274,-525,251,399
,1373,2023-10-27 11:17:05.62,160,-190,-2067,22,-2,12,-256,-500,244,378
,1374,2023-10-27 11:17:05.63,166,-200,-2066,26,-4,16,-293,-550,257,421
,1375,2023-10-27 11:17:05.64,149,-194,-2081,30,-8,21,-277,-620,343,448
,1376,2023-10-27 11:17:05.65,159,-205,-2099,36,-9,26,-307,-681,374,494
,1377,2023-10-27 11:17:05.66,194,-183,-2144,29,-3,24,-274,-652,378,463
,1378,2023-10-27 11:17:05.67,178,-170,-2068,7,35,12,-303,-635,332,469
,1379,2023-10-27 11:17:05.68,137,-166,-2049,4,31,12,-254,-514,260,384
,1380,2023-10-27 11:17:05.69,163,-197,-2047,8,15,17,-289,-509,220,399
,1381,2023-10-27 11:17:05.70,141,-199,-2036,15,-6,19,-235,-432,197,333
,1382,2023-10-27 11:17:05.71,161,-194,-2042,32,-21,25,-289,-484,195,386
,1383,2023-10-27 11:17:05.72,171,-176,-2039,38,-12,24,-247,-412,165,329
,1384,2023-10-27 11:17:05.73,156,-175,-2029,29,-4,23,-307,-468,161,387
,1385,2023-10-27 11:17:05.74,142,-177,-2030,27,-14,21,-239,-408,169,323
,1386,2023-10-27 11:17:05.75,154,-160,-2031,31,-31,16,-294,-471,177,382
,1387,2023-10-27 11:17:05.76,163,-159,-2027,34,-32,13,-226,-373,147,299
,1388,2023-10-27 11:17:05.77,154,-155,-2037,28,-32,4,-309,-454,145,381
,1389,2023-10-27 11:17:05.78,165,-155,-2064,11,-23,-7,-247,-403,156,325
,1390,2023-10-27 11:17:05.79,137,-157,-2077,6,-25,-17,-332,-502,170,417
,1391,2023-10-27 11:17:05.80,169,-159,-2083,8,-30,-26,-252,-404,152,328
,1392,2023-10-27 11:17:05.81,144,-162,-2088,8,-37,-32,-340,-486,146,413
,1393,2023-10-27 11:17:05.82,176,-176,-2082,3,-31,-42,-254,-394,140,324
,1394,2023-10-27 11:17:05.83,150,-189,-2070,-1,-13,-52,-350,-492,142,421
,1395,2023-10-27 11:17:05.84,146,-202,-2056,0,-11,-55,-241,-381,140,311
,1396,2023-10-27 11:17:05.85,161,-211,-2075,18,-12,-59,-344,-476,132,410
,1397,2023-10-27 11:17:05.86,160,-203,-2070,33,-13,-59,-242,-351,109,296
,1398,2023-10-27 11:17:05.87,138,-193,-2064,43,-15,-60,-354,-452,98,403
,1399,2023-10-27 11:17:05.88,134,-200,-2059,50,-19,-59,-233,-313,80,273
,1400,2023-10-27 11:17:05.89,126,-207,-2056,54,-29,-53,-345,-426,81,385
,1401,2023-10-27 11:17:05.90,129,-213,-2066,64,-49,-45,-213,-295,82,254
,1402,2023-10-27 11:17:05.91,109,-202,-2062,77,-80,-34,-340,-432,92,386
,1403,2023-10-27 11:17:05.92,126,-203,-2036,83,-96,-22,-212,-347,135,279
,1404,2023-10-27 11:17:05.93,135,-214,-2035,77,-88,-14,-342,-496,154,419
,1405,2023-10-27 11:17:05.94,123,-225,-2024,55,-53,-16,-202,-404,202,303
,1406,2023-10-27 11:17:05.95,90,-233,-2013,44,-42,-7,-326,-515,189,420
,1407,2023-10-27 11:17:05.96,104,-232,-2006,48,-48,6,-177,-370,193,273
,1408,2023-10-27 11:17:05.97,88,-242,-1998,70,-66,20,-320,-484,164,402
,1409,2023-10-27 11:17:05.98,95,-249,-1983,90,-87,35,-179,-360,181,269
,1410,2023-10-27 11:17:05.99,97,-252,-1967,90,-63,47,-328,-481,153,404
,1411,2023-10-27 11:17:06.00,76,-255,-1951,91,-57,61,-169,-305,136,237
,1412,2023-10-27 11:17:06.01,84,-260,-1948,98,-60,76,-315,-435,120,375
,1413,2023-10-27 11:17:06.02,90,-263,-1956,109,-61,91,-156,-319,163,237
,1414,2023-10-27 11:17:06.03,118,-257,-1969,115,-37,98,-318,-480,162,399
,1415,2023-10-27 11:17:06.04,71,-249,-1986,103,-6,102,-170,-354,184,262
,1416,2023-10-27 11:17:06.05,66,-233,-1988,93,-13,112,-331,-500,169,415
,1417,2023-10-27 11:17:06.06,96,-247,-2004,85,-2,112,-156,-345,189,250
,1418,2023-10-27 11:17:06.07,83,-221,-2024,82,-2,116,-319,-489,170,404
,1419,2023-10-27 11:17:06.08,94,-218,-2018,72,2,109,-154,-337,183,245
,1420,2023-10-27 11:17:06.09,94,-214,-2028,52,15,100,-336,-504,168,420
,1421,2023-10-27 11:17:06.10,105,-210,-2057,32,26,91,-168,-388,220,278
,1422,2023-10-27 11:17:06.11,107,-202,-2084,18,37,73,-337,-550,213,443
,1423,2023-10-27 11:17:06.12,93,-204,-2095,9,43,55,-145,-392,247,268
,1424,2023-10-27 11:17:06.13,116,-218,-2112,4,49,38,-327,-552,225,439
,1425,2023-10-27 11:17:06.14,104,-232,-2105,7,47,21,-145,-427,282,286
,1426,2023-10-27 11:17:06.15,115,-236,-2106,16,41,9,-339,-606,267,472
,1427,2023-10-27 11:17:06.16,111,-239,-2090,26,31,0,-159,-505,346,332
,1428,2023-10-27 11:17:06.17,129,-237,-2091,40,15,-8,-360,-701,341,530
,1429,2023-10-27 11:17:06.18,122,-261,-2080,45,30,-18,-186,-670,484,428
,1430,2023-10-27 11:17:06.19,106,-250,-2071,45,47,-23,-375,-807,432,591
,1431,2023-10-27 11:17:06.20,120,-243,-2058,46,38,-23,-169,-621,452,395
,1432,2023-10-27 11:17:06.21,110,-251,-2037,41,45,-20,-345,-672,327,508
,1433,2023-10-27 11:17:06.22,112,-253,-2032,36,41,-11,-141,-440,299,290
,1434,2023-10-27 11:17:06.23,108,-239,-2004,31,40,-5,-343,-576,233,459
,1435,2023-10-27 11:17:06.24,120,-224,-2012,25,36,2,-160,-451,291,305
,1436,2023-10-27 11:17:06.25,111,-236,-2009,6,45,6,-358,-629,271,493
,1437,2023-10-27 11:17:06.26,110,-225,-2018,-7,45,13,-167,-501,334,334
,1438,2023-10-27 11:17:06.27,103,-223,-2018,-17,41,16,-359,-652,293,505
,1439,2023-10-27 11:17:06.28,124,-228,-2039,-30,47,24,-157,-490,333,323
,1440,2023-10-27 11:17:06.29,122,-231,-2048,-38,41,30,-368,-679,311,523
,1441,2023-10-27 11:17:06.30,127,-232,-2048,-39,40,36,-193,-613,420,403
,1442,2023-10-27 11:17:06.31,121,-240,-2049,-42,47,37,-404,-769,365,586
,1443,2023-10-27 11:17:06.32,154,-246,-2060,-42,54,39,-204,-589,385,396
,1444,2023-10-27 11:17:06.33,130,-257,-2074,-31,52,40,-388,-666,278,527
,1445,2023-10-27 11:17:06.34,144,-252,-2093,-18,44,40,-169,-433,264,301
,1446,2023-10-27 11:17:06.35,145,-241,-2079,-6,47,38,-380,-606,226,493
,1447,2023-10-27 11:17:06.36,143,-230,-2085,11,42,32,-191,-509,318,350
,1448,2023-10-27 11:17:06.37,152,-229,-2082,21,45,29,-396,-668,272,532
,1449,2023-10-27 11:17:06.38,135,-231,-2074,25,50,22,-188,-462,274,325
,1450,2023-10-27 11:17:06.39,140,-239,-2064,32,53,15,-392,-634,242,513
,1451,2023-10-27 11:17:06.40,147,-231,-2057,40,50,8,-210,-555,345,382
,1452,2023-10-27 11:17:06.41,130,-235,-2041,52,45,3,-420,-763,343,591
,1453,2023-10-27 11:17:06.42,143,-239,-2026,60,38,-5,-234,-667,433,450
,1454,2023-10-27 11:17:06.43,131,-242,-2037,60,44,-11,-408,-765,357,586
,1455,2023-10-27 11:17:06.44,121,-233,-2027,62,36,-17,-185,-541,356,363
,1456,2023-10-27 11:17:06.45,133,-226,-2015,64,26,-24,-386,-683,297,534
,1457,2023-10-27 11:17:06.46,133,-225,-2013,67,19,-29,-203,-573,370,388
,1458,2023-10-27 11:17:06.47,133,-228,-2017,61,12,-38,-398,-711,313,554
,1459,2023-10-27 11:17:06.48,144,-205,-2015,50,11,-45,-187,-512,325,349
,1460,2023-10-27 11:17:06.49,147,-212,-2008,37,10,-56,-389,-648,259,518
,1461,2023-10-27 11:17:06.50,147,-237,-2028,22,12,-62,-198,-506,308,352
,1462,2023-10-27 11:17:06.51,132,-245,-2035,12,9,-66,-410,-663,253,536
,1463,2023-10-27 11:17:06.52,145,-241,-2039,1,8,-64,-220,-504,284,362
,1464,2023-10-27 11:17:06.53,135,-249,-2033,-5,12,-66,-406,-621,215,513
,1465,2023-10-27 11:17:06.54,150,-251,-2037,-2,4,-66,-190,-428,238,309
,1466,2023-10-27 11:17:06.55,161,-247,-2024,-10,22,-65,-374,-562,188,468
,1467,2023-10-27 11:17:06.56,154,-264,-2054,-12,25,-62,-174,-408,234,291
,1468,2023-10-27 11:17:06.57,153,-269,-2066,-16,31,-56,-355,-552,197,453
,1469,2023-10-27 11:17:06.58,150,-268,-2075,-19,43,-52,-152,-392,240,272
,1470,2023-10-27 11:17:06.59,140,-267,-2076,-12,32,-38,-330,-522,192,426
,1471,2023-10-27 11:17:06.60,149,-272,-2070,-13,33,-26,-142,-361,219,251
,1472,2023-10-27 11:17:06.61,145,-272,-2067,-11,23,-12,-338,-534,196,436
,1473,2023-10-27 11:17:06.62,156,-254,-2047,-12,25,-7,-163,-424,261,293
,1474,2023-10-27 11:17:06.63,146,-246,-2033,-14,33,1,-344,-591,247,467
,1475,2023-10-27 11:17:06.64,157,-235,-2038,-17,31,8,-162,-459,297,310
,1476,2023-10-27 11:17:06.65,152,-240,-2034,-14,21,11,-343,-583,240,463
,1477,2023-10-27 11:17:06.66,174,-229,-2017,-20,34,15,-172,-429,257,300
,1478,2023-10-27 11:17:06.67,151,-222,-2004,-25,42,17,-353,-561,208,457
,1479,2023-10-27 11:17:06.68,182,-223,-2006,-30,41,19,-181,-428,247,304
,1480,2023-10-27 11:17:06.69,172,-221,-2004,-38,63,15,-348,-547,199,447
,1481,2023-10-27 11:17:06.70,152,-222,-2006,-40,68,15,-170,-393,223,281
,1482,2023-10-27 11:17:06.71,184,-229,-2020,-42,77,16,-351,-563,212,457
,1483,2023-10-27 11:17:06.72,168,-245,-2018,-38,85,16,-189,-473,284,331
,1484,2023-10-27 11:17:06.73,163,-246,-2043,-28,75,15,-350,-566,216,458
,1485,2023-10-27 11:17:06.74,160,-236,-2030,-22,84,18,-172,-390,218,281
,1486,2023-10-27 11:17:06.75,159,-232,-2050,-15,79,21,-328,-472,144,400
,1487,2023-10-27 11:17:06.76,179,-227,-2052,-9,75,20,-165,-336,171,250
,1488,2023-10-27 11:17:06.77,170,-229,-2051,-1,69,19,-325,-474,149,399
,1489,2023-10-27 11:17:06.78,197,-239,-2065,7,70,19,-180,-387,207,283
,1490,2023-10-27 11:17:06.79,184,-232,-2056,11,79,15,-330,-486,156,408
,1491,2023-10-27 11:17:06.80,180,-234,-2055,18,70,13,-179,-361,182,270
,1492,2023-10-27 11:17:06.81,163,-243,-2057,28,50,14,-343,-535,192,439
,1493,2023-10-27 11:17:06.82,158,-252,-2063,42,29,14,-214,-494,280,354
,1494,2023-10-27 11:17:06.83,156,-249,-2073,55,15,18,-369,-633,264,501
,1495,2023-10-27 11:17:06.84,143,-234,-2073,57,1,18,-228,-519,291,373
,1496,2023-10-27 11:17:06.85,159,-234,-2068,62,-12,21,-350,-581,231,465
,1497,2023-10-27 11:17:06.86,165,-234,-2066,64,-18,20,-210,-454,244,332
,1498,2023-10-27 11:17:06.87,184,-242,-2075,55,-16,18,-338,-523,185,430
,1499,2023-10-27 11:17:06.88,204,-234,-2082,32,8,11,-213,-419,206,316
,1500,2023-10-27 11:17:06.89,135,-245,-2032,3,36,0,-343,-551,208,447
,1501,2023-10-27 11:17:06.90,141,-235,-2035,-4,30,4,-225,-490,265,357
,1502,2023-10-27 11:17:06.91,159,-250,-2034,3,14,9,-357,-643,286,500
,1503,2023-10-27 11:17:06.92,161,-249,-2027,6,11,13,-242,-583,341,412
,1504,2023-10-27 11:17:06.93,169,-243,-2036,7,-4,19,-341,-602,261,471
,1505,2023-10-27 11:17:06.94,171,-234,-2043,-9,15,19,-217,-462,245,339
,1506,2023-10-27 11:17:06.95,152,-232,-2046,-23,28,18,-328,-517,189,422
,1507,2023-10-27 11:17:06.96,175,-215,-2069,-32,25,20,-232,-460,228,346
,1508,2023-10-27 11:17:06.97,171,-200,-2060,-43,25,21,-345,-550,205,447
,1509,2023-10-27 11:17:06.98,180,-191,-2035,-58,27,19,-253,-490,237,371
,1510,2023-10-27 11:17:06.99,167,-224,-2053,-71,34,17,-319,-496,177,407
,1511,2023-10-27 11:17:07.00,172,-223,-2048,-73,35,17,-213,-401,188,307
,1512,2023-10-27 11:17:07.01,186,-234,-2031,-69,48,17,-283,-446,163,364
,1513,2023-10-27 11:17:07.02,174,-240,-2036,-58,48,20,-207,-407,200,307
,1514,2023-10-27 11:17:07.03,201,-235,-2032,-30,40,21,-295,-483,188,389
,1515,2023-10-27 11:17:07.04,186,-221,-2035,-6,41,19,-232,-448,216,340
,1516,2023-10-27 11:17:07.05,183,-235,-2038,14,43,14,-312,-476,164,394
,1517,2023-10-27 11:17:07.06,187,-237,-2055,28,40,16,-243,-420,177,331
,1518,2023-10-27 11:17:07.07,198,-222,-2043,34,47,16,-304,-488,184,396
,1519,2023-10-27 11:17:07.08,195,-224,-2023,44,60,12,-240,-478,238,359
,1520,2023-10-27 11:17:07.09,201,-216,-2033,48,52,12,-315,-565,250,440
,1521,2023-10-27 11:17:07.10,192,-214,-2047,36,55,6,-265,-549,284,407
,1522,2023-10-27 11:17:07.11,193,-217,-2043,31,58,1,-296,-540,244,418
,1523,2023-10-27 11:17:07.12,176,-220,-2033,24,55,2,-236,-472,236,354
,1524,2023-10-27 11:17:07.13,200,-223,-2033,28,34,1,-263,-446,183,354
,1525,2023-10-27 11:17:07.14,214,-231,-2041,20,53,-2,-227,-417,190,322
,1526,2023-10-27 11:17:07.15,165,-229,-2036,17,57,-3,-284,-493,209,388
,1527,2023-10-27 11:17:07.16,197,-225,-2043,14,42,1,-273,-522,249,397
,1528,2023-10-27 11:17:07.17,190,-225,-2059,14,45,2,-290,-545,255,417
,1529,2023-10-27 11:17:07.18,199,-234,-2041,16,35,4,-257,-518,261,387
,1530,2023-10-27 11:17:07.19,201,-218,-2037,12,35,7,-276,-527,251,401
,1531,2023-10-27 11:17:07.20,214,-230,-2034,0,56,2,-272,-516,244,394
,1532,2023-10-27 11:17:07.21,211,-217,-2046,-7,69,0,-280,-483,203,381
,1533,2023-10-27 11:17:07.22,218,-208,-2038,-17,81,-6,-271,-458,187,364
,1534,2023-10-27 11:17:07.23,222,-192,-2039,-24,99,-15,-293,-436,143,364
,1535,2023-10-27 11:17:07.24,237,-200,-2031,-31,108,-29,-304,-462,158,383
,1536,2023-10-27 11:17:07.25,219,-199,-2042,-34,118,-41,-315,-607,292,461
,1537,2023-10-27 11:17:07.26,231,-196,-2047,-36,114,-49,-312,-684,372,498
,1538,2023-10-27 11:17:07.27,215,-207,-2045,-24,99,-57,-307,-670,363,488
,1539,2023-10-27 11:17:07.28,226,-200,-2048,-6,74,-62,-308,-639,331,473
,1540,2023-10-27 11:17:07.29,234,-196,-2035,1,59,-70,-290,-649,359,469
,1541,2023-10-27 11:17:07.30,240,-190,-2048,4,56,-81,-303,-675,372,489
,1542,2023-10-27 11:17:07.31,225,-195,-2038,-3,55,-92,-268,-633,365,450
,1543,2023-10-27 11:17:07.32,240,-184,-2050,-2,37,-99,-299,-623,324,461
,1544,2023-10-27 11:17:07.33,239,-189,-2040,-2,34,-107,-264,-532,268,398
,1545,2023-10-27 11:17:07.34,250,-193,-2042,-9,40,-113,-305,-537,232,421
,1546,2023-10-27 11:17:07.35,226,-209,-2053,-22,44,-118,-247,-440,193,343
,1547,2023-10-27 11:17:07.36,230,-223,-2066,-28,28,-113,-298,-486,188,392
,1548,2023-10-27 11:17:07.37,217,-232,-2079,-24,8,-103,-254,-468,214,361
,1549,2023-10-27 11:17:07.38,223,-239,-2074,-18,-15,-88,-318,-552,234,435
,1550,2023-10-27 11:17:07.39,225,-243,-2062,-24,-9,-76,-256,-547,291,401
,1551,2023-10-27 11:17:07.40,226,-239,-2064,-30,-2,-59,-318,-605,287,461
,1552,2023-10-27 11:17:07.41,226,-244,-2056,-34,-2,-44,-244,-519,275,381
,1553,2023-10-27 11:17:07.42,221,-254,-2043,-32,-1,-28,-308,-552,244,430
,1554,2023-10-27 11:17:07.43,213,-251,-2043,-21,-10,-7,-221,-452,231,336
,1555,2023-10-27 11:17:07.44,229,-246,-2058,-8,-22,7,-298,-511,213,404
,1556,2023-10-27 11:17:07.45,232,-254,-2038,-7,0,17,-221,-420,199,320
,1557,2023-10-27 11:17:07.46,223,-245,-2038,6,7,28,-315,-506,191,410
,1558,2023-10-27 11:17:07.47,231,-252,-2017,19,0,35,-228,-431,203,329
,1559,2023-10-27 11:17:07.48,216,-243,-2023,36,-1,42,-323,-530,207,426
,1560,2023-10-27 11:17:07.49,216,-242,-2024,45,-2,49,-226,-449,223,337
,1561,2023-10-27 11:17:07.50,212,-220,-2022,49,-1,53,-331,-536,205,433
,1562,2023-10-27 11:17:07.51,215,-237,-2031,59,-5,59,-214,-386,172,300
,1563,2023-10-27 11:17:07.52,217,-217,-2029,62,-13,61,-325,-465,140,395
,1564,2023-10-27 11:17:07.53,222,-217,-2023,64,-15,57,-211,-352,141,281
,1565,2023-10-27 11:17:07.54,210,-226,-2039,59,-10,53,-335,-471,136,403
,1566,2023-10-27 11:17:07.55,217,-223,-2049,50,-13,46,-212,-353,141,282
,1567,2023-10-27 11:17:07.56,214,-213,-2046,43,-13,42,-323,-453,130,388
,1568,2023-10-27 11:17:07.57,226,-227,-2044,37,-13,35,-184,-300,116,242
,1569,2023-10-27 11:17:07.58,225,-227,-2057,24,-7,29,-313,-433,120,373
,1570,2023-10-27 11:17:07.59,193,-237,-2055,10,1,22,-192,-375,183,283
,1571,2023-10-27 11:17:07.60,223,-245,-2073,-3,8,25,-326,-516,190,421
,1572,2023-10-27 11:17:07.61,205,-243,-2055,-8,10,27,-160,-330,170,245
,1573,2023-10-27 11:17:07.62,217,-239,-2060,-12,-7,33,-291,-433,142,362
,1574,2023-10-27 11:17:07.63,214,-235,-2041,-22,0,34,-155,-324,169,239
,1575,2023-10-27 11:17:07.64,207,-228,-2033,-29,9,38,-314,-475,161,394
,1576,2023-10-27 11:17:07.65,209,-240,-2038,-39,18,38,-170,-318,148,244
,1577,2023-10-27 11:17:07.66,222,-238,-2045,-46,25,40,-331,-447,116,389
,1578,2023-10-27 11:17:07.67,226,-225,-2034,-43,30,37,-172,-283,111,227
,1579,2023-10-27 11:17:07.68,236,-208,-2012,-49,40,32,-350,-438,88,394
,1580,2023-10-27 11:17:07.69,231,-186,-1996,-56,60,23,-196,-288,92,242
,1581,2023-10-27 11:17:07.70,229,-197,-2022,-71,74,14,-360,-453,93,406
,1582,2023-10-27 11:17:07.71,209,-198,-2047,-80,74,6,-180,-325,145,252
,1583,2023-10-27 11:17:07.72,205,-203,-2070,-82,58,7,-329,-466,137,397
,1584,2023-10-27 11:17:07.73,202,-196,-2075,-83,41,9,-139,-282,143,210
,1585,2023-10-27 11:17:07.74,205,-199,-2067,-87,22,17,-321,-433,112,377
,1586,2023-10-27 11:17:07.75,231,-191,-2054,-97,17,21,-159,-293,134,226
,1587,2023-10-27 11:17:07.76,232,-187,-2014,-101,2,22,-346,-466,120,406
,1588,2023-10-27 11:17:07.77,242,-185,-2007,-94,-4,25,-168,-310,142,239
,1589,2023-10-27 11:17:07.78,234,-213,-2032,-91,5,26,-350,-488,138,419
,1590,2023-10-27 11:17:07.79,228,-206,-2035,-88,13,26,-180,-377,197,278
,1591,2023-10-27 11:17:07.80,251,-184,-2065,-92,23,24,-358,-537,179,447
,1592,2023-10-27 11:17:07.81,258,-171,-2061,-95,43,22,-170,-342,172,256
,1593,2023-10-27 11:17:07.82,243,-172,-2040,-85,39,20,-348,-485,137,416
,1594,2023-10-27 11:17:07.83,255,-180,-2007,-80,47,17,-154,-326,172,240
,1595,2023-10-27 11:17:07.84,250,-171,-2019,-74,47,11,-350,-515,165,432
,1596,2023-10-27 11:17:07.85,245,-185,-2035,-79,61,9,-174,-383,209,278
,1597,2023-10-27 11:17:07.86,242,-182,-2059,-78,67,14,-371,-547,176,459
,1598,2023-10-27 11:17:07.87,229,-190,-2078,-73,49,20,-175,-353,178,264
,1599,2023-10-27 11:17:07.88,220,-193,-2087,-66,35,32,-362,-500,138,431
,1600,2023-10-27 11:17:07.89,215,-199,-2064,-57,14,44,-154,-320,166,237
,1601,2023-10-27 11:17:07.90,228,-195,-2069,-44,-2,53,-360,-532,172,446
,1602,2023-10-27 11:17:07.91,213,-214,-2052,-31,-18,63,-169,-439,270,304
,1603,2023-10-27 11:17:07.92,253,-193,-2047,-24,-18,73,-379,-618,239,498
,1604,2023-10-27 11:17:07.93,232,-190,-2035,-16,-23,72,-192,-457,265,324
,1605,2023-10-27 11:17:07.94,229,-172,-2054,-9,-25,76,-381,-572,191,476
,1606,2023-10-27 11:17:07.95,223,-157,-2048,-6,-27,74,-170,-353,183,261
,1607,2023-10-27 11:17:07.96,238,-157,-2040,-3,-33,73,-362,-491,129,426
,1608,2023-10-27 11:17:07.97,233,-180,-2045,0,-33,74,-161,-308,147,234
,1609,2023-10-27 11:17:07.98,233,-193,-2029,5,-31,75,-361,-493,132,427
,1610,2023-10-27 11:17:07.99,246,-170,-2034,5,-18,69,-159,-331,172,245
,1611,2023-10-27 11:17:08.00,244,-164,-2033,-3,-1,67,-366,-494,128,430
,1612,2023-10-27 11:17:08.01,229,-157,-2037,-9,18,59,-149,-294,145,221
,1613,2023-10-27 11:17:08.02,221,-175,-2057,-16,17,58,-352,-446,94,399
,1614,2023-10-27 11:17:08.03,213,-191,-2062,-17,13,64,-138,-254,116,196
,1615,2023-10-27 11:17:08.04,218,-191,-2065,-14,0,72,-354,-464,110,409
,1616,2023-10-27 11:17:08.05,222,-185,-2051,-15,-7,79,-155,-334,179,244
,1617,2023-10-27 11:17:08.06,210,-181,-2031,-18,-6,83,-356,-496,140,426
,1618,2023-10-27 11:17:08.07,233,-183,-2035,-23,11,82,-146,-297,151,221
,1619,2023-10-27 11:17:08.08,236,-172,-2026,-27,18,80,-343,-459,116,401
,1620,2023-10-27 11:17:08.09,236,-163,-2024,-26,26,76,-152,-314,162,233
,1621,2023-10-27 11:17:08.10,224,-161,-2031,-26,26,71,-351,-472,121,411
,1622,2023-10-27 11:17:08.11,233,-150,-2050,-21,17,65,-153,-288,135,220
,1623,2023-10-27 11:17:08.12,226,-142,-2064,-15,4,55,-359,-466,107,412
,1624,2023-10-27 11:17:08.13,229,-125,-2072,-14,-2,44,-161,-318,157,239
,1625,2023-10-27 11:17:08.14,224,-126,-2067,-19,-9,29,-371,-510,139,440
,1626,2023-10-27 11:17:08.15,243,-128,-2051,-19,-17,14,-172,-357,185,264
,1627,2023-10-27 11:17:08.16,242,-123,-2042,-21,-10,-9,-376,-542,166,459
,1628,2023-10-27 11:17:08.17,255,-119,-2039,-18,-12,-30,-174,-400,226,287
,1629,2023-10-27 11:17:08.18,236,-127,-2049,-15,-9,-51,-383,-612,229,497
,1630,2023-10-27 11:17:08.19,249,-121,-2057,-19,1,-70,-194,-518,324,356
,1631,2023-10-27 11:17:08.20,250,-131,-2061,-19,6,-86,-381,-630,249,505
,1632,2023-10-27 11:17:08.21,249,-138,-2045,-12,6,-94,-173,-411,238,292
,1633,2023-10-27 11:17:08.22,240,-142,-2024,-11,13,-105,-348,-500,152,424
,1634,2023-10-27 11:17:08.23,252,-154,-2027,-14,24,-110,-151,-325,174,238
,1635,2023-10-27 11:17:08.24,256,-155,-2025,-13,35,-113,-349,-534,185,441
,1636,2023-10-27 11:17:08.25,259,-163,-2025,-8,37,-114,-175,-453,278,314
,1637,2023-10-27 11:17:08.26,245,-174,-2039,2,38,-106,-357,-573,216,465
,1638,2023-10-27 11:17:08.27,245,-173,-2038,13,33,-97,-168,-379,211,273
,1639,2023-10-27 11:17:08.28,240,-187,-2046,19,30,-87,-366,-552,186,459
,1640,2023-10-27 11:17:08.29,236,-181,-2047,23,25,-73,-204,-463,259,333
,1641,2023-10-27 11:17:08.30,233,-174,-2052,26,20,-59,-389,-620,231,504
,1642,2023-10-27 11:17:08.31,238,-171,-2056,27,16,-49,-204,-472,268,338
,1643,2023-10-27 11:17:08.32,230,-181,-2056,28,5,-34,-376,-589,213,482
,1644,2023-10-27 11:17:08.33,238,-186,-2054,33,-5,-20,-199,-438,239,318
,1645,2023-10-27 11:17:08.34,227,-186,-2052,37,-17,-7,-371,-561,190,466
,1646,2023-10-27 11:17:08.35,240,-175,-2050,37,-13,5,-195,-422,227,308
,1647,2023-10-27 11:17:08.36,247,-163,-2056,27,-1,11,-373,-559,186,466
,1648,2023-10-27 11:17:08.37,221,-167,-2054,13,7,13,-205,-431,226,318
,1649,2023-10-27 11:17:08.38,238,-164,-2051,2,13,15,-366,-544,178,455
,1650,2023-10-27 11:17:08.39,236,-154,-2051,1,6,20,-198,-409,211,303
,1651,2023-10-27 11:17:08.40,246,-156,-2047,-3,6,25,-361,-536,175,448
,1652,2023-10-27 11:17:08.41,222,-161,-2043,-11,11,24,-208,-425,217,316
,1653,2023-10-27 11:17:08.42,226,-165,-2033,-16,14,24,-349,-501,152,425
,1654,2023-10-27 11:17:08.43,230,-164,-2053,-18,17,28,-187,-357,170,272
,1655,2023-10-27 11:17:08.44,222,-160,-2051,-17,9,30,-327,-447,120,387
,1656,2023-10-27 11:17:08.45,241,-165,-2043,-13,9,32,-184,-344,160,264
,1657,2023-10-27 11:17:08.46,220,-155,-2040,-20,18,32,-335,-481,146,408
,1658,2023-10-27 11:17:08.47,224,-156,-2037,-21,24,28,-206,-415,209,310
,1659,2023-10-27 11:17:08.48,228,-153,-2035,-20,23,27,-345,-526,181,435
,1660,2023-10-27 11:17:08.49,233,-153,-2041,-18,18,25,-211,-428,217,319
,1661,2023-10-27 11:17:08.50,226,-151,-2046,-18,19,22,-325,-480,155,402
,1662,2023-10-27 11:17:08.51,230,-145,-2046,-21,23,21,-194,-366,172,280
,1663,2023-10-27 11:17:08.52,240,-148,-2048,-24,29,15,-317,-448,131,382
,1664,2023-10-27 11:17:08.53,238,-141,-2051,-29,34,9,-196,-367,171,281
,1665,2023-10-27 11:17:08.54,238,-140,-2048,-32,38,6,-303,-432,129,367
,1666,2023-10-27 11:17:08.55,240,-140,-2046,-35,41,-5,-181,-336,155,258
,1667,2023-10-27 11:17:08.56,226,-137,-2053,-36,42,-12,-290,-421,131,355
,1668,2023-10-27 11:17:08.57,221,-139,-2052,-31,41,-16,-184,-358,174,271
,1669,2023-10-27 11:17:08.58,234,-143,-2051,-26,33,-18,-304,-456,152,380
,1670,2023-10-27 11:17:08.59,236,-144,-2048,-22,28,-22,-208,-399,191,303
,1671,2023-10-27 11:17:08.60,244,-145,-2050,-16,27,-25,-306,-436,130,371
,1672,2023-10-27 11:17:08.61,250,-141,-2043,-14,30,-28,-207,-358,151,282
,1673,2023-10-27 11:17:08.62,245,-146,-2043,-12,31,-28,-304,-462,158,383
,1674,2023-10-27 11:17:08.63,228,-139,-2050,-7,28,-30,-220,-442,222,331
,1675,2023-10-27 11:17:08.64,237,-141,-2050,-6,21,-29,-304,-490,186,397
,1676,2023-10-27 11:17:08.65,242,-146,-2050,-4,16,-27,-222,-419,197,320
,1677,2023-10-27 11:17:08.66,243,-148,-2045,-1,17,-27,-296,-425,129,360
,1678,2023-10-27 11:17:08.67,248,-147,-2036,-4,22,-29,-224,-368,144,296
,1679,2023-10-27 11:17:08.68,251,-146,-2042,-6,29,-28,-290,-391,101,340
,1680,2023-10-27 11:17:08.69,243,-146,-2044,-8,33,-29,-226,-352,126,289
,1681,2023-10-27 11:17:08.70,254,-147,-2039,-8,36,-27,-288,-394,106,341
,1682,2023-10-27 11:17:08.71,246,-146,-2036,-11,41,-25,-229,-373,144,301
,1683,2023-10-27 11:17:08.72,235,-146,-2035,-7,44,-20,-288,-391,103,339
,1684,2023-10-27 11:17:08.73,242,-161,-2039,-7,49,-18,-232,-359,127,295
,1685,2023-10-27 11:17:08.74,259,-145,-2041,-5,54,-13,-285,-370,85,327
,1686,2023-10-27 11:17:08.75,253,-140,-2031,-3,60,-14,-238,-357,119,297
,1687,2023-10-27 11:17:08.76,250,-135,-2030,1,63,-13,-280,-353,73,316
,1688,2023-10-27 11:17:08.77,280,-140,-2043,-1,71,-13,-242,-342,100,292
,1689,2023-10-27 11:17:08.78,242,-138,-2041,-3,80,-15,-271,-338,67,304
,1690,2023-10-27 11:17:08.79,271,-139,-2048,0,77,-15,-241,-342,101,291
,1691,2023-10-27 11:17:08.80,264,-137,-2046,-4,89,-19,-271,-338,67,304
,1692,2023-10-27 11:17:08.81,237,-133,-2027,4,63,-13,-251,-355,104,303
,1693,2023-10-27 11:17:08.82,264,-143,-2035,5,59,-10,-279,-362,83,320
,1694,2023-10-27 11:17:08.83,280,-124,-2044,-4,73,-11,-257,-378,121,317
,1695,2023-10-27 11:17:08.84,265,-114,-2025,-7,76,-14,-269,-365,96,317
,1696,2023-10-27 11:17:08.85,282,-106,-2024,-8,66,-18,-259,-381,122,320
