// Data mode  : Full
// Data quality  : High
// Acceleration sensor's range  : 16g
// Gyroscope sensor's range  : 2000dps
//
//ARTIFACT,NUM,DATE,ACC_X,ACC_Y,ACC_Z,GYRO_X,GYRO_Y,GYRO_Z,EOG_L,EOG_R,EOG_H,EOG_V
,1,2023-10-27 11:02:58.83,89,-34,-2075,26,-15,127,-5,192,-197,-93
,2,2023-10-27 11:02:58.84,62,-44,-2064,8,6,127,-29,69,-98,-20
,3,2023-10-27 11:02:58.85,55,-41,-2063,-1,-3,127,6,194,-188,-100
,4,2023-10-27 11:02:58.86,58,-31,-2070,9,-24,129,-33,61,-94,-14
,5,2023-10-27 11:02:58.87,61,-19,-2052,17,-30,131,25,205,-180,-115
,6,2023-10-27 11:02:58.88,53,-23,-2041,3,-29,131,-32,66,-98,-17
,7,2023-10-27 11:02:58.89,54,-14,-2043,-16,-28,125,40,226,-186,-133
,8,2023-10-27 11:02:58.90,61,-17,-2051,-16,-35,126,-12,86,-98,-37
,9,2023-10-27 11:02:58.91,60,-12,-2053,-7,-41,118,54,238,-184,-146
,10,2023-10-27 11:02:58.92,60,-15,-2045,-13,-44,116,-14,78,-92,-32
,11,2023-10-27 11:02:58.93,48,-17,-2055,-19,-41,113,38,205,-167,-121
,12,2023-10-27 11:02:58.94,43,-24,-2071,-16,-46,109,-40,42,-82,-1
,13,2023-10-27 11:02:58.95,59,-37,-2083,-5,-53,110,21,191,-170,-106
,14,2023-10-27 11:02:58.96,58,-36,-2065,6,-58,111,-50,42,-92,4
,15,2023-10-27 11:02:58.97,53,-36,-2056,15,-55,112,48,216,-168,-132
,16,2023-10-27 11:02:58.98,45,-38,-2067,17,-46,112,-14,74,-88,-30
,17,2023-10-27 11:02:58.99,62,-44,-2059,25,-44,110,68,237,-169,-152
,18,2023-10-27 11:02:59.00,49,-43,-2064,34,-38,107,-4,78,-82,-37
,19,2023-10-27 11:02:59.01,45,-37,-2064,37,-35,109,80,247,-167,-163
,20,2023-10-27 11:02:59.02,50,-35,-2065,42,-37,108,-2,79,-81,-38
,21,2023-10-27 11:02:59.03,39,-30,-2060,44,-35,105,83,248,-165,-165
,22,2023-10-27 11:02:59.04,39,-19,-2059,48,-45,104,-19,68,-87,-24
,23,2023-10-27 11:02:59.05,35,-27,-2055,43,-47,102,66,219,-153,-142
,24,2023-10-27 11:02:59.06,32,-32,-2060,43,-52,100,-35,48,-83,-6
,25,2023-10-27 11:02:59.07,36,-29,-2063,48,-64,97,43,214,-171,-128
,26,2023-10-27 11:02:59.08,31,-44,-2053,47,-60,100,-70,39,-109,15
,27,2023-10-27 11:02:59.09,43,-30,-2046,49,-66,102,10,209,-199,-109
,28,2023-10-27 11:02:59.10,48,-37,-2038,47,-62,101,-100,34,-134,33
,29,2023-10-27 11:02:59.11,44,-41,-2036,41,-48,96,-6,203,-209,-98
,30,2023-10-27 11:02:59.12,35,-32,-2040,41,-39,93,-120,26,-146,47
,31,2023-10-27 11:02:59.13,55,-52,-2041,43,-31,90,-23,197,-220,-87
,32,2023-10-27 11:02:59.14,30,-50,-2043,42,-15,89,-133,18,-151,57
,33,2023-10-27 11:02:59.15,20,-50,-2048,40,-7,88,-34,190,-224,-78
,34,2023-10-27 11:02:59.16,30,-60,-2060,45,-9,90,-140,9,-149,65
,35,2023-10-27 11:02:59.17,30,-62,-2064,44,-3,95,-32,193,-225,-80
,36,2023-10-27 11:02:59.18,30,-59,-2058,43,3,97,-142,9,-151,66
,37,2023-10-27 11:02:59.19,40,-53,-2051,40,8,100,-27,182,-209,-77
,38,2023-10-27 11:02:59.20,41,-50,-2051,29,18,104,-150,-7,-143,78
,39,2023-10-27 11:02:59.21,43,-46,-2054,25,24,103,-48,150,-198,-51
,40,2023-10-27 11:02:59.22,34,-49,-2051,24,30,105,-186,-55,-131,120
,41,2023-10-27 11:02:59.23,47,-44,-2054,22,32,104,-90,100,-190,-5
,42,2023-10-27 11:02:59.24,44,-48,-2055,19,33,103,-220,-88,-132,154
,43,2023-10-27 11:02:59.25,28,-49,-2058,17,31,104,-94,92,-186,1
,44,2023-10-27 11:02:59.26,45,-48,-2074,19,27,103,-213,-80,-133,146
,45,2023-10-27 11:02:59.27,36,-49,-2060,18,20,101,-95,83,-178,6
,46,2023-10-27 11:02:59.28,47,-51,-2059,18,15,102,-225,-97,-128,161
,47,2023-10-27 11:02:59.29,34,-46,-2059,19,10,98,-108,64,-172,22
,48,2023-10-27 11:02:59.30,36,-51,-2065,21,6,95,-242,-122,-120,182
,49,2023-10-27 11:02:59.31,42,-35,-2062,17,0,89,-130,42,-172,44
,50,2023-10-27 11:02:59.32,42,-42,-2057,15,-11,87,-256,-127,-129,191
,51,2023-10-27 11:02:59.33,48,-37,-2062,14,-19,81,-114,52,-166,31
,52,2023-10-27 11:02:59.34,28,-41,-2062,18,-23,75,-238,-120,-118,179
,53,2023-10-27 11:02:59.35,37,-51,-2057,21,-33,69,-98,53,-151,22
,54,2023-10-27 11:02:59.36,31,-55,-2059,22,-36,67,-221,-120,-101,170
,55,2023-10-27 11:02:59.37,48,-55,-2057,24,-43,66,-78,53,-131,12
,56,2023-10-27 11:02:59.38,50,-64,-2056,27,-43,63,-203,-113,-90,158
,57,2023-10-27 11:02:59.39,44,-55,-2049,30,-41,62,-48,87,-135,-19
,58,2023-10-27 11:02:59.40,41,-54,-2050,32,-35,58,-170,-84,-86,127
,59,2023-10-27 11:02:59.41,37,-61,-2053,33,-29,56,4,110,-106,-57
,60,2023-10-27 11:02:59.42,47,-59,-2056,28,-26,53,-120,-55,-65,87
,61,2023-10-27 11:02:59.43,39,-61,-2057,26,-15,50,48,147,-99,-97
,62,2023-10-27 11:02:59.44,28,-62,-2058,27,-15,47,-82,-22,-60,52
,63,2023-10-27 11:02:59.45,38,-67,-2071,26,-14,46,90,187,-97,-138
,64,2023-10-27 11:02:59.46,39,-58,-2078,22,-10,42,-34,13,-47,10
,65,2023-10-27 11:02:59.47,43,-54,-2067,18,-1,35,142,221,-79,-181
,66,2023-10-27 11:02:59.48,25,-33,-2074,18,-10,30,-2,43,-45,-20
,67,2023-10-27 11:02:59.49,42,-41,-2071,14,-13,23,166,248,-82,-207
,68,2023-10-27 11:02:59.50,24,-50,-2078,12,-16,15,20,74,-54,-47
,69,2023-10-27 11:02:59.51,11,-45,-2079,12,-22,10,188,268,-80,-228
,70,2023-10-27 11:02:59.52,20,-54,-2071,15,-30,7,36,96,-60,-66
,71,2023-10-27 11:02:59.53,15,-57,-2076,17,-42,6,197,292,-95,-244
,72,2023-10-27 11:02:59.54,26,-60,-2090,7,-40,8,62,125,-63,-93
,73,2023-10-27 11:02:59.55,12,-48,-2085,0,-33,3,234,333,-99,-283
,74,2023-10-27 11:02:59.56,12,-48,-2071,-1,-32,5,71,150,-79,-110
,75,2023-10-27 11:02:59.57,8,-64,-2049,0,-33,7,222,323,-101,-272
,76,2023-10-27 11:02:59.58,22,-73,-2042,-4,-33,9,38,125,-87,-81
,77,2023-10-27 11:02:59.59,17,-68,-2049,-2,-26,11,192,311,-119,-251
,78,2023-10-27 11:02:59.60,9,-68,-2044,8,-16,13,37,142,-105,-89
,79,2023-10-27 11:02:59.61,10,-64,-2054,18,-13,17,185,308,-123,-246
,80,2023-10-27 11:02:59.62,3,-68,-2057,28,-15,19,1,112,-111,-56
,81,2023-10-27 11:02:59.63,4,-49,-2045,27,-15,22,137,271,-134,-204
,82,2023-10-27 11:02:59.64,-4,-57,-2042,26,-18,25,-56,72,-128,-8
,83,2023-10-27 11:02:59.65,5,-48,-2041,27,-26,27,79,222,-143,-150
,84,2023-10-27 11:02:59.66,-13,-46,-2041,28,-38,28,-116,34,-150,41
,85,2023-10-27 11:02:59.67,-3,-44,-2042,28,-44,31,17,179,-162,-98
,86,2023-10-27 11:02:59.68,-13,-44,-2035,13,-36,30,-173,-15,-158,94
,87,2023-10-27 11:02:59.69,-10,-35,-2034,-4,-21,30,-29,127,-156,-49
,88,2023-10-27 11:02:59.70,-21,-42,-2055,-4,-36,27,-209,-73,-136,141
,89,2023-10-27 11:02:59.71,3,-35,-2054,-3,-58,30,-62,64,-126,-1
,90,2023-10-27 11:02:59.72,-9,-45,-2062,-9,-40,31,-249,-125,-124,187
,91,2023-10-27 11:02:59.73,-15,-52,-2050,-19,-25,33,-96,30,-126,33
,92,2023-10-27 11:02:59.74,-13,-58,-2034,-23,-25,38,-260,-123,-137,191
,93,2023-10-27 11:02:59.75,15,-72,-2021,-11,-22,45,-99,33,-132,33
,94,2023-10-27 11:02:59.76,14,-78,-2026,9,-12,52,-256,-108,-148,182
,95,2023-10-27 11:02:59.77,5,-91,-2040,23,3,56,-102,47,-149,27
,96,2023-10-27 11:02:59.78,10,-69,-2042,34,29,59,-264,-103,-161,183
,97,2023-10-27 11:02:59.79,10,-65,-2075,41,59,57,-96,54,-150,21
,98,2023-10-27 11:02:59.80,7,-56,-2094,43,67,58,-244,-84,-160,164
,99,2023-10-27 11:02:59.81,-3,-41,-2102,45,60,60,-67,69,-136,-1
,100,2023-10-27 11:02:59.82,1,-49,-2110,50,50,61,-214,-48,-166,131
,101,2023-10-27 11:02:59.83,14,-49,-2089,55,43,56,-48,104,-152,-28
,102,2023-10-27 11:02:59.84,27,-64,-2082,61,42,51,-187,-17,-170,102
,103,2023-10-27 11:02:59.85,24,-61,-2075,68,50,37,-33,118,-151,-42
,104,2023-10-27 11:02:59.86,30,-62,-2069,82,68,20,-178,-15,-163,96
,105,2023-10-27 11:02:59.87,31,-69,-2064,96,83,7,-24,118,-142,-47
,106,2023-10-27 11:02:59.88,30,-83,-2048,105,93,-6,-176,-3,-173,89
,107,2023-10-27 11:02:59.89,31,-82,-2046,111,97,-22,-18,129,-147,-55
,108,2023-10-27 11:02:59.90,11,-82,-2056,107,92,-32,-156,12,-168,72
,109,2023-10-27 11:02:59.91,9,-57,-2046,101,77,-35,0,130,-130,-65
,110,2023-10-27 11:02:59.92,23,-74,-2039,90,55,-35,-132,24,-156,54
,111,2023-10-27 11:02:59.93,10,-87,-2063,78,26,-31,22,144,-122,-83
,112,2023-10-27 11:02:59.94,-1,-84,-2061,58,-5,-22,-117,37,-154,40
,113,2023-10-27 11:02:59.95,6,-71,-2043,40,-23,-17,23,143,-120,-83
,114,2023-10-27 11:02:59.96,9,-89,-2052,23,-31,-6,-117,32,-149,42
,115,2023-10-27 11:02:59.97,22,-103,-2048,8,-36,3,16,126,-110,-71
,116,2023-10-27 11:02:59.98,37,-100,-2026,-4,-31,10,-132,16,-148,58
,117,2023-10-27 11:02:59.99,38,-104,-2019,-11,-7,14,-9,104,-113,-47
,118,2023-10-27 11:03:00.00,48,-109,-2015,-12,26,16,-150,-6,-144,78
,119,2023-10-27 11:03:00.01,51,-109,-2033,-13,54,12,-20,88,-108,-34
,120,2023-10-27 11:03:00.02,31,-111,-2058,-8,70,12,-157,-10,-147,83
,121,2023-10-27 11:03:00.03,27,-102,-2085,1,63,13,-29,79,-108,-25
,122,2023-10-27 11:03:00.04,23,-69,-2077,10,42,18,-154,-3,-151,78
,123,2023-10-27 11:03:00.05,22,-80,-2073,23,22,19,-23,79,-102,-28
,124,2023-10-27 11:03:00.06,27,-79,-2064,24,2,21,-151,1,-152,75
,125,2023-10-27 11:03:00.07,38,-71,-2048,25,-4,17,-34,77,-111,-21
,126,2023-10-27 11:03:00.08,45,-74,-2045,23,10,8,-168,-10,-158,89
,127,2023-10-27 11:03:00.09,49,-74,-2038,22,27,-4,-61,47,-108,7
,128,2023-10-27 11:03:00.10,62,-76,-2032,24,55,-15,-195,-56,-139,125
,129,2023-10-27 11:03:00.11,50,-77,-2026,25,80,-25,-94,-20,-74,57
,130,2023-10-27 11:03:00.12,67,-75,-2015,21,99,-35,-225,-101,-124,163
,131,2023-10-27 11:03:00.13,51,-83,-1989,16,109,-46,-109,-49,-60,79
,132,2023-10-27 11:03:00.14,48,-72,-1985,24,89,-47,-201,-95,-106,148
,133,2023-10-27 11:03:00.15,39,-80,-1990,28,84,-47,-76,-21,-55,48
,134,2023-10-27 11:03:00.16,57,-61,-2018,37,57,-49,-184,-72,-112,128
,135,2023-10-27 11:03:00.17,69,-67,-2035,38,50,-54,-73,-4,-69,38
,136,2023-10-27 11:03:00.18,49,-69,-2042,12,68,-64,-185,-56,-129,120
,137,2023-10-27 11:03:00.19,42,-59,-2060,-9,55,-63,-82,-9,-73,45
,138,2023-10-27 11:03:00.20,52,-66,-2075,-25,44,-64,-194,-49,-145,121
,139,2023-10-27 11:03:00.21,31,-69,-2067,-43,40,-63,-95,-5,-90,50
,140,2023-10-27 11:03:00.22,63,-62,-2081,-56,24,-56,-194,-44,-150,119
,141,2023-10-27 11:03:00.23,51,-76,-2066,-68,19,-54,-104,-12,-92,58
,142,2023-10-27 11:03:00.24,61,-67,-2092,-76,12,-50,-205,-51,-154,128
,143,2023-10-27 11:03:00.25,57,-77,-2083,-81,32,-49,-112,-15,-97,63
,144,2023-10-27 11:03:00.26,60,-80,-2081,-80,36,-45,-208,-37,-171,122
,145,2023-10-27 11:03:00.27,58,-105,-2075,-67,20,-38,-107,-1,-106,54
,146,2023-10-27 11:03:00.28,69,-108,-2079,-53,27,-29,-182,-8,-174,95
,147,2023-10-27 11:03:00.29,37,-108,-2069,-34,27,-19,-86,15,-101,35
,148,2023-10-27 11:03:00.30,64,-108,-2068,-19,29,-9,-151,21,-172,65
,149,2023-10-27 11:03:00.31,45,-120,-2067,-11,51,2,-59,43,-102,8
,150,2023-10-27 11:03:00.32,36,-108,-2063,7,34,16,-120,51,-171,34
,151,2023-10-27 11:03:00.33,44,-110,-2057,24,22,33,-37,64,-101,-13
,152,2023-10-27 11:03:00.34,39,-102,-2050,31,21,44,-85,83,-168,1
,153,2023-10-27 11:03:00.35,53,-96,-2045,36,11,55,-2,89,-91,-43
,154,2023-10-27 11:03:00.36,71,-85,-2062,31,19,64,-55,112,-167,-28
,155,2023-10-27 11:03:00.37,40,-87,-2046,20,28,68,9,102,-93,-55
,156,2023-10-27 11:03:00.38,55,-80,-2036,16,22,72,-39,139,-178,-50
,157,2023-10-27 11:03:00.39,38,-37,-2092,9,12,76,4,106,-102,-55
,158,2023-10-27 11:03:00.40,71,-86,-2010,6,-7,71,-56,114,-170,-29
,159,2023-10-27 11:03:00.41,61,-76,-2039,12,15,68,-24,76,-100,-26
,160,2023-10-27 11:03:00.42,35,-58,-2067,10,5,63,-79,97,-176,-9
,161,2023-10-27 11:03:00.43,57,-71,-2066,13,-12,55,-34,69,-103,-17
,162,2023-10-27 11:03:00.44,55,-69,-2084,22,-21,55,-70,112,-182,-21
,163,2023-10-27 11:03:00.45,54,-60,-2073,20,-19,48,-26,75,-101,-24
,164,2023-10-27 11:03:00.46,52,-62,-2064,17,-23,39,-63,112,-175,-24
,165,2023-10-27 11:03:00.47,26,-75,-2079,13,-26,32,-42,58,-100,-8
,166,2023-10-27 11:03:00.48,38,-70,-2089,20,-38,29,-83,101,-184,-9
,167,2023-10-27 11:03:00.49,36,-68,-2085,24,-48,27,-65,45,-110,10
,168,2023-10-27 11:03:00.50,47,-68,-2064,22,-53,27,-94,88,-182,3
,169,2023-10-27 11:03:00.51,48,-67,-2059,13,-44,25,-70,39,-109,15
,170,2023-10-27 11:03:00.52,42,-66,-2050,4,-33,26,-101,82,-183,9
,171,2023-10-27 11:03:00.53,48,-71,-2047,-1,-20,26,-91,19,-110,36
,172,2023-10-27 11:03:00.54,44,-73,-2039,-6,-2,25,-124,68,-192,28
,173,2023-10-27 11:03:00.55,58,-75,-2036,-12,17,24,-112,8,-120,52
,174,2023-10-27 11:03:00.56,45,-72,-2044,-16,35,24,-130,70,-200,30
,175,2023-10-27 11:03:00.57,51,-71,-2054,-20,48,23,-136,-14,-122,75
,176,2023-10-27 11:03:00.58,52,-65,-2056,-22,60,21,-152,54,-206,49
,177,2023-10-27 11:03:00.59,48,-64,-2053,-24,64,21,-153,-23,-130,88
,178,2023-10-27 11:03:00.60,47,-56,-2044,-26,71,14,-157,50,-207,53
,179,2023-10-27 11:03:00.61,51,-51,-2042,-28,78,11,-152,-26,-126,89
,180,2023-10-27 11:03:00.62,57,-61,-2020,-28,78,4,-150,56,-206,47
,181,2023-10-27 11:03:00.63,43,-47,-2060,1,23,8,-154,-28,-126,91
,182,2023-10-27 11:03:00.64,84,-53,-2046,3,47,-3,-142,66,-208,38
,183,2023-10-27 11:03:00.65,58,-51,-2045,1,63,-10,-147,-20,-127,83
,184,2023-10-27 11:03:00.66,88,-58,-2055,-1,66,-19,-126,76,-202,25
,185,2023-10-27 11:03:00.67,54,-64,-2061,-4,73,-27,-138,-12,-126,75
,186,2023-10-27 11:03:00.68,75,-51,-2066,13,40,-27,-112,96,-208,8
,187,2023-10-27 11:03:00.69,82,-61,-2066,20,44,-32,-126,-2,-124,64
,188,2023-10-27 11:03:00.70,79,-56,-2064,19,41,-34,-100,108,-208,-4
,189,2023-10-27 11:03:00.71,73,-60,-2072,11,54,-38,-126,2,-128,62
,190,2023-10-27 11:03:00.72,70,-62,-2077,9,41,-40,-88,122,-210,-17
,191,2023-10-27 11:03:00.73,81,-68,-2079,15,33,-40,-112,9,-121,51
,192,2023-10-27 11:03:00.74,71,-73,-2086,19,39,-39,-59,143,-202,-42
,193,2023-10-27 11:03:00.75,70,-83,-2076,23,37,-35,-84,34,-118,25
,194,2023-10-27 11:03:00.76,74,-83,-2062,27,40,-32,-31,177,-208,-73
,195,2023-10-27 11:03:00.77,83,-84,-2057,43,28,-27,-68,48,-116,10
,196,2023-10-27 11:03:00.78,91,-100,-2047,49,45,-28,-12,178,-190,-83
,197,2023-10-27 11:03:00.79,74,-95,-2044,61,42,-25,-64,37,-101,13
,198,2023-10-27 11:03:00.80,89,-92,-2055,70,43,-22,-7,180,-187,-86
,199,2023-10-27 11:03:00.81,86,-88,-2056,77,53,-21,-77,33,-110,22
,200,2023-10-27 11:03:00.82,83,-102,-2059,87,52,-18,-24,161,-185,-68
,201,2023-10-27 11:03:00.83,92,-93,-2075,88,62,-20,-96,10,-106,43
,202,2023-10-27 11:03:00.84,56,-86,-2079,88,52,-16,-38,142,-180,-52
,203,2023-10-27 11:03:00.85,86,-69,-2076,90,41,-13,-120,-13,-107,66
,204,2023-10-27 11:03:00.86,75,-65,-2068,85,47,-14,-66,121,-187,-27
,205,2023-10-27 11:03:00.87,83,-66,-2054,75,48,-19,-144,-34,-110,89
,206,2023-10-27 11:03:00.88,69,-84,-2058,64,39,-21,-80,108,-188,-14
,207,2023-10-27 11:03:00.89,67,-89,-2067,71,6,-26,-165,-50,-115,107
,208,2023-10-27 11:03:00.90,77,-82,-2053,72,-12,-26,-96,90,-186,3
,209,2023-10-27 11:03:00.91,86,-99,-2050,68,-17,-23,-200,-78,-122,139
,210,2023-10-27 11:03:00.92,75,-91,-2040,59,-18,-21,-151,38,-189,56
,211,2023-10-27 11:03:00.93,84,-92,-2039,51,-9,-21,-258,-133,-125,195
,212,2023-10-27 11:03:00.94,83,-84,-2039,38,-3,-25,-204,-6,-198,105
,213,2023-10-27 11:03:00.95,66,-82,-2047,27,-1,-22,-299,-160,-139,229
,214,2023-10-27 11:03:00.96,55,-87,-2056,13,-4,-19,-224,-8,-216,116
,215,2023-10-27 11:03:00.97,53,-81,-2073,-3,-8,-10,-290,-148,-142,219
,216,2023-10-27 11:03:00.98,46,-83,-2085,-22,-23,0,-172,26,-198,73
,217,2023-10-27 11:03:00.99,65,-92,-2081,-41,-37,10,-232,-106,-126,169
,218,2023-10-27 11:03:01.00,86,-90,-2072,-52,-33,19,-108,77,-185,15
,219,2023-10-27 11:03:01.01,75,-105,-2037,-53,-24,19,-192,-78,-114,135
,220,2023-10-27 11:03:01.02,102,-111,-2028,-52,3,19,-70,113,-183,-21
,221,2023-10-27 11:03:01.03,77,-114,-2025,-47,14,15,-164,-48,-116,106
,222,2023-10-27 11:03:01.04,93,-104,-2036,-40,24,18,-44,143,-187,-49
,223,2023-10-27 11:03:01.05,96,-97,-2054,-28,48,17,-152,-32,-120,92
,224,2023-10-27 11:03:01.06,87,-91,-2059,-15,62,14,-38,153,-191,-57
,225,2023-10-27 11:03:01.07,86,-78,-2061,-12,68,12,-154,-30,-124,92
,226,2023-10-27 11:03:01.08,80,-68,-2061,-12,69,7,-38,144,-182,-53
,227,2023-10-27 11:03:01.09,84,-70,-2061,0,69,1,-166,-47,-119,106
,228,2023-10-27 11:03:01.10,92,-84,-2066,16,63,-7,-63,117,-180,-27
,229,2023-10-27 11:03:01.11,95,-77,-2056,31,55,-9,-206,-81,-125,143
,230,2023-10-27 11:03:01.12,103,-84,-2041,39,61,-18,-108,78,-186,15
,231,2023-10-27 11:03:01.13,92,-92,-2049,48,67,-21,-250,-120,-130,185
,232,2023-10-27 11:03:01.14,95,-90,-2053,53,77,-25,-142,47,-189,47
,233,2023-10-27 11:03:01.15,97,-93,-2055,63,81,-28,-273,-140,-133,206
,234,2023-10-27 11:03:01.16,98,-91,-2055,73,78,-32,-150,21,-171,64
,235,2023-10-27 11:03:01.17,82,-109,-2049,92,59,-32,-289,-160,-129,224
,236,2023-10-27 11:03:01.18,113,-97,-2058,115,28,-30,-179,1,-180,89
,237,2023-10-27 11:03:01.19,105,-95,-2064,121,44,-33,-332,-191,-141,261
,238,2023-10-27 11:03:01.20,81,-95,-2065,115,49,-33,-240,-46,-194,143
,239,2023-10-27 11:03:01.21,98,-93,-2067,101,46,-31,-385,-235,-150,310
,240,2023-10-27 11:03:01.22,97,-103,-2076,82,34,-24,-266,-84,-182,175
,241,2023-10-27 11:03:01.23,99,-105,-2072,70,34,-15,-416,-261,-155,338
,242,2023-10-27 11:03:01.24,83,-104,-2092,57,26,-6,-298,-101,-197,199
,243,2023-10-27 11:03:01.25,105,-121,-2067,40,11,7,-439,-260,-179,349
,244,2023-10-27 11:03:01.26,118,-134,-2055,27,12,22,-312,-85,-227,198
,245,2023-10-27 11:03:01.27,98,-133,-2062,18,8,38,-437,-229,-208,333
,246,2023-10-27 11:03:01.28,103,-135,-2038,11,11,51,-282,-31,-251,156
,247,2023-10-27 11:03:01.29,127,-137,-2030,8,22,60,-388,-174,-214,281
,248,2023-10-27 11:03:01.30,121,-128,-2064,5,41,73,-221,35,-256,93
,249,2023-10-27 11:03:01.31,109,-137,-2068,-12,31,83,-321,-116,-205,218
,250,2023-10-27 11:03:01.32,110,-147,-2000,-8,34,89,-128,102,-230,13
,251,2023-10-27 11:03:01.33,106,-116,-2036,32,7,98,-233,-51,-182,142
,252,2023-10-27 11:03:01.34,130,-105,-2101,41,-17,104,-56,155,-211,-49
,253,2023-10-27 11:03:01.35,94,-96,-2048,22,11,104,-168,1,-169,83
,254,2023-10-27 11:03:01.36,102,-81,-2075,8,27,99,24,217,-193,-120
,255,2023-10-27 11:03:01.37,111,-98,-2077,-18,16,93,-104,56,-160,24
,256,2023-10-27 11:03:01.38,118,-93,-2098,-23,-8,93,72,260,-188,-166
,257,2023-10-27 11:03:01.39,114,-105,-2061,-12,-21,87,-67,81,-148,-7
,258,2023-10-27 11:03:01.40,116,-96,-2063,-3,-24,79,104,288,-184,-196
,259,2023-10-27 11:03:01.41,102,-98,-2053,-7,-25,69,-54,107,-161,-26
,260,2023-10-27 11:03:01.42,97,-76,-2074,-16,-34,65,112,291,-179,-201
,261,2023-10-27 11:03:01.43,93,-93,-2086,-23,-60,64,-32,116,-148,-42
,262,2023-10-27 11:03:01.44,86,-91,-2064,-22,-75,65,132,300,-168,-216
,263,2023-10-27 11:03:01.45,98,-91,-2063,-19,-77,57,-27,117,-144,-45
,264,2023-10-27 11:03:01.46,89,-95,-2050,-23,-82,57,134,300,-166,-217
,265,2023-10-27 11:03:01.47,100,-95,-2039,-29,-77,53,-29,115,-144,-43
,266,2023-10-27 11:03:01.48,103,-111,-2044,-27,-69,49,129,295,-166,-212
,267,2023-10-27 11:03:01.49,106,-116,-2037,-18,-53,46,-32,115,-147,-41
,268,2023-10-27 11:03:01.50,100,-119,-2040,-8,-35,45,130,296,-166,-213
,269,2023-10-27 11:03:01.51,90,-127,-2053,-5,-19,44,-36,124,-160,-44
,270,2023-10-27 11:03:01.52,90,-116,-2066,-5,-9,51,125,307,-182,-216
,271,2023-10-27 11:03:01.53,88,-109,-2071,-1,-9,58,-37,133,-170,-48
,272,2023-10-27 11:03:01.54,84,-106,-2069,0,-6,66,127,299,-172,-213
,273,2023-10-27 11:03:01.55,84,-94,-2073,-1,-11,70,-41,128,-169,-43
,274,2023-10-27 11:03:01.56,77,-101,-2069,-5,-16,76,114,288,-174,-201
,275,2023-10-27 11:03:01.57,61,-101,-2062,-7,-22,87,-49,115,-164,-33
,276,2023-10-27 11:03:01.58,70,-101,-2061,-4,-21,91,101,267,-166,-184
,277,2023-10-27 11:03:01.59,78,-93,-2051,-5,-22,98,-72,85,-157,-6
,278,2023-10-27 11:03:01.60,80,-99,-2054,-12,-20,101,76,236,-160,-156
,279,2023-10-27 11:03:01.61,81,-100,-2048,-17,-20,105,-94,64,-158,15
,280,2023-10-27 11:03:01.62,78,-94,-2049,-15,-24,106,62,214,-152,-138
,281,2023-10-27 11:03:01.63,74,-90,-2049,-10,-16,106,-102,51,-153,25
,282,2023-10-27 11:03:01.64,91,-81,-2052,-4,-16,101,54,198,-144,-126
,283,2023-10-27 11:03:01.65,90,-80,-2051,0,-15,97,-111,43,-154,34
,284,2023-10-27 11:03:01.66,76,-82,-2059,1,-17,86,35,185,-150,-110
,285,2023-10-27 11:03:01.67,72,-77,-2054,5,-22,80,-128,26,-154,51
,286,2023-10-27 11:03:01.68,73,-86,-2050,9,-26,73,17,167,-150,-92
,287,2023-10-27 11:03:01.69,84,-74,-2054,18,-23,61,-152,9,-161,71
,288,2023-10-27 11:03:01.70,68,-85,-2044,27,-22,50,-1,146,-147,-72
,289,2023-10-27 11:03:01.71,73,-72,-2055,30,-19,36,-165,-3,-162,84
,290,2023-10-27 11:03:01.72,88,-78,-2061,31,-27,28,-18,128,-146,-55
,291,2023-10-27 11:03:01.73,81,-80,-2065,30,-20,18,-176,-7,-169,91
,292,2023-10-27 11:03:01.74,62,-88,-2048,37,-24,9,-20,134,-154,-57
,293,2023-10-27 11:03:01.75,77,-87,-2049,37,-27,5,-171,-8,-163,89
,294,2023-10-27 11:03:01.76,66,-93,-2045,30,-25,1,-16,125,-141,-54
,295,2023-10-27 11:03:01.77,63,-78,-2058,24,-25,-3,-161,-4,-157,82
,296,2023-10-27 11:03:01.78,68,-89,-2054,14,-15,-9,-16,131,-147,-57
,297,2023-10-27 11:03:01.79,66,-105,-2060,14,-11,-11,-173,6,-179,83
,298,2023-10-27 11:03:01.80,64,-102,-2051,19,-17,-10,-36,113,-149,-38
,299,2023-10-27 11:03:01.81,82,-86,-2040,22,-15,-22,-200,-42,-158,121
,300,2023-10-27 11:03:01.82,73,-103,-2038,30,-5,-28,-77,45,-122,16
,301,2023-10-27 11:03:01.83,80,-85,-2037,46,1,-39,-239,-95,-144,167
,302,2023-10-27 11:03:01.84,75,-92,-2036,57,13,-56,-96,20,-116,38
,303,2023-10-27 11:03:01.85,68,-90,-2053,64,19,-68,-228,-92,-136,160
,304,2023-10-27 11:03:01.86,73,-91,-2055,69,20,-75,-77,20,-97,28
,305,2023-10-27 11:03:01.87,70,-89,-2064,74,28,-87,-203,-81,-122,142
,306,2023-10-27 11:03:01.88,69,-91,-2064,67,32,-93,-52,30,-82,11
,307,2023-10-27 11:03:01.89,69,-101,-2057,61,19,-98,-176,-50,-126,113
,308,2023-10-27 11:03:01.90,83,-110,-2067,62,12,-99,-38,58,-96,-10
,309,2023-10-27 11:03:01.91,77,-110,-2057,57,19,-102,-160,-23,-137,91
,310,2023-10-27 11:03:01.92,77,-113,-2059,44,21,-102,-30,68,-98,-19
,311,2023-10-27 11:03:01.93,74,-110,-2065,31,21,-102,-144,-14,-130,79
,312,2023-10-27 11:03:01.94,74,-127,-2063,25,13,-101,-20,78,-98,-29
,313,2023-10-27 11:03:01.95,84,-125,-2066,20,10,-93,-146,-4,-142,75
,314,2023-10-27 11:03:01.96,84,-139,-2049,20,7,-87,-26,78,-104,-26
,315,2023-10-27 11:03:01.97,86,-136,-2049,17,11,-85,-152,-5,-147,78
,316,2023-10-27 11:03:01.98,99,-131,-2050,11,22,-78,-35,69,-104,-17
,317,2023-10-27 11:03:01.99,87,-126,-2060,4,25,-72,-155,-4,-151,79
,318,2023-10-27 11:03:02.00,79,-129,-2066,-2,21,-64,-43,62,-105,-9
,319,2023-10-27 11:03:02.01,74,-129,-2067,-7,13,-55,-163,-2,-161,82
,320,2023-10-27 11:03:02.02,73,-130,-2061,-6,2,-44,-58,54,-112,2
,321,2023-10-27 11:03:02.03,85,-132,-2061,-7,-2,-35,-174,-11,-163,92
,322,2023-10-27 11:03:02.04,73,-129,-2056,-17,-3,-26,-72,44,-116,14
,323,2023-10-27 11:03:02.05,63,-129,-2069,-25,-10,-15,-182,-14,-168,98
,324,2023-10-27 11:03:02.06,63,-123,-2071,-31,-13,-6,-73,42,-115,15
,325,2023-10-27 11:03:02.07,72,-124,-2072,-33,-26,5,-183,-10,-173,96
,326,2023-10-27 11:03:02.08,81,-107,-2053,-37,-24,8,-88,37,-125,25
,327,2023-10-27 11:03:02.09,90,-111,-2047,-38,-30,8,-197,-12,-185,104
,328,2023-10-27 11:03:02.10,87,-107,-2047,-38,-20,8,-103,25,-128,39
,329,2023-10-27 11:03:02.11,77,-113,-2053,-31,-7,5,-198,-13,-185,105
,330,2023-10-27 11:03:02.12,70,-116,-2054,-26,-9,1,-108,20,-128,44
,331,2023-10-27 11:03:02.13,84,-104,-2065,-18,-11,5,-197,-10,-187,103
,332,2023-10-27 11:03:02.14,75,-91,-2055,-9,-12,3,-109,27,-136,41
,333,2023-10-27 11:03:02.15,71,-84,-2048,-11,-13,-2,-196,10,-206,93
,334,2023-10-27 11:03:02.16,73,-100,-2048,-13,-11,-7,-114,27,-141,43
,335,2023-10-27 11:03:02.17,75,-99,-2042,-8,-8,-9,-205,2,-207,101
,336,2023-10-27 11:03:02.18,82,-112,-2029,4,-6,-16,-125,15,-140,55
,337,2023-10-27 11:03:02.19,82,-109,-2034,16,13,-18,-207,9,-216,99
,338,2023-10-27 11:03:02.20,69,-106,-2029,11,25,-26,-129,19,-148,55
,339,2023-10-27 11:03:02.21,67,-115,-2063,3,35,-26,-201,16,-217,92
,340,2023-10-27 11:03:02.22,82,-111,-2067,-5,34,-26,-119,31,-150,44
,341,2023-10-27 11:03:02.23,76,-115,-2065,1,40,-24,-184,29,-213,77
,342,2023-10-27 11:03:02.24,83,-107,-2047,0,43,-27,-111,36,-147,37
,343,2023-10-27 11:03:02.25,111,-96,-2050,-12,51,-27,-176,43,-219,66
,344,2023-10-27 11:03:02.26,89,-97,-2058,-31,67,-36,-114,37,-151,38
,345,2023-10-27 11:03:02.27,42,-113,-2040,-20,45,-37,-166,54,-220,56
,346,2023-10-27 11:03:02.28,107,-100,-2082,12,1,-31,-97,42,-139,27
,347,2023-10-27 11:03:02.29,99,-108,-2054,12,28,-35,-150,67,-217,41
,348,2023-10-27 11:03:02.30,68,-100,-2043,8,21,-30,-101,36,-137,32
,349,2023-10-27 11:03:02.31,92,-105,-2050,1,25,-31,-164,44,-208,60
,350,2023-10-27 11:03:02.32,69,-101,-2058,5,30,-36,-129,4,-133,62
,351,2023-10-27 11:03:02.33,86,-98,-2057,19,18,-34,-178,27,-205,75
,352,2023-10-27 11:03:02.34,81,-92,-2052,22,18,-35,-136,-4,-132,70
,353,2023-10-27 11:03:02.35,67,-101,-2037,21,15,-37,-174,28,-202,73
,354,2023-10-27 11:03:02.36,84,-92,-2049,16,11,-36,-145,-4,-141,74
,355,2023-10-27 11:03:02.37,81,-104,-2047,10,19,-38,-183,43,-226,70
,356,2023-10-27 11:03:02.38,80,-100,-2050,8,17,-36,-144,5,-149,69
,357,2023-10-27 11:03:02.39,73,-113,-2041,12,9,-36,-168,48,-216,60
,358,2023-10-27 11:03:02.40,100,-109,-2055,21,8,-37,-138,0,-138,69
,359,2023-10-27 11:03:02.41,96,-96,-2049,20,22,-39,-161,55,-216,53
,360,2023-10-27 11:03:02.42,77,-96,-2043,20,28,-43,-137,0,-137,68
,361,2023-10-27 11:03:02.43,92,-98,-2079,25,15,-42,-159,58,-217,50
,362,2023-10-27 11:03:02.44,107,-101,-2067,22,29,-42,-164,-19,-145,91
,363,2023-10-27 11:03:02.45,67,-97,-2073,17,33,-40,-210,18,-228,96
,364,2023-10-27 11:03:02.46,97,-106,-2069,11,30,-35,-223,-68,-155,145
,365,2023-10-27 11:03:02.47,91,-97,-2069,8,32,-34,-300,-78,-222,189
,366,2023-10-27 11:03:02.48,101,-102,-2049,7,28,-31,-339,-169,-170,254
,367,2023-10-27 11:03:02.49,112,-118,-2040,10,35,-28,-436,-192,-244,314
,368,2023-10-27 11:03:02.50,101,-137,-2021,27,59,-34,-454,-269,-185,361
,369,2023-10-27 11:03:02.51,82,-137,-2021,48,64,-34,-520,-278,-242,399
,370,2023-10-27 11:03:02.52,94,-132,-2052,60,40,-23,-496,-332,-164,414
,371,2023-10-27 11:03:02.53,82,-117,-2063,61,30,-8,-528,-320,-208,424
,372,2023-10-27 11:03:02.54,105,-101,-2068,59,35,-7,-511,-370,-141,440
,373,2023-10-27 11:03:02.55,92,-102,-2051,42,58,-5,-543,-352,-191,447
,374,2023-10-27 11:03:02.56,96,-103,-2058,30,54,-2,-520,-386,-134,453
,375,2023-10-27 11:03:02.57,108,-107,-2057,21,50,2,-530,-354,-176,442
,376,2023-10-27 11:03:02.58,75,-101,-2065,13,36,6,-492,-374,-118,433
,377,2023-10-27 11:03:02.59,101,-93,-2070,1,23,11,-462,-290,-172,376
,378,2023-10-27 11:03:02.60,100,-92,-2067,-31,41,11,-420,-300,-120,360
,379,2023-10-27 11:03:02.61,103,-90,-2057,-48,33,7,-377,-184,-193,280
,380,2023-10-27 11:03:02.62,99,-95,-2041,-46,22,4,-351,-219,-132,285
,381,2023-10-27 11:03:02.63,121,-102,-2043,-36,15,-3,-275,-62,-213,168
,382,2023-10-27 11:03:02.64,127,-100,-2042,-34,13,-7,-248,-108,-140,178
,383,2023-10-27 11:03:02.65,114,-82,-2057,-39,29,-20,-159,64,-223,47
,384,2023-10-27 11:03:02.66,115,-96,-2058,-47,31,-26,-158,-1,-157,79
,385,2023-10-27 11:03:02.67,115,-91,-2055,-33,19,-32,-64,176,-240,-56
,386,2023-10-27 11:03:02.68,118,-90,-2071,-18,22,-39,-85,78,-163,3
,387,2023-10-27 11:03:02.69,107,-94,-2057,-10,20,-48,-4,253,-257,-124
,388,2023-10-27 11:03:02.70,111,-83,-2068,-14,22,-51,-44,124,-168,-40
,389,2023-10-27 11:03:02.71,103,-89,-2073,-21,22,-52,33,288,-255,-160
,390,2023-10-27 11:03:02.72,105,-78,-2078,-26,27,-51,-27,139,-166,-56
,391,2023-10-27 11:03:02.73,90,-93,-2070,-28,24,-49,46,309,-263,-177
,392,2023-10-27 11:03:02.74,105,-101,-2057,-23,20,-47,-32,151,-183,-59
,393,2023-10-27 11:03:02.75,108,-102,-2038,-15,22,-47,34,307,-273,-170
,394,2023-10-27 11:03:02.76,104,-110,-2021,-2,18,-44,-60,134,-194,-37
,395,2023-10-27 11:03:02.77,109,-86,-2047,7,6,-37,12,290,-278,-151
,396,2023-10-27 11:03:02.78,118,-93,-2044,10,1,-34,-77,113,-190,-18
,397,2023-10-27 11:03:02.79,118,-79,-2051,8,16,-30,-8,263,-271,-127
,398,2023-10-27 11:03:02.80,98,-85,-2046,-2,34,-32,-101,86,-187,7
,399,2023-10-27 11:03:02.81,95,-91,-2063,-6,33,-29,-30,241,-271,-105
,400,2023-10-27 11:03:02.82,112,-88,-2069,-8,31,-26,-125,66,-191,29
,401,2023-10-27 11:03:02.83,80,-92,-2074,-8,29,-22,-49,224,-273,-87
,402,2023-10-27 11:03:02.84,105,-87,-2064,-5,16,-20,-148,47,-195,50
,403,2023-10-27 11:03:02.85,105,-85,-2082,-9,6,-19,-62,205,-267,-71
,404,2023-10-27 11:03:02.86,100,-85,-2072,-17,12,-16,-165,28,-193,68
,405,2023-10-27 11:03:02.87,99,-97,-2068,-13,-1,-14,-77,191,-268,-57
,406,2023-10-27 11:03:02.88,98,-92,-2063,-8,-12,-10,-176,20,-196,78
,407,2023-10-27 11:03:02.89,115,-91,-2053,-8,-13,-7,-91,182,-273,-45
,408,2023-10-27 11:03:02.90,110,-85,-2055,-10,-6,-7,-186,6,-192,90
,409,2023-10-27 11:03:02.91,107,-82,-2053,-15,1,-10,-82,180,-262,-49
,410,2023-10-27 11:03:02.92,99,-82,-2048,-16,10,-11,-184,5,-189,89
,411,2023-10-27 11:03:02.93,114,-92,-2041,-16,21,-10,-84,179,-263,-47
,412,2023-10-27 11:03:02.94,110,-89,-2049,-14,30,-11,-196,-2,-194,99
,413,2023-10-27 11:03:02.95,111,-105,-2049,-11,37,-13,-84,170,-254,-43
,414,2023-10-27 11:03:02.96,110,-81,-2045,-7,44,-11,-196,-13,-183,104
,415,2023-10-27 11:03:02.97,122,-87,-2047,-1,46,-13,-76,168,-244,-46
,416,2023-10-27 11:03:02.98,88,-83,-2044,6,40,-17,-191,-12,-179,101
,417,2023-10-27 11:03:02.99,138,-73,-2067,14,14,-17,-72,165,-237,-46
,418,2023-10-27 11:03:03.00,105,-74,-2067,4,38,-20,-189,-18,-171,103
,419,2023-10-27 11:03:03.01,98,-80,-2056,3,28,-20,-79,159,-238,-40
,420,2023-10-27 11:03:03.02,117,-86,-2051,3,22,-17,-206,-22,-184,114
,421,2023-10-27 11:03:03.03,109,-85,-2053,4,24,-17,-82,164,-246,-41
,422,2023-10-27 11:03:03.04,116,-89,-2045,0,27,-16,-200,-23,-177,111
,423,2023-10-27 11:03:03.05,104,-71,-2048,-7,33,-11,-69,164,-233,-47
,424,2023-10-27 11:03:03.06,116,-70,-2045,-12,43,-14,-207,-34,-173,120
,425,2023-10-27 11:03:03.07,120,-62,-2046,-14,57,-15,-59,163,-222,-52
,426,2023-10-27 11:03:03.08,99,-77,-2039,-9,45,-20,-189,-22,-167,105
,427,2023-10-27 11:03:03.09,119,-66,-2074,-4,19,-12,-53,162,-215,-54
,428,2023-10-27 11:03:03.10,117,-74,-2064,-17,50,-14,-192,-25,-167,108
,429,2023-10-27 11:03:03.11,111,-77,-2067,-17,49,-15,-67,160,-227,-46
,430,2023-10-27 11:03:03.12,107,-82,-2060,-12,44,-14,-206,-33,-173,119
,431,2023-10-27 11:03:03.13,116,-81,-2055,-5,41,-13,-64,153,-217,-44
,432,2023-10-27 11:03:03.14,116,-78,-2051,1,45,-13,-209,-38,-171,123
,433,2023-10-27 11:03:03.15,133,-75,-2054,8,38,-14,-68,146,-214,-39
,434,2023-10-27 11:03:03.16,130,-82,-2056,11,47,-15,-216,-40,-176,128
,435,2023-10-27 11:03:03.17,137,-80,-2062,15,54,-19,-68,142,-210,-37
,436,2023-10-27 11:03:03.18,138,-78,-2055,15,69,-22,-213,-38,-175,125
,437,2023-10-27 11:03:03.19,105,-80,-2046,20,62,-22,-73,145,-218,-36
,438,2023-10-27 11:03:03.20,146,-84,-2048,29,48,-23,-222,-41,-181,131
,439,2023-10-27 11:03:03.21,143,-87,-2045,29,62,-27,-75,144,-219,-34
,440,2023-10-27 11:03:03.22,129,-96,-2046,35,59,-27,-226,-51,-175,138
,441,2023-10-27 11:03:03.23,136,-85,-2045,31,61,-29,-84,127,-211,-21
,442,2023-10-27 11:03:03.24,144,-97,-2045,36,65,-29,-241,-68,-173,154
,443,2023-10-27 11:03:03.25,138,-110,-2044,36,67,-29,-90,114,-204,-12
,444,2023-10-27 11:03:03.26,147,-101,-2055,38,60,-28,-250,-74,-176,162
,445,2023-10-27 11:03:03.27,144,-107,-2049,35,66,-24,-96,105,-201,-4
,446,2023-10-27 11:03:03.28,147,-106,-2051,33,72,-27,-253,-70,-183,161
,447,2023-10-27 11:03:03.29,143,-107,-2060,27,73,-25,-100,112,-212,-6
,448,2023-10-27 11:03:03.30,135,-103,-2057,22,70,-23,-246,-61,-185,153
,449,2023-10-27 11:03:03.31,160,-101,-2060,13,70,-22,-88,119,-207,-15
,450,2023-10-27 11:03:03.32,138,-102,-2055,5,65,-18,-237,-62,-175,149
,451,2023-10-27 11:03:03.33,159,-88,-2065,-2,57,-18,-80,119,-199,-19
,452,2023-10-27 11:03:03.34,144,-81,-2053,-15,68,-19,-233,-58,-175,145
,453,2023-10-27 11:03:03.35,162,-85,-2053,-23,65,-23,-68,127,-195,-29
,454,2023-10-27 11:03:03.36,158,-82,-2037,-31,71,-26,-217,-48,-169,132
,455,2023-10-27 11:03:03.37,167,-85,-2050,-30,62,-29,-53,126,-179,-36
,456,2023-10-27 11:03:03.38,160,-92,-2037,-37,79,-33,-204,-40,-164,122
,457,2023-10-27 11:03:03.39,171,-82,-2052,-39,78,-36,-45,128,-173,-41
,458,2023-10-27 11:03:03.40,174,-84,-2058,-35,64,-38,-199,-47,-152,123
,459,2023-10-27 11:03:03.41,154,-80,-2053,-39,87,-42,-33,134,-167,-50
,460,2023-10-27 11:03:03.42,177,-83,-2048,-35,74,-40,-192,-37,-155,114
,461,2023-10-27 11:03:03.43,163,-76,-2042,-40,84,-45,-25,135,-160,-55
,462,2023-10-27 11:03:03.44,165,-76,-2038,-38,83,-47,-187,-24,-163,105
,463,2023-10-27 11:03:03.45,186,-62,-2044,-41,96,-49,-20,145,-165,-62
,464,2023-10-27 11:03:03.46,170,-69,-2051,-36,82,-52,-179,-20,-159,99
,465,2023-10-27 11:03:03.47,176,-76,-2057,-34,83,-56,-28,132,-160,-52
,466,2023-10-27 11:03:03.48,188,-74,-2047,-32,89,-55,-182,-22,-160,102
,467,2023-10-27 11:03:03.49,186,-70,-2051,-29,82,-58,-30,136,-166,-53
,468,2023-10-27 11:03:03.50,191,-56,-2052,-27,89,-60,-187,-30,-157,108
,469,2023-10-27 11:03:03.51,196,-55,-2057,-25,82,-60,-32,126,-158,-47
,470,2023-10-27 11:03:03.52,193,-55,-2059,-21,82,-63,-195,-36,-159,115
,471,2023-10-27 11:03:03.53,207,-38,-2077,-14,83,-65,-38,120,-158,-41
,472,2023-10-27 11:03:03.54,188,-46,-2061,-15,86,-63,-198,-36,-162,117
,473,2023-10-27 11:03:03.55,190,-48,-2062,-1,70,-62,-39,113,-152,-37
,474,2023-10-27 11:03:03.56,210,-52,-2058,10,52,-57,-195,-32,-163,113
,475,2023-10-27 11:03:03.57,197,-52,-2061,18,49,-55,-48,108,-156,-30
,476,2023-10-27 11:03:03.58,202,-47,-2060,25,44,-51,-208,-40,-168,124
,477,2023-10-27 11:03:03.59,205,-50,-2064,25,45,-48,-56,103,-159,-23
,478,2023-10-27 11:03:03.60,198,-50,-2054,25,55,-46,-210,-50,-160,130
,479,2023-10-27 11:03:03.61,204,-61,-2065,32,49,-39,-68,85,-153,-8
,480,2023-10-27 11:03:03.62,204,-57,-2056,40,47,-33,-230,-53,-177,141
,481,2023-10-27 11:03:03.63,216,-68,-2052,53,48,-26,-81,81,-162,0
,482,2023-10-27 11:03:03.64,218,-78,-2056,61,54,-22,-229,-50,-179,139
,483,2023-10-27 11:03:03.65,216,-75,-2055,68,56,-14,-78,84,-162,-3
,484,2023-10-27 11:03:03.66,207,-70,-2050,75,60,-5,-228,-42,-186,135
,485,2023-10-27 11:03:03.67,213,-69,-2063,87,45,-1,-82,86,-168,-2
,486,2023-10-27 11:03:03.68,239,-74,-2077,92,39,5,-223,-26,-197,124
,487,2023-10-27 11:03:03.69,206,-81,-2075,88,52,9,-76,106,-182,-15
,488,2023-10-27 11:03:03.70,202,-81,-2067,87,51,12,-213,-16,-197,114
,489,2023-10-27 11:03:03.71,210,-78,-2074,83,47,16,-76,102,-178,-13
,490,2023-10-27 11:03:03.72,222,-91,-2038,80,31,20,-221,-12,-209,116
,491,2023-10-27 11:03:03.73,218,-80,-2045,81,31,24,-72,111,-183,-19
,492,2023-10-27 11:03:03.74,209,-69,-2042,79,26,27,-212,5,-217,103
,493,2023-10-27 11:03:03.75,217,-73,-2039,74,23,28,-76,111,-187,-17
,494,2023-10-27 11:03:03.76,209,-77,-2052,68,20,31,-210,15,-225,97
,495,2023-10-27 11:03:03.77,207,-88,-2032,62,10,32,-74,116,-190,-21
,496,2023-10-27 11:03:03.78,218,-84,-2032,63,15,34,-199,16,-215,91
,497,2023-10-27 11:03:03.79,203,-92,-2053,57,13,35,-68,118,-186,-25
,498,2023-10-27 11:03:03.80,217,-88,-2050,51,8,36,-182,34,-216,74
,499,2023-10-27 11:03:03.81,222,-90,-2048,53,1,37,-49,135,-184,-43
,500,2023-10-27 11:03:03.82,199,-96,-2053,58,-5,38,-165,57,-222,54
,501,2023-10-27 11:03:03.83,212,-102,-2061,56,-6,39,-32,145,-177,-56
,502,2023-10-27 11:03:03.84,207,-99,-2061,52,-11,42,-150,67,-217,41
,503,2023-10-27 11:03:03.85,201,-96,-2061,53,-15,42,-30,137,-167,-53
,504,2023-10-27 11:03:03.86,216,-103,-2065,59,-20,41,-144,65,-209,39
,505,2023-10-27 11:03:03.87,212,-109,-2059,63,-22,45,-20,133,-153,-56
,506,2023-10-27 11:03:03.88,211,-118,-2065,66,-21,41,-129,64,-193,32
,507,2023-10-27 11:03:03.89,208,-114,-2065,65,-21,45,-6,143,-149,-68
,508,2023-10-27 11:03:03.90,205,-104,-2063,60,-17,43,-109,81,-190,14
,509,2023-10-27 11:03:03.91,209,-105,-2045,59,-14,43,10,146,-136,-78
,510,2023-10-27 11:03:03.92,206,-120,-2064,55,-8,42,-81,94,-175,-6
,511,2023-10-27 11:03:03.93,204,-114,-2063,54,-10,42,34,153,-119,-93
,512,2023-10-27 11:03:03.94,211,-113,-2040,54,-12,43,-62,111,-173,-24
,513,2023-10-27 11:03:03.95,208,-113,-2046,52,-9,44,44,160,-116,-102
,514,2023-10-27 11:03:03.96,209,-115,-2039,51,-7,44,-39,130,-169,-45
,515,2023-10-27 11:03:03.97,203,-113,-2050,48,0,43,61,180,-119,-120
,516,2023-10-27 11:03:03.98,210,-114,-2050,45,0,41,-4,159,-163,-77
,517,2023-10-27 11:03:03.99,197,-121,-2058,43,-3,42,92,195,-103,-143
,518,2023-10-27 11:03:04.00,200,-122,-2051,42,-8,44,19,177,-158,-98
,519,2023-10-27 11:03:04.01,210,-117,-2050,41,-13,45,94,206,-112,-150
,520,2023-10-27 11:03:04.02,207,-119,-2047,39,-14,47,8,188,-180,-98
,521,2023-10-27 11:03:04.03,207,-110,-2044,39,-12,44,83,202,-119,-142
,522,2023-10-27 11:03:04.04,197,-117,-2050,33,-17,44,8,193,-185,-100
,523,2023-10-27 11:03:04.05,213,-117,-2049,30,-22,46,85,210,-125,-147
,524,2023-10-27 11:03:04.06,198,-113,-2049,28,-24,45,9,222,-213,-115
,525,2023-10-27 11:03:04.07,197,-119,-2053,24,-32,47,73,224,-151,-148
,526,2023-10-27 11:03:04.08,193,-118,-2055,22,-31,50,0,242,-242,-121
,527,2023-10-27 11:03:04.09,203,-112,-2051,17,-37,52,56,233,-177,-144
,528,2023-10-27 11:03:04.10,197,-126,-2059,17,-42,53,-23,239,-262,-108
,529,2023-10-27 11:03:04.11,194,-125,-2056,14,-46,55,33,227,-194,-130
,530,2023-10-27 11:03:04.12,196,-124,-2056,15,-49,54,-46,241,-287,-97
,531,2023-10-27 11:03:04.13,196,-123,-2049,19,-54,56,11,221,-210,-116
,532,2023-10-27 11:03:04.14,200,-122,-2053,20,-54,54,-63,248,-311,-92
,533,2023-10-27 11:03:04.15,193,-128,-2058,20,-53,55,-6,221,-227,-107
,534,2023-10-27 11:03:04.16,198,-134,-2060,23,-50,54,-62,254,-316,-96
,535,2023-10-27 11:03:04.17,204,-124,-2049,29,-47,55,-10,213,-223,-101
,536,2023-10-27 11:03:04.18,188,-127,-2048,30,-47,51,-76,239,-315,-81
,537,2023-10-27 11:03:04.19,190,-125,-2066,32,-45,50,-27,201,-228,-87
,538,2023-10-27 11:03:04.20,204,-118,-2079,34,-46,51,-94,232,-326,-69
,539,2023-10-27 11:03:04.21,194,-112,-2088,36,-50,50,-39,192,-231,-76
,540,2023-10-27 11:03:04.22,185,-114,-2087,38,-61,49,-98,230,-328,-66
,541,2023-10-27 11:03:04.23,190,-120,-2074,43,-70,49,-46,180,-226,-67
,542,2023-10-27 11:03:04.24,215,-110,-2077,40,-52,45,-100,227,-327,-63
,543,2023-10-27 11:03:04.25,186,-84,-2094,21,-34,40,-64,166,-230,-51
,544,2023-10-27 11:03:04.26,211,-120,-2050,11,-32,34,-123,201,-324,-39
,545,2023-10-27 11:03:04.27,183,-121,-2076,16,-26,28,-89,140,-229,-25
,546,2023-10-27 11:03:04.28,192,-128,-2108,30,-44,27,-129,190,-319,-30
,547,2023-10-27 11:03:04.29,183,-130,-2141,36,-38,26,-96,129,-225,-16
,548,2023-10-27 11:03:04.30,194,-102,-2117,34,-22,23,-140,180,-320,-20
,549,2023-10-27 11:03:04.31,170,-104,-2082,28,-18,23,-114,111,-225,1
,550,2023-10-27 11:03:04.32,190,-128,-2049,29,-31,25,-151,164,-315,-6
,551,2023-10-27 11:03:04.33,179,-114,-2021,31,-28,22,-124,95,-219,14
,552,2023-10-27 11:03:04.34,175,-122,-2026,44,-46,22,-165,149,-314,8
,553,2023-10-27 11:03:04.35,192,-125,-2048,51,-38,20,-147,72,-219,37
,554,2023-10-27 11:03:04.36,174,-123,-2071,52,-29,19,-185,132,-317,26
,555,2023-10-27 11:03:04.37,178,-124,-2068,52,-30,20,-164,49,-213,57
,556,2023-10-27 11:03:04.38,172,-114,-2064,55,-37,25,-185,113,-298,36
,557,2023-10-27 11:03:04.39,170,-118,-2047,56,-34,26,-173,27,-200,73
,558,2023-10-27 11:03:04.40,143,-134,-2034,56,-48,29,-195,86,-281,54
,559,2023-10-27 11:03:04.41,156,-154,-2022,57,-51,37,-188,0,-188,94
,560,2023-10-27 11:03:04.42,157,-152,-2035,72,-68,47,-214,54,-268,80
,561,2023-10-27 11:03:04.43,159,-142,-2012,79,-76,54,-214,-31,-183,122
,562,2023-10-27 11:03:04.44,143,-139,-2015,82,-83,65,-240,32,-272,104
,563,2023-10-27 11:03:04.45,147,-147,-2030,74,-85,75,-235,-53,-182,144
,564,2023-10-27 11:03:04.46,141,-147,-2032,69,-79,84,-248,21,-269,113
,565,2023-10-27 11:03:04.47,141,-146,-2029,70,-82,89,-238,-63,-175,150
,566,2023-10-27 11:03:04.48,148,-140,-2025,72,-84,97,-249,17,-266,116
,567,2023-10-27 11:03:04.49,142,-165,-1999,80,-85,99,-254,-73,-181,163
,568,2023-10-27 11:03:04.50,144,-157,-2018,85,-81,100,-263,10,-273,126
,569,2023-10-27 11:03:04.51,137,-149,-2030,89,-84,101,-285,-91,-194,188
,570,2023-10-27 11:03:04.52,141,-151,-2065,91,-81,104,-296,-5,-291,150
,571,2023-10-27 11:03:04.53,142,-131,-2107,84,-80,102,-327,-115,-212,221
,572,2023-10-27 11:03:04.54,121,-120,-2139,62,-67,103,-363,-68,-295,215
,573,2023-10-27 11:03:04.55,136,-123,-2114,42,-78,101,-411,-182,-229,296
,574,2023-10-27 11:03:04.56,139,-130,-2118,25,-74,98,-444,-131,-313,287
,575,2023-10-27 11:03:04.57,118,-143,-2109,18,-85,96,-460,-221,-239,340
,576,2023-10-27 11:03:04.58,116,-137,-2097,28,-92,94,-444,-123,-321,283
,577,2023-10-27 11:03:04.59,107,-114,-2146,33,-87,91,-438,-200,-238,319
,578,2023-10-27 11:03:04.60,108,-118,-2143,20,-90,92,-400,-91,-309,245
,579,2023-10-27 11:03:04.61,142,-141,-2098,6,-84,94,-402,-182,-220,292
,580,2023-10-27 11:03:04.62,126,-161,-2043,5,-62,88,-342,-47,-295,194
,581,2023-10-27 11:03:04.63,130,-163,-2006,13,-46,88,-347,-136,-211,241
,582,2023-10-27 11:03:04.64,129,-163,-1991,28,-34,86,-283,10,-293,136
,583,2023-10-27 11:03:04.65,132,-161,-1979,58,-25,85,-304,-100,-204,202
,584,2023-10-27 11:03:04.66,146,-164,-1992,84,-17,85,-245,39,-284,103
,585,2023-10-27 11:03:04.67,123,-172,-1970,94,16,81,-276,-84,-192,180
,586,2023-10-27 11:03:04.68,130,-171,-1983,104,17,78,-212,65,-277,73
,587,2023-10-27 11:03:04.69,128,-173,-1966,114,34,74,-249,-60,-189,154
,588,2023-10-27 11:03:04.70,113,-187,-1961,125,52,69,-171,104,-275,33
,589,2023-10-27 11:03:04.71,131,-190,-1941,131,59,67,-222,-35,-187,128
,590,2023-10-27 11:03:04.72,125,-211,-1963,131,70,62,-149,115,-264,17
,591,2023-10-27 11:03:04.73,119,-194,-2007,131,58,61,-214,-36,-178,125
,592,2023-10-27 11:03:04.74,104,-186,-2031,136,26,60,-146,113,-259,16
,593,2023-10-27 11:03:04.75,106,-192,-2041,143,-8,62,-220,-40,-180,130
,594,2023-10-27 11:03:04.76,98,-206,-2035,149,-43,70,-152,106,-258,23
,595,2023-10-27 11:03:04.77,112,-236,-2014,150,-55,78,-225,-47,-178,136
,596,2023-10-27 11:03:04.78,117,-252,-2021,140,-48,84,-148,109,-257,19
,597,2023-10-27 11:03:04.79,137,-243,-2022,116,-9,81,-232,-49,-183,140
,598,2023-10-27 11:03:04.80,86,-270,-2035,104,-1,89,-153,119,-272,17
,599,2023-10-27 11:03:04.81,109,-256,-2057,106,-2,98,-230,-39,-191,134
,600,2023-10-27 11:03:04.82,108,-247,-2043,108,-8,107,-133,128,-261,2
,601,2023-10-27 11:03:04.83,103,-246,-2018,101,1,114,-221,-33,-188,127
,602,2023-10-27 11:03:04.84,119,-236,-2017,77,11,116,-121,141,-262,-10
,603,2023-10-27 11:03:04.85,114,-226,-2019,49,25,113,-205,-20,-185,112
,604,2023-10-27 11:03:04.86,97,-211,-2030,26,27,109,-102,154,-256,-26
,605,2023-10-27 11:03:04.87,112,-210,-2032,16,20,106,-197,-21,-176,109
,606,2023-10-27 11:03:04.88,97,-217,-2028,4,7,107,-94,155,-249,-30
,607,2023-10-27 11:03:04.89,98,-218,-2038,-10,-1,103,-197,-25,-172,111
,608,2023-10-27 11:03:04.90,86,-205,-2053,-22,-15,98,-86,157,-243,-35
,609,2023-10-27 11:03:04.91,93,-202,-2062,-29,-26,94,-199,-18,-181,108
,610,2023-10-27 11:03:04.92,87,-210,-2086,-30,-49,91,-83,161,-244,-39
,611,2023-10-27 11:03:04.93,86,-209,-2086,-26,-76,86,-202,-18,-184,110
,612,2023-10-27 11:03:04.94,87,-212,-2071,-21,-88,84,-89,160,-249,-35
,613,2023-10-27 11:03:04.95,95,-239,-2078,-16,-81,77,-204,-14,-190,109
,614,2023-10-27 11:03:04.96,91,-257,-2103,-13,-71,71,-81,173,-254,-46
,615,2023-10-27 11:03:04.97,81,-251,-2115,-7,-66,67,-199,-13,-186,106
,616,2023-10-27 11:03:04.98,92,-248,-2118,5,-63,62,-79,169,-248,-45
,617,2023-10-27 11:03:04.99,94,-247,-2101,20,-56,60,-198,-14,-184,106
,618,2023-10-27 11:03:05.00,84,-248,-2062,32,-47,56,-80,172,-252,-46
,619,2023-10-27 11:03:05.01,112,-225,-2046,39,-45,48,-210,-16,-194,113
,620,2023-10-27 11:03:05.02,110,-187,-2029,32,11,14,-91,158,-249,-33
,621,2023-10-27 11:03:05.03,95,-197,-2037,24,27,-7,-212,-26,-186,119
,622,2023-10-27 11:03:05.04,87,-200,-2024,15,41,-23,-85,148,-233,-31
,623,2023-10-27 11:03:05.05,98,-208,-2016,10,49,-35,-222,-37,-185,129
,624,2023-10-27 11:03:05.06,102,-215,-1996,8,49,-44,-92,134,-226,-21
,625,2023-10-27 11:03:05.07,101,-202,-1978,-4,57,-51,-231,-52,-179,141
,626,2023-10-27 11:03:05.08,87,-164,-2041,-20,77,-55,-94,117,-211,-11
,627,2023-10-27 11:03:05.09,98,-222,-1989,-26,38,-61,-238,-73,-165,155
,628,2023-10-27 11:03:05.10,106,-251,-1930,8,23,-60,-101,102,-203,0
,629,2023-10-27 11:03:05.11,110,-190,-2017,21,33,-60,-242,-84,-158,163
,630,2023-10-27 11:03:05.12,122,-214,-1998,14,21,-64,-102,104,-206,-1
,631,2023-10-27 11:03:05.13,131,-200,-2009,-4,53,-65,-245,-81,-164,163
,632,2023-10-27 11:03:05.14,115,-210,-2013,-15,72,-68,-99,100,-199,0
,633,2023-10-27 11:03:05.15,139,-217,-2013,-18,75,-65,-237,-79,-158,158
,634,2023-10-27 11:03:05.16,124,-222,-2026,-24,82,-62,-82,115,-197,-16
,635,2023-10-27 11:03:05.17,136,-228,-2041,-22,87,-57,-225,-58,-167,141
,636,2023-10-27 11:03:05.18,132,-234,-2054,-23,95,-48,-70,134,-204,-32
,637,2023-10-27 11:03:05.19,124,-235,-2056,-25,95,-42,-217,-46,-171,131
,638,2023-10-27 11:03:05.20,138,-238,-2066,-27,103,-29,-79,118,-197,-19
,639,2023-10-27 11:03:05.21,114,-247,-2072,-30,108,-20,-250,-79,-171,164
,640,2023-10-27 11:03:05.22,126,-235,-2086,-26,92,-7,-118,76,-194,21
,641,2023-10-27 11:03:05.23,134,-227,-2077,-22,94,5,-280,-116,-164,198
,642,2023-10-27 11:03:05.24,138,-222,-2072,-25,97,11,-135,57,-192,39
,643,2023-10-27 11:03:05.25,133,-216,-2072,-24,90,17,-288,-117,-171,202
,644,2023-10-27 11:03:05.26,155,-199,-2063,-29,94,22,-131,64,-195,33
,645,2023-10-27 11:03:05.27,140,-205,-2054,-38,104,22,-288,-112,-176,200
,646,2023-10-27 11:03:05.28,143,-200,-2049,-41,93,24,-135,55,-190,40
,647,2023-10-27 11:03:05.29,150,-178,-2045,-50,96,20,-300,-123,-177,211
,648,2023-10-27 11:03:05.30,146,-188,-2045,-51,90,14,-149,38,-187,55
,649,2023-10-27 11:03:05.31,166,-180,-2054,-53,87,10,-304,-121,-183,212
,650,2023-10-27 11:03:05.32,152,-175,-2045,-54,82,2,-148,51,-199,48
,651,2023-10-27 11:03:05.33,164,-196,-2066,-52,69,4,-298,-110,-188,204
,652,2023-10-27 11:03:05.34,155,-176,-2083,-62,86,-4,-139,56,-195,41
,653,2023-10-27 11:03:05.35,146,-175,-2109,-85,87,-2,-301,-113,-188,207
,654,2023-10-27 11:03:05.36,143,-226,-2032,-85,64,0,-144,54,-198,45
,655,2023-10-27 11:03:05.37,151,-196,-2019,-52,56,5,-302,-106,-196,204
,656,2023-10-27 11:03:05.38,131,-180,-2074,-28,16,9,-131,64,-195,33
,657,2023-10-27 11:03:05.39,154,-182,-2059,-32,14,8,-280,-96,-184,188
,658,2023-10-27 11:03:05.40,129,-175,-2077,-40,25,6,-108,70,-178,19
,659,2023-10-27 11:03:05.41,166,-165,-2070,-41,27,5,-274,-92,-182,183
,660,2023-10-27 11:03:05.42,137,-169,-2056,-43,38,4,-119,60,-179,29
,661,2023-10-27 11:03:05.43,154,-183,-2029,-39,26,0,-289,-99,-190,194
,662,2023-10-27 11:03:05.44,153,-173,-2041,-28,17,-4,-130,54,-184,38
,663,2023-10-27 11:03:05.45,167,-173,-2048,-23,23,-6,-293,-105,-188,199
,664,2023-10-27 11:03:05.46,157,-173,-2038,-25,52,-14,-135,43,-178,46
,665,2023-10-27 11:03:05.47,156,-167,-2057,-27,46,-12,-306,-124,-182,215
,666,2023-10-27 11:03:05.48,162,-152,-2055,-22,41,-16,-156,22,-178,67
,667,2023-10-27 11:03:05.49,165,-155,-2051,-12,34,-18,-323,-137,-186,230
,668,2023-10-27 11:03:05.50,171,-149,-2042,-10,39,-19,-165,8,-173,78
,669,2023-10-27 11:03:05.51,172,-152,-2032,-14,51,-28,-334,-148,-186,241
,670,2023-10-27 11:03:05.52,192,-168,-2049,-10,50,-31,-186,-10,-176,98
,671,2023-10-27 11:03:05.53,170,-167,-2061,1,49,-33,-355,-164,-191,259
,672,2023-10-27 11:03:05.54,178,-169,-2064,11,44,-32,-199,-34,-165,116
,673,2023-10-27 11:03:05.55,188,-165,-2047,24,48,-31,-366,-175,-191,270
,674,2023-10-27 11:03:05.56,187,-168,-2030,28,63,-32,-219,-45,-174,132
,675,2023-10-27 11:03:05.57,193,-167,-2026,38,61,-35,-389,-189,-200,289
,676,2023-10-27 11:03:05.58,179,-181,-2042,51,53,-35,-251,-73,-178,162
,677,2023-10-27 11:03:05.59,193,-166,-2046,61,64,-33,-410,-211,-199,310
,678,2023-10-27 11:03:05.60,190,-176,-2048,71,65,-31,-261,-84,-177,172
,679,2023-10-27 11:03:05.61,184,-184,-2049,82,53,-28,-418,-217,-201,317
,680,2023-10-27 11:03:05.62,198,-186,-2046,89,53,-22,-266,-88,-178,177
,681,2023-10-27 11:03:05.63,189,-192,-2048,97,56,-19,-423,-209,-214,316
,682,2023-10-27 11:03:05.64,190,-193,-2037,106,49,-12,-265,-80,-185,172
,683,2023-10-27 11:03:05.65,213,-192,-2035,118,44,-5,-412,-193,-219,302
,684,2023-10-27 11:03:05.66,210,-193,-2042,123,54,-3,-248,-72,-176,160
,685,2023-10-27 11:03:05.67,205,-193,-2054,118,67,0,-387,-170,-217,278
,686,2023-10-27 11:03:05.68,189,-197,-2071,111,65,4,-219,-43,-176,131
,687,2023-10-27 11:03:05.69,171,-202,-2113,100,42,19,-344,-130,-214,237
,688,2023-10-27 11:03:05.70,214,-236,-2030,109,23,27,-187,-10,-177,98
,689,2023-10-27 11:03:05.71,191,-197,-2036,129,34,38,-320,-111,-209,215
,690,2023-10-27 11:03:05.72,179,-199,-2056,126,25,42,-171,0,-171,85
,691,2023-10-27 11:03:05.73,186,-215,-2060,108,19,55,-307,-96,-211,201
,692,2023-10-27 11:03:05.74,191,-206,-2056,108,14,65,-153,14,-167,69
,693,2023-10-27 11:03:05.75,197,-210,-2058,125,8,73,-286,-66,-220,176
,694,2023-10-27 11:03:05.76,189,-219,-2046,135,1,81,-122,50,-172,36
,695,2023-10-27 11:03:05.77,192,-227,-2040,139,-2,94,-227,-6,-221,116
,696,2023-10-27 11:03:05.78,180,-217,-2048,140,-2,104,-58,104,-162,-23
,697,2023-10-27 11:03:05.79,183,-214,-2066,145,-13,117,-170,48,-218,61
,698,2023-10-27 11:03:05.80,158,-221,-2067,144,-29,133,-28,125,-153,-48
,699,2023-10-27 11:03:05.81,165,-209,-2072,146,-42,148,-155,55,-210,50
,700,2023-10-27 11:03:05.82,164,-222,-2057,148,-60,162,-38,111,-149,-36
,701,2023-10-27 11:03:05.83,161,-231,-2052,151,-72,174,-162,43,-205,59
,702,2023-10-27 11:03:05.84,154,-229,-2051,153,-83,186,-48,103,-151,-27
,703,2023-10-27 11:03:05.85,180,-223,-2057,145,-77,196,-152,45,-197,53
,704,2023-10-27 11:03:05.86,175,-234,-2048,134,-63,202,-30,111,-141,-40
,705,2023-10-27 11:03:05.87,164,-224,-2041,123,-51,207,-141,62,-203,39
,706,2023-10-27 11:03:05.88,147,-223,-2057,117,-59,214,-28,113,-141,-42
,707,2023-10-27 11:03:05.89,171,-231,-2043,108,-58,220,-150,57,-207,46
,708,2023-10-27 11:03:05.90,155,-233,-2037,103,-56,224,-48,94,-142,-23
,709,2023-10-27 11:03:05.91,167,-252,-2039,110,-62,228,-163,46,-209,58
,710,2023-10-27 11:03:05.92,152,-263,-2031,113,-52,228,-58,81,-139,-11
,711,2023-10-27 11:03:05.93,152,-256,-2031,121,-54,234,-163,44,-207,59
,712,2023-10-27 11:03:05.94,171,-268,-2036,126,-51,233,-62,82,-144,-10
,713,2023-10-27 11:03:05.95,166,-271,-2031,131,-41,234,-161,47,-208,57
,714,2023-10-27 11:03:05.96,161,-264,-2025,141,-40,231,-61,81,-142,-10
,715,2023-10-27 11:03:05.97,167,-270,-2030,146,-35,229,-162,54,-216,54
,716,2023-10-27 11:03:05.98,161,-262,-2030,151,-31,224,-61,84,-145,-11
,717,2023-10-27 11:03:05.99,172,-268,-2023,157,-32,224,-160,60,-220,50
,718,2023-10-27 11:03:06.00,155,-283,-2022,160,-20,219,-68,77,-145,-4
,719,2023-10-27 11:03:06.01,158,-277,-2016,164,-13,216,-161,62,-223,49
,720,2023-10-27 11:03:06.02,178,-281,-2000,169,-14,210,-73,70,-143,1
,721,2023-10-27 11:03:06.03,191,-291,-1982,172,-3,203,-160,56,-216,52
,722,2023-10-27 11:03:06.04,189,-283,-1996,175,10,198,-80,61,-141,9
,723,2023-10-27 11:03:06.05,183,-294,-1995,174,31,187,-165,58,-223,53
,724,2023-10-27 11:03:06.06,190,-296,-1996,169,55,176,-90,58,-148,16
,725,2023-10-27 11:03:06.07,199,-299,-2005,166,69,167,-167,54,-221,56
,726,2023-10-27 11:03:06.08,190,-319,-1988,164,79,157,-89,58,-147,15
,727,2023-10-27 11:03:06.09,206,-318,-1984,164,94,149,-163,68,-231,47
,728,2023-10-27 11:03:06.10,189,-262,-2109,146,123,140,-87,62,-149,12
,729,2023-10-27 11:03:06.11,216,-335,-2055,99,106,130,-156,73,-229,41
,730,2023-10-27 11:03:06.12,219,-340,-1934,89,113,124,-83,61,-144,11
,731,2023-10-27 11:03:06.13,202,-356,-1922,144,106,115,-146,79,-225,33
,732,2023-10-27 11:03:06.14,187,-347,-2073,190,77,117,-80,56,-136,12
,733,2023-10-27 11:03:06.15,209,-358,-2050,183,58,122,-139,85,-224,27
,734,2023-10-27 11:03:06.16,183,-349,-2039,164,77,124,-88,56,-144,16
,735,2023-10-27 11:03:06.17,160,-360,-2040,153,64,128,-143,88,-231,27
,736,2023-10-27 11:03:06.18,179,-371,-2067,148,46,136,-95,51,-146,22
,737,2023-10-27 11:03:06.19,171,-366,-2063,139,32,148,-155,80,-235,37
,738,2023-10-27 11:03:06.20,172,-361,-2054,132,21,157,-121,43,-164,39
,739,2023-10-27 11:03:06.21,173,-355,-2045,135,2,166,-189,79,-268,55
,740,2023-10-27 11:03:06.22,188,-365,-2028,117,-2,171,-152,37,-189,57
,741,2023-10-27 11:03:06.23,167,-385,-2045,87,-6,180,-214,66,-280,74
,742,2023-10-27 11:03:06.24,165,-379,-2046,76,-17,188,-176,15,-191,80
,743,2023-10-27 11:03:06.25,188,-372,-2049,76,-26,195,-226,55,-281,85
,744,2023-10-27 11:03:06.26,193,-364,-2045,69,-18,193,-177,9,-186,84
,745,2023-10-27 11:03:06.27,177,-366,-2032,55,-15,194,-207,65,-272,71
,746,2023-10-27 11:03:06.28,161,-370,-2029,45,-20,194,-173,6,-179,83
,747,2023-10-27 11:03:06.29,168,-370,-2044,33,-5,190,-204,52,-256,76
,748,2023-10-27 11:03:06.30,155,-380,-2041,32,-2,188,-188,-15,-173,101
,749,2023-10-27 11:03:06.31,147,-386,-2033,37,-10,186,-215,37,-252,89
,750,2023-10-27 11:03:06.32,153,-375,-2027,44,-12,182,-196,-26,-170,111
,751,2023-10-27 11:03:06.33,167,-373,-2036,50,-10,175,-211,38,-249,86
,752,2023-10-27 11:03:06.34,153,-376,-2023,47,5,168,-196,-27,-169,111
,753,2023-10-27 11:03:06.35,163,-367,-2021,53,0,164,-218,32,-250,93
,754,2023-10-27 11:03:06.36,158,-366,-2029,56,5,161,-210,-44,-166,127
,755,2023-10-27 11:03:06.37,155,-373,-2041,60,1,155,-220,31,-251,94
,756,2023-10-27 11:03:06.38,157,-366,-2034,53,0,160,-211,-48,-163,129
,757,2023-10-27 11:03:06.39,157,-369,-2029,54,-14,163,-217,30,-247,93
,758,2023-10-27 11:03:06.40,151,-362,-2026,51,-19,168,-216,-55,-161,135
,759,2023-10-27 11:03:06.41,159,-367,-2023,50,-35,173,-210,31,-241,89
,760,2023-10-27 11:03:06.42,170,-355,-2023,44,-29,180,-217,-59,-158,138
,761,2023-10-27 11:03:06.43,166,-358,-2014,35,-20,184,-204,32,-236,86
,762,2023-10-27 11:03:06.44,172,-355,-2019,30,-20,190,-216,-53,-163,134
,763,2023-10-27 11:03:06.45,164,-378,-2034,29,-23,196,-197,42,-239,77
,764,2023-10-27 11:03:06.46,156,-381,-2045,34,-29,207,-215,-51,-164,133
,765,2023-10-27 11:03:06.47,154,-374,-2048,36,-44,223,-191,50,-241,70
,766,2023-10-27 11:03:06.48,149,-363,-2045,38,-59,236,-202,-42,-160,122
,767,2023-10-27 11:03:06.49,140,-370,-2044,39,-72,247,-174,65,-239,54
,768,2023-10-27 11:03:06.50,136,-371,-2059,40,-79,259,-200,-44,-156,122
,769,2023-10-27 11:03:06.51,142,-383,-2053,46,-95,271,-167,77,-244,45
,770,2023-10-27 11:03:06.52,139,-380,-2049,53,-110,278,-192,-30,-162,111
,771,2023-10-27 11:03:06.53,125,-365,-2040,64,-122,289,-144,97,-241,23
,772,2023-10-27 11:03:06.54,128,-362,-2034,73,-129,289,-182,-26,-156,104
,773,2023-10-27 11:03:06.55,119,-365,-2046,71,-133,291,-148,99,-247,24
,774,2023-10-27 11:03:06.56,131,-379,-2051,69,-137,294,-197,-26,-171,111
,775,2023-10-27 11:03:06.57,109,-379,-2047,76,-140,295,-136,111,-247,12
,776,2023-10-27 11:03:06.58,98,-388,-2034,92,-152,293,-178,-14,-164,96
,777,2023-10-27 11:03:06.59,118,-401,-2031,92,-145,290,-114,126,-240,-6
,778,2023-10-27 11:03:06.60,96,-393,-2012,93,-142,286,-167,0,-167,83
,779,2023-10-27 11:03:06.61,105,-382,-2010,103,-130,275,-102,143,-245,-20
,780,2023-10-27 11:03:06.62,92,-382,-1997,114,-139,262,-159,6,-165,76
,781,2023-10-27 11:03:06.63,87,-387,-2001,125,-139,254,-85,151,-236,-33
,782,2023-10-27 11:03:06.64,74,-382,-2002,131,-130,239,-152,4,-156,74
,783,2023-10-27 11:03:06.65,58,-385,-1998,138,-129,228,-78,150,-228,-36
,784,2023-10-27 11:03:06.66,78,-395,-2014,135,-110,214,-165,-7,-158,86
,785,2023-10-27 11:03:06.67,40,-385,-2023,134,-116,202,-83,154,-237,-35
,786,2023-10-27 11:03:06.68,57,-397,-2027,132,-114,192,-171,-8,-163,89
,787,2023-10-27 11:03:06.69,59,-396,-2024,134,-120,184,-102,141,-243,-19
,788,2023-10-27 11:03:06.70,34,-408,-2024,129,-117,171,-175,-18,-157,96
,789,2023-10-27 11:03:06.71,36,-402,-2025,126,-130,162,-79,142,-221,-31
,790,2023-10-27 11:03:06.72,51,-408,-2035,117,-117,152,-169,-22,-147,95
,791,2023-10-27 11:03:06.73,32,-410,-2022,111,-121,141,-76,139,-215,-31
,792,2023-10-27 11:03:06.74,38,-412,-2021,114,-130,132,-174,-24,-150,99
,793,2023-10-27 11:03:06.75,19,-423,-2017,105,-118,122,-82,135,-217,-26
,794,2023-10-27 11:03:06.76,8,-423,-2018,104,-128,112,-181,-27,-154,104
,795,2023-10-27 11:03:06.77,6,-427,-2019,104,-129,106,-83,130,-213,-23
,796,2023-10-27 11:03:06.78,1,-427,-2025,99,-117,95,-186,-33,-153,109
,797,2023-10-27 11:03:06.79,-6,-434,-2015,95,-131,88,-87,126,-213,-19
,798,2023-10-27 11:03:06.80,-1,-430,-2005,91,-132,83,-190,-38,-152,114
,799,2023-10-27 11:03:06.81,-12,-420,-1981,85,-129,73,-90,124,-214,-17
,800,2023-10-27 11:03:06.82,12,-430,-1990,82,-131,63,-200,-52,-148,126
,801,2023-10-27 11:03:06.83,-8,-429,-1986,74,-122,53,-93,120,-213,-13
,802,2023-10-27 11:03:06.84,-7,-441,-1987,70,-117,41,-206,-50,-156,128
,803,2023-10-27 11:03:06.85,-9,-452,-2004,65,-107,36,-91,128,-219,-18
,804,2023-10-27 11:03:06.86,-22,-458,-1999,56,-89,27,-209,-45,-164,127
,805,2023-10-27 11:03:06.87,-11,-455,-1989,55,-102,26,-96,136,-232,-20
,806,2023-10-27 11:03:06.88,-26,-464,-1990,57,-107,25,-213,-36,-177,124
,807,2023-10-27 11:03:06.89,-31,-467,-1992,52,-88,21,-90,142,-232,-26
,808,2023-10-27 11:03:06.90,-23,-477,-1985,50,-86,20,-221,-42,-179,131
,809,2023-10-27 11:03:06.91,0,-490,-1979,56,-84,23,-104,130,-234,-13
,810,2023-10-27 11:03:06.92,-39,-497,-1984,71,-80,24,-232,-42,-190,137
,811,2023-10-27 11:03:06.93,-43,-482,-1982,88,-90,29,-105,138,-243,-16
,812,2023-10-27 11:03:06.94,-39,-486,-2016,89,-86,35,-228,-37,-191,132
,813,2023-10-27 11:03:06.95,-47,-498,-2049,74,-76,37,-106,134,-240,-14
,814,2023-10-27 11:03:06.96,-38,-492,-2033,46,-51,41,-232,-44,-188,138
,815,2023-10-27 11:03:06.97,-43,-481,-1983,40,-45,44,-109,136,-245,-13
,816,2023-10-27 11:03:06.98,-44,-485,-2002,42,-43,44,-238,-44,-194,141
,817,2023-10-27 11:03:06.99,-42,-489,-1999,44,-50,46,-95,139,-234,-22
,818,2023-10-27 11:03:07.00,-45,-501,-2002,43,-36,43,-217,-42,-175,129
,819,2023-10-27 11:03:07.01,-42,-504,-2015,38,-23,45,-72,146,-218,-37
,820,2023-10-27 11:03:07.02,-56,-496,-1994,32,-29,51,-213,-45,-168,129
,821,2023-10-27 11:03:07.03,-37,-496,-1975,34,-31,50,-72,136,-208,-32
,822,2023-10-27 11:03:07.04,-51,-485,-1961,35,-28,52,-209,-42,-167,125
,823,2023-10-27 11:03:07.05,-43,-485,-1978,36,-29,48,-71,135,-206,-32
,824,2023-10-27 11:03:07.06,-49,-488,-1978,27,-15,47,-224,-56,-168,140
,825,2023-10-27 11:03:07.07,-35,-489,-1988,17,-4,45,-84,110,-194,-13
,826,2023-10-27 11:03:07.08,-56,-493,-2000,-3,19,39,-229,-60,-169,144
,827,2023-10-27 11:03:07.09,-53,-495,-2008,-12,11,39,-84,118,-202,-17
,828,2023-10-27 11:03:07.10,-45,-492,-1996,-14,9,37,-223,-60,-163,141
,829,2023-10-27 11:03:07.11,-30,-485,-1979,-16,17,33,-82,108,-190,-13
,830,2023-10-27 11:03:07.12,-36,-483,-1979,-23,36,24,-231,-71,-160,151
,831,2023-10-27 11:03:07.13,-42,-493,-1992,-34,50,15,-79,106,-185,-13
,832,2023-10-27 11:03:07.14,-39,-490,-2000,-37,61,9,-218,-66,-152,142
,833,2023-10-27 11:03:07.15,-42,-482,-2004,-33,63,1,-59,114,-173,-27
,834,2023-10-27 11:03:07.16,-24,-477,-1999,-31,66,-8,-208,-67,-141,137
,835,2023-10-27 11:03:07.17,-31,-474,-1990,-36,74,-15,-58,111,-169,-26
,836,2023-10-27 11:03:07.18,-32,-485,-1987,-45,87,-25,-216,-74,-142,145
,837,2023-10-27 11:03:07.19,-25,-478,-2000,-50,95,-29,-61,103,-164,-21
,838,2023-10-27 11:03:07.20,-32,-483,-2001,-51,93,-35,-222,-78,-144,150
,839,2023-10-27 11:03:07.21,-38,-501,-2000,-51,90,-34,-61,104,-165,-21
,840,2023-10-27 11:03:07.22,-32,-499,-2011,-43,83,-30,-216,-69,-147,142
,841,2023-10-27 11:03:07.23,-8,-483,-1986,-37,82,-26,-56,110,-166,-27
,842,2023-10-27 11:03:07.24,-5,-476,-1964,-26,84,-32,-232,-62,-170,147
,843,2023-10-27 11:03:07.25,-15,-465,-1973,-16,84,-31,-74,115,-189,-20
,844,2023-10-27 11:03:07.26,24,-469,-1974,-20,89,-35,-225,-41,-184,133
,845,2023-10-27 11:03:07.27,13,-464,-1961,-18,110,-37,-52,142,-194,-45
,846,2023-10-27 11:03:07.28,20,-483,-1971,-8,122,-42,-207,-16,-191,111
,847,2023-10-27 11:03:07.29,2,-485,-1978,-1,129,-42,-37,157,-194,-60
,848,2023-10-27 11:03:07.30,16,-496,-1994,1,130,-36,-205,-14,-191,109
,849,2023-10-27 11:03:07.31,21,-499,-2006,2,138,-29,-54,150,-204,-48
,850,2023-10-27 11:03:07.32,17,-492,-2008,14,133,-19,-215,-10,-205,112
,851,2023-10-27 11:03:07.33,32,-491,-2012,20,135,-13,-54,159,-213,-52
,852,2023-10-27 11:03:07.34,37,-476,-2005,19,130,-6,-214,-5,-209,109
,853,2023-10-27 11:03:07.35,64,-463,-1999,13,143,-7,-52,161,-213,-54
,854,2023-10-27 11:03:07.36,33,-474,-2011,12,141,-3,-206,-1,-205,103
,855,2023-10-27 11:03:07.37,59,-468,-2021,6,137,1,-37,169,-206,-66
,856,2023-10-27 11:03:07.38,43,-468,-2033,-5,144,0,-195,18,-213,88
,857,2023-10-27 11:03:07.39,47,-471,-2034,-15,146,4,-23,182,-205,-79
,858,2023-10-27 11:03:07.40,50,-457,-2033,-24,136,9,-187,25,-212,81
,859,2023-10-27 11:03:07.41,47,-461,-2033,-32,127,12,-26,179,-205,-76
,860,2023-10-27 11:03:07.42,34,-460,-2036,-47,126,13,-193,25,-218,84
,861,2023-10-27 11:03:07.43,44,-459,-2039,-50,98,19,-40,172,-212,-66
,862,2023-10-27 11:03:07.44,63,-441,-2028,-57,90,24,-208,19,-227,94
,863,2023-10-27 11:03:07.45,45,-446,-2031,-63,80,22,-44,166,-210,-61
,864,2023-10-27 11:03:07.46,69,-437,-2021,-72,82,19,-216,17,-233,99
,865,2023-10-27 11:03:07.47,50,-439,-2017,-85,88,12,-71,151,-222,-40
,866,2023-10-27 11:03:07.48,50,-431,-1992,-90,78,9,-242,1,-243,120
,867,2023-10-27 11:03:07.49,53,-442,-2006,-73,42,11,-79,152,-231,-36
,868,2023-10-27 11:03:07.50,86,-431,-2011,-67,42,5,-230,15,-245,107
,869,2023-10-27 11:03:07.51,66,-425,-2014,-71,70,-4,-74,154,-228,-40
,870,2023-10-27 11:03:07.52,56,-431,-2003,-75,66,-11,-243,16,-259,113
,871,2023-10-27 11:03:07.53,61,-438,-2009,-73,64,-18,-80,155,-235,-37
,872,2023-10-27 11:03:07.54,60,-435,-2025,-58,48,-20,-232,30,-262,101
,873,2023-10-27 11:03:07.55,63,-434,-2004,-51,54,-24,-80,154,-234,-37
,874,2023-10-27 11:03:07.56,60,-439,-2013,-46,46,-28,-242,19,-261,111
,875,2023-10-27 11:03:07.57,92,-434,-2005,-46,58,-31,-93,139,-232,-23
,876,2023-10-27 11:03:07.58,77,-415,-1983,-41,72,-37,-240,20,-260,110
,877,2023-10-27 11:03:07.59,107,-411,-1982,-29,66,-46,-69,145,-214,-38
,878,2023-10-27 11:03:07.60,93,-417,-1991,-24,84,-56,-216,29,-245,93
,879,2023-10-27 11:03:07.61,93,-429,-2016,-19,90,-60,-73,141,-214,-34
,880,2023-10-27 11:03:07.62,82,-441,-2033,-21,104,-65,-228,26,-254,101
,881,2023-10-27 11:03:07.63,81,-430,-2035,-17,109,-66,-80,132,-212,-26
,882,2023-10-27 11:03:07.64,94,-432,-2029,-11,96,-64,-228,18,-246,105
,883,2023-10-27 11:03:07.65,82,-437,-2017,-11,92,-60,-79,121,-200,-21
,884,2023-10-27 11:03:07.66,101,-426,-2013,-18,92,-56,-229,17,-246,106
,885,2023-10-27 11:03:07.67,96,-421,-2014,-19,79,-50,-88,120,-208,-16
,886,2023-10-27 11:03:07.68,97,-422,-2009,-23,84,-51,-228,24,-252,102
,887,2023-10-27 11:03:07.69,109,-417,-2009,-22,73,-47,-92,112,-204,-10
,888,2023-10-27 11:03:07.70,86,-429,-2014,-25,77,-46,-242,10,-252,116
,889,2023-10-27 11:03:07.71,105,-422,-2015,-30,74,-46,-108,104,-212,2
,890,2023-10-27 11:03:07.72,126,-419,-2012,-33,78,-43,-247,11,-258,118
,891,2023-10-27 11:03:07.73,108,-416,-2003,-34,74,-44,-97,100,-197,-1
,892,2023-10-27 11:03:07.74,127,-414,-2016,-36,77,-44,-227,17,-244,105
,893,2023-10-27 11:03:07.75,103,-419,-2026,-38,80,-47,-85,106,-191,-10
,894,2023-10-27 11:03:07.76,122,-426,-2032,-44,79,-44,-233,16,-249,108
,895,2023-10-27 11:03:07.77,122,-418,-2042,-48,76,-39,-103,90,-193,6
,896,2023-10-27 11:03:07.78,112,-420,-2036,-54,83,-34,-229,17,-246,106
,897,2023-10-27 11:03:07.79,106,-425,-2045,-56,74,-31,-92,95,-187,-1
,898,2023-10-27 11:03:07.80,101,-429,-2039,-60,65,-21,-227,23,-250,102
,899,2023-10-27 11:03:07.81,119,-426,-2045,-57,47,-11,-100,94,-194,3
,900,2023-10-27 11:03:07.82,107,-429,-2034,-55,48,-3,-228,20,-248,104
,901,2023-10-27 11:03:07.83,115,-422,-2019,-49,29,8,-109,80,-189,14
,902,2023-10-27 11:03:07.84,118,-425,-2026,-43,19,13,-229,21,-250,104
,903,2023-10-27 11:03:07.85,99,-431,-2036,-35,7,23,-106,77,-183,14
,904,2023-10-27 11:03:07.86,118,-416,-2028,-22,-14,29,-218,30,-248,94
,905,2023-10-27 11:03:07.87,109,-414,-2014,-12,-21,38,-116,62,-178,27
,906,2023-10-27 11:03:07.88,132,-394,-1998,-9,-20,40,-238,7,-245,115
,907,2023-10-27 11:03:07.89,134,-383,-1987,-13,-9,35,-129,32,-161,48
,908,2023-10-27 11:03:07.90,155,-378,-1993,-20,14,30,-242,-5,-237,123
,909,2023-10-27 11:03:07.91,148,-392,-1999,-23,30,22,-136,35,-171,50
,910,2023-10-27 11:03:07.92,149,-399,-2007,-25,48,22,-254,-7,-247,130
,911,2023-10-27 11:03:07.93,147,-392,-2010,-25,59,19,-137,32,-169,52
,912,2023-10-27 11:03:07.94,140,-385,-2014,-27,75,16,-233,6,-239,113
,913,2023-10-27 11:03:07.95,138,-387,-2021,-33,88,13,-128,37,-165,45
,914,2023-10-27 11:03:07.96,128,-384,-2032,-45,102,10,-232,14,-246,109
,915,2023-10-27 11:03:07.97,141,-379,-2034,-60,115,10,-135,30,-165,52
,916,2023-10-27 11:03:07.98,133,-379,-2033,-67,109,7,-249,-2,-247,125
,917,2023-10-27 11:03:07.99,67,-374,-1947,-61,69,9,-144,15,-159,64
,918,2023-10-27 11:03:08.00,178,-381,-2029,-19,-7,21,-241,2,-243,119
,919,2023-10-27 11:03:08.01,179,-379,-2022,-23,40,15,-137,24,-161,56
,920,2023-10-27 11:03:08.02,147,-375,-2010,-36,59,7,-179,56,-235,61
,921,2023-10-27 11:03:08.03,178,-365,-2006,-48,71,5,-56,74,-130,-9
,922,2023-10-27 11:03:08.04,154,-377,-2031,-55,80,1,-153,61,-214,46
,923,2023-10-27 11:03:08.05,170,-384,-2039,-50,75,-2,-87,42,-129,22
,924,2023-10-27 11:03:08.06,171,-380,-2029,-41,60,0,-194,29,-223,82
,925,2023-10-27 11:03:08.07,183,-375,-2035,-38,66,-1,-112,23,-135,44
,926,2023-10-27 11:03:08.08,168,-371,-2039,-40,79,-3,-196,30,-226,83
,927,2023-10-27 11:03:08.09,172,-377,-2038,-38,64,-3,-121,20,-141,50
,928,2023-10-27 11:03:08.10,177,-382,-2046,-35,66,-2,-204,32,-236,86
,929,2023-10-27 11:03:08.11,142,-397,-2058,-31,63,4,-130,11,-141,59
,930,2023-10-27 11:03:08.12,125,-411,-2051,-14,6,17,-224,14,-238,105
,931,2023-10-27 11:03:08.13,122,-423,-2048,9,-36,37,-178,-19,-159,98
,932,2023-10-27 11:03:08.14,124,-416,-2051,26,-60,53,-242,5,-247,118
,933,2023-10-27 11:03:08.15,124,-409,-2036,36,-82,66,-150,3,-153,73
,934,2023-10-27 11:03:08.16,128,-387,-2035,43,-92,74,-178,57,-235,60
,935,2023-10-27 11:03:08.17,171,-386,-2071,43,-77,73,-105,34,-139,35
,936,2023-10-27 11:03:08.18,98,-380,-2030,34,-65,63,-142,84,-226,29
,937,2023-10-27 11:03:08.19,141,-372,-2020,38,-71,63,-89,36,-125,26
,938,2023-10-27 11:03:08.20,101,-381,-1999,35,-73,58,-147,74,-221,36
,939,2023-10-27 11:03:08.21,129,-382,-2006,35,-75,57,-106,23,-129,41
,940,2023-10-27 11:03:08.22,134,-384,-2015,37,-67,53,-154,66,-220,44
,941,2023-10-27 11:03:08.23,113,-373,-1993,37,-54,42,-125,10,-135,57
,942,2023-10-27 11:03:08.24,120,-363,-2000,36,-43,36,-173,63,-236,55
,943,2023-10-27 11:03:08.25,113,-365,-2000,26,-24,27,-143,-4,-139,73
,944,2023-10-27 11:03:08.26,134,-373,-2010,18,-17,17,-200,45,-245,77
,945,2023-10-27 11:03:08.27,109,-386,-2017,7,-4,14,-159,-12,-147,85
,946,2023-10-27 11:03:08.28,115,-381,-2010,7,-9,13,-194,43,-237,75
,947,2023-10-27 11:03:08.29,119,-385,-2003,1,5,8,-166,-21,-145,93
,948,2023-10-27 11:03:08.30,103,-383,-2014,-4,10,7,-203,40,-243,81
,949,2023-10-27 11:03:08.31,129,-392,-2010,-13,21,3,-172,-27,-145,99
,950,2023-10-27 11:03:08.32,138,-378,-2008,-15,36,-1,-207,44,-251,81
,951,2023-10-27 11:03:08.33,129,-380,-2015,-18,48,-8,-191,-34,-157,112
,952,2023-10-27 11:03:08.34,133,-374,-2013,-26,56,-15,-205,51,-256,77
,953,2023-10-27 11:03:08.35,124,-375,-2020,-31,60,-20,-183,-28,-155,105
,954,2023-10-27 11:03:08.36,125,-387,-2028,-31,59,-24,-188,58,-246,65
,955,2023-10-27 11:03:08.37,142,-386,-2030,-28,49,-21,-176,-30,-146,103
,956,2023-10-27 11:03:08.38,141,-380,-2026,-24,45,-25,-179,61,-240,59
,957,2023-10-27 11:03:08.39,131,-379,-2038,-23,33,-26,-187,-35,-152,111
,958,2023-10-27 11:03:08.40,130,-376,-2031,-24,23,-23,-195,50,-245,72
,959,2023-10-27 11:03:08.41,143,-384,-2040,-24,14,-22,-190,-45,-145,117
,960,2023-10-27 11:03:08.42,145,-378,-2029,-22,4,-23,-188,48,-236,70
,961,2023-10-27 11:03:08.43,146,-374,-2023,-19,1,-23,-193,-48,-145,120
,962,2023-10-27 11:03:08.44,134,-385,-2028,-18,-1,-22,-176,70,-246,53
,963,2023-10-27 11:03:08.45,134,-382,-2027,-18,-3,-22,-183,-40,-143,111
,964,2023-10-27 11:03:08.46,141,-375,-2026,-14,-4,-21,-170,73,-243,48
,965,2023-10-27 11:03:08.47,143,-374,-2024,-8,-4,-18,-184,-36,-148,110
,966,2023-10-27 11:03:08.48,145,-382,-2018,-8,-5,-17,-159,83,-242,38
,967,2023-10-27 11:03:08.49,134,-393,-2037,-10,-7,-13,-181,-30,-151,105
,968,2023-10-27 11:03:08.50,124,-386,-2040,-8,-9,-9,-148,96,-244,26
,969,2023-10-27 11:03:08.51,133,-393,-2030,-3,-18,-4,-175,-30,-145,102
,970,2023-10-27 11:03:08.52,130,-387,-2015,4,-18,0,-136,103,-239,16
,971,2023-10-27 11:03:08.53,141,-382,-2018,6,-17,4,-166,-25,-141,95
,972,2023-10-27 11:03:08.54,127,-382,-2018,1,-15,4,-129,105,-234,12
,973,2023-10-27 11:03:08.55,135,-374,-2018,0,-11,5,-168,-28,-140,98
,974,2023-10-27 11:03:08.56,141,-368,-2022,0,-8,5,-122,113,-235,4
,975,2023-10-27 11:03:08.57,143,-368,-2018,2,-6,8,-168,-27,-141,97
,976,2023-10-27 11:03:08.58,141,-365,-2020,-3,6,2,-112,119,-231,-3
,977,2023-10-27 11:03:08.59,147,-366,-2024,-5,15,0,-167,-26,-141,96
,978,2023-10-27 11:03:08.60,140,-365,-2028,-8,20,-2,-110,123,-233,-6
,979,2023-10-27 11:03:08.61,139,-365,-2027,-7,24,-5,-165,-26,-139,95
,980,2023-10-27 11:03:08.62,143,-370,-2030,-12,25,-4,-106,116,-222,-5
,981,2023-10-27 11:03:08.63,139,-371,-2025,-15,26,-8,-172,-35,-137,103
,982,2023-10-27 11:03:08.64,138,-369,-2035,-18,26,-7,-112,116,-228,-2
,983,2023-10-27 11:03:08.65,130,-365,-2032,-21,21,-7,-186,-46,-140,116
,984,2023-10-27 11:03:08.66,132,-373,-2045,-22,15,-6,-124,100,-224,12
,985,2023-10-27 11:03:08.67,129,-362,-2034,-27,8,-3,-194,-56,-138,125
,986,2023-10-27 11:03:08.68,140,-360,-2033,-28,10,-3,-113,106,-219,3
,987,2023-10-27 11:03:08.69,143,-360,-2026,-29,6,-2,-205,-65,-140,135
,988,2023-10-27 11:03:08.70,142,-361,-2035,-27,2,-3,-134,94,-228,20
,989,2023-10-27 11:03:08.71,123,-364,-2032,-24,-4,-1,-228,-81,-147,154
,990,2023-10-27 11:03:08.72,129,-361,-2027,-19,-13,-3,-134,98,-232,18
,991,2023-10-27 11:03:08.73,126,-371,-2025,-13,-17,-2,-220,-68,-152,144
,992,2023-10-27 11:03:08.74,130,-363,-2010,-9,-22,-3,-139,91,-230,24
,993,2023-10-27 11:03:08.75,124,-363,-2015,-4,-23,-2,-228,-74,-154,151
,994,2023-10-27 11:03:08.76,123,-359,-2015,0,-25,-3,-150,85,-235,32
,995,2023-10-27 11:03:08.77,125,-359,-2021,4,-22,-1,-262,-87,-175,174
,996,2023-10-27 11:03:08.78,123,-364,-2026,8,-24,-3,-176,78,-254,49
,997,2023-10-27 11:03:08.79,125,-376,-2030,11,-24,-1,-281,-96,-185,188
,998,2023-10-27 11:03:08.80,114,-384,-2027,20,-31,4,-196,69,-265,63
,999,2023-10-27 11:03:08.81,119,-376,-2028,28,-37,8,-297,-100,-197,198
,1000,2023-10-27 11:03:08.82,131,-381,-2027,37,-43,11,-196,69,-265,63
,1001,2023-10-27 11:03:08.83,165,-364,-2040,28,-10,8,-304,-98,-206,201
,1002,2023-10-27 11:03:08.84,116,-374,-2011,18,11,5,-193,83,-276,55
,1003,2023-10-27 11:03:08.85,139,-384,-2034,25,-7,11,-296,-86,-210,191
,1004,2023-10-27 11:03:08.86,107,-386,-2026,31,-3,9,-168,92,-260,38
,1005,2023-10-27 11:03:08.87,121,-391,-2012,49,-30,16,-264,-84,-180,174
,1006,2023-10-27 11:03:08.88,118,-388,-2014,52,-21,23,-142,93,-235,24
,1007,2023-10-27 11:03:08.89,131,-385,-2003,53,-14,27,-270,-84,-186,177
,1008,2023-10-27 11:03:08.90,125,-386,-2007,47,1,28,-147,100,-247,23
,1009,2023-10-27 11:03:08.91,130,-374,-2011,48,8,26,-267,-83,-184,175
,1010,2023-10-27 11:03:08.92,134,-371,-2017,47,9,25,-145,100,-245,22
,1011,2023-10-27 11:03:08.93,125,-377,-2036,46,9,26,-257,-76,-181,166
,1012,2023-10-27 11:03:08.94,134,-380,-2034,41,12,24,-128,103,-231,12
,1013,2023-10-27 11:03:08.95,116,-383,-2037,32,18,22,-254,-79,-175,166
,1014,2023-10-27 11:03:08.96,114,-378,-2030,30,3,28,-119,105,-224,7
,1015,2023-10-27 11:03:08.97,127,-382,-2030,25,7,30,-249,-76,-173,162
,1016,2023-10-27 11:03:08.98,121,-375,-2026,26,-1,31,-110,116,-226,-3
,1017,2023-10-27 11:03:08.99,135,-363,-2018,21,1,30,-245,-70,-175,157
,1018,2023-10-27 11:03:09.00,115,-361,-2017,17,0,26,-105,118,-223,-6
,1019,2023-10-27 11:03:09.01,141,-365,-2008,15,4,21,-242,-64,-178,153
,1020,2023-10-27 11:03:09.02,125,-366,-2012,10,8,17,-90,125,-215,-17
,1021,2023-10-27 11:03:09.03,132,-373,-2020,11,7,14,-233,-70,-163,151
,1022,2023-10-27 11:03:09.04,124,-381,-2030,10,6,12,-90,109,-199,-9
,1023,2023-10-27 11:03:09.05,122,-382,-2030,11,8,13,-243,-88,-155,165
,1024,2023-10-27 11:03:09.06,123,-389,-2040,15,-1,17,-104,94,-198,5
,1025,2023-10-27 11:03:09.07,103,-384,-2040,17,-2,19,-253,-90,-163,171
,1026,2023-10-27 11:03:09.08,130,-377,-2036,17,-3,21,-101,88,-189,6
,1027,2023-10-27 11:03:09.09,102,-383,-2032,15,10,23,-252,-86,-166,169
,1028,2023-10-27 11:03:09.10,109,-385,-2020,14,7,25,-106,89,-195,8
,1029,2023-10-27 11:03:09.11,116,-375,-2013,18,-2,28,-254,-96,-158,175
,1030,2023-10-27 11:03:09.12,127,-379,-2001,24,6,29,-108,74,-182,17
,1031,2023-10-27 11:03:09.13,123,-381,-2003,24,19,25,-249,-88,-161,168
,1032,2023-10-27 11:03:09.14,130,-386,-2005,30,39,26,-103,92,-195,5
,1033,2023-10-27 11:03:09.15,127,-382,-2014,29,55,21,-254,-84,-170,169
,1034,2023-10-27 11:03:09.16,139,-394,-2017,28,69,20,-86,93,-179,-3
,1035,2023-10-27 11:03:09.17,111,-398,-2035,29,73,21,-242,-86,-156,164
,1036,2023-10-27 11:03:09.18,123,-395,-2031,32,70,26,-67,103,-170,-18
,1037,2023-10-27 11:03:09.19,125,-397,-2032,35,62,34,-183,-45,-138,114
,1038,2023-10-27 11:03:09.20,125,-391,-2031,40,56,39,8,150,-142,-79
,1039,2023-10-27 11:03:09.21,141,-390,-2022,40,49,42,-176,-50,-126,113
,1040,2023-10-27 11:03:09.22,144,-389,-2023,38,47,44,-39,104,-143,-32
,1041,2023-10-27 11:03:09.23,137,-381,-2022,42,42,46,-232,-93,-139,162
,1042,2023-10-27 11:03:09.24,146,-382,-2023,40,37,48,-73,80,-153,-3
,1043,2023-10-27 11:03:09.25,130,-377,-2011,36,28,51,-238,-98,-140,168
,1044,2023-10-27 11:03:09.26,137,-378,-2012,31,26,54,-88,65,-153,11
,1045,2023-10-27 11:03:09.27,133,-384,-2017,25,27,52,-266,-106,-160,186
,1046,2023-10-27 11:03:09.28,132,-382,-2018,15,29,54,-97,63,-160,17
,1047,2023-10-27 11:03:09.29,144,-375,-2016,11,37,51,-260,-103,-157,181
,1048,2023-10-27 11:03:09.30,159,-382,-2000,9,43,48,-104,59,-163,22
,1049,2023-10-27 11:03:09.31,157,-387,-2009,4,56,43,-319,-143,-176,231
,1050,2023-10-27 11:03:09.32,174,-384,-2001,3,58,37,-191,-10,-181,100
,1051,2023-10-27 11:03:09.33,180,-382,-1994,1,72,28,-376,-181,-195,278
,1052,2023-10-27 11:03:09.34,173,-395,-2005,0,86,20,-220,-24,-196,122
,1053,2023-10-27 11:03:09.35,173,-384,-1992,-2,95,14,-363,-163,-200,263
,1054,2023-10-27 11:03:09.36,140,-383,-1994,10,72,16,-186,11,-197,87
,1055,2023-10-27 11:03:09.37,178,-392,-2033,20,37,22,-334,-116,-218,225
,1056,2023-10-27 11:03:09.38,178,-391,-2042,16,58,22,-148,61,-209,43
,1057,2023-10-27 11:03:09.39,165,-384,-2034,14,66,19,-279,-67,-212,173
,1058,2023-10-27 11:03:09.40,168,-396,-2038,12,60,20,-98,93,-191,2
,1059,2023-10-27 11:03:09.41,171,-385,-2017,10,60,20,-234,-29,-205,131
,1060,2023-10-27 11:03:09.42,177,-393,-2017,11,58,17,-56,127,-183,-35
,1061,2023-10-27 11:03:09.43,187,-396,-2023,22,49,11,-207,-9,-198,108
,1062,2023-10-27 11:03:09.44,188,-395,-2034,28,53,7,-48,130,-178,-41
,1063,2023-10-27 11:03:09.45,174,-396,-2036,28,58,0,-214,-14,-200,114
,1064,2023-10-27 11:03:09.46,165,-406,-2050,33,41,1,-60,123,-183,-31
,1065,2023-10-27 11:03:09.47,153,-425,-2054,37,24,6,-220,-13,-207,116
,1066,2023-10-27 11:03:09.48,138,-418,-2063,48,-10,11,-64,111,-175,-23
,1067,2023-10-27 11:03:09.49,139,-417,-2050,63,-49,19,-229,-20,-209,124
,1068,2023-10-27 11:03:09.50,142,-417,-2034,71,-70,26,-69,116,-185,-23
,1069,2023-10-27 11:03:09.51,154,-412,-2014,76,-80,31,-240,-35,-205,137
,1070,2023-10-27 11:03:09.52,162,-406,-2001,78,-78,29,-94,83,-177,5
,1071,2023-10-27 11:03:09.53,147,-415,-2009,72,-65,27,-266,-54,-212,160
,1072,2023-10-27 11:03:09.54,163,-421,-2045,59,-50,23,-111,73,-184,19
,1073,2023-10-27 11:03:09.55,129,-417,-2013,39,-13,17,-272,-46,-226,159
,1074,2023-10-27 11:03:09.56,141,-405,-2006,41,-33,23,-122,71,-193,25
,1075,2023-10-27 11:03:09.57,133,-414,-1996,32,-19,23,-272,-55,-217,163
,1076,2023-10-27 11:03:09.58,136,-412,-1980,26,-12,24,-125,53,-178,36
,1077,2023-10-27 11:03:09.59,141,-423,-1996,22,-3,24,-280,-60,-220,170
,1078,2023-10-27 11:03:09.60,126,-425,-1999,23,-4,26,-133,50,-183,41
,1079,2023-10-27 11:03:09.61,157,-427,-2000,24,8,27,-288,-58,-230,173
,1080,2023-10-27 11:03:09.62,153,-431,-2010,19,28,29,-144,44,-188,50
,1081,2023-10-27 11:03:09.63,136,-427,-2020,9,42,33,-296,-68,-228,182
,1082,2023-10-27 11:03:09.64,140,-421,-2028,-4,48,36,-152,30,-182,61
,1083,2023-10-27 11:03:09.65,144,-411,-2027,-10,51,42,-295,-65,-230,180
,1084,2023-10-27 11:03:09.66,142,-405,-2035,-16,48,42,-155,33,-188,61
,1085,2023-10-27 11:03:09.67,130,-413,-2041,-23,47,46,-286,-53,-233,169
,1086,2023-10-27 11:03:09.68,130,-404,-2041,-34,40,50,-142,33,-175,54
,1087,2023-10-27 11:03:09.69,134,-405,-2048,-40,26,54,-288,-57,-231,172
,1088,2023-10-27 11:03:09.70,132,-424,-2046,-42,10,61,-151,27,-178,62
,1089,2023-10-27 11:03:09.71,123,-409,-2035,-41,-9,72,-285,-57,-228,171
,1090,2023-10-27 11:03:09.72,135,-411,-2024,-39,-20,76,-156,24,-180,66
,1091,2023-10-27 11:03:09.73,128,-402,-2010,-30,-27,75,-284,-44,-240,164
,1092,2023-10-27 11:03:09.74,163,-392,-1987,-23,-26,72,-152,28,-180,62
,1093,2023-10-27 11:03:09.75,164,-388,-1968,-14,-12,61,-279,-40,-239,159
,1094,2023-10-27 11:03:09.76,171,-385,-1969,-3,9,47,-156,28,-184,64
,1095,2023-10-27 11:03:09.77,183,-375,-1959,0,33,32,-272,-34,-238,153
,1096,2023-10-27 11:03:09.78,167,-385,-1981,3,58,16,-145,30,-175,57
,1097,2023-10-27 11:03:09.79,177,-379,-2004,5,70,4,-259,-21,-238,140
,1098,2023-10-27 11:03:09.80,172,-376,-2014,9,71,-6,-130,34,-164,48
,1099,2023-10-27 11:03:09.81,174,-386,-2016,12,70,-13,-238,-11,-227,124
,1100,2023-10-27 11:03:09.82,165,-386,-2017,10,66,-17,-124,39,-163,42
,1101,2023-10-27 11:03:09.83,182,-377,-2012,7,62,-24,-242,-12,-230,127
,1102,2023-10-27 11:03:09.84,179,-370,-2014,0,67,-28,-130,35,-165,47
,1103,2023-10-27 11:03:09.85,194,-378,-2032,-8,65,-36,-234,-5,-229,119
,1104,2023-10-27 11:03:09.86,180,-382,-2029,-16,63,-39,-136,25,-161,55
,1105,2023-10-27 11:03:09.87,200,-382,-2034,-22,60,-40,-247,-19,-228,133
,1106,2023-10-27 11:03:09.88,183,-391,-2034,-24,53,-39,-146,10,-156,68
,1107,2023-10-27 11:03:09.89,188,-377,-2038,-28,38,-38,-251,-24,-227,137
,1108,2023-10-27 11:03:09.90,181,-370,-2040,-42,45,-35,-151,10,-161,70
,1109,2023-10-27 11:03:09.91,175,-381,-2040,-53,35,-31,-242,-8,-234,125
,1110,2023-10-27 11:03:09.92,199,-381,-2040,-58,27,-27,-158,6,-164,76
,1111,2023-10-27 11:03:09.93,193,-373,-2022,-60,18,-23,-246,-6,-240,126
,1112,2023-10-27 11:03:09.94,201,-376,-2007,-63,26,-22,-155,-1,-154,78
,1113,2023-10-27 11:03:09.95,162,-374,-2020,-67,29,-18,-234,1,-235,116
,1114,2023-10-27 11:03:09.96,196,-372,-2003,-72,29,-14,-137,21,-158,58
,1115,2023-10-27 11:03:09.97,200,-366,-2006,-69,27,-10,-213,19,-232,97
,1116,2023-10-27 11:03:09.98,203,-361,-2002,-65,26,-10,-134,21,-155,56
,1117,2023-10-27 11:03:09.99,198,-365,-2007,-68,38,-12,-219,17,-236,101
,1118,2023-10-27 11:03:10.00,199,-357,-2040,-69,32,-14,-162,-5,-157,83
,1119,2023-10-27 11:03:10.01,205,-357,-2051,-72,34,-17,-241,1,-242,120
,1120,2023-10-27 11:03:10.02,194,-357,-2062,-65,21,-17,-174,-5,-169,89
,1121,2023-10-27 11:03:10.03,186,-367,-2057,-67,24,-18,-253,1,-254,126
,1122,2023-10-27 11:03:10.04,164,-363,-2070,-66,14,-19,-180,-13,-167,96
,1123,2023-10-27 11:03:10.05,165,-386,-2064,-65,7,-13,-238,6,-244,116
,1124,2023-10-27 11:03:10.06,168,-387,-2059,-49,-27,-5,-168,-15,-153,91
,1125,2023-10-27 11:03:10.07,162,-387,-2034,-27,-60,2,-250,-3,-247,126
,1126,2023-10-27 11:03:10.08,167,-382,-2024,-12,-71,9,-198,-33,-165,115
,1127,2023-10-27 11:03:10.09,169,-370,-2021,-9,-63,12,-257,-5,-252,131
,1128,2023-10-27 11:03:10.10,184,-360,-2011,-8,-43,11,-178,-31,-147,104
,1129,2023-10-27 11:03:10.11,175,-353,-2006,-12,-18,5,-244,-7,-237,125
,1130,2023-10-27 11:03:10.12,163,-351,-2005,-10,-5,-1,-198,-44,-154,121
,1131,2023-10-27 11:03:10.13,157,-362,-2012,-7,2,-6,-248,0,-248,124
,1132,2023-10-27 11:03:10.14,151,-356,-2017,-6,3,-9,-184,-41,-143,112
,1133,2023-10-27 11:03:10.15,156,-364,-2033,-5,5,-11,-239,-6,-233,122
,1134,2023-10-27 11:03:10.16,118,-362,-2004,-9,3,-14,-182,-53,-129,117
,1135,2023-10-27 11:03:10.17,145,-369,-2053,15,-71,-8,-229,-17,-212,123
,1136,2023-10-27 11:03:10.18,181,-352,-2041,31,-87,-10,-211,-71,-140,141
,1137,2023-10-27 11:03:10.19,182,-340,-2004,39,-70,-21,-256,-21,-235,138
,1138,2023-10-27 11:03:10.20,182,-338,-2002,27,-42,-36,-209,-73,-136,141
,1139,2023-10-27 11:03:10.21,173,-340,-2014,13,-12,-56,-247,-20,-227,133
,1140,2023-10-27 11:03:10.22,169,-351,-2039,13,-4,-71,-226,-85,-141,155
,1141,2023-10-27 11:03:10.23,178,-348,-2035,21,0,-81,-266,-34,-232,150
,1142,2023-10-27 11:03:10.24,157,-358,-2019,30,-7,-86,-252,-94,-158,173
,1143,2023-10-27 11:03:10.25,192,-360,-2001,37,-19,-96,-281,-36,-245,158
,1144,2023-10-27 11:03:10.26,186,-356,-1975,41,-5,-109,-262,-99,-163,180
,1145,2023-10-27 11:03:10.27,193,-346,-1995,51,-2,-121,-280,-30,-250,155
,1146,2023-10-27 11:03:10.28,196,-364,-2003,54,13,-133,-263,-103,-160,183
,1147,2023-10-27 11:03:10.29,208,-368,-2007,61,20,-138,-268,-21,-247,144
,1148,2023-10-27 11:03:10.30,194,-367,-2002,63,20,-144,-253,-91,-162,172
,1149,2023-10-27 11:03:10.31,196,-386,-1997,76,10,-147,-272,-17,-255,144
,1150,2023-10-27 11:03:10.32,191,-386,-2002,90,-10,-147,-260,-86,-174,173
,1151,2023-10-27 11:03:10.33,196,-395,-1994,96,-5,-143,-245,15,-260,115
,1152,2023-10-27 11:03:10.34,191,-407,-2015,92,5,-142,-231,-64,-167,147
,1153,2023-10-27 11:03:10.35,189,-416,-2034,98,-16,-135,-221,31,-252,95
,1154,2023-10-27 11:03:10.36,212,-401,-2025,108,-36,-130,-225,-55,-170,140
,1155,2023-10-27 11:03:10.37,226,-390,-2018,117,-21,-128,-210,52,-262,79
,1156,2023-10-27 11:03:10.38,206,-400,-2008,107,2,-128,-215,-46,-169,130
,1157,2023-10-27 11:03:10.39,191,-405,-2026,97,-5,-129,-165,88,-253,38
,1158,2023-10-27 11:03:10.40,205,-416,-2027,84,14,-122,-175,-10,-165,92
,1159,2023-10-27 11:03:10.41,184,-419,-2046,74,30,-114,-144,107,-251,18
,1160,2023-10-27 11:03:10.42,176,-427,-2031,72,14,-100,-175,-17,-158,96
,1161,2023-10-27 11:03:10.43,203,-421,-2036,62,9,-86,-138,110,-248,14
,1162,2023-10-27 11:03:10.44,166,-428,-2043,43,32,-68,-173,-18,-155,95
,1163,2023-10-27 11:03:10.45,184,-423,-2040,34,-4,-51,-138,99,-237,19
,1164,2023-10-27 11:03:10.46,184,-418,-2023,18,13,-33,-184,-29,-155,106
,1165,2023-10-27 11:03:10.47,176,-415,-2028,4,11,-18,-140,101,-241,19
,1166,2023-10-27 11:03:10.48,175,-411,-2025,-5,-14,-1,-184,-26,-158,105
,1167,2023-10-27 11:03:10.49,169,-398,-2020,-24,-4,13,-118,126,-244,-4
,1168,2023-10-27 11:03:10.50,164,-396,-2024,-45,-3,28,-165,-7,-158,86
,1169,2023-10-27 11:03:10.51,150,-395,-2038,-66,-13,40,-119,129,-248,-5
,1170,2023-10-27 11:03:10.52,157,-391,-2036,-79,-30,56,-184,-22,-162,103
,1171,2023-10-27 11:03:10.53,153,-379,-2032,-92,-46,69,-131,110,-241,10
,1172,2023-10-27 11:03:10.54,150,-380,-2029,-105,-56,84,-201,-36,-165,118
,1173,2023-10-27 11:03:10.55,152,-379,-2025,-112,-58,94,-136,108,-244,14
,1174,2023-10-27 11:03:10.56,156,-374,-2017,-118,-57,102,-210,-44,-166,127
,1175,2023-10-27 11:03:10.57,164,-360,-2020,-122,-53,107,-153,103,-256,25
,1176,2023-10-27 11:03:10.58,152,-355,-2019,-126,-51,111,-226,-46,-180,136
,1177,2023-10-27 11:03:10.59,156,-358,-2022,-128,-44,114,-156,103,-259,26
,1178,2023-10-27 11:03:10.60,149,-352,-2032,-126,-39,117,-228,-47,-181,137
,1179,2023-10-27 11:03:10.61,144,-346,-2024,-126,-31,111,-147,112,-259,17
,1180,2023-10-27 11:03:10.62,153,-356,-2008,-126,-24,114,-229,-51,-178,140
,1181,2023-10-27 11:03:10.63,152,-350,-2020,-125,-12,117,-150,104,-254,23
,1182,2023-10-27 11:03:10.64,156,-344,-2011,-117,-9,117,-232,-54,-178,143
,1183,2023-10-27 11:03:10.65,154,-345,-2012,-107,-1,116,-148,107,-255,20
,1184,2023-10-27 11:03:10.66,167,-330,-2003,-85,-16,113,-238,-55,-183,146
,1185,2023-10-27 11:03:10.67,176,-337,-2009,-72,0,108,-149,108,-257,20
,1186,2023-10-27 11:03:10.68,171,-336,-2017,-62,13,101,-245,-62,-183,153
,1187,2023-10-27 11:03:10.69,172,-344,-2033,-52,20,95,-144,106,-250,19
,1188,2023-10-27 11:03:10.70,181,-344,-2039,-39,25,93,-242,-66,-176,154
,1189,2023-10-27 11:03:10.71,156,-339,-2046,-28,20,91,-158,88,-246,35
,1190,2023-10-27 11:03:10.72,158,-331,-2059,-20,15,87,-263,-85,-178,174
,1191,2023-10-27 11:03:10.73,152,-325,-2057,-12,0,91,-162,93,-255,34
,1192,2023-10-27 11:03:10.74,152,-313,-2050,-9,-5,88,-284,-92,-192,188
,1193,2023-10-27 11:03:10.75,192,-310,-2041,-4,-6,83,-182,71,-253,55
,1194,2023-10-27 11:03:10.76,158,-306,-2019,-10,10,75,-283,-108,-175,195
,1195,2023-10-27 11:03:10.77,167,-314,-2016,-10,4,64,-171,64,-235,53
,1196,2023-10-27 11:03:10.78,174,-319,-2017,-5,3,57,-292,-109,-183,200
,1197,2023-10-27 11:03:10.79,181,-324,-2023,6,3,49,-194,52,-246,71
,1198,2023-10-27 11:03:10.80,157,-334,-2029,17,-2,45,-312,-125,-187,218
,1199,2023-10-27 11:03:10.81,155,-341,-2045,22,1,46,-203,44,-247,79
,1200,2023-10-27 11:03:10.82,156,-334,-2047,26,-5,47,-324,-129,-195,226
,1201,2023-10-27 11:03:10.83,152,-331,-2058,32,-19,48,-220,31,-251,94
,1202,2023-10-27 11:03:10.84,156,-340,-2049,30,-21,49,-341,-137,-204,239
,1203,2023-10-27 11:03:10.85,152,-335,-2038,26,-23,52,-213,40,-253,86
,1204,2023-10-27 11:03:10.86,169,-331,-2045,27,-33,52,-336,-137,-199,236
,1205,2023-10-27 11:03:10.87,154,-339,-2041,25,-35,54,-212,39,-251,86
,1206,2023-10-27 11:03:10.88,162,-336,-2032,21,-34,54,-342,-141,-201,241
,1207,2023-10-27 11:03:10.89,157,-340,-2032,17,-39,52,-224,25,-249,99
,1208,2023-10-27 11:03:10.90,152,-344,-2039,17,-45,62,-352,-142,-210,247
,1209,2023-10-27 11:03:10.91,140,-359,-2044,9,-33,63,-212,37,-249,87
,1210,2023-10-27 11:03:10.92,122,-360,-2044,3,-37,70,-335,-129,-206,232
,1211,2023-10-27 11:03:10.93,129,-366,-2045,-2,-40,78,-196,53,-249,71
,1212,2023-10-27 11:03:10.94,134,-360,-2049,-4,-37,87,-333,-128,-205,230
,1213,2023-10-27 11:03:10.95,133,-361,-2040,-4,-43,98,-192,54,-246,69
,1214,2023-10-27 11:03:10.96,138,-352,-2024,-4,-53,105,-324,-116,-208,220
,1215,2023-10-27 11:03:10.97,119,-352,-2012,-7,-41,111,-186,58,-244,64
,1216,2023-10-27 11:03:10.98,111,-360,-2022,-7,-48,114,-330,-121,-209,225
,1217,2023-10-27 11:03:10.99,125,-349,-2016,-9,-44,118,-182,59,-241,61
,1218,2023-10-27 11:03:11.00,117,-335,-2009,-9,-43,119,-332,-116,-216,224
,1219,2023-10-27 11:03:11.01,129,-354,-2012,-7,-40,121,-178,71,-249,53
,1220,2023-10-27 11:03:11.02,126,-349,-2027,-7,-46,125,-310,-97,-213,203
,1221,2023-10-27 11:03:11.03,131,-335,-2014,-9,-32,125,-141,93,-234,24
,1222,2023-10-27 11:03:11.04,127,-332,-2011,-3,-30,123,-280,-77,-203,178
,1223,2023-10-27 11:03:11.05,123,-332,-2019,-1,-27,122,-112,110,-222,1
,1224,2023-10-27 11:03:11.06,109,-330,-2021,-3,-29,121,-257,-66,-191,161
,1225,2023-10-27 11:03:11.07,117,-338,-2030,-10,-26,122,-97,118,-215,-10
,1226,2023-10-27 11:03:11.08,107,-328,-2033,-13,-31,123,-255,-69,-186,162
,1227,2023-10-27 11:03:11.09,122,-328,-2025,-15,-36,125,-97,112,-209,-7
,1228,2023-10-27 11:03:11.10,91,-334,-2021,-18,-31,124,-246,-60,-186,153
,1229,2023-10-27 11:03:11.11,117,-340,-2034,-22,-38,127,-73,120,-193,-23
,1230,2023-10-27 11:03:11.12,123,-324,-2025,-26,-34,127,-234,-58,-176,146
,1231,2023-10-27 11:03:11.13,114,-319,-2023,-25,-33,121,-74,112,-186,-19
,1232,2023-10-27 11:03:11.14,119,-328,-2025,-25,-30,121,-237,-65,-172,151
,1233,2023-10-27 11:03:11.15,120,-325,-2043,-20,-35,115,-87,106,-193,-9
,1234,2023-10-27 11:03:11.16,115,-320,-2036,-20,-16,108,-249,-63,-186,156
,1235,2023-10-27 11:03:11.17,114,-322,-2031,-12,-21,98,-83,107,-190,-12
,1236,2023-10-27 11:03:11.18,128,-320,-2033,-6,-24,89,-246,-61,-185,153
,1237,2023-10-27 11:03:11.19,120,-320,-2034,-4,-19,85,-81,102,-183,-10
,1238,2023-10-27 11:03:11.20,138,-319,-2035,-2,-7,64,-265,-82,-183,173
,1239,2023-10-27 11:03:11.21,109,-325,-2041,-6,-9,55,-98,90,-188,4
,1240,2023-10-27 11:03:11.22,131,-319,-2033,-1,-14,47,-257,-81,-176,169
,1241,2023-10-27 11:03:11.23,117,-327,-2044,0,-14,42,-94,84,-178,5
,1242,2023-10-27 11:03:11.24,127,-323,-2036,1,-15,35,-266,-81,-185,173
,1243,2023-10-27 11:03:11.25,114,-317,-2033,0,-15,26,-97,80,-177,8
,1244,2023-10-27 11:03:11.26,134,-313,-2027,-7,-7,20,-261,-78,-183,169
,1245,2023-10-27 11:03:11.27,102,-310,-2039,-13,-3,14,-92,83,-175,4
,1246,2023-10-27 11:03:11.28,103,-326,-2038,-19,-5,10,-258,-80,-178,169
,1247,2023-10-27 11:03:11.29,106,-328,-2047,-23,-8,11,-95,77,-172,9
,1248,2023-10-27 11:03:11.30,110,-319,-2019,-24,-10,8,-261,-76,-185,168
,1249,2023-10-27 11:03:11.31,129,-320,-2013,-19,-21,8,-93,76,-169,8
,1250,2023-10-27 11:03:11.32,128,-326,-2016,-18,-6,3,-248,-71,-177,159
,1251,2023-10-27 11:03:11.33,120,-334,-2023,-13,0,0,-74,84,-158,-5
,1252,2023-10-27 11:03:11.34,112,-335,-2046,-6,-12,1,-239,-68,-171,153
,1253,2023-10-27 11:03:11.35,115,-338,-2052,-8,-2,6,-70,77,-147,-3
,1254,2023-10-27 11:03:11.36,93,-333,-2070,-10,-5,16,-213,-56,-157,134
,1255,2023-10-27 11:03:11.37,94,-329,-2059,-23,-16,28,-35,95,-130,-30
,1256,2023-10-27 11:03:11.38,104,-329,-2033,-34,-19,42,-206,-61,-145,133
,1257,2023-10-27 11:03:11.39,115,-325,-2007,-33,-25,52,-56,69,-125,-6
,1258,2023-10-27 11:03:11.40,127,-312,-1952,-26,-19,60,-219,-70,-149,144
,1259,2023-10-27 11:03:11.41,160,-305,-1924,-19,4,54,-61,77,-138,-8
,1260,2023-10-27 11:03:11.42,188,-300,-1938,-15,41,44,-220,-45,-175,132
,1261,2023-10-27 11:03:11.43,182,-298,-1966,-20,95,26,-69,82,-151,-6
,1262,2023-10-27 11:03:11.44,174,-292,-2001,-20,126,13,-227,-48,-179,137
,1263,2023-10-27 11:03:11.45,174,-290,-2016,-19,139,6,-70,80,-150,-5
,1264,2023-10-27 11:03:11.46,162,-285,-2020,-23,142,0,-228,-43,-185,135
,1265,2023-10-27 11:03:11.47,137,-281,-2032,-22,118,3,-82,76,-158,3
,1266,2023-10-27 11:03:11.48,185,-283,-2056,-33,115,4,-244,-45,-199,144
,1267,2023-10-27 11:03:11.49,164,-281,-2068,-47,112,1,-89,69,-158,10
,1268,2023-10-27 11:03:11.50,163,-281,-2051,-46,88,1,-232,-43,-189,137
,1269,2023-10-27 11:03:11.51,171,-294,-2057,-37,58,0,-80,74,-154,3
,1270,2023-10-27 11:03:11.52,183,-305,-2079,-40,50,2,-233,-39,-194,136
,1271,2023-10-27 11:03:11.53,154,-307,-2079,-48,64,3,-96,65,-161,15
,1272,2023-10-27 11:03:11.54,143,-317,-2090,-47,46,7,-250,-45,-205,147
,1273,2023-10-27 11:03:11.55,136,-331,-2100,-42,27,12,-106,56,-162,25
,1274,2023-10-27 11:03:11.56,124,-336,-2117,-30,2,22,-268,-54,-214,161
,1275,2023-10-27 11:03:11.57,110,-347,-2112,-11,-47,34,-130,47,-177,41
,1276,2023-10-27 11:03:11.58,90,-344,-2090,14,-103,51,-275,-52,-223,163
,1277,2023-10-27 11:03:11.59,107,-352,-2080,41,-143,70,-135,46,-181,44
,1278,2023-10-27 11:03:11.60,97,-346,-2092,56,-160,88,-279,-55,-224,167
,1279,2023-10-27 11:03:11.61,146,-364,-2123,51,-149,96,-161,32,-193,64
,1280,2023-10-27 11:03:11.62,71,-361,-2072,47,-132,98,-315,-58,-257,186
,1281,2023-10-27 11:03:11.63,82,-351,-2053,39,-117,108,-184,18,-202,83
,1282,2023-10-27 11:03:11.64,84,-361,-2027,21,-93,112,-324,-64,-260,194
,1283,2023-10-27 11:03:11.65,32,-359,-2015,27,-117,122,-187,20,-207,83
,1284,2023-10-27 11:03:11.66,59,-363,-2030,53,-156,137,-324,-64,-260,194
,1285,2023-10-27 11:03:11.67,61,-365,-2007,84,-174,144,-188,16,-204,86
,1286,2023-10-27 11:03:11.68,70,-356,-1992,104,-168,148,-314,-48,-266,181
,1287,2023-10-27 11:03:11.69,64,-348,-1983,107,-151,146,-179,19,-198,80
,1288,2023-10-27 11:03:11.70,62,-348,-1982,106,-136,143,-308,-51,-257,179
,1289,2023-10-27 11:03:11.71,71,-356,-2007,109,-121,140,-180,14,-194,83
,1290,2023-10-27 11:03:11.72,39,-364,-2020,111,-122,144,-296,-47,-249,171
,1291,2023-10-27 11:03:11.73,44,-381,-2032,113,-116,147,-163,18,-181,72
,1292,2023-10-27 11:03:11.74,37,-381,-2048,111,-110,155,-279,-40,-239,159
,1293,2023-10-27 11:03:11.75,36,-375,-2034,114,-122,161,-164,13,-177,75
,1294,2023-10-27 11:03:11.76,31,-380,-2029,115,-127,167,-286,-40,-246,163
,1295,2023-10-27 11:03:11.77,39,-379,-2038,118,-134,170,-172,6,-178,83
,1296,2023-10-27 11:03:11.78,29,-366,-2022,113,-128,173,-291,-47,-244,169
,1297,2023-10-27 11:03:11.79,29,-365,-1995,105,-115,169,-178,-4,-174,91
,1298,2023-10-27 11:03:11.80,47,-358,-1983,100,-111,168,-276,-34,-242,155
,1299,2023-10-27 11:03:11.81,52,-354,-1978,91,-98,162,-162,10,-172,76
,1300,2023-10-27 11:03:11.82,55,-348,-1971,85,-82,157,-249,-12,-237,130
,1301,2023-10-27 11:03:11.83,64,-344,-1961,76,-58,146,-140,16,-156,62
,1302,2023-10-27 11:03:11.84,55,-341,-1952,67,-35,132,-247,-12,-235,129
,1303,2023-10-27 11:03:11.85,74,-332,-1966,49,-11,115,-154,10,-164,72
,1304,2023-10-27 11:03:11.86,78,-327,-1981,30,31,100,-258,-20,-238,139
,1305,2023-10-27 11:03:11.87,79,-329,-2004,8,58,80,-175,-7,-168,91
,1306,2023-10-27 11:03:11.88,68,-330,-2017,-8,75,62,-269,-28,-241,148
,1307,2023-10-27 11:03:11.89,67,-327,-2024,-23,81,50,-181,-16,-165,98
,1308,2023-10-27 11:03:11.90,77,-320,-2030,-42,88,37,-269,-25,-244,147
,1309,2023-10-27 11:03:11.91,69,-318,-2034,-55,90,25,-184,-16,-168,100
,1310,2023-10-27 11:03:11.92,47,-324,-2025,-63,77,12,-260,-25,-235,142
,1311,2023-10-27 11:03:11.93,83,-335,-2066,-70,59,8,-183,-23,-160,103
,1312,2023-10-27 11:03:11.94,73,-324,-2070,-81,65,-2,-264,-24,-240,144
,1313,2023-10-27 11:03:11.95,63,-332,-2060,-80,40,-8,-188,-29,-159,108
,1314,2023-10-27 11:03:11.96,93,-338,-2072,-77,25,-10,-258,-13,-245,135
,1315,2023-10-27 11:03:11.97,65,-343,-2071,-89,49,-21,-194,-28,-166,111
,1316,2023-10-27 11:03:11.98,63,-340,-2064,-88,29,-21,-257,-18,-239,137
,1317,2023-10-27 11:03:11.99,63,-339,-2056,-83,14,-21,-193,-35,-158,114
,1318,2023-10-27 11:03:12.00,65,-350,-2043,-68,-2,-21,-258,-12,-246,135
,1319,2023-10-27 11:03:12.01,73,-351,-2036,-51,-15,-19,-200,-37,-163,118
,1320,2023-10-27 11:03:12.02,93,-347,-2015,-43,-18,-16,-260,-10,-250,135
,1321,2023-10-27 11:03:12.03,82,-345,-2006,-35,-10,-17,-201,-32,-169,116
,1322,2023-10-27 11:03:12.04,76,-345,-2014,-23,-3,-17,-257,-6,-251,131
,1323,2023-10-27 11:03:12.05,76,-337,-2008,-18,3,-16,-201,-34,-167,117
,1324,2023-10-27 11:03:12.06,80,-332,-2015,-14,13,-16,-246,4,-250,121
,1325,2023-10-27 11:03:12.07,74,-332,-2025,-12,20,-15,-203,-32,-171,117
,1326,2023-10-27 11:03:12.08,71,-338,-2026,-16,21,-12,-247,7,-254,120
,1327,2023-10-27 11:03:12.09,66,-333,-2031,-18,21,-5,-200,-35,-165,117
,1328,2023-10-27 11:03:12.10,70,-336,-2039,-22,17,-2,-240,18,-258,111
,1329,2023-10-27 11:03:12.11,63,-333,-2040,-26,11,4,-201,-32,-169,116
,1330,2023-10-27 11:03:12.12,58,-325,-2047,-31,5,11,-225,18,-243,103
,1331,2023-10-27 11:03:12.13,72,-324,-2043,-33,-1,14,-199,-35,-164,117
,1332,2023-10-27 11:03:12.14,69,-332,-2042,-34,-8,20,-221,28,-249,96
,1333,2023-10-27 11:03:12.15,58,-332,-2038,-32,-10,27,-194,-37,-157,115
,1334,2023-10-27 11:03:12.16,73,-321,-2039,-28,-15,26,-219,31,-250,94
,1335,2023-10-27 11:03:12.17,72,-324,-2042,-22,-22,30,-196,-27,-169,111
,1336,2023-10-27 11:03:12.18,64,-325,-2046,-17,-27,31,-210,47,-257,81
,1337,2023-10-27 11:03:12.19,61,-325,-2036,-9,-33,29,-195,-24,-171,109
,1338,2023-10-27 11:03:12.20,58,-318,-2048,-2,-42,28,-204,57,-261,73
,1339,2023-10-27 11:03:12.21,51,-317,-2037,4,-47,28,-196,-25,-171,110
,1340,2023-10-27 11:03:12.22,61,-313,-2039,6,-51,27,-194,59,-253,67
,1341,2023-10-27 11:03:12.23,45,-318,-2039,7,-50,26,-192,-26,-166,109
,1342,2023-10-27 11:03:12.24,55,-318,-2037,11,-53,28,-192,61,-253,65
,1343,2023-10-27 11:03:12.25,43,-333,-2028,12,-51,26,-202,-32,-170,117
,1344,2023-10-27 11:03:12.26,49,-322,-2027,10,-45,27,-200,57,-257,71
,1345,2023-10-27 11:03:12.27,50,-321,-2020,4,-35,25,-211,-42,-169,126
,1346,2023-10-27 11:03:12.28,50,-329,-2029,0,-24,24,-218,49,-267,84
,1347,2023-10-27 11:03:12.29,53,-327,-2022,-6,-5,20,-240,-52,-188,146
,1348,2023-10-27 11:03:12.30,50,-319,-2018,-8,-1,23,-229,43,-272,93
,1349,2023-10-27 11:03:12.31,53,-333,-2023,-14,12,25,-248,-58,-190,153
,1350,2023-10-27 11:03:12.32,48,-327,-2027,-22,29,23,-222,51,-273,85
,1351,2023-10-27 11:03:12.33,45,-315,-2040,-30,37,24,-243,-57,-186,150
,1352,2023-10-27 11:03:12.34,46,-310,-2041,-34,46,23,-215,55,-270,80
,1353,2023-10-27 11:03:12.35,53,-316,-2037,-40,50,21,-247,-63,-184,155
,1354,2023-10-27 11:03:12.36,54,-302,-2036,-45,49,16,-223,45,-268,89
,1355,2023-10-27 11:03:12.37,40,-307,-2034,-46,52,16,-246,-61,-185,153
,1356,2023-10-27 11:03:12.38,44,-313,-2041,-46,49,11,-219,42,-261,88
,1357,2023-10-27 11:03:12.39,36,-314,-2036,-42,44,8,-265,-78,-187,171
,1358,2023-10-27 11:03:12.40,55,-302,-2035,-35,36,4,-224,39,-263,92
,1359,2023-10-27 11:03:12.41,44,-298,-2021,-27,28,0,-267,-83,-184,175
,1360,2023-10-27 11:03:12.42,47,-310,-2030,-22,18,-3,-220,41,-261,89
,1361,2023-10-27 11:03:12.43,67,-308,-2035,-20,32,-8,-267,-85,-182,176
,1362,2023-10-27 11:03:12.44,55,-310,-2032,-18,36,-11,-220,41,-261,89
,1363,2023-10-27 11:03:12.45,51,-317,-2027,-6,6,-14,-264,-84,-180,174
,1364,2023-10-27 11:03:12.46,87,-323,-2041,2,8,-14,-204,54,-258,75
,1365,2023-10-27 11:03:12.47,58,-328,-2050,3,29,-14,-265,-83,-182,174
,1366,2023-10-27 11:03:12.48,59,-319,-2032,2,34,-16,-203,59,-262,72
,1367,2023-10-27 11:03:12.49,69,-313,-2030,7,23,-15,-259,-77,-182,168
,1368,2023-10-27 11:03:12.50,71,-299,-2035,9,12,-15,-193,66,-259,63
,1369,2023-10-27 11:03:12.51,71,-309,-2033,3,31,-22,-265,-80,-185,172
,1370,2023-10-27 11:03:12.52,63,-306,-2045,-6,41,-23,-195,65,-260,65
,1371,2023-10-27 11:03:12.53,63,-317,-2040,-17,46,-25,-261,-81,-180,171
,1372,2023-10-27 11:03:12.54,55,-319,-2039,-17,29,-21,-173,76,-249,48
,1373,2023-10-27 11:03:12.55,80,-314,-2027,-15,30,-17,-251,-72,-179,161
,1374,2023-10-27 11:03:12.56,62,-312,-2036,-17,34,-16,-168,81,-249,43
,1375,2023-10-27 11:03:12.57,53,-309,-2027,-24,42,-17,-248,-72,-176,160
,1376,2023-10-27 11:03:12.58,63,-301,-2031,-27,40,-15,-159,89,-248,35
,1377,2023-10-27 11:03:12.59,76,-307,-2033,-24,27,-12,-255,-73,-182,164
,1378,2023-10-27 11:03:12.60,74,-308,-2033,-27,36,-10,-164,84,-248,40
,1379,2023-10-27 11:03:12.61,68,-305,-2031,-29,38,-8,-255,-73,-182,164
,1380,2023-10-27 11:03:12.62,68,-313,-2043,-36,49,-6,-163,88,-251,37
,1381,2023-10-27 11:03:12.63,53,-308,-2043,-36,37,-2,-254,-72,-182,163
,1382,2023-10-27 11:03:12.64,87,-300,-2047,-30,17,5,-144,100,-244,22
,1383,2023-10-27 11:03:12.65,69,-298,-2049,-29,25,10,-257,-76,-181,166
,1384,2023-10-27 11:03:12.66,94,-296,-2033,-33,25,11,-158,87,-245,35
,1385,2023-10-27 11:03:12.67,62,-295,-2040,-41,40,10,-262,-81,-181,171
,1386,2023-10-27 11:03:12.68,79,-299,-2032,-42,38,10,-157,84,-241,36
,1387,2023-10-27 11:03:12.69,76,-295,-2044,-37,29,9,-268,-83,-185,175
,1388,2023-10-27 11:03:12.70,90,-292,-2035,-28,21,11,-155,84,-239,35
,1389,2023-10-27 11:03:12.71,88,-292,-2039,-30,38,8,-272,-90,-182,181
,1390,2023-10-27 11:03:12.72,83,-286,-2041,-31,46,3,-154,84,-238,35
,1391,2023-10-27 11:03:12.73,86,-280,-2035,-30,41,-1,-273,-85,-188,179
,1392,2023-10-27 11:03:12.74,90,-286,-2048,-22,22,-2,-162,82,-244,40
,1393,2023-10-27 11:03:12.75,108,-302,-2052,-18,23,-3,-291,-100,-191,195
,1394,2023-10-27 11:03:12.76,83,-288,-2048,-15,28,-6,-164,75,-239,44
,1395,2023-10-27 11:03:12.77,107,-287,-2032,-12,27,-8,-285,-102,-183,193
,1396,2023-10-27 11:03:12.78,79,-289,-2029,-11,37,-10,-164,78,-242,43
,1397,2023-10-27 11:03:12.79,98,-291,-2032,-7,15,-9,-304,-110,-194,207
,1398,2023-10-27 11:03:12.80,86,-303,-2048,-4,16,-9,-182,57,-239,62
,1399,2023-10-27 11:03:12.81,95,-290,-2045,-3,21,-9,-308,-114,-194,211
,1400,2023-10-27 11:03:12.82,85,-295,-2036,-9,33,-9,-172,66,-238,53
,1401,2023-10-27 11:03:12.83,100,-295,-2041,-7,8,-4,-312,-110,-202,211
,1402,2023-10-27 11:03:12.84,96,-289,-2047,-6,6,-1,-183,66,-249,58
,1403,2023-10-27 11:03:12.85,88,-295,-2040,-10,21,2,-311,-106,-205,208
,1404,2023-10-27 11:03:12.86,100,-294,-2042,-15,26,5,-171,76,-247,47
,1405,2023-10-27 11:03:12.87,83,-285,-2041,-19,26,9,-300,-94,-206,197
,1406,2023-10-27 11:03:12.88,89,-281,-2033,-17,11,9,-156,82,-238,37
,1407,2023-10-27 11:03:12.89,90,-292,-2034,-16,3,11,-296,-94,-202,195
,1408,2023-10-27 11:03:12.90,94,-285,-2046,-14,7,13,-154,87,-241,33
,1409,2023-10-27 11:03:12.91,74,-283,-2037,-20,27,12,-304,-94,-210,199
,1410,2023-10-27 11:03:12.92,88,-282,-2035,-25,27,11,-151,87,-238,32
,1411,2023-10-27 11:03:12.93,94,-285,-2046,-18,5,14,-292,-85,-207,188
,1412,2023-10-27 11:03:12.94,97,-281,-2044,-18,8,8,-148,93,-241,27
,1413,2023-10-27 11:03:12.95,95,-274,-2036,-17,16,6,-301,-80,-221,190
,1414,2023-10-27 11:03:12.96,87,-281,-2039,-22,23,1,-150,94,-244,28
,1415,2023-10-27 11:03:12.97,85,-275,-2048,-25,18,0,-302,-83,-219,192
,1416,2023-10-27 11:03:12.98,96,-283,-2048,-22,7,2,-145,99,-244,23
,1417,2023-10-27 11:03:12.99,96,-283,-2045,-24,10,3,-285,-70,-215,177
,1418,2023-10-27 11:03:13.00,96,-292,-2042,-27,23,5,-127,115,-242,6
,1419,2023-10-27 11:03:13.01,77,-286,-2040,-29,18,5,-286,-61,-225,173
,1420,2023-10-27 11:03:13.02,92,-275,-2041,-24,6,9,-128,114,-242,7
,1421,2023-10-27 11:03:13.03,100,-279,-2044,-25,19,12,-285,-65,-220,175
,1422,2023-10-27 11:03:13.04,93,-284,-2041,-23,23,8,-120,112,-232,4
,1423,2023-10-27 11:03:13.05,91,-276,-2035,-24,21,14,-280,-60,-220,170
,1424,2023-10-27 11:03:13.06,94,-277,-2033,-22,23,15,-128,107,-235,10
,1425,2023-10-27 11:03:13.07,104,-279,-2048,-15,12,15,-289,-64,-225,176
,1426,2023-10-27 11:03:13.08,104,-269,-2045,-14,10,16,-130,105,-235,12
,1427,2023-10-27 11:03:13.09,95,-266,-2048,-17,16,19,-296,-67,-229,181
,1428,2023-10-27 11:03:13.10,91,-271,-2048,-24,18,19,-136,98,-234,19
,1429,2023-10-27 11:03:13.11,95,-269,-2046,-29,19,18,-299,-77,-222,188
,1430,2023-10-27 11:03:13.12,78,-268,-2056,-28,8,19,-137,88,-225,24
,1431,2023-10-27 11:03:13.13,97,-269,-2042,-28,7,19,-302,-76,-226,189
,1432,2023-10-27 11:03:13.14,76,-271,-2047,-30,9,21,-138,82,-220,28
,1433,2023-10-27 11:03:13.15,105,-267,-2041,-29,0,22,-304,-80,-224,192
,1434,2023-10-27 11:03:13.16,94,-264,-2037,-32,17,22,-140,79,-219,30
,1435,2023-10-27 11:03:13.17,86,-259,-2019,-30,16,20,-305,-87,-218,196
,1436,2023-10-27 11:03:13.18,109,-271,-2019,-25,15,19,-145,75,-220,35
,1437,2023-10-27 11:03:13.19,103,-262,-2026,-26,20,16,-308,-82,-226,195
,1438,2023-10-27 11:03:13.20,87,-266,-2036,-25,27,12,-150,68,-218,41
,1439,2023-10-27 11:03:13.21,93,-265,-2038,-24,29,16,-314,-87,-227,200
,1440,2023-10-27 11:03:13.22,93,-273,-2047,-16,19,17,-152,62,-214,45
,1441,2023-10-27 11:03:13.23,94,-279,-2050,-14,24,18,-334,-96,-238,215
,1442,2023-10-27 11:03:13.24,104,-262,-2041,-15,35,14,-169,56,-225,56
,1443,2023-10-27 11:03:13.25,96,-251,-2043,-14,36,12,-330,-100,-230,215
,1444,2023-10-27 11:03:13.26,84,-250,-2059,-28,44,5,-156,62,-218,47
,1445,2023-10-27 11:03:13.27,105,-252,-2048,-33,40,0,-312,-78,-234,195
,1446,2023-10-27 11:03:13.28,87,-254,-2045,-37,44,-3,-152,65,-217,43
,1447,2023-10-27 11:03:13.29,93,-249,-2034,-43,43,-5,-315,-76,-239,195
,1448,2023-10-27 11:03:13.30,94,-249,-2028,-43,41,-7,-144,71,-215,36
,1449,2023-10-27 11:03:13.31,97,-254,-2028,-47,38,-8,-298,-65,-233,181
,1450,2023-10-27 11:03:13.32,88,-249,-2031,-50,42,-13,-127,74,-201,26
,1451,2023-10-27 11:03:13.33,98,-241,-2031,-47,48,-17,-287,-59,-228,173
,1452,2023-10-27 11:03:13.34,98,-242,-2034,-54,56,-22,-130,70,-200,30
,1453,2023-10-27 11:03:13.35,94,-238,-2029,-56,49,-26,-291,-56,-235,173
,1454,2023-10-27 11:03:13.36,113,-236,-2033,-60,55,-30,-124,78,-202,23
,1455,2023-10-27 11:03:13.37,96,-239,-2046,-65,68,-35,-274,-46,-228,160
,1456,2023-10-27 11:03:13.38,101,-240,-2039,-69,75,-36,-111,82,-193,14
,1457,2023-10-27 11:03:13.39,107,-247,-2053,-69,64,-38,-262,-37,-225,149
,1458,2023-10-27 11:03:13.40,112,-225,-2039,-65,64,-43,-112,75,-187,18
,1459,2023-10-27 11:03:13.41,117,-237,-2047,-67,77,-48,-278,-46,-232,162
,1460,2023-10-27 11:03:13.42,108,-231,-2032,-74,88,-52,-123,70,-193,26
,1461,2023-10-27 11:03:13.43,111,-230,-2040,-77,90,-57,-278,-47,-231,162
,1462,2023-10-27 11:03:13.44,121,-228,-2042,-77,104,-63,-124,63,-187,30
,1463,2023-10-27 11:03:13.45,121,-225,-2042,-75,93,-62,-277,-49,-228,163
,1464,2023-10-27 11:03:13.46,119,-233,-2034,-73,98,-67,-134,55,-189,39
,1465,2023-10-27 11:03:13.47,125,-221,-2034,-76,116,-70,-283,-51,-232,167
,1466,2023-10-27 11:03:13.48,121,-216,-2027,-77,123,-77,-136,41,-177,47
,1467,2023-10-27 11:03:13.49,130,-233,-2038,-72,114,-81,-286,-59,-227,172
,1468,2023-10-27 11:03:13.50,120,-228,-2041,-72,129,-79,-144,38,-182,53
,1469,2023-10-27 11:03:13.51,122,-213,-2036,-61,117,-89,-295,-59,-236,177
,1470,2023-10-27 11:03:13.52,128,-216,-2040,-63,123,-93,-148,37,-185,55
,1471,2023-10-27 11:03:13.53,151,-210,-2030,-66,126,-99,-291,-57,-234,174
,1472,2023-10-27 11:03:13.54,122,-212,-2026,-68,139,-104,-159,24,-183,67
,1473,2023-10-27 11:03:13.55,136,-222,-2031,-70,150,-112,-290,-54,-236,172
,1474,2023-10-27 11:03:13.56,149,-215,-2035,-76,154,-113,-151,27,-178,62
,1475,2023-10-27 11:03:13.57,144,-207,-2040,-80,157,-113,-300,-61,-239,180
,1476,2023-10-27 11:03:13.58,151,-213,-2040,-85,158,-112,-168,12,-180,78
,1477,2023-10-27 11:03:13.59,159,-203,-2045,-88,155,-111,-307,-72,-235,189
,1478,2023-10-27 11:03:13.60,161,-190,-2030,-100,163,-112,-179,7,-186,86
,1479,2023-10-27 11:03:13.61,153,-196,-2048,-110,164,-114,-296,-59,-237,177
,1480,2023-10-27 11:03:13.62,175,-192,-2059,-120,164,-109,-165,8,-173,78
,1481,2023-10-27 11:03:13.63,164,-194,-2060,-132,167,-104,-295,-55,-240,175
,1482,2023-10-27 11:03:13.64,179,-189,-2060,-138,161,-98,-179,6,-185,86
,1483,2023-10-27 11:03:13.65,173,-186,-2053,-145,159,-91,-296,-52,-244,174
,1484,2023-10-27 11:03:13.66,192,-191,-2067,-146,145,-78,-170,7,-177,81
,1485,2023-10-27 11:03:13.67,195,-184,-2061,-152,146,-69,-287,-39,-248,163
,1486,2023-10-27 11:03:13.68,189,-177,-2074,-152,130,-58,-169,9,-178,80
,1487,2023-10-27 11:03:13.69,196,-176,-2074,-152,123,-48,-273,-35,-238,154
,1488,2023-10-27 11:03:13.70,204,-173,-2065,-154,124,-39,-162,7,-169,77
,1489,2023-10-27 11:03:13.71,219,-173,-2057,-150,119,-28,-273,-33,-240,153
,1490,2023-10-27 11:03:13.72,203,-164,-2058,-138,99,-22,-162,8,-170,77
,1491,2023-10-27 11:03:13.73,224,-159,-2054,-134,100,-16,-269,-28,-241,148
,1492,2023-10-27 11:03:13.74,212,-156,-2061,-123,93,-8,-164,5,-169,79
,1493,2023-10-27 11:03:13.75,222,-158,-2055,-113,91,-3,-270,-24,-246,147
,1494,2023-10-27 11:03:13.76,233,-153,-2059,-105,88,3,-170,1,-171,84
,1495,2023-10-27 11:03:13.77,245,-152,-2057,-90,79,11,-271,-25,-246,148
,1496,2023-10-27 11:03:13.78,231,-148,-2061,-81,73,15,-166,0,-166,83
,1497,2023-10-27 11:03:13.79,256,-141,-2057,-69,65,21,-249,-12,-237,130
,1498,2023-10-27 11:03:13.80,237,-142,-2053,-66,77,20,-158,7,-165,75
,1499,2023-10-27 11:03:13.81,252,-138,-2055,-56,72,25,-254,-5,-249,129
,1500,2023-10-27 11:03:13.82,237,-143,-2055,-44,56,29,-165,-2,-163,83
,1501,2023-10-27 11:03:13.83,254,-142,-2054,-36,57,33,-250,-7,-243,128
,1502,2023-10-27 11:03:13.84,246,-141,-2047,-27,68,34,-168,-3,-165,85
,1503,2023-10-27 11:03:13.85,241,-145,-2042,-19,65,39,-252,-9,-243,130
,1504,2023-10-27 11:03:13.86,255,-139,-2033,-10,63,40,-176,-11,-165,93
,1505,2023-10-27 11:03:13.87,262,-133,-2032,4,53,40,-251,-10,-241,130
,1506,2023-10-27 11:03:13.88,266,-139,-2025,13,66,38,-179,-19,-160,99
,1507,2023-10-27 11:03:13.89,254,-146,-2044,20,77,37,-252,-9,-243,130
,1508,2023-10-27 11:03:13.90,256,-142,-2033,29,69,36,-185,-28,-157,106
,1509,2023-10-27 11:03:13.91,265,-150,-2039,36,72,35,-261,-15,-246,138
,1510,2023-10-27 11:03:13.92,262,-149,-2047,41,85,30,-196,-33,-163,114
,1511,2023-10-27 11:03:13.93,260,-145,-2043,43,84,29,-261,-14,-247,137
,1512,2023-10-27 11:03:13.94,267,-138,-2051,50,75,26,-199,-32,-167,115
,1513,2023-10-27 11:03:13.95,278,-137,-2045,51,82,21,-256,-4,-252,130
,1514,2023-10-27 11:03:13.96,256,-142,-2067,55,76,14,-210,-42,-168,126
,1515,2023-10-27 11:03:13.97,274,-144,-2069,52,75,9,-271,-15,-256,143
,1516,2023-10-27 11:03:13.98,271,-144,-2056,50,77,4,-216,-44,-172,130
,1517,2023-10-27 11:03:13.99,278,-151,-2051,49,67,3,-269,-9,-260,139
,1518,2023-10-27 11:03:14.00,272,-140,-2036,54,60,0,-224,-52,-172,138
,1519,2023-10-27 11:03:14.01,287,-140,-2035,55,42,-3,-268,-8,-260,138
,1520,2023-10-27 11:03:14.02,297,-140,-2040,54,47,-6,-222,-59,-163,140
,1521,2023-10-27 11:03:14.03,286,-142,-2036,51,55,-11,-262,-5,-257,133
,1522,2023-10-27 11:03:14.04,280,-145,-2049,52,39,-14,-222,-49,-173,135
,1523,2023-10-27 11:03:14.05,286,-152,-2051,48,40,-14,-263,-2,-261,132
,1524,2023-10-27 11:03:14.06,273,-153,-2058,48,42,-13,-237,-60,-177,148
,1525,2023-10-27 11:03:14.07,277,-163,-2057,45,42,-10,-260,3,-263,128
,1526,2023-10-27 11:03:14.08,266,-170,-2058,44,30,-4,-230,-59,-171,144
,1527,2023-10-27 11:03:14.09,279,-163,-2050,40,22,1,-251,12,-263,119
,1528,2023-10-27 11:03:14.10,278,-159,-2055,41,7,8,-227,-55,-172,141
,1529,2023-10-27 11:03:14.11,272,-167,-2052,34,7,16,-250,15,-265,117
,1530,2023-10-27 11:03:14.12,266,-167,-2056,29,3,23,-228,-52,-176,140
,1531,2023-10-27 11:03:14.13,267,-173,-2049,23,-1,29,-239,22,-261,108
,1532,2023-10-27 11:03:14.14,276,-166,-2043,22,-7,39,-228,-56,-172,142
,1533,2023-10-27 11:03:14.15,266,-162,-2038,19,-9,45,-222,36,-258,93
,1534,2023-10-27 11:03:14.16,279,-167,-2041,18,-8,47,-221,-54,-167,137
,1535,2023-10-27 11:03:14.17,273,-165,-2041,16,-14,51,-225,40,-265,92
,1536,2023-10-27 11:03:14.18,262,-157,-2040,16,-15,55,-218,-45,-173,131
,1537,2023-10-27 11:03:14.19,277,-171,-2040,17,-20,57,-216,55,-271,80
,1538,2023-10-27 11:03:14.20,270,-168,-2049,21,-22,58,-229,-43,-186,136
,1539,2023-10-27 11:03:14.21,261,-160,-2051,25,-28,60,-227,53,-280,87
,1540,2023-10-27 11:03:14.22,269,-169,-2042,25,-29,60,-236,-56,-180,146
,1541,2023-10-27 11:03:14.23,265,-165,-2033,28,-27,64,-214,54,-268,80
,1542,2023-10-27 11:03:14.24,257,-164,-2037,26,-26,59,-229,-48,-181,138
,1543,2023-10-27 11:03:14.25,258,-163,-2049,25,-23,59,-212,62,-274,75
,1544,2023-10-27 11:03:14.26,266,-153,-2042,24,-23,55,-239,-53,-186,146
,1545,2023-10-27 11:03:14.27,267,-166,-2045,23,-22,56,-214,61,-275,76
,1546,2023-10-27 11:03:14.28,253,-172,-2048,26,-26,56,-247,-65,-182,156
,1547,2023-10-27 11:03:14.29,246,-168,-2049,27,-28,55,-215,51,-266,82
,1548,2023-10-27 11:03:14.30,247,-164,-2051,28,-27,52,-251,-68,-183,159
,1549,2023-10-27 11:03:14.31,247,-167,-2042,27,-29,53,-218,51,-269,83
,1550,2023-10-27 11:03:14.32,253,-167,-2046,26,-29,51,-259,-73,-186,166
,1551,2023-10-27 11:03:14.33,246,-161,-2048,24,-29,47,-218,52,-270,83
,1552,2023-10-27 11:03:14.34,237,-160,-2037,21,-26,42,-269,-84,-185,176
,1553,2023-10-27 11:03:14.35,245,-164,-2031,17,-22,40,-232,42,-274,95
,1554,2023-10-27 11:03:14.36,252,-168,-2036,10,-15,36,-288,-92,-196,190
,1555,2023-10-27 11:03:14.37,230,-165,-2035,9,-10,34,-260,23,-283,118
,1556,2023-10-27 11:03:14.38,255,-167,-2035,7,-8,32,-338,-128,-210,233
,1557,2023-10-27 11:03:14.39,246,-174,-2042,5,-4,31,-309,-27,-282,168
,1558,2023-10-27 11:03:14.40,238,-171,-2041,0,1,33,-386,-176,-210,281
,1559,2023-10-27 11:03:14.41,240,-164,-2042,-3,3,33,-344,-54,-290,199
,1560,2023-10-27 11:03:14.42,234,-170,-2049,-3,1,35,-410,-186,-224,298
,1561,2023-10-27 11:03:14.43,249,-173,-2049,-2,1,37,-350,-56,-294,203
,1562,2023-10-27 11:03:14.44,242,-170,-2047,-4,1,39,-399,-182,-217,290
,1563,2023-10-27 11:03:14.45,245,-169,-2040,-1,2,40,-322,-41,-281,181
,1564,2023-10-27 11:03:14.46,248,-172,-2050,-2,2,40,-380,-173,-207,276
,1565,2023-10-27 11:03:14.47,244,-166,-2047,-2,4,41,-289,-7,-282,148
,1566,2023-10-27 11:03:14.48,238,-171,-2047,-4,2,44,-338,-142,-196,240
,1567,2023-10-27 11:03:14.49,238,-164,-2044,-2,2,45,-236,32,-268,102
,1568,2023-10-27 11:03:14.50,241,-164,-2054,-2,1,46,-296,-104,-192,200
,1569,2023-10-27 11:03:14.51,234,-160,-2047,-6,0,46,-187,71,-258,58
,1570,2023-10-27 11:03:14.52,247,-154,-2055,-6,-1,46,-269,-82,-187,175
,1571,2023-10-27 11:03:14.53,249,-157,-2049,-8,-2,46,-159,94,-253,32
,1572,2023-10-27 11:03:14.54,242,-164,-2053,-6,-9,46,-249,-69,-180,159
,1573,2023-10-27 11:03:14.55,242,-161,-2054,-8,-9,50,-138,106,-244,16
,1574,2023-10-27 11:03:14.56,239,-167,-2049,-5,-10,48,-235,-61,-174,148
,1575,2023-10-27 11:03:14.57,248,-164,-2044,-4,-14,53,-132,117,-249,7
,1576,2023-10-27 11:03:14.58,256,-165,-2026,-1,-10,50,-229,-50,-179,139
,1577,2023-10-27 11:03:14.59,243,-162,-2031,-3,-1,48,-112,124,-236,-6
,1578,2023-10-27 11:03:14.60,253,-166,-2040,-3,2,45,-226,-50,-176,138
,1579,2023-10-27 11:03:14.61,254,-162,-2038,3,7,48,-113,130,-243,-8
,1580,2023-10-27 11:03:14.62,244,-168,-2041,9,9,46,-227,-52,-175,139
,1581,2023-10-27 11:03:14.63,251,-174,-2038,11,10,47,-110,125,-235,-7
,1582,2023-10-27 11:03:14.64,244,-164,-2042,14,13,44,-235,-55,-180,145
,1583,2023-10-27 11:03:14.65,250,-154,-2040,15,18,41,-122,115,-237,3
,1584,2023-10-27 11:03:14.66,253,-147,-2049,13,21,36,-250,-67,-183,158
,1585,2023-10-27 11:03:14.67,252,-156,-2049,11,22,30,-124,111,-235,6
,1586,2023-10-27 11:03:14.68,239,-147,-2053,9,16,26,-266,-83,-183,174
,1587,2023-10-27 11:03:14.69,260,-159,-2055,8,10,26,-143,90,-233,26
,1588,2023-10-27 11:03:14.70,250,-162,-2049,11,0,25,-272,-87,-185,179
,1589,2023-10-27 11:03:14.71,237,-163,-2049,13,-6,23,-149,86,-235,31
,1590,2023-10-27 11:03:14.72,248,-157,-2053,17,-9,23,-284,-91,-193,187
,1591,2023-10-27 11:03:14.73,242,-160,-2042,15,-13,23,-148,86,-234,31
,1592,2023-10-27 11:03:14.74,254,-159,-2038,16,-11,19,-291,-101,-190,196
,1593,2023-10-27 11:03:14.75,250,-148,-2033,15,-10,16,-162,79,-241,41
,1594,2023-10-27 11:03:14.76,258,-158,-2036,12,-6,12,-295,-97,-198,196
,1595,2023-10-27 11:03:14.77,252,-157,-2042,11,-6,13,-155,79,-234,38
,1596,2023-10-27 11:03:14.78,256,-170,-2045,12,-9,15,-304,-107,-197,205
,1597,2023-10-27 11:03:14.79,241,-169,-2052,14,-11,19,-170,66,-236,52
,1598,2023-10-27 11:03:14.80,246,-167,-2047,13,-14,23,-317,-116,-201,216
,1599,2023-10-27 11:03:14.81,241,-156,-2054,12,-15,26,-172,67,-239,52
,1600,2023-10-27 11:03:14.82,243,-170,-2052,11,-17,27,-314,-116,-198,215
,1601,2023-10-27 11:03:14.83,240,-169,-2049,11,-22,33,-184,51,-235,66
,1602,2023-10-27 11:03:14.84,239,-167,-2048,7,-27,38,-323,-117,-206,220
,1603,2023-10-27 11:03:14.85,236,-172,-2049,7,-26,40,-171,59,-230,56
,1604,2023-10-27 11:03:14.86,256,-169,-2056,8,-23,42,-326,-113,-213,219
,1605,2023-10-27 11:03:14.87,248,-166,-2041,10,-22,42,-179,64,-243,57
,1606,2023-10-27 11:03:14.88,254,-162,-2044,12,-26,40,-323,-117,-206,220
,1607,2023-10-27 11:03:14.89,245,-160,-2044,7,-18,43,-166,61,-227,52
,1608,2023-10-27 11:03:14.90,239,-162,-2040,10,-17,40,-312,-103,-209,207
,1609,2023-10-27 11:03:14.91,233,-179,-2046,9,-11,41,-156,80,-236,38
,1610,2023-10-27 11:03:14.92,243,-171,-2050,17,-20,41,-312,-93,-219,202
,1611,2023-10-27 11:03:14.93,241,-168,-2040,18,-15,39,-152,79,-231,36
,1612,2023-10-27 11:03:14.94,239,-167,-2040,21,-18,39,-312,-100,-212,206
,1613,2023-10-27 11:03:14.95,241,-172,-2044,20,-15,39,-152,77,-229,37
,1614,2023-10-27 11:03:14.96,236,-166,-2036,19,-13,40,-313,-97,-216,205
,1615,2023-10-27 11:03:14.97,243,-164,-2043,22,-14,39,-153,82,-235,35
,1616,2023-10-27 11:03:14.98,238,-171,-2051,19,-8,40,-308,-87,-221,197
,1617,2023-10-27 11:03:14.99,230,-172,-2043,22,-10,39,-142,83,-225,29
,1618,2023-10-27 11:03:15.00,248,-175,-2049,19,-7,39,-313,-89,-224,201
,1619,2023-10-27 11:03:15.01,235,-165,-2049,16,-2,39,-146,86,-232,30
,1620,2023-10-27 11:03:15.02,232,-168,-2049,19,-12,37,-304,-82,-222,193
,1621,2023-10-27 11:03:15.03,235,-162,-2046,17,-17,35,-146,82,-228,32
,1622,2023-10-27 11:03:15.04,231,-167,-2047,18,-16,34,-306,-83,-223,194
,1623,2023-10-27 11:03:15.05,234,-167,-2039,17,-14,30,-141,80,-221,30
,1624,2023-10-27 11:03:15.06,240,-166,-2045,12,-6,26,-313,-84,-229,198
,1625,2023-10-27 11:03:15.07,219,-166,-2044,9,-5,24,-146,81,-227,32
,1626,2023-10-27 11:03:15.08,223,-167,-2053,12,-9,20,-308,-85,-223,196
,1627,2023-10-27 11:03:15.09,225,-168,-2052,13,-10,20,-142,75,-217,33
,1628,2023-10-27 11:03:15.10,227,-171,-2049,16,-8,17,-309,-87,-222,198
,1629,2023-10-27 11:03:15.11,226,-172,-2048,15,-7,15,-150,64,-214,43
,1630,2023-10-27 11:03:15.12,236,-167,-2037,16,-11,13,-324,-100,-224,212
,1631,2023-10-27 11:03:15.13,226,-168,-2042,17,-11,10,-159,55,-214,52
,1632,2023-10-27 11:03:15.14,222,-172,-2040,17,-10,10,-326,-101,-225,213
,1633,2023-10-27 11:03:15.15,214,-174,-2044,18,-7,11,-168,47,-215,60
,1634,2023-10-27 11:03:15.16,218,-180,-2043,19,-7,9,-330,-100,-230,215
,1635,2023-10-27 11:03:15.17,226,-174,-2043,22,-10,10,-158,47,-205,55
,1636,2023-10-27 11:03:15.18,243,-175,-2040,20,-9,8,-326,-105,-221,215
,1637,2023-10-27 11:03:15.19,228,-171,-2036,19,-4,8,-161,41,-202,60
,1638,2023-10-27 11:03:15.20,220,-181,-2044,14,0,11,-329,-107,-222,218
,1639,2023-10-27 11:03:15.21,225,-176,-2043,12,-4,11,-167,38,-205,64
,1640,2023-10-27 11:03:15.22,230,-178,-2045,10,-5,13,-336,-101,-235,218
,1641,2023-10-27 11:03:15.23,222,-172,-2049,10,-3,17,-170,36,-206,67
,1642,2023-10-27 11:03:15.24,220,-175,-2046,5,-8,17,-342,-102,-240,222
,1643,2023-10-27 11:03:15.25,233,-164,-2050,2,-10,15,-174,32,-206,71
,1644,2023-10-27 11:03:15.26,223,-175,-2052,1,-9,17,-329,-97,-232,213
,1645,2023-10-27 11:03:15.27,217,-172,-2055,-6,2,14,-168,38,-206,65
,1646,2023-10-27 11:03:15.28,215,-172,-2054,-7,-1,15,-321,-83,-238,202
,1647,2023-10-27 11:03:15.29,217,-175,-2046,-7,-16,17,-151,44,-195,53
,1648,2023-10-27 11:03:15.30,228,-168,-2050,-6,-26,17,-312,-85,-227,198
,1649,2023-10-27 11:03:15.31,220,-167,-2039,-5,-17,16,-157,40,-197,58
,1650,2023-10-27 11:03:15.32,217,-173,-2035,-4,-7,16,-304,-71,-233,187
,1651,2023-10-27 11:03:15.33,220,-170,-2034,-6,-14,16,-144,50,-194,47
,1652,2023-10-27 11:03:15.34,218,-175,-2033,-3,-11,17,-297,-61,-236,179
,1653,2023-10-27 11:03:15.35,218,-178,-2041,0,-7,20,-142,52,-194,45
,1654,2023-10-27 11:03:15.36,209,-183,-2041,1,-4,23,-296,-61,-235,178
,1655,2023-10-27 11:03:15.37,221,-176,-2045,2,0,26,-141,49,-190,46
,1656,2023-10-27 11:03:15.38,219,-170,-2046,0,1,28,-296,-63,-233,179
,1657,2023-10-27 11:03:15.39,228,-159,-2046,-1,4,26,-147,44,-191,51
,1658,2023-10-27 11:03:15.40,221,-159,-2043,-5,7,27,-281,-46,-235,163
,1659,2023-10-27 11:03:15.41,229,-159,-2059,-9,3,24,-131,51,-182,40
,1660,2023-10-27 11:03:15.42,224,-164,-2060,-10,-2,25,-283,-51,-232,167
,1661,2023-10-27 11:03:15.43,232,-158,-2054,-9,-8,24,-140,44,-184,48
,1662,2023-10-27 11:03:15.44,221,-165,-2049,-7,-3,25,-284,-54,-230,169
,1663,2023-10-27 11:03:15.45,224,-166,-2047,-7,-6,24,-149,32,-181,58
,1664,2023-10-27 11:03:15.46,221,-166,-2044,-7,-10,27,-293,-55,-238,174
,1665,2023-10-27 11:03:15.47,216,-160,-2036,-3,-8,30,-156,24,-180,66
,1666,2023-10-27 11:03:15.48,225,-161,-2032,2,-11,30,-297,-62,-235,179
,1667,2023-10-27 11:03:15.49,232,-161,-2037,2,-4,31,-159,17,-176,71
,1668,2023-10-27 11:03:15.50,226,-169,-2046,-1,2,34,-303,-64,-239,183
,1669,2023-10-27 11:03:15.51,222,-178,-2063,0,-2,34,-171,15,-186,78
,1670,2023-10-27 11:03:15.52,211,-171,-2058,0,0,39,-300,-57,-243,178
,1671,2023-10-27 11:03:15.53,217,-162,-2055,-2,-5,42,-176,3,-179,86
,1672,2023-10-27 11:03:15.54,225,-162,-2052,-1,-5,46,-298,-60,-238,179
,1673,2023-10-27 11:03:15.55,216,-167,-2043,-5,-6,50,-171,6,-177,82
,1674,2023-10-27 11:03:15.56,235,-164,-2037,-4,-8,50,-299,-59,-240,179
,1675,2023-10-27 11:03:15.57,227,-166,-2052,-2,-3,50,-183,-2,-181,92
,1676,2023-10-27 11:03:15.58,229,-165,-2056,-1,3,50,-319,-65,-254,192
,1677,2023-10-27 11:03:15.59,217,-172,-2046,2,3,49,-204,-14,-190,109
,1678,2023-10-27 11:03:15.60,214,-169,-2048,9,9,48,-307,-53,-254,180
,1679,2023-10-27 11:03:15.61,215,-165,-2039,15,8,44,-185,2,-187,91
,1680,2023-10-27 11:03:15.62,214,-156,-2035,15,2,43,-304,-43,-261,173
,1681,2023-10-27 11:03:15.63,220,-156,-2032,14,4,38,-198,0,-198,99
,1682,2023-10-27 11:03:15.64,223,-169,-2040,13,11,33,-306,-37,-269,171
,1683,2023-10-27 11:03:15.65,224,-165,-2048,15,11,28,-207,-14,-193,110
,1684,2023-10-27 11:03:15.66,226,-157,-2034,12,8,26,-297,-32,-265,164
,1685,2023-10-27 11:03:15.67,215,-169,-2042,14,11,22,-184,4,-188,90
,1686,2023-10-27 11:03:15.68,223,-170,-2047,9,10,24,-280,-15,-265,147
,1687,2023-10-27 11:03:15.69,227,-158,-2035,6,6,23,-174,8,-182,83
,1688,2023-10-27 11:03:15.70,230,-154,-2030,5,13,19,-267,-18,-249,142
,1689,2023-10-27 11:03:15.71,225,-155,-2038,-3,20,12,-180,-3,-177,91
,1690,2023-10-27 11:03:15.72,225,-156,-2046,-16,25,9,-261,-5,-256,133
,1691,2023-10-27 11:03:15.73,216,-163,-2060,-19,24,9,-163,7,-170,78
,1692,2023-10-27 11:03:15.74,225,-163,-2064,-17,20,9,-251,3,-254,124
,1693,2023-10-27 11:03:15.75,236,-157,-2055,-15,11,11,-161,5,-166,78
,1694,2023-10-27 11:03:15.76,240,-152,-2049,-17,7,10,-243,-2,-241,122
,1695,2023-10-27 11:03:15.77,234,-145,-2050,-20,7,9,-174,-2,-172,88
,1696,2023-10-27 11:03:15.78,223,-159,-2057,-24,6,11,-261,2,-263,129
,1697,2023-10-27 11:03:15.79,228,-160,-2065,-23,0,13,-190,-8,-182,99
,1698,2023-10-27 11:03:15.80,224,-155,-2065,-18,-6,16,-258,-1,-257,129
,1699,2023-10-27 11:03:15.81,223,-165,-2063,-15,-7,18,-183,-12,-171,97
,1700,2023-10-27 11:03:15.82,226,-160,-2054,-11,-10,22,-265,-18,-247,141
,1701,2023-10-27 11:03:15.83,231,-159,-2054,-8,-11,24,-208,-40,-168,124
,1702,2023-10-27 11:03:15.84,219,-150,-2056,-3,-11,28,-275,-20,-255,147
,1703,2023-10-27 11:03:15.85,224,-152,-2051,-3,-13,28,-214,-37,-177,125
,1704,2023-10-27 11:03:15.86,225,-152,-2052,1,-10,28,-267,0,-267,133
,1705,2023-10-27 11:03:15.87,226,-155,-2041,3,-7,29,-199,-22,-177,110
,1706,2023-10-27 11:03:15.88,226,-142,-2044,3,-4,27,-254,12,-266,121
,1707,2023-10-27 11:03:15.89,223,-142,-2043,1,2,26,-197,-20,-177,108
,1708,2023-10-27 11:03:15.90,218,-147,-2049,2,3,20,-245,13,-258,116
,1709,2023-10-27 11:03:15.91,213,-139,-2048,6,1,16,-207,-28,-179,117
,1710,2023-10-27 11:03:15.92,219,-146,-2045,13,-6,12,-256,11,-267,122
,1711,2023-10-27 11:03:15.93,221,-147,-2056,21,-12,7,-209,-34,-175,121
,1712,2023-10-27 11:03:15.94,215,-158,-2055,31,-16,2,-256,12,-268,122
,1713,2023-10-27 11:03:15.95,218,-178,-2079,40,-24,5,-220,-40,-180,130
,1714,2023-10-27 11:03:15.96,199,-186,-2101,51,-36,8,-253,9,-262,122
,1715,2023-10-27 11:03:15.97,222,-179,-2119,61,-42,13,-219,-43,-176,131
,1716,2023-10-27 11:03:15.98,224,-179,-2093,53,-12,7,-255,13,-268,121
,1717,2023-10-27 11:03:15.99,188,-158,-2079,58,-28,9,-235,-52,-183,143
,1718,2023-10-27 11:03:16.00,227,-178,-2049,48,-31,11,-255,10,-265,122
