// Data mode  : Full
// Data quality  : High
// Acceleration sensor's range  : 16g
// Gyroscope sensor's range  : 2000dps
//
//ARTIFACT,NUM,DATE,ACC_X,ACC_Y,ACC_Z,GYRO_X,GYRO_Y,GYRO_Z,EOG_L,EOG_R,EOG_H,EOG_V
,1,2023-10-20 13:27:12.83,113,-98,-2048,8,-19,59,-871,-858,-13,864
,2,2023-10-20 13:27:12.84,126,-104,-2068,1,-15,70,-958,-905,-53,931
,3,2023-10-20 13:27:12.85,116,-83,-2055,-11,-2,71,-912,-858,-54,885
,4,2023-10-20 13:27:12.86,109,-83,-2076,-25,5,71,-994,-902,-92,948
,5,2023-10-20 13:27:12.87,114,-77,-2068,-27,2,70,-944,-856,-88,900
,6,2023-10-20 13:27:12.88,113,-99,-2068,-26,5,72,-1024,-854,-170,939
,7,2023-10-20 13:27:12.89,111,-82,-2075,-19,-5,74,-968,-781,-187,874
,8,2023-10-20 13:27:12.90,106,-90,-2072,-24,-7,71,-1047,-768,-279,907
,9,2023-10-20 13:27:12.91,122,-72,-2053,-26,2,66,-990,-709,-281,849
,10,2023-10-20 13:27:12.92,121,-106,-2052,-19,25,73,-1068,-687,-381,877
,11,2023-10-20 13:27:12.93,102,-117,-2054,-8,5,95,-1007,-628,-379,817
,12,2023-10-20 13:27:12.94,109,-83,-2077,5,-16,93,-1062,-610,-452,836
,13,2023-10-20 13:27:12.95,122,-74,-2072,16,-45,73,-980,-572,-408,776
,14,2023-10-20 13:27:12.96,127,-68,-2044,7,-20,58,-1007,-508,-499,757
,15,2023-10-20 13:27:12.97,118,-76,-2035,2,-7,50,-911,-447,-464,679
,16,2023-10-20 13:27:12.98,130,-72,-2028,5,0,41,-893,-459,-434,676
,17,2023-10-20 13:27:12.99,118,-84,-2020,20,12,26,-774,-481,-293,627
,18,2023-10-20 13:27:13.00,114,-85,-2033,38,14,14,-752,-491,-261,621
,19,2023-10-20 13:27:13.01,114,-104,-2048,24,13,19,-650,-482,-168,566
,20,2023-10-20 13:27:13.02,128,-113,-2062,-8,23,37,-604,-504,-100,554
,21,2023-10-20 13:27:13.03,119,-115,-2067,-17,13,58,-500,-522,22,511
,22,2023-10-20 13:27:13.04,121,-112,-2068,-26,6,71,-425,-558,133,491
,23,2023-10-20 13:27:13.05,127,-91,-2052,-25,7,79,-325,-566,241,445
,24,2023-10-20 13:27:13.06,130,-82,-2057,-15,4,78,-220,-649,429,434
,25,2023-10-20 13:27:13.07,134,-73,-2033,-17,4,78,-148,-689,541,418
,26,2023-10-20 13:27:13.08,104,-70,-2049,-17,15,71,-35,-660,625,347
,27,2023-10-20 13:27:13.09,124,-75,-2048,-15,15,59,-3,-605,602,304
,28,2023-10-20 13:27:13.10,115,-97,-2067,-17,17,52,103,-530,633,213
,29,2023-10-20 13:27:13.11,103,-102,-2065,-13,21,51,101,-493,594,196
,30,2023-10-20 13:27:13.12,103,-91,-2074,1,15,49,198,-554,752,178
,31,2023-10-20 13:27:13.13,106,-86,-2066,11,4,44,177,-600,777,211
,32,2023-10-20 13:27:13.14,111,-64,-2075,19,-4,34,310,-593,903,141
,33,2023-10-20 13:27:13.15,119,-59,-2038,20,-11,20,266,-557,823,145
,34,2023-10-20 13:27:13.16,117,-65,-2027,14,1,7,378,-592,970,107
,35,2023-10-20 13:27:13.17,129,-73,-2023,5,12,0,311,-619,930,154
,36,2023-10-20 13:27:13.18,130,-112,-2035,0,25,6,456,-669,1125,106
,37,2023-10-20 13:27:13.19,119,-97,-2063,6,33,11,376,-662,1038,143
,38,2023-10-20 13:27:13.20,119,-90,-2049,16,30,7,512,-659,1171,73
,39,2023-10-20 13:27:13.21,118,-89,-2034,15,29,4,403,-633,1036,115
,40,2023-10-20 13:27:13.22,113,-107,-2043,0,39,8,553,-667,1220,57
,41,2023-10-20 13:27:13.23,111,-120,-2051,-8,34,13,437,-666,1103,114
,42,2023-10-20 13:27:13.24,123,-120,-2044,-1,27,18,594,-643,1237,24
,43,2023-10-20 13:27:13.25,134,-99,-2060,-1,28,21,451,-604,1055,76
,44,2023-10-20 13:27:13.26,136,-101,-2044,5,29,22,606,-655,1261,24
,45,2023-10-20 13:27:13.27,142,-91,-2040,-1,36,24,460,-670,1130,105
,46,2023-10-20 13:27:13.28,135,-92,-2066,-13,52,23,625,-734,1359,54
,47,2023-10-20 13:27:13.29,132,-95,-2074,-19,47,26,472,-714,1186,121
,48,2023-10-20 13:27:13.30,136,-99,-2060,-20,47,33,651,-737,1388,43
,49,2023-10-20 13:27:13.31,134,-122,-2070,-26,52,50,481,-703,1184,111
,50,2023-10-20 13:27:13.32,144,-125,-2070,-32,46,75,648,-760,1408,56
,51,2023-10-20 13:27:13.33,130,-113,-2075,-34,45,100,479,-738,1217,129
,52,2023-10-20 13:27:13.34,137,-91,-2065,-33,41,114,673,-762,1435,44
,53,2023-10-20 13:27:13.35,129,-96,-2081,-25,36,128,490,-712,1202,111
,54,2023-10-20 13:27:13.36,138,-73,-2064,-17,22,135,681,-676,1357,-2
,55,2023-10-20 13:27:13.37,124,-56,-2058,-4,8,133,492,-627,1119,67
,56,2023-10-20 13:27:13.38,118,-38,-2054,4,-1,119,692,-697,1389,2
,57,2023-10-20 13:27:13.39,135,-35,-2039,7,-7,96,499,-705,1204,103
,58,2023-10-20 13:27:13.40,133,-53,-2036,9,2,73,704,-766,1470,31
,59,2023-10-20 13:27:13.41,136,-71,-2043,8,2,63,494,-741,1235,123
,60,2023-10-20 13:27:13.42,127,-72,-2050,15,4,56,679,-860,1539,90
,61,2023-10-20 13:27:13.43,121,-69,-2049,20,-2,41,483,-838,1321,177
,62,2023-10-20 13:27:13.44,117,-79,-2048,13,1,33,704,-881,1585,88
,63,2023-10-20 13:27:13.45,113,-97,-2056,12,3,32,501,-806,1307,152
,64,2023-10-20 13:27:13.46,117,-101,-2055,17,-9,41,709,-850,1559,70
,65,2023-10-20 13:27:13.47,129,-91,-2067,27,-10,49,507,-784,1291,138
,66,2023-10-20 13:27:13.48,128,-86,-2058,39,-17,52,719,-818,1537,49
,67,2023-10-20 13:27:13.49,134,-76,-2046,48,-14,53,506,-754,1260,124
,68,2023-10-20 13:27:13.50,119,-62,-2030,39,4,49,736,-757,1493,10
,69,2023-10-20 13:27:13.51,146,-80,-2040,31,19,42,517,-709,1226,96
,70,2023-10-20 13:27:13.52,123,-92,-2040,30,27,40,732,-836,1568,52
,71,2023-10-20 13:27:13.53,131,-102,-2058,44,30,39,507,-825,1332,159
,72,2023-10-20 13:27:13.54,132,-100,-2056,46,30,42,736,-862,1598,63
,73,2023-10-20 13:27:13.55,123,-107,-2057,41,28,47,514,-782,1296,134
,74,2023-10-20 13:27:13.56,128,-93,-2056,37,31,49,750,-788,1538,19
,75,2023-10-20 13:27:13.57,124,-101,-2059,34,29,52,515,-715,1230,100
,76,2023-10-20 13:27:13.58,133,-113,-2051,28,30,56,758,-707,1465,-25
,77,2023-10-20 13:27:13.59,115,-108,-2048,19,35,63,548,-670,1218,61
,78,2023-10-20 13:27:13.60,130,-109,-2047,21,33,66,793,-830,1623,18
,79,2023-10-20 13:27:13.61,123,-110,-2034,14,44,67,555,-843,1398,144
,80,2023-10-20 13:27:13.62,136,-76,-2037,7,54,67,780,-964,1744,92
,81,2023-10-20 13:27:13.63,137,-78,-2041,3,65,58,542,-903,1445,180
,82,2023-10-20 13:27:13.64,134,-98,-2044,6,67,50,776,-984,1760,104
,83,2023-10-20 13:27:13.65,139,-62,-2051,13,68,44,538,-890,1428,176
,84,2023-10-20 13:27:13.66,143,-87,-2048,21,67,33,781,-901,1682,60
,85,2023-10-20 13:27:13.67,143,-97,-2049,23,60,30,561,-812,1373,125
,86,2023-10-20 13:27:13.68,152,-98,-2047,16,67,30,798,-881,1679,41
,87,2023-10-20 13:27:13.69,128,-102,-2060,18,57,37,552,-835,1387,141
,88,2023-10-20 13:27:13.70,174,-90,-2046,33,31,41,782,-945,1727,81
,89,2023-10-20 13:27:13.71,167,-105,-2044,37,43,30,539,-899,1438,180
,90,2023-10-20 13:27:13.72,179,-135,-2040,18,45,47,768,-1001,1769,116
,91,2023-10-20 13:27:13.73,173,-152,-2040,10,74,72,533,-934,1467,200
,92,2023-10-20 13:27:13.74,160,-150,-2028,30,92,86,769,-1024,1793,127
,93,2023-10-20 13:27:13.75,141,-123,-2070,61,90,96,542,-951,1493,204
,94,2023-10-20 13:27:13.76,145,-87,-2085,57,59,103,776,-1031,1807,127
,95,2023-10-20 13:27:13.77,176,-80,-2066,33,35,108,540,-938,1478,199
,96,2023-10-20 13:27:13.78,172,-80,-2077,9,25,105,777,-977,1754,100
,97,2023-10-20 13:27:13.79,170,-86,-2062,2,19,101,553,-891,1444,169
,98,2023-10-20 13:27:13.80,175,-87,-2047,3,16,88,783,-958,1741,87
,99,2023-10-20 13:27:13.81,178,-81,-2047,12,15,73,560,-910,1470,175
,100,2023-10-20 13:27:13.82,176,-91,-2044,19,12,58,808,-1032,1840,112
,101,2023-10-20 13:27:13.83,172,-112,-2064,14,13,57,620,-980,1600,180
,102,2023-10-20 13:27:13.84,165,-116,-2064,13,13,61,869,-1039,1908,85
,103,2023-10-20 13:27:13.85,157,-106,-2055,14,0,67,671,-925,1596,127
,104,2023-10-20 13:27:13.86,157,-110,-2057,7,-11,71,902,-913,1815,5
,105,2023-10-20 13:27:13.87,160,-99,-2050,3,-3,74,692,-839,1531,73
,106,2023-10-20 13:27:13.88,153,-109,-2043,-7,-5,77,921,-917,1838,-2
,107,2023-10-20 13:27:13.89,171,-81,-2054,-12,-5,71,752,-914,1666,81
,108,2023-10-20 13:27:13.90,160,-100,-2045,-8,-5,68,968,-1048,2016,40
,109,2023-10-20 13:27:13.91,150,-109,-2053,-10,-6,64,756,-1021,1777,132
,110,2023-10-20 13:27:13.92,172,-92,-2033,-9,-5,67,952,-1103,2055,75
,111,2023-10-20 13:27:13.93,180,-125,-2016,-15,-1,74,807,-998,1805,95
,112,2023-10-20 13:27:13.94,190,-123,-2038,-34,26,96,992,-954,1946,-19
,113,2023-10-20 13:27:13.95,164,-119,-2068,-37,36,120,747,-846,1593,49
,114,2023-10-20 13:27:13.96,169,-113,-2087,-29,31,141,906,-884,1790,-11
,115,2023-10-20 13:27:13.97,155,-112,-2086,-22,19,160,732,-812,1544,40
,116,2023-10-20 13:27:13.98,165,-91,-2079,-27,15,178,918,-782,1700,-68
,117,2023-10-20 13:27:13.99,168,-87,-2063,-24,6,184,723,-756,1479,16
,118,2023-10-20 13:27:14.00,173,-89,-2036,-12,-1,187,913,-870,1783,-21
,119,2023-10-20 13:27:14.01,180,-75,-2021,-2,-4,185,788,-928,1716,70
,120,2023-10-20 13:27:14.02,189,-51,-2028,-4,14,173,953,-1066,2019,56
,121,2023-10-20 13:27:14.03,191,-89,-2059,5,23,172,744,-1015,1759,135
,122,2023-10-20 13:27:14.04,161,-107,-2048,19,17,178,890,-1008,1898,59
,123,2023-10-20 13:27:14.05,152,-73,-2066,28,10,181,724,-933,1657,104
,124,2023-10-20 13:27:14.06,169,-76,-2084,23,-12,191,887,-976,1863,44
,125,2023-10-20 13:27:14.07,183,-80,-2064,9,-22,193,748,-961,1709,106
,126,2023-10-20 13:27:14.08,176,-70,-2068,10,-29,194,898,-1022,1920,62
,127,2023-10-20 13:27:14.09,173,-79,-2038,16,-26,195,744,-992,1736,124
,128,2023-10-20 13:27:14.10,178,-87,-2059,31,-34,198,884,-1033,1917,74
,129,2023-10-20 13:27:14.11,169,-70,-2056,43,-41,194,758,-964,1722,103
,130,2023-10-20 13:27:14.12,171,-76,-2052,50,-41,190,888,-941,1829,26
,131,2023-10-20 13:27:14.13,159,-75,-2052,40,-30,187,749,-903,1652,77
,132,2023-10-20 13:27:14.14,159,-81,-2056,36,-25,188,873,-950,1823,38
,133,2023-10-20 13:27:14.15,148,-107,-2053,34,-21,184,768,-988,1756,110
,134,2023-10-20 13:27:14.16,145,-116,-2037,36,-25,187,902,-1081,1983,89
,135,2023-10-20 13:27:14.17,138,-107,-2034,39,-24,189,853,-1094,1947,120
,136,2023-10-20 13:27:14.18,144,-111,-2044,42,-27,193,956,-1121,2077,82
,137,2023-10-20 13:27:14.19,161,-114,-2034,43,-29,196,883,-1073,1956,95
,138,2023-10-20 13:27:14.20,141,-105,-2045,40,-22,191,951,-1065,2016,57
,139,2023-10-20 13:27:14.21,139,-119,-2049,42,-27,193,864,-986,1850,61
,140,2023-10-20 13:27:14.22,161,-141,-2039,34,-22,195,926,-946,1872,10
,141,2023-10-20 13:27:14.23,125,-132,-2047,38,-25,198,843,-975,1818,66
,142,2023-10-20 13:27:14.24,137,-128,-2075,40,-21,205,911,-1062,1973,75
,143,2023-10-20 13:27:14.25,132,-147,-2073,44,-33,215,862,-1072,1934,105
,144,2023-10-20 13:27:14.26,133,-151,-2068,50,-28,228,907,-1065,1972,79
,145,2023-10-20 13:27:14.27,118,-139,-2067,51,-38,234,817,-1062,1879,122
,146,2023-10-20 13:27:14.28,128,-123,-2072,48,-37,236,858,-1088,1946,115
,147,2023-10-20 13:27:14.29,128,-105,-2076,38,-32,235,808,-1073,1881,132
,148,2023-10-20 13:27:14.30,119,-84,-2092,36,-43,233,857,-1054,1911,98
,149,2023-10-20 13:27:14.31,104,-88,-2101,21,-34,234,833,-1054,1887,110
,150,2023-10-20 13:27:14.32,146,-124,-2022,33,-49,215,886,-1065,1951,89
,151,2023-10-20 13:27:14.33,117,-135,-1979,71,-4,210,869,-1077,1946,104
,152,2023-10-20 13:27:14.34,96,-117,-2011,74,6,200,887,-1071,1958,92
,153,2023-10-20 13:27:14.35,117,-86,-2071,40,-15,204,872,-1077,1949,102
,154,2023-10-20 13:27:14.36,138,-137,-2059,5,-23,232,896,-1072,1968,88
,155,2023-10-20 13:27:14.37,133,-171,-2061,4,-14,249,940,-1087,2027,73
,156,2023-10-20 13:27:14.38,141,-156,-2027,15,-2,249,931,-1074,2005,71
,157,2023-10-20 13:27:14.39,161,-177,-2031,26,7,257,944,-1049,1993,52
,158,2023-10-20 13:27:14.40,154,-135,-2013,43,22,260,899,-995,1894,48
,159,2023-10-20 13:27:14.41,141,-126,-2048,69,22,250,888,-1017,1905,64
,160,2023-10-20 13:27:14.42,146,-100,-2069,71,26,241,904,-1034,1938,65
,161,2023-10-20 13:27:14.43,153,-105,-2069,61,18,228,1035,-978,2013,-28
,162,2023-10-20 13:27:14.44,151,-67,-2042,51,10,215,953,-860,1813,-46
,163,2023-10-20 13:27:14.45,160,-89,-2050,38,1,197,918,-654,1572,-132
,164,2023-10-20 13:27:14.46,148,-125,-2024,29,-8,187,830,-479,1309,-175
,165,2023-10-20 13:27:14.47,162,-89,-2047,10,-7,172,832,-597,1429,-117
,166,2023-10-20 13:27:14.48,160,-116,-2066,11,-10,161,839,-786,1625,-26
,167,2023-10-20 13:27:14.49,170,-122,-2063,26,-27,150,990,-952,1942,-19
,168,2023-10-20 13:27:14.50,168,-115,-2057,28,-36,137,911,-967,1878,28
,169,2023-10-20 13:27:14.51,150,-101,-2064,29,-49,132,934,-961,1895,13
,170,2023-10-20 13:27:14.52,158,-98,-2069,18,-53,118,823,-903,1726,40
,171,2023-10-20 13:27:14.53,146,-99,-2074,9,-60,104,874,-919,1793,22
,172,2023-10-20 13:27:14.54,147,-102,-2069,12,-65,84,805,-894,1699,44
,173,2023-10-20 13:27:14.55,135,-84,-2038,19,-74,64,867,-899,1766,16
,174,2023-10-20 13:27:14.56,156,-113,-2038,-2,-64,43,783,-861,1644,39
,175,2023-10-20 13:27:14.57,147,-138,-2035,-9,-42,33,840,-962,1802,61
,176,2023-10-20 13:27:14.58,151,-141,-2040,4,-49,44,760,-979,1739,109
,177,2023-10-20 13:27:14.59,162,-138,-2048,-4,-54,55,845,-1050,1895,102
,178,2023-10-20 13:27:14.60,154,-152,-2060,-15,-43,68,771,-1008,1779,118
,179,2023-10-20 13:27:14.61,136,-140,-2068,-10,-33,79,886,-1098,1984,106
,180,2023-10-20 13:27:14.62,129,-131,-2065,-19,-20,85,804,-1068,1872,132
,181,2023-10-20 13:27:14.63,110,-143,-2084,-17,-29,98,945,-1061,2006,58
,182,2023-10-20 13:27:14.64,115,-118,-2080,-11,-45,107,811,-957,1768,73
,183,2023-10-20 13:27:14.65,103,-109,-2060,-18,-44,104,904,-912,1816,4
,184,2023-10-20 13:27:14.66,99,-111,-2052,-7,-51,106,774,-836,1610,31
,185,2023-10-20 13:27:14.67,94,-107,-2037,-5,-52,99,912,-943,1855,15
,186,2023-10-20 13:27:14.68,102,-79,-2034,-2,-49,76,803,-951,1754,74
,187,2023-10-20 13:27:14.69,111,-84,-2015,6,-49,58,958,-1016,1974,29
,188,2023-10-20 13:27:14.70,103,-86,-2019,13,-39,42,821,-945,1766,62
,189,2023-10-20 13:27:14.71,96,-78,-2029,18,-31,36,954,-888,1842,-33
,190,2023-10-20 13:27:14.72,70,-82,-2052,30,-35,22,797,-788,1585,-4
,191,2023-10-20 13:27:14.73,74,-90,-2038,27,-42,6,941,-795,1736,-73
,192,2023-10-20 13:27:14.74,91,-105,-2050,17,-43,-6,777,-768,1545,-4
,193,2023-10-20 13:27:14.75,67,-122,-2053,25,-51,-9,926,-818,1744,-54
,194,2023-10-20 13:27:14.76,65,-102,-2048,37,-63,-11,763,-794,1557,15
,195,2023-10-20 13:27:14.77,80,-112,-2045,37,-65,-15,916,-952,1868,18
,196,2023-10-20 13:27:14.78,77,-135,-2067,34,-60,-11,802,-969,1771,83
,197,2023-10-20 13:27:14.79,55,-133,-2073,42,-61,-8,1053,-901,1954,-76
,198,2023-10-20 13:27:14.80,65,-118,-2059,48,-62,-8,829,-743,1572,-43
,199,2023-10-20 13:27:14.81,67,-115,-2063,46,-59,-8,950,-495,1445,-227
,200,2023-10-20 13:27:14.82,72,-116,-2051,36,-43,-8,726,-357,1083,-184
,201,2023-10-20 13:27:14.83,62,-125,-2065,29,-35,-8,881,-203,1084,-339
,202,2023-10-20 13:27:14.84,67,-132,-2067,31,-37,-9,685,-206,891,-239
,203,2023-10-20 13:27:14.85,53,-136,-2067,31,-40,-3,839,-64,903,-387
,204,2023-10-20 13:27:14.86,60,-141,-2064,24,-35,1,637,-90,727,-273
,205,2023-10-20 13:27:14.87,59,-140,-2062,20,-28,8,804,103,701,-453
,206,2023-10-20 13:27:14.88,56,-140,-2062,24,-26,11,608,47,561,-327
,207,2023-10-20 13:27:14.89,67,-139,-2037,29,-38,12,772,-424,1196,-174
,208,2023-10-20 13:27:14.90,64,-135,-2050,25,-30,17,608,-744,1352,68
,209,2023-10-20 13:27:14.91,68,-151,-2046,34,-27,26,796,-1062,1858,133
,210,2023-10-20 13:27:14.92,62,-159,-2049,39,-26,30,631,-1049,1680,209
,211,2023-10-20 13:27:14.93,54,-158,-2041,44,-27,38,870,-1118,1988,124
,212,2023-10-20 13:27:14.94,69,-147,-2040,45,-21,41,778,-994,1772,108
,213,2023-10-20 13:27:14.95,71,-150,-2024,46,-15,46,1071,-1059,2130,-6
,214,2023-10-20 13:27:14.96,66,-153,-2024,46,-8,42,914,-984,1898,35
,215,2023-10-20 13:27:14.97,77,-145,-2034,52,3,42,1165,-1017,2182,-74
,216,2023-10-20 13:27:14.98,72,-151,-2047,58,4,41,845,-893,1738,24
,217,2023-10-20 13:27:14.99,81,-155,-2047,55,15,40,1006,-761,1767,-122
,218,2023-10-20 13:27:15.00,78,-164,-2066,57,19,44,732,-621,1353,-55
,219,2023-10-20 13:27:15.01,84,-152,-2069,54,10,46,937,-391,1328,-273
,220,2023-10-20 13:27:15.02,85,-164,-2074,48,9,52,690,-290,980,-200
,221,2023-10-20 13:27:15.03,86,-154,-2064,46,3,54,898,-62,960,-418
,222,2023-10-20 13:27:15.04,85,-155,-2061,40,0,58,646,-70,716,-288
,223,2023-10-20 13:27:15.05,75,-156,-2059,31,3,59,850,82,768,-466
,224,2023-10-20 13:27:15.06,84,-147,-2068,26,-4,62,605,-8,613,-298
,225,2023-10-20 13:27:15.07,67,-159,-2060,22,-5,62,819,156,663,-487
,226,2023-10-20 13:27:15.08,83,-162,-2069,21,-10,64,578,58,520,-318
,227,2023-10-20 13:27:15.09,78,-156,-2056,13,-10,64,796,170,626,-483
,228,2023-10-20 13:27:15.10,73,-154,-2046,9,-13,64,555,29,526,-292
,229,2023-10-20 13:27:15.11,66,-149,-2039,7,-11,62,784,184,600,-484
,230,2023-10-20 13:27:15.12,75,-140,-2047,4,-6,60,542,59,483,-300
,231,2023-10-20 13:27:15.13,72,-146,-2040,6,-8,62,764,124,640,-444
,232,2023-10-20 13:27:15.14,75,-162,-2045,8,2,54,503,-84,587,-209
,233,2023-10-20 13:27:15.15,65,-120,-2036,15,3,40,716,-632,1348,-42
,234,2023-10-20 13:27:15.16,69,-134,-2047,8,15,31,562,-904,1466,171
,235,2023-10-20 13:27:15.17,60,-139,-2034,13,9,23,848,-1153,2001,152
,236,2023-10-20 13:27:15.18,63,-165,-2039,22,15,23,620,-1048,1668,214
,237,2023-10-20 13:27:15.19,63,-127,-2038,12,23,13,845,-1012,1857,83
,238,2023-10-20 13:27:15.20,75,-154,-2035,19,25,9,606,-891,1497,142
,239,2023-10-20 13:27:15.21,71,-149,-2028,28,18,15,842,-1050,1892,104
,240,2023-10-20 13:27:15.22,81,-150,-2057,31,8,25,615,-997,1612,191
,241,2023-10-20 13:27:15.23,71,-157,-2030,26,14,30,859,-1028,1887,84
,242,2023-10-20 13:27:15.24,80,-149,-2042,30,9,32,609,-936,1545,163
,243,2023-10-20 13:27:15.25,72,-145,-2059,22,10,37,846,-1094,1940,124
,244,2023-10-20 13:27:15.26,97,-152,-2047,22,11,42,606,-1051,1657,222
,245,2023-10-20 13:27:15.27,96,-141,-2059,16,6,47,867,-1152,2019,142
,246,2023-10-20 13:27:15.28,106,-134,-2061,0,10,49,682,-1033,1715,175
,247,2023-10-20 13:27:15.29,103,-139,-2058,-3,21,53,946,-1057,2003,55
,248,2023-10-20 13:27:15.30,103,-135,-2062,-3,13,57,727,-950,1677,111
,249,2023-10-20 13:27:15.31,97,-125,-2072,-9,21,60,961,-1039,2000,39
,250,2023-10-20 13:27:15.32,105,-122,-2076,5,13,71,728,-972,1700,122
,251,2023-10-20 13:27:15.33,88,-123,-2079,18,-8,88,963,-1067,2030,52
,252,2023-10-20 13:27:15.34,84,-111,-2080,15,-16,101,760,-1003,1763,121
,253,2023-10-20 13:27:15.35,93,-115,-2079,5,-16,115,992,-1122,2114,65
,254,2023-10-20 13:27:15.36,82,-114,-2073,0,-23,125,728,-1055,1783,163
,255,2023-10-20 13:27:15.37,86,-106,-2071,-4,-26,122,928,-1147,2075,109
,256,2023-10-20 13:27:15.38,81,-123,-2068,2,-29,126,669,-1039,1708,185
,257,2023-10-20 13:27:15.39,58,-109,-2069,17,-49,125,896,-1065,1961,84
,258,2023-10-20 13:27:15.40,70,-89,-2045,33,-51,111,705,-948,1653,121
,259,2023-10-20 13:27:15.41,55,-113,-2051,36,-36,92,942,-959,1901,8
,260,2023-10-20 13:27:15.42,58,-131,-2043,51,-38,84,713,-858,1571,72
,261,2023-10-20 13:27:15.43,35,-78,-2050,56,-45,65,919,-862,1781,-28
,262,2023-10-20 13:27:15.44,45,-92,-2056,62,-56,52,700,-849,1549,74
,263,2023-10-20 13:27:15.45,33,-83,-2051,56,-47,36,914,-1030,1944,58
,264,2023-10-20 13:27:15.46,56,-87,-2051,57,-55,11,710,-1011,1721,150
,265,2023-10-20 13:27:15.47,38,-94,-2038,59,-51,-11,921,-1057,1978,68
,266,2023-10-20 13:27:15.48,49,-103,-2033,62,-42,-30,714,-992,1706,139
,267,2023-10-20 13:27:15.49,53,-96,-2049,62,-43,-53,920,-1105,2025,92
,268,2023-10-20 13:27:15.50,57,-89,-2036,69,-47,-70,719,-1063,1782,172
,269,2023-10-20 13:27:15.51,53,-100,-2025,74,-49,-88,924,-1130,2054,103
,270,2023-10-20 13:27:15.52,76,-127,-2039,69,-58,-94,758,-1050,1808,146
,271,2023-10-20 13:27:15.53,61,-140,-2039,66,-52,-99,966,-1112,2078,73
,272,2023-10-20 13:27:15.54,61,-148,-2041,79,-41,-108,832,-1023,1855,95
,273,2023-10-20 13:27:15.55,78,-155,-2053,88,-44,-102,1004,-1021,2025,8
,274,2023-10-20 13:27:15.56,67,-185,-2049,87,-51,-85,759,-914,1673,77
,275,2023-10-20 13:27:15.57,63,-198,-2070,91,-45,-61,908,-912,1820,2
,276,2023-10-20 13:27:15.58,60,-176,-2081,89,-33,-38,721,-918,1639,98
,277,2023-10-20 13:27:15.59,55,-211,-2080,95,-39,-16,902,-1058,1960,78
,278,2023-10-20 13:27:15.60,65,-198,-2070,108,-46,8,738,-1068,1806,165
,279,2023-10-20 13:27:15.61,50,-176,-2064,120,-39,27,916,-1141,2057,112
,280,2023-10-20 13:27:15.62,59,-174,-2087,128,-42,33,796,-1046,1842,125
,281,2023-10-20 13:27:15.63,63,-178,-2052,122,-42,38,947,-1006,1953,29
,282,2023-10-20 13:27:15.64,60,-167,-2046,117,-35,41,758,-933,1691,87
,283,2023-10-20 13:27:15.65,52,-172,-2054,103,-21,44,888,-980,1868,46
,284,2023-10-20 13:27:15.66,54,-185,-2044,98,-20,42,713,-990,1703,138
,285,2023-10-20 13:27:15.67,38,-202,-2050,107,-23,46,866,-1077,1943,105
,286,2023-10-20 13:27:15.68,36,-204,-2044,115,-35,51,758,-1065,1823,153
,287,2023-10-20 13:27:15.69,42,-206,-2043,115,-35,43,916,-1111,2027,97
,288,2023-10-20 13:27:15.70,22,-209,-2059,112,-33,39,826,-1059,1885,116
,289,2023-10-20 13:27:15.71,26,-193,-2043,105,-33,34,942,-1062,2004,60
,290,2023-10-20 13:27:15.72,33,-183,-2050,93,-36,25,816,-1024,1840,104
,291,2023-10-20 13:27:15.73,48,-213,-2034,80,-33,21,921,-1064,1985,71
,292,2023-10-20 13:27:15.74,37,-216,-2011,74,-23,16,829,-995,1824,83
,293,2023-10-20 13:27:15.75,53,-215,-2011,70,-14,4,914,-948,1862,17
,294,2023-10-20 13:27:15.76,34,-241,-2026,70,-3,-1,781,-953,1734,86
,295,2023-10-20 13:27:15.77,58,-238,-2029,72,-7,-8,870,-1038,1908,84
,296,2023-10-20 13:27:15.78,51,-234,-2035,73,3,-10,787,-1051,1838,132
,297,2023-10-20 13:27:15.79,49,-227,-2053,70,4,-7,874,-1066,1940,96
,298,2023-10-20 13:27:15.80,46,-231,-2051,65,-8,-6,783,-981,1764,99
,299,2023-10-20 13:27:15.81,53,-235,-2058,70,-20,-4,851,-922,1773,35
,300,2023-10-20 13:27:15.82,48,-221,-2069,67,-24,-2,743,-934,1677,95
,301,2023-10-20 13:27:15.83,43,-227,-2050,51,-29,-3,825,-996,1821,85
,302,2023-10-20 13:27:15.84,49,-214,-2052,44,-35,-4,792,-1029,1821,118
,303,2023-10-20 13:27:15.85,40,-267,-2038,42,-39,1,865,-1045,1910,90
,304,2023-10-20 13:27:15.86,52,-254,-2036,44,-27,7,809,-981,1790,86
,305,2023-10-20 13:27:15.87,32,-244,-2039,49,-24,9,847,-916,1763,34
,306,2023-10-20 13:27:15.88,30,-256,-2042,52,-23,15,790,-913,1703,61
,307,2023-10-20 13:27:15.89,23,-248,-2028,48,-15,17,844,-951,1795,53
,308,2023-10-20 13:27:15.90,30,-256,-2045,40,-7,25,841,-927,1768,43
,309,2023-10-20 13:27:15.91,33,-247,-2047,47,-4,31,854,-879,1733,12
,310,2023-10-20 13:27:15.92,31,-246,-2036,53,-7,34,792,-936,1728,72
,311,2023-10-20 13:27:15.93,34,-239,-2036,58,3,37,813,-1004,1817,95
,312,2023-10-20 13:27:15.94,30,-252,-2054,63,18,41,839,-1089,1928,125
,313,2023-10-20 13:27:15.95,20,-235,-2037,65,19,37,866,-1104,1970,119
,314,2023-10-20 13:27:15.96,1,-209,-2029,68,26,33,890,-1066,1956,88
,315,2023-10-20 13:27:15.97,6,-222,-2062,57,13,32,868,-995,1863,63
,316,2023-10-20 13:27:15.98,5,-224,-2068,42,-10,30,856,-991,1847,67
,317,2023-10-20 13:27:15.99,21,-228,-2045,42,-15,31,832,-980,1812,74
,318,2023-10-20 13:27:16.00,19,-224,-2035,44,-14,24,856,-992,1848,68
,319,2023-10-20 13:27:16.01,19,-235,-2041,45,-19,24,832,-963,1795,65
,320,2023-10-20 13:27:16.02,24,-246,-2044,44,-19,28,871,-1036,1907,82
,321,2023-10-20 13:27:16.03,26,-243,-2033,42,-17,30,842,-1058,1900,108
,322,2023-10-20 13:27:16.04,32,-251,-2036,41,-12,35,909,-1074,1983,82
,323,2023-10-20 13:27:16.05,32,-243,-2027,37,0,39,824,-1011,1835,93
,324,2023-10-20 13:27:16.06,12,-236,-2029,35,5,38,828,-1057,1885,114
,325,2023-10-20 13:27:16.07,27,-241,-2042,35,5,28,790,-1046,1836,128
,326,2023-10-20 13:27:16.08,24,-235,-2039,35,4,25,896,-1102,1998,103
,327,2023-10-20 13:27:16.09,9,-242,-2052,37,6,19,834,-1068,1902,117
,328,2023-10-20 13:27:16.10,17,-238,-2047,35,-8,12,890,-1121,2011,115
,329,2023-10-20 13:27:16.11,29,-244,-2044,26,-12,2,798,-1076,1874,139
,330,2023-10-20 13:27:16.12,36,-245,-2039,14,-3,6,870,-1118,1988,124
,331,2023-10-20 13:27:16.13,35,-245,-2038,1,-2,16,801,-1064,1865,131
,332,2023-10-20 13:27:16.14,45,-259,-2041,-17,5,33,914,-1118,2032,102
,333,2023-10-20 13:27:16.15,26,-251,-2043,-31,12,55,818,-1067,1885,124
,334,2023-10-20 13:27:16.16,40,-257,-2057,-46,7,76,920,-1122,2042,101
,335,2023-10-20 13:27:16.17,33,-242,-2062,-46,7,89,809,-1064,1873,127
,336,2023-10-20 13:27:16.18,20,-241,-2058,-34,-2,102,925,-1125,2050,100
,337,2023-10-20 13:27:16.19,23,-234,-2064,-38,-5,105,824,-1063,1887,119
,338,2023-10-20 13:27:16.20,25,-234,-2066,-32,-12,108,976,-1128,2104,76
,339,2023-10-20 13:27:16.21,19,-215,-2063,-15,-23,111,825,-1065,1890,120
,340,2023-10-20 13:27:16.22,19,-192,-2071,-14,-24,96,937,-1138,2075,100
,341,2023-10-20 13:27:16.23,27,-199,-2040,-13,-19,86,807,-1071,1878,132
,342,2023-10-20 13:27:16.24,10,-215,-2055,-9,-11,80,966,-1139,2105,86
,343,2023-10-20 13:27:16.25,5,-227,-2039,-9,-21,79,848,-1063,1911,107
,344,2023-10-20 13:27:16.26,24,-254,-2042,-9,-9,90,1038,-1141,2179,51
,345,2023-10-20 13:27:16.27,10,-255,-2024,3,-4,109,871,-1063,1934,96
,346,2023-10-20 13:27:16.28,7,-215,-2033,8,-2,118,1036,-1145,2181,54
,347,2023-10-20 13:27:16.29,6,-215,-2044,7,-5,120,878,-1060,1938,91
,348,2023-10-20 13:27:16.30,25,-213,-2041,11,-6,112,1084,-1141,2225,28
,349,2023-10-20 13:27:16.31,14,-207,-2023,13,-4,104,912,-1054,1966,71
,350,2023-10-20 13:27:16.32,29,-193,-2021,24,-5,92,1111,-1139,2250,14
,351,2023-10-20 13:27:16.33,25,-202,-2029,15,6,77,921,-1050,1971,64
,352,2023-10-20 13:27:16.34,30,-207,-2031,17,8,69,1128,-1141,2269,6
,353,2023-10-20 13:27:16.35,22,-220,-2035,16,16,59,949,-1055,2004,53
,354,2023-10-20 13:27:16.36,27,-236,-2039,14,16,55,1175,-1174,2349,0
,355,2023-10-20 13:27:16.37,21,-232,-2044,24,16,58,957,-1082,2039,62
,356,2023-10-20 13:27:16.38,24,-230,-2048,33,8,63,1158,-1168,2326,5
,357,2023-10-20 13:27:16.39,31,-224,-2045,32,2,65,943,-1059,2002,58
,358,2023-10-20 13:27:16.40,22,-231,-2050,26,1,68,1164,-1170,2334,3
,359,2023-10-20 13:27:16.41,20,-231,-2043,27,-1,71,930,-1070,2000,70
,360,2023-10-20 13:27:16.42,44,-226,-2039,23,-7,74,1136,-1178,2314,21
,361,2023-10-20 13:27:16.43,47,-221,-2052,16,1,72,902,-1060,1962,79
,362,2023-10-20 13:27:16.44,39,-212,-2035,14,7,71,1113,-1127,2240,7
,363,2023-10-20 13:27:16.45,35,-217,-2053,13,4,71,863,-1011,1874,74
,364,2023-10-20 13:27:16.46,29,-226,-2052,10,2,70,1063,-1124,2187,30
,365,2023-10-20 13:27:16.47,21,-229,-2058,11,8,71,854,-1027,1881,86
,366,2023-10-20 13:27:16.48,22,-214,-2063,6,8,77,1090,-1125,2215,17
,367,2023-10-20 13:27:16.49,23,-237,-2064,10,-4,82,873,-1024,1897,75
,368,2023-10-20 13:27:16.50,3,-245,-2046,16,-6,91,1102,-1151,2253,24
,369,2023-10-20 13:27:16.51,19,-217,-2042,17,-12,92,873,-1050,1923,88
,370,2023-10-20 13:27:16.52,25,-225,-2058,10,-18,96,1105,-1162,2267,28
,371,2023-10-20 13:27:16.53,31,-225,-2040,7,-17,98,877,-1043,1920,83
,372,2023-10-20 13:27:16.54,25,-210,-2038,5,-11,99,1112,-1136,2248,12
,373,2023-10-20 13:27:16.55,29,-228,-2022,6,-2,100,880,-1021,1901,70
,374,2023-10-20 13:27:16.56,6,-188,-2034,4,10,89,1108,-1133,2241,12
,375,2023-10-20 13:27:16.57,40,-196,-2031,-2,10,82,886,-1029,1915,71
,376,2023-10-20 13:27:16.58,43,-201,-2038,-8,30,79,1125,-1155,2280,15
,377,2023-10-20 13:27:16.59,27,-220,-2035,-6,26,79,902,-1044,1946,71
,378,2023-10-20 13:27:16.60,28,-216,-2033,-4,26,79,1139,-1154,2293,7
,379,2023-10-20 13:27:16.61,36,-208,-2049,0,26,79,902,-1038,1940,68
,380,2023-10-20 13:27:16.62,47,-203,-2037,3,27,77,1131,-1150,2281,9
,381,2023-10-20 13:27:16.63,45,-197,-2026,4,23,76,933,-1031,1964,49
,382,2023-10-20 13:27:16.64,46,-193,-2051,4,24,73,1176,-1128,2304,-24
,383,2023-10-20 13:27:16.65,41,-204,-2053,5,11,71,938,-1010,1948,36
,384,2023-10-20 13:27:16.66,35,-202,-2062,7,3,70,1156,-1120,2276,-18
,385,2023-10-20 13:27:16.67,40,-198,-2051,-8,3,60,926,-1010,1936,42
,386,2023-10-20 13:27:16.68,39,-190,-2054,-13,2,60,1157,-1119,2276,-19
,387,2023-10-20 13:27:16.69,41,-243,-2057,-9,-2,62,932,-1012,1944,40
,388,2023-10-20 13:27:16.70,41,-198,-2045,7,-15,70,1162,-1123,2285,-19
,389,2023-10-20 13:27:16.71,28,-219,-2059,7,-4,64,969,-1016,1985,23
,390,2023-10-20 13:27:16.72,44,-221,-2048,3,-2,63,1203,-1124,2327,-39
,391,2023-10-20 13:27:16.73,33,-218,-2057,-3,11,60,972,-1017,1989,22
,392,2023-10-20 13:27:16.74,27,-226,-2049,10,9,61,1182,-1125,2307,-28
,393,2023-10-20 13:27:16.75,24,-235,-2052,17,7,63,926,-1019,1945,46
,394,2023-10-20 13:27:16.76,36,-217,-2044,24,6,64,1146,-1123,2269,-11
,395,2023-10-20 13:27:16.77,28,-204,-2040,32,1,67,922,-1010,1932,44
,396,2023-10-20 13:27:16.78,37,-216,-2043,34,1,66,1134,-1106,2240,-14
,397,2023-10-20 13:27:16.79,29,-226,-2048,42,-3,58,888,-1002,1890,57
,398,2023-10-20 13:27:16.80,30,-227,-2047,46,-9,60,1097,-1112,2209,7
,399,2023-10-20 13:27:16.81,33,-203,-2037,45,-12,54,868,-1016,1884,74
,400,2023-10-20 13:27:16.82,37,-227,-2041,43,-8,47,1093,-1124,2217,15
,401,2023-10-20 13:27:16.83,16,-207,-2052,37,0,37,939,-1021,1960,41
,402,2023-10-20 13:27:16.84,35,-213,-2045,47,-9,33,1171,-1122,2293,-24
,403,2023-10-20 13:27:16.85,19,-237,-2053,47,-10,31,976,-1014,1990,19
,404,2023-10-20 13:27:16.86,24,-238,-2043,46,-8,34,1165,-1109,2274,-28
,405,2023-10-20 13:27:16.87,19,-237,-2044,46,-6,31,966,-1013,1979,23
,406,2023-10-20 13:27:16.88,28,-248,-2038,48,-9,32,1152,-1116,2268,-18
,407,2023-10-20 13:27:16.89,31,-237,-2026,47,-7,30,977,-1035,2012,29
,408,2023-10-20 13:27:16.90,25,-238,-2030,47,-8,33,1159,-1154,2313,-2
,409,2023-10-20 13:27:16.91,32,-250,-2039,46,-6,39,983,-1050,2033,33
,410,2023-10-20 13:27:16.92,19,-237,-2040,40,-2,44,1152,-1124,2276,-14
,411,2023-10-20 13:27:16.93,16,-235,-2043,34,4,47,970,-1017,1987,23
,412,2023-10-20 13:27:16.94,23,-234,-2048,32,-2,53,1135,-1103,2238,-16
,413,2023-10-20 13:27:16.95,16,-233,-2051,25,-3,57,975,-1011,1986,18
,414,2023-10-20 13:27:16.96,17,-231,-2047,21,-1,61,1126,-1095,2221,-15
,415,2023-10-20 13:27:16.97,12,-232,-2044,20,-4,59,960,-1014,1974,27
,416,2023-10-20 13:27:16.98,25,-233,-2041,14,-8,57,1121,-1109,2230,-6
,417,2023-10-20 13:27:16.99,14,-235,-2037,12,-2,57,963,-1026,1989,31
,418,2023-10-20 13:27:17.00,24,-240,-2042,14,-3,57,1118,-1104,2222,-7
,419,2023-10-20 13:27:17.01,15,-229,-2044,17,-3,58,1009,-1018,2027,4
,420,2023-10-20 13:27:17.02,8,-237,-2053,20,-4,55,1152,-1096,2248,-28
,421,2023-10-20 13:27:17.03,12,-228,-2046,18,-5,52,997,-1020,2017,11
,422,2023-10-20 13:27:17.04,8,-220,-2049,16,-6,50,1097,-1099,2196,1
,423,2023-10-20 13:27:17.05,-2,-217,-2054,11,-2,44,952,-1028,1980,38
,424,2023-10-20 13:27:17.06,8,-206,-2055,11,-8,33,1097,-1105,2202,4
,425,2023-10-20 13:27:17.07,2,-197,-2065,12,-12,21,972,-1030,2002,29
,426,2023-10-20 13:27:17.08,-3,-210,-2061,13,-21,7,1080,-1098,2178,9
,427,2023-10-20 13:27:17.09,0,-210,-2048,9,-14,-9,904,-1032,1936,64
,428,2023-10-20 13:27:17.10,-8,-217,-2044,11,-15,-23,1018,-1099,2117,40
,429,2023-10-20 13:27:17.11,4,-242,-2042,19,-22,-31,918,-1032,1950,57
,430,2023-10-20 13:27:17.12,-12,-242,-2047,27,-21,-34,1053,-1089,2142,18
,431,2023-10-20 13:27:17.13,-1,-253,-2038,35,-20,-33,926,-1023,1949,48
,432,2023-10-20 13:27:17.14,-14,-256,-2034,36,-9,-28,1014,-1077,2091,31
,433,2023-10-20 13:27:17.15,-10,-270,-2017,39,-6,-20,945,-1024,1969,39
,434,2023-10-20 13:27:17.16,-2,-257,-2026,41,-7,-14,1064,-1082,2146,9
,435,2023-10-20 13:27:17.17,-6,-247,-2053,43,-2,-11,1066,-1039,2105,-13
,436,2023-10-20 13:27:17.18,-4,-228,-2034,43,4,-12,1122,-1095,2217,-13
,437,2023-10-20 13:27:17.19,12,-233,-2023,35,6,-18,1019,-1047,2066,14
,438,2023-10-20 13:27:17.20,-17,-246,-2038,30,13,-19,1057,-1091,2148,17
,439,2023-10-20 13:27:17.21,-13,-239,-2048,22,24,-26,978,-1042,2020,32
,440,2023-10-20 13:27:17.22,-17,-266,-2064,15,20,-25,1050,-1082,2132,16
,441,2023-10-20 13:27:17.23,-16,-259,-2056,19,2,-16,1060,-1044,2104,-8
,442,2023-10-20 13:27:17.24,-10,-270,-2057,22,-2,-9,1101,-1083,2184,-9
,443,2023-10-20 13:27:17.25,-18,-244,-2030,16,2,-11,1052,-1043,2095,-4
,444,2023-10-20 13:27:17.26,-6,-236,-2036,16,0,-10,1069,-1067,2136,-1
,445,2023-10-20 13:27:17.27,0,-240,-2024,9,6,-13,1065,-1036,2101,-14
,446,2023-10-20 13:27:17.28,-3,-245,-2024,0,19,-18,1081,-1065,2146,-8
,447,2023-10-20 13:27:17.29,-7,-253,-2037,-1,20,-16,1063,-1052,2115,-5
,448,2023-10-20 13:27:17.30,-6,-265,-2043,-4,23,-18,1062,-1082,2144,10
,449,2023-10-20 13:27:17.31,-5,-257,-2045,-1,29,-15,1045,-1058,2103,6
,450,2023-10-20 13:27:17.32,-12,-243,-2042,-8,33,-15,1055,-1069,2124,7
,451,2023-10-20 13:27:17.33,-2,-263,-2061,-8,31,-12,1067,-1046,2113,-10
,452,2023-10-20 13:27:17.34,0,-254,-2040,-7,20,-10,1060,-1058,2118,-1
,453,2023-10-20 13:27:17.35,-3,-247,-2040,-9,21,-4,1082,-1045,2127,-18
,454,2023-10-20 13:27:17.36,12,-248,-2036,-13,18,0,1066,-1054,2120,-6
,455,2023-10-20 13:27:17.37,12,-247,-2038,-9,19,1,1100,-1063,2163,-18
,456,2023-10-20 13:27:17.38,8,-237,-2038,-7,18,0,1056,-1078,2134,11
,457,2023-10-20 13:27:17.39,0,-241,-2046,-5,17,0,1078,-1076,2154,-1
,458,2023-10-20 13:27:17.40,10,-229,-2045,-7,18,-7,1042,-1074,2116,16
,459,2023-10-20 13:27:17.41,14,-227,-2046,-14,25,-9,1093,-1064,2157,-14
,460,2023-10-20 13:27:17.42,-5,-252,-2041,-18,20,-8,1048,-1054,2102,3
,461,2023-10-20 13:27:17.43,-5,-251,-2044,-10,14,-4,1101,-1086,2187,-7
,462,2023-10-20 13:27:17.44,15,-248,-2049,-8,15,1,1039,-1092,2131,26
,463,2023-10-20 13:27:17.45,9,-241,-2029,-11,14,6,1104,-1110,2214,3
,464,2023-10-20 13:27:17.46,16,-224,-2040,-12,20,6,1041,-1089,2130,24
,465,2023-10-20 13:27:17.47,23,-221,-2036,-13,26,0,1113,-1075,2188,-19
,466,2023-10-20 13:27:17.48,11,-219,-2055,-15,28,-4,1034,-1039,2073,2
,467,2023-10-20 13:27:17.49,25,-224,-2059,-15,29,-10,1112,-1052,2164,-30
,468,2023-10-20 13:27:17.50,8,-229,-2065,-11,19,-16,1026,-1034,2060,4
,469,2023-10-20 13:27:17.51,18,-227,-2061,1,1,-18,1129,-1062,2191,-33
,470,2023-10-20 13:27:17.52,23,-227,-2058,2,-1,-22,1034,-1040,2074,3
,471,2023-10-20 13:27:17.53,16,-234,-2051,3,2,-33,1113,-1080,2193,-16
,472,2023-10-20 13:27:17.54,18,-227,-2032,10,-4,-36,994,-1055,2049,30
,473,2023-10-20 13:27:17.55,20,-236,-2031,15,-6,-37,1051,-1109,2160,29
,474,2023-10-20 13:27:17.56,15,-252,-2027,10,3,-36,947,-1077,2024,65
,475,2023-10-20 13:27:17.57,16,-249,-2028,9,15,-32,1031,-1107,2138,38
,476,2023-10-20 13:27:17.58,17,-252,-2023,9,10,-20,955,-1049,2004,47
,477,2023-10-20 13:27:17.59,13,-254,-2031,1,17,-12,1054,-1081,2135,13
,478,2023-10-20 13:27:17.60,23,-244,-2031,-6,27,-1,965,-1033,1998,34
,479,2023-10-20 13:27:17.61,19,-241,-2031,-18,31,6,1113,-1077,2190,-18
,480,2023-10-20 13:27:17.62,25,-233,-2036,-22,38,16,991,-1029,2020,19
,481,2023-10-20 13:27:17.63,29,-229,-2050,-38,48,17,1101,-1065,2166,-18
,482,2023-10-20 13:27:17.64,29,-243,-2056,-38,47,27,964,-1010,1974,23
,483,2023-10-20 13:27:17.65,31,-238,-2055,-24,38,37,1116,-1078,2194,-19
,484,2023-10-20 13:27:17.66,29,-225,-2055,-16,28,44,995,-1031,2026,18
,485,2023-10-20 13:27:17.67,39,-226,-2062,-19,29,45,1163,-1085,2248,-39
,486,2023-10-20 13:27:17.68,41,-212,-2066,-15,27,51,1004,-1021,2025,8
,487,2023-10-20 13:27:17.69,25,-211,-2057,-16,27,50,1157,-1084,2241,-36
,488,2023-10-20 13:27:17.70,33,-208,-2056,-22,25,51,988,-1025,2013,18
,489,2023-10-20 13:27:17.71,36,-210,-2063,-20,17,49,1159,-1119,2278,-20
,490,2023-10-20 13:27:17.72,38,-205,-2060,-12,8,52,974,-1059,2033,42
,491,2023-10-20 13:27:17.73,40,-209,-2064,-18,13,47,1128,-1114,2242,-7
,492,2023-10-20 13:27:17.74,18,-208,-2059,-20,10,46,961,-1029,1990,34
,493,2023-10-20 13:27:17.75,17,-214,-2054,-19,4,45,1139,-1088,2227,-25
,494,2023-10-20 13:27:17.76,34,-214,-2040,-17,2,41,958,-1013,1971,27
,495,2023-10-20 13:27:17.77,21,-231,-2044,-5,-5,39,1132,-1080,2212,-26
,496,2023-10-20 13:27:17.78,25,-200,-2018,5,-4,34,962,-1007,1969,22
,497,2023-10-20 13:27:17.79,37,-230,-2012,13,2,27,1170,-1088,2258,-41
,498,2023-10-20 13:27:17.80,31,-228,-2016,23,9,22,972,-1015,1987,21
,499,2023-10-20 13:27:17.81,35,-216,-2022,26,12,23,1121,-1095,2216,-13
,500,2023-10-20 13:27:17.82,24,-255,-2038,25,16,16,899,-1015,1914,58
,501,2023-10-20 13:27:17.83,42,-248,-2043,25,13,17,1079,-1105,2184,13
,502,2023-10-20 13:27:17.84,41,-226,-2043,25,11,16,916,-1022,1938,53
,503,2023-10-20 13:27:17.85,53,-214,-2046,21,2,20,1145,-1096,2241,-24
,504,2023-10-20 13:27:17.86,43,-215,-2046,9,13,21,953,-1005,1958,26
,505,2023-10-20 13:27:17.87,38,-230,-2055,-2,15,27,1133,-1093,2226,-20
,506,2023-10-20 13:27:17.88,52,-216,-2061,-7,8,38,902,-1009,1911,53
,507,2023-10-20 13:27:17.89,53,-221,-2060,-14,0,50,1100,-1108,2208,4
,508,2023-10-20 13:27:17.90,68,-207,-2063,-19,3,62,923,-1017,1940,47
,509,2023-10-20 13:27:17.91,43,-218,-2069,-13,-5,68,1148,-1110,2258,-19
,510,2023-10-20 13:27:17.92,49,-206,-2058,-2,-12,71,931,-1013,1944,41
,511,2023-10-20 13:27:17.93,45,-194,-2058,15,-21,68,1153,-1120,2273,-16
,512,2023-10-20 13:27:17.94,50,-193,-2049,30,-26,61,946,-1024,1970,39
,513,2023-10-20 13:27:17.95,47,-202,-2072,22,-14,60,1180,-1141,2321,-19
,514,2023-10-20 13:27:17.96,29,-203,-2054,32,-18,66,922,-1035,1957,56
,515,2023-10-20 13:27:17.97,20,-188,-2059,51,-46,68,1119,-1120,2239,0
,516,2023-10-20 13:27:17.98,21,-204,-2050,44,-45,60,912,-1008,1920,48
,517,2023-10-20 13:27:17.99,16,-200,-2051,30,-37,56,1182,-1104,2286,-39
,518,2023-10-20 13:27:18.00,13,-211,-2022,26,-42,58,954,-999,1953,22
,519,2023-10-20 13:27:18.01,23,-210,-2030,19,-28,56,1184,-1100,2284,-42
,520,2023-10-20 13:27:18.02,20,-218,-2013,16,-26,59,945,-996,1941,25
,521,2023-10-20 13:27:18.03,24,-211,-2008,14,-7,58,1181,-1101,2282,-40
,522,2023-10-20 13:27:18.04,32,-209,-2007,12,6,58,956,-996,1952,20
,523,2023-10-20 13:27:18.05,30,-215,-2020,17,8,62,1192,-1100,2292,-46
,524,2023-10-20 13:27:18.06,49,-212,-2016,19,11,65,951,-995,1946,22
,525,2023-10-20 13:27:18.07,42,-202,-2012,16,16,61,1144,-1122,2266,-11
,526,2023-10-20 13:27:18.08,47,-195,-2042,16,16,58,902,-1013,1915,55
,527,2023-10-20 13:27:18.09,39,-213,-2060,17,7,51,1150,-1105,2255,-22
,528,2023-10-20 13:27:18.10,53,-196,-2069,22,-8,53,942,-987,1929,22
,529,2023-10-20 13:27:18.11,50,-191,-2065,19,-21,60,1186,-1105,2291,-40
,530,2023-10-20 13:27:18.12,38,-201,-2066,12,-25,60,964,-1002,1966,19
,531,2023-10-20 13:27:18.13,27,-209,-2061,9,-30,74,1203,-1114,2317,-44
,532,2023-10-20 13:27:18.14,35,-227,-2066,-2,-35,92,957,-999,1956,21
,533,2023-10-20 13:27:18.15,52,-253,-2077,-2,-25,115,1175,-1111,2286,-32
,534,2023-10-20 13:27:18.16,20,-285,-2067,5,-26,151,939,-996,1935,28
,535,2023-10-20 13:27:18.17,15,-199,-2068,27,-38,150,1176,-1103,2279,-36
,536,2023-10-20 13:27:18.18,44,-196,-2023,53,-48,132,953,-991,1944,19
,537,2023-10-20 13:27:18.19,23,-224,-2063,63,-23,111,1190,-1115,2305,-37
,538,2023-10-20 13:27:18.20,53,-173,-2037,79,-7,81,940,-1002,1942,31
,539,2023-10-20 13:27:18.21,51,-200,-2028,73,-2,68,1153,-1106,2259,-23
,540,2023-10-20 13:27:18.22,47,-226,-2029,67,5,74,901,-991,1892,45
,541,2023-10-20 13:27:18.23,24,-215,-2021,75,6,76,1132,-1102,2234,-15
,542,2023-10-20 13:27:18.24,54,-207,-2026,83,-5,64,900,-989,1889,44
,543,2023-10-20 13:27:18.25,34,-211,-2009,79,-11,57,1125,-1104,2229,-10
,544,2023-10-20 13:27:18.26,35,-187,-2037,79,-12,42,908,-993,1901,42
,545,2023-10-20 13:27:18.27,24,-202,-2061,87,-44,28,1154,-1105,2259,-24
,546,2023-10-20 13:27:18.28,32,-212,-2075,91,-46,20,958,-992,1950,17
,547,2023-10-20 13:27:18.29,16,-206,-2058,77,-51,16,1196,-1100,2296,-48
,548,2023-10-20 13:27:18.30,37,-219,-2050,44,-46,11,980,-993,1973,6
,549,2023-10-20 13:27:18.31,37,-245,-2082,18,-35,14,1193,-1113,2306,-40
,550,2023-10-20 13:27:18.32,26,-250,-2066,38,-49,23,976,-1010,1986,17
,551,2023-10-20 13:27:18.33,-1,-232,-2081,46,-58,20,1188,-1126,2314,-31
,552,2023-10-20 13:27:18.34,2,-216,-2093,41,-65,13,973,-1008,1981,17
,553,2023-10-20 13:27:18.35,-8,-224,-2068,34,-68,7,1178,-1106,2284,-36
,554,2023-10-20 13:27:18.36,-28,-224,-2043,29,-56,-4,976,-999,1975,11
,555,2023-10-20 13:27:18.37,-31,-226,-2035,21,-65,-4,1175,-1122,2297,-26
,556,2023-10-20 13:27:18.38,-54,-253,-2035,27,-65,-2,950,-1024,1974,37
,557,2023-10-20 13:27:18.39,-40,-223,-2024,27,-67,5,1114,-1144,2258,15
,558,2023-10-20 13:27:18.40,-58,-234,-2007,21,-59,4,896,-1021,1917,62
,559,2023-10-20 13:27:18.41,-54,-229,-2001,13,-48,5,1103,-1108,2211,2
,560,2023-10-20 13:27:18.42,-49,-230,-2018,11,-39,3,952,-992,1944,20
,561,2023-10-20 13:27:18.43,-39,-218,-2003,17,-38,-1,1156,-1095,2251,-30
,562,2023-10-20 13:27:18.44,-46,-236,-2022,18,-30,-10,987,-994,1981,3
,563,2023-10-20 13:27:18.45,-44,-256,-2029,16,-16,-15,1169,-1099,2268,-35
,564,2023-10-20 13:27:18.46,-43,-245,-2032,27,-10,-19,971,-994,1965,11
,565,2023-10-20 13:27:18.47,-33,-256,-2042,45,-10,-21,1146,-1089,2235,-28
,566,2023-10-20 13:27:18.48,-37,-256,-2049,67,-21,-32,960,-1000,1960,20
,567,2023-10-20 13:27:18.49,-30,-248,-2057,73,-23,-46,1130,-1115,2245,-7
,568,2023-10-20 13:27:18.50,-32,-270,-2047,76,-11,-55,955,-1019,1974,32
,569,2023-10-20 13:27:18.51,-37,-279,-2044,86,-12,-48,1132,-1101,2233,-15
,570,2023-10-20 13:27:18.52,-23,-288,-2050,84,-17,-41,982,-1006,1988,12
,571,2023-10-20 13:27:18.53,-43,-294,-2023,71,-5,-26,1136,-1101,2237,-17
,572,2023-10-20 13:27:18.54,-36,-299,-2051,51,7,-3,935,-1010,1945,37
,573,2023-10-20 13:27:18.55,-38,-301,-2063,43,7,6,1099,-1094,2193,-2
,574,2023-10-20 13:27:18.56,-15,-292,-2031,32,5,23,996,-1003,1999,3
,575,2023-10-20 13:27:18.57,-23,-306,-2039,13,30,48,1156,-1082,2238,-37
,576,2023-10-20 13:27:18.58,-34,-288,-2061,11,48,50,997,-1010,2007,6
,577,2023-10-20 13:27:18.59,-45,-270,-2070,41,37,37,1127,-1110,2237,-8
,578,2023-10-20 13:27:18.60,-51,-247,-2062,76,2,21,1005,-1033,2038,14
,579,2023-10-20 13:27:18.61,-40,-230,-2036,79,-18,1,1138,-1109,2247,-14
,580,2023-10-20 13:27:18.62,-51,-221,-2047,75,-15,-26,1000,-1019,2019,9
,581,2023-10-20 13:27:18.63,-51,-249,-2030,65,-28,-53,1117,-1082,2199,-17
,582,2023-10-20 13:27:18.64,-34,-259,-2008,60,-41,-64,1005,-1010,2015,2
,583,2023-10-20 13:27:18.65,-25,-269,-1997,30,-23,-66,1122,-1092,2214,-15
,584,2023-10-20 13:27:18.66,-11,-286,-1998,3,-1,-63,1014,-1038,2052,12
,585,2023-10-20 13:27:18.67,-15,-313,-2003,-4,18,-46,1119,-1114,2233,-2
,586,2023-10-20 13:27:18.68,-20,-302,-2002,3,18,-28,999,-1049,2048,25
,587,2023-10-20 13:27:18.69,-24,-296,-2017,7,25,-20,1085,-1112,2197,13
,588,2023-10-20 13:27:18.70,-28,-267,-2032,6,32,-15,1011,-1032,2043,10
,589,2023-10-20 13:27:18.71,-24,-266,-2055,14,12,-25,1113,-1077,2190,-18
,590,2023-10-20 13:27:18.72,-25,-263,-2057,21,3,-28,1038,-1019,2057,-9
,591,2023-10-20 13:27:18.73,-39,-254,-2064,24,2,-32,1115,-1082,2197,-16
,592,2023-10-20 13:27:18.74,-51,-267,-2065,29,-9,-36,1044,-1027,2071,-8
,593,2023-10-20 13:27:18.75,-43,-298,-2042,35,-18,-24,1109,-1077,2186,-16
,594,2023-10-20 13:27:18.76,-56,-281,-2026,36,-13,-14,1043,-1028,2071,-7
,595,2023-10-20 13:27:18.77,-48,-287,-2024,25,2,-4,1107,-1077,2184,-15
,596,2023-10-20 13:27:18.78,-54,-262,-2022,6,24,-1,1054,-1025,2079,-14
,597,2023-10-20 13:27:18.79,-46,-253,-2021,-12,47,-2,1104,-1060,2164,-22
,598,2023-10-20 13:27:18.80,-53,-252,-2022,-31,64,-11,1048,-1026,2074,-11
,599,2023-10-20 13:27:18.81,-45,-265,-2027,-42,73,-14,1100,-1070,2170,-15
,600,2023-10-20 13:27:18.82,-26,-262,-2035,-43,81,-21,1063,-1044,2107,-9
,601,2023-10-20 13:27:18.83,-24,-261,-2024,-37,85,-26,1092,-1085,2177,-3
,602,2023-10-20 13:27:18.84,-15,-266,-2041,-30,78,-30,1052,-1049,2101,-1
,603,2023-10-20 13:27:18.85,-8,-262,-2048,-23,68,-36,1068,-1076,2144,4
,604,2023-10-20 13:27:18.86,-6,-252,-2042,-14,57,-45,1058,-1047,2105,-5
,605,2023-10-20 13:27:18.87,-9,-246,-2035,-8,53,-59,1072,-1070,2142,-1
,606,2023-10-20 13:27:18.88,7,-247,-2042,-2,50,-72,1069,-1045,2114,-12
,607,2023-10-20 13:27:18.89,6,-250,-2030,-3,49,-80,1072,-1064,2136,-4
,608,2023-10-20 13:27:18.90,-3,-262,-2034,3,41,-87,1070,-1046,2116,-12
,609,2023-10-20 13:27:18.91,12,-267,-2033,0,35,-86,1057,-1066,2123,4
,610,2023-10-20 13:27:18.92,18,-270,-2040,-13,44,-87,1066,-1050,2116,-8
,611,2023-10-20 13:27:18.93,17,-268,-2038,-25,45,-77,1048,-1063,2111,7
,612,2023-10-20 13:27:18.94,9,-272,-2034,-28,40,-64,1078,-1049,2127,-14
,613,2023-10-20 13:27:18.95,21,-279,-2042,-38,41,-50,1053,-1056,2109,1
,614,2023-10-20 13:27:18.96,16,-271,-2042,-46,63,-44,1079,-1053,2132,-13
,615,2023-10-20 13:27:18.97,29,-271,-2040,-44,67,-24,1044,-1060,2104,8
,616,2023-10-20 13:27:18.98,29,-301,-2051,-35,59,9,1038,-1071,2109,16
,617,2023-10-20 13:27:18.99,13,-264,-2066,-23,36,22,991,-1077,2068,43
,618,2023-10-20 13:27:19.00,26,-260,-2087,-30,15,22,1048,-1069,2117,10
,619,2023-10-20 13:27:19.01,35,-250,-2061,-28,4,31,1027,-1054,2081,13
,620,2023-10-20 13:27:19.02,39,-217,-2038,-14,-8,30,1099,-1049,2148,-25
,621,2023-10-20 13:27:19.03,29,-226,-2026,-6,-6,21,1036,-1038,2074,1
,622,2023-10-20 13:27:19.04,24,-235,-2040,-3,0,16,1107,-1053,2160,-27
,623,2023-10-20 13:27:19.05,7,-229,-2043,-1,3,17,1032,-1044,2076,6
,624,2023-10-20 13:27:19.06,13,-263,-2044,-18,-1,29,1112,-1058,2170,-27
,625,2023-10-20 13:27:19.07,16,-270,-2049,-23,4,42,1032,-1039,2071,3
,626,2023-10-20 13:27:19.08,-1,-256,-2039,-28,3,59,1118,-1049,2167,-34
,627,2023-10-20 13:27:19.09,6,-251,-2043,-27,9,65,1018,-1025,2043,3
,628,2023-10-20 13:27:19.10,3,-236,-2040,-26,12,68,1088,-1055,2143,-16
,629,2023-10-20 13:27:19.11,13,-229,-2040,-28,14,71,989,-1036,2025,23
,630,2023-10-20 13:27:19.12,8,-218,-2048,-27,22,64,1054,-1066,2120,6
,631,2023-10-20 13:27:19.13,4,-213,-2041,-23,27,52,960,-1040,2000,40
,632,2023-10-20 13:27:19.14,18,-205,-2053,-19,28,33,1041,-1077,2118,18
,633,2023-10-20 13:27:19.15,24,-206,-2050,-11,30,11,954,-1047,2001,46
,634,2023-10-20 13:27:19.16,25,-205,-2047,-5,28,-4,1074,-1089,2163,7
,635,2023-10-20 13:27:19.17,27,-212,-2054,-1,28,-15,992,-1051,2043,29
,636,2023-10-20 13:27:19.18,15,-216,-2051,1,25,-26,1144,-1090,2234,-27
,637,2023-10-20 13:27:19.19,14,-228,-2053,-3,15,-25,1004,-1049,2053,22
,638,2023-10-20 13:27:19.20,22,-227,-2047,-11,19,-20,1114,-1083,2197,-15
,639,2023-10-20 13:27:19.21,17,-238,-2038,-5,21,-12,966,-1037,2003,35
,640,2023-10-20 13:27:19.22,23,-210,-2051,-4,14,-11,1123,-1085,2208,-19
,641,2023-10-20 13:27:19.23,24,-217,-2037,-13,11,-16,985,-1040,2025,27
,642,2023-10-20 13:27:19.24,32,-207,-2037,-15,11,-27,1121,-1084,2205,-18
,643,2023-10-20 13:27:19.25,39,-230,-2025,-6,9,-38,982,-1030,2012,24
,644,2023-10-20 13:27:19.26,42,-250,-2012,-4,20,-45,1142,-1082,2224,-30
,645,2023-10-20 13:27:19.27,47,-248,-2016,1,26,-41,988,-1027,2015,19
,646,2023-10-20 13:27:19.28,53,-272,-2022,-6,45,-40,1157,-1088,2245,-34
,647,2023-10-20 13:27:19.29,52,-289,-2019,-15,58,-25,988,-1028,2016,20
,648,2023-10-20 13:27:19.30,44,-283,-2059,5,50,-4,1156,-1088,2244,-34
,649,2023-10-20 13:27:19.31,64,-258,-2053,26,23,14,975,-1022,1997,23
,650,2023-10-20 13:27:19.32,71,-242,-2050,20,11,28,1094,-1101,2195,3
,651,2023-10-20 13:27:19.33,73,-242,-2063,-5,22,42,906,-1037,1943,65
,652,2023-10-20 13:27:19.34,66,-262,-2088,-9,19,62,1082,-1098,2180,8
,653,2023-10-20 13:27:19.35,68,-243,-2083,0,-6,82,953,-1016,1969,31
,654,2023-10-20 13:27:19.36,61,-240,-2072,3,-14,96,1176,-1080,2256,-48
,655,2023-10-20 13:27:19.37,50,-228,-2072,2,-16,99,993,-1005,1998,6
,656,2023-10-20 13:27:19.38,39,-202,-2068,4,-17,89,1180,-1086,2266,-47
,657,2023-10-20 13:27:19.39,33,-213,-2053,15,-46,82,979,-1012,1991,16
,658,2023-10-20 13:27:19.40,48,-210,-2031,17,-45,71,1180,-1099,2279,-40
,659,2023-10-20 13:27:19.41,32,-209,-2036,19,-25,51,977,-1018,1995,20
,660,2023-10-20 13:27:19.42,37,-228,-2032,21,-22,40,1179,-1124,2303,-27
,661,2023-10-20 13:27:19.43,44,-243,-2027,20,-25,43,973,-1037,2010,32
,662,2023-10-20 13:27:19.44,33,-255,-2030,22,-13,46,1177,-1099,2276,-39
,663,2023-10-20 13:27:19.45,31,-252,-2036,27,-10,42,966,-995,1961,14
,664,2023-10-20 13:27:19.46,38,-223,-2026,33,-15,42,1165,-1092,2257,-36
,665,2023-10-20 13:27:19.47,51,-231,-2035,33,-19,39,945,-1008,1953,31
,666,2023-10-20 13:27:19.48,46,-238,-2051,23,-16,38,1171,-1107,2278,-32
,667,2023-10-20 13:27:19.49,55,-214,-2042,21,-24,35,958,-1007,1965,24
,668,2023-10-20 13:27:19.50,34,-219,-2052,15,-24,33,1174,-1093,2267,-40
,669,2023-10-20 13:27:19.51,29,-224,-2058,12,-30,26,951,-995,1946,22
,670,2023-10-20 13:27:19.52,29,-223,-2067,13,-38,29,1171,-1112,2283,-29
,671,2023-10-20 13:27:19.53,23,-236,-2071,23,-57,41,945,-1015,1960,35
,672,2023-10-20 13:27:19.54,8,-246,-2058,26,-67,55,1174,-1100,2274,-37
,673,2023-10-20 13:27:19.55,23,-231,-2050,23,-70,61,955,-991,1946,18
,674,2023-10-20 13:27:19.56,0,-224,-2048,17,-65,64,1154,-1101,2255,-26
,675,2023-10-20 13:27:19.57,-9,-241,-2064,27,-73,66,911,-1003,1914,46
,676,2023-10-20 13:27:19.58,-16,-208,-2044,31,-77,61,1118,-1117,2235,0
,677,2023-10-20 13:27:19.59,-23,-217,-2034,21,-58,47,913,-1002,1915,44
,678,2023-10-20 13:27:19.60,-15,-216,-2032,9,-39,34,1154,-1088,2242,-33
,679,2023-10-20 13:27:19.61,-17,-227,-2039,7,-31,25,956,-973,1929,8
,680,2023-10-20 13:27:19.62,-27,-227,-2032,13,-27,24,1186,-1095,2281,-45
,681,2023-10-20 13:27:19.63,-15,-230,-2042,25,-28,21,953,-988,1941,17
,682,2023-10-20 13:27:19.64,-12,-209,-2030,31,-31,14,1178,-1092,2270,-43
,683,2023-10-20 13:27:19.65,-21,-227,-2041,21,-21,-2,945,-979,1924,17
,684,2023-10-20 13:27:19.66,-7,-247,-2039,24,-24,-5,1197,-1084,2281,-56
,685,2023-10-20 13:27:19.67,-17,-249,-2033,32,-30,-2,964,-978,1942,7
,686,2023-10-20 13:27:19.68,0,-247,-2024,30,-29,-6,1196,-1093,2289,-51
,687,2023-10-20 13:27:19.69,-3,-248,-2029,26,-27,-4,957,-984,1941,13
,688,2023-10-20 13:27:19.70,-6,-249,-2033,22,-22,0,1196,-1089,2285,-53
,689,2023-10-20 13:27:19.71,-16,-253,-2045,24,-20,6,944,-983,1927,19
,690,2023-10-20 13:27:19.72,-17,-256,-2046,22,-20,13,1164,-1104,2268,-30
,691,2023-10-20 13:27:19.73,-27,-263,-2053,18,-18,17,933,-995,1928,31
,692,2023-10-20 13:27:19.74,-28,-283,-2062,21,-22,26,1186,-1100,2286,-43
,693,2023-10-20 13:27:19.75,-16,-252,-2041,22,-24,34,961,-986,1947,12
,694,2023-10-20 13:27:19.76,-20,-245,-2043,18,-21,36,1194,-1106,2300,-44
,695,2023-10-20 13:27:19.77,11,-228,-2024,15,-9,39,954,-996,1950,21
,696,2023-10-20 13:27:19.78,-7,-271,-1996,37,15,47,1194,-1110,2304,-42
,697,2023-10-20 13:27:19.79,-47,-242,-2032,56,30,39,949,-990,1939,20
,698,2023-10-20 13:27:19.80,-45,-231,-2077,47,9,23,1161,-1087,2248,-37
,699,2023-10-20 13:27:19.81,-45,-236,-2066,28,-36,27,932,-984,1916,26
,700,2023-10-20 13:27:19.82,-36,-236,-2059,3,-39,30,1180,-1136,2316,-22
,701,2023-10-20 13:27:19.83,-29,-251,-2033,-21,-36,26,950,-1026,1976,38
,702,2023-10-20 13:27:19.84,-40,-253,-2028,-19,-27,24,1182,-1124,2306,-29
,703,2023-10-20 13:27:19.85,-27,-273,-2026,-9,-22,23,961,-1003,1964,21
,704,2023-10-20 13:27:19.86,-26,-260,-2028,1,0,20,1189,-1131,2320,-29
,705,2023-10-20 13:27:19.87,-45,-266,-2027,11,13,25,960,-1012,1972,26
,706,2023-10-20 13:27:19.88,-34,-274,-2017,10,17,32,1182,-1107,2289,-37
,707,2023-10-20 13:27:19.89,-18,-275,-2014,4,33,40,958,-990,1948,16
,708,2023-10-20 13:27:19.90,-34,-250,-2041,5,39,46,1173,-1114,2287,-29
,709,2023-10-20 13:27:19.91,-24,-230,-2057,8,26,47,955,-1001,1956,23
,710,2023-10-20 13:27:19.92,-28,-205,-2067,-1,22,32,1170,-1101,2271,-34
,711,2023-10-20 13:27:19.93,-28,-207,-2077,-9,15,17,953,-983,1936,15
,712,2023-10-20 13:27:19.94,-32,-216,-2063,-12,7,8,1172,-1091,2263,-40
,713,2023-10-20 13:27:19.95,-21,-230,-2060,-20,7,3,966,-978,1944,6
,714,2023-10-20 13:27:19.96,-26,-233,-2059,-22,1,-11,1174,-1081,2255,-46
,715,2023-10-20 13:27:19.97,-27,-236,-2014,-20,4,-25,969,-983,1952,7
,716,2023-10-20 13:27:19.98,-27,-249,-2017,-12,14,-28,1168,-1104,2272,-32
,717,2023-10-20 13:27:19.99,-23,-270,-2016,-17,29,-25,970,-998,1968,14
,718,2023-10-20 13:27:20.00,-38,-266,-2045,-10,33,1,1175,-1093,2268,-41
,719,2023-10-20 13:27:20.01,-15,-267,-2045,-2,41,3,970,-989,1959,9
,720,2023-10-20 13:27:20.02,-29,-242,-2050,12,54,10,1160,-1103,2263,-28
,721,2023-10-20 13:27:20.03,-7,-225,-2044,13,38,13,949,-1013,1962,32
,722,2023-10-20 13:27:20.04,-3,-241,-2050,0,44,14,1153,-1108,2261,-22
,723,2023-10-20 13:27:20.05,-10,-245,-2060,2,47,13,975,-1001,1976,13
,724,2023-10-20 13:27:20.06,-11,-233,-2063,16,35,11,1164,-1090,2254,-37
,725,2023-10-20 13:27:20.07,-21,-227,-2049,28,24,1,966,-990,1956,12
,726,2023-10-20 13:27:20.08,1,-231,-2041,36,16,-6,1118,-1084,2202,-17
,727,2023-10-20 13:27:20.09,-7,-232,-2044,34,16,-12,953,-999,1952,23
,728,2023-10-20 13:27:20.10,-9,-204,-2036,32,11,-19,1143,-1102,2245,-20
,729,2023-10-20 13:27:20.11,14,-230,-2047,22,10,-27,961,-1008,1969,23
,730,2023-10-20 13:27:20.12,3,-242,-2041,11,2,-20,1101,-1091,2192,-5
,731,2023-10-20 13:27:20.13,4,-239,-2039,14,-3,-12,965,-1013,1978,24
,732,2023-10-20 13:27:20.14,2,-243,-2049,23,-18,-1,1143,-1118,2261,-12
,733,2023-10-20 13:27:20.15,-9,-244,-2043,19,-27,8,1009,-1038,2047,14
,734,2023-10-20 13:27:20.16,-14,-242,-2048,4,-23,13,1152,-1119,2271,-16
,735,2023-10-20 13:27:20.17,-10,-238,-2053,-5,-20,15,1006,-1027,2033,10
,736,2023-10-20 13:27:20.18,-20,-234,-2048,-1,-23,20,1135,-1102,2237,-16
,737,2023-10-20 13:27:20.19,-23,-221,-2026,5,-25,23,1010,-1014,2024,2
,738,2023-10-20 13:27:20.20,-21,-236,-2039,-3,-10,19,1134,-1088,2222,-23
,739,2023-10-20 13:27:20.21,-15,-234,-2036,-8,5,15,1010,-1004,2014,-3
,740,2023-10-20 13:27:20.22,-24,-234,-2041,2,10,17,1129,-1070,2199,-29
,741,2023-10-20 13:27:20.23,-18,-237,-2046,4,16,18,1020,-999,2019,-10
,742,2023-10-20 13:27:20.24,-14,-228,-2047,10,23,16,1128,-1074,2202,-27
,743,2023-10-20 13:27:20.25,-18,-224,-2051,12,30,13,1022,-1008,2030,-7
,744,2023-10-20 13:27:20.26,4,-206,-2036,14,29,6,1115,-1075,2190,-20
,745,2023-10-20 13:27:20.27,8,-215,-2044,17,30,1,1025,-1019,2044,-3
,746,2023-10-20 13:27:20.28,12,-222,-2044,27,36,-5,1114,-1090,2204,-12
,747,2023-10-20 13:27:20.29,5,-230,-2046,33,35,-11,1028,-1026,2054,-1
,748,2023-10-20 13:27:20.30,0,-233,-2033,31,39,-14,1106,-1078,2184,-14
,749,2023-10-20 13:27:20.31,-1,-244,-2046,27,42,-7,1032,-1038,2070,3
,750,2023-10-20 13:27:20.32,-3,-248,-2045,28,35,-4,1104,-1110,2214,3
,751,2023-10-20 13:27:20.33,2,-248,-2046,19,37,-1,1040,-1063,2103,11
,752,2023-10-20 13:27:20.34,14,-257,-2036,16,47,8,1095,-1108,2203,6
,753,2023-10-20 13:27:20.35,4,-260,-2031,18,44,20,1037,-1037,2074,0
,754,2023-10-20 13:27:20.36,6,-254,-2026,12,52,26,1088,-1063,2151,-12
,755,2023-10-20 13:27:20.37,9,-228,-2037,9,65,27,1049,-1016,2065,-16
,756,2023-10-20 13:27:20.38,51,-230,-2022,1,69,20,1090,-1062,2152,-14
,757,2023-10-20 13:27:20.39,17,-264,-2020,13,84,23,1053,-1031,2084,-11
,758,2023-10-20 13:27:20.40,18,-244,-2055,7,80,14,1082,-1073,2155,-4
,759,2023-10-20 13:27:20.41,22,-260,-2069,-2,48,23,1068,-1024,2092,-22
,760,2023-10-20 13:27:20.42,16,-241,-2075,-16,34,28,1071,-1048,2119,-11
,761,2023-10-20 13:27:20.43,26,-236,-2053,-7,33,19,1062,-1019,2081,-21
,762,2023-10-20 13:27:20.44,14,-250,-2046,-5,32,12,1057,-1061,2118,2
,763,2023-10-20 13:27:20.45,31,-239,-2039,1,26,12,1069,-1034,2103,-17
,764,2023-10-20 13:27:20.46,38,-243,-2049,2,34,12,1066,-1059,2125,-3
,765,2023-10-20 13:27:20.47,29,-238,-2050,5,26,16,1075,-1042,2117,-16
,766,2023-10-20 13:27:20.48,33,-241,-2045,-1,17,22,1058,-1067,2125,4
,767,2023-10-20 13:27:20.49,43,-249,-2055,-14,20,27,1064,-1039,2103,-12
,768,2023-10-20 13:27:20.50,32,-244,-2052,-10,19,30,1045,-1045,2090,0
,769,2023-10-20 13:27:20.51,41,-239,-2042,-5,13,31,1073,-1027,2100,-23
,770,2023-10-20 13:27:20.52,48,-246,-2040,-11,16,33,1050,-1039,2089,-5
,771,2023-10-20 13:27:20.53,43,-234,-2043,-10,20,36,1089,-1036,2125,-26
,772,2023-10-20 13:27:20.54,33,-229,-2038,-5,15,35,1051,-1049,2100,-1
,773,2023-10-20 13:27:20.55,27,-234,-2049,-5,15,33,1094,-1053,2147,-20
,774,2023-10-20 13:27:20.56,16,-227,-2048,0,8,30,1043,-1053,2096,5
,775,2023-10-20 13:27:20.57,16,-233,-2042,2,7,24,1092,-1050,2142,-21
,776,2023-10-20 13:27:20.58,26,-225,-2035,3,11,16,1044,-1044,2088,0
,777,2023-10-20 13:27:20.59,13,-232,-2044,8,8,12,1082,-1052,2134,-15
,778,2023-10-20 13:27:20.60,21,-234,-2042,11,-4,3,1014,-1048,2062,17
,779,2023-10-20 13:27:20.61,15,-246,-2039,15,-2,-4,1100,-1053,2153,-23
,780,2023-10-20 13:27:20.62,27,-256,-2024,14,10,1,1035,-1037,2072,1
,781,2023-10-20 13:27:20.63,8,-261,-2042,8,18,10,1119,-1062,2181,-28
,782,2023-10-20 13:27:20.64,14,-245,-2045,2,14,11,1030,-1051,2081,10
,783,2023-10-20 13:27:20.65,26,-239,-2052,1,12,12,1114,-1070,2184,-22
,784,2023-10-20 13:27:20.66,31,-219,-2039,-1,20,9,1020,-1044,2064,12
,785,2023-10-20 13:27:20.67,27,-237,-2034,-8,24,11,1116,-1056,2172,-30
,786,2023-10-20 13:27:20.68,36,-239,-2043,-22,26,22,1020,-1028,2048,4
,787,2023-10-20 13:27:20.69,44,-250,-2051,-25,25,32,1120,-1063,2183,-28
,788,2023-10-20 13:27:20.70,31,-235,-2052,-18,31,38,1012,-1038,2050,13
,789,2023-10-20 13:27:20.71,42,-217,-2057,-3,28,32,1124,-1072,2196,-26
,790,2023-10-20 13:27:20.72,39,-207,-2049,4,13,22,1011,-1037,2048,13
,791,2023-10-20 13:27:20.73,43,-205,-2062,5,14,10,1100,-1078,2178,-11
,792,2023-10-20 13:27:20.74,33,-205,-2060,15,5,2,983,-1040,2023,28
,793,2023-10-20 13:27:20.75,35,-212,-2050,16,-6,-4,1125,-1080,2205,-22
,794,2023-10-20 13:27:20.76,36,-226,-2036,7,-3,-7,1002,-1033,2035,15
,795,2023-10-20 13:27:20.77,19,-258,-2038,-2,5,3,1136,-1090,2226,-23
,796,2023-10-20 13:27:20.78,24,-258,-2055,-4,11,9,998,-1045,2043,23
,797,2023-10-20 13:27:20.79,18,-231,-2050,4,11,10,1138,-1093,2231,-22
,798,2023-10-20 13:27:20.80,49,-194,-2040,-13,9,8,989,-1035,2024,23
,799,2023-10-20 13:27:20.81,35,-247,-2047,-31,34,13,1113,-1082,2195,-15
,800,2023-10-20 13:27:20.82,35,-238,-2060,-8,30,28,977,-1018,1995,20
,801,2023-10-20 13:27:20.83,20,-215,-2053,4,13,36,1131,-1082,2213,-24
,802,2023-10-20 13:27:20.84,22,-233,-2061,7,13,36,978,-1020,1998,21
,803,2023-10-20 13:27:20.85,14,-219,-2057,14,11,37,1120,-1088,2208,-16
,804,2023-10-20 13:27:20.86,28,-213,-2044,18,4,35,973,-1020,1993,23
,805,2023-10-20 13:27:20.87,27,-221,-2037,15,-4,33,1151,-1096,2247,-27
,806,2023-10-20 13:27:20.88,31,-201,-2038,13,-3,24,993,-1031,2024,19
,807,2023-10-20 13:27:20.89,22,-201,-2043,9,-5,16,1167,-1103,2270,-32
,808,2023-10-20 13:27:20.90,12,-197,-2046,22,-20,10,984,-1029,2013,22
,809,2023-10-20 13:27:20.91,30,-201,-2042,13,-24,-4,1140,-1094,2234,-23
,810,2023-10-20 13:27:20.92,16,-204,-2045,-5,-11,-18,955,-1015,1970,30
,811,2023-10-20 13:27:20.93,13,-218,-2041,-2,-8,-21,1154,-1090,2244,-32
,812,2023-10-20 13:27:20.94,16,-221,-2048,5,-15,-22,973,-1016,1989,21
,813,2023-10-20 13:27:20.95,30,-222,-2041,9,-14,-23,1174,-1088,2262,-43
,814,2023-10-20 13:27:20.96,26,-209,-2034,4,1,-30,974,-1009,1983,17
,815,2023-10-20 13:27:20.97,27,-219,-2035,-6,15,-37,1174,-1119,2293,-27
,816,2023-10-20 13:27:20.98,24,-223,-2054,-1,20,-32,964,-1043,2007,39
,817,2023-10-20 13:27:20.99,25,-163,-2051,-2,19,-32,1171,-1114,2285,-28
,818,2023-10-20 13:27:21.00,49,-242,-2043,-16,30,-38,963,-1014,1977,25
,819,2023-10-20 13:27:21.01,32,-234,-2056,-10,35,-44,1174,-1097,2271,-38
,820,2023-10-20 13:27:21.02,32,-219,-2058,15,12,-40,958,-1007,1965,24
,821,2023-10-20 13:27:21.03,13,-234,-2052,23,3,-45,1174,-1095,2269,-39
,822,2023-10-20 13:27:21.04,31,-236,-2060,25,-12,-44,954,-1001,1955,23
,823,2023-10-20 13:27:21.05,19,-256,-2047,23,-14,-34,1174,-1098,2272,-38
,824,2023-10-20 13:27:21.06,26,-254,-2024,16,-21,-18,956,-1009,1965,26
,825,2023-10-20 13:27:21.07,10,-249,-2002,9,-11,-8,1184,-1128,2312,-28
,826,2023-10-20 13:27:21.08,17,-250,-2013,1,3,-2,958,-1036,1994,39
,827,2023-10-20 13:27:21.09,-24,-236,-2043,-3,17,-4,1163,-1140,2303,-11
,828,2023-10-20 13:27:21.10,-11,-243,-2047,2,4,0,907,-1032,1939,62
,829,2023-10-20 13:27:21.11,-11,-223,-2049,3,-3,4,1121,-1136,2257,7
,830,2023-10-20 13:27:21.12,-27,-213,-2049,-5,7,-10,941,-1026,1967,42
,831,2023-10-20 13:27:21.13,-27,-215,-2049,-15,14,-24,1200,-1137,2337,-31
,832,2023-10-20 13:27:21.14,4,-218,-2047,-22,21,-34,978,-1027,2005,24
,833,2023-10-20 13:27:21.15,12,-253,-2013,-17,49,-40,1204,-1117,2321,-43
,834,2023-10-20 13:27:21.16,-14,-213,-2029,-24,72,-44,957,-1005,1962,24
,835,2023-10-20 13:27:21.17,0,-243,-2067,-45,27,-41,1188,-1117,2305,-35
,836,2023-10-20 13:27:21.18,28,-267,-2046,-53,-2,-23,946,-1006,1952,30
,837,2023-10-20 13:27:21.19,21,-234,-2035,-62,36,-16,1156,-1109,2265,-23
,838,2023-10-20 13:27:21.20,18,-225,-2021,-70,62,-24,899,-996,1895,48
,839,2023-10-20 13:27:21.21,21,-225,-2026,-51,53,-25,1127,-1104,2231,-11
,840,2023-10-20 13:27:21.22,20,-221,-2018,-36,50,-20,933,-993,1926,30
,841,2023-10-20 13:27:21.23,46,-214,-2005,-40,55,-14,1208,-1099,2307,-54
,842,2023-10-20 13:27:21.24,39,-226,-2025,-76,90,-12,957,-992,1949,17
,843,2023-10-20 13:27:21.25,45,-238,-2053,-91,88,9,1197,-1101,2298,-48
,844,2023-10-20 13:27:21.26,52,-240,-2051,-65,66,34,940,-994,1934,27
,845,2023-10-20 13:27:21.27,40,-199,-2053,-49,49,48,1181,-1103,2284,-39
,846,2023-10-20 13:27:21.28,59,-173,-2054,-51,49,49,930,-992,1922,31
,847,2023-10-20 13:27:21.29,49,-183,-2063,-55,56,43,1162,-1104,2266,-29
,848,2023-10-20 13:27:21.30,58,-177,-2073,-43,45,40,950,-990,1940,20
,849,2023-10-20 13:27:21.31,62,-175,-2079,-22,27,34,1204,-1108,2312,-48
,850,2023-10-20 13:27:21.32,49,-161,-2076,-9,16,24,955,-996,1951,20
,851,2023-10-20 13:27:21.33,49,-173,-2065,-9,11,12,1186,-1117,2303,-34
,852,2023-10-20 13:27:21.34,59,-188,-2072,-8,10,-1,951,-1002,1953,25
,853,2023-10-20 13:27:21.35,50,-194,-2064,8,1,-9,1192,-1113,2305,-39
,854,2023-10-20 13:27:21.36,54,-170,-2048,25,-3,-18,951,-994,1945,21
,855,2023-10-20 13:27:21.37,57,-191,-2049,19,17,-33,1186,-1109,2295,-38
,856,2023-10-20 13:27:21.38,38,-197,-2057,18,34,-39,950,-997,1947,23
,857,2023-10-20 13:27:21.39,56,-197,-2049,18,23,-33,1186,-1124,2310,-31
,858,2023-10-20 13:27:21.40,55,-217,-2054,13,12,-29,945,-1009,1954,32
,859,2023-10-20 13:27:21.41,55,-232,-2040,15,18,-21,1175,-1121,2296,-27
,860,2023-10-20 13:27:21.42,60,-208,-2035,15,23,-16,949,-1009,1958,30
,861,2023-10-20 13:27:21.43,71,-251,-2030,3,23,-9,1183,-1143,2326,-20
,862,2023-10-20 13:27:21.44,69,-240,-2039,7,37,11,956,-1031,1987,37
,863,2023-10-20 13:27:21.45,53,-198,-2038,14,37,19,1186,-1149,2335,-18
,864,2023-10-20 13:27:21.46,73,-203,-2033,12,25,24,959,-1019,1978,30
,865,2023-10-20 13:27:21.47,73,-201,-2044,11,26,24,1178,-1112,2290,-33
,866,2023-10-20 13:27:21.48,46,-192,-2046,5,26,23,963,-995,1958,16
,867,2023-10-20 13:27:21.49,76,-189,-2058,0,19,19,1184,-1120,2304,-32
,868,2023-10-20 13:27:21.50,54,-203,-2051,2,8,16,947,-1005,1952,29
,869,2023-10-20 13:27:21.51,50,-191,-2052,8,2,13,1158,-1107,2265,-25
,870,2023-10-20 13:27:21.52,50,-200,-2053,8,-7,12,947,-991,1938,22
,871,2023-10-20 13:27:21.53,53,-202,-2049,5,-13,12,1168,-1103,2271,-32
,872,2023-10-20 13:27:21.54,61,-204,-2041,-2,-13,16,972,-995,1967,11
,873,2023-10-20 13:27:21.55,48,-216,-2043,-6,-6,23,1182,-1108,2290,-37
,874,2023-10-20 13:27:21.56,51,-198,-2045,-5,-12,27,971,-1015,1986,22
,875,2023-10-20 13:27:21.57,63,-187,-2063,-4,-8,27,1170,-1146,2316,-12
,876,2023-10-20 13:27:21.58,57,-178,-2065,2,-10,26,977,-1045,2022,34
,877,2023-10-20 13:27:21.59,68,-165,-2056,5,-21,16,1172,-1150,2322,-11
,878,2023-10-20 13:27:21.60,60,-174,-2061,8,-9,9,972,-1041,2013,34
,879,2023-10-20 13:27:21.61,56,-176,-2069,-2,-2,4,1160,-1146,2306,-7
,880,2023-10-20 13:27:21.62,54,-180,-2071,-1,-14,2,973,-1043,2016,35
,881,2023-10-20 13:27:21.63,53,-178,-2083,15,-30,2,1160,-1146,2306,-7
,882,2023-10-20 13:27:21.64,52,-179,-2058,32,-39,0,997,-1025,2022,14
,883,2023-10-20 13:27:21.65,52,-167,-2050,21,-31,-7,1163,-1106,2269,-28
,884,2023-10-20 13:27:21.66,56,-169,-2047,15,-31,-8,988,-1000,1988,6
,885,2023-10-20 13:27:21.67,46,-172,-2034,12,-32,-12,1143,-1102,2245,-20
,886,2023-10-20 13:27:21.68,42,-180,-2043,10,-26,-11,990,-1004,1994,7
,887,2023-10-20 13:27:21.69,44,-212,-2036,7,-29,-3,1151,-1097,2248,-27
,888,2023-10-20 13:27:21.70,42,-201,-2037,-4,-22,8,984,-1026,2010,21
,889,2023-10-20 13:27:21.71,40,-193,-2033,-3,-15,19,1148,-1137,2285,-5
,890,2023-10-20 13:27:21.72,35,-205,-2047,2,-13,27,1004,-1053,2057,24
,891,2023-10-20 13:27:21.73,43,-191,-2039,4,-12,33,1146,-1140,2286,-3
,892,2023-10-20 13:27:21.74,40,-183,-2037,14,-7,29,988,-1032,2020,22
,893,2023-10-20 13:27:21.75,38,-185,-2049,23,-16,26,1125,-1097,2222,-14
,894,2023-10-20 13:27:21.76,35,-182,-2050,30,-14,19,1008,-1003,2011,-2
,895,2023-10-20 13:27:21.77,40,-179,-2049,30,-12,10,1142,-1083,2225,-29
,896,2023-10-20 13:27:21.78,10,-195,-2060,31,-15,3,1016,-1009,2025,-3
,897,2023-10-20 13:27:21.79,33,-208,-2058,34,-26,1,1136,-1091,2227,-22
,898,2023-10-20 13:27:21.80,30,-216,-2051,38,-29,9,1002,-1038,2040,18
,899,2023-10-20 13:27:21.81,39,-201,-2040,38,-33,17,1119,-1131,2250,6
,900,2023-10-20 13:27:21.82,40,-199,-2034,24,-26,18,996,-1066,2062,35
,901,2023-10-20 13:27:21.83,40,-194,-2042,12,-7,13,1104,-1134,2238,15
,902,2023-10-20 13:27:21.84,32,-198,-2049,1,6,12,1004,-1043,2047,19
,903,2023-10-20 13:27:21.85,45,-213,-2051,0,4,13,1107,-1086,2193,-10
,904,2023-10-20 13:27:21.86,40,-198,-2045,1,12,14,1031,-1022,2053,-4
,905,2023-10-20 13:27:21.87,45,-204,-2043,1,15,11,1126,-1091,2217,-17
,906,2023-10-20 13:27:21.88,44,-190,-2036,1,14,5,1039,-1040,2079,0
,907,2023-10-20 13:27:21.89,53,-189,-2059,4,18,0,1120,-1095,2215,-12
,908,2023-10-20 13:27:21.90,49,-198,-2059,5,8,-1,1030,-1036,2066,3
,909,2023-10-20 13:27:21.91,47,-198,-2037,8,4,-1,1103,-1082,2185,-10
,910,2023-10-20 13:27:21.92,48,-196,-2037,10,5,-8,1026,-1054,2080,14
,911,2023-10-20 13:27:21.93,55,-190,-2038,3,11,-12,1093,-1120,2213,13
,912,2023-10-20 13:27:21.94,55,-199,-2049,1,13,-17,1028,-1070,2098,21
,913,2023-10-20 13:27:21.95,39,-210,-2043,0,3,-13,1084,-1096,2180,6
,914,2023-10-20 13:27:21.96,50,-209,-2058,4,-9,-7,1026,-1040,2066,7
,915,2023-10-20 13:27:21.97,56,-210,-2034,16,-17,-6,1067,-1076,2143,4
,916,2023-10-20 13:27:21.98,32,-214,-2074,11,-12,7,1015,-1031,2046,8
,917,2023-10-20 13:27:21.99,47,-187,-2046,17,-26,4,1066,-1065,2131,0
,918,2023-10-20 13:27:22.00,53,-192,-2031,15,-27,0,1060,-1062,2122,1
,919,2023-10-20 13:27:22.01,39,-207,-2060,-4,-11,5,1089,-1114,2203,12
,920,2023-10-20 13:27:22.02,29,-206,-2064,-7,-16,11,1064,-1096,2160,16
,921,2023-10-20 13:27:22.03,44,-205,-2065,8,-16,7,1069,-1115,2184,23
,922,2023-10-20 13:27:22.04,25,-208,-2057,13,-16,4,1064,-1071,2135,3
,923,2023-10-20 13:27:22.05,27,-200,-2049,18,-21,4,1088,-1071,2159,-8
,924,2023-10-20 13:27:22.06,38,-204,-2048,22,-24,4,1072,-1040,2112,-16
,925,2023-10-20 13:27:22.07,33,-193,-2043,22,-19,0,1064,-1049,2113,-7
,926,2023-10-20 13:27:22.08,28,-196,-2042,23,-20,-12,1053,-1051,2104,-1
,927,2023-10-20 13:27:22.09,32,-199,-2035,24,-20,-16,1048,-1067,2115,9
,928,2023-10-20 13:27:22.10,41,-191,-2032,21,-11,-22,1051,-1060,2111,4
,929,2023-10-20 13:27:22.11,27,-207,-2018,18,-1,-29,1040,-1062,2102,11
,930,2023-10-20 13:27:22.12,41,-213,-2036,26,-4,-31,1068,-1061,2129,-3
,931,2023-10-20 13:27:22.13,37,-231,-2032,28,-8,-33,1043,-1067,2110,12
,932,2023-10-20 13:27:22.14,13,-218,-2037,29,6,-21,1091,-1088,2179,-1
,933,2023-10-20 13:27:22.15,21,-208,-2061,22,-8,-23,1040,-1098,2138,29
,934,2023-10-20 13:27:22.16,20,-202,-2053,8,-44,-21,1042,-1080,2122,19
,935,2023-10-20 13:27:22.17,37,-222,-2052,1,-31,-20,1004,-1050,2054,23
,936,2023-10-20 13:27:22.18,11,-194,-2040,17,-23,-32,1070,-1067,2137,-1
,937,2023-10-20 13:27:22.19,32,-184,-2045,14,-26,-47,1013,-1071,2084,29
,938,2023-10-20 13:27:22.20,13,-207,-2044,15,-30,-52,1062,-1103,2165,20
,939,2023-10-20 13:27:22.21,16,-205,-2057,22,-18,-60,1001,-1094,2095,46
,940,2023-10-20 13:27:22.22,-8,-196,-2056,21,-12,-64,1085,-1113,2198,14
,941,2023-10-20 13:27:22.23,-4,-216,-2054,15,-22,-62,1004,-1088,2092,42
,942,2023-10-20 13:27:22.24,2,-204,-2046,1,-30,-60,1060,-1113,2173,26
,943,2023-10-20 13:27:22.25,30,-171,-2033,-23,-18,-72,975,-1087,2062,56
,944,2023-10-20 13:27:22.26,5,-205,-2044,-29,-11,-88,1049,-1116,2165,33
,945,2023-10-20 13:27:22.27,10,-194,-2051,-25,-3,-94,979,-1084,2063,52
,946,2023-10-20 13:27:22.28,21,-199,-2036,-9,-8,-97,1074,-1107,2181,16
,947,2023-10-20 13:27:22.29,13,-198,-2040,-11,1,-105,984,-1063,2047,39
,948,2023-10-20 13:27:22.30,8,-201,-2039,-14,12,-111,1075,-1112,2187,18
,949,2023-10-20 13:27:22.31,14,-193,-2050,-11,16,-118,978,-1077,2055,49
,950,2023-10-20 13:27:22.32,26,-184,-2033,-10,13,-127,1088,-1099,2187,5
,951,2023-10-20 13:27:22.33,36,-171,-2025,-11,20,-142,977,-1042,2019,32
,952,2023-10-20 13:27:22.34,39,-147,-2018,-8,30,-167,1072,-1093,2165,10
,953,2023-10-20 13:27:22.35,53,-137,-2016,-12,42,-195,959,-1055,2014,48
,954,2023-10-20 13:27:22.36,64,-122,-2034,-25,56,-224,1077,-1116,2193,19
,955,2023-10-20 13:27:22.37,71,-126,-2033,-39,69,-244,948,-1068,2016,60
,956,2023-10-20 13:27:22.38,86,-137,-2056,-42,69,-265,1056,-1132,2188,38
,957,2023-10-20 13:27:22.39,109,-142,-2075,-38,61,-284,930,-1079,2009,74
,958,2023-10-20 13:27:22.40,86,-149,-2069,-48,56,-290,1070,-1138,2208,34
,959,2023-10-20 13:27:22.41,115,-138,-2055,-65,63,-297,963,-1075,2038,56
,960,2023-10-20 13:27:22.42,107,-165,-2013,-72,84,-302,1145,-1126,2271,-9
,961,2023-10-20 13:27:22.43,97,-206,-2006,-58,83,-297,970,-1056,2026,43
,962,2023-10-20 13:27:22.44,84,-225,-2063,-24,76,-288,1080,-1128,2208,24
,963,2023-10-20 13:27:22.45,59,-239,-2101,28,58,-286,924,-1063,1987,69
,964,2023-10-20 13:27:22.46,60,-219,-2102,65,25,-286,1088,-1121,2209,16
,965,2023-10-20 13:27:22.47,58,-179,-2105,68,11,-294,949,-1046,1995,48
,966,2023-10-20 13:27:22.48,56,-151,-2101,66,3,-307,1144,-1113,2257,-15
,967,2023-10-20 13:27:22.49,31,-152,-2075,48,3,-315,953,-1040,1993,43
,968,2023-10-20 13:27:22.50,53,-156,-2026,17,8,-320,1114,-1104,2218,-5
,969,2023-10-20 13:27:22.51,28,-194,-2029,4,-5,-318,918,-1027,1945,54
,970,2023-10-20 13:27:22.52,15,-246,-2072,11,-21,-312,1061,-1126,2187,32
,971,2023-10-20 13:27:22.53,-12,-250,-2098,13,-21,-294,900,-1049,1949,74
,972,2023-10-20 13:27:22.54,-15,-229,-2097,14,-44,-274,1091,-1130,2221,19
,973,2023-10-20 13:27:22.55,3,-210,-2058,11,-73,-261,918,-1043,1961,62
,974,2023-10-20 13:27:22.56,-4,-230,-2055,27,-99,-238,1120,-1133,2253,6
,975,2023-10-20 13:27:22.57,-12,-181,-2049,34,-106,-237,944,-1047,1991,51
,976,2023-10-20 13:27:22.58,-2,-146,-2019,15,-85,-264,1168,-1138,2306,-15
,977,2023-10-20 13:27:22.59,2,-175,-2022,-9,-76,-278,940,-1048,1988,54
,978,2023-10-20 13:27:22.60,-17,-177,-2014,-21,-50,-276,1096,-1150,2246,27
,979,2023-10-20 13:27:22.61,-39,-207,-2040,2,-68,-282,880,-1055,1935,87
,980,2023-10-20 13:27:22.62,-27,-205,-2080,26,-73,-292,1079,-1136,2215,28
,981,2023-10-20 13:27:22.63,-32,-200,-2062,37,-76,-306,906,-1029,1935,61
,982,2023-10-20 13:27:22.64,-9,-202,-2070,46,-82,-308,1136,-1140,2276,2
,983,2023-10-20 13:27:22.65,-18,-213,-2071,63,-84,-309,956,-1039,1995,41
,984,2023-10-20 13:27:22.66,7,-198,-2027,92,-96,-309,1198,-1125,2323,-36
,985,2023-10-20 13:27:22.67,14,-186,-2000,89,-85,-316,944,-1012,1956,34
,986,2023-10-20 13:27:22.68,17,-227,-2004,85,-73,-317,1149,-1108,2257,-20
,987,2023-10-20 13:27:22.69,35,-229,-1986,82,-49,-307,946,-1009,1955,31
,988,2023-10-20 13:27:22.70,47,-216,-2004,90,-35,-307,1208,-1118,2326,-45
,989,2023-10-20 13:27:22.71,45,-178,-2018,105,-24,-303,966,-1014,1980,24
,990,2023-10-20 13:27:22.72,31,-156,-2016,104,-14,-303,1151,-1110,2261,-20
,991,2023-10-20 13:27:22.73,27,-165,-2025,99,-18,-305,895,-1001,1896,53
,992,2023-10-20 13:27:22.74,22,-182,-2045,93,-18,-302,1112,-1104,2216,-4
,993,2023-10-20 13:27:22.75,11,-212,-2082,96,-29,-295,882,-1006,1888,62
,994,2023-10-20 13:27:22.76,-4,-217,-2098,101,-45,-282,1111,-1128,2239,8
,995,2023-10-20 13:27:22.77,10,-229,-2083,93,-60,-264,929,-1022,1951,46
,996,2023-10-20 13:27:22.78,26,-210,-2074,71,-47,-253,1185,-1122,2307,-31
,997,2023-10-20 13:27:22.79,20,-233,-2065,52,-44,-244,936,-1003,1939,33
,998,2023-10-20 13:27:22.80,2,-211,-2082,47,-29,-238,1158,-1114,2272,-22
,999,2023-10-20 13:27:22.81,4,-211,-2067,47,-28,-227,921,-1001,1922,40
,1000,2023-10-20 13:27:22.82,-20,-229,-2047,40,-22,-219,1169,-1112,2281,-28
,1001,2023-10-20 13:27:22.83,-20,-249,-2056,32,-16,-211,875,-1003,1878,64
,1002,2023-10-20 13:27:22.84,-13,-276,-2036,41,-20,-197,1076,-1123,2199,23
,1003,2023-10-20 13:27:22.85,-9,-282,-2059,69,-30,-179,928,-1018,1946,45
,1004,2023-10-20 13:27:22.86,-2,-282,-2051,97,-46,-163,1236,-1141,2377,-47
,1005,2023-10-20 13:27:22.87,7,-252,-2035,89,-24,-157,996,-1017,2013,10
,1006,2023-10-20 13:27:22.88,28,-246,-2022,88,-16,-153,1202,-1118,2320,-42
,1007,2023-10-20 13:27:22.89,22,-266,-1953,96,3,-143,943,-1000,1943,28
,1008,2023-10-20 13:27:22.90,-4,-247,-2041,127,-7,-137,1177,-1123,2300,-27
,1009,2023-10-20 13:27:22.91,47,-230,-2013,121,-5,-132,933,-1007,1940,37
,1010,2023-10-20 13:27:22.92,31,-227,-2014,99,25,-132,1161,-1126,2287,-17
,1011,2023-10-20 13:27:22.93,23,-251,-2036,84,23,-132,927,-1011,1938,42
,1012,2023-10-20 13:27:22.94,33,-220,-2061,55,31,-127,1173,-1125,2298,-24
,1013,2023-10-20 13:27:22.95,42,-237,-2033,16,37,-123,926,-1002,1928,38
,1014,2023-10-20 13:27:22.96,33,-251,-2028,-12,52,-127,1121,-1104,2225,-8
,1015,2023-10-20 13:27:22.97,54,-266,-2052,-12,61,-132,891,-999,1890,54
,1016,2023-10-20 13:27:22.98,71,-237,-2057,-10,56,-134,1146,-1150,2296,2
,1017,2023-10-20 13:27:22.99,76,-228,-2043,-20,63,-139,941,-1045,1986,52
,1018,2023-10-20 13:27:23.00,90,-246,-2039,-32,70,-140,1168,-1161,2329,-3
,1019,2023-10-20 13:27:23.01,89,-249,-2060,-33,70,-138,922,-1031,1953,54
,1020,2023-10-20 13:27:23.02,112,-214,-2058,-60,97,-144,1162,-1124,2286,-19
,1021,2023-10-20 13:27:23.03,96,-258,-2065,-87,118,-142,968,-1006,1974,19
,1022,2023-10-20 13:27:23.04,123,-259,-2047,-82,114,-115,1210,-1131,2341,-39
,1023,2023-10-20 13:27:23.05,99,-271,-2048,-52,103,-93,981,-1010,1991,14
,1024,2023-10-20 13:27:23.06,115,-266,-2054,-25,79,-65,1192,-1099,2291,-46
,1025,2023-10-20 13:27:23.07,117,-270,-2050,-8,69,-43,951,-987,1938,18
,1026,2023-10-20 13:27:23.08,89,-274,-2050,9,47,-18,1136,-1114,2250,-11
,1027,2023-10-20 13:27:23.09,98,-263,-2053,31,22,5,911,-1012,1923,50
,1028,2023-10-20 13:27:23.10,91,-256,-2054,44,-5,24,1120,-1122,2242,1
,1029,2023-10-20 13:27:23.11,69,-242,-2047,51,-18,43,921,-1007,1928,43
,1030,2023-10-20 13:27:23.12,73,-244,-2046,41,-26,53,1141,-1112,2253,-14
,1031,2023-10-20 13:27:23.13,45,-275,-2070,53,-34,66,976,-1002,1978,13
,1032,2023-10-20 13:27:23.14,56,-239,-2054,87,-77,89,1186,-1114,2300,-36
,1033,2023-10-20 13:27:23.15,33,-208,-2059,77,-90,85,990,-1008,1998,9
,1034,2023-10-20 13:27:23.16,44,-197,-2050,34,-76,66,1179,-1111,2290,-34
,1035,2023-10-20 13:27:23.17,25,-211,-2055,9,-67,52,981,-1002,1983,10
,1036,2023-10-20 13:27:23.18,22,-207,-2050,-3,-66,36,1171,-1100,2271,-35
,1037,2023-10-20 13:27:23.19,35,-205,-2061,-19,-62,18,970,-999,1969,14
,1038,2023-10-20 13:27:23.20,34,-211,-2047,-41,-49,-1,1156,-1102,2258,-27
,1039,2023-10-20 13:27:23.21,56,-228,-2031,-57,-39,-15,964,-1011,1975,23
,1040,2023-10-20 13:27:23.22,54,-204,-1980,-65,-18,-29,1141,-1117,2258,-12
,1041,2023-10-20 13:27:23.23,70,-199,-1987,-74,8,-35,928,-1022,1950,47
,1042,2023-10-20 13:27:23.24,72,-227,-2004,-60,16,-40,1090,-1118,2208,14
,1043,2023-10-20 13:27:23.25,91,-220,-2024,-55,40,-47,875,-1010,1885,67
,1044,2023-10-20 13:27:23.26,96,-225,-2035,-84,63,-50,1056,-1090,2146,17
,1045,2023-10-20 13:27:23.27,88,-239,-2054,-89,86,-36,924,-1004,1928,40
,1046,2023-10-20 13:27:23.28,85,-236,-2067,-61,78,-22,1126,-1105,2231,-10
,1047,2023-10-20 13:27:23.29,100,-233,-2072,-42,67,-12,982,-1034,2016,26
,1048,2023-10-20 13:27:23.30,74,-223,-2083,-31,54,-2,1136,-1125,2261,-5
,1049,2023-10-20 13:27:23.31,85,-230,-2090,-23,43,15,987,-1034,2021,23
,1050,2023-10-20 13:27:23.32,83,-226,-2079,-8,23,26,1117,-1105,2222,-6
,1051,2023-10-20 13:27:23.33,86,-223,-2055,-1,6,35,946,-1028,1974,41
,1052,2023-10-20 13:27:23.34,85,-216,-2039,-3,6,42,1087,-1125,2212,19
,1053,2023-10-20 13:27:23.35,89,-220,-2036,-4,4,45,958,-1048,2006,45
,1054,2023-10-20 13:27:23.36,75,-218,-2038,-2,-1,50,1098,-1123,2221,12
,1055,2023-10-20 13:27:23.37,69,-220,-2030,8,-6,49,997,-1041,2038,22
,1056,2023-10-20 13:27:23.38,65,-218,-2027,9,-7,56,1125,-1107,2232,-9
,1057,2023-10-20 13:27:23.39,54,-219,-2020,5,-1,56,1012,-1037,2049,12
,1058,2023-10-20 13:27:23.40,57,-233,-2019,5,-5,57,1121,-1104,2225,-8
,1059,2023-10-20 13:27:23.41,53,-233,-2016,7,-4,56,1036,-1033,2069,-1
,1060,2023-10-20 13:27:23.42,54,-224,-2011,6,0,55,1132,-1088,2220,-22
,1061,2023-10-20 13:27:23.43,50,-207,-2028,3,7,55,1025,-1020,2045,-2
,1062,2023-10-20 13:27:23.44,50,-217,-2032,8,4,49,1105,-1072,2177,-16
,1063,2023-10-20 13:27:23.45,48,-198,-2032,22,-7,40,1012,-1015,2027,1
,1064,2023-10-20 13:27:23.46,75,-190,-2042,11,-3,33,1094,-1073,2167,-10
,1065,2023-10-20 13:27:23.47,39,-204,-2043,-8,13,22,1025,-1030,2055,2
,1066,2023-10-20 13:27:23.48,40,-204,-2059,-17,17,14,1094,-1088,2182,-3
,1067,2023-10-20 13:27:23.49,61,-187,-2063,-27,18,5,1045,-1034,2079,-5
,1068,2023-10-20 13:27:23.50,62,-199,-2062,-31,14,-1,1096,-1073,2169,-11
,1069,2023-10-20 13:27:23.51,57,-205,-2076,-44,21,-7,1012,-1019,2031,3
,1070,2023-10-20 13:27:23.52,54,-200,-2068,-46,18,-5,1044,-1057,2101,6
,1071,2023-10-20 13:27:23.53,61,-210,-2078,-47,10,-3,969,-1019,1988,25
,1072,2023-10-20 13:27:23.54,74,-195,-2073,-61,17,-12,1037,-1065,2102,14
,1073,2023-10-20 13:27:23.55,60,-191,-2071,-74,24,-15,1024,-1031,2055,3
,1074,2023-10-20 13:27:23.56,85,-209,-2070,-96,37,-11,1070,-1066,2136,-2
,1075,2023-10-20 13:27:23.57,79,-232,-2086,-95,37,11,1064,-1043,2107,-10
,1076,2023-10-20 13:27:23.58,80,-211,-2071,-73,20,29,1084,-1081,2165,-1
,1077,2023-10-20 13:27:23.59,74,-199,-2048,-59,14,43,1053,-1049,2102,-2
,1078,2023-10-20 13:27:23.60,70,-215,-2047,-48,4,60,1063,-1064,2127,0
,1079,2023-10-20 13:27:23.61,60,-211,-2044,-35,8,73,1062,-1064,2126,1
,1080,2023-10-20 13:27:23.62,74,-201,-2025,-18,-2,80,1067,-1097,2164,15
,1081,2023-10-20 13:27:23.63,57,-200,-2025,-10,0,88,1076,-1066,2142,-5
,1082,2023-10-20 13:27:23.64,58,-199,-2011,-5,0,97,1063,-1059,2122,-2
,1083,2023-10-20 13:27:23.65,47,-211,-2017,1,3,104,1094,-1046,2140,-24
,1084,2023-10-20 13:27:23.66,31,-206,-2053,19,-16,113,1052,-1059,2111,3
,1085,2023-10-20 13:27:23.67,34,-199,-2049,29,-28,120,1044,-1053,2097,4
,1086,2023-10-20 13:27:23.68,39,-193,-2033,30,-22,125,1010,-1060,2070,25
,1087,2023-10-20 13:27:23.69,45,-182,-2049,32,-22,131,1050,-1040,2090,-5
,1088,2023-10-20 13:27:23.70,18,-185,-2063,31,-23,135,1024,-1040,2064,8
,1089,2023-10-20 13:27:23.71,22,-172,-2061,30,-27,129,1094,-1043,2137,-25
,1090,2023-10-20 13:27:23.72,20,-176,-2034,28,-23,115,1051,-1050,2101,0
,1091,2023-10-20 13:27:23.73,44,-171,-2028,14,-11,104,1104,-1062,2166,-21
,1092,2023-10-20 13:27:23.74,43,-167,-2040,-14,15,91,1040,-1060,2100,10
,1093,2023-10-20 13:27:23.75,27,-180,-2053,-27,34,77,1070,-1067,2137,-1
,1094,2023-10-20 13:27:23.76,31,-185,-2045,-26,40,68,995,-1044,2039,24
,1095,2023-10-20 13:27:23.77,43,-192,-2054,-21,41,64,1034,-1056,2090,11
,1096,2023-10-20 13:27:23.78,24,-188,-2059,-17,41,60,989,-1039,2028,25
,1097,2023-10-20 13:27:23.79,36,-184,-2039,-11,40,58,1107,-1075,2182,-16
,1098,2023-10-20 13:27:23.80,38,-182,-2038,-11,43,58,1020,-1062,2082,21
,1099,2023-10-20 13:27:23.81,51,-181,-2047,-15,47,56,1083,-1074,2157,-4
,1100,2023-10-20 13:27:23.82,41,-195,-2051,-13,49,57,992,-1040,2032,24
,1101,2023-10-20 13:27:23.83,29,-204,-2041,-8,44,65,1088,-1064,2152,-12
,1102,2023-10-20 13:27:23.84,52,-211,-2030,-15,53,75,992,-1036,2028,22
,1103,2023-10-20 13:27:23.85,49,-226,-2033,-21,75,96,1109,-1070,2179,-19
,1104,2023-10-20 13:27:23.86,45,-211,-2032,-17,69,114,996,-1036,2032,20
,1105,2023-10-20 13:27:23.87,32,-207,-2060,-9,68,125,1095,-1092,2187,-1
,1106,2023-10-20 13:27:23.88,38,-190,-2068,-3,54,111,988,-1060,2048,36
,1107,2023-10-20 13:27:23.89,44,-161,-2035,26,54,69,1118,-1104,2222,-7
,1108,2023-10-20 13:27:23.90,58,-145,-2021,32,68,37,994,-1053,2047,29
,1109,2023-10-20 13:27:23.91,71,-168,-2006,-16,88,26,1119,-1092,2211,-13
,1110,2023-10-20 13:27:23.92,53,-206,-2043,-57,98,27,984,-1037,2021,26
,1111,2023-10-20 13:27:23.93,55,-226,-2062,-68,104,45,1135,-1079,2214,-28
,1112,2023-10-20 13:27:23.94,47,-236,-2069,-66,85,61,986,-1025,2011,19
,1113,2023-10-20 13:27:23.95,43,-219,-2065,-67,70,67,1140,-1081,2221,-29
,1114,2023-10-20 13:27:23.96,59,-195,-2068,-70,66,62,970,-1029,1999,29
,1115,2023-10-20 13:27:23.97,78,-179,-2072,-81,71,57,1111,-1093,2204,-9
,1116,2023-10-20 13:27:23.98,83,-156,-2054,-93,82,48,953,-1036,1989,41
,1117,2023-10-20 13:27:23.99,80,-173,-2059,-100,95,38,1112,-1090,2202,-11
,1118,2023-10-20 13:27:24.00,80,-179,-2071,-85,90,40,967,-1025,1992,29
,1119,2023-10-20 13:27:24.01,81,-171,-2072,-63,77,42,1148,-1120,2268,-14
,1120,2023-10-20 13:27:24.02,92,-163,-2070,-55,68,35,972,-1058,2030,43
,1121,2023-10-20 13:27:24.03,95,-180,-2057,-49,62,34,1129,-1121,2250,-4
,1122,2023-10-20 13:27:24.04,109,-173,-2044,-43,66,36,948,-1032,1980,42
,1123,2023-10-20 13:27:24.05,108,-170,-2031,-37,65,38,1133,-1089,2222,-22
,1124,2023-10-20 13:27:24.06,105,-159,-2041,-38,65,42,951,-1006,1957,27
,1125,2023-10-20 13:27:24.07,105,-154,-2054,-33,62,48,1148,-1076,2224,-36
,1126,2023-10-20 13:27:24.08,95,-141,-2039,-36,57,50,961,-1002,1963,20
,1127,2023-10-20 13:27:24.09,109,-136,-2059,-34,43,50,1168,-1097,2265,-35
,1128,2023-10-20 13:27:24.10,98,-128,-2072,-48,28,28,982,-1020,2002,19
,1129,2023-10-20 13:27:24.11,115,-134,-2076,-49,18,20,1172,-1113,2285,-29
,1130,2023-10-20 13:27:24.12,118,-143,-2075,-50,9,17,956,-1024,1980,34
,1131,2023-10-20 13:27:24.13,123,-143,-2076,-61,13,27,1143,-1106,2249,-18
,1132,2023-10-20 13:27:24.14,125,-141,-2065,-75,26,28,941,-1011,1952,35
,1133,2023-10-20 13:27:24.15,139,-159,-2071,-71,23,45,1154,-1100,2254,-27
,1134,2023-10-20 13:27:24.16,114,-151,-2074,-61,27,57,954,-1013,1967,29
,1135,2023-10-20 13:27:24.17,120,-121,-2055,-31,24,49,1188,-1128,2316,-30
,1136,2023-10-20 13:27:24.18,131,-107,-2040,-10,18,40,956,-1038,1994,41
,1137,2023-10-20 13:27:24.19,127,-124,-2055,-5,21,39,1153,-1147,2300,-3
,1138,2023-10-20 13:27:24.20,132,-123,-2051,4,18,34,951,-1035,1986,42
,1139,2023-10-20 13:27:24.21,120,-139,-2057,16,21,27,1192,-1113,2305,-39
,1140,2023-10-20 13:27:24.22,112,-148,-2049,28,13,37,960,-1006,1966,23
,1141,2023-10-20 13:27:24.23,102,-128,-2059,36,6,39,1192,-1133,2325,-29
,1142,2023-10-20 13:27:24.24,111,-133,-2041,40,0,34,953,-1037,1990,42
,1143,2023-10-20 13:27:24.25,123,-146,-2029,47,5,30,1186,-1136,2322,-25
,1144,2023-10-20 13:27:24.26,125,-158,-2039,59,-2,35,951,-1020,1971,34
,1145,2023-10-20 13:27:24.27,97,-152,-2043,61,-2,39,1182,-1116,2298,-33
,1146,2023-10-20 13:27:24.28,102,-146,-2048,54,-14,39,953,-1003,1956,25
,1147,2023-10-20 13:27:24.29,101,-133,-2027,44,-14,28,1189,-1098,2287,-45
,1148,2023-10-20 13:27:24.30,108,-145,-2037,29,-7,19,958,-992,1950,17
,1149,2023-10-20 13:27:24.31,94,-155,-2053,18,-6,20,1190,-1121,2311,-34
,1150,2023-10-20 13:27:24.32,99,-172,-2062,17,-3,21,952,-1017,1969,32
,1151,2023-10-20 13:27:24.33,121,-155,-2062,23,-3,17,1190,-1132,2322,-29
,1152,2023-10-20 13:27:24.34,127,-164,-2050,24,-2,21,944,-1012,1956,34
,1153,2023-10-20 13:27:24.35,120,-145,-2053,20,7,34,1175,-1113,2288,-31
,1154,2023-10-20 13:27:24.36,120,-145,-2054,17,11,43,944,-992,1936,24
,1155,2023-10-20 13:27:24.37,101,-162,-2059,20,7,49,1189,-1102,2291,-43
,1156,2023-10-20 13:27:24.38,113,-162,-2051,30,-4,56,955,-992,1947,18
,1157,2023-10-20 13:27:24.39,107,-160,-2044,24,4,60,1197,-1118,2315,-39
,1158,2023-10-20 13:27:24.40,109,-162,-2062,26,0,70,956,-1007,1963,25
,1159,2023-10-20 13:27:24.41,111,-165,-2049,30,-3,74,1200,-1122,2322,-39
,1160,2023-10-20 13:27:24.42,95,-144,-2059,33,-6,72,951,-1007,1958,28
,1161,2023-10-20 13:27:24.43,97,-143,-2054,28,-4,66,1194,-1129,2323,-32
,1162,2023-10-20 13:27:24.44,108,-143,-2043,19,-10,68,961,-1016,1977,27
,1163,2023-10-20 13:27:24.45,109,-143,-2049,14,-14,68,1199,-1137,2336,-31
,1164,2023-10-20 13:27:24.46,96,-141,-2071,0,-17,66,957,-1014,1971,28
,1165,2023-10-20 13:27:24.47,108,-150,-2070,-13,-13,63,1190,-1123,2313,-33
,1166,2023-10-20 13:27:24.48,83,-139,-2059,-26,-16,59,922,-999,1921,38
,1167,2023-10-20 13:27:24.49,109,-148,-2066,-29,-15,61,1154,-1104,2258,-25
,1168,2023-10-20 13:27:24.50,92,-156,-2058,-32,-13,60,933,-990,1923,28
,1169,2023-10-20 13:27:24.51,97,-155,-2059,-31,-7,63,1188,-1109,2297,-39
,1170,2023-10-20 13:27:24.52,103,-164,-2060,-21,-11,71,927,-1000,1927,36
,1171,2023-10-20 13:27:24.53,95,-153,-2059,-16,-11,75,1141,-1117,2258,-12
,1172,2023-10-20 13:27:24.54,97,-138,-2079,-9,-14,82,909,-998,1907,44
,1173,2023-10-20 13:27:24.55,96,-143,-2077,-1,-23,83,1126,-1110,2236,-8
,1174,2023-10-20 13:27:24.56,96,-142,-2059,1,-26,91,904,-992,1896,44
,1175,2023-10-20 13:27:24.57,85,-146,-2066,12,-38,94,1126,-1110,2236,-8
,1176,2023-10-20 13:27:24.58,89,-137,-2064,17,-40,94,888,-993,1881,52
,1177,2023-10-20 13:27:24.59,92,-148,-2049,18,-40,97,1082,-1105,2187,11
,1178,2023-10-20 13:27:24.60,91,-133,-2034,9,-32,94,824,-996,1820,86
,1179,2023-10-20 13:27:24.61,97,-122,-2033,4,-14,90,1054,-1106,2160,26
,1180,2023-10-20 13:27:24.62,86,-136,-2047,7,-8,84,850,-995,1845,72
,1181,2023-10-20 13:27:24.63,78,-134,-2036,15,-10,77,1103,-1113,2216,5
,1182,2023-10-20 13:27:24.64,92,-123,-2054,14,-1,71,965,-1000,1965,17
,1183,2023-10-20 13:27:24.65,94,-144,-2056,24,-7,59,1212,-1105,2317,-53
,1184,2023-10-20 13:27:24.66,95,-148,-2055,25,-9,61,994,-995,1989,0
,1185,2023-10-20 13:27:24.67,82,-160,-2086,16,1,63,1190,-1107,2297,-41
,1186,2023-10-20 13:27:24.68,92,-151,-2059,17,-19,58,974,-1003,1977,14
,1187,2023-10-20 13:27:24.69,101,-161,-2055,11,-22,71,1178,-1110,2288,-34
,1188,2023-10-20 13:27:24.70,112,-146,-2035,7,-20,74,962,-1002,1964,20
,1189,2023-10-20 13:27:24.71,107,-155,-2059,-1,-15,79,1134,-1102,2236,-16
,1190,2023-10-20 13:27:24.72,108,-149,-2055,15,-17,92,893,-1004,1897,55
,1191,2023-10-20 13:27:24.73,98,-160,-2045,32,-15,96,1083,-1113,2196,15
,1192,2023-10-20 13:27:24.74,121,-174,-2048,36,-13,103,871,-1008,1879,68
,1193,2023-10-20 13:27:24.75,96,-156,-2053,47,9,105,1052,-1097,2149,22
,1194,2023-10-20 13:27:24.76,70,-124,-2073,69,-7,102,890,-995,1885,52
,1195,2023-10-20 13:27:24.77,74,-133,-2103,49,-44,96,1109,-1097,2206,-6
,1196,2023-10-20 13:27:24.78,80,-181,-2106,45,-62,106,1010,-1009,2019,0
,1197,2023-10-20 13:27:24.79,51,-178,-2075,73,-90,107,1184,-1112,2296,-36
,1198,2023-10-20 13:27:24.80,65,-163,-2030,81,-86,99,1016,-1014,2030,-1
,1199,2023-10-20 13:27:24.81,67,-177,-2017,76,-73,107,1156,-1098,2254,-29
,1200,2023-10-20 13:27:24.82,51,-219,-2040,89,-79,116,1008,-1005,2013,-1
,1201,2023-10-20 13:27:24.83,60,-189,-2027,104,-87,128,1158,-1095,2253,-31
,1202,2023-10-20 13:27:24.84,51,-208,-2015,100,-79,140,1014,-1011,2025,-1
,1203,2023-10-20 13:27:24.85,70,-204,-2021,73,-68,151,1147,-1099,2246,-24
,1204,2023-10-20 13:27:24.86,68,-183,-2032,59,-55,162,1010,-1011,2021,0
,1205,2023-10-20 13:27:24.87,70,-175,-2048,60,-55,157,1138,-1093,2231,-22
,1206,2023-10-20 13:27:24.88,46,-154,-2065,54,-46,146,994,-1021,2015,13
,1207,2023-10-20 13:27:24.89,57,-139,-2060,47,-45,128,1123,-1111,2234,-6
,1208,2023-10-20 13:27:24.90,61,-160,-2052,32,-39,106,996,-1024,2020,14
,1209,2023-10-20 13:27:24.91,58,-156,-2050,23,-35,99,1104,-1086,2190,-9
,1210,2023-10-20 13:27:24.92,44,-168,-2044,21,-30,91,961,-1006,1967,22
,1211,2023-10-20 13:27:24.93,71,-164,-2046,23,-39,85,1086,-1083,2169,-1
,1212,2023-10-20 13:27:24.94,67,-174,-2048,19,-35,85,1000,-1021,2021,10
,1213,2023-10-20 13:27:24.95,61,-169,-2072,13,-36,85,1100,-1095,2195,-2
,1214,2023-10-20 13:27:24.96,52,-163,-2070,13,-43,76,983,-1025,2008,21
,1215,2023-10-20 13:27:24.97,64,-172,-2067,13,-50,67,1097,-1079,2176,-9
,1216,2023-10-20 13:27:24.98,51,-172,-2054,6,-45,70,1046,-1016,2062,-15
,1217,2023-10-20 13:27:24.99,47,-173,-2061,0,-38,72,1133,-1071,2204,-31
,1218,2023-10-20 13:27:25.00,49,-171,-2065,2,-51,71,1045,-1020,2065,-12
,1219,2023-10-20 13:27:25.01,65,-176,-2048,1,-59,86,1098,-1082,2180,-8
,1220,2023-10-20 13:27:25.02,46,-177,-2047,-4,-45,100,1028,-1032,2060,2
,1221,2023-10-20 13:27:25.03,78,-157,-2032,-8,-38,106,1084,-1079,2163,-2
,1222,2023-10-20 13:27:25.04,64,-174,-2032,-5,-28,119,1004,-1028,2032,12
,1223,2023-10-20 13:27:25.05,40,-184,-2052,6,-22,131,1058,-1069,2127,5
,1224,2023-10-20 13:27:25.06,30,-162,-2053,27,-24,124,1052,-1028,2080,-12
,1225,2023-10-20 13:27:25.07,33,-139,-2063,49,-40,117,1105,-1070,2175,-17
,1226,2023-10-20 13:27:25.08,34,-140,-2066,58,-49,102,1057,-1031,2088,-13
,1227,2023-10-20 13:27:25.09,33,-124,-2073,61,-65,84,1072,-1065,2137,-3
,1228,2023-10-20 13:27:25.10,43,-155,-2058,55,-69,68,1018,-1035,2053,8
,1229,2023-10-20 13:27:25.11,44,-163,-2046,68,-60,56,1055,-1071,2126,8
,1230,2023-10-20 13:27:25.12,28,-149,-2031,84,-59,44,1013,-1036,2049,11
,1231,2023-10-20 13:27:25.13,38,-169,-2050,90,-63,40,1041,-1056,2097,7
,1232,2023-10-20 13:27:25.14,28,-188,-2068,86,-73,45,1021,-1030,2051,4
,1233,2023-10-20 13:27:25.15,32,-182,-2066,86,-73,44,1046,-1053,2099,3
,1234,2023-10-20 13:27:25.16,25,-163,-2060,89,-75,42,1065,-1040,2105,-12
,1235,2023-10-20 13:27:25.17,20,-177,-2057,91,-72,37,1067,-1057,2124,-5
,1236,2023-10-20 13:27:25.18,23,-187,-2059,83,-72,37,1063,-1049,2112,-7
,1237,2023-10-20 13:27:25.19,13,-161,-2062,84,-67,32,1051,-1064,2115,6
,1238,2023-10-20 13:27:25.20,14,-170,-2061,88,-70,19,1088,-1053,2141,-17
,1239,2023-10-20 13:27:25.21,7,-180,-2063,88,-72,12,1058,-1055,2113,-1
,1240,2023-10-20 13:27:25.22,10,-197,-2053,90,-75,8,1060,-1044,2104,-8
,1241,2023-10-20 13:27:25.23,0,-209,-2041,97,-77,8,1031,-1041,2072,5
,1242,2023-10-20 13:27:25.24,-2,-220,-2032,97,-75,11,1067,-1053,2120,-7
,1243,2023-10-20 13:27:25.25,-3,-214,-2013,99,-64,14,1028,-1058,2086,15
,1244,2023-10-20 13:27:25.26,-10,-215,-2026,98,-55,18,1029,-1058,2087,14
,1245,2023-10-20 13:27:25.27,2,-213,-2022,93,-48,22,971,-1047,2018,38
,1246,2023-10-20 13:27:25.28,-11,-225,-2030,87,-39,28,1038,-1062,2100,12
,1247,2023-10-20 13:27:25.29,-28,-241,-2039,80,-32,29,1004,-1057,2061,26
,1248,2023-10-20 13:27:25.30,-23,-238,-2035,75,-31,32,1080,-1066,2146,-7
,1249,2023-10-20 13:27:25.31,-27,-244,-2041,69,-33,42,1004,-1046,2050,21
,1250,2023-10-20 13:27:25.32,-14,-227,-2040,61,-32,46,1063,-1060,2123,-1
,1251,2023-10-20 13:27:25.33,-7,-236,-2030,54,-29,51,1006,-1035,2041,14
,1252,2023-10-20 13:27:25.34,-13,-253,-2011,58,-34,61,1133,-1069,2202,-32
,1253,2023-10-20 13:27:25.35,2,-199,-2003,57,-23,62,1042,-1048,2090,3
,1254,2023-10-20 13:27:25.36,-6,-229,-2022,55,-13,54,1143,-1073,2216,-35
,1255,2023-10-20 13:27:25.37,-3,-239,-2021,56,-11,57,1015,-1040,2055,12
,1256,2023-10-20 13:27:25.38,-16,-203,-2018,52,5,55,1084,-1068,2152,-8
,1257,2023-10-20 13:27:25.39,24,-224,-2047,57,11,44,960,-1037,1997,38
,1258,2023-10-20 13:27:25.40,-6,-255,-1989,93,30,38,1084,-1068,2152,-8
,1259,2023-10-20 13:27:25.41,-31,-188,-2067,88,33,44,992,-1031,2023,19
,1260,2023-10-20 13:27:25.42,-5,-199,-2096,50,-18,50,1129,-1071,2200,-29
,1261,2023-10-20 13:27:25.43,7,-265,-2066,38,-53,74,1003,-1030,2033,13
,1262,2023-10-20 13:27:25.44,6,-263,-2065,36,-57,94,1130,-1077,2207,-26
,1263,2023-10-20 13:27:25.45,24,-244,-2040,24,-53,99,981,-1030,2011,24
,1264,2023-10-20 13:27:25.46,11,-256,-2023,20,-48,106,1088,-1075,2163,-6
,1265,2023-10-20 13:27:25.47,3,-241,-2032,35,-34,113,964,-1023,1987,29
,1266,2023-10-20 13:27:25.48,4,-219,-2072,55,-37,109,1133,-1085,2218,-24
,1267,2023-10-20 13:27:25.49,-3,-211,-2073,46,-41,105,996,-1034,2030,19
,1268,2023-10-20 13:27:25.50,2,-213,-2079,39,-38,101,1144,-1085,2229,-29
,1269,2023-10-20 13:27:25.51,-18,-212,-2099,35,-48,93,989,-1020,2009,15
,1270,2023-10-20 13:27:25.52,-15,-226,-2088,18,-53,92,1152,-1089,2241,-31
,1271,2023-10-20 13:27:25.53,-21,-219,-2058,11,-52,93,978,-1030,2008,26
,1272,2023-10-20 13:27:25.54,-26,-235,-2074,10,-64,100,1129,-1103,2232,-13
,1273,2023-10-20 13:27:25.55,-12,-217,-2071,7,-74,104,984,-1034,2018,25
,1274,2023-10-20 13:27:25.56,-11,-233,-2041,-2,-66,111,1179,-1097,2276,-41
,1275,2023-10-20 13:27:25.57,-21,-225,-2040,-1,-56,115,996,-1019,2015,11
,1276,2023-10-20 13:27:25.58,-16,-221,-2034,9,-58,116,1178,-1089,2267,-44
,1277,2023-10-20 13:27:25.59,-17,-216,-2038,21,-55,115,981,-1015,1996,17
,1278,2023-10-20 13:27:25.60,-21,-218,-2051,33,-51,109,1148,-1087,2235,-30
,1279,2023-10-20 13:27:25.61,-30,-216,-2045,53,-47,97,932,-1012,1944,40
,1280,2023-10-20 13:27:25.62,-47,-214,-2051,69,-61,80,1088,-1097,2185,4
,1281,2023-10-20 13:27:25.63,-36,-211,-2052,77,-66,70,948,-1018,1966,35
,1282,2023-10-20 13:27:25.64,-58,-230,-2060,90,-70,56,1192,-1099,2291,-46
,1283,2023-10-20 13:27:25.65,-50,-235,-2040,97,-78,49,990,-1010,2000,10
,1284,2023-10-20 13:27:25.66,-48,-236,-1996,98,-78,50,1189,-1090,2279,-49
,1285,2023-10-20 13:27:25.67,-49,-245,-2030,95,-72,53,963,-1000,1963,18
,1286,2023-10-20 13:27:25.68,-29,-249,-1988,66,-58,59,1163,-1090,2253,-36
,1287,2023-10-20 13:27:25.69,-39,-254,-1992,55,-36,64,926,-1005,1931,39
,1288,2023-10-20 13:27:25.70,-31,-274,-1993,51,-24,78,1092,-1088,2180,-2
,1289,2023-10-20 13:27:25.71,-41,-269,-2027,41,-5,93,883,-1003,1886,60
,1290,2023-10-20 13:27:25.72,-34,-275,-2015,30,8,105,1112,-1128,2240,8
,1291,2023-10-20 13:27:25.73,-61,-269,-2024,44,9,101,923,-1038,1961,57
,1292,2023-10-20 13:27:25.74,-43,-266,-2032,59,-2,99,1144,-1120,2264,-12
,1293,2023-10-20 13:27:25.75,-76,-248,-2064,60,-11,97,898,-1011,1909,56
,1294,2023-10-20 13:27:25.76,-40,-258,-2056,62,-27,91,1087,-1102,2189,7
,1295,2023-10-20 13:27:25.77,-54,-262,-2034,72,-22,87,856,-1001,1857,72
,1296,2023-10-20 13:27:25.78,-34,-239,-2025,77,-27,76,1055,-1108,2163,26
,1297,2023-10-20 13:27:25.79,-33,-236,-2040,67,-12,63,907,-1005,1912,49
,1298,2023-10-20 13:27:25.80,-50,-247,-2054,56,-1,52,1172,-1105,2277,-33
,1299,2023-10-20 13:27:25.81,-27,-265,-2042,52,-9,48,960,-994,1954,17
,1300,2023-10-20 13:27:25.82,-52,-286,-2044,46,-3,54,1176,-1107,2283,-34
,1301,2023-10-20 13:27:25.83,-58,-269,-2052,34,4,58,932,-1004,1936,36
,1302,2023-10-20 13:27:25.84,-47,-298,-2072,23,-9,69,1171,-1119,2290,-26
,1303,2023-10-20 13:27:25.85,-67,-296,-2054,25,-21,92,940,-1012,1952,36
,1304,2023-10-20 13:27:25.86,-64,-259,-2036,14,-24,105,1190,-1123,2313,-33
,1305,2023-10-20 13:27:25.87,-48,-261,-2034,-10,-24,111,957,-1012,1969,27
,1306,2023-10-20 13:27:25.88,-51,-279,-2033,-25,-23,124,1201,-1120,2321,-40
,1307,2023-10-20 13:27:25.89,-76,-282,-2055,-32,-20,141,946,-1009,1955,31
,1308,2023-10-20 13:27:25.90,-72,-275,-2054,-14,-38,145,1159,-1123,2282,-18
,1309,2023-10-20 13:27:25.91,-66,-251,-2048,-5,-48,152,908,-1006,1914,49
,1310,2023-10-20 13:27:25.92,-80,-258,-2067,-2,-49,146,1149,-1112,2261,-18
,1311,2023-10-20 13:27:25.93,-88,-239,-2050,-4,-50,142,911,-994,1905,41
,1312,2023-10-20 13:27:25.94,-71,-205,-2041,-6,-52,135,1133,-1110,2243,-11
,1313,2023-10-20 13:27:25.95,-60,-219,-2028,-17,-44,120,902,-997,1899,47
,1314,2023-10-20 13:27:25.96,-69,-214,-2031,-27,-26,106,1164,-1120,2284,-22
,1315,2023-10-20 13:27:25.97,-73,-219,-2027,-30,-16,100,931,-1004,1935,36
,1316,2023-10-20 13:27:25.98,-85,-241,-2042,-30,-7,92,1178,-1113,2291,-32
,1317,2023-10-20 13:27:25.99,-74,-242,-2046,-31,-9,93,944,-994,1938,25
,1318,2023-10-20 13:27:26.00,-70,-250,-2045,-28,-2,90,1174,-1114,2288,-30
,1319,2023-10-20 13:27:26.01,-81,-251,-2026,-24,-4,90,935,-998,1933,31
,1320,2023-10-20 13:27:26.02,-64,-245,-2025,-17,3,89,1175,-1108,2283,-33
,1321,2023-10-20 13:27:26.03,-65,-237,-2011,-14,11,85,905,-994,1899,44
,1322,2023-10-20 13:27:26.04,-51,-240,-2007,-9,22,80,1091,-1126,2217,17
,1323,2023-10-20 13:27:26.05,-59,-244,-2020,-5,34,77,878,-1011,1889,66
,1324,2023-10-20 13:27:26.06,-61,-234,-2033,-7,42,72,1140,-1121,2261,-9
,1325,2023-10-20 13:27:26.07,-59,-234,-2040,-8,42,68,936,-996,1932,30
,1326,2023-10-20 13:27:26.08,-46,-229,-2041,-8,39,65,1170,-1110,2280,-30
,1327,2023-10-20 13:27:26.09,-57,-233,-2037,-12,37,63,950,-994,1944,22
,1328,2023-10-20 13:27:26.10,-60,-223,-2041,-14,33,57,1182,-1113,2295,-34
,1329,2023-10-20 13:27:26.11,-63,-223,-2044,-19,31,54,948,-997,1945,24
,1330,2023-10-20 13:27:26.12,-56,-263,-2059,-19,21,55,1175,-1109,2284,-33
,1331,2023-10-20 13:27:26.13,-66,-215,-2046,-18,13,58,926,-996,1922,35
,1332,2023-10-20 13:27:26.14,-65,-226,-2063,-20,18,62,1132,-1116,2248,-8
,1333,2023-10-20 13:27:26.15,-63,-270,-1983,22,43,69,892,-1001,1893,54
,1334,2023-10-20 13:27:26.16,-88,-219,-2059,-4,41,84,1107,-1112,2219,2
,1335,2023-10-20 13:27:26.17,-75,-243,-2084,-43,-28,102,918,-1002,1920,42
,1336,2023-10-20 13:27:26.18,-53,-259,-2090,-57,-48,127,1161,-1123,2284,-19
,1337,2023-10-20 13:27:26.19,-79,-244,-2077,-74,-31,131,950,-1016,1966,33
,1338,2023-10-20 13:27:26.20,-47,-235,-2059,-73,-37,130,1160,-1116,2276,-22
,1339,2023-10-20 13:27:26.21,-46,-227,-2027,-60,-35,134,990,-1008,1998,9
,1340,2023-10-20 13:27:26.22,-50,-230,-2027,-51,-21,136,1196,-1115,2311,-40
,1341,2023-10-20 13:27:26.23,-61,-211,-2056,-51,-9,129,1000,-1001,2001,0
,1342,2023-10-20 13:27:26.24,-54,-198,-2067,-46,-17,124,1169,-1098,2267,-35
,1343,2023-10-20 13:27:26.25,-70,-210,-2080,-48,-27,123,985,-989,1974,2
,1344,2023-10-20 13:27:26.26,-72,-196,-2067,-58,-38,121,1170,-1097,2267,-36
,1345,2023-10-20 13:27:26.27,-54,-207,-2069,-67,-34,114,972,-1002,1974,15
,1346,2023-10-20 13:27:26.28,-60,-204,-2046,-69,-36,116,1136,-1107,2243,-14
,1347,2023-10-20 13:27:26.29,-64,-202,-2058,-67,-31,113,915,-1008,1923,46
,1348,2023-10-20 13:27:26.30,-61,-210,-2050,-63,-33,113,1090,-1100,2190,5
,1349,2023-10-20 13:27:26.31,-49,-211,-2036,-56,-34,111,904,-1007,1911,51
,1350,2023-10-20 13:27:26.32,-65,-201,-2009,-59,-26,121,1097,-1103,2200,3
,1351,2023-10-20 13:27:26.33,-45,-198,-2010,-56,-14,125,968,-1016,1984,24
,1352,2023-10-20 13:27:26.34,-65,-212,-2020,-50,-6,132,1147,-1111,2258,-18
,1353,2023-10-20 13:27:26.35,-74,-200,-2036,-29,-3,136,1002,-1016,2018,7
,1354,2023-10-20 13:27:26.36,-66,-187,-2035,-11,-3,131,1140,-1101,2241,-19
,1355,2023-10-20 13:27:26.37,-59,-182,-2025,-3,-6,130,954,-1011,1965,28
,1356,2023-10-20 13:27:26.38,-67,-170,-2017,1,7,119,1101,-1097,2198,-2
,1357,2023-10-20 13:27:26.39,-68,-152,-2034,-1,7,107,978,-1010,1988,16
,1358,2023-10-20 13:27:26.40,-66,-171,-2039,-4,9,101,1126,-1094,2220,-16
,1359,2023-10-20 13:27:26.41,-57,-190,-2044,6,7,96,1000,-1020,2020,10
,1360,2023-10-20 13:27:26.42,-63,-176,-2037,11,10,88,1130,-1106,2236,-12
,1361,2023-10-20 13:27:26.43,-55,-182,-2046,5,10,78,1034,-1030,2064,-2
,1362,2023-10-20 13:27:26.44,-46,-180,-2032,-10,24,73,1155,-1099,2254,-28
,1363,2023-10-20 13:27:26.45,-74,-216,-2035,-9,22,80,1000,-1021,2021,10
,1364,2023-10-20 13:27:26.46,-62,-220,-2062,-10,13,95,1101,-1089,2190,-6
,1365,2023-10-20 13:27:26.47,-48,-241,-2049,5,-9,107,887,-1018,1905,65
,1366,2023-10-20 13:27:26.48,-60,-194,-2048,10,0,106,992,-1084,2076,46
,1367,2023-10-20 13:27:26.49,-48,-196,-2040,13,8,97,788,-1023,1811,117
,1368,2023-10-20 13:27:26.50,-55,-182,-2059,12,18,86,928,-1089,2017,80
,1369,2023-10-20 13:27:26.51,-50,-191,-2046,5,24,80,774,-1029,1803,127
,1370,2023-10-20 13:27:26.52,-64,-196,-2054,1,27,78,928,-1089,2017,80
,1371,2023-10-20 13:27:26.53,-60,-202,-2058,-7,24,76,745,-1026,1771,140
,1372,2023-10-20 13:27:26.54,-61,-212,-2052,-17,24,88,887,-1079,1966,96
,1373,2023-10-20 13:27:26.55,-60,-222,-2046,-26,32,98,744,-1031,1775,143
,1374,2023-10-20 13:27:26.56,-65,-223,-2038,-33,35,112,901,-1085,1986,92
,1375,2023-10-20 13:27:26.57,-70,-213,-2050,-31,36,123,762,-1040,1802,139
,1376,2023-10-20 13:27:26.58,-63,-195,-2048,-15,30,121,910,-1083,1993,86
,1377,2023-10-20 13:27:26.59,-61,-182,-2043,-4,22,116,789,-1043,1832,127
,1378,2023-10-20 13:27:26.60,-79,-181,-2055,0,23,111,920,-1087,2007,83
,1379,2023-10-20 13:27:26.61,-71,-166,-2061,1,9,99,800,-1048,1848,124
,1380,2023-10-20 13:27:26.62,-76,-171,-2062,0,-1,85,919,-1082,2001,81
,1381,2023-10-20 13:27:26.63,-73,-165,-2043,5,-16,71,822,-1046,1868,112
,1382,2023-10-20 13:27:26.64,-76,-168,-2053,15,-22,54,931,-1082,2013,75
,1383,2023-10-20 13:27:26.65,-56,-148,-2056,14,-37,39,831,-1052,1883,110
,1384,2023-10-20 13:27:26.66,-72,-184,-2063,2,-22,29,912,-1070,1982,79
,1385,2023-10-20 13:27:26.67,-61,-176,-2056,5,-29,20,746,-1055,1801,154
,1386,2023-10-20 13:27:26.68,-74,-185,-2054,6,-26,12,876,-1085,1961,104
,1387,2023-10-20 13:27:26.69,-73,-196,-2055,5,-24,11,1014,-1064,2078,25
,1388,2023-10-20 13:27:26.70,-72,-186,-2061,5,-32,13,1095,-1069,2164,-13
,1389,2023-10-20 13:27:26.71,-73,-177,-2055,-2,-33,12,1096,-1052,2148,-22
,1390,2023-10-20 13:27:26.72,-73,-196,-2050,-4,-43,17,1054,-1066,2120,6
,1391,2023-10-20 13:27:26.73,-69,-195,-2043,-1,-39,16,1052,-1054,2106,1
,1392,2023-10-20 13:27:26.74,-65,-181,-2056,12,-47,12,1036,-1063,2099,13
,1393,2023-10-20 13:27:26.75,-66,-178,-2037,20,-49,10,1066,-1060,2126,-3
,1394,2023-10-20 13:27:26.76,-62,-177,-2025,29,-43,7,1041,-1062,2103,10
,1395,2023-10-20 13:27:26.77,-69,-169,-2052,41,-39,3,1056,-1068,2124,6
,1396,2023-10-20 13:27:26.78,-87,-188,-2043,47,-42,1,1033,-1068,2101,17
,1397,2023-10-20 13:27:26.79,-85,-180,-2045,45,-39,-2,1126,-1075,2201,-25
,1398,2023-10-20 13:27:26.80,-98,-194,-2037,48,-35,-4,1067,-1065,2132,-1
,1399,2023-10-20 13:27:26.81,-96,-204,-2030,50,-37,-1,1126,-1073,2199,-26
,1400,2023-10-20 13:27:26.82,-86,-198,-2023,51,-32,3,1037,-1061,2098,12
,1401,2023-10-20 13:27:26.83,-99,-214,-2022,50,-26,12,1099,-1074,2173,-12
,1402,2023-10-20 13:27:26.84,-95,-200,-2019,54,-21,16,1030,-1062,2092,16
,1403,2023-10-20 13:27:26.85,-97,-208,-2016,55,-16,26,1136,-1079,2215,-28
,1404,2023-10-20 13:27:26.86,-88,-205,-2031,54,-13,33,1047,-1057,2104,5
,1405,2023-10-20 13:27:26.87,-103,-211,-2039,55,-7,34,1143,-1096,2239,-23
,1406,2023-10-20 13:27:26.88,-96,-208,-2043,50,0,35,1039,-1076,2115,18
,1407,2023-10-20 13:27:26.89,-101,-205,-2052,52,0,33,1141,-1091,2232,-25
,1408,2023-10-20 13:27:26.90,-98,-204,-2052,52,-1,30,1032,-1045,2077,6
,1409,2023-10-20 13:27:26.91,-101,-199,-2048,43,-5,25,1140,-1067,2207,-36
,1410,2023-10-20 13:27:26.92,-98,-187,-2042,39,-4,15,1014,-1030,2044,8
,1411,2023-10-20 13:27:26.93,-110,-191,-2047,32,-1,9,1123,-1067,2190,-28
,1412,2023-10-20 13:27:26.94,-92,-199,-2043,30,0,-1,984,-1033,2017,24
,1413,2023-10-20 13:27:26.95,-93,-203,-2044,26,0,-10,1073,-1079,2152,3
,1414,2023-10-20 13:27:26.96,-93,-207,-2048,27,0,-16,966,-1041,2007,37
,1415,2023-10-20 13:27:26.97,-81,-210,-2045,28,0,-20,1064,-1080,2144,8
,1416,2023-10-20 13:27:26.98,-91,-209,-2044,27,-2,-21,959,-1030,1989,35
,1417,2023-10-20 13:27:26.99,-86,-210,-2048,26,-2,-22,1094,-1084,2178,-5
,1418,2023-10-20 13:27:27.00,-91,-208,-2036,25,-5,-23,969,-1033,2002,32
,1419,2023-10-20 13:27:27.01,-91,-208,-2054,27,-6,-23,1090,-1090,2180,0
,1420,2023-10-20 13:27:27.02,-84,-208,-2043,21,-8,-17,939,-1037,1976,49
,1421,2023-10-20 13:27:27.03,-92,-209,-2037,18,-8,-20,1064,-1096,2160,16
,1422,2023-10-20 13:27:27.04,-101,-219,-2049,17,-6,-18,961,-1035,1996,37
,1423,2023-10-20 13:27:27.05,-94,-215,-2041,21,-15,-14,1171,-1100,2271,-35
,1424,2023-10-20 13:27:27.06,-95,-218,-2039,27,-18,-12,1000,-1038,2038,19
,1425,2023-10-20 13:27:27.07,-88,-216,-2029,29,-17,-8,1166,-1107,2273,-29
,1426,2023-10-20 13:27:27.08,-101,-220,-2038,28,-12,-5,984,-1034,2018,25
,1427,2023-10-20 13:27:27.09,-86,-218,-2040,33,-12,-3,1170,-1100,2270,-35
,1428,2023-10-20 13:27:27.10,-98,-218,-2043,35,-10,-2,984,-1023,2007,19
,1429,2023-10-20 13:27:27.11,-87,-220,-2053,32,-2,1,1180,-1096,2276,-42
,1430,2023-10-20 13:27:27.12,-103,-225,-2045,32,-3,8,980,-1019,1999,19
,1431,2023-10-20 13:27:27.13,-100,-229,-2031,30,-1,14,1181,-1099,2280,-41
,1432,2023-10-20 13:27:27.14,-104,-232,-2053,31,-4,22,981,-1018,1999,18
,1433,2023-10-20 13:27:27.15,-103,-240,-2055,39,-12,31,1167,-1097,2264,-35
,1434,2023-10-20 13:27:27.16,-96,-227,-2042,40,-12,34,944,-1014,1958,35
,1435,2023-10-20 13:27:27.17,-93,-220,-2044,38,-9,39,1123,-1098,2221,-12
,1436,2023-10-20 13:27:27.18,-82,-215,-2050,39,-6,40,898,-1016,1914,59
,1437,2023-10-20 13:27:27.19,-86,-213,-2053,37,-5,40,1050,-1099,2149,24
,1438,2023-10-20 13:27:27.20,-92,-222,-2047,33,-7,40,858,-1010,1868,76
,1439,2023-10-20 13:27:27.21,-94,-226,-2042,34,-11,41,1032,-1100,2132,34
,1440,2023-10-20 13:27:27.22,-99,-226,-2035,31,-17,42,837,-1012,1849,87
,1441,2023-10-20 13:27:27.23,-103,-220,-2040,30,-14,38,974,-1098,2072,62
,1442,2023-10-20 13:27:27.24,-106,-216,-2039,28,-21,35,776,-1008,1784,116
,1443,2023-10-20 13:27:27.25,-102,-211,-2029,31,-23,32,935,-1105,2040,85
,1444,2023-10-20 13:27:27.26,-105,-208,-2030,25,-20,28,743,-1015,1758,136
,1445,2023-10-20 13:27:27.27,-105,-208,-2035,20,-18,24,920,-1106,2026,93
,1446,2023-10-20 13:27:27.28,-112,-206,-2036,19,-15,20,754,-1013,1767,129
,1447,2023-10-20 13:27:27.29,-111,-212,-2026,21,-17,16,960,-1114,2074,77
,1448,2023-10-20 13:27:27.30,-102,-215,-2025,20,-10,11,762,-1019,1781,128
,1449,2023-10-20 13:27:27.31,-109,-215,-2040,19,-5,11,916,-1115,2031,99
,1450,2023-10-20 13:27:27.32,-126,-220,-2028,21,-6,10,702,-1014,1716,156
,1451,2023-10-20 13:27:27.33,-111,-230,-2029,24,-5,8,843,-1121,1964,139
,1452,2023-10-20 13:27:27.34,-118,-217,-2029,26,-2,6,667,-1020,1687,176
,1453,2023-10-20 13:27:27.35,-99,-222,-2042,21,7,4,881,-1121,2002,120
,1454,2023-10-20 13:27:27.36,-115,-219,-2040,21,6,1,680,-1016,1696,168
,1455,2023-10-20 13:27:27.37,-109,-221,-2045,22,2,0,844,-1123,1967,139
,1456,2023-10-20 13:27:27.38,-107,-221,-2044,22,1,-5,617,-1024,1641,203
,1457,2023-10-20 13:27:27.39,-99,-214,-2044,22,-5,-10,827,-1144,1971,158
,1458,2023-10-20 13:27:27.40,-111,-219,-2055,17,-6,-15,827,-1036,1863,104
,1459,2023-10-20 13:27:27.41,-115,-231,-2054,18,-14,-16,1220,-1129,2349,-45
,1460,2023-10-20 13:27:27.42,-106,-233,-2042,16,-20,-12,967,-1011,1978,22
,1461,2023-10-20 13:27:27.43,-114,-239,-2033,9,-16,-11,1131,-1121,2252,-5
,1462,2023-10-20 13:27:27.44,-104,-231,-2031,1,-3,-12,840,-1012,1852,86
,1463,2023-10-20 13:27:27.45,-105,-229,-2032,3,-5,-7,1057,-1120,2177,31
,1464,2023-10-20 13:27:27.46,-104,-226,-2026,3,-3,-5,814,-1002,1816,94
,1465,2023-10-20 13:27:27.47,-100,-225,-2034,-1,3,-2,1047,-1107,2154,30
,1466,2023-10-20 13:27:27.48,-102,-230,-2040,-1,6,2,853,-997,1850,72
,1467,2023-10-20 13:27:27.49,-121,-221,-2036,-3,7,6,1124,-1122,2246,-1
,1468,2023-10-20 13:27:27.50,-118,-231,-2033,-9,6,8,940,-1017,1957,38
,1469,2023-10-20 13:27:27.51,-104,-222,-2039,-8,5,12,1205,-1135,2340,-35
,1470,2023-10-20 13:27:27.52,-109,-218,-2041,-7,1,17,985,-1019,2004,17
,1471,2023-10-20 13:27:27.53,-111,-215,-2042,-8,5,16,1228,-1128,2356,-50
,1472,2023-10-20 13:27:27.54,-118,-212,-2038,3,4,23,987,-1007,1994,10
,1473,2023-10-20 13:27:27.55,-126,-210,-2044,-4,-1,24,1210,-1118,2328,-46
,1474,2023-10-20 13:27:27.56,-106,-212,-2041,-7,3,24,962,-1000,1962,19
,1475,2023-10-20 13:27:27.57,-115,-211,-2053,-2,7,21,1195,-1118,2313,-38
,1476,2023-10-20 13:27:27.58,-107,-211,-2041,2,8,21,968,-1000,1968,16
,1477,2023-10-20 13:27:27.59,-123,-219,-2043,5,9,21,1206,-1112,2318,-47
,1478,2023-10-20 13:27:27.60,-116,-215,-2034,6,12,21,966,-1001,1967,17
,1479,2023-10-20 13:27:27.61,-113,-215,-2045,8,17,22,1200,-1122,2322,-39
,1480,2023-10-20 13:27:27.62,-123,-212,-2039,14,19,21,981,-1016,1997,17
,1481,2023-10-20 13:27:27.63,-108,-212,-2047,14,21,22,1206,-1138,2344,-34
,1482,2023-10-20 13:27:27.64,-111,-214,-2042,13,19,22,978,-1019,1997,20
,1483,2023-10-20 13:27:27.65,-93,-213,-2038,12,26,27,1194,-1119,2313,-37
,1484,2023-10-20 13:27:27.66,-102,-219,-2043,14,27,28,975,-999,1974,12
,1485,2023-10-20 13:27:27.67,-95,-212,-2039,10,26,31,1192,-1119,2311,-36
,1486,2023-10-20 13:27:27.68,-93,-219,-2040,9,29,33,981,-1006,1987,12
,1487,2023-10-20 13:27:27.69,-95,-228,-2042,9,29,35,1196,-1112,2308,-42
,1488,2023-10-20 13:27:27.70,-96,-215,-2039,12,26,37,966,-1003,1969,18
,1489,2023-10-20 13:27:27.71,-105,-213,-2035,13,28,40,1173,-1123,2296,-25
,1490,2023-10-20 13:27:27.72,-94,-226,-2027,16,33,40,943,-1013,1956,35
,1491,2023-10-20 13:27:27.73,-102,-222,-2028,16,31,42,1155,-1117,2272,-19
,1492,2023-10-20 13:27:27.74,-99,-220,-2030,17,32,44,943,-1006,1949,31
,1493,2023-10-20 13:27:27.75,-96,-219,-2029,20,29,45,1146,-1112,2258,-17
,1494,2023-10-20 13:27:27.76,-92,-215,-2036,20,32,46,920,-1008,1928,44
,1495,2023-10-20 13:27:27.77,-99,-217,-2039,16,33,47,1108,-1122,2230,7
,1496,2023-10-20 13:27:27.78,-89,-207,-2041,12,33,48,901,-1015,1916,57
,1497,2023-10-20 13:27:27.79,-89,-202,-2039,8,30,42,1096,-1116,2212,10
,1498,2023-10-20 13:27:27.80,-85,-205,-2040,-2,36,38,908,-1009,1917,50
,1499,2023-10-20 13:27:27.81,-93,-205,-2045,-4,38,37,1115,-1104,2219,-5
,1500,2023-10-20 13:27:27.82,-91,-214,-2053,-3,36,33,924,-1002,1926,39
,1501,2023-10-20 13:27:27.83,-88,-223,-2053,-1,32,32,1111,-1102,2213,-4
,1502,2023-10-20 13:27:27.84,-78,-214,-2057,2,30,27,932,-1001,1933,34
,1503,2023-10-20 13:27:27.85,-90,-224,-2068,10,25,32,1119,-1099,2218,-10
,1504,2023-10-20 13:27:27.86,-82,-218,-2057,14,19,28,982,-1010,1992,14
,1505,2023-10-20 13:27:27.87,-75,-214,-2050,15,21,28,1164,-1109,2273,-27
,1506,2023-10-20 13:27:27.88,-68,-211,-2039,16,21,26,1003,-1020,2023,8
,1507,2023-10-20 13:27:27.89,-68,-216,-2042,20,19,23,1149,-1104,2253,-22
,1508,2023-10-20 13:27:27.90,-71,-206,-2033,18,21,25,976,-1018,1994,21
,1509,2023-10-20 13:27:27.91,-83,-204,-2037,18,27,23,1122,-1110,2232,-6
,1510,2023-10-20 13:27:27.92,-66,-210,-2030,19,20,19,981,-1026,2007,22
,1511,2023-10-20 13:27:27.93,-84,-227,-2019,14,22,20,1127,-1108,2235,-9
,1512,2023-10-20 13:27:27.94,-83,-229,-2034,13,17,20,981,-1021,2002,20
,1513,2023-10-20 13:27:27.95,-82,-231,-2039,13,15,23,1119,-1097,2216,-11
,1514,2023-10-20 13:27:27.96,-72,-229,-2049,15,16,21,987,-1024,2011,18
,1515,2023-10-20 13:27:27.97,-73,-203,-2041,20,2,15,1121,-1106,2227,-7
,1516,2023-10-20 13:27:27.98,-90,-211,-2049,10,10,14,976,-1032,2008,28
,1517,2023-10-20 13:27:27.99,-94,-209,-2072,3,12,7,1102,-1101,2203,0
,1518,2023-10-20 13:27:28.00,-81,-208,-2044,3,1,-8,984,-1034,2018,25
,1519,2023-10-20 13:27:28.01,-78,-237,-2040,-5,3,-1,1106,-1103,2209,-1
,1520,2023-10-20 13:27:28.02,-98,-232,-2054,-10,11,3,1014,-1039,2053,12
,1521,2023-10-20 13:27:28.03,-97,-217,-2046,-12,7,5,1111,-1098,2209,-6
,1522,2023-10-20 13:27:28.04,-75,-224,-2027,-20,9,12,1022,-1028,2050,3
,1523,2023-10-20 13:27:28.05,-79,-226,-2031,-26,21,27,1107,-1083,2190,-12
,1524,2023-10-20 13:27:28.06,-87,-222,-2040,-28,27,34,1044,-1029,2073,-7
,1525,2023-10-20 13:27:28.07,-89,-209,-2053,-17,25,36,1118,-1088,2206,-15
,1526,2023-10-20 13:27:28.08,-78,-204,-2048,-9,16,33,1021,-1038,2059,8
,1527,2023-10-20 13:27:28.09,-92,-206,-2045,-2,18,31,1087,-1084,2171,-1
,1528,2023-10-20 13:27:28.10,-83,-193,-2035,0,14,32,1037,-1033,2070,-2
,1529,2023-10-20 13:27:28.11,-92,-201,-2048,-1,16,30,1096,-1073,2169,-11
,1530,2023-10-20 13:27:28.12,-88,-206,-2046,4,15,31,1038,-1040,2078,1
,1531,2023-10-20 13:27:28.13,-72,-210,-2045,4,14,32,1080,-1087,2167,3
,1532,2023-10-20 13:27:28.14,-89,-210,-2053,3,7,35,1071,-1049,2120,-11
,1533,2023-10-20 13:27:28.15,-88,-213,-2040,7,9,33,1098,-1079,2177,-9
,1534,2023-10-20 13:27:28.16,-85,-213,-2039,8,10,34,1074,-1039,2113,-17
,1535,2023-10-20 13:27:28.17,-83,-214,-2043,11,5,36,1083,-1069,2152,-7
,1536,2023-10-20 13:27:28.18,-68,-209,-2047,17,2,36,1004,-1039,2043,17
,1537,2023-10-20 13:27:28.19,-79,-207,-2049,14,3,38,1014,-1066,2080,26
,1538,2023-10-20 13:27:28.20,-70,-222,-2055,17,-1,36,856,-1045,1901,94
,1539,2023-10-20 13:27:28.21,-81,-222,-2045,16,3,35,908,-1068,1976,80
,1540,2023-10-20 13:27:28.22,-69,-231,-2043,22,-4,39,820,-1049,1869,114
,1541,2023-10-20 13:27:28.23,-74,-214,-2034,17,7,43,898,-1066,1964,84
,1542,2023-10-20 13:27:28.24,-75,-218,-2032,15,14,46,789,-1058,1847,134
,1543,2023-10-20 13:27:28.25,-73,-223,-2036,13,17,50,839,-1078,1917,119
,1544,2023-10-20 13:27:28.26,-82,-221,-2037,11,20,49,748,-1067,1815,159
,1545,2023-10-20 13:27:28.27,-69,-219,-2042,11,19,49,829,-1066,1895,118
,1546,2023-10-20 13:27:28.28,-64,-216,-2039,7,16,49,764,-1052,1816,144
,1547,2023-10-20 13:27:28.29,-75,-217,-2047,6,14,51,859,-1052,1911,96
,1548,2023-10-20 13:27:28.30,-80,-217,-2050,4,9,46,1028,-1057,2085,14
,1549,2023-10-20 13:27:28.31,-72,-201,-2054,4,5,42,1058,-1063,2121,2
,1550,2023-10-20 13:27:28.32,-63,-199,-2044,5,-5,34,1126,-1072,2198,-27
,1551,2023-10-20 13:27:28.33,-60,-195,-2030,7,-7,22,1047,-1062,2109,7
,1552,2023-10-20 13:27:28.34,-66,-211,-2028,9,-3,14,1082,-1068,2150,-7
,1553,2023-10-20 13:27:28.35,-64,-210,-2025,5,2,12,1018,-1050,2068,16
,1554,2023-10-20 13:27:28.36,-73,-225,-2031,4,6,9,1096,-1074,2170,-11
,1555,2023-10-20 13:27:28.37,-80,-230,-2035,1,7,20,1026,-1060,2086,17
,1556,2023-10-20 13:27:28.38,-64,-234,-2041,-4,11,32,1116,-1071,2187,-22
,1557,2023-10-20 13:27:28.39,-82,-231,-2048,-7,14,47,1026,-1044,2070,9
,1558,2023-10-20 13:27:28.40,-75,-219,-2054,-9,12,64,1131,-1064,2195,-33
,1559,2023-10-20 13:27:28.41,-82,-220,-2057,-14,5,76,1030,-1039,2069,4
,1560,2023-10-20 13:27:28.42,-83,-219,-2057,-19,0,89,1128,-1081,2209,-23
,1561,2023-10-20 13:27:28.43,-83,-211,-2061,-12,3,98,1018,-1054,2072,18
,1562,2023-10-20 13:27:28.44,-87,-208,-2069,-5,-6,95,1128,-1087,2215,-20
,1563,2023-10-20 13:27:28.45,-92,-175,-2065,8,-12,85,1014,-1042,2056,14
,1564,2023-10-20 13:27:28.46,-80,-173,-2047,15,-21,72,1140,-1088,2228,-26
,1565,2023-10-20 13:27:28.47,-82,-169,-2039,18,-26,58,1013,-1050,2063,18
,1566,2023-10-20 13:27:28.48,-78,-191,-2043,16,-20,56,1146,-1088,2234,-29
,1567,2023-10-20 13:27:28.49,-87,-177,-2049,28,-18,42,1009,-1039,2048,15
,1568,2023-10-20 13:27:28.50,-92,-193,-2045,30,-22,32,1148,-1077,2225,-35
,1569,2023-10-20 13:27:28.51,-94,-187,-2042,34,-21,24,1006,-1023,2029,8
,1570,2023-10-20 13:27:28.52,-102,-197,-2041,36,-25,22,1152,-1088,2240,-32
,1571,2023-10-20 13:27:28.53,-96,-206,-2044,34,-29,21,998,-1037,2035,19
,1572,2023-10-20 13:27:28.54,-104,-209,-2037,39,-34,15,1155,-1093,2248,-31
,1573,2023-10-20 13:27:28.55,-104,-211,-2029,41,-32,19,991,-1029,2020,19
,1574,2023-10-20 13:27:28.56,-89,-208,-2024,35,-26,22,1161,-1090,2251,-35
,1575,2023-10-20 13:27:28.57,-102,-227,-2029,42,-24,28,989,-1028,2017,19
,1576,2023-10-20 13:27:28.58,-102,-225,-2024,50,-22,30,1174,-1091,2265,-41
,1577,2023-10-20 13:27:28.59,-95,-221,-2029,31,-10,28,986,-1024,2010,19
,1578,2023-10-20 13:27:28.60,-106,-237,-2041,36,-1,31,1165,-1084,2249,-40
,1579,2023-10-20 13:27:28.61,-104,-212,-2042,48,-11,35,966,-1017,1983,25
,1580,2023-10-20 13:27:28.62,-104,-206,-2042,32,-13,32,1168,-1090,2258,-39
,1581,2023-10-20 13:27:28.63,-102,-210,-2039,21,-4,26,984,-1019,2003,17
,1582,2023-10-20 13:27:28.64,-103,-202,-2043,22,-2,22,1180,-1104,2284,-38
,1583,2023-10-20 13:27:28.65,-108,-199,-2043,19,-4,17,981,-1029,2010,24
,1584,2023-10-20 13:27:28.66,-92,-206,-2034,11,-4,9,1169,-1113,2282,-28
,1585,2023-10-20 13:27:28.67,-97,-213,-2033,8,6,8,971,-1028,1999,28
,1586,2023-10-20 13:27:28.68,-90,-220,-2034,8,6,6,1180,-1100,2280,-40
,1587,2023-10-20 13:27:28.69,-104,-220,-2038,6,4,8,966,-1009,1975,21
,1588,2023-10-20 13:27:28.70,-92,-222,-2042,2,10,11,1181,-1094,2275,-43
,1589,2023-10-20 13:27:28.71,-92,-225,-2040,2,13,13,964,-1004,1968,20
,1590,2023-10-20 13:27:28.72,-89,-214,-2036,-1,9,15,1180,-1094,2274,-43
,1591,2023-10-20 13:27:28.73,-95,-225,-2035,1,10,15,976,-1006,1982,15
,1592,2023-10-20 13:27:28.74,-92,-214,-2041,1,14,14,1186,-1104,2290,-41
,1593,2023-10-20 13:27:28.75,-83,-203,-2036,-1,18,14,968,-1010,1978,21
,1594,2023-10-20 13:27:28.76,-95,-210,-2045,-4,18,14,1184,-1106,2290,-39
,1595,2023-10-20 13:27:28.77,-84,-216,-2044,-9,16,13,970,-1007,1977,18
,1596,2023-10-20 13:27:28.78,-101,-222,-2048,-10,22,16,1194,-1101,2295,-46
,1597,2023-10-20 13:27:28.79,-96,-230,-2054,-9,12,20,965,-999,1964,17
,1598,2023-10-20 13:27:28.80,-91,-223,-2040,-5,13,24,1190,-1102,2292,-44
,1599,2023-10-20 13:27:28.81,-87,-217,-2052,-9,28,26,956,-1003,1959,23
,1600,2023-10-20 13:27:28.82,-57,-199,-2014,2,35,23,1186,-1104,2290,-41
,1601,2023-10-20 13:27:28.83,-96,-217,-2031,27,61,18,952,-1002,1954,25
,1602,2023-10-20 13:27:28.84,-90,-215,-2076,4,41,24,1187,-1108,2295,-39
,1603,2023-10-20 13:27:28.85,-80,-250,-2096,-16,-16,41,957,-1004,1961,23
,1604,2023-10-20 13:27:28.86,-86,-237,-2066,-10,-32,62,1201,-1111,2312,-45
,1605,2023-10-20 13:27:28.87,-84,-203,-2044,-6,-14,56,959,-1004,1963,22
,1606,2023-10-20 13:27:28.88,-80,-188,-2028,-5,-6,37,1198,-1110,2308,-44
,1607,2023-10-20 13:27:28.89,-85,-184,-2013,11,-10,26,960,-998,1958,19
,1608,2023-10-20 13:27:28.90,-93,-186,-2022,13,3,16,1192,-1105,2297,-43
,1609,2023-10-20 13:27:28.91,-92,-209,-2035,3,14,14,952,-994,1946,21
,1610,2023-10-20 13:27:28.92,-86,-209,-2050,-8,3,19,1191,-1113,2304,-39
,1611,2023-10-20 13:27:28.93,-99,-214,-2051,-12,-11,24,956,-1004,1960,24
,1612,2023-10-20 13:27:28.94,-109,-219,-2045,-14,-24,33,1202,-1121,2323,-40
,1613,2023-10-20 13:27:28.95,-95,-210,-2037,-22,-23,36,957,-1010,1967,26
,1614,2023-10-20 13:27:28.96,-107,-211,-2032,-23,-18,41,1196,-1125,2321,-35
,1615,2023-10-20 13:27:28.97,-97,-191,-2035,-18,-13,40,957,-1007,1964,25
,1616,2023-10-20 13:27:28.98,-94,-191,-2038,-16,-7,36,1201,-1122,2323,-39
,1617,2023-10-20 13:27:28.99,-100,-184,-2031,-18,0,32,969,-1002,1971,16
,1618,2023-10-20 13:27:29.00,-97,-195,-2043,-19,3,20,1206,-1122,2328,-42
,1619,2023-10-20 13:27:29.01,-105,-188,-2047,-5,6,21,955,-1002,1957,23
,1620,2023-10-20 13:27:29.02,-104,-187,-2053,3,0,16,1182,-1116,2298,-33
,1621,2023-10-20 13:27:29.03,-105,-190,-2051,9,-5,8,953,-994,1947,20
,1622,2023-10-20 13:27:29.04,-101,-187,-2046,10,-7,-7,1194,-1118,2312,-38
,1623,2023-10-20 13:27:29.05,-84,-198,-2048,13,-6,-12,961,-1003,1964,21
,1624,2023-10-20 13:27:29.06,-106,-213,-2039,13,-6,-7,1197,-1122,2319,-37
,1625,2023-10-20 13:27:29.07,-91,-217,-2029,8,8,1,958,-1000,1958,21
,1626,2023-10-20 13:27:29.08,-86,-235,-2032,0,9,13,1188,-1117,2305,-35
,1627,2023-10-20 13:27:29.09,-81,-234,-2036,-8,19,28,953,-992,1945,19
,1628,2023-10-20 13:27:29.10,-96,-221,-2045,-2,29,46,1190,-1102,2292,-44
,1629,2023-10-20 13:27:29.11,-92,-209,-2042,7,24,50,938,-991,1929,26
,1630,2023-10-20 13:27:29.12,-82,-191,-2047,16,23,43,1159,-1115,2274,-22
,1631,2023-10-20 13:27:29.13,-89,-191,-2051,13,12,43,941,-1008,1949,33
,1632,2023-10-20 13:27:29.14,-91,-186,-2050,15,8,40,1187,-1130,2317,-28
,1633,2023-10-20 13:27:29.15,-83,-178,-2038,18,6,29,973,-1008,1981,17
,1634,2023-10-20 13:27:29.16,-87,-187,-2040,22,7,23,1190,-1115,2305,-37
,1635,2023-10-20 13:27:29.17,-96,-172,-2043,28,6,16,970,-994,1964,12
,1636,2023-10-20 13:27:29.18,-77,-185,-2049,28,-5,7,1184,-1113,2297,-35
,1637,2023-10-20 13:27:29.19,-88,-205,-2044,28,-8,7,967,-999,1966,16
,1638,2023-10-20 13:27:29.20,-96,-204,-2043,31,-2,5,1188,-1114,2302,-37
,1639,2023-10-20 13:27:29.21,-86,-202,-2046,31,1,2,963,-1000,1963,18
,1640,2023-10-20 13:27:29.22,-77,-204,-2044,27,-6,4,1178,-1106,2284,-36
,1641,2023-10-20 13:27:29.23,-83,-221,-2043,21,-4,15,964,-997,1961,16
,1642,2023-10-20 13:27:29.24,-98,-224,-2057,15,3,22,1172,-1114,2286,-29
,1643,2023-10-20 13:27:29.25,-103,-208,-2053,16,-5,27,976,-1006,1982,15
,1644,2023-10-20 13:27:29.26,-95,-207,-2050,18,-15,29,1178,-1118,2296,-30
,1645,2023-10-20 13:27:29.27,-99,-203,-2043,13,-18,31,978,-1002,1980,12
,1646,2023-10-20 13:27:29.28,-103,-216,-2039,14,-18,29,1176,-1100,2276,-38
,1647,2023-10-20 13:27:29.29,-89,-193,-2040,16,-18,25,978,-1002,1980,12
,1648,2023-10-20 13:27:29.30,-104,-197,-2037,21,-20,22,1172,-1125,2297,-23
,1649,2023-10-20 13:27:29.31,-99,-195,-2045,26,-21,21,990,-1022,2012,16
,1650,2023-10-20 13:27:29.32,-110,-186,-2046,24,-19,12,1165,-1110,2275,-27
,1651,2023-10-20 13:27:29.33,-111,-195,-2050,23,-21,7,987,-996,1983,4
,1652,2023-10-20 13:27:29.34,-105,-195,-2032,16,-19,3,1159,-1092,2251,-33
,1653,2023-10-20 13:27:29.35,-97,-200,-2033,17,-16,-4,995,-996,1991,0
,1654,2023-10-20 13:27:29.36,-105,-199,-2031,15,-12,-3,1162,-1097,2259,-32
,1655,2023-10-20 13:27:29.37,-119,-215,-2035,15,-7,-2,992,-999,1991,3
,1656,2023-10-20 13:27:29.38,-121,-219,-2040,12,-3,1,1152,-1087,2239,-32
,1657,2023-10-20 13:27:29.39,-110,-220,-2035,15,4,5,964,-997,1961,16
,1658,2023-10-20 13:27:29.40,-111,-221,-2040,17,7,14,1115,-1091,2206,-12
,1659,2023-10-20 13:27:29.41,-116,-221,-2039,18,8,24,927,-1006,1933,39
,1660,2023-10-20 13:27:29.42,-93,-217,-2039,16,12,33,1099,-1092,2191,-3
,1661,2023-10-20 13:27:29.43,-105,-218,-2036,17,18,44,941,-1012,1953,35
,1662,2023-10-20 13:27:29.44,-102,-212,-2027,16,22,51,1098,-1092,2190,-3
,1663,2023-10-20 13:27:29.45,-101,-209,-2026,15,27,55,970,-1012,1982,21
,1664,2023-10-20 13:27:29.46,-103,-199,-2034,16,35,64,1123,-1093,2216,-15
,1665,2023-10-20 13:27:29.47,-99,-209,-2042,15,36,67,960,-1013,1973,26
,1666,2023-10-20 13:27:29.48,-106,-205,-2048,13,37,65,1088,-1082,2170,-3
,1667,2023-10-20 13:27:29.49,-86,-207,-2049,14,36,65,952,-1012,1964,30
,1668,2023-10-20 13:27:29.50,-97,-202,-2046,14,38,61,1086,-1085,2171,0
