// Data mode  : Full
// Data quality  : Standard
// Acceleration sensor's range  : 2g
// Gyroscope sensor's range  : 250dps
//
//ARTIFACT,NUM,DATE,ACC_X,ACC_Y,ACC_Z,GYRO_X,GYRO_Y,GYRO_Z,EOG_L,EOG_R,EOG_H,EOG_V
,1,2023-10-27 10:25:54.22,-212,270,-16442,229,-23,-56,184,107,77,-145
,2,2023-10-27 10:25:54.24,11,189,-16167,219,75,6,183,118,65,-150
,3,2023-10-27 10:25:54.26,124,194,-16270,306,188,49,169,132,37,-150
,4,2023-10-27 10:25:54.28,4,208,-16532,445,330,47,156,149,7,-152
,5,2023-10-27 10:25:54.30,172,63,-16516,633,406,195,152,138,14,-145
,6,2023-10-27 10:25:54.32,-17,200,-16547,626,316,222,147,149,-2,-148
,7,2023-10-27 10:25:54.34,28,28,-16680,504,182,287,132,157,-25,-144
,8,2023-10-27 10:25:54.36,-11,179,-16630,280,-107,360,136,163,-27,-149
,9,2023-10-27 10:25:54.38,-131,212,-16481,251,-261,275,128,161,-33,-144
,10,2023-10-27 10:25:54.40,-155,168,-16427,293,-278,203,112,168,-56,-140
,11,2023-10-27 10:25:54.42,-168,247,-16450,263,-292,232,113,182,-69,-147
,12,2023-10-27 10:25:54.44,-225,134,-16490,172,-264,243,110,171,-61,-140
,13,2023-10-27 10:25:54.46,-269,243,-16412,47,-176,286,110,190,-80,-150
,14,2023-10-27 10:25:54.48,-186,285,-16435,-185,-87,290,109,204,-95,-156
,15,2023-10-27 10:25:54.50,-162,331,-16343,-235,82,224,100,206,-106,-153
,16,2023-10-27 10:25:54.52,-221,269,-16303,-163,184,249,79,208,-129,-143
,17,2023-10-27 10:25:54.54,-186,289,-16367,34,115,254,79,216,-137,-147
,18,2023-10-27 10:25:54.56,-269,267,-16541,224,-2,210,75,228,-153,-151
,19,2023-10-27 10:25:54.58,-374,304,-16538,383,-189,295,62,230,-168,-146
,20,2023-10-27 10:25:54.60,-341,230,-16549,394,-289,295,54,239,-185,-146
,21,2023-10-27 10:25:54.62,-441,296,-16405,457,-321,376,54,241,-187,-147
,22,2023-10-27 10:25:54.64,-469,322,-16347,361,-242,341,54,234,-180,-144
,23,2023-10-27 10:25:54.66,-426,249,-16182,229,-124,263,46,240,-194,-143
,24,2023-10-27 10:25:54.68,-474,74,-16307,185,65,262,41,262,-221,-151
,25,2023-10-27 10:25:54.70,-353,264,-16437,100,264,234,35,255,-220,-145
,26,2023-10-27 10:25:54.72,-298,369,-16440,39,492,143,23,229,-206,-126
,27,2023-10-27 10:25:54.74,-352,500,-16607,-66,499,10,16,252,-236,-134
,28,2023-10-27 10:25:54.76,-281,370,-16543,-284,428,-139,28,264,-236,-146
,29,2023-10-27 10:25:54.78,-179,268,-16416,-233,472,-202,24,260,-236,-142
,30,2023-10-27 10:25:54.80,-119,340,-16465,-78,530,-210,22,259,-237,-140
,31,2023-10-27 10:25:54.82,-203,172,-16545,140,534,-159,11,263,-252,-137
,32,2023-10-27 10:25:54.84,-95,219,-16461,296,439,-58,18,279,-261,-148
,33,2023-10-27 10:25:54.86,-147,249,-16549,400,304,-31,19,256,-237,-137
,34,2023-10-27 10:25:54.88,-136,250,-16503,429,207,56,2,266,-264,-134
,35,2023-10-27 10:25:54.90,-87,328,-16433,347,85,83,-7,283,-290,-138
,36,2023-10-27 10:25:54.92,-146,251,-16409,243,90,64,-7,268,-275,-130
,37,2023-10-27 10:25:54.94,-81,236,-16415,156,83,78,-14,264,-278,-125
,38,2023-10-27 10:25:54.96,-130,168,-16344,149,141,75,-18,272,-290,-127
,39,2023-10-27 10:25:54.98,-150,93,-16511,209,250,142,-17,286,-303,-134
,40,2023-10-27 10:25:55.00,-126,192,-16669,192,230,103,-20,276,-296,-128
,41,2023-10-27 10:25:55.02,-154,212,-16621,231,268,55,-10,264,-274,-127
,42,2023-10-27 10:25:55.04,-74,111,-16417,259,259,47,-12,265,-277,-126
,43,2023-10-27 10:25:55.06,-83,162,-16345,310,264,52,-16,260,-276,-122
,44,2023-10-27 10:25:55.08,-103,289,-16271,293,245,125,-20,273,-293,-126
,45,2023-10-27 10:25:55.10,-108,212,-16434,170,231,121,-21,272,-293,-125
,46,2023-10-27 10:25:55.12,28,262,-16278,137,144,93,-35,252,-287,-108
,47,2023-10-27 10:25:55.14,-158,263,-16433,18,186,90,-26,269,-295,-121
,48,2023-10-27 10:25:55.16,-112,273,-16378,-40,144,73,-21,266,-287,-122
,49,2023-10-27 10:25:55.18,-66,228,-16461,-108,194,56,-26,267,-293,-120
,50,2023-10-27 10:25:55.20,-39,173,-16413,-53,248,55,-11,236,-247,-112
,51,2023-10-27 10:25:55.22,41,138,-16426,58,285,99,-8,260,-268,-126
,52,2023-10-27 10:25:55.24,112,236,-16454,115,378,169,-6,258,-264,-126
,53,2023-10-27 10:25:55.26,199,244,-16480,171,437,179,2,259,-257,-130
,54,2023-10-27 10:25:55.28,261,327,-16551,187,467,209,-12,253,-265,-120
,55,2023-10-27 10:25:55.30,142,175,-16500,185,440,178,-5,233,-238,-114
,56,2023-10-27 10:25:55.32,203,180,-16509,204,356,221,7,243,-236,-125
,57,2023-10-27 10:25:55.34,242,102,-16441,277,314,299,10,235,-225,-122
,58,2023-10-27 10:25:55.36,366,122,-16452,299,287,417,18,228,-210,-123
,59,2023-10-27 10:25:55.38,272,210,-16510,293,245,489,28,228,-200,-128
,60,2023-10-27 10:25:55.40,359,210,-16507,285,172,491,24,218,-194,-121
,61,2023-10-27 10:25:55.42,240,129,-16472,267,142,505,15,215,-200,-115
,62,2023-10-27 10:25:55.44,325,96,-16321,319,125,455,32,209,-177,-120
,63,2023-10-27 10:25:55.46,363,97,-16503,367,127,453,35,207,-172,-121
,64,2023-10-27 10:25:55.48,341,197,-16421,384,240,406,44,202,-158,-123
,65,2023-10-27 10:25:55.50,350,141,-16490,407,224,408,55,202,-147,-128
,66,2023-10-27 10:25:55.52,269,191,-16628,410,152,377,51,184,-133,-117
,67,2023-10-27 10:25:55.54,227,138,-16548,357,27,370,54,187,-133,-120
,68,2023-10-27 10:25:55.56,136,298,-16460,353,27,312,54,165,-111,-109
,69,2023-10-27 10:25:55.58,211,123,-16358,348,-118,336,75,161,-86,-118
,70,2023-10-27 10:25:55.60,123,84,-16478,328,-173,308,80,161,-81,-120
,71,2023-10-27 10:25:55.62,198,9,-16442,334,-139,267,79,156,-77,-117
,72,2023-10-27 10:25:55.64,131,-48,-16485,387,-111,256,85,149,-64,-117
,73,2023-10-27 10:25:55.66,188,-26,-16434,452,-58,287,88,143,-55,-115
,74,2023-10-27 10:25:55.68,175,14,-16460,403,-68,280,113,122,-9,-117
,75,2023-10-27 10:25:55.70,150,-21,-16437,336,-57,331,115,134,-19,-124
,76,2023-10-27 10:25:55.72,-15,58,-16420,281,-34,335,121,125,-4,-123
,77,2023-10-27 10:25:55.74,234,-46,-16406,263,7,308,129,116,13,-122
,78,2023-10-27 10:25:55.76,111,-7,-16429,370,73,298,143,107,36,-125
,79,2023-10-27 10:25:55.78,111,-139,-16458,430,23,289,135,99,36,-117
,80,2023-10-27 10:25:55.80,163,-113,-16485,485,-27,339,148,96,52,-122
,81,2023-10-27 10:25:55.82,82,-109,-16489,430,-50,378,161,90,71,-125
,82,2023-10-27 10:25:55.84,162,-59,-16496,355,-94,415,153,84,69,-118
,83,2023-10-27 10:25:55.86,178,-92,-16541,310,-16,358,166,69,97,-117
,84,2023-10-27 10:25:55.88,145,-52,-16499,279,61,323,171,67,104,-119
,85,2023-10-27 10:25:55.90,321,-129,-16445,231,132,264,176,64,112,-120
,86,2023-10-27 10:25:55.92,289,-88,-16298,224,195,158,181,58,123,-119
,87,2023-10-27 10:25:55.94,302,-186,-16284,273,263,127,197,37,160,-117
,88,2023-10-27 10:25:55.96,246,-242,-16307,395,243,96,208,45,163,-126
,89,2023-10-27 10:25:55.98,262,-378,-16520,468,110,117,202,39,163,-120
,90,2023-10-27 10:25:56.00,260,-312,-16406,558,-41,204,210,29,181,-119
,91,2023-10-27 10:25:56.02,188,-232,-16499,487,-198,241,221,28,193,-124
,92,2023-10-27 10:25:56.04,-34,-159,-16431,353,-316,247,224,25,199,-124
,93,2023-10-27 10:25:56.06,39,-123,-16421,82,-308,170,241,15,226,-128
,94,2023-10-27 10:25:56.08,-3,-129,-16424,-144,-207,44,248,6,242,-127
,95,2023-10-27 10:25:56.10,106,-180,-16527,-281,53,-17,244,8,236,-126
,96,2023-10-27 10:25:56.12,216,-205,-16441,-348,220,-81,254,5,249,-129
,97,2023-10-27 10:25:56.14,235,-178,-16499,-297,254,-153,265,-2,267,-131
,98,2023-10-27 10:25:56.16,309,-236,-16404,-170,285,-161,266,-12,278,-127
,99,2023-10-27 10:25:56.18,289,-149,-16434,63,215,-120,260,-16,276,-122
,100,2023-10-27 10:25:56.20,299,-206,-16543,113,66,-68,261,-15,276,-123
,101,2023-10-27 10:25:56.22,41,-236,-16485,203,-114,25,268,-22,290,-123
,102,2023-10-27 10:25:56.24,91,-343,-16492,245,-208,168,276,-27,303,-124
,103,2023-10-27 10:25:56.26,171,-250,-16398,185,-198,262,283,-28,311,-127
,104,2023-10-27 10:25:56.28,171,-142,-16522,106,-111,330,288,-33,321,-127
,105,2023-10-27 10:25:56.30,84,-140,-16579,12,-121,333,291,-36,327,-127
,106,2023-10-27 10:25:56.32,9,-195,-16548,-75,-180,393,307,-36,343,-135
,107,2023-10-27 10:25:56.34,-67,-26,-16479,-142,-222,422,302,-37,339,-132
,108,2023-10-27 10:25:56.36,55,58,-16508,-247,-242,389,301,-46,347,-127
,109,2023-10-27 10:25:56.38,-13,-33,-16392,-277,-245,340,300,-51,351,-124
,110,2023-10-27 10:25:56.40,-106,-119,-16419,-164,-175,341,316,-43,359,-136
,111,2023-10-27 10:25:56.42,82,-34,-16438,-13,-83,390,320,-40,360,-140
,112,2023-10-27 10:25:56.44,-117,38,-16440,160,-118,503,321,-51,372,-135
,113,2023-10-27 10:25:56.46,-103,68,-16454,170,-190,516,326,-53,379,-136
,114,2023-10-27 10:25:56.48,-158,-21,-16425,131,-240,540,327,-45,372,-141
,115,2023-10-27 10:25:56.50,-143,-75,-16480,100,-166,600,327,-48,375,-139
,116,2023-10-27 10:25:56.52,-103,-61,-16382,147,-106,654,326,-56,382,-135
,117,2023-10-27 10:25:56.54,-97,-174,-16447,158,-6,682,321,-48,369,-136
,118,2023-10-27 10:25:56.56,-95,-193,-16320,309,18,791,326,-52,378,-137
,119,2023-10-27 10:25:56.58,-95,-143,-16269,318,147,813,324,-58,382,-133
,120,2023-10-27 10:25:56.60,25,-49,-16352,255,160,791,325,-56,381,-134
,121,2023-10-27 10:25:56.62,-5,31,-16375,214,211,720,331,-47,378,-142
,122,2023-10-27 10:25:56.64,91,-44,-16517,124,263,660,328,-58,386,-135
,123,2023-10-27 10:25:56.66,149,-260,-16472,102,191,676,329,-52,381,-138
,124,2023-10-27 10:25:56.68,240,-267,-16578,121,190,742,324,-42,366,-141
,125,2023-10-27 10:25:56.70,263,-67,-16539,140,190,787,325,-46,371,-139
,126,2023-10-27 10:25:56.72,217,-83,-16370,137,213,830,317,-42,359,-137
,127,2023-10-27 10:25:56.74,90,-32,-16582,75,156,779,317,-39,356,-139
,128,2023-10-27 10:25:56.76,110,-34,-16576,63,39,782,306,-53,359,-126
,129,2023-10-27 10:25:56.78,138,24,-16417,65,74,830,321,-45,366,-138
,130,2023-10-27 10:25:56.80,67,-55,-16370,89,14,787,316,-36,352,-140
,131,2023-10-27 10:25:56.82,185,-41,-16413,134,-66,770,310,-30,340,-140
,132,2023-10-27 10:25:56.84,12,-58,-16495,238,-105,861,306,-28,334,-139
,133,2023-10-27 10:25:56.86,34,-76,-16489,274,-145,927,305,-20,325,-142
,134,2023-10-27 10:25:56.88,5,-23,-16477,234,-153,969,305,-25,330,-140
,135,2023-10-27 10:25:56.90,69,9,-16455,186,-93,974,306,-16,322,-145
,136,2023-10-27 10:25:56.92,113,19,-16528,252,39,1027,294,-12,306,-141
,137,2023-10-27 10:25:56.94,33,-35,-16552,220,177,1017,289,-6,295,-141
,138,2023-10-27 10:25:56.96,24,-29,-16543,317,193,943,292,3,289,-147
,139,2023-10-27 10:25:56.98,187,-22,-16493,354,134,922,288,1,287,-144
,140,2023-10-27 10:25:57.00,81,-146,-16485,389,173,884,280,10,270,-145
,141,2023-10-27 10:25:57.02,196,-142,-16403,491,119,863,273,25,248,-149
,142,2023-10-27 10:25:57.04,148,-225,-16421,552,230,876,260,16,244,-138
,143,2023-10-27 10:25:57.06,69,-274,-16502,632,181,896,254,8,246,-131
,144,2023-10-27 10:25:57.08,109,-245,-16575,655,84,874,252,32,220,-142
,145,2023-10-27 10:25:57.10,59,-289,-16456,702,-61,842,251,45,206,-148
,146,2023-10-27 10:25:57.12,34,-349,-16360,696,-125,802,238,52,186,-145
,147,2023-10-27 10:25:57.14,28,-301,-16381,668,-96,731,244,62,182,-153
,148,2023-10-27 10:25:57.16,29,-283,-16340,605,-19,670,232,66,166,-149
,149,2023-10-27 10:25:57.18,154,-311,-16448,425,103,624,218,70,148,-144
,150,2023-10-27 10:25:57.20,137,-236,-16526,293,216,633,202,68,134,-135
,151,2023-10-27 10:25:57.22,236,-244,-16480,136,283,569,199,76,123,-137
,152,2023-10-27 10:25:57.24,285,-427,-16387,222,211,531,188,91,97,-139
,153,2023-10-27 10:25:57.26,267,-405,-16401,379,163,517,180,94,86,-137
,154,2023-10-27 10:25:57.28,293,-446,-16423,531,140,563,179,96,83,-137
,155,2023-10-27 10:25:57.30,215,-488,-16482,585,63,597,172,110,62,-141
,156,2023-10-27 10:25:57.32,48,-314,-16495,569,30,605,169,116,53,-142
,157,2023-10-27 10:25:57.34,20,-309,-16478,495,-110,609,165,95,70,-130
,158,2023-10-27 10:25:57.36,11,-333,-16454,410,-236,542,142,119,23,-130
,159,2023-10-27 10:25:57.38,-2,-384,-16529,407,-219,500,144,133,11,-138
,160,2023-10-27 10:25:57.40,18,-452,-16444,399,-131,510,135,144,-9,-139
,161,2023-10-27 10:25:57.42,-72,-468,-16561,398,-58,489,127,145,-18,-136
,162,2023-10-27 10:25:57.44,-83,-511,-16563,392,38,520,126,144,-18,-135
,163,2023-10-27 10:25:57.46,-83,-571,-16589,396,61,642,122,155,-33,-138
,164,2023-10-27 10:25:57.48,-126,-551,-16495,502,-139,697,114,161,-47,-137
,165,2023-10-27 10:25:57.50,55,-724,-16250,517,-280,844,108,172,-64,-140
,166,2023-10-27 10:25:57.52,25,-728,-16485,669,-341,975,88,178,-90,-133
,167,2023-10-27 10:25:57.54,20,-751,-16561,774,-340,1205,89,189,-100,-139
,168,2023-10-27 10:25:57.56,-152,-743,-16701,839,-406,1408,79,192,-113,-135
,169,2023-10-27 10:25:57.58,-175,-830,-16413,812,-398,1514,73,188,-115,-130
,170,2023-10-27 10:25:57.60,-116,-779,-16460,776,-387,1610,72,201,-129,-136
,171,2023-10-27 10:25:57.62,-167,-650,-16399,672,-418,1691,74,209,-135,-141
,172,2023-10-27 10:25:57.64,-128,-750,-16593,597,-417,1788,70,216,-146,-143
,173,2023-10-27 10:25:57.66,-30,-861,-16684,567,-449,1879,79,218,-139,-148
,174,2023-10-27 10:25:57.68,-61,-756,-16835,504,-429,2056,42,224,-182,-133
,175,2023-10-27 10:25:57.70,-143,-574,-16359,409,-500,2179,41,225,-184,-133
,176,2023-10-27 10:25:57.72,-59,-797,-16238,372,-537,2264,55,218,-163,-136
,177,2023-10-27 10:25:57.74,164,-660,-15966,376,-332,2291,45,238,-193,-141
,178,2023-10-27 10:25:57.76,151,-653,-16248,429,-8,2238,38,248,-210,-143
,179,2023-10-27 10:25:57.78,20,-703,-16441,702,-5,2198,30,254,-224,-142
,180,2023-10-27 10:25:57.80,102,-787,-16412,844,-168,2090,26,256,-230,-141
,181,2023-10-27 10:25:57.82,70,-986,-16263,991,-354,2000,10,248,-238,-129
,182,2023-10-27 10:25:57.84,-57,-903,-16358,1131,-560,1950,9,260,-251,-134
,183,2023-10-27 10:25:57.86,-131,-1011,-16481,1198,-677,1964,9,258,-249,-133
,184,2023-10-27 10:25:57.88,-268,-995,-16534,1181,-970,1995,-1,257,-258,-128
,185,2023-10-27 10:25:57.90,-370,-819,-16807,1164,-997,2067,-11,274,-285,-131
,186,2023-10-27 10:25:57.92,-374,-1379,-17532,765,-1232,2062,5,257,-252,-131
,187,2023-10-27 10:25:57.94,-600,-975,-17025,708,-1504,1876,5,265,-260,-135
,188,2023-10-27 10:25:57.96,-480,-1016,-16711,579,-1594,1775,6,280,-274,-143
,189,2023-10-27 10:25:57.98,-585,-880,-16296,406,-1504,1772,-2,266,-268,-132
,190,2023-10-27 10:25:58.00,-580,-1005,-16066,311,-1288,1605,-17,271,-288,-127
,191,2023-10-27 10:25:58.02,-750,-966,-16120,291,-1108,1506,-8,278,-286,-135
,192,2023-10-27 10:25:58.04,-832,-1163,-15874,392,-983,1444,-12,277,-289,-132
,193,2023-10-27 10:25:58.06,-877,-1106,-15645,604,-1062,1317,-24,263,-287,-119
,194,2023-10-27 10:25:58.08,-988,-1143,-16099,778,-970,1145,-20,277,-297,-128
,195,2023-10-27 10:25:58.10,-917,-1005,-16205,914,-905,992,-18,280,-298,-131
,196,2023-10-27 10:25:58.12,-1035,-1070,-16408,966,-737,785,-24,277,-301,-126
,197,2023-10-27 10:25:58.14,-1203,-1240,-16728,959,-591,595,-17,251,-268,-117
,198,2023-10-27 10:25:58.16,-1304,-1067,-16551,880,-520,482,-26,269,-295,-121
,199,2023-10-27 10:25:58.18,-1405,-1114,-16629,525,-476,267,-34,277,-311,-121
,200,2023-10-27 10:25:58.20,-1301,-1254,-16483,321,-513,174,-32,267,-299,-117
,201,2023-10-27 10:25:58.22,-1321,-1371,-16065,282,-459,51,-31,264,-295,-116
,202,2023-10-27 10:25:58.24,-1350,-1428,-15932,355,-354,-43,-34,270,-304,-118
,203,2023-10-27 10:25:58.26,-1404,-1428,-16044,460,-228,-170,-24,262,-286,-119
,204,2023-10-27 10:25:58.28,-1438,-1446,-16058,444,-114,-228,-13,258,-271,-122
,205,2023-10-27 10:25:58.30,-1384,-1486,-16221,330,-33,-213,-26,257,-283,-115
,206,2023-10-27 10:25:58.32,-1401,-1490,-16278,111,15,-236,-14,262,-276,-124
,207,2023-10-27 10:25:58.34,-1392,-1462,-16502,-100,36,-281,-12,254,-266,-121
,208,2023-10-27 10:25:58.36,-1341,-1419,-16604,-160,-36,-277,-15,249,-264,-117
,209,2023-10-27 10:25:58.38,-1351,-1407,-16609,-162,-143,-303,-13,248,-261,-117
,210,2023-10-27 10:25:58.40,-1305,-1374,-16557,-117,-232,-334,-3,244,-247,-120
,211,2023-10-27 10:25:58.42,-1353,-1385,-16392,-56,-292,-317,0,217,-217,-108
,212,2023-10-27 10:25:58.44,-1482,-1431,-16202,94,-381,-291,6,230,-224,-118
,213,2023-10-27 10:25:58.46,-1560,-1522,-16280,208,-462,-234,11,233,-222,-122
,214,2023-10-27 10:25:58.48,-1415,-1409,-16163,243,-381,-162,9,222,-213,-115
,215,2023-10-27 10:25:58.50,-1487,-1411,-16059,323,-12,-26,13,212,-199,-112
,216,2023-10-27 10:25:58.52,-1351,-1496,-16022,168,155,-24,14,214,-200,-114
,217,2023-10-27 10:25:58.54,-1340,-1515,-16040,88,265,62,22,212,-190,-117
,218,2023-10-27 10:25:58.56,-1357,-1513,-16236,111,350,129,30,197,-167,-113
,219,2023-10-27 10:25:58.58,-1228,-1547,-16369,97,337,164,43,202,-159,-122
,220,2023-10-27 10:25:58.60,-1224,-1501,-16517,16,320,291,48,195,-147,-121
,221,2023-10-27 10:25:58.62,-1119,-1423,-16493,-89,328,424,68,177,-109,-122
,222,2023-10-27 10:25:58.64,-1064,-1289,-16379,-98,245,409,64,173,-109,-118
,223,2023-10-27 10:25:58.66,-1191,-1289,-16536,-110,74,386,65,170,-105,-117
,224,2023-10-27 10:25:58.68,-1316,-1232,-16506,-48,-107,311,70,159,-89,-114
,225,2023-10-27 10:25:58.70,-1219,-1175,-16394,-51,-151,286,76,158,-82,-117
,226,2023-10-27 10:25:58.72,-1225,-1158,-16172,-60,-132,241,86,156,-70,-121
,227,2023-10-27 10:25:58.74,-1195,-1181,-16134,-37,-15,152,98,148,-50,-123
,228,2023-10-27 10:25:58.76,-1283,-1284,-16306,15,98,56,96,140,-44,-118
,229,2023-10-27 10:25:58.78,-1258,-1336,-16327,134,119,35,104,142,-38,-123
,230,2023-10-27 10:25:58.80,-1255,-1274,-16346,202,68,-4,112,119,-7,-115
,231,2023-10-27 10:25:58.82,-1221,-1355,-16313,178,43,26,113,110,3,-111
,232,2023-10-27 10:25:58.84,-1280,-1275,-16414,140,51,13,114,107,7,-110
,233,2023-10-27 10:25:58.86,-1245,-1362,-16373,56,16,-4,129,98,31,-113
,234,2023-10-27 10:25:58.88,-1123,-1384,-16347,74,26,12,140,80,60,-110
,235,2023-10-27 10:25:58.90,-1284,-1340,-16356,116,-16,55,156,94,62,-125
,236,2023-10-27 10:25:58.92,-1280,-1360,-16315,161,-45,85,147,83,64,-115
,237,2023-10-27 10:25:58.94,-1217,-1384,-16270,210,0,180,163,77,86,-120
,238,2023-10-27 10:25:58.96,-1226,-1348,-16250,157,-22,219,178,70,108,-124
,239,2023-10-27 10:25:58.98,-1254,-1321,-16269,56,12,220,175,57,118,-116
,240,2023-10-27 10:25:59.00,-1319,-1298,-16250,36,114,187,176,50,126,-113
,241,2023-10-27 10:25:59.02,-1260,-1311,-16430,80,9,175,184,52,132,-118
,242,2023-10-27 10:25:59.04,-1245,-1373,-16317,120,-7,164,204,36,168,-120
,243,2023-10-27 10:25:59.06,-1227,-1267,-16313,208,32,182,204,40,164,-122
,244,2023-10-27 10:25:59.08,-1299,-1284,-16316,212,78,108,196,38,158,-117
,245,2023-10-27 10:25:59.10,-1274,-1323,-16447,220,27,60,209,32,177,-120
,246,2023-10-27 10:25:59.12,-1300,-1372,-16422,191,-16,80,219,19,200,-119
,247,2023-10-27 10:25:59.14,-1246,-1387,-16257,185,-53,152,224,19,205,-121
,248,2023-10-27 10:25:59.16,-1228,-1397,-16190,125,29,187,234,5,229,-119
,249,2023-10-27 10:25:59.18,-1287,-1394,-16307,204,84,217,244,-4,248,-120
,250,2023-10-27 10:25:59.20,-1236,-1433,-16191,272,90,220,247,-3,250,-122
,251,2023-10-27 10:25:59.22,-1300,-1516,-16367,369,49,281,264,-10,274,-127
,252,2023-10-27 10:25:59.24,-1141,-1335,-16220,282,173,231,258,-16,274,-121
,253,2023-10-27 10:25:59.26,-1180,-1369,-16279,193,268,170,259,-18,277,-120
,254,2023-10-27 10:25:59.28,-1144,-1518,-16345,155,248,115,260,-18,278,-121
,255,2023-10-27 10:25:59.30,-1236,-1534,-16402,131,113,157,268,-30,298,-119
,256,2023-10-27 10:25:59.32,-1221,-1531,-16400,139,-38,216,270,-30,300,-120
,257,2023-10-27 10:25:59.34,-1267,-1372,-16304,-33,-12,293,279,-29,308,-125
,258,2023-10-27 10:25:59.36,-1287,-1322,-16332,-119,91,321,277,-34,311,-121
,259,2023-10-27 10:25:59.38,-1368,-1364,-16365,-261,152,293,287,-44,331,-121
,260,2023-10-27 10:25:59.40,-1291,-1293,-16416,-212,88,245,294,-48,342,-123
,261,2023-10-27 10:25:59.42,-1337,-1204,-16287,-22,43,216,284,-45,329,-119
,262,2023-10-27 10:25:59.44,-1304,-1248,-16299,147,3,181,306,-57,363,-124
,263,2023-10-27 10:25:59.46,-1340,-1197,-16384,169,26,50,304,-60,364,-122
,264,2023-10-27 10:25:59.48,-1347,-1270,-16296,168,21,-23,292,-50,342,-121
,265,2023-10-27 10:25:59.50,-1236,-1388,-16213,66,106,-78,305,-58,363,-123
,266,2023-10-27 10:25:59.52,-1140,-1381,-16236,44,197,-68,307,-62,369,-122
,267,2023-10-27 10:25:59.54,-1156,-1362,-16400,86,218,-49,305,-66,371,-119
,268,2023-10-27 10:25:59.56,-1301,-1446,-16463,129,147,2,317,-64,381,-126
,269,2023-10-27 10:25:59.58,-1203,-1369,-16292,91,138,67,313,-53,366,-130
,270,2023-10-27 10:25:59.60,-1188,-1359,-16328,-10,160,105,322,-58,380,-132
,271,2023-10-27 10:25:59.62,-1264,-1373,-16339,-57,132,134,315,-66,381,-124
,272,2023-10-27 10:25:59.64,-1235,-1332,-16343,10,95,152,314,-54,368,-130
,273,2023-10-27 10:25:59.66,-1340,-1325,-16365,54,135,123,313,-63,376,-125
,274,2023-10-27 10:25:59.68,-1307,-1248,-16323,66,169,69,320,-62,382,-129
,275,2023-10-27 10:25:59.70,-1254,-1216,-16336,-24,198,-59,315,-65,380,-125
,276,2023-10-27 10:25:59.72,-1273,-1284,-16345,-118,218,-186,311,-58,369,-126
,277,2023-10-27 10:25:59.74,-1182,-1311,-16302,-134,238,-279,315,-58,373,-128
,278,2023-10-27 10:25:59.76,-1168,-1370,-16201,-106,258,-279,314,-59,373,-127
,279,2023-10-27 10:25:59.78,-1156,-1434,-16171,-64,238,-252,318,-57,375,-130
,280,2023-10-27 10:25:59.80,-1110,-1512,-16321,2,170,-147,315,-64,379,-125
,281,2023-10-27 10:25:59.82,-1096,-1502,-16369,9,181,-48,315,-55,370,-130
,282,2023-10-27 10:25:59.84,-1070,-1336,-16403,22,142,86,297,-43,340,-127
,283,2023-10-27 10:25:59.86,-1051,-1330,-16443,-4,137,161,291,-45,336,-123
,284,2023-10-27 10:25:59.88,-1172,-1305,-16351,-45,99,141,290,-47,337,-121
,285,2023-10-27 10:25:59.90,-1116,-1321,-16353,-30,88,162,284,-36,320,-124
,286,2023-10-27 10:25:59.92,-1154,-1325,-16280,36,52,164,291,-29,320,-131
,287,2023-10-27 10:25:59.94,-1202,-1271,-16387,72,26,176,286,-40,326,-123
,288,2023-10-27 10:25:59.96,-1125,-1294,-16254,62,229,139,274,-28,302,-123
,289,2023-10-27 10:25:59.98,-1145,-1155,-16324,129,343,118,280,-31,311,-124
,290,2023-10-27 10:26:00.00,-1157,-1309,-16367,53,323,54,277,-26,303,-125
,291,2023-10-27 10:26:00.02,-1120,-1313,-16340,21,229,62,272,-18,290,-127
,292,2023-10-27 10:26:00.04,-1113,-1229,-16307,-8,222,59,260,-10,270,-125
,293,2023-10-27 10:26:00.06,-968,-1110,-16295,-76,244,42,260,-11,271,-124
,294,2023-10-27 10:26:00.08,-1049,-1151,-16424,-111,223,8,250,3,247,-126
,295,2023-10-27 10:26:00.10,-1000,-1166,-16458,-107,167,33,250,8,242,-129
,296,2023-10-27 10:26:00.12,-999,-1179,-16445,-129,151,46,236,9,227,-122
,297,2023-10-27 10:26:00.14,-955,-1101,-16366,-70,136,44,229,22,207,-125
,298,2023-10-27 10:26:00.16,-964,-1067,-16378,-36,176,21,231,29,202,-130
,299,2023-10-27 10:26:00.18,-1021,-1132,-16394,19,202,46,227,32,195,-129
,300,2023-10-27 10:26:00.20,-923,-1111,-16404,53,175,31,220,38,182,-129
,301,2023-10-27 10:26:00.22,-965,-1091,-16358,106,219,28,200,50,150,-125
,302,2023-10-27 10:26:00.24,-1020,-1046,-16436,91,229,-43,196,39,157,-117
,303,2023-10-27 10:26:00.26,-893,-1093,-16411,122,191,-50,200,58,142,-129
,304,2023-10-27 10:26:00.28,-1001,-1258,-16355,182,137,-12,184,73,111,-128
,305,2023-10-27 10:26:00.30,-895,-1240,-16330,180,144,26,180,76,104,-128
,306,2023-10-27 10:26:00.32,-942,-1176,-16315,205,156,61,166,86,80,-126
,307,2023-10-27 10:26:00.34,-850,-1231,-16465,187,168,92,155,95,60,-125
,308,2023-10-27 10:26:00.36,-938,-1219,-16423,140,154,136,164,99,65,-131
,309,2023-10-27 10:26:00.38,-1009,-1218,-16490,59,211,165,153,102,51,-127
,310,2023-10-27 10:26:00.40,-952,-1171,-16376,53,56,147,152,118,34,-135
,311,2023-10-27 10:26:00.42,-948,-1179,-16385,1,75,132,154,121,33,-137
,312,2023-10-27 10:26:00.44,-936,-1127,-16346,9,91,186,132,120,12,-126
,313,2023-10-27 10:26:00.46,-941,-1105,-16286,-24,125,135,123,132,-9,-127
,314,2023-10-27 10:26:00.48,-811,-1121,-16249,-8,191,98,102,133,-31,-117
,315,2023-10-27 10:26:00.50,-864,-1147,-16422,22,101,62,100,140,-40,-120
,316,2023-10-27 10:26:00.52,-854,-1120,-16386,52,96,45,94,152,-58,-123
,317,2023-10-27 10:26:00.54,-883,-1122,-16343,78,107,-40,100,158,-58,-129
,318,2023-10-27 10:26:00.56,-883,-1105,-16386,108,28,-87,83,164,-81,-123
,319,2023-10-27 10:26:00.58,-880,-1115,-16236,47,116,-107,80,170,-90,-125
,320,2023-10-27 10:26:00.60,-804,-1191,-16319,113,79,-126,80,185,-105,-132
,321,2023-10-27 10:26:00.62,-886,-1224,-16529,139,-50,-87,70,186,-116,-128
,322,2023-10-27 10:26:00.64,-980,-1249,-16345,104,-14,-55,64,188,-124,-126
,323,2023-10-27 10:26:00.66,-892,-1122,-16358,142,70,-7,58,196,-138,-127
,324,2023-10-27 10:26:00.68,-863,-1174,-16394,59,83,-61,58,203,-145,-130
,325,2023-10-27 10:26:00.70,-959,-1271,-16394,41,65,-6,55,201,-146,-128
,326,2023-10-27 10:26:00.72,-912,-1278,-16326,52,25,38,46,212,-166,-129
,327,2023-10-27 10:26:00.74,-937,-1152,-16312,79,1,68,32,219,-187,-125
,328,2023-10-27 10:26:00.76,-962,-1095,-16403,85,19,22,41,211,-170,-126
,329,2023-10-27 10:26:00.78,-1002,-1120,-16448,62,39,-23,32,227,-195,-129
,330,2023-10-27 10:26:00.80,-972,-1137,-16322,33,46,-77,24,222,-198,-123
,331,2023-10-27 10:26:00.82,-1088,-1160,-16369,59,15,-119,20,238,-218,-129
,332,2023-10-27 10:26:00.84,-1009,-1238,-16324,87,38,-114,20,243,-223,-131
,333,2023-10-27 10:26:00.86,-1061,-1280,-16338,168,55,-45,12,240,-228,-126
,334,2023-10-27 10:26:00.88,-1048,-1253,-16326,167,72,-29,3,221,-218,-112
,335,2023-10-27 10:26:00.90,-979,-1280,-16272,172,192,17,-4,250,-254,-123
,336,2023-10-27 10:26:00.92,-1019,-1207,-16064,83,371,61,-6,262,-268,-128
,337,2023-10-27 10:26:00.94,-1050,-1330,-16418,74,301,66,-1,250,-251,-124
,338,2023-10-27 10:26:00.96,-959,-1326,-16372,113,359,209,-11,262,-273,-125
,339,2023-10-27 10:26:00.98,-908,-1213,-16411,165,300,228,-16,268,-284,-126
,340,2023-10-27 10:26:01.00,-879,-1116,-16344,79,264,267,-16,259,-275,-121
,341,2023-10-27 10:26:01.02,-863,-1132,-16383,96,220,233,-18,272,-290,-127
,342,2023-10-27 10:26:01.04,-842,-1136,-16352,72,218,201,-23,275,-298,-126
,343,2023-10-27 10:26:01.06,-871,-1194,-16463,79,183,138,-22,270,-292,-124
,344,2023-10-27 10:26:01.08,-802,-1146,-16375,85,191,82,-12,272,-284,-130
,345,2023-10-27 10:26:01.10,-825,-1150,-16320,107,262,30,-18,273,-291,-127
,346,2023-10-27 10:26:01.12,-659,-1153,-16309,92,304,-64,-23,276,-299,-126
,347,2023-10-27 10:26:01.14,-841,-1259,-16428,154,269,-85,-10,282,-292,-136
,348,2023-10-27 10:26:01.16,-736,-1281,-16468,180,154,-29,-19,277,-296,-129
,349,2023-10-27 10:26:01.18,-741,-1286,-16450,165,54,19,-31,282,-313,-125
,350,2023-10-27 10:26:01.20,-764,-1259,-16427,207,-42,62,-24,277,-301,-126
,351,2023-10-27 10:26:01.22,-766,-1269,-16413,188,-108,102,-28,254,-282,-113
,352,2023-10-27 10:26:01.24,-749,-1315,-16371,184,-130,191,-29,266,-295,-118
,353,2023-10-27 10:26:01.26,-869,-1295,-16325,183,-100,247,-33,275,-308,-121
,354,2023-10-27 10:26:01.28,-754,-1255,-16199,181,-41,250,-27,275,-302,-124
,355,2023-10-27 10:26:01.30,-841,-1223,-16308,139,43,246,-31,267,-298,-118
,356,2023-10-27 10:26:01.32,-900,-1273,-16298,130,139,295,-27,270,-297,-121
,357,2023-10-27 10:26:01.34,-762,-1237,-16361,118,80,283,-21,269,-290,-124
,358,2023-10-27 10:26:01.36,-750,-1220,-16312,21,236,235,-30,263,-293,-116
,359,2023-10-27 10:26:01.38,-773,-1076,-16379,71,325,216,-21,262,-283,-120
,360,2023-10-27 10:26:01.40,-763,-1138,-16484,2,280,138,-7,256,-263,-124
,361,2023-10-27 10:26:01.42,-746,-1183,-16471,-68,197,106,-5,251,-256,-123
,362,2023-10-27 10:26:01.44,-637,-1100,-16322,-60,143,137,-5,250,-255,-122
,363,2023-10-27 10:26:01.46,-670,-1145,-16369,-66,113,151,0,246,-246,-123
,364,2023-10-27 10:26:01.48,-663,-1167,-16398,-6,71,195,8,236,-228,-122
,365,2023-10-27 10:26:01.50,-662,-1192,-16385,86,45,282,10,234,-224,-122
,366,2023-10-27 10:26:01.52,-708,-1127,-16398,112,50,326,16,236,-220,-126
,367,2023-10-27 10:26:01.54,-781,-1200,-16360,95,83,313,24,233,-209,-128
,368,2023-10-27 10:26:01.56,-625,-1115,-16337,95,163,309,22,230,-208,-126
,369,2023-10-27 10:26:01.58,-749,-1129,-16402,90,198,288,27,224,-197,-125
,370,2023-10-27 10:26:01.60,-665,-1115,-16341,169,139,215,34,211,-177,-122
,371,2023-10-27 10:26:01.62,-650,-1214,-16414,169,155,229,38,210,-172,-124
,372,2023-10-27 10:26:01.64,-773,-1084,-16461,174,162,172,52,206,-154,-129
,373,2023-10-27 10:26:01.66,-697,-1177,-16419,170,97,152,57,197,-140,-127
,374,2023-10-27 10:26:01.68,-711,-1244,-16427,122,26,173,70,197,-127,-133
,375,2023-10-27 10:26:01.70,-718,-1252,-16392,98,-7,224,60,174,-114,-117
,376,2023-10-27 10:26:01.72,-739,-1078,-16386,59,89,278,55,176,-121,-115
,377,2023-10-27 10:26:01.74,-694,-1028,-16301,2,201,264,61,178,-117,-119
,378,2023-10-27 10:26:01.76,-787,-1030,-16389,-94,232,214,84,148,-64,-116
,379,2023-10-27 10:26:01.78,-701,-1027,-16390,-80,224,114,88,156,-68,-122
,380,2023-10-27 10:26:01.80,-711,-1042,-16416,-22,208,52,90,157,-67,-123
,381,2023-10-27 10:26:01.82,-569,-1068,-16399,44,141,-29,94,153,-59,-123
,382,2023-10-27 10:26:01.84,-593,-1117,-16406,97,125,-57,104,139,-35,-121
,383,2023-10-27 10:26:01.86,-675,-1161,-16380,123,124,-30,100,134,-34,-117
,384,2023-10-27 10:26:01.88,-600,-1170,-16393,164,118,13,119,128,-9,-123
,385,2023-10-27 10:26:01.90,-700,-1187,-16425,174,70,50,126,120,6,-123
,386,2023-10-27 10:26:01.92,-559,-1225,-16426,170,52,120,118,114,4,-116
,387,2023-10-27 10:26:01.94,-586,-1167,-16364,178,72,161,130,109,21,-119
,388,2023-10-27 10:26:01.96,-602,-1174,-16386,185,61,206,148,98,50,-123
,389,2023-10-27 10:26:01.98,-647,-1227,-16458,182,-24,202,150,90,60,-120
,390,2023-10-27 10:26:02.00,-637,-1229,-16473,221,-35,228,157,93,64,-125
,391,2023-10-27 10:26:02.02,-581,-1183,-16315,248,17,197,168,82,86,-125
,392,2023-10-27 10:26:02.04,-622,-1276,-16329,212,18,177,173,76,97,-124
,393,2023-10-27 10:26:02.06,-714,-1285,-16340,205,40,206,160,64,96,-112
,394,2023-10-27 10:26:02.08,-721,-1325,-16384,235,-23,242,182,67,115,-124
,395,2023-10-27 10:26:02.10,-674,-1203,-16423,160,116,214,198,57,141,-127
,396,2023-10-27 10:26:02.12,-683,-1178,-16455,217,111,213,197,43,154,-120
,397,2023-10-27 10:26:02.14,-693,-1214,-16436,130,44,206,204,42,162,-123
,398,2023-10-27 10:26:02.16,-707,-1239,-16369,71,-34,222,216,38,178,-127
,399,2023-10-27 10:26:02.18,-677,-1132,-16248,53,-14,198,216,29,187,-122
,400,2023-10-27 10:26:02.20,-778,-1144,-16279,-1,-27,136,219,18,201,-118
,401,2023-10-27 10:26:02.22,-747,-1186,-16403,-29,13,90,227,22,205,-124
,402,2023-10-27 10:26:02.24,-771,-1184,-16395,-21,14,72,233,12,221,-122
,403,2023-10-27 10:26:02.26,-653,-1064,-16381,-44,48,49,245,9,236,-127
,404,2023-10-27 10:26:02.28,-651,-1181,-16357,4,103,38,247,4,243,-125
,405,2023-10-27 10:26:02.30,-802,-1124,-16390,63,117,48,252,0,252,-126
,406,2023-10-27 10:26:02.32,-742,-1201,-16457,119,75,62,263,-17,280,-123
,407,2023-10-27 10:26:02.34,-644,-1228,-16323,151,89,81,266,-11,277,-127
,408,2023-10-27 10:26:02.36,-671,-1204,-16263,161,182,163,271,-17,288,-127
,409,2023-10-27 10:26:02.38,-662,-1209,-16369,132,266,211,272,-28,300,-122
,410,2023-10-27 10:26:02.40,-700,-1279,-16494,132,245,270,283,-21,304,-131
,411,2023-10-27 10:26:02.42,-605,-1250,-16372,151,208,304,294,-26,320,-134
,412,2023-10-27 10:26:02.44,-609,-1063,-16363,107,220,314,303,-25,328,-139
,413,2023-10-27 10:26:02.46,-580,-1035,-16334,61,270,205,292,-30,322,-131
,414,2023-10-27 10:26:02.48,-584,-1046,-16448,-1,242,85,292,-32,324,-130
,415,2023-10-27 10:26:02.50,-586,-1113,-16447,40,175,38,303,-37,340,-133
,416,2023-10-27 10:26:02.52,-565,-1162,-16481,1,91,4,304,-49,353,-127
,417,2023-10-27 10:26:02.54,-578,-1138,-16452,13,73,-16,303,-51,354,-126
,418,2023-10-27 10:26:02.56,-715,-1073,-16378,8,30,9,313,-49,362,-132
,419,2023-10-27 10:26:02.58,-655,-1166,-16409,-57,7,-19,317,-54,371,-131
,420,2023-10-27 10:26:02.60,-630,-1124,-16409,-54,21,47,316,-54,370,-131
,421,2023-10-27 10:26:02.62,-723,-1108,-16401,29,48,26,328,-56,384,-136
,422,2023-10-27 10:26:02.64,-544,-1114,-16401,76,20,43,318,-59,377,-129
,423,2023-10-27 10:26:02.66,-644,-1115,-16426,126,30,70,320,-61,381,-129
,424,2023-10-27 10:26:02.68,-660,-1133,-16327,168,8,114,335,-59,394,-138
,425,2023-10-27 10:26:02.70,-666,-1140,-16286,203,7,155,328,-57,385,-135
,426,2023-10-27 10:26:02.72,-626,-1209,-16326,221,98,180,320,-58,378,-131
,427,2023-10-27 10:26:02.74,-675,-1141,-16362,304,146,209,317,-62,379,-127
,428,2023-10-27 10:26:02.76,-685,-1218,-16466,238,113,231,324,-55,379,-134
,429,2023-10-27 10:26:02.78,-522,-1149,-16379,177,172,165,325,-53,378,-136
,430,2023-10-27 10:26:02.80,-502,-1131,-16413,173,281,159,324,-53,377,-135
,431,2023-10-27 10:26:02.82,-562,-1151,-16485,149,240,112,327,-52,379,-137
,432,2023-10-27 10:26:02.84,-512,-1276,-16434,159,119,119,328,-50,378,-139
,433,2023-10-27 10:26:02.86,-595,-1182,-16445,180,35,145,319,-55,374,-132
,434,2023-10-27 10:26:02.88,-521,-1139,-16349,102,23,103,312,-60,372,-126
,435,2023-10-27 10:26:02.90,-539,-1192,-16460,34,-34,47,314,-41,355,-136
,436,2023-10-27 10:26:02.92,-518,-1257,-16442,15,-59,6,311,-41,352,-135
,437,2023-10-27 10:26:02.94,-518,-1205,-16411,36,-73,14,312,-48,360,-132
,438,2023-10-27 10:26:02.96,-601,-1198,-16349,66,-75,35,311,-41,352,-135
,439,2023-10-27 10:26:02.98,-643,-1202,-16455,49,-88,64,308,-32,340,-138
,440,2023-10-27 10:26:03.00,-656,-1201,-16307,37,-24,137,300,-29,329,-135
,441,2023-10-27 10:26:03.02,-743,-1202,-16371,30,0,201,294,-31,325,-131
,442,2023-10-27 10:26:03.04,-613,-1173,-16341,-48,96,239,291,-26,317,-132
,443,2023-10-27 10:26:03.06,-596,-1113,-16347,-16,190,269,285,-22,307,-131
,444,2023-10-27 10:26:03.08,-615,-1111,-16443,22,225,268,287,-23,310,-132
,445,2023-10-27 10:26:03.10,-607,-1119,-16508,84,135,269,278,-20,298,-129
,446,2023-10-27 10:26:03.12,-650,-1033,-16522,132,-5,225,276,-15,291,-130
,447,2023-10-27 10:26:03.14,-561,-1045,-16364,146,-81,234,266,-5,271,-130
,448,2023-10-27 10:26:03.16,-548,-1071,-16313,161,-42,188,258,-2,260,-128
,449,2023-10-27 10:26:03.18,-510,-1075,-16231,193,121,178,257,4,253,-130
,450,2023-10-27 10:26:03.20,-595,-1228,-16256,209,217,182,255,-11,266,-122
,451,2023-10-27 10:26:03.22,-451,-1213,-16312,214,299,254,249,12,237,-130
,452,2023-10-27 10:26:03.24,-439,-1198,-16396,192,291,305,244,26,218,-135
,453,2023-10-27 10:26:03.26,-297,-1166,-16472,118,207,337,246,30,216,-138
,454,2023-10-27 10:26:03.28,-294,-1111,-16526,57,138,317,231,34,197,-132
,455,2023-10-27 10:26:03.30,-308,-1003,-16618,41,6,271,221,49,172,-135
,456,2023-10-27 10:26:03.32,-523,-1018,-16691,17,-197,248,216,57,159,-136
,457,2023-10-27 10:26:03.34,-489,-1057,-16622,22,-388,213,206,56,150,-131
,458,2023-10-27 10:26:03.36,-569,-1016,-16445,-7,-459,254,195,70,125,-132
,459,2023-10-27 10:26:03.38,-583,-1064,-16218,-28,-378,283,182,67,115,-124
,460,2023-10-27 10:26:03.40,-607,-993,-16130,6,-279,296,171,75,96,-123
,461,2023-10-27 10:26:03.42,-583,-958,-16234,67,-82,275,176,91,85,-133
,462,2023-10-27 10:26:03.44,-703,-953,-16266,109,25,276,167,96,71,-131
,463,2023-10-27 10:26:03.46,-551,-925,-16434,120,-6,170,171,100,71,-135
,464,2023-10-27 10:26:03.48,-588,-977,-16499,131,0,63,163,104,59,-133
,465,2023-10-27 10:26:03.50,-640,-1024,-16481,183,-31,35,134,110,24,-122
,466,2023-10-27 10:26:03.52,-571,-1111,-16449,223,-134,72,131,121,10,-126
,467,2023-10-27 10:26:03.54,-638,-1199,-16553,219,-145,160,135,128,7,-131
,468,2023-10-27 10:26:03.56,-567,-1162,-16363,230,-66,227,122,137,-15,-129
,469,2023-10-27 10:26:03.58,-583,-1138,-16418,266,1,284,118,136,-18,-127
,470,2023-10-27 10:26:03.60,-717,-1178,-16486,232,-36,294,112,146,-34,-129
,471,2023-10-27 10:26:03.62,-683,-1202,-16435,235,-167,330,93,165,-72,-129
,472,2023-10-27 10:26:03.64,-835,-1126,-16349,222,-242,280,92,164,-72,-128
,473,2023-10-27 10:26:03.66,-750,-1038,-16291,196,-244,198,104,167,-63,-135
,474,2023-10-27 10:26:03.68,-812,-1085,-16337,186,-194,69,92,175,-83,-133
,475,2023-10-27 10:26:03.70,-843,-1168,-16336,197,-167,5,65,166,-101,-115
,476,2023-10-27 10:26:03.72,-870,-1241,-16378,142,-131,-68,83,194,-111,-138
,477,2023-10-27 10:26:03.74,-727,-1295,-16339,171,-31,-33,78,199,-121,-138
,478,2023-10-27 10:26:03.76,-778,-1315,-16368,158,3,33,50,200,-150,-125
,479,2023-10-27 10:26:03.78,-914,-1269,-16360,127,11,127,53,209,-156,-131
,480,2023-10-27 10:26:03.80,-848,-1265,-16321,90,4,248,52,208,-156,-130
,481,2023-10-27 10:26:03.82,-731,-1267,-16286,67,48,290,38,222,-184,-130
,482,2023-10-27 10:26:03.84,-833,-1172,-16336,133,105,320,46,224,-178,-135
,483,2023-10-27 10:26:03.86,-825,-1128,-16406,158,134,298,49,221,-172,-135
,484,2023-10-27 10:26:03.88,-719,-1134,-16356,128,137,262,36,229,-193,-132
,485,2023-10-27 10:26:03.90,-679,-1158,-16322,99,133,180,30,244,-214,-137
,486,2023-10-27 10:26:03.92,-691,-1148,-16355,98,137,146,22,238,-216,-130
,487,2023-10-27 10:26:03.94,-695,-1216,-16399,90,140,110,13,249,-236,-131
,488,2023-10-27 10:26:03.96,-753,-1204,-16473,95,143,133,13,255,-242,-134
,489,2023-10-27 10:26:03.98,-695,-1145,-16433,74,129,146,10,255,-245,-132
,490,2023-10-27 10:26:04.00,-674,-1134,-16382,22,84,174,3,248,-245,-125
,491,2023-10-27 10:26:04.02,-677,-1173,-16410,22,30,147,2,246,-244,-124
,492,2023-10-27 10:26:04.04,-663,-1189,-16408,18,-6,189,-10,265,-275,-127
,493,2023-10-27 10:26:04.06,-626,-1130,-16405,56,29,173,0,259,-259,-129
,494,2023-10-27 10:26:04.08,-693,-1111,-16377,73,51,170,2,276,-274,-139
,495,2023-10-27 10:26:04.10,-704,-1087,-16362,76,39,162,-11,275,-286,-132
,496,2023-10-27 10:26:04.12,-780,-1038,-16381,96,62,153,-9,264,-273,-127
,497,2023-10-27 10:26:04.14,-712,-1018,-16348,89,65,153,-16,274,-290,-129
,498,2023-10-27 10:26:04.16,-606,-1055,-16355,99,61,102,-24,276,-300,-126
,499,2023-10-27 10:26:04.18,-630,-1103,-16399,103,78,94,-19,277,-296,-129
,500,2023-10-27 10:26:04.20,-664,-1116,-16353,77,98,102,-17,256,-273,-119
,501,2023-10-27 10:26:04.22,-688,-1083,-16305,91,118,99,-24,273,-297,-124
,502,2023-10-27 10:26:04.24,-636,-1063,-16458,78,144,64,-26,286,-312,-130
,503,2023-10-27 10:26:04.26,-701,-1068,-16379,70,171,45,-20,276,-296,-128
,504,2023-10-27 10:26:04.28,-643,-1053,-16481,150,107,38,-30,279,-309,-124
,505,2023-10-27 10:26:04.30,-578,-1055,-16360,79,220,-58,-29,273,-302,-122
,506,2023-10-27 10:26:04.32,-606,-1068,-16366,193,257,-55,-22,270,-292,-124
,507,2023-10-27 10:26:04.34,-602,-1153,-16514,181,187,-69,-36,276,-312,-120
,508,2023-10-27 10:26:04.36,-668,-1218,-16533,189,39,38,-25,275,-300,-125
,509,2023-10-27 10:26:04.38,-634,-1067,-16275,175,-32,102,-28,272,-300,-122
,510,2023-10-27 10:26:04.40,-555,-1097,-16295,111,-3,118,-32,264,-296,-116
,511,2023-10-27 10:26:04.42,-643,-1186,-16413,63,42,101,-30,271,-301,-120
,512,2023-10-27 10:26:04.44,-623,-1131,-16472,118,5,145,-19,263,-282,-122
,513,2023-10-27 10:26:04.46,-580,-1131,-16436,183,-23,145,3,265,-262,-134
,514,2023-10-27 10:26:04.48,-589,-1110,-16463,252,-78,127,-4,268,-272,-132
,515,2023-10-27 10:26:04.50,-657,-1076,-16336,279,-50,102,6,256,-250,-131
,516,2023-10-27 10:26:04.52,-669,-1242,-16424,269,-52,101,-12,210,-222,-99
,517,2023-10-27 10:26:04.54,-663,-1263,-16278,274,-78,109,-3,247,-250,-122
,518,2023-10-27 10:26:04.56,-711,-1338,-16266,271,6,194,-1,248,-249,-123
,519,2023-10-27 10:26:04.58,-591,-1267,-16322,265,72,218,9,216,-207,-112
,520,2023-10-27 10:26:04.60,-685,-1199,-16391,251,65,243,8,214,-206,-111
,521,2023-10-27 10:26:04.62,-620,-1183,-16425,210,37,255,24,238,-214,-131
,522,2023-10-27 10:26:04.64,-519,-1204,-16354,179,7,206,25,233,-208,-129
,523,2023-10-27 10:26:04.66,-680,-1186,-16347,147,31,115,26,221,-195,-123
,524,2023-10-27 10:26:04.68,-613,-1223,-16454,100,13,74,27,211,-184,-119
,525,2023-10-27 10:26:04.70,-668,-1256,-16430,62,-15,63,35,211,-176,-123
,526,2023-10-27 10:26:04.72,-604,-1270,-16346,12,-52,52,40,196,-156,-118
,527,2023-10-27 10:26:04.74,-651,-1234,-16336,4,6,149,44,194,-150,-119
,528,2023-10-27 10:26:04.76,-742,-1241,-16343,11,44,169,59,186,-127,-122
,529,2023-10-27 10:26:04.78,-657,-1158,-16448,2,1,210,60,184,-124,-122
,530,2023-10-27 10:26:04.80,-691,-1189,-16350,66,-13,236,65,172,-107,-118
,531,2023-10-27 10:26:04.82,-656,-1167,-16432,126,-15,253,79,180,-101,-129
,532,2023-10-27 10:26:04.84,-647,-1142,-16355,142,-1,235,80,157,-77,-118
,533,2023-10-27 10:26:04.86,-608,-1130,-16400,138,1,228,81,159,-78,-120
,534,2023-10-27 10:26:04.88,-702,-1048,-16379,119,2,193,89,153,-64,-121
,535,2023-10-27 10:26:04.90,-623,-1127,-16381,103,-44,143,108,151,-43,-129
,536,2023-10-27 10:26:04.92,-776,-1151,-16414,188,-72,117,106,137,-31,-121
,537,2023-10-27 10:26:04.94,-794,-1170,-16376,168,-115,96,110,129,-19,-119
,538,2023-10-27 10:26:04.96,-716,-1155,-16371,124,-115,132,114,122,-8,-118
,539,2023-10-27 10:26:04.98,-775,-1129,-16286,61,-11,106,131,115,16,-123
,540,2023-10-27 10:26:05.00,-810,-1169,-16352,31,28,57,129,116,13,-122
,541,2023-10-27 10:26:05.02,-654,-1215,-16421,65,119,20,142,103,39,-122
,542,2023-10-27 10:26:05.04,-708,-1147,-16465,126,133,-5,154,96,58,-125
,543,2023-10-27 10:26:05.06,-723,-1193,-16415,118,84,-24,156,90,66,-123
,544,2023-10-27 10:26:05.08,-684,-1207,-16368,109,43,-16,166,80,86,-123
,545,2023-10-27 10:26:05.10,-707,-1171,-16316,51,8,12,169,69,100,-119
,546,2023-10-27 10:26:05.12,-706,-1191,-16366,45,20,36,173,61,112,-117
,547,2023-10-27 10:26:05.14,-689,-1218,-16427,116,46,68,181,60,121,-120
,548,2023-10-27 10:26:05.16,-769,-1179,-16440,149,-6,118,198,52,146,-125
,549,2023-10-27 10:26:05.18,-762,-1200,-16408,148,-69,169,194,50,144,-122
,550,2023-10-27 10:26:05.20,-816,-1216,-16353,195,-67,266,210,42,168,-126
,551,2023-10-27 10:26:05.22,-724,-1176,-16350,224,-10,287,225,36,189,-130
,552,2023-10-27 10:26:05.24,-780,-1237,-16356,212,16,333,232,28,204,-130
,553,2023-10-27 10:26:05.26,-775,-1190,-16317,256,73,315,228,26,202,-127
,554,2023-10-27 10:26:05.28,-731,-1144,-16384,273,191,274,235,18,217,-126
,555,2023-10-27 10:26:05.30,-742,-1080,-16336,263,218,170,237,14,223,-125
,556,2023-10-27 10:26:05.32,-677,-1154,-16439,227,169,86,241,6,235,-123
,557,2023-10-27 10:26:05.34,-734,-1195,-16369,121,90,46,240,-6,246,-117
,558,2023-10-27 10:26:05.36,-687,-1113,-16370,39,114,54,248,3,245,-125
,559,2023-10-27 10:26:05.38,-610,-1206,-16449,-1,136,-1,256,-10,266,-123
,560,2023-10-27 10:26:05.40,-643,-1281,-16442,52,97,-25,267,-10,277,-128
,561,2023-10-27 10:26:05.42,-601,-1237,-16492,168,37,-12,266,-10,276,-128
,562,2023-10-27 10:26:05.44,-615,-1194,-16428,245,-58,-21,267,-22,289,-122
,563,2023-10-27 10:26:05.46,-595,-1171,-16368,304,-93,-45,273,-25,298,-124
,564,2023-10-27 10:26:05.48,-671,-1271,-16317,226,-103,-52,277,-25,302,-126
,565,2023-10-27 10:26:05.50,-739,-1334,-16302,211,-48,9,284,-27,311,-128
,566,2023-10-27 10:26:05.52,-769,-1397,-16336,185,1,70,294,-36,330,-129
,567,2023-10-27 10:26:05.54,-731,-1292,-16362,194,48,137,297,-40,337,-128
,568,2023-10-27 10:26:05.56,-702,-1239,-16309,205,83,181,305,-37,342,-134
,569,2023-10-27 10:26:05.58,-695,-1335,-16320,165,142,176,302,-41,343,-130
,570,2023-10-27 10:26:05.60,-698,-1310,-16362,170,136,186,299,-44,343,-127
,571,2023-10-27 10:26:05.62,-673,-1292,-16487,157,89,197,314,-56,370,-129
,572,2023-10-27 10:26:05.64,-719,-1207,-16398,149,48,158,312,-55,367,-128
,573,2023-10-27 10:26:05.66,-727,-1194,-16411,158,-15,129,319,-49,368,-135
,574,2023-10-27 10:26:05.68,-699,-1267,-16376,88,-13,64,324,-58,382,-133
,575,2023-10-27 10:26:05.70,-754,-1295,-16329,77,61,31,310,-60,370,-125
,576,2023-10-27 10:26:05.72,-770,-1310,-16303,63,121,64,319,-50,369,-134
,577,2023-10-27 10:26:05.74,-821,-1325,-16342,56,158,74,319,-54,373,-132
,578,2023-10-27 10:26:05.76,-711,-1244,-16395,87,191,95,313,-58,371,-127
,579,2023-10-27 10:26:05.78,-607,-1282,-16336,124,211,58,308,-62,370,-123
,580,2023-10-27 10:26:05.80,-707,-1262,-16441,154,120,-4,320,-60,380,-130
,581,2023-10-27 10:26:05.82,-599,-1135,-16451,80,214,-99,316,-63,379,-126
,582,2023-10-27 10:26:05.84,-622,-1175,-16445,134,204,-176,326,-62,388,-132
,583,2023-10-27 10:26:05.86,-469,-1161,-16366,76,134,-231,318,-57,375,-130
,584,2023-10-27 10:26:05.88,-470,-1256,-16218,40,171,-214,313,-53,366,-130
,585,2023-10-27 10:26:05.90,-522,-1112,-16272,-16,153,-303,310,-51,361,-129
,586,2023-10-27 10:26:05.92,-399,-1134,-16285,-32,142,-395,316,-55,371,-130
,587,2023-10-27 10:26:05.94,-494,-1081,-16644,-48,44,-464,316,-51,367,-132
,588,2023-10-27 10:26:05.96,-483,-1209,-16611,-64,-10,-564,318,-48,366,-135
,589,2023-10-27 10:26:05.98,-537,-1220,-16577,-115,-23,-556,309,-47,356,-131
,590,2023-10-27 10:26:06.00,-404,-1112,-16458,-121,-84,-592,303,-37,340,-133
,591,2023-10-27 10:26:06.02,-367,-1147,-16411,-149,-41,-587,299,-43,342,-128
,592,2023-10-27 10:26:06.04,-349,-1041,-16370,-123,16,-651,302,-40,342,-131
,593,2023-10-27 10:26:06.06,-484,-1045,-16395,-135,25,-688,298,-30,328,-134
,594,2023-10-27 10:26:06.08,-521,-1147,-16493,-192,19,-714,293,-25,318,-134
,595,2023-10-27 10:26:06.10,-613,-1258,-16500,-119,-236,-690,290,-25,315,-132
,596,2023-10-27 10:26:06.12,-597,-1343,-16509,-24,-379,-663,292,-24,316,-134
,597,2023-10-27 10:26:06.14,-455,-1210,-16241,108,-275,-582,286,-14,300,-136
,598,2023-10-27 10:26:06.16,-574,-1090,-15989,172,-64,-622,273,-20,293,-126
,599,2023-10-27 10:26:06.18,-514,-1131,-16049,270,99,-758,266,0,266,-133
,600,2023-10-27 10:26:06.20,-497,-1165,-16310,469,137,-890,265,4,261,-134
,601,2023-10-27 10:26:06.22,-513,-1112,-16589,591,145,-1034,264,7,257,-135
,602,2023-10-27 10:26:06.24,-552,-1131,-16421,696,4,-1176,262,3,259,-132
,603,2023-10-27 10:26:06.26,-632,-1222,-16411,648,-84,-1259,256,11,245,-133
,604,2023-10-27 10:26:06.28,-762,-1457,-16260,704,-177,-1323,250,27,223,-138
,605,2023-10-27 10:26:06.30,-806,-1585,-16784,954,-533,-1409,226,32,194,-129
,606,2023-10-27 10:26:06.32,-888,-1396,-16900,966,-673,-1444,219,44,175,-131
,607,2023-10-27 10:26:06.34,-960,-1351,-16497,799,-639,-1362,218,34,184,-126
,608,2023-10-27 10:26:06.36,-1099,-1308,-16577,398,-655,-1457,206,48,158,-127
,609,2023-10-27 10:26:06.38,-1148,-1309,-16365,55,-610,-1526,204,63,141,-133
,610,2023-10-27 10:26:06.40,-1399,-1543,-16247,-23,-560,-1452,198,60,138,-129
,611,2023-10-27 10:26:06.42,-1403,-1665,-16339,76,-761,-1545,200,63,137,-131
,612,2023-10-27 10:26:06.44,-1247,-1551,-16179,76,-742,-1557,194,81,113,-137
,613,2023-10-27 10:26:06.46,-1159,-1570,-15663,65,-492,-1511,189,83,106,-136
,614,2023-10-27 10:26:06.48,-1000,-1428,-15763,-49,-169,-1655,180,82,98,-131
,615,2023-10-27 10:26:06.50,-985,-1550,-15933,-105,229,-1736,168,94,74,-131
,616,2023-10-27 10:26:06.52,-1017,-1754,-16222,-14,435,-1719,162,105,57,-133
,617,2023-10-27 10:26:06.54,-927,-1787,-16651,177,397,-1689,159,124,35,-141
,618,2023-10-27 10:26:06.56,-992,-1553,-16492,88,442,-1581,145,116,29,-130
,619,2023-10-27 10:26:06.58,-1085,-1438,-16619,47,466,-1606,151,123,28,-137
,620,2023-10-27 10:26:06.60,-964,-1349,-16732,-95,228,-1737,122,130,-8,-126
,621,2023-10-27 10:26:06.62,-860,-1507,-16419,-224,195,-1913,114,137,-23,-125
,622,2023-10-27 10:26:06.64,-643,-1480,-16104,-217,188,-1952,121,145,-24,-133
,623,2023-10-27 10:26:06.66,-519,-1496,-15860,-282,365,-1934,113,159,-46,-136
,624,2023-10-27 10:26:06.68,-441,-1290,-15835,-326,531,-1970,101,162,-61,-131
,625,2023-10-27 10:26:06.70,-461,-1405,-16616,-518,909,-1959,99,152,-53,-125
,626,2023-10-27 10:26:06.72,-482,-1219,-16631,-651,625,-1879,88,175,-87,-131
,627,2023-10-27 10:26:06.74,-283,-1060,-16356,-847,680,-1967,76,186,-110,-131
,628,2023-10-27 10:26:06.76,-185,-1205,-16256,-844,802,-1985,68,187,-119,-127
,629,2023-10-27 10:26:06.78,-346,-1273,-16294,-702,734,-1903,65,176,-111,-120
,630,2023-10-27 10:26:06.80,-276,-1237,-16450,-666,674,-1780,58,198,-140,-128
,631,2023-10-27 10:26:06.82,-300,-1413,-16644,-548,384,-1630,55,210,-155,-132
,632,2023-10-27 10:26:06.84,-402,-1265,-16840,-360,65,-1467,50,208,-158,-129
,633,2023-10-27 10:26:06.86,-426,-1257,-16570,-251,-62,-1287,52,215,-163,-133
,634,2023-10-27 10:26:06.88,-530,-1139,-16553,-159,-201,-1208,52,225,-173,-138
,635,2023-10-27 10:26:06.90,-395,-1186,-16518,-142,-221,-1139,39,226,-187,-132
,636,2023-10-27 10:26:06.92,-687,-1311,-16528,-37,-91,-1085,42,238,-196,-140
,637,2023-10-27 10:26:06.94,-376,-1265,-16024,-108,68,-1026,30,237,-207,-133
,638,2023-10-27 10:26:06.96,-584,-1633,-16858,151,514,-1084,-4,234,-238,-115
,639,2023-10-27 10:26:06.98,-347,-1432,-15888,310,411,-967,5,237,-232,-121
,640,2023-10-27 10:26:07.00,-564,-1429,-16171,448,459,-919,11,254,-243,-132
,641,2023-10-27 10:26:07.02,-414,-1537,-16242,573,462,-741,0,260,-260,-130
,642,2023-10-27 10:26:07.04,-358,-1467,-16503,482,374,-614,2,264,-262,-133
,643,2023-10-27 10:26:07.06,-372,-1344,-16565,311,256,-493,2,267,-265,-134
,644,2023-10-27 10:26:07.08,-363,-1199,-16725,30,184,-496,4,266,-262,-135
,645,2023-10-27 10:26:07.10,-271,-1072,-16796,-217,-19,-567,-6,265,-271,-129
,646,2023-10-27 10:26:07.12,-259,-1193,-16811,-493,-57,-604,-19,270,-289,-125
,647,2023-10-27 10:26:07.14,-115,-1114,-16718,-630,-64,-507,-17,273,-290,-128
,648,2023-10-27 10:26:07.16,-105,-960,-16494,-715,86,-391,1,272,-271,-136
,649,2023-10-27 10:26:07.18,-115,-871,-16310,-693,264,-330,-17,282,-299,-132
,650,2023-10-27 10:26:07.20,-184,-893,-16483,-603,326,-369,-17,281,-298,-132
,651,2023-10-27 10:26:07.22,-247,-942,-16533,-405,181,-403,-14,277,-291,-131
,652,2023-10-27 10:26:07.24,-310,-978,-16420,-246,-34,-362,-10,277,-287,-133
,653,2023-10-27 10:26:07.26,-106,-1078,-16247,-90,-132,-357,-36,288,-324,-126
,654,2023-10-27 10:26:07.28,-130,-1070,-15939,-43,82,-279,-26,283,-309,-128
,655,2023-10-27 10:26:07.30,-84,-1196,-16021,186,256,-188,-19,280,-299,-130
,656,2023-10-27 10:26:07.32,-219,-1358,-16302,406,271,-24,-28,290,-318,-131
,657,2023-10-27 10:26:07.34,-286,-1269,-16521,519,279,102,-27,284,-311,-128
,658,2023-10-27 10:26:07.36,-285,-1062,-16668,575,127,162,-13,288,-301,-137
,659,2023-10-27 10:26:07.38,-366,-990,-16568,450,48,140,-29,277,-306,-124
,660,2023-10-27 10:26:07.40,-391,-1045,-16488,303,-87,53,-19,276,-295,-128
,661,2023-10-27 10:26:07.42,-316,-1071,-16360,31,-42,-22,-32,279,-311,-123
,662,2023-10-27 10:26:07.44,-229,-997,-16322,-133,71,-96,-14,277,-291,-131
,663,2023-10-27 10:26:07.46,-187,-986,-16327,-182,169,-174,-19,258,-277,-119
,664,2023-10-27 10:26:07.48,-277,-1062,-16455,-154,131,-282,-29,279,-308,-125
,665,2023-10-27 10:26:07.50,-237,-1072,-16491,-13,38,-326,-28,269,-297,-120
,666,2023-10-27 10:26:07.52,-168,-1108,-16507,82,-22,-272,-21,263,-284,-121
,667,2023-10-27 10:26:07.54,-46,-1028,-16417,106,40,-253,-13,261,-274,-124
,668,2023-10-27 10:26:07.56,-175,-1015,-16319,112,133,-261,-3,264,-267,-130
,669,2023-10-27 10:26:07.58,-156,-1059,-16431,161,157,-234,1,254,-253,-127
,670,2023-10-27 10:26:07.60,-118,-1134,-16461,233,177,-185,-2,248,-250,-123
,671,2023-10-27 10:26:07.62,-142,-1079,-16558,265,105,-107,2,252,-250,-127
,672,2023-10-27 10:26:07.64,-102,-1159,-16446,313,103,-70,-2,242,-244,-120
,673,2023-10-27 10:26:07.66,-172,-1206,-16392,341,43,-6,5,232,-227,-118
,674,2023-10-27 10:26:07.68,-60,-1167,-16258,338,80,24,12,236,-224,-124
,675,2023-10-27 10:26:07.70,-129,-1213,-16320,382,88,71,19,227,-208,-123
,676,2023-10-27 10:26:07.72,-167,-1068,-16439,365,149,101,28,223,-195,-125
,677,2023-10-27 10:26:07.74,-104,-1058,-16597,315,92,80,30,219,-189,-124
,678,2023-10-27 10:26:07.76,-266,-1107,-16411,268,-89,52,26,214,-188,-120
,679,2023-10-27 10:26:07.78,-281,-1203,-16324,213,-193,8,39,205,-166,-122
,680,2023-10-27 10:26:07.80,-335,-1209,-16353,176,-213,66,45,191,-146,-118
,681,2023-10-27 10:26:07.82,-361,-1281,-16305,198,-164,129,53,197,-144,-125
,682,2023-10-27 10:26:07.84,-354,-1173,-16369,106,-94,175,60,191,-131,-125
,683,2023-10-27 10:26:07.86,-292,-1116,-16432,-79,54,119,61,181,-120,-121
,684,2023-10-27 10:26:07.88,-204,-1020,-16443,-190,142,55,79,174,-95,-126
,685,2023-10-27 10:26:07.90,-174,-1173,-16487,-259,163,-17,72,173,-101,-122
,686,2023-10-27 10:26:07.92,-178,-1149,-16422,-167,202,50,86,160,-74,-123
,687,2023-10-27 10:26:07.94,-123,-1112,-16402,-27,149,172,92,149,-57,-120
,688,2023-10-27 10:26:07.96,-129,-1216,-16393,70,130,309,95,147,-52,-121
,689,2023-10-27 10:26:07.98,-121,-1198,-16471,198,102,413,105,146,-41,-125
,690,2023-10-27 10:26:08.00,-192,-1213,-16561,322,23,500,115,141,-26,-128
,691,2023-10-27 10:26:08.02,-206,-1227,-16551,387,-66,501,123,124,-1,-123
,692,2023-10-27 10:26:08.04,-118,-1192,-16415,387,-122,499,124,127,-3,-125
,693,2023-10-27 10:26:08.06,-226,-1164,-16327,356,-63,442,128,112,16,-120
,694,2023-10-27 10:26:08.08,-280,-1254,-16256,365,2,385,135,102,33,-118
,695,2023-10-27 10:26:08.10,-161,-1312,-16524,321,1,378,154,93,61,-123
,696,2023-10-27 10:26:08.12,-160,-1295,-16423,265,50,366,150,97,53,-123
,697,2023-10-27 10:26:08.14,-283,-1297,-16433,243,130,383,159,86,73,-122
,698,2023-10-27 10:26:08.16,-187,-1226,-16419,210,121,372,177,80,97,-128
,699,2023-10-27 10:26:08.18,-195,-1266,-16388,192,25,377,186,83,103,-134
,700,2023-10-27 10:26:08.20,-220,-1278,-16311,106,23,409,179,70,109,-124
,701,2023-10-27 10:26:08.22,-242,-1119,-16282,53,6,426,196,58,138,-127
,702,2023-10-27 10:26:08.24,-197,-1180,-16390,-21,4,431,196,42,154,-119
,703,2023-10-27 10:26:08.26,-218,-1241,-16541,-129,-10,472,200,54,146,-127
,704,2023-10-27 10:26:08.28,-134,-1249,-16494,-125,-42,575,210,33,177,-121
,705,2023-10-27 10:26:08.30,-115,-1247,-16461,-51,-81,668,223,24,199,-123
,706,2023-10-27 10:26:08.32,-42,-1256,-16491,62,-119,771,212,32,180,-122
,707,2023-10-27 10:26:08.34,-182,-1080,-16504,127,-119,815,231,26,205,-128
,708,2023-10-27 10:26:08.36,-189,-1143,-16442,194,-188,787,235,16,219,-125
,709,2023-10-27 10:26:08.38,-147,-1233,-16493,261,-234,786,234,22,212,-128
,710,2023-10-27 10:26:08.40,-100,-1143,-16428,271,-179,759,245,8,237,-126
,711,2023-10-27 10:26:08.42,-262,-1117,-16416,291,-132,705,262,-12,274,-125
,712,2023-10-27 10:26:08.44,-333,-1129,-16367,352,-284,592,258,2,256,-130
,713,2023-10-27 10:26:08.46,-163,-1158,-16461,331,-211,462,262,0,262,-131
,714,2023-10-27 10:26:08.48,-284,-1069,-16406,301,-204,379,268,-6,274,-131
,715,2023-10-27 10:26:08.50,-230,-1130,-16394,193,-215,328,275,-13,288,-131
,716,2023-10-27 10:26:08.52,-299,-1142,-16363,112,-247,264,280,-11,291,-134
,717,2023-10-27 10:26:08.54,-228,-1199,-16376,104,-253,256,276,-21,297,-127
,718,2023-10-27 10:26:08.56,-366,-1208,-16440,164,-307,263,288,-25,313,-131
,719,2023-10-27 10:26:08.58,-363,-1202,-16484,214,-323,261,288,-23,311,-132
,720,2023-10-27 10:26:08.60,-597,-1197,-16424,231,-376,312,293,-28,321,-132
,721,2023-10-27 10:26:08.62,-476,-1285,-16484,187,-444,417,294,-32,326,-131
,722,2023-10-27 10:26:08.64,-461,-1310,-16323,85,-391,544,295,-32,327,-131
,723,2023-10-27 10:26:08.66,-416,-1262,-16285,36,-295,626,299,-42,341,-128
,724,2023-10-27 10:26:08.68,-456,-1193,-16359,43,-228,645,309,-46,355,-131
,725,2023-10-27 10:26:08.70,-543,-1128,-16227,105,-104,589,312,-43,355,-134
,726,2023-10-27 10:26:08.72,-521,-1056,-16286,146,59,525,310,-44,354,-133
,727,2023-10-27 10:26:08.74,-410,-1076,-16351,198,136,389,313,-45,358,-134
,728,2023-10-27 10:26:08.76,-518,-1065,-16429,199,169,260,311,-37,348,-137
,729,2023-10-27 10:26:08.78,-469,-1125,-16456,256,111,85,317,-49,366,-134
,730,2023-10-27 10:26:08.80,-422,-1150,-16445,281,64,-32,320,-55,375,-132
,731,2023-10-27 10:26:08.82,-542,-1171,-16422,328,15,-85,321,-50,371,-135
,732,2023-10-27 10:26:08.84,-466,-1356,-16333,361,11,-84,318,-50,368,-134
,733,2023-10-27 10:26:08.86,-455,-1378,-16476,413,-58,-83,312,-49,361,-131
,734,2023-10-27 10:26:08.88,-478,-1350,-16390,412,48,-51,315,-59,374,-128
,735,2023-10-27 10:26:08.90,-534,-1401,-16424,436,77,59,317,-58,375,-129
,736,2023-10-27 10:26:08.92,-567,-1459,-16395,365,25,142,319,-49,368,-135
,737,2023-10-27 10:26:08.94,-478,-1469,-16304,299,36,261,324,-49,373,-137
,738,2023-10-27 10:26:08.96,-570,-1419,-16302,202,28,331,313,-43,356,-135
,739,2023-10-27 10:26:08.98,-581,-1336,-16302,111,31,339,312,-42,354,-135
,740,2023-10-27 10:26:09.00,-427,-1324,-16297,31,91,322,318,-47,365,-135
,741,2023-10-27 10:26:09.02,-543,-1357,-16368,-96,106,286,314,-51,365,-131
,742,2023-10-27 10:26:09.04,-468,-1346,-16494,-257,159,284,312,-44,356,-134
,743,2023-10-27 10:26:09.06,-428,-1357,-16368,-391,195,365,296,-45,341,-125
,744,2023-10-27 10:26:09.08,-445,-1308,-16545,-527,243,390,302,-39,341,-131
,745,2023-10-27 10:26:09.10,-426,-1046,-16699,-690,137,455,305,-27,332,-139
,746,2023-10-27 10:26:09.12,-527,-968,-16701,-950,70,473,299,-27,326,-136
,747,2023-10-27 10:26:09.14,-596,-807,-16856,-1193,-115,359,289,-30,319,-129
,748,2023-10-27 10:26:09.16,-427,-772,-16433,-1609,132,277,288,-24,312,-132
,749,2023-10-27 10:26:09.18,-498,-865,-16350,-1827,273,162,289,-21,310,-134
,750,2023-10-27 10:26:09.20,-391,-760,-16088,-2065,-109,165,278,-15,293,-131
,751,2023-10-27 10:26:09.22,-218,-1080,-16107,-2417,-198,56,274,-11,285,-131
,752,2023-10-27 10:26:09.24,-196,-726,-16144,-2557,-70,-56,281,-7,288,-137
,753,2023-10-27 10:26:09.26,-277,-521,-16206,-2453,134,-70,273,0,273,-136
,754,2023-10-27 10:26:09.28,-300,-414,-16454,-2354,58,-2,258,-7,265,-125
,755,2023-10-27 10:26:09.30,-156,-239,-16328,-2546,11,-40,259,4,255,-131
,756,2023-10-27 10:26:09.32,-296,-146,-16286,-2892,278,-98,252,20,232,-136
,757,2023-10-27 10:26:09.34,-85,-35,-16077,-2903,421,-149,247,22,225,-134
,758,2023-10-27 10:26:09.36,-249,4,-15877,-2709,683,-227,241,21,220,-131
,759,2023-10-27 10:26:09.38,-127,-191,-16076,-2336,1040,-348,236,28,208,-132
,760,2023-10-27 10:26:09.40,-136,-231,-16209,-2031,1378,-372,224,42,182,-133
,761,2023-10-27 10:26:09.42,96,-148,-16065,-1728,1475,-311,218,50,168,-134
,762,2023-10-27 10:26:09.44,149,-96,-16042,-1622,1655,-282,218,53,165,-135
,763,2023-10-27 10:26:09.46,233,244,-15789,-1542,1823,-259,206,58,148,-132
,764,2023-10-27 10:26:09.48,298,281,-15904,-1592,1945,-340,188,65,123,-126
,765,2023-10-27 10:26:09.50,285,309,-16116,-1651,1833,-487,187,82,105,-134
,766,2023-10-27 10:26:09.52,301,377,-16603,-1888,1627,-635,170,94,76,-132
,767,2023-10-27 10:26:09.54,402,265,-16700,-1961,1442,-670,171,95,76,-133
,768,2023-10-27 10:26:09.56,596,341,-16940,-1912,1249,-548,164,92,72,-128
,769,2023-10-27 10:26:09.58,514,446,-16810,-1836,1053,-360,153,104,49,-128
,770,2023-10-27 10:26:09.60,617,783,-16664,-1805,823,-244,146,108,38,-127
,771,2023-10-27 10:26:09.62,344,1113,-16921,-1839,527,-9,142,118,24,-130
,772,2023-10-27 10:26:09.64,121,1318,-17096,-1919,-85,88,141,122,19,-131
,773,2023-10-27 10:26:09.66,57,1587,-17319,-2268,-692,82,124,128,-4,-126
,774,2023-10-27 10:26:09.68,132,1656,-17012,-2393,-1077,265,122,139,-17,-130
,775,2023-10-27 10:26:09.70,117,1778,-16772,-2385,-1248,471,114,139,-25,-126
,776,2023-10-27 10:26:09.72,-121,1858,-16601,-2325,-1298,616,100,139,-39,-119
,777,2023-10-27 10:26:09.74,-188,1877,-16466,-2177,-1234,674,98,154,-56,-126
,778,2023-10-27 10:26:09.76,-135,1953,-16358,-1879,-1029,757,94,163,-69,-128
,779,2023-10-27 10:26:09.78,-207,2038,-16229,-1576,-777,941,96,149,-53,-122
,780,2023-10-27 10:26:09.80,-268,2210,-16142,-1247,-617,1097,82,168,-86,-125
,781,2023-10-27 10:26:09.82,-180,2210,-16038,-917,-478,1086,83,197,-114,-140
,782,2023-10-27 10:26:09.84,-67,2326,-16226,-550,-266,1091,83,182,-99,-132
,783,2023-10-27 10:26:09.86,-181,2403,-16414,36,-167,1111,66,183,-117,-124
,784,2023-10-27 10:26:09.88,-193,2358,-16360,479,-143,1020,49,191,-142,-120
,785,2023-10-27 10:26:09.90,-154,2166,-16508,827,-253,1021,55,203,-148,-129
,786,2023-10-27 10:26:09.92,-91,2084,-16435,986,-388,1136,49,205,-156,-127
,787,2023-10-27 10:26:09.94,-50,2145,-16333,925,-327,1416,42,210,-168,-126
,788,2023-10-27 10:26:09.96,-136,2091,-16233,728,-196,1694,43,219,-176,-131
,789,2023-10-27 10:26:09.98,-215,2125,-16471,621,-303,1685,35,227,-192,-131
,790,2023-10-27 10:26:10.00,-231,2176,-16354,368,-386,1667,14,237,-223,-125
,791,2023-10-27 10:26:10.02,-269,2294,-16420,126,-495,1797,18,235,-217,-126
,792,2023-10-27 10:26:10.04,-333,2436,-16372,-250,-555,1765,20,237,-217,-128
,793,2023-10-27 10:26:10.06,-181,2217,-16139,-548,-471,1521,18,252,-234,-135
,794,2023-10-27 10:26:10.08,-62,2338,-16203,-584,-253,1331,21,244,-223,-132
,795,2023-10-27 10:26:10.10,20,2252,-16165,-479,97,1258,7,256,-249,-131
,796,2023-10-27 10:26:10.12,34,2209,-16186,-258,288,1193,4,259,-255,-131
,797,2023-10-27 10:26:10.14,-6,2285,-16330,-75,318,1096,-5,252,-257,-123
,798,2023-10-27 10:26:10.16,37,2345,-16504,155,238,986,-12,259,-271,-123
,799,2023-10-27 10:26:10.18,32,2311,-16430,415,49,888,-11,269,-280,-129
,800,2023-10-27 10:26:10.20,-131,2231,-16363,599,-176,905,-8,264,-272,-128
,801,2023-10-27 10:26:10.22,-130,2126,-16364,684,-386,988,-18,266,-284,-124
,802,2023-10-27 10:26:10.24,-239,1958,-16321,861,-540,967,-12,278,-290,-133
,803,2023-10-27 10:26:10.26,-188,1856,-16333,1105,-585,993,-13,277,-290,-132
,804,2023-10-27 10:26:10.28,-136,1904,-16309,1359,-587,1120,-30,275,-305,-122
,805,2023-10-27 10:26:10.30,-262,1817,-16378,1575,-482,1198,-32,282,-314,-125
,806,2023-10-27 10:26:10.32,-230,1935,-16274,1711,-365,1147,-26,260,-286,-117
,807,2023-10-27 10:26:10.34,-225,1826,-16244,1690,-257,1001,-27,281,-308,-127
,808,2023-10-27 10:26:10.36,-103,1685,-16304,1815,-209,944,-26,283,-309,-128
,809,2023-10-27 10:26:10.38,-33,1564,-16333,2029,-268,852,-24,280,-304,-128
,810,2023-10-27 10:26:10.40,-105,1381,-16450,2323,-238,826,-22,270,-292,-124
,811,2023-10-27 10:26:10.42,92,1464,-16437,2452,-155,914,-20,274,-294,-127
,812,2023-10-27 10:26:10.44,-130,1258,-16467,2442,-39,1070,-22,283,-305,-130
,813,2023-10-27 10:26:10.46,-127,1279,-16293,2224,-44,1037,-22,279,-301,-128
,814,2023-10-27 10:26:10.48,4,1042,-16445,1975,54,844,-15,273,-288,-129
,815,2023-10-27 10:26:10.50,-124,1070,-16719,1775,-7,732,-17,270,-287,-126
,816,2023-10-27 10:26:10.52,-213,890,-16715,1478,-145,654,-20,280,-300,-130
,817,2023-10-27 10:26:10.54,-229,1055,-16581,995,-257,606,-23,269,-292,-123
,818,2023-10-27 10:26:10.56,-142,1246,-16373,349,-361,497,-19,270,-289,-125
,819,2023-10-27 10:26:10.58,-118,1134,-16232,-122,-402,298,-14,268,-282,-127
,820,2023-10-27 10:26:10.60,-120,1073,-16218,-256,-331,113,-11,266,-277,-127
,821,2023-10-27 10:26:10.62,-160,940,-16235,-197,-215,80,-7,265,-272,-129
,822,2023-10-27 10:26:10.64,-243,1046,-16456,-53,-249,78,-12,263,-275,-125
,823,2023-10-27 10:26:10.66,-315,932,-16433,90,-284,-49,0,256,-256,-128
,824,2023-10-27 10:26:10.68,-324,972,-16370,211,-331,-116,4,250,-246,-127
,825,2023-10-27 10:26:10.70,-371,959,-16445,247,-397,-87,-2,248,-250,-123
,826,2023-10-27 10:26:10.72,-382,940,-16303,203,-454,-132,0,239,-239,-119
,827,2023-10-27 10:26:10.74,-440,888,-16252,277,-442,-159,9,241,-232,-125
,828,2023-10-27 10:26:10.76,-497,780,-16379,324,-314,-132,12,234,-222,-123
,829,2023-10-27 10:26:10.78,-414,852,-16370,506,-197,-77,16,230,-214,-123
,830,2023-10-27 10:26:10.80,-514,787,-16317,693,-26,-55,19,224,-205,-121
,831,2023-10-27 10:26:10.82,-490,943,-16363,726,84,-27,25,218,-193,-121
,832,2023-10-27 10:26:10.84,-494,937,-16373,708,248,-49,32,220,-188,-126
,833,2023-10-27 10:26:10.86,-469,785,-16318,769,314,-11,44,209,-165,-126
,834,2023-10-27 10:26:10.88,-461,622,-16428,874,254,59,52,198,-146,-125
,835,2023-10-27 10:26:10.90,-400,469,-16462,974,155,152,54,203,-149,-128
,836,2023-10-27 10:26:10.92,-414,442,-16386,1039,88,339,62,186,-124,-124
,837,2023-10-27 10:26:10.94,-377,503,-16389,1080,148,499,60,179,-119,-119
,838,2023-10-27 10:26:10.96,-357,455,-16332,1101,126,628,72,180,-108,-126
,839,2023-10-27 10:26:10.98,-366,349,-16510,1022,95,684,81,174,-93,-127
,840,2023-10-27 10:26:11.00,-483,326,-16521,920,38,721,82,164,-82,-123
,841,2023-10-27 10:26:11.02,-429,329,-16402,882,-2,772,94,154,-60,-124
,842,2023-10-27 10:26:11.04,-404,312,-16447,814,-60,794,104,144,-40,-124
,843,2023-10-27 10:26:11.06,-277,375,-16402,699,-51,767,102,151,-49,-126
,844,2023-10-27 10:26:11.08,-320,327,-16347,557,82,752,116,141,-25,-128
,845,2023-10-27 10:26:11.10,-382,390,-16399,472,105,698,126,132,-6,-129
,846,2023-10-27 10:26:11.12,-449,325,-16453,340,121,569,134,125,9,-129
,847,2023-10-27 10:26:11.14,-379,254,-16489,301,64,540,132,122,10,-127
,848,2023-10-27 10:26:11.16,-326,212,-16397,323,9,622,132,105,27,-118
,849,2023-10-27 10:26:11.18,-459,219,-16299,317,25,682,146,104,42,-125
,850,2023-10-27 10:26:11.20,-329,279,-16411,285,-81,765,153,100,53,-126
,851,2023-10-27 10:26:11.22,-499,159,-16615,205,-172,753,162,88,74,-125
,852,2023-10-27 10:26:11.24,-434,249,-16582,284,-286,770,172,80,92,-126
,853,2023-10-27 10:26:11.26,-336,275,-16490,270,-233,820,174,77,97,-125
,854,2023-10-27 10:26:11.28,-401,307,-16592,278,-207,891,182,68,114,-125
,855,2023-10-27 10:26:11.30,-449,345,-16527,229,-287,859,189,62,127,-125
,856,2023-10-27 10:26:11.32,-392,308,-16420,5,-295,817,199,56,143,-127
,857,2023-10-27 10:26:11.34,-390,326,-16451,-184,-330,831,202,52,150,-127
,858,2023-10-27 10:26:11.36,-398,442,-16424,-246,-351,848,197,47,150,-122
,859,2023-10-27 10:26:11.38,-450,479,-16415,-200,-354,792,218,38,180,-128
,860,2023-10-27 10:26:11.40,-399,438,-16368,-61,-306,771,221,32,189,-126
,861,2023-10-27 10:26:11.42,-431,393,-16320,66,-261,828,229,24,205,-126
,862,2023-10-27 10:26:11.44,-430,332,-16308,239,-238,861,240,24,216,-132
,863,2023-10-27 10:26:11.46,-446,252,-16169,429,-162,904,232,14,218,-123
,864,2023-10-27 10:26:11.48,-422,312,-16265,559,-118,927,239,13,226,-126
,865,2023-10-27 10:26:11.50,-482,187,-16306,630,-60,928,251,6,245,-128
,866,2023-10-27 10:26:11.52,-514,252,-16383,717,-4,899,252,-1,253,-125
,867,2023-10-27 10:26:11.54,-537,239,-16449,742,-33,865,266,-6,272,-130
,868,2023-10-27 10:26:11.56,-563,209,-16604,680,-64,811,263,-16,279,-123
,869,2023-10-27 10:26:11.58,-537,238,-16402,612,-85,731,268,-8,276,-130
,870,2023-10-27 10:26:11.60,-500,320,-16494,389,-62,691,270,-22,292,-124
,871,2023-10-27 10:26:11.62,-563,225,-16395,245,19,552,279,-19,298,-130
,872,2023-10-27 10:26:11.64,-502,338,-16436,53,103,405,289,-20,309,-134
,873,2023-10-27 10:26:11.66,-504,327,-16351,-147,103,282,293,-35,328,-129
,874,2023-10-27 10:26:11.68,-390,317,-16296,-195,127,179,298,-36,334,-131
,875,2023-10-27 10:26:11.70,-463,253,-16421,-198,177,116,291,-42,333,-124
,876,2023-10-27 10:26:11.72,-489,190,-16481,-67,95,112,304,-42,346,-131
,877,2023-10-27 10:26:11.74,-393,139,-16501,109,47,152,305,-43,348,-131
,878,2023-10-27 10:26:11.76,-336,191,-16453,212,-13,254,306,-51,357,-127
,879,2023-10-27 10:26:11.78,-406,190,-16445,241,-36,317,309,-59,368,-125
,880,2023-10-27 10:26:11.80,-423,252,-16483,212,-50,352,305,-49,354,-128
,881,2023-10-27 10:26:11.82,-409,206,-16502,238,-49,388,324,-49,373,-137
,882,2023-10-27 10:26:11.84,-400,314,-16488,266,-45,406,329,-51,380,-139
,883,2023-10-27 10:26:11.86,-456,421,-16607,233,-76,399,321,-50,371,-135
,884,2023-10-27 10:26:11.88,-372,325,-16336,223,-129,399,316,-48,364,-134
,885,2023-10-27 10:26:11.90,-427,301,-16488,143,-131,458,312,-48,360,-132
,886,2023-10-27 10:26:11.92,-548,284,-16534,168,-296,465,318,-62,380,-128
,887,2023-10-27 10:26:11.94,-531,327,-16595,185,-305,479,331,-63,394,-134
,888,2023-10-27 10:26:11.96,-718,368,-16554,306,-358,476,330,-55,385,-137
,889,2023-10-27 10:26:11.98,-621,397,-16592,321,-493,414,342,-59,401,-141
,890,2023-10-27 10:26:12.00,-701,300,-16509,107,-508,316,336,-58,394,-139
,891,2023-10-27 10:26:12.02,-748,411,-16241,56,-483,285,327,-61,388,-133
,892,2023-10-27 10:26:12.04,-783,330,-16362,64,-405,141,320,-59,379,-130
,893,2023-10-27 10:26:12.06,-817,220,-16205,76,-374,60,323,-53,376,-135
,894,2023-10-27 10:26:12.08,-715,58,-16258,124,-317,98,314,-56,370,-129
,895,2023-10-27 10:26:12.10,-786,143,-16317,255,-272,133,302,-58,360,-122
,896,2023-10-27 10:26:12.12,-718,171,-16297,237,-158,216,305,-58,363,-123
,897,2023-10-27 10:26:12.14,-688,196,-16272,271,-52,252,300,-47,347,-126
,898,2023-10-27 10:26:12.16,-790,200,-16402,230,16,187,299,-44,343,-127
,899,2023-10-27 10:26:12.18,-846,188,-16463,231,13,168,303,-51,354,-126
,900,2023-10-27 10:26:12.20,-844,179,-16517,223,-11,163,291,-43,334,-124
,901,2023-10-27 10:26:12.22,-877,153,-16442,206,-91,189,287,-34,321,-126
,902,2023-10-27 10:26:12.24,-751,144,-16366,163,-176,273,292,-29,321,-131
,903,2023-10-27 10:26:12.26,-788,99,-16250,131,-77,287,298,-21,319,-138
,904,2023-10-27 10:26:12.28,-800,105,-16336,228,20,256,287,-31,318,-128
,905,2023-10-27 10:26:12.30,-898,-23,-16452,340,3,236,291,-21,312,-135
,906,2023-10-27 10:26:12.32,-928,-64,-16433,423,-74,282,283,-14,297,-134
,907,2023-10-27 10:26:12.34,-872,-66,-16316,447,-98,366,279,-21,300,-129
,908,2023-10-27 10:26:12.36,-859,-123,-15756,425,-17,454,270,-8,278,-131
,909,2023-10-27 10:26:12.38,-842,-56,-16303,391,40,431,265,0,265,-132
,910,2023-10-27 10:26:12.40,-837,-76,-16341,341,87,377,258,-5,263,-126
,911,2023-10-27 10:26:12.42,-886,-76,-16418,354,89,409,242,10,232,-126
,912,2023-10-27 10:26:12.44,-787,96,-16527,232,139,434,240,21,219,-130
,913,2023-10-27 10:26:12.46,-898,82,-16527,114,69,460,232,18,214,-125
,914,2023-10-27 10:26:12.48,-830,53,-16484,-61,-28,452,237,30,207,-133
,915,2023-10-27 10:26:12.50,-890,127,-16466,-180,-67,453,246,38,208,-142
,916,2023-10-27 10:26:12.52,-815,117,-16483,-187,-143,457,237,36,201,-136
,917,2023-10-27 10:26:12.54,-762,245,-16340,-123,-120,462,230,38,192,-134
,918,2023-10-27 10:26:12.56,-699,193,-16341,-42,-33,397,224,57,167,-140
,919,2023-10-27 10:26:12.58,-734,237,-16346,81,54,341,212,71,141,-141
,920,2023-10-27 10:26:12.60,-837,173,-16337,114,127,315,205,67,138,-136
,921,2023-10-27 10:26:12.62,-955,157,-16393,146,148,286,196,74,122,-135
,922,2023-10-27 10:26:12.64,-822,227,-16418,153,128,254,186,84,102,-135
,923,2023-10-27 10:26:12.66,-742,228,-16428,121,160,202,183,101,82,-142
,924,2023-10-27 10:26:12.68,-697,263,-16413,24,195,133,173,100,73,-136
,925,2023-10-27 10:26:12.70,-750,272,-16442,-18,227,40,168,110,58,-139
,926,2023-10-27 10:26:12.72,-746,273,-16396,-46,296,-58,158,125,33,-141
,927,2023-10-27 10:26:12.74,-749,342,-16420,-118,304,-113,156,125,31,-140
,928,2023-10-27 10:26:12.76,-732,299,-16413,-60,296,-112,154,127,27,-140
,929,2023-10-27 10:26:12.78,-549,276,-16439,-5,183,-126,142,146,-4,-144
,930,2023-10-27 10:26:12.80,-594,357,-16417,-34,265,-112,129,146,-17,-137
,931,2023-10-27 10:26:12.82,-713,337,-16512,88,262,-92,120,149,-29,-134
,932,2023-10-27 10:26:12.84,-680,267,-16517,123,205,-137,115,158,-43,-136
,933,2023-10-27 10:26:12.86,-602,103,-16394,183,118,-53,114,173,-59,-143
,934,2023-10-27 10:26:12.88,-548,125,-16601,166,245,122,112,160,-48,-136
,935,2023-10-27 10:26:12.90,-515,134,-16429,338,-57,142,114,176,-62,-145
,936,2023-10-27 10:26:12.92,-708,94,-16497,271,-2,152,112,183,-71,-147
,937,2023-10-27 10:26:12.94,-729,200,-16423,323,-59,173,111,182,-71,-146
,938,2023-10-27 10:26:12.96,-793,184,-16429,319,-91,152,105,198,-93,-151
,939,2023-10-27 10:26:12.98,-796,220,-16448,327,-82,61,90,212,-122,-151
,940,2023-10-27 10:26:13.00,-666,162,-16458,363,-50,-32,81,209,-128,-145
,941,2023-10-27 10:26:13.02,-765,66,-16443,316,-87,-82,76,218,-142,-147
,942,2023-10-27 10:26:13.04,-850,-2,-16307,246,-60,-117,74,221,-147,-147
,943,2023-10-27 10:26:13.06,-738,-4,-16331,265,14,-121,60,213,-153,-136
,944,2023-10-27 10:26:13.08,-825,-107,-15579,238,204,-108,55,231,-176,-143
,945,2023-10-27 10:26:13.10,-795,-39,-16440,206,162,-111,32,233,-201,-132
,946,2023-10-27 10:26:13.12,-741,-40,-16377,164,162,-109,36,240,-204,-138
,947,2023-10-27 10:26:13.14,-749,-39,-16350,169,183,-37,34,239,-205,-136
,948,2023-10-27 10:26:13.16,-759,-58,-16280,89,251,12,26,245,-219,-135
,949,2023-10-27 10:26:13.18,-804,-55,-16438,55,204,100,27,261,-234,-144
,950,2023-10-27 10:26:13.20,-674,-78,-16449,30,125,148,22,258,-236,-140
,951,2023-10-27 10:26:13.22,-657,-10,-16450,73,66,214,20,260,-240,-140
,952,2023-10-27 10:26:13.24,-702,2,-16427,59,24,216,7,262,-255,-134
,953,2023-10-27 10:26:13.26,-707,120,-16420,45,16,173,2,264,-262,-133
,954,2023-10-27 10:26:13.28,-654,103,-16432,25,-21,98,11,263,-252,-137
,955,2023-10-27 10:26:13.30,-605,118,-16441,-15,-53,51,-2,279,-281,-138
,956,2023-10-27 10:26:13.32,-714,210,-16423,-77,8,20,-4,281,-285,-138
,957,2023-10-27 10:26:13.34,-727,212,-16449,-141,40,-25,-6,268,-274,-131
,958,2023-10-27 10:26:13.36,-654,155,-16400,-143,54,19,-16,266,-282,-125
,959,2023-10-27 10:26:13.38,-741,193,-16404,-24,107,63,-17,292,-309,-137
,960,2023-10-27 10:26:13.40,-579,71,-16374,111,151,101,-14,272,-286,-129
,961,2023-10-27 10:26:13.42,-655,73,-16313,262,147,177,-14,284,-298,-135
,962,2023-10-27 10:26:13.44,-572,99,-16395,348,159,238,-25,290,-315,-132
,963,2023-10-27 10:26:13.46,-604,95,-16453,364,110,287,-21,288,-309,-133
,964,2023-10-27 10:26:13.48,-601,101,-16478,325,38,283,-13,298,-311,-142
,965,2023-10-27 10:26:13.50,-717,73,-16501,242,-71,221,-23,291,-314,-134
,966,2023-10-27 10:26:13.52,-718,119,-16394,208,-109,145,-28,299,-327,-135
,967,2023-10-27 10:26:13.54,-702,117,-16403,188,-58,55,-27,297,-324,-135
,968,2023-10-27 10:26:13.56,-743,82,-16306,185,-23,-23,-24,293,-317,-134
,969,2023-10-27 10:26:13.58,-683,-4,-16438,158,-66,-85,-23,287,-310,-132
,970,2023-10-27 10:26:13.60,-636,-1,-16376,121,1,-126,-30,289,-319,-129
,971,2023-10-27 10:26:13.62,-737,15,-16421,179,89,-113,-26,289,-315,-131
,972,2023-10-27 10:26:13.64,-723,-4,-16490,185,72,-121,-38,284,-322,-123
,973,2023-10-27 10:26:13.66,-748,-34,-16368,166,36,-103,-22,283,-305,-130
,974,2023-10-27 10:26:13.68,-561,28,-16360,102,10,-32,-18,272,-290,-127
,975,2023-10-27 10:26:13.70,-712,82,-16310,43,33,-6,-25,279,-304,-127
,976,2023-10-27 10:26:13.72,-711,90,-16360,12,88,11,-26,274,-300,-124
,977,2023-10-27 10:26:13.74,-637,117,-16439,-25,75,3,-27,273,-300,-123
,978,2023-10-27 10:26:13.76,-595,43,-16458,-58,60,84,-24,273,-297,-124
,979,2023-10-27 10:26:13.78,-630,61,-16491,-9,85,171,-20,270,-290,-125
,980,2023-10-27 10:26:13.80,-549,79,-16452,92,118,234,0,259,-259,-129
,981,2023-10-27 10:26:13.82,-611,169,-16435,155,169,272,-7,256,-263,-124
,982,2023-10-27 10:26:13.84,-547,116,-16434,167,159,302,-5,249,-254,-122
,983,2023-10-27 10:26:13.86,-568,147,-16408,147,223,298,10,239,-229,-124
,984,2023-10-27 10:26:13.88,-628,179,-16462,186,222,319,6,250,-244,-128
,985,2023-10-27 10:26:13.90,-563,112,-16485,207,202,288,0,240,-240,-120
,986,2023-10-27 10:26:13.92,-530,32,-16418,243,123,288,1,216,-215,-108
,987,2023-10-27 10:26:13.94,-488,63,-16379,287,71,328,20,223,-203,-121
,988,2023-10-27 10:26:13.96,-451,82,-16385,322,100,322,18,226,-208,-122
,989,2023-10-27 10:26:13.98,-534,121,-16486,358,114,324,35,215,-180,-125
,990,2023-10-27 10:26:14.00,-464,14,-16526,316,39,315,38,210,-172,-124
,991,2023-10-27 10:26:14.02,-497,35,-16486,288,-44,327,32,211,-179,-121
,992,2023-10-27 10:26:14.04,-534,41,-16494,264,-176,313,44,202,-158,-123
,993,2023-10-27 10:26:14.06,-503,-3,-16402,248,-288,251,51,193,-142,-122
,994,2023-10-27 10:26:14.08,-451,42,-16463,233,-323,139,58,197,-139,-127
,995,2023-10-27 10:26:14.10,-505,22,-16417,222,-339,86,57,182,-125,-119
,996,2023-10-27 10:26:14.12,-612,4,-16469,217,-347,6,64,176,-112,-120
,997,2023-10-27 10:26:14.14,-730,-40,-16492,141,-364,-86,90,170,-80,-130
,998,2023-10-27 10:26:14.16,-788,-96,-16473,113,-425,-87,82,169,-87,-125
,999,2023-10-27 10:26:14.18,-750,-145,-16395,131,-428,-52,89,157,-68,-123
,1000,2023-10-27 10:26:14.20,-782,-187,-16343,175,-373,54,97,150,-53,-123
,1001,2023-10-27 10:26:14.22,-873,-134,-16340,194,-307,135,96,138,-42,-117
,1002,2023-10-27 10:26:14.24,-972,-117,-16403,242,-345,180,115,129,-14,-122
,1003,2023-10-27 10:26:14.26,-947,-159,-16428,245,-285,274,110,125,-15,-117
,1004,2023-10-27 10:26:14.28,-897,-104,-16384,241,-218,369,108,124,-16,-116
,1005,2023-10-27 10:26:14.30,-948,-97,-16306,157,-124,416,131,119,12,-125
,1006,2023-10-27 10:26:14.32,-959,-78,-16398,114,-95,435,135,104,31,-119
,1007,2023-10-27 10:26:14.34,-977,-178,-16410,127,-107,445,149,101,48,-125
,1008,2023-10-27 10:26:14.36,-989,-68,-16464,223,-226,446,146,84,62,-115
,1009,2023-10-27 10:26:14.38,-959,-10,-16439,204,-99,415,155,85,70,-120
,1010,2023-10-27 10:26:14.40,-980,94,-16497,272,-37,338,158,76,82,-117
,1011,2023-10-27 10:26:14.42,-1103,-47,-16466,263,-83,200,146,68,78,-107
,1012,2023-10-27 10:26:14.44,-1076,-83,-16356,197,-208,180,180,61,119,-120
,1013,2023-10-27 10:26:14.46,-889,-102,-16211,161,-210,245,172,64,108,-118
,1014,2023-10-27 10:26:14.48,-1024,-25,-16248,182,-115,185,183,53,130,-118
,1015,2023-10-27 10:26:14.50,-939,-71,-16258,130,-36,86,194,45,149,-119
,1016,2023-10-27 10:26:14.52,-1094,-107,-16390,122,19,50,205,46,159,-125
,1017,2023-10-27 10:26:14.54,-1005,-129,-16386,35,132,8,213,38,175,-125
,1018,2023-10-27 10:26:14.56,-1006,-87,-16384,-21,184,50,216,32,184,-124
,1019,2023-10-27 10:26:14.58,-989,-99,-16396,-60,272,50,213,27,186,-120
,1020,2023-10-27 10:26:14.60,-1018,-83,-16494,-72,221,74,226,24,202,-125
,1021,2023-10-27 10:26:14.62,-860,34,-16427,-121,202,93,241,22,219,-131
