// Data mode  : Full
// Data quality  : High
// Acceleration sensor's range  : 16g
// Gyroscope sensor's range  : 2000dps
//
//ARTIFACT,NUM,DATE,ACC_X,ACC_Y,ACC_Z,GYRO_X,GYRO_Y,GYRO_Z,EOG_L,EOG_R,EOG_H,EOG_V
,1,2023-10-27 10:40:11.49,-36,-67,-2058,67,11,43,-549,-738,189,643
,2,2023-10-27 10:40:11.50,-50,-71,-2059,75,1,52,-558,-748,190,653
,3,2023-10-27 10:40:11.51,-54,-68,-2048,75,1,52,-554,-748,194,651
,4,2023-10-27 10:40:11.52,-51,-94,-2062,82,3,53,-550,-741,191,645
,5,2023-10-27 10:40:11.53,-68,-68,-2062,84,-5,58,-556,-665,109,610
,6,2023-10-27 10:40:11.54,-51,-70,-2072,83,-3,57,-544,-616,72,580
,7,2023-10-27 10:40:11.55,-55,-68,-2066,82,-7,56,-566,-666,100,616
,8,2023-10-27 10:40:11.56,-43,-65,-2069,77,-8,53,-551,-716,165,633
,9,2023-10-27 10:40:11.57,-49,-57,-2066,71,-4,46,-573,-767,194,670
,10,2023-10-27 10:40:11.58,-53,-58,-2072,66,-4,46,-544,-759,215,651
,11,2023-10-27 10:40:11.59,-56,-68,-2066,60,-4,40,-573,-751,178,662
,12,2023-10-27 10:40:11.60,-63,-73,-2057,56,-9,36,-537,-729,192,633
,13,2023-10-27 10:40:11.61,-56,-75,-2063,50,-16,34,-568,-738,170,653
,14,2023-10-27 10:40:11.62,-63,-82,-2055,43,-21,31,-525,-724,199,624
,15,2023-10-27 10:40:11.63,-60,-88,-2059,39,-22,31,-572,-728,156,650
,16,2023-10-27 10:40:11.64,-53,-75,-2047,33,-16,31,-527,-706,179,616
,17,2023-10-27 10:40:11.65,-59,-64,-2051,28,-14,29,-578,-711,133,644
,18,2023-10-27 10:40:11.66,-58,-72,-2048,17,-9,29,-524,-699,175,611
,19,2023-10-27 10:40:11.67,-62,-69,-2054,10,-6,30,-585,-741,156,663
,20,2023-10-27 10:40:11.68,-57,-69,-2060,6,-8,31,-522,-727,205,624
,21,2023-10-27 10:40:11.69,-60,-73,-2053,-2,-6,30,-591,-763,172,677
,22,2023-10-27 10:40:11.70,-53,-85,-2055,-4,-5,29,-523,-733,210,628
,23,2023-10-27 10:40:11.71,-57,-73,-2062,-8,-5,31,-586,-748,162,667
,24,2023-10-27 10:40:11.72,-52,-76,-2052,-9,-2,36,-510,-711,201,610
,25,2023-10-27 10:40:11.73,-57,-80,-2050,-9,-2,35,-592,-753,161,672
,26,2023-10-27 10:40:11.74,-51,-79,-2055,-4,-3,39,-512,-724,212,618
,27,2023-10-27 10:40:11.75,-49,-78,-2061,-3,-5,42,-597,-781,184,689
,28,2023-10-27 10:40:11.76,-44,-80,-2048,6,-5,45,-501,-739,238,620
,29,2023-10-27 10:40:11.77,-55,-75,-2046,12,-5,49,-601,-798,197,699
,30,2023-10-27 10:40:11.78,-49,-82,-2053,19,-6,51,-508,-745,237,626
,31,2023-10-27 10:40:11.79,-55,-65,-2057,25,-6,56,-608,-801,193,704
,32,2023-10-27 10:40:11.80,-44,-65,-2058,25,-7,54,-502,-738,236,620
,33,2023-10-27 10:40:11.81,-47,-65,-2059,25,-7,55,-608,-776,168,692
,34,2023-10-27 10:40:11.82,-40,-68,-2060,25,-10,54,-504,-712,208,608
,35,2023-10-27 10:40:11.83,-51,-73,-2051,22,-13,51,-620,-758,138,689
,36,2023-10-27 10:40:11.84,-51,-66,-2054,23,-10,50,-506,-710,204,608
,37,2023-10-27 10:40:11.85,-45,-65,-2059,25,-10,45,-623,-802,179,712
,38,2023-10-27 10:40:11.86,-59,-69,-2069,26,-13,43,-498,-748,250,623
,39,2023-10-27 10:40:11.87,-60,-71,-2068,26,-17,41,-618,-813,195,715
,40,2023-10-27 10:40:11.88,-54,-59,-2076,24,-21,36,-497,-736,239,616
,41,2023-10-27 10:40:11.89,-64,-58,-2066,23,-27,31,-624,-779,155,701
,42,2023-10-27 10:40:11.90,-57,-60,-2053,24,-24,27,-498,-701,203,599
,43,2023-10-27 10:40:11.91,-67,-59,-2055,22,-20,20,-625,-733,108,679
,44,2023-10-27 10:40:11.92,-62,-52,-2052,19,-20,17,-492,-672,180,582
,45,2023-10-27 10:40:11.93,-68,-57,-2051,14,-14,16,-628,-758,130,693
,46,2023-10-27 10:40:11.94,-75,-56,-2054,11,-15,11,-486,-698,212,592
,47,2023-10-27 10:40:11.95,-72,-59,-2061,10,-15,6,-613,-732,119,672
,48,2023-10-27 10:40:11.96,-81,-55,-2046,9,-10,8,-476,-657,181,566
,49,2023-10-27 10:40:11.97,-68,-57,-2048,7,-5,4,-628,-746,118,687
,50,2023-10-27 10:40:11.98,-88,-47,-2049,7,-4,4,-489,-695,206,592
,51,2023-10-27 10:40:11.99,-72,-66,-2050,9,-10,4,-628,-771,143,699
,52,2023-10-27 10:40:12.00,-96,-45,-2045,15,-17,5,-473,-702,229,587
,53,2023-10-27 10:40:12.01,-85,-49,-2040,17,-20,3,-617,-781,164,699
,54,2023-10-27 10:40:12.02,-75,-55,-2050,15,-15,1,-468,-702,234,585
,55,2023-10-27 10:40:12.03,-77,-46,-2046,7,-7,2,-625,-701,76,663
,56,2023-10-27 10:40:12.04,-75,-56,-2041,4,-3,3,-474,-600,126,537
,57,2023-10-27 10:40:12.05,-84,-64,-2048,-3,2,3,-631,-649,18,640
,58,2023-10-27 10:40:12.06,-83,-54,-2057,0,1,6,-478,-626,148,552
,59,2023-10-27 10:40:12.07,-83,-45,-2059,1,8,4,-632,-764,132,698
,60,2023-10-27 10:40:12.08,-72,-61,-2067,3,8,12,-471,-721,250,596
,61,2023-10-27 10:40:12.09,-79,-63,-2068,3,6,12,-633,-811,178,722
,62,2023-10-27 10:40:12.10,-79,-60,-2075,4,1,15,-471,-726,255,598
,63,2023-10-27 10:40:12.11,-79,-61,-2071,5,-6,17,-631,-795,164,713
,64,2023-10-27 10:40:12.12,-74,-49,-2065,6,-8,19,-466,-681,215,573
,65,2023-10-27 10:40:12.13,-73,-52,-2072,6,-8,18,-632,-703,71,667
,66,2023-10-27 10:40:12.14,-80,-52,-2071,8,-4,19,-467,-622,155,544
,67,2023-10-27 10:40:12.15,-66,-55,-2064,9,-5,18,-634,-698,64,666
,68,2023-10-27 10:40:12.16,-73,-54,-2048,8,-2,21,-465,-644,179,554
,69,2023-10-27 10:40:12.17,-80,-61,-2041,9,0,20,-626,-737,111,681
,70,2023-10-27 10:40:12.18,-78,-68,-2032,17,-3,22,-459,-691,232,575
,71,2023-10-27 10:40:12.19,-81,-72,-2030,19,-1,26,-625,-790,165,707
,72,2023-10-27 10:40:12.20,-75,-81,-2055,28,-3,30,-465,-720,255,592
,73,2023-10-27 10:40:12.21,-73,-77,-2045,32,-5,32,-639,-786,147,712
,74,2023-10-27 10:40:12.22,-87,-72,-2048,39,-11,36,-469,-705,236,587
,75,2023-10-27 10:40:12.23,-75,-66,-2051,38,-7,36,-645,-794,149,719
,76,2023-10-27 10:40:12.24,-76,-74,-2073,43,-11,41,-467,-717,250,592
,77,2023-10-27 10:40:12.25,-76,-79,-2066,45,-15,42,-639,-811,172,725
,78,2023-10-27 10:40:12.26,-69,-66,-2053,51,-20,43,-471,-715,244,593
,79,2023-10-27 10:40:12.27,-73,-66,-2048,51,-26,45,-644,-773,129,708
,80,2023-10-27 10:40:12.28,-77,-75,-2049,53,-19,46,-472,-688,216,580
,81,2023-10-27 10:40:12.29,-76,-76,-2030,56,-10,44,-643,-772,129,707
,82,2023-10-27 10:40:12.30,-81,-86,-2037,62,-2,41,-468,-705,237,586
,83,2023-10-27 10:40:12.31,-74,-78,-2059,68,2,40,-635,-808,173,721
,84,2023-10-27 10:40:12.32,-68,-92,-2072,80,3,36,-469,-721,252,595
,85,2023-10-27 10:40:12.33,-70,-90,-2071,90,11,31,-641,-780,139,710
,86,2023-10-27 10:40:12.34,-73,-88,-2069,94,12,24,-474,-660,186,567
,87,2023-10-27 10:40:12.35,-82,-90,-2077,98,17,21,-641,-702,61,671
,88,2023-10-27 10:40:12.36,-83,-89,-2080,103,16,18,-473,-644,171,558
,89,2023-10-27 10:40:12.37,-88,-94,-2075,99,18,16,-641,-755,114,698
,90,2023-10-27 10:40:12.38,-77,-99,-2069,102,11,10,-468,-676,208,572
,91,2023-10-27 10:40:12.39,-79,-93,-2063,101,8,6,-630,-712,82,671
,92,2023-10-27 10:40:12.40,-77,-95,-2043,95,9,4,-469,-620,151,544
,93,2023-10-27 10:40:12.41,-60,-98,-2037,91,12,1,-635,-663,28,649
,94,2023-10-27 10:40:12.42,-60,-96,-2027,88,25,-3,-471,-632,161,551
,95,2023-10-27 10:40:12.43,-55,-100,-2036,84,30,-4,-631,-762,131,696
,96,2023-10-27 10:40:12.44,-55,-114,-2029,81,45,-2,-470,-719,249,594
,97,2023-10-27 10:40:12.45,-66,-117,-2040,75,51,0,-631,-793,162,712
,98,2023-10-27 10:40:12.46,-68,-121,-2041,73,51,2,-481,-718,237,599
,99,2023-10-27 10:40:12.47,-62,-116,-2043,68,51,7,-641,-780,139,710
,100,2023-10-27 10:40:12.48,-63,-132,-2049,63,52,16,-489,-701,212,595
,101,2023-10-27 10:40:12.49,-67,-133,-2064,63,41,25,-639,-762,123,700
,102,2023-10-27 10:40:12.50,-64,-120,-2068,62,28,30,-496,-711,215,603
,103,2023-10-27 10:40:12.51,-65,-126,-2062,53,21,41,-644,-786,142,715
,104,2023-10-27 10:40:12.52,-67,-125,-2060,47,15,45,-498,-731,233,614
,105,2023-10-27 10:40:12.53,-66,-120,-2055,40,13,50,-637,-796,159,716
,106,2023-10-27 10:40:12.54,-65,-116,-2050,36,2,56,-500,-730,230,615
,107,2023-10-27 10:40:12.55,-78,-124,-2052,38,-2,59,-640,-782,142,711
,108,2023-10-27 10:40:12.56,-76,-129,-2059,37,-12,64,-494,-724,230,609
,109,2023-10-27 10:40:12.57,-86,-119,-2065,33,-19,72,-624,-787,163,705
,110,2023-10-27 10:40:12.58,-65,-103,-2065,25,-20,70,-483,-720,237,601
,111,2023-10-27 10:40:12.59,-67,-97,-2055,17,-13,70,-627,-771,144,699
,112,2023-10-27 10:40:12.60,-57,-94,-2070,8,0,71,-496,-710,214,603
,113,2023-10-27 10:40:12.61,-71,-79,-2064,-2,9,63,-628,-765,137,696
,114,2023-10-27 10:40:12.62,-52,-92,-2073,-11,15,59,-498,-727,229,612
,115,2023-10-27 10:40:12.63,-74,-90,-2079,-13,21,53,-623,-792,169,707
,116,2023-10-27 10:40:12.64,-66,-90,-2071,-12,22,47,-518,-741,223,629
,117,2023-10-27 10:40:12.65,-52,-99,-2056,-6,20,43,-630,-770,140,700
,118,2023-10-27 10:40:12.66,-66,-104,-2044,1,24,39,-504,-708,204,606
,119,2023-10-27 10:40:12.67,-62,-76,-2052,11,22,32,-610,-740,130,675
,120,2023-10-27 10:40:12.68,-63,-91,-2040,18,28,19,-505,-704,199,604
,121,2023-10-27 10:40:12.69,-60,-88,-2042,20,34,15,-614,-753,139,683
,122,2023-10-27 10:40:12.70,-67,-85,-2047,24,41,11,-510,-733,223,621
,123,2023-10-27 10:40:12.71,-56,-100,-2054,24,49,8,-612,-777,165,694
,124,2023-10-27 10:40:12.72,-71,-95,-2060,22,50,10,-516,-723,207,619
,125,2023-10-27 10:40:12.73,-64,-105,-2048,18,43,9,-606,-741,135,673
,126,2023-10-27 10:40:12.74,-58,-97,-2054,19,41,10,-512,-670,158,591
,127,2023-10-27 10:40:12.75,-69,-99,-2055,12,40,15,-602,-683,81,642
,128,2023-10-27 10:40:12.76,-53,-107,-2046,15,37,17,-522,-684,162,603
,129,2023-10-27 10:40:12.77,-65,-92,-2062,12,41,17,-602,-746,144,674
,130,2023-10-27 10:40:12.78,-50,-92,-2056,13,42,19,-526,-745,219,635
,131,2023-10-27 10:40:12.79,-40,-100,-2054,14,49,21,-598,-771,173,684
,132,2023-10-27 10:40:12.80,-50,-92,-2065,17,51,23,-540,-716,176,628
,133,2023-10-27 10:40:12.81,-43,-103,-2060,21,48,27,-603,-716,113,659
,134,2023-10-27 10:40:12.82,-39,-97,-2065,32,47,30,-533,-689,156,611
,135,2023-10-27 10:40:12.83,-45,-100,-2057,38,43,33,-588,-712,124,650
,136,2023-10-27 10:40:12.84,-28,-95,-2061,43,45,31,-530,-705,175,617
,137,2023-10-27 10:40:12.85,-27,-103,-2060,47,40,32,-584,-728,144,656
,138,2023-10-27 10:40:12.86,-22,-107,-2064,47,45,35,-536,-711,175,623
,139,2023-10-27 10:40:12.87,-27,-105,-2069,56,40,39,-581,-725,144,653
,140,2023-10-27 10:40:12.88,-28,-112,-2074,62,42,41,-538,-715,177,626
,141,2023-10-27 10:40:12.89,-25,-124,-2064,67,40,47,-577,-732,155,654
,142,2023-10-27 10:40:12.90,-39,-116,-2064,68,35,55,-534,-711,177,622
,143,2023-10-27 10:40:12.91,-17,-114,-2067,72,39,64,-566,-722,156,644
,144,2023-10-27 10:40:12.92,-28,-124,-2073,80,30,69,-543,-746,203,644
,145,2023-10-27 10:40:12.93,-37,-117,-2078,79,28,75,-570,-764,194,667
,146,2023-10-27 10:40:12.94,-27,-129,-2075,80,24,81,-549,-769,220,659
,147,2023-10-27 10:40:12.95,-31,-124,-2054,79,18,87,-565,-763,198,664
,148,2023-10-27 10:40:12.96,-31,-128,-2049,75,13,92,-543,-766,223,654
,149,2023-10-27 10:40:12.97,-38,-140,-2048,68,19,96,-552,-761,209,656
,150,2023-10-27 10:40:12.98,-40,-137,-2041,70,17,102,-549,-767,218,658
,151,2023-10-27 10:40:12.99,-35,-127,-2039,67,17,101,-546,-748,202,647
,152,2023-10-27 10:40:13.00,-48,-154,-2039,70,17,99,-549,-724,175,636
,153,2023-10-27 10:40:13.01,-47,-120,-2059,68,11,101,-547,-701,154,624
,154,2023-10-27 10:40:13.02,-42,-130,-2075,63,6,96,-566,-669,103,617
,155,2023-10-27 10:40:13.03,-43,-130,-2068,60,-7,93,-555,-662,107,608
,156,2023-10-27 10:40:13.04,-41,-105,-2066,53,-16,92,-575,-709,134,642
,157,2023-10-27 10:40:13.05,-37,-116,-2050,38,-9,84,-552,-725,173,638
,158,2023-10-27 10:40:13.06,-44,-117,-2046,20,16,74,-571,-742,171,656
,159,2023-10-27 10:40:13.07,-42,-117,-2048,10,28,64,-539,-726,187,632
,160,2023-10-27 10:40:13.08,-37,-128,-2064,4,32,60,-571,-737,166,654
,161,2023-10-27 10:40:13.09,-51,-125,-2067,5,34,51,-534,-712,178,623
,162,2023-10-27 10:40:13.10,-47,-147,-2068,8,27,45,-584,-708,124,646
,163,2023-10-27 10:40:13.11,-55,-135,-2067,13,18,47,-543,-692,149,617
,164,2023-10-27 10:40:13.12,-50,-140,-2072,15,10,45,-583,-717,134,650
,165,2023-10-27 10:40:13.13,-56,-136,-2067,17,9,48,-525,-704,179,614
,166,2023-10-27 10:40:13.14,-37,-137,-2056,21,6,45,-568,-728,160,648
,167,2023-10-27 10:40:13.15,-47,-134,-2044,24,8,45,-519,-704,185,611
,168,2023-10-27 10:40:13.16,-23,-136,-2039,24,12,45,-588,-707,119,647
,169,2023-10-27 10:40:13.17,-48,-153,-2044,25,15,49,-525,-682,157,603
,170,2023-10-27 10:40:13.18,-27,-140,-2045,23,17,50,-592,-736,144,664
,171,2023-10-27 10:40:13.19,-27,-146,-2053,26,23,54,-522,-722,200,622
,172,2023-10-27 10:40:13.20,-19,-140,-2059,28,20,53,-594,-756,162,675
,173,2023-10-27 10:40:13.21,-20,-149,-2066,29,22,61,-517,-718,201,617
,174,2023-10-27 10:40:13.22,-17,-142,-2071,27,15,65,-592,-744,152,668
,175,2023-10-27 10:40:13.23,-30,-148,-2086,27,14,76,-511,-703,192,607
,176,2023-10-27 10:40:13.24,-30,-144,-2081,31,10,80,-603,-730,127,666
,177,2023-10-27 10:40:13.25,-27,-137,-2077,34,0,92,-512,-698,186,605
,178,2023-10-27 10:40:13.26,-13,-142,-2068,31,-8,98,-600,-751,151,675
,179,2023-10-27 10:40:13.27,-24,-152,-2071,32,-12,110,-497,-714,217,605
,180,2023-10-27 10:40:13.28,-37,-154,-2070,33,-18,120,-592,-762,170,677
,181,2023-10-27 10:40:13.29,-38,-151,-2079,35,-23,126,-499,-709,210,604
,182,2023-10-27 10:40:13.30,-29,-160,-2068,34,-31,133,-612,-716,104,664
,183,2023-10-27 10:40:13.31,-45,-137,-2055,34,-34,135,-508,-666,158,587
,184,2023-10-27 10:40:13.32,-36,-144,-2058,41,-29,129,-623,-724,101,673
,185,2023-10-27 10:40:13.33,-37,-143,-2054,45,-29,132,-504,-697,193,600
,186,2023-10-27 10:40:13.34,-37,-148,-2048,49,-31,131,-611,-774,163,692
,187,2023-10-27 10:40:13.35,-42,-154,-2056,46,-19,129,-494,-721,227,607
,188,2023-10-27 10:40:13.36,-45,-162,-2036,51,-21,124,-615,-774,159,694
,189,2023-10-27 10:40:13.37,-45,-154,-2044,56,-17,125,-495,-716,221,605
,190,2023-10-27 10:40:13.38,-41,-156,-2040,57,-20,122,-621,-808,187,714
,191,2023-10-27 10:40:13.39,-50,-176,-2040,68,-16,121,-491,-748,257,619
,192,2023-10-27 10:40:13.40,-55,-159,-2035,70,-25,121,-616,-806,190,711
,193,2023-10-27 10:40:13.41,-61,-135,-2042,68,-29,114,-493,-730,237,611
,194,2023-10-27 10:40:13.42,-61,-158,-2032,63,-26,109,-628,-774,146,701
,195,2023-10-27 10:40:13.43,-71,-164,-2041,59,-28,107,-492,-706,214,599
,196,2023-10-27 10:40:13.44,-68,-144,-2042,62,-29,102,-620,-791,171,705
,197,2023-10-27 10:40:13.45,-85,-170,-2066,60,-43,94,-483,-728,245,605
,198,2023-10-27 10:40:13.46,-75,-148,-2044,49,-45,83,-622,-807,185,714
,199,2023-10-27 10:40:13.47,-64,-139,-2061,37,-47,72,-482,-716,234,599
,200,2023-10-27 10:40:13.48,-72,-153,-2056,19,-44,62,-625,-740,115,682
,201,2023-10-27 10:40:13.49,-67,-150,-2050,14,-42,51,-485,-675,190,580
,202,2023-10-27 10:40:13.50,-69,-136,-2050,3,-31,41,-625,-781,156,703
,203,2023-10-27 10:40:13.51,-70,-136,-2050,-8,-21,29,-475,-729,254,602
,204,2023-10-27 10:40:13.52,-70,-154,-2057,-16,-12,17,-619,-808,189,713
,205,2023-10-27 10:40:13.53,-65,-141,-2061,-19,-8,8,-466,-719,253,592
,206,2023-10-27 10:40:13.54,-73,-150,-2062,-20,-6,-1,-622,-781,159,701
,207,2023-10-27 10:40:13.55,-59,-160,-2050,-19,-7,-8,-473,-686,213,579
,208,2023-10-27 10:40:13.56,-70,-154,-2051,-16,-10,-9,-633,-731,98,682
,209,2023-10-27 10:40:13.57,-73,-157,-2051,-12,-12,-11,-476,-645,169,560
,210,2023-10-27 10:40:13.58,-68,-144,-2052,-11,-12,-12,-637,-714,77,675
,211,2023-10-27 10:40:13.59,-66,-146,-2054,-8,-17,-11,-473,-662,189,567
,212,2023-10-27 10:40:13.60,-70,-153,-2061,-6,-22,-9,-632,-772,140,702
,213,2023-10-27 10:40:13.61,-69,-156,-2049,-4,-26,-6,-468,-691,223,579
,214,2023-10-27 10:40:13.62,-68,-159,-2051,1,-31,-1,-635,-753,118,694
,215,2023-10-27 10:40:13.63,-66,-159,-2047,4,-31,4,-470,-672,202,571
,216,2023-10-27 10:40:13.64,-68,-168,-2047,6,-30,9,-640,-761,121,700
,217,2023-10-27 10:40:13.65,-74,-162,-2042,9,-25,13,-469,-686,217,577
,218,2023-10-27 10:40:13.66,-71,-176,-2041,9,-20,23,-630,-765,135,697
,219,2023-10-27 10:40:13.67,-78,-166,-2044,10,-16,30,-455,-670,215,562
,220,2023-10-27 10:40:13.68,-76,-171,-2048,14,-17,39,-629,-731,102,680
,221,2023-10-27 10:40:13.69,-77,-180,-2048,14,-17,46,-462,-661,199,561
,222,2023-10-27 10:40:13.70,-73,-159,-2063,15,-18,49,-640,-757,117,698
,223,2023-10-27 10:40:13.71,-67,-151,-2070,13,-16,54,-460,-689,229,574
,224,2023-10-27 10:40:13.72,-98,-147,-2070,7,-18,59,-635,-779,144,707
,225,2023-10-27 10:40:13.73,-87,-147,-2068,2,-21,59,-464,-682,218,573
,226,2023-10-27 10:40:13.74,-83,-145,-2065,-3,-19,65,-641,-751,110,696
,227,2023-10-27 10:40:13.75,-83,-151,-2062,-4,-20,71,-465,-657,192,561
,228,2023-10-27 10:40:13.76,-83,-166,-2066,-4,-18,76,-639,-717,78,678
,229,2023-10-27 10:40:13.77,-92,-152,-2056,-3,-16,82,-465,-650,185,557
,230,2023-10-27 10:40:13.78,-82,-158,-2038,1,-15,81,-639,-754,115,696
,231,2023-10-27 10:40:13.79,-79,-169,-2041,4,-14,87,-458,-685,227,571
,232,2023-10-27 10:40:13.80,-72,-151,-2039,14,-12,88,-631,-767,136,699
,233,2023-10-27 10:40:13.81,-77,-151,-2044,20,-2,88,-456,-665,209,560
,234,2023-10-27 10:40:13.82,-76,-143,-2043,16,1,87,-644,-729,85,686
,235,2023-10-27 10:40:13.83,-75,-147,-2048,14,14,83,-465,-662,197,563
,236,2023-10-27 10:40:13.84,-66,-145,-2051,23,22,82,-634,-761,127,697
,237,2023-10-27 10:40:13.85,-78,-139,-2065,28,25,90,-462,-675,213,568
,238,2023-10-27 10:40:13.86,-81,-149,-2056,27,25,91,-637,-744,107,690
,239,2023-10-27 10:40:13.87,-71,-166,-2057,31,22,99,-461,-658,197,559
,240,2023-10-27 10:40:13.88,-67,-163,-2055,39,23,102,-632,-738,106,685
,241,2023-10-27 10:40:13.89,-67,-158,-2047,42,17,105,-464,-665,201,564
,242,2023-10-27 10:40:13.90,-68,-162,-2064,45,9,113,-647,-753,106,700
,243,2023-10-27 10:40:13.91,-68,-152,-2050,43,8,119,-469,-665,196,567
,244,2023-10-27 10:40:13.92,-65,-142,-2058,39,2,122,-632,-737,105,684
,245,2023-10-27 10:40:13.93,-61,-143,-2057,32,1,124,-464,-642,178,553
,246,2023-10-27 10:40:13.94,-61,-145,-2061,21,1,132,-634,-711,77,672
,247,2023-10-27 10:40:13.95,-67,-143,-2065,16,-5,134,-471,-635,164,553
,248,2023-10-27 10:40:13.96,-70,-138,-2072,9,-13,137,-633,-706,73,669
,249,2023-10-27 10:40:13.97,-73,-142,-2063,5,-18,137,-476,-664,188,570
,250,2023-10-27 10:40:13.98,-76,-156,-2067,0,-30,138,-633,-770,137,701
,251,2023-10-27 10:40:13.99,-83,-150,-2063,2,-41,141,-474,-691,217,582
,252,2023-10-27 10:40:14.00,-71,-146,-2074,8,-54,143,-629,-745,116,687
,253,2023-10-27 10:40:14.01,-82,-136,-2074,3,-54,142,-477,-658,181,567
,254,2023-10-27 10:40:14.02,-87,-151,-2066,-2,-53,142,-628,-722,94,675
,255,2023-10-27 10:40:14.03,-82,-144,-2070,-5,-52,148,-472,-671,199,571
,256,2023-10-27 10:40:14.04,-86,-151,-2061,3,-52,152,-618,-752,134,685
,257,2023-10-27 10:40:14.05,-84,-146,-2060,0,-51,152,-478,-669,191,573
,258,2023-10-27 10:40:14.06,-93,-156,-2043,8,-56,158,-624,-713,89,668
,259,2023-10-27 10:40:14.07,-95,-163,-2031,17,-55,158,-489,-660,171,574
,260,2023-10-27 10:40:14.08,-87,-159,-2040,26,-47,161,-624,-741,117,682
,261,2023-10-27 10:40:14.09,-95,-160,-2033,34,-32,154,-480,-719,239,599
,262,2023-10-27 10:40:14.10,-80,-160,-2027,45,-32,150,-608,-797,189,702
,263,2023-10-27 10:40:14.11,-94,-158,-2043,55,-16,149,-470,-751,281,610
,264,2023-10-27 10:40:14.12,-100,-168,-2048,66,-9,145,-600,-795,195,697
,265,2023-10-27 10:40:14.13,-98,-170,-2064,78,-12,145,-494,-764,270,629
,266,2023-10-27 10:40:14.14,-114,-174,-2058,83,-18,144,-619,-827,208,723
,267,2023-10-27 10:40:14.15,-110,-146,-2041,88,-36,144,-479,-761,282,620
,268,2023-10-27 10:40:14.16,-103,-158,-2046,84,-39,147,-585,-785,200,685
,269,2023-10-27 10:40:14.17,-98,-157,-2034,70,-30,146,-467,-707,240,587
,270,2023-10-27 10:40:14.18,-102,-168,-2031,67,-40,146,-579,-740,161,659
,271,2023-10-27 10:40:14.19,-102,-164,-2031,60,-31,143,-462,-671,209,566
,272,2023-10-27 10:40:14.20,-105,-174,-2033,51,-29,143,-574,-709,135,641
,273,2023-10-27 10:40:14.21,-99,-180,-2043,47,-21,140,-469,-700,231,584
,274,2023-10-27 10:40:14.22,-108,-171,-2034,47,-17,140,-580,-758,178,669
,275,2023-10-27 10:40:14.23,-97,-171,-2043,50,-18,138,-500,-726,226,613
,276,2023-10-27 10:40:14.24,-92,-173,-2047,50,-6,140,-590,-757,167,673
,277,2023-10-27 10:40:14.25,-98,-172,-2056,60,1,137,-485,-727,242,606
,278,2023-10-27 10:40:14.26,-96,-159,-2053,59,-4,137,-572,-762,190,667
,279,2023-10-27 10:40:14.27,-114,-153,-2057,51,-6,138,-487,-750,263,618
,280,2023-10-27 10:40:14.28,-113,-154,-2056,41,-13,139,-574,-791,217,682
,281,2023-10-27 10:40:14.29,-122,-153,-2067,33,-16,139,-490,-762,272,626
,282,2023-10-27 10:40:14.30,-116,-153,-2068,22,-17,136,-570,-780,210,675
,283,2023-10-27 10:40:14.31,-111,-151,-2065,7,-26,139,-507,-764,257,635
,284,2023-10-27 10:40:14.32,-115,-172,-2086,-4,-33,139,-582,-788,206,685
,285,2023-10-27 10:40:14.33,-120,-123,-2063,-18,-39,138,-516,-741,225,628
,286,2023-10-27 10:40:14.34,-116,-121,-2080,-28,-41,133,-575,-745,170,660
,287,2023-10-27 10:40:14.35,-113,-134,-2061,-40,-51,130,-519,-714,195,616
,288,2023-10-27 10:40:14.36,-127,-131,-2043,-46,-42,123,-576,-733,157,654
,289,2023-10-27 10:40:14.37,-109,-146,-2053,-36,-43,113,-527,-699,172,613
,290,2023-10-27 10:40:14.38,-103,-149,-2047,-28,-38,112,-572,-711,139,641
,291,2023-10-27 10:40:14.39,-125,-148,-2056,-11,-42,111,-527,-735,208,631
,292,2023-10-27 10:40:14.40,-133,-163,-2054,6,-39,113,-565,-768,203,666
,293,2023-10-27 10:40:14.41,-130,-166,-2042,24,-44,116,-533,-746,213,639
,294,2023-10-27 10:40:14.42,-132,-170,-2034,54,-55,120,-567,-744,177,655
,295,2023-10-27 10:40:14.43,-117,-134,-2000,76,-74,117,-533,-741,208,637
,296,2023-10-27 10:40:14.44,-117,-139,-2016,79,-63,109,-558,-750,192,654
,297,2023-10-27 10:40:14.45,-129,-152,-2016,74,-48,105,-548,-752,204,650
,298,2023-10-27 10:40:14.46,-129,-136,-2009,71,-42,101,-569,-755,186,662
,299,2023-10-27 10:40:14.47,-114,-166,-2035,68,-23,90,-550,-741,191,645
,300,2023-10-27 10:40:14.48,-133,-141,-2035,56,-17,84,-560,-734,174,647
,301,2023-10-27 10:40:14.49,-131,-155,-2041,57,-16,72,-545,-734,189,639
,302,2023-10-27 10:40:14.50,-122,-163,-2033,49,-2,67,-547,-733,186,640
,303,2023-10-27 10:40:14.51,-144,-166,-2053,50,4,60,-548,-681,133,614
,304,2023-10-27 10:40:14.52,-126,-171,-2059,59,-5,56,-548,-670,122,609
,305,2023-10-27 10:40:14.53,-145,-173,-2063,67,-17,53,-559,-707,148,633
,306,2023-10-27 10:40:14.54,-137,-210,-2058,74,-25,54,-547,-734,187,640
,307,2023-10-27 10:40:14.55,-158,-186,-2062,79,-30,57,-561,-775,214,668
,308,2023-10-27 10:40:14.56,-126,-205,-2058,83,-25,57,-542,-769,227,655
,309,2023-10-27 10:40:14.57,-131,-207,-2038,78,-13,61,-557,-764,207,660
,310,2023-10-27 10:40:14.58,-139,-210,-2039,72,-7,61,-530,-739,209,634
,311,2023-10-27 10:40:14.59,-137,-206,-2049,65,1,68,-569,-766,197,667
,312,2023-10-27 10:40:14.60,-144,-206,-2051,54,15,75,-538,-753,215,645
,313,2023-10-27 10:40:14.61,-155,-200,-2065,52,12,73,-573,-729,156,651
,314,2023-10-27 10:40:14.62,-141,-223,-2062,53,12,75,-531,-698,167,614
,315,2023-10-27 10:40:14.63,-142,-193,-2063,59,8,77,-568,-708,140,638
,316,2023-10-27 10:40:14.64,-163,-179,-2071,59,9,72,-522,-707,185,614
,317,2023-10-27 10:40:14.65,-142,-181,-2056,54,2,68,-577,-772,195,674
,318,2023-10-27 10:40:14.66,-157,-186,-2052,41,0,62,-520,-762,242,641
,319,2023-10-27 10:40:14.67,-153,-191,-2053,39,-4,61,-581,-780,199,680
,320,2023-10-27 10:40:14.68,-149,-197,-2039,35,-14,61,-515,-738,223,626
,321,2023-10-27 10:40:14.69,-145,-185,-2030,31,-26,56,-587,-794,207,690
,322,2023-10-27 10:40:14.70,-149,-175,-2028,24,-33,54,-516,-758,242,637
,323,2023-10-27 10:40:14.71,-137,-179,-2036,17,-36,51,-596,-796,200,696
,324,2023-10-27 10:40:14.72,-139,-181,-2028,10,-28,47,-517,-747,230,632
,325,2023-10-27 10:40:14.73,-137,-188,-2025,4,-27,50,-600,-801,201,700
,326,2023-10-27 10:40:14.74,-142,-204,-2031,6,-23,53,-511,-752,241,631
,327,2023-10-27 10:40:14.75,-145,-206,-2038,3,-20,65,-598,-767,169,682
,328,2023-10-27 10:40:14.76,-126,-219,-2031,6,-23,69,-506,-705,199,605
,329,2023-10-27 10:40:14.77,-119,-176,-2030,11,-18,66,-604,-735,131,669
,330,2023-10-27 10:40:14.78,-127,-163,-2029,11,-26,75,-510,-693,183,601
,331,2023-10-27 10:40:14.79,-116,-176,-2035,6,-21,78,-608,-738,130,673
,332,2023-10-27 10:40:14.80,-131,-186,-2027,0,-3,77,-506,-689,183,597
,333,2023-10-27 10:40:14.81,-121,-187,-2043,5,-1,77,-620,-712,92,666
,334,2023-10-27 10:40:14.82,-140,-169,-2045,6,7,74,-513,-670,157,591
,335,2023-10-27 10:40:14.83,-140,-178,-2061,15,-2,70,-623,-755,132,689
,336,2023-10-27 10:40:14.84,-137,-174,-2068,19,-9,72,-506,-712,206,609
,337,2023-10-27 10:40:14.85,-136,-168,-2062,24,-15,69,-617,-759,142,688
,338,2023-10-27 10:40:14.86,-127,-188,-2058,29,-21,64,-501,-697,196,599
,339,2023-10-27 10:40:14.87,-140,-178,-2057,34,-24,59,-623,-758,135,690
,340,2023-10-27 10:40:14.88,-132,-183,-2047,31,-17,56,-496,-701,205,598
,341,2023-10-27 10:40:14.89,-127,-187,-2040,30,-8,52,-613,-765,152,689
,342,2023-10-27 10:40:14.90,-138,-184,-2040,34,7,49,-486,-700,214,593
,343,2023-10-27 10:40:14.91,-140,-188,-2053,37,13,53,-620,-747,127,683
,344,2023-10-27 10:40:14.92,-144,-191,-2045,37,19,56,-491,-682,191,586
,345,2023-10-27 10:40:14.93,-141,-195,-2044,38,15,58,-622,-735,113,678
,346,2023-10-27 10:40:14.94,-138,-192,-2025,40,14,63,-490,-682,192,586
,347,2023-10-27 10:40:14.95,-141,-188,-2028,39,12,70,-627,-783,156,705
,348,2023-10-27 10:40:14.96,-150,-184,-2026,43,18,72,-486,-728,242,607
,349,2023-10-27 10:40:14.97,-142,-190,-2022,43,12,73,-622,-798,176,710
,350,2023-10-27 10:40:14.98,-150,-181,-2019,44,14,70,-477,-720,243,598
,351,2023-10-27 10:40:14.99,-139,-185,-2023,48,14,65,-621,-802,181,711
,352,2023-10-27 10:40:15.00,-141,-181,-2036,54,13,53,-475,-729,254,602
,353,2023-10-27 10:40:15.01,-147,-196,-2044,59,11,48,-627,-802,175,714
,354,2023-10-27 10:40:15.02,-171,-224,-2076,63,11,41,-476,-716,240,596
,355,2023-10-27 10:40:15.03,-127,-168,-2042,68,8,25,-633,-782,149,707
,356,2023-10-27 10:40:15.04,-146,-211,-2039,58,10,14,-478,-691,213,584
,357,2023-10-27 10:40:15.05,-148,-204,-2041,51,26,7,-632,-761,129,696
,358,2023-10-27 10:40:15.06,-142,-216,-2040,55,27,-1,-466,-679,213,572
,359,2023-10-27 10:40:15.07,-146,-216,-2054,53,27,-1,-618,-756,138,687
,360,2023-10-27 10:40:15.08,-136,-213,-2064,56,25,-7,-465,-676,211,570
,361,2023-10-27 10:40:15.09,-128,-202,-2070,55,18,-10,-635,-740,105,687
,362,2023-10-27 10:40:15.10,-147,-205,-2056,50,16,-9,-482,-669,187,575
,363,2023-10-27 10:40:15.11,-137,-209,-2068,41,17,-13,-647,-754,107,700
,364,2023-10-27 10:40:15.12,-149,-218,-2071,29,4,-10,-472,-659,187,565
,365,2023-10-27 10:40:15.13,-152,-223,-2073,23,-5,-7,-631,-712,81,671
,366,2023-10-27 10:40:15.14,-149,-219,-2079,17,-17,-5,-459,-632,173,545
,367,2023-10-27 10:40:15.15,-143,-222,-2058,12,-29,-2,-637,-742,105,689
,368,2023-10-27 10:40:15.16,-150,-219,-2047,6,-31,1,-469,-676,207,572
,369,2023-10-27 10:40:15.17,-157,-217,-2043,2,-28,2,-639,-760,121,699
,370,2023-10-27 10:40:15.18,-136,-210,-2040,0,-29,5,-459,-673,214,566
,371,2023-10-27 10:40:15.19,-149,-218,-2048,0,-31,6,-621,-743,122,682
,372,2023-10-27 10:40:15.20,-162,-219,-2040,3,-35,10,-458,-644,186,551
,373,2023-10-27 10:40:15.21,-149,-212,-2037,3,-39,11,-634,-708,74,671
,374,2023-10-27 10:40:15.22,-158,-257,-2040,9,-41,14,-468,-624,156,546
,375,2023-10-27 10:40:15.23,-166,-199,-2026,17,-43,20,-639,-696,57,667
,376,2023-10-27 10:40:15.24,-162,-212,-2014,28,-45,15,-471,-639,168,555
,377,2023-10-27 10:40:15.25,-172,-216,-2005,24,-43,14,-644,-753,109,698
,378,2023-10-27 10:40:15.26,-162,-225,-2013,21,-29,13,-473,-686,213,579
,379,2023-10-27 10:40:15.27,-172,-226,-1988,17,-14,10,-642,-768,126,705
,380,2023-10-27 10:40:15.28,-163,-237,-1986,23,-10,16,-469,-668,199,568
,381,2023-10-27 10:40:15.29,-163,-233,-2001,30,-11,21,-641,-732,91,686
,382,2023-10-27 10:40:15.30,-171,-228,-2016,28,-8,28,-479,-650,171,564
,383,2023-10-27 10:40:15.31,-174,-233,-2028,29,-4,31,-655,-730,75,692
,384,2023-10-27 10:40:15.32,-168,-264,-2038,33,-8,44,-480,-656,176,568
,385,2023-10-27 10:40:15.33,-175,-241,-2046,46,-14,61,-641,-737,96,689
,386,2023-10-27 10:40:15.34,-180,-214,-2058,50,-20,59,-474,-658,184,566
,387,2023-10-27 10:40:15.35,-191,-248,-2065,34,-15,73,-647,-732,85,689
,388,2023-10-27 10:40:15.36,-183,-265,-2101,24,-13,86,-481,-679,198,580
,389,2023-10-27 10:40:15.37,-182,-225,-2075,16,-16,90,-647,-787,140,717
,390,2023-10-27 10:40:15.38,-181,-186,-2061,3,-21,99,-478,-710,232,594
,391,2023-10-27 10:40:15.39,-176,-195,-2027,-10,-21,98,-646,-773,127,709
,392,2023-10-27 10:40:15.40,-161,-219,-2047,-24,-10,94,-480,-684,204,582
,393,2023-10-27 10:40:15.41,-186,-180,-2036,-33,-4,93,-646,-756,110,701
,394,2023-10-27 10:40:15.42,-152,-195,-2050,-29,-4,81,-476,-669,193,572
,395,2023-10-27 10:40:15.43,-166,-238,-2080,-29,6,76,-639,-740,101,689
,396,2023-10-27 10:40:15.44,-144,-173,-2012,-29,0,70,-473,-678,205,575
,397,2023-10-27 10:40:15.45,-172,-172,-2032,-23,15,60,-640,-774,134,707
,398,2023-10-27 10:40:15.46,-151,-195,-2011,-15,13,54,-487,-677,190,582
,399,2023-10-27 10:40:15.47,-163,-204,-2025,-9,11,47,-653,-723,70,688
,400,2023-10-27 10:40:15.48,-166,-197,-2019,0,7,46,-501,-636,135,568
,401,2023-10-27 10:40:15.49,-152,-212,-2015,4,8,47,-660,-714,54,687
,402,2023-10-27 10:40:15.50,-159,-207,-2011,6,19,49,-486,-674,188,580
,403,2023-10-27 10:40:15.51,-147,-209,-2019,9,20,55,-629,-769,140,699
,404,2023-10-27 10:40:15.52,-141,-201,-2017,17,19,58,-482,-680,198,581
,405,2023-10-27 10:40:15.53,-141,-229,-2026,26,13,71,-638,-728,90,683
,406,2023-10-27 10:40:15.54,-143,-197,-2042,38,4,85,-504,-664,160,584
,407,2023-10-27 10:40:15.55,-137,-199,-2052,36,0,86,-641,-731,90,686
,408,2023-10-27 10:40:15.56,-137,-214,-2052,26,-5,99,-500,-696,196,598
,409,2023-10-27 10:40:15.57,-135,-223,-2060,21,-10,106,-636,-778,142,707
,410,2023-10-27 10:40:15.58,-144,-195,-2060,22,-7,111,-496,-724,228,610
,411,2023-10-27 10:40:15.59,-126,-205,-2060,14,-6,112,-630,-777,147,703
,412,2023-10-27 10:40:15.60,-137,-185,-2052,-1,-5,117,-496,-693,197,594
,413,2023-10-27 10:40:15.61,-138,-193,-2045,-8,2,118,-633,-735,102,684
,414,2023-10-27 10:40:15.62,-141,-199,-2052,-14,5,120,-500,-708,208,604
,415,2023-10-27 10:40:15.63,-153,-203,-2059,-6,-3,123,-626,-788,162,707
,416,2023-10-27 10:40:15.64,-146,-209,-2070,3,-11,124,-500,-712,212,606
,417,2023-10-27 10:40:15.65,-139,-186,-2081,17,-24,117,-627,-739,112,683
,418,2023-10-27 10:40:15.66,-162,-181,-2048,24,-35,110,-515,-680,165,597
,419,2023-10-27 10:40:15.67,-159,-185,-2062,30,-50,102,-636,-734,98,685
,420,2023-10-27 10:40:15.68,-174,-156,-2043,26,-48,89,-515,-697,182,606
,421,2023-10-27 10:40:15.69,-152,-160,-2044,29,-54,77,-628,-755,127,691
,422,2023-10-27 10:40:15.70,-149,-202,-2068,25,-61,70,-512,-693,181,602
,423,2023-10-27 10:40:15.71,-163,-179,-2030,22,-58,56,-618,-724,106,671
,424,2023-10-27 10:40:15.72,-163,-187,-2040,27,-45,47,-516,-630,114,573
,425,2023-10-27 10:40:15.73,-159,-166,-2034,23,-57,37,-618,-651,33,634
,426,2023-10-27 10:40:15.74,-165,-192,-2034,18,-52,21,-527,-596,69,561
,427,2023-10-27 10:40:15.75,-179,-202,-2032,11,-40,18,-621,-656,35,638
,428,2023-10-27 10:40:15.76,-171,-188,-2044,14,-38,11,-523,-653,130,588
,429,2023-10-27 10:40:15.77,-167,-188,-2045,13,-41,8,-606,-712,106,659
,430,2023-10-27 10:40:15.78,-177,-196,-2038,10,-39,5,-531,-630,99,580
,431,2023-10-27 10:40:15.79,-176,-193,-2043,13,-39,3,-613,-643,30,628
,432,2023-10-27 10:40:15.80,-188,-209,-2037,15,-48,1,-533,-640,107,586
,433,2023-10-27 10:40:15.81,-194,-211,-2036,16,-50,8,-604,-714,110,659
,434,2023-10-27 10:40:15.82,-189,-200,-2028,10,-38,10,-530,-683,153,606
,435,2023-10-27 10:40:15.83,-189,-207,-2029,9,-33,16,-600,-699,99,649
,436,2023-10-27 10:40:15.84,-193,-210,-2010,12,-33,18,-542,-676,134,609
,437,2023-10-27 10:40:15.85,-195,-204,-2006,18,-33,21,-608,-717,109,662
,438,2023-10-27 10:40:15.86,-191,-201,-2029,22,-27,27,-551,-685,134,618
,439,2023-10-27 10:40:15.87,-207,-200,-2029,28,-25,24,-605,-711,106,658
,440,2023-10-27 10:40:15.88,-203,-195,-2029,35,-28,19,-538,-746,208,642
,441,2023-10-27 10:40:15.89,-206,-192,-2027,38,-18,16,-584,-789,205,686
,442,2023-10-27 10:40:15.90,-200,-192,-2030,42,-13,14,-540,-767,227,653
,443,2023-10-27 10:40:15.91,-186,-223,-2037,47,-10,14,-586,-759,173,672
,444,2023-10-27 10:40:15.92,-210,-174,-2031,59,-10,12,-558,-722,164,640
,445,2023-10-27 10:40:15.93,-199,-203,-2050,51,-7,2,-591,-729,138,660
,446,2023-10-27 10:40:15.94,-182,-204,-2009,40,-9,-3,-548,-735,187,641
,447,2023-10-27 10:40:15.95,-209,-190,-2059,44,-1,-9,-578,-757,179,667
,448,2023-10-27 10:40:15.96,-201,-189,-2042,44,-10,-16,-552,-732,180,642
,449,2023-10-27 10:40:15.97,-194,-204,-2048,43,-13,-24,-578,-729,151,653
,450,2023-10-27 10:40:15.98,-211,-199,-2050,39,-10,-33,-563,-692,129,627
,451,2023-10-27 10:40:15.99,-196,-197,-2047,38,-17,-41,-577,-695,118,636
,452,2023-10-27 10:40:16.00,-209,-207,-2041,38,-16,-49,-568,-691,123,629
,453,2023-10-27 10:40:16.01,-206,-215,-2020,39,-14,-57,-571,-702,131,636
,454,2023-10-27 10:40:16.02,-202,-228,-2034,34,-14,-59,-564,-709,145,636
,455,2023-10-27 10:40:16.03,-193,-215,-2023,33,-9,-63,-561,-718,157,639
,456,2023-10-27 10:40:16.04,-211,-227,-2036,36,-11,-63,-578,-744,166,661
,457,2023-10-27 10:40:16.05,-215,-227,-2018,35,-10,-62,-565,-746,181,655
,458,2023-10-27 10:40:16.06,-197,-233,-2023,33,-1,-60,-576,-748,172,662
,459,2023-10-27 10:40:16.07,-204,-223,-2035,34,-2,-54,-550,-728,178,639
,460,2023-10-27 10:40:16.08,-200,-236,-2037,36,0,-48,-572,-768,196,670
,461,2023-10-27 10:40:16.09,-219,-238,-2055,36,-1,-40,-544,-766,222,655
,462,2023-10-27 10:40:16.10,-215,-243,-2051,35,-5,-30,-566,-784,218,675
,463,2023-10-27 10:40:16.11,-216,-238,-2041,35,-7,-18,-536,-749,213,642
,464,2023-10-27 10:40:16.12,-210,-243,-2040,36,-6,-12,-583,-726,143,654
,465,2023-10-27 10:40:16.13,-209,-244,-2040,34,-10,-6,-544,-694,150,619
,466,2023-10-27 10:40:16.14,-201,-226,-2041,32,-9,-4,-586,-721,135,653
,467,2023-10-27 10:40:16.15,-195,-223,-2033,26,-9,-2,-537,-710,173,623
,468,2023-10-27 10:40:16.16,-196,-211,-2029,22,-3,-4,-584,-769,185,676
,469,2023-10-27 10:40:16.17,-199,-213,-2015,27,0,-5,-534,-750,216,642
,470,2023-10-27 10:40:16.18,-208,-214,-2035,28,1,-12,-586,-783,197,684
,471,2023-10-27 10:40:16.19,-198,-224,-2038,33,-1,-17,-526,-743,217,634
,472,2023-10-27 10:40:16.20,-210,-221,-2035,42,-7,-25,-590,-754,164,672
,473,2023-10-27 10:40:16.21,-190,-221,-2028,46,-7,-35,-527,-710,183,618
,474,2023-10-27 10:40:16.22,-200,-222,-2021,46,-8,-41,-589,-709,120,649
,475,2023-10-27 10:40:16.23,-190,-229,-2021,40,-3,-47,-519,-678,159,598
,476,2023-10-27 10:40:16.24,-192,-237,-2018,34,2,-47,-590,-751,161,670
,477,2023-10-27 10:40:16.25,-199,-247,-2032,31,15,-44,-517,-736,219,626
,478,2023-10-27 10:40:16.26,-200,-248,-2011,32,21,-42,-604,-800,196,702
,479,2023-10-27 10:40:16.27,-198,-254,-2015,32,24,-33,-522,-746,224,634
,480,2023-10-27 10:40:16.28,-193,-252,-2020,26,40,-21,-598,-737,139,667
,481,2023-10-27 10:40:16.29,-196,-253,-2011,23,37,-14,-510,-680,170,595
,482,2023-10-27 10:40:16.30,-190,-267,-2018,30,34,-6,-612,-735,123,673
,483,2023-10-27 10:40:16.31,-191,-243,-2038,36,29,1,-512,-703,191,607
,484,2023-10-27 10:40:16.32,-194,-238,-2044,35,21,4,-600,-746,146,673
,485,2023-10-27 10:40:16.33,-183,-235,-2047,28,24,8,-504,-691,187,597
,486,2023-10-27 10:40:16.34,-185,-240,-2053,22,23,4,-621,-718,97,669
,487,2023-10-27 10:40:16.35,-200,-242,-2059,18,25,6,-516,-676,160,596
,488,2023-10-27 10:40:16.36,-196,-242,-2056,16,18,3,-616,-758,142,687
,489,2023-10-27 10:40:16.37,-190,-234,-2054,18,16,1,-498,-716,218,607
,490,2023-10-27 10:40:16.38,-199,-237,-2055,21,3,-1,-613,-753,140,683
,491,2023-10-27 10:40:16.39,-186,-240,-2040,21,-2,-3,-500,-684,184,592
,492,2023-10-27 10:40:16.40,-185,-246,-2035,18,0,-5,-616,-727,111,671
,493,2023-10-27 10:40:16.41,-201,-246,-2026,18,2,-9,-494,-679,185,586
,494,2023-10-27 10:40:16.42,-192,-249,-2028,20,5,-10,-624,-761,137,692
,495,2023-10-27 10:40:16.43,-176,-249,-2025,24,-1,-10,-502,-714,212,608
,496,2023-10-27 10:40:16.44,-187,-236,-2017,23,2,-13,-632,-771,139,701
,497,2023-10-27 10:40:16.45,-175,-269,-2025,18,14,-18,-494,-709,215,601
,498,2023-10-27 10:40:16.46,-184,-275,-2031,15,12,-14,-621,-780,159,700
,499,2023-10-27 10:40:16.47,-197,-257,-2012,31,10,-8,-484,-717,233,600
,500,2023-10-27 10:40:16.48,-191,-264,-2012,35,7,-8,-628,-781,153,704
,501,2023-10-27 10:40:16.49,-183,-264,-2018,35,0,-4,-485,-709,224,597
,502,2023-10-27 10:40:16.50,-196,-265,-2021,33,-4,2,-628,-796,168,712
,503,2023-10-27 10:40:16.51,-189,-266,-2037,34,-12,8,-487,-725,238,606
,504,2023-10-27 10:40:16.52,-189,-262,-2040,26,-20,20,-636,-796,160,716
,505,2023-10-27 10:40:16.53,-190,-267,-2031,20,-15,25,-484,-709,225,596
,506,2023-10-27 10:40:16.54,-178,-255,-2024,11,-13,29,-631,-769,138,700
,507,2023-10-27 10:40:16.55,-190,-246,-2034,6,-11,32,-484,-687,203,585
,508,2023-10-27 10:40:16.56,-197,-250,-2034,0,-3,35,-642,-755,113,698
,509,2023-10-27 10:40:16.57,-180,-243,-2030,-4,-5,35,-488,-685,197,586
,510,2023-10-27 10:40:16.58,-192,-250,-2037,-8,-5,37,-638,-762,124,700
,511,2023-10-27 10:40:16.59,-206,-239,-2033,-16,-7,34,-479,-691,212,585
,512,2023-10-27 10:40:16.60,-196,-238,-2038,-24,-2,35,-633,-765,132,699
,513,2023-10-27 10:40:16.61,-217,-275,-2054,-18,-4,47,-472,-693,221,582
,514,2023-10-27 10:40:16.62,-201,-241,-2045,-7,-7,47,-632,-792,160,712
,515,2023-10-27 10:40:16.63,-200,-238,-2038,-7,-6,48,-476,-696,220,586
,516,2023-10-27 10:40:16.64,-198,-242,-2025,-14,-7,51,-645,-723,78,684
,517,2023-10-27 10:40:16.65,-203,-237,-2032,-11,-3,50,-480,-639,159,559
,518,2023-10-27 10:40:16.66,-198,-240,-2019,-11,2,49,-649,-745,96,697
,519,2023-10-27 10:40:16.67,-201,-231,-2014,-8,6,49,-478,-693,215,585
,520,2023-10-27 10:40:16.68,-215,-238,-2017,-7,10,45,-647,-805,158,726
,521,2023-10-27 10:40:16.69,-211,-230,-2029,-2,8,43,-479,-722,243,600
,522,2023-10-27 10:40:16.70,-203,-235,-2031,3,7,40,-651,-805,154,728
,523,2023-10-27 10:40:16.71,-202,-225,-2034,3,6,36,-475,-709,234,592
,524,2023-10-27 10:40:16.72,-199,-220,-2032,2,7,30,-640,-796,156,718
,525,2023-10-27 10:40:16.73,-204,-220,-2028,1,6,27,-469,-690,221,579
,526,2023-10-27 10:40:16.74,-204,-224,-2031,-3,9,22,-643,-750,107,696
,527,2023-10-27 10:40:16.75,-202,-231,-2026,-2,14,17,-470,-656,186,563
,528,2023-10-27 10:40:16.76,-205,-234,-2037,-7,7,11,-639,-736,97,687
,529,2023-10-27 10:40:16.77,-203,-248,-2039,-9,5,11,-472,-637,165,554
,530,2023-10-27 10:40:16.78,-188,-244,-2045,-10,8,10,-650,-689,39,669
,531,2023-10-27 10:40:16.79,-184,-247,-2036,-14,14,7,-476,-628,152,552
,532,2023-10-27 10:40:16.80,-195,-253,-2036,-14,20,9,-647,-742,95,694
,533,2023-10-27 10:40:16.81,-189,-247,-2040,-16,29,12,-477,-661,184,569
,534,2023-10-27 10:40:16.82,-182,-248,-2050,-6,27,18,-656,-720,64,688
,535,2023-10-27 10:40:16.83,-192,-248,-2057,2,19,19,-481,-660,179,570
,536,2023-10-27 10:40:16.84,-194,-246,-2054,9,9,22,-650,-778,128,714
,537,2023-10-27 10:40:16.85,-183,-238,-2048,11,-6,28,-474,-653,179,563
,538,2023-10-27 10:40:16.86,-180,-235,-2030,14,-12,28,-645,-651,6,648
,539,2023-10-27 10:40:16.87,-188,-225,-2035,16,-15,28,-471,-585,114,528
,540,2023-10-27 10:40:16.88,-195,-232,-2019,15,-21,32,-639,-708,69,673
,541,2023-10-27 10:40:16.89,-197,-249,-2010,11,-21,35,-480,-672,192,576
,542,2023-10-27 10:40:16.90,-190,-247,-2007,5,-17,38,-652,-782,130,717
,543,2023-10-27 10:40:16.91,-199,-253,-2007,4,-21,38,-483,-692,209,587
,544,2023-10-27 10:40:16.92,-195,-260,-2017,4,-22,38,-642,-743,101,692
,545,2023-10-27 10:40:16.93,-202,-257,-2017,6,-23,42,-471,-656,185,563
,546,2023-10-27 10:40:16.94,-201,-253,-2015,3,-15,45,-633,-729,96,681
,547,2023-10-27 10:40:16.95,-211,-242,-2020,7,-18,49,-474,-652,178,563
,548,2023-10-27 10:40:16.96,-203,-241,-2019,8,-17,58,-639,-723,84,681
,549,2023-10-27 10:40:16.97,-206,-240,-2030,6,-21,62,-481,-646,165,563
,550,2023-10-27 10:40:16.98,-218,-232,-2052,5,-21,65,-642,-711,69,676
,551,2023-10-27 10:40:16.99,-215,-231,-2054,0,-22,67,-486,-651,165,568
,552,2023-10-27 10:40:17.00,-218,-227,-2053,-4,-24,66,-645,-741,96,693
,553,2023-10-27 10:40:17.01,-230,-227,-2049,-13,-29,71,-489,-688,199,588
,554,2023-10-27 10:40:17.02,-240,-231,-2054,-18,-29,72,-646,-770,124,708
,555,2023-10-27 10:40:17.03,-226,-234,-2047,-25,-25,74,-486,-707,221,596
,556,2023-10-27 10:40:17.04,-226,-230,-2035,-28,-18,74,-639,-780,141,709
,557,2023-10-27 10:40:17.05,-218,-222,-2031,-27,-10,70,-494,-728,234,611
,558,2023-10-27 10:40:17.06,-202,-226,-2017,-25,6,67,-645,-804,159,724
,559,2023-10-27 10:40:17.07,-213,-219,-2026,-17,22,62,-497,-719,222,608
,560,2023-10-27 10:40:17.08,-209,-220,-2011,-6,35,54,-641,-768,127,704
,561,2023-10-27 10:40:17.09,-200,-231,-2022,4,40,48,-508,-685,177,596
,562,2023-10-27 10:40:17.10,-202,-230,-2025,13,42,44,-644,-738,94,691
,563,2023-10-27 10:40:17.11,-207,-238,-2025,25,43,43,-512,-652,140,582
,564,2023-10-27 10:40:17.12,-203,-237,-2016,34,41,40,-646,-703,57,674
,565,2023-10-27 10:40:17.13,-204,-239,-2018,43,41,36,-511,-693,182,602
,566,2023-10-27 10:40:17.14,-196,-230,-2004,50,38,34,-638,-792,154,715
,567,2023-10-27 10:40:17.15,-185,-225,-2010,53,31,37,-506,-755,249,630
,568,2023-10-27 10:40:17.16,-180,-235,-2011,53,30,39,-630,-802,172,716
,569,2023-10-27 10:40:17.17,-185,-226,-2001,51,28,44,-507,-735,228,621
,570,2023-10-27 10:40:17.18,-152,-220,-2022,43,31,41,-628,-766,138,697
,571,2023-10-27 10:40:17.19,-169,-232,-2028,34,35,44,-512,-683,171,597
,572,2023-10-27 10:40:17.20,-174,-231,-2037,27,37,43,-632,-710,78,671
,573,2023-10-27 10:40:17.21,-163,-239,-2045,18,44,40,-516,-683,167,599
,574,2023-10-27 10:40:17.22,-164,-235,-2054,14,27,39,-626,-751,125,688
,575,2023-10-27 10:40:17.23,-173,-239,-2050,19,19,39,-516,-725,209,620
,576,2023-10-27 10:40:17.24,-168,-236,-2063,20,5,39,-623,-775,152,699
,577,2023-10-27 10:40:17.25,-168,-234,-2068,21,-3,41,-515,-728,213,621
,578,2023-10-27 10:40:17.26,-169,-233,-2058,18,-9,41,-618,-762,144,690
,579,2023-10-27 10:40:17.27,-169,-223,-2045,16,-15,44,-514,-707,193,610
,580,2023-10-27 10:40:17.28,-176,-220,-2039,7,-18,42,-614,-738,124,676
,581,2023-10-27 10:40:17.29,-186,-239,-2034,-2,-22,48,-525,-685,160,605
,582,2023-10-27 10:40:17.30,-180,-231,-2035,-8,-21,50,-618,-719,101,668
,583,2023-10-27 10:40:17.31,-194,-240,-2042,-12,-21,52,-534,-667,133,600
,584,2023-10-27 10:40:17.32,-175,-240,-2042,-15,-23,56,-615,-693,78,654
,585,2023-10-27 10:40:17.33,-191,-226,-2030,-17,-30,55,-538,-647,109,592
,586,2023-10-27 10:40:17.34,-185,-223,-2040,-15,-25,58,-609,-679,70,644
,587,2023-10-27 10:40:17.35,-192,-212,-2042,-20,-30,61,-524,-705,181,614
,588,2023-10-27 10:40:17.36,-191,-213,-2044,-23,-23,55,-589,-765,176,677
,589,2023-10-27 10:40:17.37,-209,-218,-2046,-19,-16,56,-534,-758,224,646
,590,2023-10-27 10:40:17.38,-197,-197,-2050,-12,-24,59,-607,-773,166,690
,591,2023-10-27 10:40:17.39,-195,-189,-2052,-9,-33,52,-546,-742,196,644
,592,2023-10-27 10:40:17.40,-215,-209,-2051,-17,-28,45,-596,-753,157,674
,593,2023-10-27 10:40:17.41,-199,-208,-2046,-14,-32,40,-532,-730,198,631
,594,2023-10-27 10:40:17.42,-196,-176,-2023,-3,-33,30,-582,-740,158,661
,595,2023-10-27 10:40:17.43,-186,-186,-2029,-3,-30,17,-538,-732,194,635
,596,2023-10-27 10:40:17.44,-183,-189,-2034,-3,-14,10,-589,-754,165,671
,597,2023-10-27 10:40:17.45,-179,-204,-2011,3,-19,2,-557,-745,188,651
,598,2023-10-27 10:40:17.46,-204,-219,-2021,15,-12,-6,-592,-752,160,672
,599,2023-10-27 10:40:17.47,-196,-229,-2020,28,-17,-12,-553,-688,135,620
,600,2023-10-27 10:40:17.48,-192,-228,-2021,43,-15,-12,-579,-684,105,631
,601,2023-10-27 10:40:17.49,-194,-219,-2029,55,-21,-15,-556,-696,140,626
,602,2023-10-27 10:40:17.50,-194,-222,-2021,69,-22,-12,-582,-730,148,656
,603,2023-10-27 10:40:17.51,-189,-232,-2019,70,-26,-7,-554,-695,141,624
,604,2023-10-27 10:40:17.52,-194,-230,-2025,64,-17,-3,-570,-677,107,623
,605,2023-10-27 10:40:17.53,-195,-244,-2016,62,-15,4,-569,-648,79,608
,606,2023-10-27 10:40:17.54,-196,-256,-2041,56,-9,13,-580,-666,86,623
,607,2023-10-27 10:40:17.55,-197,-258,-2033,48,-5,23,-577,-673,96,625
,608,2023-10-27 10:40:17.56,-203,-259,-2039,43,-11,30,-571,-690,119,630
,609,2023-10-27 10:40:17.57,-201,-255,-2045,39,-19,40,-576,-674,98,625
,610,2023-10-27 10:40:17.58,-212,-248,-2044,32,-32,48,-566,-677,111,621
,611,2023-10-27 10:40:17.59,-214,-239,-2040,30,-34,51,-582,-729,147,655
,612,2023-10-27 10:40:17.60,-220,-238,-2029,26,-34,64,-566,-739,173,652
,613,2023-10-27 10:40:17.61,-213,-263,-2033,28,-32,65,-580,-758,178,669
,614,2023-10-27 10:40:17.62,-214,-217,-2027,24,-28,57,-559,-742,183,650
,615,2023-10-27 10:40:17.63,-226,-250,-2041,17,-26,53,-588,-755,167,671
,616,2023-10-27 10:40:17.64,-234,-241,-2031,18,-27,50,-559,-738,179,648
,617,2023-10-27 10:40:17.65,-235,-237,-2052,20,-24,45,-588,-764,176,676
,618,2023-10-27 10:40:17.66,-248,-227,-2029,14,-25,40,-548,-742,194,645
,619,2023-10-27 10:40:17.67,-233,-232,-2022,10,-30,35,-594,-758,164,676
,620,2023-10-27 10:40:17.68,-237,-223,-2028,9,-19,27,-548,-724,176,636
,621,2023-10-27 10:40:17.69,-247,-226,-2024,1,-14,22,-597,-747,150,672
,622,2023-10-27 10:40:17.70,-218,-232,-2016,0,-8,14,-547,-716,169,631
,623,2023-10-27 10:40:17.71,-233,-217,-2005,0,-2,10,-605,-720,115,662
,624,2023-10-27 10:40:17.72,-240,-247,-2005,3,0,5,-546,-689,143,617
,625,2023-10-27 10:40:17.73,-239,-243,-2015,10,6,5,-599,-719,120,659
,626,2023-10-27 10:40:17.74,-246,-240,-2015,17,7,3,-535,-697,162,616
,627,2023-10-27 10:40:17.75,-244,-250,-2017,23,12,-2,-602,-725,123,663
,628,2023-10-27 10:40:17.76,-228,-234,-2012,23,18,-2,-530,-698,168,614
,629,2023-10-27 10:40:17.77,-222,-225,-2024,15,27,-6,-606,-742,136,674
,630,2023-10-27 10:40:17.78,-228,-242,-2033,13,35,-15,-526,-703,177,614
,631,2023-10-27 10:40:17.79,-223,-231,-2041,12,33,-20,-609,-701,92,655
,632,2023-10-27 10:40:17.80,-205,-235,-2043,13,29,-22,-528,-659,131,593
,633,2023-10-27 10:40:17.81,-217,-237,-2047,13,19,-23,-620,-723,103,671
,634,2023-10-27 10:40:17.82,-220,-245,-2043,15,13,-27,-529,-702,173,615
,635,2023-10-27 10:40:17.83,-214,-247,-2051,20,1,-27,-617,-750,133,683
,636,2023-10-27 10:40:17.84,-218,-247,-2048,22,-7,-20,-522,-703,181,612
,637,2023-10-27 10:40:17.85,-205,-249,-2037,21,-10,-16,-619,-731,112,675
,638,2023-10-27 10:40:17.86,-208,-245,-2030,20,-8,-10,-515,-688,173,601
,639,2023-10-27 10:40:17.87,-214,-248,-2022,21,-5,0,-604,-768,164,686
,640,2023-10-27 10:40:17.88,-216,-255,-2020,22,-2,7,-496,-727,231,611
,641,2023-10-27 10:40:17.89,-221,-251,-2024,21,0,13,-615,-783,168,699
,642,2023-10-27 10:40:17.90,-210,-247,-2030,25,4,19,-514,-726,212,620
,643,2023-10-27 10:40:17.91,-220,-247,-2018,25,5,18,-645,-801,156,723
,644,2023-10-27 10:40:17.92,-217,-254,-2020,25,5,20,-513,-722,209,617
,645,2023-10-27 10:40:17.93,-227,-247,-2025,26,5,22,-624,-741,117,682
,646,2023-10-27 10:40:17.94,-226,-246,-2030,23,7,21,-494,-669,175,581
,647,2023-10-27 10:40:17.95,-228,-242,-2028,17,8,18,-621,-753,132,687
,648,2023-10-27 10:40:17.96,-228,-242,-2029,14,8,15,-498,-704,206,601
,649,2023-10-27 10:40:17.97,-240,-246,-2024,12,11,14,-632,-777,145,704
,650,2023-10-27 10:40:17.98,-221,-253,-2022,11,11,11,-496,-708,212,602
,651,2023-10-27 10:40:17.99,-227,-248,-2032,11,11,12,-625,-779,154,702
,652,2023-10-27 10:40:18.00,-231,-245,-2021,7,10,13,-492,-714,222,603
,653,2023-10-27 10:40:18.01,-220,-254,-2027,8,7,10,-624,-776,152,700
,654,2023-10-27 10:40:18.02,-225,-247,-2028,5,10,10,-491,-710,219,600
,655,2023-10-27 10:40:18.03,-214,-243,-2026,2,14,11,-637,-795,158,716
,656,2023-10-27 10:40:18.04,-212,-245,-2028,0,15,13,-494,-722,228,608
,657,2023-10-27 10:40:18.05,-210,-246,-2030,-3,14,12,-638,-785,147,711
,658,2023-10-27 10:40:18.06,-206,-246,-2030,-3,12,12,-493,-706,213,599
,659,2023-10-27 10:40:18.07,-218,-245,-2033,-4,10,12,-640,-775,135,707
,660,2023-10-27 10:40:18.08,-216,-239,-2027,-2,10,10,-482,-689,207,585
,661,2023-10-27 10:40:18.09,-214,-237,-2012,-3,8,11,-631,-729,98,680
,662,2023-10-27 10:40:18.10,-203,-247,-2018,-4,10,14,-478,-652,174,565
,663,2023-10-27 10:40:18.11,-215,-252,-2029,0,10,16,-639,-756,117,697
,664,2023-10-27 10:40:18.12,-218,-247,-2037,2,11,18,-484,-701,217,592
,665,2023-10-27 10:40:18.13,-206,-239,-2044,0,11,17,-640,-802,162,721
,666,2023-10-27 10:40:18.14,-214,-233,-2046,-5,13,12,-485,-705,220,595
,667,2023-10-27 10:40:18.15,-208,-236,-2039,-9,15,10,-648,-752,104,700
,668,2023-10-27 10:40:18.16,-211,-242,-2038,-16,14,9,-487,-678,191,582
,669,2023-10-27 10:40:18.17,-216,-247,-2032,-15,15,10,-648,-795,147,721
,670,2023-10-27 10:40:18.18,-218,-251,-2037,-13,14,15,-485,-726,241,605
,671,2023-10-27 10:40:18.19,-217,-256,-2028,-9,10,16,-643,-808,165,725
,672,2023-10-27 10:40:18.20,-217,-238,-2026,-9,5,19,-478,-706,228,592
,673,2023-10-27 10:40:18.21,-213,-239,-2031,-5,1,22,-644,-759,115,701
,674,2023-10-27 10:40:18.22,-216,-227,-2039,-4,5,26,-479,-672,193,575
,675,2023-10-27 10:40:18.23,-205,-213,-2036,-5,12,23,-644,-752,108,698
,676,2023-10-27 10:40:18.24,-210,-215,-2039,-7,11,19,-477,-649,172,563
,677,2023-10-27 10:40:18.25,-206,-203,-2025,-9,17,14,-646,-659,13,652
,678,2023-10-27 10:40:18.26,-207,-209,-2035,-7,23,6,-478,-579,101,528
,679,2023-10-27 10:40:18.27,-220,-226,-2044,-5,24,-4,-650,-681,31,665
,680,2023-10-27 10:40:18.28,-215,-217,-2041,1,16,-7,-479,-640,161,559
,681,2023-10-27 10:40:18.29,-227,-234,-2033,7,6,-15,-649,-754,105,701
,682,2023-10-27 10:40:18.30,-207,-241,-2026,14,0,-14,-482,-680,198,581
,683,2023-10-27 10:40:18.31,-209,-241,-2023,19,-4,-15,-655,-755,100,705
,684,2023-10-27 10:40:18.32,-223,-239,-2023,21,1,-11,-495,-669,174,582
,685,2023-10-27 10:40:18.33,-208,-237,-2015,22,8,-7,-661,-742,81,701
,686,2023-10-27 10:40:18.34,-213,-241,-2019,19,19,-1,-483,-646,163,564
,687,2023-10-27 10:40:18.35,-208,-245,-2024,22,27,7,-648,-674,26,661
,688,2023-10-27 10:40:18.36,-200,-248,-2030,25,26,14,-479,-590,111,534
,689,2023-10-27 10:40:18.37,-212,-248,-2030,23,23,22,-650,-694,44,672
,690,2023-10-27 10:40:18.38,-205,-250,-2025,22,21,26,-492,-661,169,576
,691,2023-10-27 10:40:18.39,-188,-244,-2036,24,22,29,-660,-775,115,717
,692,2023-10-27 10:40:18.40,-198,-244,-2035,22,22,27,-481,-680,199,580
,693,2023-10-27 10:40:18.41,-204,-232,-2043,19,19,29,-642,-710,68,676
,694,2023-10-27 10:40:18.42,-207,-236,-2041,16,6,30,-479,-645,166,562
,695,2023-10-27 10:40:18.43,-210,-240,-2044,20,2,24,-653,-767,114,710
,696,2023-10-27 10:40:18.44,-204,-242,-2026,14,-5,20,-488,-686,198,587
,697,2023-10-27 10:40:18.45,-206,-241,-2023,9,-13,15,-653,-737,84,695
,698,2023-10-27 10:40:18.46,-211,-244,-2020,3,-5,16,-489,-628,139,558
,699,2023-10-27 10:40:18.47,-207,-251,-2021,6,4,17,-658,-682,24,670
,700,2023-10-27 10:40:18.48,-216,-249,-2019,9,6,16,-494,-598,104,546
,701,2023-10-27 10:40:18.49,-208,-252,-2024,12,-1,15,-654,-657,3,655
,702,2023-10-27 10:40:18.50,-218,-245,-2032,14,-4,15,-484,-595,111,539
,703,2023-10-27 10:40:18.51,-205,-238,-2032,8,0,14,-642,-689,47,665
,704,2023-10-27 10:40:18.52,-207,-237,-2041,5,8,14,-492,-656,164,574
,705,2023-10-27 10:40:18.53,-218,-237,-2046,-1,19,11,-651,-770,119,710
,706,2023-10-27 10:40:18.54,-216,-234,-2042,-4,19,12,-498,-723,225,610
,707,2023-10-27 10:40:18.55,-219,-240,-2043,-4,15,10,-650,-808,158,729
,708,2023-10-27 10:40:18.56,-202,-243,-2035,-5,5,7,-506,-715,209,610
,709,2023-10-27 10:40:18.57,-209,-241,-2025,-4,5,5,-656,-764,108,710
,710,2023-10-27 10:40:18.58,-203,-247,-2026,3,7,4,-504,-657,153,580
,711,2023-10-27 10:40:18.59,-203,-233,-2025,5,15,4,-648,-700,52,674
,712,2023-10-27 10:40:18.60,-185,-237,-2028,8,15,9,-508,-664,156,586
,713,2023-10-27 10:40:18.61,-201,-229,-2035,11,13,9,-650,-765,115,707
,714,2023-10-27 10:40:18.62,-213,-230,-2040,14,9,13,-508,-678,170,593
,715,2023-10-27 10:40:18.63,-208,-234,-2036,18,4,11,-644,-710,66,677
,716,2023-10-27 10:40:18.64,-208,-236,-2033,17,6,9,-503,-625,122,564
,717,2023-10-27 10:40:18.65,-203,-244,-2027,14,4,7,-641,-666,25,653
,718,2023-10-27 10:40:18.66,-203,-239,-2028,18,4,2,-507,-613,106,560
,719,2023-10-27 10:40:18.67,-207,-234,-2028,18,3,-2,-644,-695,51,669
,720,2023-10-27 10:40:18.68,-203,-248,-2025,16,0,-1,-519,-676,157,597
,721,2023-10-27 10:40:18.69,-206,-242,-2037,21,-1,2,-653,-765,112,709
,722,2023-10-27 10:40:18.70,-205,-249,-2031,19,-6,10,-510,-676,166,593
,723,2023-10-27 10:40:18.71,-205,-250,-2024,19,-2,12,-635,-707,72,671
,724,2023-10-27 10:40:18.72,-219,-250,-2029,18,0,19,-519,-637,118,578
,725,2023-10-27 10:40:18.73,-199,-252,-2022,17,0,20,-647,-707,60,677
,726,2023-10-27 10:40:18.74,-203,-251,-2023,15,6,24,-528,-641,113,584
,727,2023-10-27 10:40:18.75,-204,-254,-2024,14,10,29,-639,-687,48,663
,728,2023-10-27 10:40:18.76,-208,-258,-2027,17,16,34,-524,-660,136,592
,729,2023-10-27 10:40:18.77,-215,-248,-2032,18,14,36,-625,-716,91,670
,730,2023-10-27 10:40:18.78,-206,-247,-2027,21,13,33,-531,-627,96,579
,731,2023-10-27 10:40:18.79,-209,-249,-2031,23,9,30,-637,-620,-17,628
,732,2023-10-27 10:40:18.80,-211,-250,-2037,20,9,28,-537,-588,51,562
,733,2023-10-27 10:40:18.81,-208,-244,-2033,17,11,27,-630,-677,47,653
,734,2023-10-27 10:40:18.82,-203,-247,-2037,11,13,26,-533,-671,138,602
,735,2023-10-27 10:40:18.83,-209,-251,-2033,11,11,24,-624,-721,97,672
,736,2023-10-27 10:40:18.84,-209,-252,-2032,10,9,20,-538,-673,135,605
,737,2023-10-27 10:40:18.85,-209,-248,-2025,7,3,15,-626,-709,83,667
,738,2023-10-27 10:40:18.86,-207,-240,-2024,5,1,11,-539,-661,122,600
,739,2023-10-27 10:40:18.87,-193,-241,-2023,3,6,5,-617,-693,76,655
,740,2023-10-27 10:40:18.88,-209,-231,-2023,4,7,0,-534,-702,168,618
,741,2023-10-27 10:40:18.89,-203,-231,-2029,0,11,-3,-609,-758,149,683
,742,2023-10-27 10:40:18.90,-202,-233,-2037,-1,12,-11,-542,-710,168,626
,743,2023-10-27 10:40:18.91,-208,-242,-2023,2,9,-14,-609,-720,111,664
,744,2023-10-27 10:40:18.92,-210,-235,-2031,9,8,-17,-554,-692,138,623
,745,2023-10-27 10:40:18.93,-201,-234,-2033,12,3,-20,-611,-723,112,667
,746,2023-10-27 10:40:18.94,-195,-246,-2022,17,7,-24,-554,-701,147,627
,747,2023-10-27 10:40:18.95,-195,-245,-2012,17,10,-22,-600,-721,121,660
,748,2023-10-27 10:40:18.96,-207,-251,-2013,14,17,-23,-555,-703,148,629
,749,2023-10-27 10:40:18.97,-191,-262,-2034,11,25,-19,-599,-724,125,661
,750,2023-10-27 10:40:18.98,-190,-248,-2031,5,40,-22,-571,-699,128,635
,751,2023-10-27 10:40:18.99,-203,-259,-2036,-5,51,-19,-608,-711,103,659
,752,2023-10-27 10:40:19.00,-185,-249,-2055,-18,64,-15,-561,-698,137,629
,753,2023-10-27 10:40:19.01,-194,-238,-2043,-13,59,-11,-586,-718,132,652
,754,2023-10-27 10:40:19.02,-195,-260,-2048,-5,56,-5,-556,-741,185,648
,755,2023-10-27 10:40:19.03,-208,-226,-2038,0,47,-5,-584,-764,180,674
,756,2023-10-27 10:40:19.04,-185,-224,-2024,5,38,-6,-573,-748,175,660
,757,2023-10-27 10:40:19.05,-190,-260,-2033,14,33,-6,-591,-738,147,664
,758,2023-10-27 10:40:19.06,-190,-239,-2037,17,23,-5,-573,-718,145,645
,759,2023-10-27 10:40:19.07,-197,-230,-2035,17,19,-9,-578,-717,139,647
,760,2023-10-27 10:40:19.08,-192,-225,-2026,5,25,-11,-574,-685,111,629
,761,2023-10-27 10:40:19.09,-193,-213,-2033,-16,31,-10,-576,-685,109,630
,762,2023-10-27 10:40:19.10,-198,-245,-2048,-31,39,-15,-581,-716,135,648
,763,2023-10-27 10:40:19.11,-201,-248,-2046,-36,32,-6,-565,-731,166,648
,764,2023-10-27 10:40:19.12,-210,-235,-2059,-28,12,1,-579,-741,162,660
,765,2023-10-27 10:40:19.13,-202,-232,-2056,-28,-2,-8,-562,-729,167,645
,766,2023-10-27 10:40:19.14,-207,-231,-2055,-29,-9,-7,-583,-732,149,657
,767,2023-10-27 10:40:19.15,-212,-215,-2054,-36,-9,-12,-554,-710,156,632
,768,2023-10-27 10:40:19.16,-190,-213,-2049,-43,-5,-18,-579,-750,171,664
,769,2023-10-27 10:40:19.17,-196,-208,-2045,-51,-3,-27,-554,-751,197,652
,770,2023-10-27 10:40:19.18,-190,-205,-2044,-55,-1,-37,-584,-791,207,687
,771,2023-10-27 10:40:19.19,-198,-213,-2034,-52,1,-49,-554,-768,214,661
,772,2023-10-27 10:40:19.20,-200,-227,-2036,-52,1,-57,-590,-779,189,684
,773,2023-10-27 10:40:19.21,-186,-219,-2026,-45,-2,-64,-553,-742,189,647
,774,2023-10-27 10:40:19.22,-187,-230,-2027,-41,-3,-73,-605,-776,171,690
,775,2023-10-27 10:40:19.23,-173,-237,-2030,-45,1,-86,-556,-744,188,650
,776,2023-10-27 10:40:19.24,-192,-245,-2008,-33,-4,-82,-600,-785,185,692
,777,2023-10-27 10:40:19.25,-189,-221,-2000,-18,-4,-81,-541,-750,209,645
,778,2023-10-27 10:40:19.26,-182,-248,-2025,-15,3,-77,-582,-766,184,674
,779,2023-10-27 10:40:19.27,-194,-275,-2033,-4,7,-70,-526,-723,197,624
,780,2023-10-27 10:40:19.28,-194,-248,-2032,12,4,-56,-593,-741,148,667
,781,2023-10-27 10:40:19.29,-187,-244,-2021,23,-3,-50,-530,-705,175,617
,782,2023-10-27 10:40:19.30,-191,-254,-2027,26,-9,-38,-603,-724,121,663
,783,2023-10-27 10:40:19.31,-187,-255,-2020,33,-10,-28,-530,-696,166,613
,784,2023-10-27 10:40:19.32,-189,-257,-2021,34,-7,-17,-603,-748,145,675
,785,2023-10-27 10:40:19.33,-181,-250,-2023,33,3,-5,-520,-714,194,617
,786,2023-10-27 10:40:19.34,-194,-196,-2021,16,20,5,-600,-709,109,654
,787,2023-10-27 10:40:19.35,-169,-252,-2035,8,34,7,-518,-666,148,592
,788,2023-10-27 10:40:19.36,-191,-257,-2052,6,35,24,-605,-736,131,670
,789,2023-10-27 10:40:19.37,-175,-237,-2041,9,29,31,-518,-711,193,614
,790,2023-10-27 10:40:19.38,-191,-248,-2048,9,22,38,-619,-750,131,684
,791,2023-10-27 10:40:19.39,-190,-244,-2043,5,12,49,-520,-699,179,609
,792,2023-10-27 10:40:19.40,-191,-234,-2051,1,8,54,-610,-726,116,668
,793,2023-10-27 10:40:19.41,-189,-209,-2035,-6,14,62,-509,-682,173,595
,794,2023-10-27 10:40:19.42,-188,-207,-2032,-14,14,63,-607,-745,138,676
,795,2023-10-27 10:40:19.43,-195,-205,-2043,-20,16,60,-505,-708,203,606
,796,2023-10-27 10:40:19.44,-207,-199,-2036,-21,12,52,-621,-775,154,698
,797,2023-10-27 10:40:19.45,-188,-195,-2042,-21,7,43,-514,-715,201,614
,798,2023-10-27 10:40:19.46,-192,-205,-2044,-20,4,30,-630,-706,76,668
,799,2023-10-27 10:40:19.47,-203,-196,-2041,-21,8,15,-511,-648,137,579
,800,2023-10-27 10:40:19.48,-194,-191,-2046,-27,13,1,-626,-734,108,680
,801,2023-10-27 10:40:19.49,-192,-206,-2037,-25,17,-10,-500,-692,192,596
,802,2023-10-27 10:40:19.50,-189,-213,-2049,-17,17,-20,-625,-706,81,665
,803,2023-10-27 10:40:19.51,-189,-221,-2045,-10,12,-25,-502,-636,134,569
,804,2023-10-27 10:40:19.52,-184,-231,-2040,2,9,-34,-628,-693,65,660
,805,2023-10-27 10:40:19.53,-179,-217,-2045,8,5,-38,-499,-669,170,584
,806,2023-10-27 10:40:19.54,-186,-224,-2038,10,4,-39,-629,-771,142,700
,807,2023-10-27 10:40:19.55,-182,-227,-2033,14,3,-30,-502,-719,217,610
,808,2023-10-27 10:40:19.56,-182,-228,-2022,16,-2,-26,-632,-764,132,698
,809,2023-10-27 10:40:19.57,-182,-233,-2017,18,-4,-17,-492,-686,194,589
,810,2023-10-27 10:40:19.58,-175,-237,-2021,18,-8,-8,-627,-740,113,683
,811,2023-10-27 10:40:19.59,-181,-232,-2025,18,-5,0,-490,-680,190,585
,812,2023-10-27 10:40:19.60,-187,-234,-2030,15,-5,5,-634,-754,120,694
,813,2023-10-27 10:40:19.61,-191,-234,-2028,10,-6,12,-494,-694,200,594
,814,2023-10-27 10:40:19.62,-183,-235,-2028,10,-4,17,-635,-764,129,699
,815,2023-10-27 10:40:19.63,-190,-237,-2034,11,-5,20,-489,-686,197,587
,816,2023-10-27 10:40:19.64,-198,-239,-2039,14,-5,30,-636,-729,93,682
,817,2023-10-27 10:40:19.65,-180,-238,-2023,18,-4,31,-484,-655,171,569
,818,2023-10-27 10:40:19.66,-191,-244,-2033,18,-8,35,-636,-728,92,682
,819,2023-10-27 10:40:19.67,-198,-244,-2026,20,-11,36,-484,-665,181,574
,820,2023-10-27 10:40:19.68,-188,-231,-2034,22,-9,33,-646,-749,103,697
,821,2023-10-27 10:40:19.69,-181,-226,-2034,22,-2,31,-488,-684,196,586
,822,2023-10-27 10:40:19.70,-184,-225,-2040,22,-2,30,-647,-761,114,704
,823,2023-10-27 10:40:19.71,-197,-222,-2047,17,1,31,-483,-692,209,587
,824,2023-10-27 10:40:19.72,-204,-222,-2053,11,-1,29,-646,-793,147,719
,825,2023-10-27 10:40:19.73,-205,-235,-2051,6,-9,32,-486,-715,229,600
,826,2023-10-27 10:40:19.74,-209,-238,-2046,-1,-19,36,-654,-796,142,725
,827,2023-10-27 10:40:19.75,-200,-220,-2048,-11,-25,41,-486,-708,222,597
,828,2023-10-27 10:40:19.76,-199,-227,-2052,-24,-22,43,-646,-791,145,718
,829,2023-10-27 10:40:19.77,-217,-209,-2046,-31,-22,43,-480,-704,224,592
,830,2023-10-27 10:40:19.78,-204,-203,-2041,-36,-22,40,-647,-785,138,716
,831,2023-10-27 10:40:19.79,-211,-210,-2049,-41,-21,39,-478,-696,218,587
,832,2023-10-27 10:40:19.80,-216,-215,-2037,-40,-24,37,-643,-765,122,704
,833,2023-10-27 10:40:19.81,-202,-218,-2025,-29,-27,33,-473,-674,201,573
,834,2023-10-27 10:40:19.82,-202,-214,-2013,-20,-23,21,-637,-760,123,698
,835,2023-10-27 10:40:19.83,-193,-211,-2019,-9,-14,21,-474,-681,207,577
,836,2023-10-27 10:40:19.84,-193,-204,-2009,-6,-8,15,-652,-767,115,709
,837,2023-10-27 10:40:19.85,-185,-203,-2008,0,4,5,-486,-666,180,576
,838,2023-10-27 10:40:19.86,-178,-221,-2014,0,14,-3,-656,-719,63,687
,839,2023-10-27 10:40:19.87,-177,-214,-2013,7,21,-11,-488,-656,168,572
,840,2023-10-27 10:40:19.88,-177,-214,-2013,17,24,-19,-664,-784,120,724
,841,2023-10-27 10:40:19.89,-173,-212,-2008,26,18,-30,-487,-712,225,599
,842,2023-10-27 10:40:19.90,-178,-208,-2007,25,13,-33,-654,-789,135,721
,843,2023-10-27 10:40:19.91,-172,-224,-2007,22,5,-26,-482,-672,190,577
,844,2023-10-27 10:40:19.92,-189,-247,-2022,19,-3,-17,-652,-713,61,682
,845,2023-10-27 10:40:19.93,-181,-250,-2036,16,-6,-7,-478,-624,146,551
,846,2023-10-27 10:40:19.94,-182,-249,-2043,10,-3,8,-660,-727,67,693
,847,2023-10-27 10:40:19.95,-178,-252,-2047,6,-7,22,-488,-666,178,577
,848,2023-10-27 10:40:19.96,-173,-249,-2048,-3,-6,34,-663,-770,107,716
,849,2023-10-27 10:40:19.97,-168,-235,-2051,-8,-1,45,-487,-680,193,583
,850,2023-10-27 10:40:19.98,-184,-239,-2053,-7,-3,56,-647,-749,102,698
,851,2023-10-27 10:40:19.99,-176,-234,-2055,-6,-5,66,-478,-634,156,556
,852,2023-10-27 10:40:20.00,-187,-220,-2064,-2,-11,76,-649,-668,19,658
,853,2023-10-27 10:40:20.01,-169,-216,-2068,-2,-14,81,-485,-589,104,537
,854,2023-10-27 10:40:20.02,-190,-211,-2060,0,-23,86,-655,-663,8,659
,855,2023-10-27 10:40:20.03,-196,-186,-2052,-3,-31,86,-484,-610,126,547
,856,2023-10-27 10:40:20.04,-197,-200,-2043,-7,-36,87,-647,-704,57,675
,857,2023-10-27 10:40:20.05,-199,-229,-2036,-1,-39,89,-487,-632,145,559
,858,2023-10-27 10:40:20.06,-217,-193,-2046,5,-40,88,-648,-674,26,661
,859,2023-10-27 10:40:20.07,-211,-172,-2029,8,-44,73,-491,-638,147,564
,860,2023-10-27 10:40:20.08,-226,-185,-2033,-5,-44,60,-650,-776,126,713
,861,2023-10-27 10:40:20.09,-221,-194,-2027,-15,-45,52,-493,-734,241,613
,862,2023-10-27 10:40:20.10,-229,-199,-2019,-20,-31,43,-649,-806,157,727
,863,2023-10-27 10:40:20.11,-232,-195,-2020,-18,-21,40,-494,-701,207,597
,864,2023-10-27 10:40:20.12,-214,-181,-2009,-20,-5,32,-648,-743,95,695
,865,2023-10-27 10:40:20.13,-202,-201,-2027,-22,17,25,-500,-687,187,593
,866,2023-10-27 10:40:20.14,-220,-193,-2026,-21,26,14,-647,-781,134,714
,867,2023-10-27 10:40:20.15,-198,-201,-2025,-10,25,6,-501,-723,222,612
,868,2023-10-27 10:40:20.16,-205,-201,-2031,-5,26,0,-647,-793,146,720
,869,2023-10-27 10:40:20.17,-194,-203,-2021,3,28,-5,-499,-721,222,610
,870,2023-10-27 10:40:20.18,-200,-195,-2037,11,27,-10,-641,-779,138,710
,871,2023-10-27 10:40:20.19,-201,-191,-2041,18,17,-10,-500,-676,176,588
,872,2023-10-27 10:40:20.20,-207,-189,-2050,21,14,-15,-641,-710,69,675
,873,2023-10-27 10:40:20.21,-195,-197,-2033,26,9,-15,-500,-650,150,575
,874,2023-10-27 10:40:20.22,-200,-196,-2035,28,5,-16,-636,-724,88,680
,875,2023-10-27 10:40:20.23,-198,-200,-2028,28,-1,-19,-509,-670,161,589
,876,2023-10-27 10:40:20.24,-193,-204,-2024,31,-2,-22,-645,-722,77,683
,877,2023-10-27 10:40:20.25,-198,-212,-2034,30,-4,-21,-518,-672,154,595
,878,2023-10-27 10:40:20.26,-194,-218,-2026,29,-11,-20,-648,-745,97,696
,879,2023-10-27 10:40:20.27,-192,-218,-2031,30,-11,-17,-517,-674,157,595
,880,2023-10-27 10:40:20.28,-196,-223,-2037,33,-10,-15,-630,-714,84,672
,881,2023-10-27 10:40:20.29,-215,-219,-2045,36,-14,-11,-507,-693,186,600
,882,2023-10-27 10:40:20.30,-209,-216,-2042,37,-20,-6,-629,-775,146,702
,883,2023-10-27 10:40:20.31,-209,-216,-2055,37,-22,-3,-520,-734,214,627
,884,2023-10-27 10:40:20.32,-211,-220,-2054,30,-22,0,-632,-768,136,700
,885,2023-10-27 10:40:20.33,-211,-223,-2045,25,-23,3,-526,-692,166,609
,886,2023-10-27 10:40:20.34,-225,-228,-2048,20,-29,13,-628,-717,89,672
,887,2023-10-27 10:40:20.35,-215,-236,-2029,22,-30,23,-531,-681,150,606
,888,2023-10-27 10:40:20.36,-223,-223,-2026,23,-22,28,-633,-733,100,683
,889,2023-10-27 10:40:20.37,-220,-228,-2020,21,-18,33,-537,-675,138,606
,890,2023-10-27 10:40:20.38,-214,-230,-2020,23,-8,37,-624,-696,72,660
,891,2023-10-27 10:40:20.39,-237,-227,-2009,23,5,39,-534,-614,80,574
,892,2023-10-27 10:40:20.40,-232,-225,-2015,23,12,37,-632,-629,-3,630
,893,2023-10-27 10:40:20.41,-225,-219,-2023,23,11,36,-549,-622,73,585
,894,2023-10-27 10:40:20.42,-222,-210,-2030,30,8,35,-627,-706,79,666
,895,2023-10-27 10:40:20.43,-210,-218,-2019,29,9,31,-540,-718,178,629
,896,2023-10-27 10:40:20.44,-219,-216,-2021,29,16,26,-615,-762,147,688
,897,2023-10-27 10:40:20.45,-205,-221,-2022,30,24,21,-542,-669,127,605
,898,2023-10-27 10:40:20.46,-204,-222,-2031,32,28,18,-613,-665,52,639
,899,2023-10-27 10:40:20.47,-219,-222,-2041,33,26,13,-540,-658,118,599
,900,2023-10-27 10:40:20.48,-207,-219,-2037,31,27,11,-602,-717,115,659
,901,2023-10-27 10:40:20.49,-203,-220,-2031,31,21,8,-546,-684,138,615
,902,2023-10-27 10:40:20.50,-202,-216,-2027,30,21,6,-611,-701,90,656
,903,2023-10-27 10:40:20.51,-205,-213,-2022,30,22,4,-560,-659,99,609
,904,2023-10-27 10:40:20.52,-198,-219,-2015,28,24,0,-605,-685,80,645
,905,2023-10-27 10:40:20.53,-204,-221,-2022,23,23,0,-553,-675,122,614
,906,2023-10-27 10:40:20.54,-204,-224,-2043,23,26,2,-595,-711,116,653
,907,2023-10-27 10:40:20.55,-208,-223,-2039,21,26,4,-554,-701,147,627
,908,2023-10-27 10:40:20.56,-211,-221,-2041,23,28,3,-595,-716,121,655
,909,2023-10-27 10:40:20.57,-209,-230,-2044,24,24,2,-562,-729,167,645
,910,2023-10-27 10:40:20.58,-203,-233,-2048,27,19,5,-594,-752,158,673
,911,2023-10-27 10:40:20.59,-209,-225,-2050,30,9,2,-564,-729,165,646
,912,2023-10-27 10:40:20.60,-193,-232,-2045,32,2,1,-593,-726,133,659
,913,2023-10-27 10:40:20.61,-198,-229,-2043,34,0,1,-574,-691,117,632
,914,2023-10-27 10:40:20.62,-214,-232,-2046,33,0,0,-589,-695,106,642
,915,2023-10-27 10:40:20.63,-193,-227,-2043,31,-4,2,-581,-699,118,640
,916,2023-10-27 10:40:20.64,-199,-235,-2041,27,-2,-1,-589,-715,126,652
,917,2023-10-27 10:40:20.65,-192,-225,-2033,29,-5,-3,-573,-752,179,662
,918,2023-10-27 10:40:20.66,-208,-234,-2032,28,-6,-3,-577,-765,188,671
,919,2023-10-27 10:40:20.67,-215,-241,-2038,29,-5,-3,-576,-759,183,667
,920,2023-10-27 10:40:20.68,-217,-244,-2030,31,-8,1,-573,-738,165,655
,921,2023-10-27 10:40:20.69,-220,-242,-2019,31,-7,4,-581,-731,150,656
,922,2023-10-27 10:40:20.70,-216,-240,-2022,31,-4,6,-572,-725,153,648
,923,2023-10-27 10:40:20.71,-212,-245,-2018,30,0,8,-588,-757,169,672
,924,2023-10-27 10:40:20.72,-215,-248,-2013,27,7,11,-568,-751,183,659
,925,2023-10-27 10:40:20.73,-215,-250,-2024,28,12,9,-586,-769,183,677
,926,2023-10-27 10:40:20.74,-209,-255,-2026,27,15,12,-559,-747,188,653
,927,2023-10-27 10:40:20.75,-219,-246,-2035,23,13,9,-577,-754,177,665
,928,2023-10-27 10:40:20.76,-213,-250,-2029,23,13,10,-553,-738,185,645
,929,2023-10-27 10:40:20.77,-205,-238,-2023,23,11,8,-585,-690,105,637
,930,2023-10-27 10:40:20.78,-192,-239,-2021,18,10,6,-551,-653,102,602
,931,2023-10-27 10:40:20.79,-205,-241,-2020,21,7,4,-595,-683,88,639
,932,2023-10-27 10:40:20.80,-202,-239,-2019,24,9,2,-553,-691,138,622
,933,2023-10-27 10:40:20.81,-199,-238,-2030,25,8,2,-606,-713,107,659
,934,2023-10-27 10:40:20.82,-200,-235,-2044,23,4,0,-551,-683,132,617
,935,2023-10-27 10:40:20.83,-202,-229,-2041,20,3,-3,-600,-657,57,628
,936,2023-10-27 10:40:20.84,-201,-227,-2029,15,1,-8,-541,-628,87,584
,937,2023-10-27 10:40:20.85,-205,-218,-2022,16,3,-15,-604,-691,87,647
,938,2023-10-27 10:40:20.86,-203,-219,-2025,12,7,-25,-541,-705,164,623
,939,2023-10-27 10:40:20.87,-186,-211,-2020,9,12,-39,-610,-766,156,688
,940,2023-10-27 10:40:20.88,-192,-194,-2006,10,13,-62,-536,-733,197,634
,941,2023-10-27 10:40:20.89,-172,-190,-2008,15,27,-93,-607,-757,150,682
,942,2023-10-27 10:40:20.90,-183,-179,-2006,10,44,-122,-534,-708,174,621
,943,2023-10-27 10:40:20.91,-178,-190,-2020,10,59,-147,-611,-694,83,652
,944,2023-10-27 10:40:20.92,-189,-175,-2039,13,66,-170,-530,-663,133,596
,945,2023-10-27 10:40:20.93,-169,-224,-2064,9,70,-190,-614,-726,112,670
,946,2023-10-27 10:40:20.94,-181,-239,-2052,16,61,-194,-524,-703,179,613
,947,2023-10-27 10:40:20.95,-168,-239,-2048,28,44,-198,-617,-742,125,679
,948,2023-10-27 10:40:20.96,-178,-227,-2040,31,30,-204,-526,-689,163,607
,949,2023-10-27 10:40:20.97,-184,-238,-2042,25,27,-207,-620,-665,45,642
,950,2023-10-27 10:40:20.98,-170,-236,-2049,22,18,-209,-515,-624,109,569
,951,2023-10-27 10:40:20.99,-192,-220,-2067,14,11,-215,-612,-727,115,669
,952,2023-10-27 10:40:21.00,-174,-240,-2052,6,0,-223,-511,-717,206,614
,953,2023-10-27 10:40:21.01,-206,-228,-2063,1,-7,-228,-615,-781,166,698
,954,2023-10-27 10:40:21.02,-189,-245,-2047,-6,-14,-235,-510,-717,207,613
,955,2023-10-27 10:40:21.03,-196,-249,-2043,-6,-24,-237,-627,-744,117,685
,956,2023-10-27 10:40:21.04,-203,-248,-2043,-11,-28,-240,-514,-688,174,601
,957,2023-10-27 10:40:21.05,-202,-253,-2035,-12,-33,-245,-638,-765,127,701
,958,2023-10-27 10:40:21.06,-201,-244,-2037,-8,-37,-251,-511,-715,204,613
,959,2023-10-27 10:40:21.07,-187,-241,-2029,-17,-25,-257,-623,-775,152,699
,960,2023-10-27 10:40:21.08,-198,-246,-2012,-19,-21,-265,-502,-702,200,602
,961,2023-10-27 10:40:21.09,-185,-239,-2020,-26,-8,-271,-633,-718,85,675
,962,2023-10-27 10:40:21.10,-177,-227,-2000,-35,6,-281,-499,-642,143,570
,963,2023-10-27 10:40:21.11,-184,-232,-1996,-40,18,-290,-629,-690,61,659
,964,2023-10-27 10:40:21.12,-168,-211,-2015,-46,34,-300,-495,-649,154,572
,965,2023-10-27 10:40:21.13,-166,-203,-2018,-51,35,-320,-632,-722,90,677
,966,2023-10-27 10:40:21.14,-183,-212,-2019,-58,49,-335,-493,-669,176,581
,967,2023-10-27 10:40:21.15,-148,-223,-2020,-66,55,-345,-634,-736,102,685
,968,2023-10-27 10:40:21.16,-154,-203,-2032,-69,58,-361,-484,-658,174,571
,969,2023-10-27 10:40:21.17,-141,-218,-2010,-74,70,-372,-628,-691,63,659
,970,2023-10-27 10:40:21.18,-133,-207,-2010,-82,71,-381,-480,-636,156,558
,971,2023-10-27 10:40:21.19,-143,-199,-1984,-91,94,-386,-633,-738,105,685
,972,2023-10-27 10:40:21.20,-124,-251,-2026,-80,100,-386,-483,-689,206,586
,973,2023-10-27 10:40:21.21,-151,-267,-2059,-74,104,-374,-635,-785,150,710
,974,2023-10-27 10:40:21.22,-144,-285,-2044,-57,97,-368,-487,-710,223,598
,975,2023-10-27 10:40:21.23,-154,-275,-2024,-32,94,-354,-632,-759,127,695
,976,2023-10-27 10:40:21.24,-153,-297,-2046,-6,78,-353,-479,-666,187,572
,977,2023-10-27 10:40:21.25,-147,-296,-2024,23,71,-338,-642,-730,88,686
,978,2023-10-27 10:40:21.26,-154,-300,-2062,40,74,-322,-481,-642,161,561
,979,2023-10-27 10:40:21.27,-148,-312,-2044,64,44,-309,-633,-675,42,654
,980,2023-10-27 10:40:21.28,-169,-292,-2054,93,25,-295,-472,-601,129,536
,981,2023-10-27 10:40:21.29,-180,-273,-2037,100,7,-290,-638,-688,50,663
,982,2023-10-27 10:40:21.30,-183,-307,-1977,103,-19,-284,-476,-633,157,554
,983,2023-10-27 10:40:21.31,-178,-283,-2024,94,-9,-276,-644,-714,70,679
,984,2023-10-27 10:40:21.32,-185,-291,-2015,80,-25,-275,-479,-641,162,560
,985,2023-10-27 10:40:21.33,-191,-296,-2032,66,-29,-276,-645,-702,57,673
,986,2023-10-27 10:40:21.34,-180,-300,-2024,58,-44,-277,-484,-640,156,562
,987,2023-10-27 10:40:21.35,-178,-303,-2024,42,-50,-277,-662,-740,78,701
,988,2023-10-27 10:40:21.36,-171,-287,-2041,25,-50,-278,-482,-643,161,562
,989,2023-10-27 10:40:21.37,-166,-304,-2025,-4,-34,-277,-638,-671,33,654
,990,2023-10-27 10:40:21.38,-161,-303,-2047,-20,-16,-273,-465,-606,141,535
,991,2023-10-27 10:40:21.39,-162,-299,-2071,-38,-17,-261,-640,-720,80,680
,992,2023-10-27 10:40:21.40,-154,-298,-2075,-60,-17,-246,-462,-650,188,556
,993,2023-10-27 10:40:21.41,-160,-295,-2046,-77,-23,-233,-631,-718,87,674
,994,2023-10-27 10:40:21.42,-162,-292,-2063,-94,-23,-212,-448,-618,170,533
,995,2023-10-27 10:40:21.43,-166,-300,-2080,-96,-38,-199,-616,-670,54,643
,996,2023-10-27 10:40:21.44,-166,-274,-2095,-102,-36,-186,-456,-586,130,521
,997,2023-10-27 10:40:21.45,-161,-274,-2070,-106,-66,-165,-641,-670,29,655
,998,2023-10-27 10:40:21.46,-177,-255,-2067,-100,-66,-150,-462,-619,157,540
,999,2023-10-27 10:40:21.47,-175,-260,-2046,-100,-80,-141,-636,-721,85,678
,1000,2023-10-27 10:40:21.48,-175,-258,-1977,-108,-73,-129,-466,-668,202,567
,1001,2023-10-27 10:40:21.49,-190,-251,-2004,-106,-62,-120,-646,-768,122,707
,1002,2023-10-27 10:40:21.50,-192,-256,-2002,-106,-63,-116,-486,-660,174,573
,1003,2023-10-27 10:40:21.51,-195,-276,-2008,-95,-60,-109,-660,-710,50,685
,1004,2023-10-27 10:40:21.52,-206,-278,-2012,-75,-76,-101,-480,-605,125,542
,1005,2023-10-27 10:40:21.53,-202,-262,-2014,-67,-76,-104,-646,-664,18,655
,1006,2023-10-27 10:40:21.54,-204,-250,-2022,-61,-61,-107,-474,-575,101,524
,1007,2023-10-27 10:40:21.55,-177,-223,-2019,-71,-39,-115,-644,-636,-8,640
,1008,2023-10-27 10:40:21.56,-183,-216,-2004,-85,-12,-123,-479,-564,85,521
,1009,2023-10-27 10:40:21.57,-177,-218,-2010,-101,24,-135,-648,-645,-3,646
,1010,2023-10-27 10:40:21.58,-169,-232,-2006,-105,52,-142,-486,-596,110,541
,1011,2023-10-27 10:40:21.59,-161,-227,-2028,-100,69,-143,-647,-684,37,665
,1012,2023-10-27 10:40:21.60,-161,-229,-2048,-98,78,-149,-482,-588,106,535
,1013,2023-10-27 10:40:21.61,-143,-230,-2046,-87,89,-143,-643,-625,-18,634
,1014,2023-10-27 10:40:21.62,-149,-214,-2051,-87,101,-140,-472,-554,82,513
,1015,2023-10-27 10:40:21.63,-125,-216,-2036,-81,103,-136,-632,-649,17,640
,1016,2023-10-27 10:40:21.64,-121,-207,-2018,-76,113,-134,-475,-584,109,529
,1017,2023-10-27 10:40:21.65,-114,-221,-2028,-62,112,-130,-638,-659,21,648
,1018,2023-10-27 10:40:21.66,-94,-203,-2027,-66,117,-130,-496,-630,134,563
,1019,2023-10-27 10:40:21.67,-85,-209,-2021,-77,131,-125,-644,-724,80,684
,1020,2023-10-27 10:40:21.68,-85,-203,-2024,-67,143,-115,-484,-634,150,559
,1021,2023-10-27 10:40:21.69,-78,-184,-2038,-65,154,-111,-640,-685,45,662
,1022,2023-10-27 10:40:21.70,-67,-193,-2024,-55,155,-110,-476,-599,123,537
,1023,2023-10-27 10:40:21.71,-63,-203,-2030,-37,142,-107,-625,-671,46,648
,1024,2023-10-27 10:40:21.72,-66,-206,-2047,-24,140,-105,-476,-615,139,545
,1025,2023-10-27 10:40:21.73,-70,-211,-2050,-13,129,-99,-632,-689,57,660
,1026,2023-10-27 10:40:21.74,-74,-216,-2062,-5,114,-89,-489,-605,116,547
,1027,2023-10-27 10:40:21.75,-75,-192,-2044,-1,108,-73,-638,-660,22,649
,1028,2023-10-27 10:40:21.76,-76,-251,-2058,7,81,-62,-488,-578,90,533
,1029,2023-10-27 10:40:21.77,-84,-245,-2062,23,62,-42,-624,-636,12,630
,1030,2023-10-27 10:40:21.78,-77,-239,-2072,30,51,-26,-487,-598,111,542
,1031,2023-10-27 10:40:21.79,-94,-238,-2082,33,32,-13,-633,-693,60,663
,1032,2023-10-27 10:40:21.80,-81,-224,-2075,20,29,-4,-489,-636,147,562
,1033,2023-10-27 10:40:21.81,-88,-206,-2074,13,8,5,-625,-698,73,661
,1034,2023-10-27 10:40:21.82,-103,-194,-2080,-5,5,9,-490,-616,126,553
,1035,2023-10-27 10:40:21.83,-103,-169,-2058,-37,-2,4,-625,-669,44,647
,1036,2023-10-27 10:40:21.84,-105,-182,-2066,-66,8,6,-494,-601,107,547
,1037,2023-10-27 10:40:21.85,-111,-204,-2065,-74,-4,7,-624,-656,32,640
,1038,2023-10-27 10:40:21.86,-119,-174,-2089,-86,-15,7,-511,-603,92,557
,1039,2023-10-27 10:40:21.87,-126,-195,-2053,-103,-25,3,-633,-668,35,650
,1040,2023-10-27 10:40:21.88,-123,-205,-2055,-101,-20,8,-509,-621,112,565
,1041,2023-10-27 10:40:21.89,-113,-191,-2050,-104,-19,9,-618,-678,60,648
,1042,2023-10-27 10:40:21.90,-107,-201,-2025,-104,-8,13,-508,-644,136,576
,1043,2023-10-27 10:40:21.91,-126,-205,-2014,-95,-7,16,-621,-713,92,667
,1044,2023-10-27 10:40:21.92,-114,-199,-1985,-79,9,24,-516,-649,133,582
,1045,2023-10-27 10:40:21.93,-115,-207,-1998,-74,35,30,-621,-687,66,654
,1046,2023-10-27 10:40:21.94,-114,-210,-1998,-58,52,30,-523,-622,99,572
,1047,2023-10-27 10:40:21.95,-112,-191,-1993,-48,64,33,-618,-659,41,638
,1048,2023-10-27 10:40:21.96,-107,-183,-1998,-35,72,30,-523,-619,96,571
,1049,2023-10-27 10:40:21.97,-104,-188,-2001,-25,86,31,-618,-672,54,645
,1050,2023-10-27 10:40:21.98,-85,-183,-2015,-16,104,26,-520,-600,80,560
,1051,2023-10-27 10:40:21.99,-91,-195,-2044,-6,116,23,-608,-621,13,614
,1052,2023-10-27 10:40:22.00,-93,-186,-2059,2,116,23,-531,-606,75,568
,1053,2023-10-27 10:40:22.01,-79,-183,-2078,8,110,17,-610,-679,69,644
,1054,2023-10-27 10:40:22.02,-72,-176,-2082,8,98,20,-536,-630,94,583
,1055,2023-10-27 10:40:22.03,-68,-179,-2091,2,82,19,-605,-660,55,632
,1056,2023-10-27 10:40:22.04,-64,-175,-2094,-4,70,21,-541,-662,121,601
,1057,2023-10-27 10:40:22.05,-68,-173,-2097,-13,53,24,-603,-724,121,663
,1058,2023-10-27 10:40:22.06,-63,-178,-2091,-25,45,29,-531,-681,150,606
,1059,2023-10-27 10:40:22.07,-56,-171,-2093,-37,32,35,-596,-701,105,648
,1060,2023-10-27 10:40:22.08,-68,-173,-2074,-43,20,38,-538,-651,113,594
,1061,2023-10-27 10:40:22.09,-60,-174,-2076,-44,11,38,-597,-684,87,640
,1062,2023-10-27 10:40:22.10,-73,-167,-2074,-42,2,45,-550,-683,133,616
,1063,2023-10-27 10:40:22.11,-71,-177,-2078,-43,-13,45,-595,-722,127,658
,1064,2023-10-27 10:40:22.12,-66,-171,-2080,-38,-17,40,-550,-684,134,617
,1065,2023-10-27 10:40:22.13,-67,-169,-2077,-50,-11,35,-584,-685,101,634
,1066,2023-10-27 10:40:22.14,-75,-175,-2082,-44,-13,38,-554,-598,44,576
,1067,2023-10-27 10:40:22.15,-73,-162,-2073,-34,-19,36,-588,-601,13,594
,1068,2023-10-27 10:40:22.16,-83,-172,-2077,-27,-29,33,-562,-562,0,562
,1069,2023-10-27 10:40:22.17,-81,-163,-2048,-26,-27,28,-585,-595,10,590
,1070,2023-10-27 10:40:22.18,-73,-162,-2029,-22,-22,24,-569,-599,30,584
,1071,2023-10-27 10:40:22.19,-70,-172,-2009,-21,-11,23,-580,-647,67,613
,1072,2023-10-27 10:40:22.20,-80,-182,-2016,-16,8,27,-571,-651,80,611
,1073,2023-10-27 10:40:22.21,-74,-189,-2010,-3,15,27,-580,-671,91,625
,1074,2023-10-27 10:40:22.22,-88,-191,-2004,14,18,32,-578,-661,83,619
,1075,2023-10-27 10:40:22.23,-94,-189,-2018,25,27,38,-578,-675,97,626
,1076,2023-10-27 10:40:22.24,-94,-191,-2021,38,26,45,-571,-660,89,615
,1077,2023-10-27 10:40:22.25,-103,-180,-2013,41,29,52,-560,-672,112,616
,1078,2023-10-27 10:40:22.26,-107,-154,-2017,43,27,61,-570,-661,91,615
,1079,2023-10-27 10:40:22.27,-113,-151,-2042,36,21,58,-565,-672,107,618
,1080,2023-10-27 10:40:22.28,-114,-150,-2057,24,3,53,-592,-677,85,634
,1081,2023-10-27 10:40:22.29,-117,-145,-2059,17,-12,42,-566,-682,116,624
,1082,2023-10-27 10:40:22.30,-122,-127,-2055,-4,-13,31,-582,-683,101,632
,1083,2023-10-27 10:40:22.31,-118,-132,-2057,-19,-21,25,-551,-681,130,616
,1084,2023-10-27 10:40:22.32,-121,-148,-2049,-41,-25,7,-587,-655,68,621
,1085,2023-10-27 10:40:22.33,-123,-155,-2034,-57,-21,-2,-551,-645,94,598
,1086,2023-10-27 10:40:22.34,-130,-167,-2048,-58,-23,-9,-588,-652,64,620
,1087,2023-10-27 10:40:22.35,-129,-172,-2028,-55,-13,-12,-544,-657,113,600
,1088,2023-10-27 10:40:22.36,-108,-180,-2039,-53,-2,-18,-583,-613,30,598
,1089,2023-10-27 10:40:22.37,-109,-186,-2039,-52,14,-17,-537,-601,64,569
,1090,2023-10-27 10:40:22.38,-109,-189,-2071,-53,36,-13,-591,-609,18,600
,1091,2023-10-27 10:40:22.39,-101,-193,-2076,-47,44,-3,-532,-615,83,573
,1092,2023-10-27 10:40:22.40,-89,-183,-2077,-43,46,5,-597,-633,36,615
,1093,2023-10-27 10:40:22.41,-86,-161,-2067,-41,55,15,-535,-635,100,585
,1094,2023-10-27 10:40:22.42,-67,-151,-2069,-40,66,21,-599,-641,42,620
,1095,2023-10-27 10:40:22.43,-80,-139,-2079,-43,73,30,-532,-634,102,583
,1096,2023-10-27 10:40:22.44,-73,-139,-2067,-50,77,31,-600,-661,61,630
,1097,2023-10-27 10:40:22.45,-55,-145,-2072,-57,75,40,-522,-652,130,587
,1098,2023-10-27 10:40:22.46,-49,-145,-2060,-41,65,54,-593,-628,35,610
,1099,2023-10-27 10:40:22.47,-67,-135,-2055,-22,43,62,-520,-584,64,552
,1100,2023-10-27 10:40:22.48,-69,-136,-2072,-11,38,71,-614,-576,-38,595
,1101,2023-10-27 10:40:22.49,-68,-144,-2057,-5,26,77,-522,-559,37,540
,1102,2023-10-27 10:40:22.50,-56,-146,-2049,-2,18,79,-607,-574,-33,590
,1103,2023-10-27 10:40:22.51,-71,-152,-2036,5,14,83,-516,-584,68,550
,1104,2023-10-27 10:40:22.52,-66,-143,-2038,17,16,83,-606,-611,5,608
,1105,2023-10-27 10:40:22.53,-81,-146,-2044,18,16,77,-511,-595,84,553
,1106,2023-10-27 10:40:22.54,-78,-147,-2036,21,17,74,-614,-621,7,617
,1107,2023-10-27 10:40:22.55,-85,-148,-2032,24,16,69,-511,-607,96,559
,1108,2023-10-27 10:40:22.56,-84,-145,-2045,25,20,65,-615,-651,36,633
,1109,2023-10-27 10:40:22.57,-81,-142,-2040,25,24,58,-507,-629,122,568
,1110,2023-10-27 10:40:22.58,-80,-140,-2037,20,28,51,-610,-626,16,618
,1111,2023-10-27 10:40:22.59,-75,-140,-2049,15,25,45,-498,-594,96,546
,1112,2023-10-27 10:40:22.60,-65,-140,-2046,9,23,37,-624,-686,62,655
,1113,2023-10-27 10:40:22.61,-62,-144,-2046,3,28,34,-505,-672,167,588
,1114,2023-10-27 10:40:22.62,-60,-149,-2048,-5,40,27,-611,-711,100,661
,1115,2023-10-27 10:40:22.63,-59,-154,-2047,-7,45,21,-491,-644,153,567
,1116,2023-10-27 10:40:22.64,-61,-151,-2056,-8,39,20,-622,-673,51,647
,1117,2023-10-27 10:40:22.65,-70,-159,-2058,-7,42,20,-499,-632,133,565
,1118,2023-10-27 10:40:22.66,-55,-145,-2053,-6,46,20,-628,-696,68,662
,1119,2023-10-27 10:40:22.67,-47,-151,-2062,-5,43,25,-496,-644,148,570
,1120,2023-10-27 10:40:22.68,-52,-149,-2064,2,35,32,-627,-641,14,634
,1121,2023-10-27 10:40:22.69,-51,-149,-2038,3,25,35,-490,-563,73,526
,1122,2023-10-27 10:40:22.70,-51,-145,-2053,3,19,36,-628,-592,-36,610
,1123,2023-10-27 10:40:22.71,-53,-144,-2060,-4,10,35,-492,-564,72,528
,1124,2023-10-27 10:40:22.72,-51,-145,-2062,-8,13,37,-632,-595,-37,613
,1125,2023-10-27 10:40:22.73,-54,-135,-2062,-13,15,34,-492,-541,49,516
,1126,2023-10-27 10:40:22.74,-55,-135,-2049,-15,14,33,-636,-609,-27,622
,1127,2023-10-27 10:40:22.75,-57,-124,-2061,-23,14,23,-486,-586,100,536
,1128,2023-10-27 10:40:22.76,-62,-134,-2057,-25,13,21,-632,-655,23,643
,1129,2023-10-27 10:40:22.77,-63,-140,-2066,-23,10,22,-485,-592,107,538
,1130,2023-10-27 10:40:22.78,-74,-154,-2062,-20,-2,22,-638,-592,-46,615
,1131,2023-10-27 10:40:22.79,-75,-147,-2057,-16,2,26,-485,-540,55,512
,1132,2023-10-27 10:40:22.80,-78,-148,-2050,-11,-6,31,-636,-653,17,644
,1133,2023-10-27 10:40:22.81,-80,-152,-2052,-5,-5,34,-482,-629,147,555
,1134,2023-10-27 10:40:22.82,-83,-141,-2046,-3,-4,34,-633,-699,66,666
,1135,2023-10-27 10:40:22.83,-76,-153,-2057,-2,-2,37,-475,-632,157,553
,1136,2023-10-27 10:40:22.84,-75,-130,-2055,-7,3,39,-635,-700,65,667
,1137,2023-10-27 10:40:22.85,-63,-129,-2053,-15,12,45,-474,-628,154,551
,1138,2023-10-27 10:40:22.86,-77,-133,-2054,-21,17,50,-645,-689,44,667
,1139,2023-10-27 10:40:22.87,-62,-138,-2060,-22,19,52,-488,-619,131,553
,1140,2023-10-27 10:40:22.88,-64,-132,-2058,-23,18,57,-654,-714,60,684
,1141,2023-10-27 10:40:22.89,-54,-134,-2060,-16,22,57,-484,-647,163,565
,1142,2023-10-27 10:40:22.90,-61,-127,-2057,-14,20,55,-647,-727,80,687
,1143,2023-10-27 10:40:22.91,-56,-139,-2054,-6,17,55,-480,-629,149,554
,1144,2023-10-27 10:40:22.92,-61,-126,-2063,4,16,56,-646,-664,18,655
,1145,2023-10-27 10:40:22.93,-55,-134,-2061,8,14,56,-477,-581,104,529
,1146,2023-10-27 10:40:22.94,-58,-134,-2058,12,12,58,-640,-650,10,645
,1147,2023-10-27 10:40:22.95,-49,-124,-2057,12,8,59,-476,-571,95,523
,1148,2023-10-27 10:40:22.96,-56,-137,-2054,14,9,60,-654,-633,-21,643
,1149,2023-10-27 10:40:22.97,-55,-151,-2055,19,0,69,-490,-567,77,528
,1150,2023-10-27 10:40:22.98,-63,-133,-2045,18,1,72,-656,-640,-16,648
,1151,2023-10-27 10:40:22.99,-56,-138,-2049,19,2,73,-482,-582,100,532
,1152,2023-10-27 10:40:23.00,-59,-146,-2048,15,4,78,-650,-690,40,670
,1153,2023-10-27 10:40:23.01,-56,-136,-2062,9,6,80,-481,-615,134,548
,1154,2023-10-27 10:40:23.02,-67,-152,-2056,13,1,81,-648,-679,31,663
,1155,2023-10-27 10:40:23.03,-67,-138,-2064,16,3,82,-480,-586,106,533
,1156,2023-10-27 10:40:23.04,-70,-137,-2047,15,-3,81,-652,-657,5,654
,1157,2023-10-27 10:40:23.05,-73,-142,-2062,15,-10,81,-486,-571,85,528
,1158,2023-10-27 10:40:23.06,-75,-136,-2064,10,-6,82,-653,-637,-16,645
,1159,2023-10-27 10:40:23.07,-65,-137,-2058,8,-8,77,-479,-570,91,524
,1160,2023-10-27 10:40:23.08,-76,-128,-2060,8,-10,73,-642,-658,16,650
,1161,2023-10-27 10:40:23.09,-73,-115,-2053,12,-16,69,-472,-584,112,528
,1162,2023-10-27 10:40:23.10,-72,-111,-2051,6,-14,58,-650,-662,12,656
,1163,2023-10-27 10:40:23.11,-63,-125,-2060,-5,-10,53,-488,-592,104,540
,1164,2023-10-27 10:40:23.12,-75,-120,-2048,-7,-5,47,-654,-681,27,667
,1165,2023-10-27 10:40:23.13,-75,-116,-2063,-12,5,40,-482,-600,118,541
,1166,2023-10-27 10:40:23.14,-71,-129,-2057,-9,-4,39,-645,-673,28,659
,1167,2023-10-27 10:40:23.15,-59,-126,-2053,-7,1,32,-481,-591,110,536
,1168,2023-10-27 10:40:23.16,-56,-127,-2055,-1,-2,29,-649,-662,13,655
,1169,2023-10-27 10:40:23.17,-66,-128,-2049,5,-4,29,-487,-586,99,536
,1170,2023-10-27 10:40:23.18,-69,-133,-2054,9,-4,29,-647,-658,11,652
,1171,2023-10-27 10:40:23.19,-62,-133,-2051,13,-2,35,-486,-586,100,536
,1172,2023-10-27 10:40:23.20,-62,-140,-2047,15,1,38,-652,-675,23,663
,1173,2023-10-27 10:40:23.21,-58,-141,-2040,19,4,44,-482,-588,106,535
,1174,2023-10-27 10:40:23.22,-58,-148,-2032,27,7,50,-638,-645,7,641
,1175,2023-10-27 10:40:23.23,-53,-149,-2036,34,5,55,-482,-579,97,530
,1176,2023-10-27 10:40:23.24,-55,-143,-2036,39,10,58,-642,-678,36,660
,1177,2023-10-27 10:40:23.25,-53,-138,-2040,44,13,62,-489,-613,124,551
,1178,2023-10-27 10:40:23.26,-67,-137,-2041,44,15,61,-649,-674,25,661
,1179,2023-10-27 10:40:23.27,-70,-146,-2036,43,16,64,-502,-597,95,549
,1180,2023-10-27 10:40:23.28,-69,-151,-2050,44,16,66,-643,-670,27,656
,1181,2023-10-27 10:40:23.29,-75,-146,-2048,51,13,71,-497,-606,109,551
,1182,2023-10-27 10:40:23.30,-64,-155,-2063,45,0,67,-644,-686,42,665
,1183,2023-10-27 10:40:23.31,-76,-144,-2057,38,-8,71,-498,-607,109,552
,1184,2023-10-27 10:40:23.32,-86,-144,-2065,30,-15,72,-641,-664,23,652
,1185,2023-10-27 10:40:23.33,-69,-151,-2055,16,-12,74,-492,-593,101,542
,1186,2023-10-27 10:40:23.34,-59,-150,-2047,6,2,74,-632,-660,28,646
,1187,2023-10-27 10:40:23.35,-78,-151,-2037,-5,10,68,-497,-578,81,537
,1188,2023-10-27 10:40:23.36,-80,-147,-2045,-11,15,71,-640,-638,-2,639
,1189,2023-10-27 10:40:23.37,-77,-144,-2058,-15,23,71,-512,-580,68,546
,1190,2023-10-27 10:40:23.38,-76,-146,-2055,-15,18,69,-641,-655,14,648
,1191,2023-10-27 10:40:23.39,-80,-150,-2061,-12,21,69,-502,-625,123,563
,1192,2023-10-27 10:40:23.40,-70,-137,-2073,-10,15,70,-627,-712,85,669
,1193,2023-10-27 10:40:23.41,-72,-130,-2075,-8,4,69,-499,-633,134,566
,1194,2023-10-27 10:40:23.42,-78,-125,-2070,-13,0,68,-629,-670,41,649
,1195,2023-10-27 10:40:23.43,-64,-144,-2068,-13,3,65,-512,-596,84,554
,1196,2023-10-27 10:40:23.44,-63,-146,-2062,-9,-5,67,-633,-658,25,645
,1197,2023-10-27 10:40:23.45,-68,-133,-2063,-10,-10,72,-507,-587,80,547
,1198,2023-10-27 10:40:23.46,-61,-146,-2055,-13,-12,74,-620,-642,22,631
,1199,2023-10-27 10:40:23.47,-64,-133,-2049,-15,-15,74,-511,-603,92,557
,1200,2023-10-27 10:40:23.48,-63,-137,-2056,-7,-19,77,-619,-673,54,646
,1201,2023-10-27 10:40:23.49,-62,-128,-2061,-7,-14,71,-515,-602,87,558
,1202,2023-10-27 10:40:23.50,-68,-115,-2060,-10,-11,68,-623,-647,24,635
,1203,2023-10-27 10:40:23.51,-54,-114,-2056,-9,-9,61,-524,-600,76,562
,1204,2023-10-27 10:40:23.52,-55,-116,-2055,-8,-4,54,-623,-662,39,642
,1205,2023-10-27 10:40:23.53,-61,-115,-2066,-5,-1,49,-526,-604,78,565
,1206,2023-10-27 10:40:23.54,-68,-127,-2080,0,-3,46,-613,-650,37,631
,1207,2023-10-27 10:40:23.55,-46,-133,-2072,3,-4,43,-523,-612,89,567
,1208,2023-10-27 10:40:23.56,-70,-132,-2062,8,-13,47,-612,-669,57,640
,1209,2023-10-27 10:40:23.57,-72,-131,-2056,11,-15,49,-535,-615,80,575
,1210,2023-10-27 10:40:23.58,-65,-128,-2051,18,-20,48,-610,-652,42,631
,1211,2023-10-27 10:40:23.59,-68,-112,-2046,14,-24,51,-530,-583,53,556
,1212,2023-10-27 10:40:23.60,-65,-115,-2040,6,-26,52,-601,-620,19,610
,1213,2023-10-27 10:40:23.61,-83,-128,-2056,3,-19,53,-532,-553,21,542
,1214,2023-10-27 10:40:23.62,-80,-133,-2053,10,-23,55,-597,-594,-3,595
,1215,2023-10-27 10:40:23.63,-85,-130,-2047,15,-25,50,-540,-575,35,557
,1216,2023-10-27 10:40:23.64,-92,-123,-2043,16,-32,51,-595,-628,33,611
,1217,2023-10-27 10:40:23.65,-96,-128,-2055,20,-30,45,-529,-562,33,545
,1218,2023-10-27 10:40:23.66,-98,-130,-2041,22,-33,37,-585,-599,14,592
,1219,2023-10-27 10:40:23.67,-86,-132,-2037,23,-26,33,-535,-602,67,568
,1220,2023-10-27 10:40:23.68,-96,-132,-2030,24,-17,25,-581,-668,87,624
,1221,2023-10-27 10:40:23.69,-101,-134,-2031,23,-6,17,-540,-616,76,578
,1222,2023-10-27 10:40:23.70,-104,-133,-2034,20,2,15,-582,-640,58,611
,1223,2023-10-27 10:40:23.71,-96,-134,-2028,19,10,11,-561,-629,68,595
,1224,2023-10-27 10:40:23.72,-83,-144,-2038,8,21,13,-590,-665,75,627
,1225,2023-10-27 10:40:23.73,-81,-144,-2043,4,25,17,-564,-634,70,599
,1226,2023-10-27 10:40:23.74,-88,-147,-2029,0,28,17,-586,-657,71,621
,1227,2023-10-27 10:40:23.75,-78,-140,-2030,-2,35,18,-561,-608,47,584
,1228,2023-10-27 10:40:23.76,-80,-145,-2020,-11,43,20,-578,-634,56,606
,1229,2023-10-27 10:40:23.77,-84,-138,-2032,-17,58,19,-559,-597,38,578
,1230,2023-10-27 10:40:23.78,-77,-133,-2053,-17,65,16,-566,-622,56,594
,1231,2023-10-27 10:40:23.79,-79,-139,-2056,-21,69,19,-564,-586,22,575
,1232,2023-10-27 10:40:23.80,-76,-143,-2074,-22,64,19,-572,-618,46,595
,1233,2023-10-27 10:40:23.81,-77,-142,-2077,-23,54,21,-571,-614,43,592
,1234,2023-10-27 10:40:23.82,-72,-140,-2084,-25,48,24,-562,-644,82,603
,1235,2023-10-27 10:40:23.83,-74,-130,-2072,-31,48,23,-562,-610,48,586
,1236,2023-10-27 10:40:23.84,-56,-129,-2067,-33,44,28,-554,-625,71,589
,1237,2023-10-27 10:40:23.85,-49,-116,-2068,-37,46,28,-568,-627,59,597
,1238,2023-10-27 10:40:23.86,-45,-105,-2052,-37,44,26,-556,-660,104,608
,1239,2023-10-27 10:40:23.87,-31,-123,-2059,-40,52,23,-568,-686,118,627
,1240,2023-10-27 10:40:23.88,-38,-123,-2059,-31,49,29,-541,-695,154,618
,1241,2023-10-27 10:40:23.89,-40,-122,-2064,-22,48,32,-574,-680,106,627
,1242,2023-10-27 10:40:23.90,-40,-124,-2060,-7,40,35,-554,-668,114,611
,1243,2023-10-27 10:40:23.91,-39,-105,-2057,3,31,39,-583,-625,42,604
,1244,2023-10-27 10:40:23.92,-40,-116,-2060,12,24,46,-542,-616,74,579
,1245,2023-10-27 10:40:23.93,-33,-113,-2068,14,13,51,-576,-616,40,596
,1246,2023-10-27 10:40:23.94,-53,-112,-2057,14,3,56,-536,-636,100,586
,1247,2023-10-27 10:40:23.95,-52,-107,-2059,13,-4,56,-582,-668,86,625
,1248,2023-10-27 10:40:23.96,-50,-107,-2054,13,-14,55,-539,-672,133,605
,1249,2023-10-27 10:40:23.97,-60,-106,-2054,10,-22,50,-594,-640,46,617
,1250,2023-10-27 10:40:23.98,-59,-112,-2062,9,-29,49,-536,-618,82,577
,1251,2023-10-27 10:40:23.99,-70,-102,-2066,7,-36,44,-597,-596,-1,596
,1252,2023-10-27 10:40:24.00,-73,-102,-2065,3,-43,37,-535,-601,66,568
,1253,2023-10-27 10:40:24.01,-66,-114,-2060,-4,-39,33,-594,-624,30,609
,1254,2023-10-27 10:40:24.02,-76,-117,-2061,-6,-36,29,-526,-627,101,576
,1255,2023-10-27 10:40:24.03,-70,-125,-2066,-5,-38,29,-596,-632,36,614
,1256,2023-10-27 10:40:24.04,-84,-118,-2060,-7,-34,28,-522,-621,99,571
,1257,2023-10-27 10:40:24.05,-78,-130,-2053,-1,-34,33,-596,-626,30,611
,1258,2023-10-27 10:40:24.06,-61,-117,-2053,-2,-25,31,-516,-617,101,566
,1259,2023-10-27 10:40:24.07,-62,-122,-2046,5,-23,36,-608,-627,19,617
,1260,2023-10-27 10:40:24.08,-61,-122,-2045,11,-15,39,-520,-617,97,568
,1261,2023-10-27 10:40:24.09,-65,-114,-2053,19,-2,46,-604,-626,22,615
,1262,2023-10-27 10:40:24.10,-72,-124,-2056,25,5,52,-513,-611,98,562
,1263,2023-10-27 10:40:24.11,-68,-126,-2054,33,8,56,-607,-607,0,607
,1264,2023-10-27 10:40:24.12,-63,-126,-2049,39,10,66,-515,-596,81,555
,1265,2023-10-27 10:40:24.13,-72,-129,-2047,45,4,70,-612,-630,18,621
,1266,2023-10-27 10:40:24.14,-66,-123,-2047,47,3,75,-509,-620,111,564
,1267,2023-10-27 10:40:24.15,-72,-116,-2032,44,11,79,-614,-616,2,615
,1268,2023-10-27 10:40:24.16,-78,-118,-2026,44,17,82,-507,-583,76,545
,1269,2023-10-27 10:40:24.17,-90,-119,-2041,42,21,81,-621,-628,7,624
,1270,2023-10-27 10:40:24.18,-82,-142,-2046,43,2,85,-509,-612,103,560
,1271,2023-10-27 10:40:24.19,-100,-140,-2041,39,-5,87,-623,-631,8,627
,1272,2023-10-27 10:40:24.20,-88,-133,-2038,36,-13,90,-504,-594,90,549
,1273,2023-10-27 10:40:24.21,-102,-127,-2059,32,-16,88,-621,-606,-15,613
,1274,2023-10-27 10:40:24.22,-93,-125,-2054,28,-26,86,-494,-580,86,537
,1275,2023-10-27 10:40:24.23,-82,-118,-2050,12,-18,80,-618,-616,-2,617
,1276,2023-10-27 10:40:24.24,-87,-102,-2044,-8,8,71,-493,-587,94,540
,1277,2023-10-27 10:40:24.25,-98,-112,-2046,-21,26,65,-624,-630,6,627
,1278,2023-10-27 10:40:24.26,-82,-118,-2064,-35,38,62,-497,-604,107,550
,1279,2023-10-27 10:40:24.27,-109,-124,-2082,-41,37,62,-633,-680,47,656
,1280,2023-10-27 10:40:24.28,-101,-137,-2073,-41,33,61,-501,-652,151,576
,1281,2023-10-27 10:40:24.29,-105,-121,-2088,-35,21,65,-638,-726,88,682
,1282,2023-10-27 10:40:24.30,-90,-121,-2070,-32,14,66,-500,-673,173,586
,1283,2023-10-27 10:40:24.31,-87,-136,-2055,-28,16,74,-640,-730,90,685
,1284,2023-10-27 10:40:24.32,-77,-115,-2049,-35,19,74,-498,-638,140,568
,1285,2023-10-27 10:40:24.33,-91,-127,-2051,-34,21,79,-648,-641,-7,644
,1286,2023-10-27 10:40:24.34,-73,-118,-2051,-36,24,86,-502,-582,80,542
,1287,2023-10-27 10:40:24.35,-75,-116,-2032,-32,29,94,-648,-660,12,654
,1288,2023-10-27 10:40:24.36,-73,-118,-2038,-31,29,105,-494,-618,124,556
,1289,2023-10-27 10:40:24.37,-78,-117,-2053,-28,24,114,-641,-655,14,648
,1290,2023-10-27 10:40:24.38,-83,-124,-2039,-21,26,127,-493,-588,95,540
,1291,2023-10-27 10:40:24.39,-72,-115,-2046,-13,27,133,-655,-654,-1,654
,1292,2023-10-27 10:40:24.40,-83,-120,-2054,-5,20,138,-499,-598,99,548
,1293,2023-10-27 10:40:24.41,-88,-127,-2066,7,10,154,-645,-637,-8,641
,1294,2023-10-27 10:40:24.42,-80,-89,-2068,20,3,157,-487,-579,92,533
,1295,2023-10-27 10:40:24.43,-84,-111,-2064,20,2,156,-651,-678,27,664
,1296,2023-10-27 10:40:24.44,-92,-104,-2040,16,1,166,-493,-613,120,553
,1297,2023-10-27 10:40:24.45,-82,-96,-2047,14,8,165,-644,-636,-8,640
,1298,2023-10-27 10:40:24.46,-93,-113,-2064,4,11,165,-484,-560,76,522
,1299,2023-10-27 10:40:24.47,-83,-116,-2074,5,10,169,-651,-617,-34,634
,1300,2023-10-27 10:40:24.48,-89,-85,-2062,6,5,167,-485,-553,68,519
,1301,2023-10-27 10:40:24.49,-80,-100,-2065,1,7,161,-641,-575,-66,608
,1302,2023-10-27 10:40:24.50,-78,-106,-2048,-14,21,156,-475,-518,43,496
,1303,2023-10-27 10:40:24.51,-77,-100,-2054,-22,29,154,-638,-618,-20,628
,1304,2023-10-27 10:40:24.52,-71,-111,-2058,-20,38,151,-473,-593,120,533
,1305,2023-10-27 10:40:24.53,-81,-114,-2047,-27,49,156,-646,-689,43,667
,1306,2023-10-27 10:40:24.54,-64,-116,-2045,-22,47,158,-480,-616,136,548
,1307,2023-10-27 10:40:24.55,-73,-121,-2050,-18,56,162,-650,-667,17,658
,1308,2023-10-27 10:40:24.56,-52,-117,-2052,-14,48,164,-480,-578,98,529
,1309,2023-10-27 10:40:24.57,-59,-109,-2055,-18,49,171,-653,-632,-21,642
,1310,2023-10-27 10:40:24.58,-56,-117,-2058,-19,48,181,-476,-584,108,530
,1311,2023-10-27 10:40:24.59,-60,-97,-2043,-17,38,188,-649,-691,42,670
,1312,2023-10-27 10:40:24.60,-49,-106,-2049,-14,27,191,-484,-621,137,552
,1313,2023-10-27 10:40:24.61,-51,-90,-2042,-18,29,195,-658,-676,18,667
,1314,2023-10-27 10:40:24.62,-46,-98,-2056,-27,34,196,-489,-581,92,535
,1315,2023-10-27 10:40:24.63,-53,-99,-2048,-30,26,199,-662,-646,-16,654
,1316,2023-10-27 10:40:24.64,-76,-87,-2050,-27,24,200,-490,-584,94,537
,1317,2023-10-27 10:40:24.65,-61,-114,-2063,-20,22,198,-659,-674,15,666
,1318,2023-10-27 10:40:24.66,-75,-119,-2057,-18,11,199,-494,-610,116,552
,1319,2023-10-27 10:40:24.67,-70,-107,-2052,-17,-1,202,-666,-693,27,679
,1320,2023-10-27 10:40:24.68,-74,-115,-2071,-11,-14,207,-491,-615,124,553
,1321,2023-10-27 10:40:24.69,-74,-121,-2064,-14,-18,212,-657,-688,31,672
,1322,2023-10-27 10:40:24.70,-88,-111,-2057,-15,-19,212,-491,-600,109,545
,1323,2023-10-27 10:40:24.71,-81,-95,-2052,-25,-20,209,-658,-669,11,663
,1324,2023-10-27 10:40:24.72,-76,-103,-2041,-33,-13,207,-492,-603,111,547
,1325,2023-10-27 10:40:24.73,-60,-97,-2038,-44,-10,200,-660,-691,31,675
,1326,2023-10-27 10:40:24.74,-70,-87,-2037,-55,-2,188,-486,-602,116,544
,1327,2023-10-27 10:40:24.75,-58,-78,-2027,-69,12,180,-647,-663,16,655
,1328,2023-10-27 10:40:24.76,-57,-77,-2028,-74,25,168,-480,-596,116,538
,1329,2023-10-27 10:40:24.77,-72,-105,-2041,-73,31,154,-648,-682,34,665
,1330,2023-10-27 10:40:24.78,-61,-107,-2036,-72,35,150,-492,-579,87,535
,1331,2023-10-27 10:40:24.79,-65,-103,-2029,-67,38,141,-658,-624,-34,641
,1332,2023-10-27 10:40:24.80,-59,-93,-2049,-66,41,136,-490,-565,75,527
,1333,2023-10-27 10:40:24.81,-61,-91,-2055,-59,39,130,-642,-670,28,656
,1334,2023-10-27 10:40:24.82,-54,-84,-2054,-60,36,126,-475,-618,143,546
,1335,2023-10-27 10:40:24.83,-59,-74,-2052,-63,30,125,-642,-700,58,671
,1336,2023-10-27 10:40:24.84,-43,-63,-2059,-69,21,122,-489,-616,127,552
,1337,2023-10-27 10:40:24.85,-49,-57,-2071,-80,17,122,-653,-684,31,668
,1338,2023-10-27 10:40:24.86,-45,-46,-2082,-95,21,114,-488,-608,120,548
,1339,2023-10-27 10:40:24.87,-50,-36,-2089,-119,22,111,-632,-686,54,659
,1340,2023-10-27 10:40:24.88,-33,-34,-2113,-132,27,102,-468,-601,133,534
,1341,2023-10-27 10:40:24.89,-47,-30,-2108,-144,25,93,-619,-672,53,645
,1342,2023-10-27 10:40:24.90,-18,-31,-2102,-153,20,85,-469,-606,137,537
,1343,2023-10-27 10:40:24.91,-36,-20,-2097,-151,8,76,-618,-678,60,648
,1344,2023-10-27 10:40:24.92,-17,-24,-2096,-154,1,67,-468,-619,151,543
,1345,2023-10-27 10:40:24.93,-28,-19,-2079,-155,-7,58,-589,-678,89,633
,1346,2023-10-27 10:40:24.94,-16,-12,-2078,-157,-8,54,-420,-573,153,496
,1347,2023-10-27 10:40:24.95,-8,0,-2075,-153,-19,47,-556,-625,69,590
,1348,2023-10-27 10:40:24.96,-30,3,-2072,-152,-17,41,-436,-548,112,492
,1349,2023-10-27 10:40:24.97,-14,-7,-2078,-157,-18,33,-591,-617,26,604
,1350,2023-10-27 10:40:24.98,-18,-8,-2063,-140,-21,35,-467,-550,83,508
,1351,2023-10-27 10:40:24.99,-13,-10,-2054,-123,-29,37,-604,-621,17,612
,1352,2023-10-27 10:40:25.00,-22,-25,-2053,-104,-42,40,-478,-562,84,520
,1353,2023-10-27 10:40:25.01,-22,-25,-2053,-75,-64,49,-614,-639,25,626
,1354,2023-10-27 10:40:25.02,-52,-24,-2047,-45,-82,56,-481,-592,111,536
,1355,2023-10-27 10:40:25.03,-40,-25,-2045,-28,-95,63,-603,-665,62,634
,1356,2023-10-27 10:40:25.04,-53,-19,-2040,-13,-94,66,-480,-613,133,546
,1357,2023-10-27 10:40:25.05,-58,-5,-2033,2,-98,65,-607,-680,73,643
,1358,2023-10-27 10:40:25.06,-63,-5,-2023,11,-106,66,-497,-614,117,555
,1359,2023-10-27 10:40:25.07,-68,-14,-2035,20,-107,63,-615,-659,44,637
,1360,2023-10-27 10:40:25.08,-86,-6,-2054,25,-113,60,-500,-621,121,560
,1361,2023-10-27 10:40:25.09,-81,16,-2050,23,-118,56,-611,-694,83,652
,1362,2023-10-27 10:40:25.10,-95,7,-2062,17,-121,46,-502,-638,136,570
,1363,2023-10-27 10:40:25.11,-109,2,-2052,5,-128,37,-608,-687,79,647
,1364,2023-10-27 10:40:25.12,-99,2,-2060,0,-125,28,-509,-648,139,578
,1365,2023-10-27 10:40:25.13,-107,-7,-2052,-9,-114,13,-609,-701,92,655
,1366,2023-10-27 10:40:25.14,-111,-12,-2071,-15,-112,3,-516,-600,84,558
,1367,2023-10-27 10:40:25.15,-104,-11,-2073,-15,-112,-8,-610,-624,14,617
,1368,2023-10-27 10:40:25.16,-98,7,-2093,-20,-105,-25,-514,-594,80,554
,1369,2023-10-27 10:40:25.17,-106,13,-2075,-24,-100,-38,-600,-669,69,634
,1370,2023-10-27 10:40:25.18,-103,19,-2064,-33,-98,-44,-514,-643,129,578
,1371,2023-10-27 10:40:25.19,-124,13,-2066,-45,-93,-47,-597,-691,94,644
,1372,2023-10-27 10:40:25.20,-130,-4,-2081,-49,-93,-52,-520,-637,117,578
,1373,2023-10-27 10:40:25.21,-143,-7,-2074,-53,-103,-47,-600,-673,73,636
,1374,2023-10-27 10:40:25.22,-134,8,-2072,-60,-118,-43,-533,-636,103,584
,1375,2023-10-27 10:40:25.23,-141,-2,-2083,-66,-128,-41,-595,-678,83,636
,1376,2023-10-27 10:40:25.24,-140,25,-2061,-66,-129,-39,-532,-665,133,598
,1377,2023-10-27 10:40:25.25,-127,34,-2056,-76,-113,-44,-595,-706,111,650
,1378,2023-10-27 10:40:25.26,-137,46,-2051,-97,-104,-47,-546,-678,132,612
,1379,2023-10-27 10:40:25.27,-137,22,-2035,-100,-104,-59,-577,-704,127,640
,1380,2023-10-27 10:40:25.28,-145,49,-2037,-101,-97,-66,-519,-668,149,593
,1381,2023-10-27 10:40:25.29,-130,58,-2017,-105,-79,-75,-558,-690,132,624
,1382,2023-10-27 10:40:25.30,-139,29,-2029,-105,-60,-81,-534,-686,152,610
,1383,2023-10-27 10:40:25.31,-133,46,-2032,-98,-63,-83,-570,-722,152,646
,1384,2023-10-27 10:40:25.32,-138,26,-2014,-94,-57,-83,-533,-700,167,616
,1385,2023-10-27 10:40:25.33,-128,41,-2027,-85,-52,-70,-555,-704,149,629
,1386,2023-10-27 10:40:25.34,-147,26,-2038,-71,-44,-62,-528,-686,158,607
,1387,2023-10-27 10:40:25.35,-134,10,-2040,-60,-31,-54,-551,-706,155,628
,1388,2023-10-27 10:40:25.36,-133,20,-2033,-44,-18,-43,-537,-681,144,609
,1389,2023-10-27 10:40:25.37,-144,18,-2037,-31,-7,-28,-559,-692,133,625
,1390,2023-10-27 10:40:25.38,-148,30,-2046,-17,4,-19,-550,-650,100,600
,1391,2023-10-27 10:40:25.39,-141,36,-2052,-6,9,-6,-559,-656,97,607
,1392,2023-10-27 10:40:25.40,-142,16,-2057,5,4,13,-558,-663,105,610
,1393,2023-10-27 10:40:25.41,-145,33,-2061,10,-1,28,-560,-689,129,624
,1394,2023-10-27 10:40:25.42,-144,2,-2075,20,-11,38,-558,-667,109,612
,1395,2023-10-27 10:40:25.43,-154,27,-2079,34,-24,53,-547,-674,127,610
,1396,2023-10-27 10:40:25.44,-152,53,-2088,44,-35,60,-544,-667,123,605
,1397,2023-10-27 10:40:25.45,-150,67,-2061,47,-45,58,-526,-675,149,600
,1398,2023-10-27 10:40:25.46,-162,60,-2053,43,-55,58,-549,-647,98,598
,1399,2023-10-27 10:40:25.47,-149,54,-2044,35,-55,52,-542,-651,109,596
,1400,2023-10-27 10:40:25.48,-172,55,-2039,28,-52,47,-566,-638,72,602
,1401,2023-10-27 10:40:25.49,-174,48,-2041,25,-43,35,-527,-654,127,590
,1402,2023-10-27 10:40:25.50,-162,36,-2043,23,-49,26,-544,-656,112,600
,1403,2023-10-27 10:40:25.51,-172,47,-2041,19,-41,16,-508,-667,159,587
,1404,2023-10-27 10:40:25.52,-174,45,-2036,26,-42,2,-553,-683,130,618
,1405,2023-10-27 10:40:25.53,-183,45,-2033,26,-35,-11,-532,-691,159,611
,1406,2023-10-27 10:40:25.54,-175,27,-2032,26,-27,-21,-576,-729,153,652
,1407,2023-10-27 10:40:25.55,-180,26,-2022,28,-20,-30,-500,-720,220,610
,1408,2023-10-27 10:40:25.56,-170,29,-2026,29,-18,-40,-537,-688,151,612
,1409,2023-10-27 10:40:25.57,-169,9,-2032,27,-11,-46,-482,-667,185,574
,1410,2023-10-27 10:40:25.58,-188,13,-2045,27,0,-51,-546,-691,145,618
,1411,2023-10-27 10:40:25.59,-177,14,-2036,24,5,-59,-496,-690,194,593
,1412,2023-10-27 10:40:25.60,-183,8,-2045,22,7,-62,-574,-702,128,638
,1413,2023-10-27 10:40:25.61,-169,7,-2039,22,11,-63,-509,-677,168,593
,1414,2023-10-27 10:40:25.62,-167,-2,-2051,24,17,-64,-582,-675,93,628
,1415,2023-10-27 10:40:25.63,-160,-6,-2047,27,20,-61,-514,-657,143,585
,1416,2023-10-27 10:40:25.64,-162,-6,-2048,30,21,-57,-585,-652,67,618
,1417,2023-10-27 10:40:25.65,-155,-30,-2056,33,25,-47,-506,-634,128,570
,1418,2023-10-27 10:40:25.66,-145,-21,-2053,38,21,-38,-593,-660,67,626
,1419,2023-10-27 10:40:25.67,-156,-26,-2049,43,24,-25,-513,-653,140,583
,1420,2023-10-27 10:40:25.68,-155,-30,-2069,44,13,6,-593,-654,61,623
,1421,2023-10-27 10:40:25.69,-142,-26,-2054,46,7,16,-504,-633,129,568
,1422,2023-10-27 10:40:25.70,-152,2,-2023,48,12,24,-593,-623,30,608
,1423,2023-10-27 10:40:25.71,-143,-20,-2074,43,22,29,-498,-601,103,549
,1424,2023-10-27 10:40:25.72,-146,-18,-2062,30,28,38,-596,-621,25,608
,1425,2023-10-27 10:40:25.73,-157,-12,-2059,27,36,53,-492,-606,114,549
,1426,2023-10-27 10:40:25.74,-156,-24,-2063,34,22,63,-599,-636,37,617
,1427,2023-10-27 10:40:25.75,-159,-12,-2042,37,16,69,-492,-622,130,557
,1428,2023-10-27 10:40:25.76,-164,-10,-2049,37,9,74,-597,-666,69,631
,1429,2023-10-27 10:40:25.77,-149,5,-2040,35,8,73,-481,-629,148,555
,1430,2023-10-27 10:40:25.78,-152,17,-2042,31,12,71,-599,-633,34,616
,1431,2023-10-27 10:40:25.79,-151,12,-2031,31,6,66,-484,-598,114,541
,1432,2023-10-27 10:40:25.80,-151,18,-2044,24,13,58,-604,-624,20,614
,1433,2023-10-27 10:40:25.81,-158,13,-2042,18,13,53,-481,-593,112,537
,1434,2023-10-27 10:40:25.82,-166,20,-2049,15,12,49,-606,-631,25,618
,1435,2023-10-27 10:40:25.83,-171,16,-2038,6,14,41,-482,-602,120,542
,1436,2023-10-27 10:40:25.84,-149,-9,-2045,6,10,39,-613,-650,37,631
,1437,2023-10-27 10:40:25.85,-169,6,-2050,15,7,37,-483,-614,131,548
,1438,2023-10-27 10:40:25.86,-161,12,-2047,20,7,32,-618,-657,39,637
,1439,2023-10-27 10:40:25.87,-154,14,-2050,20,10,25,-475,-614,139,544
,1440,2023-10-27 10:40:25.88,-151,12,-2041,21,16,17,-611,-648,37,629
,1441,2023-10-27 10:40:25.89,-164,25,-2048,18,28,11,-475,-597,122,536
,1442,2023-10-27 10:40:25.90,-152,-1,-2041,18,30,4,-615,-634,19,624
,1443,2023-10-27 10:40:25.91,-152,9,-2040,21,38,6,-470,-587,117,528
,1444,2023-10-27 10:40:25.92,-140,-9,-2052,22,40,1,-612,-634,22,623
,1445,2023-10-27 10:40:25.93,-151,-24,-2056,30,35,6,-468,-585,117,526
,1446,2023-10-27 10:40:25.94,-137,-21,-2043,41,27,8,-620,-601,-19,610
,1447,2023-10-27 10:40:25.95,-143,-1,-2041,39,29,7,-478,-567,89,522
,1448,2023-10-27 10:40:25.96,-132,-7,-2032,39,33,9,-632,-675,43,653
,1449,2023-10-27 10:40:25.97,-127,-13,-2046,37,36,10,-463,-624,161,543
,1450,2023-10-27 10:40:25.98,-133,-10,-2049,29,39,14,-604,-629,25,616
,1451,2023-10-27 10:40:25.99,-137,-3,-2061,28,33,15,-450,-545,95,497
,1452,2023-10-27 10:40:26.00,-150,-3,-2066,25,29,16,-613,-598,-15,605
,1453,2023-10-27 10:40:26.01,-136,-13,-2063,18,22,17,-460,-569,109,514
,1454,2023-10-27 10:40:26.02,-136,-6,-2061,13,10,18,-620,-672,52,646
,1455,2023-10-27 10:40:26.03,-130,10,-2059,1,13,17,-456,-608,152,532
,1456,2023-10-27 10:40:26.04,-146,0,-2048,-10,14,15,-615,-625,10,620
,1457,2023-10-27 10:40:26.05,-139,-4,-2057,-10,3,13,-454,-542,88,498
,1458,2023-10-27 10:40:26.06,-127,2,-2048,-13,7,11,-629,-603,-26,616
,1459,2023-10-27 10:40:26.07,-133,6,-2050,-13,10,10,-458,-551,93,504
,1460,2023-10-27 10:40:26.08,-137,-2,-2053,-13,5,7,-628,-617,-11,622
,1461,2023-10-27 10:40:26.09,-131,-5,-2053,-10,1,5,-456,-559,103,507
,1462,2023-10-27 10:40:26.10,-136,-1,-2047,-4,-1,2,-626,-637,11,631
,1463,2023-10-27 10:40:26.11,-141,0,-2053,1,2,2,-450,-579,129,514
,1464,2023-10-27 10:40:26.12,-135,-5,-2044,0,1,7,-622,-664,42,643
,1465,2023-10-27 10:40:26.13,-134,-2,-2049,2,-3,12,-448,-588,140,518
,1466,2023-10-27 10:40:26.14,-131,4,-2053,2,-3,14,-620,-602,-18,611
,1467,2023-10-27 10:40:26.15,-135,-1,-2054,3,-8,18,-451,-515,64,483
,1468,2023-10-27 10:40:26.16,-155,5,-2058,7,-16,19,-622,-603,-19,612
,1469,2023-10-27 10:40:26.17,-153,-5,-2060,7,-18,17,-445,-567,122,506
,1470,2023-10-27 10:40:26.18,-153,1,-2063,5,-20,19,-616,-673,57,644
,1471,2023-10-27 10:40:26.19,-155,18,-2054,-3,-9,16,-439,-604,165,521
,1472,2023-10-27 10:40:26.20,-153,-1,-2048,-6,-9,14,-607,-662,55,634
,1473,2023-10-27 10:40:26.21,-160,-1,-2052,0,-9,15,-441,-595,154,518
,1474,2023-10-27 10:40:26.22,-149,1,-2063,1,-16,13,-601,-703,102,652
,1475,2023-10-27 10:40:26.23,-159,5,-2060,-2,-11,10,-402,-604,202,503
,1476,2023-10-27 10:40:26.24,-154,6,-2018,-5,-15,7,-572,-636,64,604
,1477,2023-10-27 10:40:26.25,-151,6,-2048,-1,-4,6,-412,-560,148,486
,1478,2023-10-27 10:40:26.26,-153,2,-2048,-4,-1,2,-601,-657,56,629
,1479,2023-10-27 10:40:26.27,-157,15,-2050,-8,-1,3,-439,-588,149,513
,1480,2023-10-27 10:40:26.28,-167,22,-2053,-10,-1,2,-624,-660,36,642
,1481,2023-10-27 10:40:26.29,-146,14,-2047,-11,-4,2,-456,-565,109,510
,1482,2023-10-27 10:40:26.30,-138,13,-2037,-14,2,3,-634,-617,-17,625
,1483,2023-10-27 10:40:26.31,-149,11,-2044,-14,9,-2,-462,-555,93,508
,1484,2023-10-27 10:40:26.32,-148,6,-2052,-9,14,-3,-637,-656,19,646
,1485,2023-10-27 10:40:26.33,-131,6,-2052,-5,20,-5,-464,-587,123,525
,1486,2023-10-27 10:40:26.34,-129,-6,-2048,1,20,-10,-641,-655,14,648
,1487,2023-10-27 10:40:26.35,-126,-4,-2054,7,24,-7,-473,-575,102,524
,1488,2023-10-27 10:40:26.36,-138,-13,-2050,13,30,-1,-644,-648,4,646
,1489,2023-10-27 10:40:26.37,-141,-14,-2041,24,31,6,-471,-564,93,517
,1490,2023-10-27 10:40:26.38,-132,-26,-2037,31,31,12,-640,-632,-8,636
,1491,2023-10-27 10:40:26.39,-134,-34,-2041,40,27,24,-474,-558,84,516
,1492,2023-10-27 10:40:26.40,-131,-22,-2047,48,25,36,-641,-632,-9,636
,1493,2023-10-27 10:40:26.41,-130,-17,-2058,48,15,43,-477,-560,83,518
,1494,2023-10-27 10:40:26.42,-130,-13,-2057,43,13,50,-641,-633,-8,637
,1495,2023-10-27 10:40:26.43,-138,-16,-2053,37,11,52,-480,-561,81,520
,1496,2023-10-27 10:40:26.44,-128,-20,-2066,32,17,58,-647,-640,-7,643
,1497,2023-10-27 10:40:26.45,-140,7,-2056,26,17,57,-487,-583,96,535
,1498,2023-10-27 10:40:26.46,-137,11,-2049,17,11,53,-639,-672,33,655
,1499,2023-10-27 10:40:26.47,-141,-3,-2063,8,6,50,-488,-586,98,537
,1500,2023-10-27 10:40:26.48,-148,7,-2056,-2,4,41,-646,-642,-4,644
,1501,2023-10-27 10:40:26.49,-157,15,-2055,-11,-2,36,-497,-574,77,535
,1502,2023-10-27 10:40:26.50,-149,10,-2064,-11,-9,23,-635,-636,1,635
,1503,2023-10-27 10:40:26.51,-156,18,-2064,-13,-17,17,-494,-615,121,554
,1504,2023-10-27 10:40:26.52,-158,26,-2056,-21,-22,9,-601,-724,123,662
,1505,2023-10-27 10:40:26.53,-162,14,-2071,-28,-27,-1,-441,-648,207,544
,1506,2023-10-27 10:40:26.54,-152,23,-2043,-32,-35,-6,-568,-696,128,632
,1507,2023-10-27 10:40:26.55,-166,18,-2047,-38,-26,-9,-439,-601,162,520
,1508,2023-10-27 10:40:26.56,-159,-1,-2052,-37,-27,-16,-579,-645,66,612
,1509,2023-10-27 10:40:26.57,-156,11,-2040,-43,-13,-12,-454,-562,108,508
,1510,2023-10-27 10:40:26.58,-155,15,-2030,-46,-11,-14,-594,-620,26,607
,1511,2023-10-27 10:40:26.59,-149,9,-2024,-45,-5,-14,-473,-562,89,517
,1512,2023-10-27 10:40:26.60,-159,5,-2024,-46,7,-11,-612,-630,18,621
,1513,2023-10-27 10:40:26.61,-136,20,-2044,-40,19,-9,-486,-573,87,529
,1514,2023-10-27 10:40:26.62,-146,7,-2049,-37,22,-6,-611,-636,25,623
,1515,2023-10-27 10:40:26.63,-149,4,-2039,-30,29,2,-496,-584,88,540
,1516,2023-10-27 10:40:26.64,-152,-5,-2053,-23,31,13,-618,-652,34,635
,1517,2023-10-27 10:40:26.65,-142,-2,-2053,-20,37,24,-496,-576,80,536
,1518,2023-10-27 10:40:26.66,-146,-4,-2057,-7,31,38,-609,-614,5,611
,1519,2023-10-27 10:40:26.67,-141,2,-2051,5,29,46,-498,-571,73,534
,1520,2023-10-27 10:40:26.68,-127,19,-2046,10,27,52,-612,-644,32,628
,1521,2023-10-27 10:40:26.69,-123,17,-2039,16,31,57,-508,-584,76,546
,1522,2023-10-27 10:40:26.70,-120,26,-2051,19,33,62,-615,-636,21,625
,1523,2023-10-27 10:40:26.71,-112,20,-2057,19,38,65,-515,-568,53,541
,1524,2023-10-27 10:40:26.72,-112,18,-2055,22,39,68,-610,-619,9,614
,1525,2023-10-27 10:40:26.73,-120,21,-2058,25,33,68,-515,-575,60,545
,1526,2023-10-27 10:40:26.74,-108,21,-2062,30,32,66,-605,-637,32,621
,1527,2023-10-27 10:40:26.75,-107,21,-2058,31,29,64,-517,-574,57,545
,1528,2023-10-27 10:40:26.76,-112,23,-2066,33,26,63,-600,-619,19,609
,1529,2023-10-27 10:40:26.77,-103,31,-2059,32,17,59,-510,-589,79,549
,1530,2023-10-27 10:40:26.78,-113,27,-2050,28,10,53,-590,-647,57,618
,1531,2023-10-27 10:40:26.79,-118,23,-2057,28,6,48,-516,-609,93,562
,1532,2023-10-27 10:40:26.80,-130,25,-2062,23,3,45,-594,-657,63,625
,1533,2023-10-27 10:40:26.81,-122,25,-2052,23,0,37,-534,-608,74,571
,1534,2023-10-27 10:40:26.82,-132,23,-2058,24,-5,31,-597,-647,50,622
,1535,2023-10-27 10:40:26.83,-126,33,-2061,21,-11,18,-529,-607,78,568
,1536,2023-10-27 10:40:26.84,-129,24,-2056,16,-12,11,-588,-653,65,620
,1537,2023-10-27 10:40:26.85,-140,25,-2060,12,-14,2,-525,-608,83,566
,1538,2023-10-27 10:40:26.86,-129,25,-2055,6,-14,-6,-570,-642,72,606
,1539,2023-10-27 10:40:26.87,-132,15,-2053,3,-14,-13,-516,-600,84,558
,1540,2023-10-27 10:40:26.88,-132,25,-2053,-1,-17,-19,-572,-645,73,608
,1541,2023-10-27 10:40:26.89,-133,25,-2057,-3,-18,-24,-538,-616,78,577
,1542,2023-10-27 10:40:26.90,-143,21,-2059,-2,-17,-25,-584,-657,73,620
,1543,2023-10-27 10:40:26.91,-139,19,-2060,-4,-19,-26,-546,-642,96,594
,1544,2023-10-27 10:40:26.92,-142,10,-2056,-3,-22,-24,-571,-681,110,626
,1545,2023-10-27 10:40:26.93,-140,-2,-2053,-3,-21,-21,-539,-630,91,584
,1546,2023-10-27 10:40:26.94,-151,5,-2051,-2,-21,-16,-562,-644,82,603
,1547,2023-10-27 10:40:26.95,-143,-5,-2054,4,-22,-12,-542,-604,62,573
,1548,2023-10-27 10:40:26.96,-149,-3,-2047,9,-20,-3,-561,-630,69,595
,1549,2023-10-27 10:40:26.97,-149,-3,-2046,14,-20,2,-547,-581,34,564
,1550,2023-10-27 10:40:26.98,-145,-6,-2044,16,-12,10,-556,-610,54,583
,1551,2023-10-27 10:40:26.99,-143,-7,-2037,20,-9,19,-550,-596,46,573
,1552,2023-10-27 10:40:27.00,-141,-11,-2037,21,-3,27,-553,-634,81,593
,1553,2023-10-27 10:40:27.01,-146,-15,-2039,26,1,39,-549,-598,49,573
,1554,2023-10-27 10:40:27.02,-158,-15,-2051,28,3,50,-541,-614,73,577
,1555,2023-10-27 10:40:27.03,-147,-19,-2052,31,3,55,-554,-581,27,567
,1556,2023-10-27 10:40:27.04,-151,-10,-2056,34,-3,62,-544,-613,69,578
,1557,2023-10-27 10:40:27.05,-149,-16,-2055,32,-5,65,-553,-581,28,567
,1558,2023-10-27 10:40:27.06,-152,5,-2049,29,-3,71,-533,-601,68,567
,1559,2023-10-27 10:40:27.07,-156,7,-2058,23,-5,65,-566,-631,65,598
,1560,2023-10-27 10:40:27.08,-143,4,-2059,18,-4,60,-542,-665,123,603
,1561,2023-10-27 10:40:27.09,-142,19,-2057,14,-7,56,-562,-632,70,597
,1562,2023-10-27 10:40:27.10,-150,22,-2054,10,-7,46,-529,-628,99,578
,1563,2023-10-27 10:40:27.11,-146,14,-2053,4,-8,39,-572,-617,45,594
,1564,2023-10-27 10:40:27.12,-151,17,-2051,7,-7,32,-534,-624,90,579
,1565,2023-10-27 10:40:27.13,-145,15,-2053,5,-4,19,-580,-595,15,587
,1566,2023-10-27 10:40:27.14,-137,11,-2053,6,-4,13,-532,-601,69,566
,1567,2023-10-27 10:40:27.15,-137,10,-2046,6,0,6,-574,-619,45,596
,1568,2023-10-27 10:40:27.16,-153,5,-2048,7,-6,4,-527,-634,107,580
,1569,2023-10-27 10:40:27.17,-152,1,-2063,6,-8,2,-590,-616,26,603
,1570,2023-10-27 10:40:27.18,-142,8,-2064,8,-14,5,-523,-604,81,563
,1571,2023-10-27 10:40:27.19,-144,5,-2062,6,-16,7,-574,-604,30,589
,1572,2023-10-27 10:40:27.20,-141,8,-2053,8,-9,9,-501,-607,106,554
,1573,2023-10-27 10:40:27.21,-132,4,-2040,4,0,12,-565,-609,44,587
,1574,2023-10-27 10:40:27.22,-136,-5,-2054,9,10,24,-499,-603,104,551
,1575,2023-10-27 10:40:27.23,-134,-11,-2051,13,8,31,-583,-619,36,601
,1576,2023-10-27 10:40:27.24,-136,-12,-2054,20,1,37,-503,-613,110,558
,1577,2023-10-27 10:40:27.25,-129,-9,-2042,31,-8,47,-577,-609,32,593
,1578,2023-10-27 10:40:27.26,-127,-4,-2036,41,-16,54,-490,-604,114,547
,1579,2023-10-27 10:40:27.27,-134,-9,-2040,44,-17,56,-571,-651,80,611
,1580,2023-10-27 10:40:27.28,-123,-1,-2041,44,-16,57,-464,-624,160,544
,1581,2023-10-27 10:40:27.29,-128,4,-2044,36,-10,60,-573,-590,17,581
,1582,2023-10-27 10:40:27.30,-134,10,-2049,30,-17,54,-479,-566,87,522
,1583,2023-10-27 10:40:27.31,-141,17,-2054,18,-23,51,-579,-611,32,595
,1584,2023-10-27 10:40:27.32,-149,29,-2061,10,-31,45,-478,-602,124,540
,1585,2023-10-27 10:40:27.33,-161,28,-2067,-1,-39,37,-588,-620,32,604
,1586,2023-10-27 10:40:27.34,-163,33,-2056,-13,-42,28,-489,-606,117,547
,1587,2023-10-27 10:40:27.35,-162,33,-2051,-23,-46,16,-597,-649,52,623
,1588,2023-10-27 10:40:27.36,-164,25,-2051,-28,-47,3,-497,-629,132,563
,1589,2023-10-27 10:40:27.37,-167,26,-2046,-28,-52,-7,-604,-653,49,628
,1590,2023-10-27 10:40:27.38,-174,23,-2055,-32,-47,-16,-448,-609,161,528
,1591,2023-10-27 10:40:27.39,-172,19,-2057,-32,-50,-23,-536,-655,119,595
,1592,2023-10-27 10:40:27.40,-167,23,-2043,-34,-46,-29,-407,-610,203,508
,1593,2023-10-27 10:40:27.41,-164,28,-2033,-33,-43,-32,-542,-623,81,582
,1594,2023-10-27 10:40:27.42,-159,15,-2046,-32,-43,-33,-435,-580,145,507
,1595,2023-10-27 10:40:27.43,-161,32,-2049,-37,-36,-34,-578,-617,39,597
,1596,2023-10-27 10:40:27.44,-175,12,-2043,-30,-33,-28,-454,-592,138,523
,1597,2023-10-27 10:40:27.45,-172,13,-2032,-22,-36,-19,-595,-655,60,625
,1598,2023-10-27 10:40:27.46,-173,24,-2036,-22,-23,-13,-460,-613,153,536
,1599,2023-10-27 10:40:27.47,-165,8,-2033,-20,-25,-2,-598,-635,37,616
,1600,2023-10-27 10:40:27.48,-172,23,-2033,-11,-21,1,-460,-583,123,521
,1601,2023-10-27 10:40:27.49,-184,29,-2046,-6,-21,15,-606,-635,29,620
,1602,2023-10-27 10:40:27.50,-178,6,-2028,1,-15,20,-468,-598,130,533
,1603,2023-10-27 10:40:27.51,-184,36,-2050,2,-15,27,-613,-659,46,636
,1604,2023-10-27 10:40:27.52,-177,29,-2043,4,-10,26,-473,-610,137,541
,1605,2023-10-27 10:40:27.53,-189,31,-2038,10,-14,23,-629,-675,46,652
,1606,2023-10-27 10:40:27.54,-178,41,-2042,7,-13,23,-469,-619,150,544
,1607,2023-10-27 10:40:27.55,-181,40,-2038,8,-13,21,-612,-663,51,637
,1608,2023-10-27 10:40:27.56,-181,32,-2047,5,-9,20,-457,-592,135,524
,1609,2023-10-27 10:40:27.57,-188,35,-2053,7,-6,17,-616,-646,30,631
,1610,2023-10-27 10:40:27.58,-185,33,-2055,8,-6,15,-465,-599,134,532
,1611,2023-10-27 10:40:27.59,-183,31,-2056,7,-1,16,-632,-686,54,659
,1612,2023-10-27 10:40:27.60,-178,42,-2054,2,2,13,-468,-614,146,541
,1613,2023-10-27 10:40:27.61,-174,29,-2056,-6,16,9,-615,-648,33,631
,1614,2023-10-27 10:40:27.62,-177,18,-2051,-7,16,7,-451,-577,126,514
,1615,2023-10-27 10:40:27.63,-166,20,-2065,-4,22,7,-618,-670,52,644
,1616,2023-10-27 10:40:27.64,-160,35,-2062,10,13,14,-459,-630,171,544
,1617,2023-10-27 10:40:27.65,-164,10,-2052,20,12,15,-627,-729,102,678
,1618,2023-10-27 10:40:27.66,-168,10,-2054,28,7,15,-460,-649,189,554
,1619,2023-10-27 10:40:27.67,-157,9,-2037,37,8,20,-621,-701,80,661
,1620,2023-10-27 10:40:27.68,-152,27,-2038,44,6,22,-446,-594,148,520
,1621,2023-10-27 10:40:27.69,-151,10,-2027,43,14,23,-606,-624,18,615
,1622,2023-10-27 10:40:27.70,-158,23,-2032,53,20,28,-451,-563,112,507
,1623,2023-10-27 10:40:27.71,-162,-4,-2041,59,6,30,-625,-658,33,641
,1624,2023-10-27 10:40:27.72,-168,6,-2054,58,10,31,-460,-601,141,530
,1625,2023-10-27 10:40:27.73,-168,9,-2045,56,-6,33,-620,-656,36,638
,1626,2023-10-27 10:40:27.74,-172,17,-2036,47,-1,32,-449,-566,117,507
,1627,2023-10-27 10:40:27.75,-165,17,-2051,38,-11,34,-631,-617,-14,624
,1628,2023-10-27 10:40:27.76,-172,17,-2036,31,-7,32,-461,-547,86,504
,1629,2023-10-27 10:40:27.77,-173,23,-2046,26,-13,29,-636,-630,-6,633
,1630,2023-10-27 10:40:27.78,-173,22,-2042,17,-19,27,-455,-564,109,509
,1631,2023-10-27 10:40:27.79,-182,16,-2041,10,-22,20,-628,-628,0,628
,1632,2023-10-27 10:40:27.80,-185,14,-2043,-3,-19,14,-454,-562,108,508
,1633,2023-10-27 10:40:27.81,-187,14,-2044,-11,-14,11,-626,-649,23,637
,1634,2023-10-27 10:40:27.82,-197,9,-2038,-15,-7,6,-460,-584,124,522
,1635,2023-10-27 10:40:27.83,-192,6,-2041,-14,-4,3,-639,-664,25,651
,1636,2023-10-27 10:40:27.84,-186,7,-2041,-11,-7,7,-474,-601,127,537
,1637,2023-10-27 10:40:27.85,-189,5,-2036,-12,-4,4,-646,-698,52,672
,1638,2023-10-27 10:40:27.86,-193,11,-2045,-15,4,4,-470,-609,139,539
,1639,2023-10-27 10:40:27.87,-190,22,-2040,-20,8,6,-638,-667,29,652
,1640,2023-10-27 10:40:27.88,-187,11,-2030,-25,11,6,-458,-568,110,513
,1641,2023-10-27 10:40:27.89,-199,13,-2041,-25,14,7,-631,-636,5,633
,1642,2023-10-27 10:40:27.90,-183,21,-2054,-25,13,6,-466,-551,85,508
,1643,2023-10-27 10:40:27.91,-194,25,-2060,-25,14,10,-634,-619,-15,626
,1644,2023-10-27 10:40:27.92,-175,34,-2060,-23,7,11,-458,-545,87,501
,1645,2023-10-27 10:40:27.93,-179,35,-2054,-28,8,13,-620,-623,3,621
,1646,2023-10-27 10:40:27.94,-184,27,-2049,-26,6,13,-451,-546,95,498
,1647,2023-10-27 10:40:27.95,-183,33,-2050,-22,0,16,-625,-619,-6,622
,1648,2023-10-27 10:40:27.96,-183,28,-2045,-21,5,15,-467,-554,87,510
,1649,2023-10-27 10:40:27.97,-167,35,-2020,-18,-2,19,-631,-641,10,636
,1650,2023-10-27 10:40:27.98,-174,25,-2029,-11,5,17,-457,-567,110,512
,1651,2023-10-27 10:40:27.99,-182,16,-2057,-9,4,17,-613,-645,32,629
,1652,2023-10-27 10:40:28.00,-179,32,-2061,-5,-6,18,-450,-566,116,508
,1653,2023-10-27 10:40:28.01,-170,35,-2048,-7,-3,17,-605,-618,13,611
,1654,2023-10-27 10:40:28.02,-164,37,-2036,-16,4,11,-451,-555,104,503
,1655,2023-10-27 10:40:28.03,-171,42,-2057,-22,16,8,-592,-667,75,629
,1656,2023-10-27 10:40:28.04,-185,42,-2061,-22,15,9,-416,-588,172,502
,1657,2023-10-27 10:40:28.05,-187,28,-2065,-17,15,11,-575,-639,64,607
,1658,2023-10-27 10:40:28.06,-193,21,-2065,-11,-2,11,-440,-563,123,501
,1659,2023-10-27 10:40:28.07,-183,27,-2055,-4,-7,14,-607,-641,34,624
,1660,2023-10-27 10:40:28.08,-168,14,-2045,2,-15,15,-463,-560,97,511
,1661,2023-10-27 10:40:28.09,-183,18,-2035,7,-11,17,-619,-626,7,622
,1662,2023-10-27 10:40:28.10,-179,15,-2035,14,-9,17,-474,-607,133,540
,1663,2023-10-27 10:40:28.11,-175,26,-2032,19,1,17,-588,-729,141,658
,1664,2023-10-27 10:40:28.12,-175,10,-2030,20,2,21,-427,-647,220,537
,1665,2023-10-27 10:40:28.13,-174,13,-2038,19,5,24,-570,-692,122,631
,1666,2023-10-27 10:40:28.14,-180,16,-2045,20,10,27,-445,-582,137,513
,1667,2023-10-27 10:40:28.15,-174,13,-2044,17,9,34,-595,-634,39,614
,1668,2023-10-27 10:40:28.16,-185,15,-2053,20,10,37,-468,-577,109,522
,1669,2023-10-27 10:40:28.17,-173,12,-2057,18,9,41,-602,-658,56,630
,1670,2023-10-27 10:40:28.18,-171,14,-2057,11,11,48,-475,-590,115,532
,1671,2023-10-27 10:40:28.19,-166,16,-2062,10,8,50,-610,-651,41,630
,1672,2023-10-27 10:40:28.20,-170,12,-2058,4,9,55,-481,-561,80,521
,1673,2023-10-27 10:40:28.21,-166,13,-2050,5,8,60,-604,-610,6,607
,1674,2023-10-27 10:40:28.22,-170,31,-2052,7,12,61,-485,-558,73,521
,1675,2023-10-27 10:40:28.23,-165,18,-2044,10,13,63,-601,-636,35,618
,1676,2023-10-27 10:40:28.24,-160,18,-2051,14,14,67,-480,-594,114,537
,1677,2023-10-27 10:40:28.25,-155,24,-2048,21,13,69,-597,-655,58,626
,1678,2023-10-27 10:40:28.26,-156,29,-2041,24,12,69,-493,-641,148,567
,1679,2023-10-27 10:40:28.27,-149,35,-2033,22,12,64,-603,-723,120,663
,1680,2023-10-27 10:40:28.28,-166,37,-2041,24,16,63,-492,-703,211,597
,1681,2023-10-27 10:40:28.29,-164,39,-2040,21,19,62,-595,-759,164,677
,1682,2023-10-27 10:40:28.30,-167,44,-2057,18,20,55,-502,-702,200,602
,1683,2023-10-27 10:40:28.31,-169,43,-2057,15,16,54,-602,-733,131,667
,1684,2023-10-27 10:40:28.32,-172,42,-2054,9,8,50,-501,-651,150,576
,1685,2023-10-27 10:40:28.33,-167,45,-2053,4,6,45,-592,-644,52,618
,1686,2023-10-27 10:40:28.34,-165,45,-2044,0,2,37,-511,-621,110,566
,1687,2023-10-27 10:40:28.35,-165,48,-2047,-5,1,25,-599,-690,91,644
,1688,2023-10-27 10:40:28.36,-171,51,-2051,-5,2,17,-510,-649,139,579
,1689,2023-10-27 10:40:28.37,-156,48,-2051,-10,1,5,-584,-664,80,624
,1690,2023-10-27 10:40:28.38,-160,58,-2048,-9,2,-7,-517,-692,175,604
,1691,2023-10-27 10:40:28.39,-166,51,-2049,-9,-2,-17,-594,-774,180,684
,1692,2023-10-27 10:40:28.40,-162,49,-2050,-8,1,-23,-526,-779,253,652
,1693,2023-10-27 10:40:28.41,-157,40,-2047,-7,1,-31,-581,-788,207,684
,1694,2023-10-27 10:40:28.42,-164,50,-2047,-5,1,-36,-517,-699,182,608
,1695,2023-10-27 10:40:28.43,-173,34,-2041,-4,2,-35,-569,-691,122,630
