// Data mode  : Full
// Data quality  : High
// Acceleration sensor's range  : 16g
// Gyroscope sensor's range  : 2000dps
//
//ARTIFACT,NUM,DATE,ACC_X,ACC_Y,ACC_Z,GYRO_X,GYRO_Y,GYRO_Z,EOG_L,EOG_R,EOG_H,EOG_V
,1,2023-10-20 13:07:01.43,204,-350,-2044,-5,67,92,623,120,503,-371
,2,2023-10-20 13:07:01.44,208,-341,-2048,-1,54,97,484,106,378,-295
,3,2023-10-20 13:07:01.45,215,-334,-2038,3,48,100,596,145,451,-370
,4,2023-10-20 13:07:01.46,208,-341,-2029,13,16,101,470,117,353,-293
,5,2023-10-20 13:07:01.47,214,-338,-2046,20,8,100,568,154,414,-361
,6,2023-10-20 13:07:01.48,220,-326,-2044,23,-1,102,432,110,322,-271
,7,2023-10-20 13:07:01.49,209,-328,-2050,15,-7,100,550,157,393,-353
,8,2023-10-20 13:07:01.50,206,-341,-2059,9,-7,101,426,113,313,-269
,9,2023-10-20 13:07:01.51,202,-340,-2066,6,-11,104,550,170,380,-360
,10,2023-10-20 13:07:01.52,197,-334,-2065,9,-33,109,428,120,308,-274
,11,2023-10-20 13:07:01.53,190,-343,-2045,8,-51,112,552,180,372,-366
,12,2023-10-20 13:07:01.54,187,-342,-2022,5,-48,115,416,115,301,-265
,13,2023-10-20 13:07:01.55,182,-346,-2020,11,-54,116,542,183,359,-362
,14,2023-10-20 13:07:01.56,176,-342,-2022,18,-59,119,417,118,299,-267
,15,2023-10-20 13:07:01.57,179,-347,-2015,26,-64,123,554,200,354,-377
,16,2023-10-20 13:07:01.58,177,-335,-2017,30,-62,120,424,130,294,-277
,17,2023-10-20 13:07:01.59,164,-348,-2020,31,-56,120,547,206,341,-376
,18,2023-10-20 13:07:01.60,164,-361,-2028,31,-49,122,412,122,290,-267
,19,2023-10-20 13:07:01.61,163,-366,-2036,32,-49,129,546,201,345,-373
,20,2023-10-20 13:07:01.62,160,-379,-2036,36,-54,135,410,115,295,-262
,21,2023-10-20 13:07:01.63,143,-381,-2050,38,-55,143,545,206,339,-375
,22,2023-10-20 13:07:01.64,135,-404,-2049,39,-58,155,413,121,292,-267
,23,2023-10-20 13:07:01.65,151,-390,-2040,45,-60,164,548,215,333,-381
,24,2023-10-20 13:07:01.66,137,-390,-2024,44,-55,174,413,123,290,-268
,25,2023-10-20 13:07:01.67,131,-383,-2020,44,-42,177,542,224,318,-383
,26,2023-10-20 13:07:01.68,129,-369,-2019,33,-30,180,407,121,286,-264
,27,2023-10-20 13:07:01.69,130,-361,-2008,22,-17,181,534,218,316,-376
,28,2023-10-20 13:07:01.70,135,-357,-2009,13,-12,180,393,106,287,-249
,29,2023-10-20 13:07:01.71,127,-352,-2017,8,-6,176,512,208,304,-360
,30,2023-10-20 13:07:01.72,143,-354,-2024,4,-18,176,380,91,289,-235
,31,2023-10-20 13:07:01.73,158,-346,-2041,-4,-29,176,525,200,325,-362
,32,2023-10-20 13:07:01.74,158,-335,-1998,-8,-32,176,402,98,304,-250
,33,2023-10-20 13:07:01.75,169,-333,-1975,-16,-22,171,559,235,324,-397
,34,2023-10-20 13:07:01.76,173,-311,-1993,-27,4,159,414,111,303,-262
,35,2023-10-20 13:07:01.77,166,-308,-2000,-39,12,151,539,230,309,-384
,36,2023-10-20 13:07:01.78,177,-310,-2025,-44,13,144,399,99,300,-249
,37,2023-10-20 13:07:01.79,181,-331,-2017,-48,1,135,554,246,308,-400
,38,2023-10-20 13:07:01.80,181,-353,-2035,-31,-31,134,422,123,299,-272
,39,2023-10-20 13:07:01.81,164,-376,-2032,-7,-43,133,564,268,296,-416
,40,2023-10-20 13:07:01.82,168,-366,-2044,16,-64,145,442,128,314,-285
,41,2023-10-20 13:07:01.83,179,-372,-2037,30,-85,159,579,262,317,-420
,42,2023-10-20 13:07:01.84,167,-382,-2020,42,-87,171,430,127,303,-278
,43,2023-10-20 13:07:01.85,154,-385,-2026,56,-84,180,560,282,278,-421
,44,2023-10-20 13:07:01.86,145,-381,-2045,64,-88,192,445,142,303,-293
,45,2023-10-20 13:07:01.87,148,-373,-2045,71,-97,201,591,289,302,-440
,46,2023-10-20 13:07:01.88,142,-368,-2032,71,-94,207,459,141,318,-300
,47,2023-10-20 13:07:01.89,137,-369,-2038,65,-82,207,584,284,300,-434
,48,2023-10-20 13:07:01.90,138,-358,-2059,51,-75,203,467,135,332,-301
,49,2023-10-20 13:07:01.91,120,-348,-2059,39,-72,200,611,292,319,-451
,50,2023-10-20 13:07:01.92,107,-346,-2065,22,-71,194,484,148,336,-316
,51,2023-10-20 13:07:01.93,108,-348,-2068,5,-68,188,609,294,315,-451
,52,2023-10-20 13:07:01.94,108,-348,-2045,-20,-61,183,491,141,350,-316
,53,2023-10-20 13:07:01.95,125,-360,-1998,-27,-62,182,636,311,325,-473
,54,2023-10-20 13:07:01.96,110,-349,-1988,-30,-43,172,508,156,352,-332
,55,2023-10-20 13:07:01.97,114,-347,-1991,-28,-51,166,603,301,302,-452
,56,2023-10-20 13:07:01.98,91,-340,-2023,-25,-44,163,473,139,334,-306
,57,2023-10-20 13:07:01.99,80,-350,-2030,-20,-48,164,613,306,307,-459
,58,2023-10-20 13:07:02.00,69,-343,-2058,-6,-69,166,495,152,343,-323
,59,2023-10-20 13:07:02.01,65,-334,-2064,-9,-84,175,605,306,299,-455
,60,2023-10-20 13:07:02.02,61,-345,-2037,-13,-100,187,484,142,342,-313
,61,2023-10-20 13:07:02.03,61,-326,-2033,-12,-105,194,604,302,302,-453
,62,2023-10-20 13:07:02.04,91,-320,-2006,-19,-99,200,493,138,355,-315
,63,2023-10-20 13:07:02.05,91,-317,-1963,-15,-72,201,588,286,302,-437
,64,2023-10-20 13:07:02.06,97,-330,-1961,-1,-48,194,465,121,344,-293
,65,2023-10-20 13:07:02.07,96,-327,-1999,20,-38,192,561,273,288,-417
,66,2023-10-20 13:07:02.08,91,-322,-2042,26,-11,186,462,114,348,-288
,67,2023-10-20 13:07:02.09,94,-326,-2054,28,3,185,572,279,293,-425
,68,2023-10-20 13:07:02.10,85,-324,-2080,17,13,181,475,122,353,-298
,69,2023-10-20 13:07:02.11,92,-325,-2078,10,19,186,566,279,287,-422
,70,2023-10-20 13:07:02.12,88,-321,-2070,9,11,180,467,116,351,-291
,71,2023-10-20 13:07:02.13,86,-334,-2056,14,-2,178,554,267,287,-410
,72,2023-10-20 13:07:02.14,106,-338,-2041,29,-25,174,458,100,358,-279
,73,2023-10-20 13:07:02.15,101,-345,-2019,47,-35,168,538,254,284,-396
,74,2023-10-20 13:07:02.16,98,-342,-2025,60,-36,160,444,100,344,-272
,75,2023-10-20 13:07:02.17,100,-349,-2017,66,-30,150,500,238,262,-369
,76,2023-10-20 13:07:02.18,104,-357,-2013,75,-24,143,420,78,342,-249
,77,2023-10-20 13:07:02.19,89,-362,-2014,80,-26,137,489,216,273,-352
,78,2023-10-20 13:07:02.20,79,-360,-2009,92,-39,134,427,63,364,-245
,79,2023-10-20 13:07:02.21,54,-368,-2006,101,-67,135,674,102,572,-388
,80,2023-10-20 13:07:02.22,61,-368,-2038,103,-86,132,1196,-159,1355,-518
,81,2023-10-20 13:07:02.23,55,-371,-2025,102,-108,135,1431,-102,1533,-664
,82,2023-10-20 13:07:02.24,53,-360,-2026,94,-108,132,1357,-204,1561,-576
,83,2023-10-20 13:07:02.25,68,-349,-2024,73,-106,129,1235,-22,1257,-606
,84,2023-10-20 13:07:02.26,43,-347,-2027,59,-91,125,1202,-102,1304,-550
,85,2023-10-20 13:07:02.27,40,-357,-2033,49,-93,121,1214,61,1153,-637
,86,2023-10-20 13:07:02.28,39,-366,-2036,49,-98,116,1199,-52,1251,-573
,87,2023-10-20 13:07:02.29,25,-367,-2033,48,-107,112,1179,102,1077,-640
,88,2023-10-20 13:07:02.30,30,-369,-2051,51,-105,106,1119,-21,1140,-549
,89,2023-10-20 13:07:02.31,19,-365,-2053,39,-86,103,1100,132,968,-616
,90,2023-10-20 13:07:02.32,5,-381,-2039,32,-94,100,1038,8,1030,-523
,91,2023-10-20 13:07:02.33,5,-386,-2042,38,-99,103,1049,169,880,-609
,92,2023-10-20 13:07:02.34,-7,-379,-2028,38,-97,105,984,43,941,-513
,93,2023-10-20 13:07:02.35,-8,-387,-2015,32,-83,102,982,191,791,-586
,94,2023-10-20 13:07:02.36,-13,-392,-2003,36,-76,101,890,59,831,-474
,95,2023-10-20 13:07:02.37,-10,-382,-1994,34,-49,100,875,200,675,-537
,96,2023-10-20 13:07:02.38,-21,-387,-1980,32,-30,102,804,64,740,-434
,97,2023-10-20 13:07:02.39,-16,-389,-1991,35,-25,99,801,200,601,-500
,98,2023-10-20 13:07:02.40,-14,-395,-2007,37,-22,98,750,75,675,-412
,99,2023-10-20 13:07:02.41,-16,-405,-1985,49,-20,96,746,215,531,-480
,100,2023-10-20 13:07:02.42,-3,-404,-1987,67,-28,95,700,89,611,-394
,101,2023-10-20 13:07:02.43,3,-407,-1992,75,-4,96,695,224,471,-459
,102,2023-10-20 13:07:02.44,5,-412,-1997,92,3,96,659,103,556,-381
,103,2023-10-20 13:07:02.45,-1,-401,-1988,102,13,94,650,230,420,-440
,104,2023-10-20 13:07:02.46,22,-393,-2007,109,8,90,626,103,523,-364
,105,2023-10-20 13:07:02.47,22,-396,-2005,102,16,85,616,228,388,-422
,106,2023-10-20 13:07:02.48,37,-396,-2001,101,14,80,588,102,486,-345
,107,2023-10-20 13:07:02.49,30,-400,-2005,89,27,80,571,215,356,-393
,108,2023-10-20 13:07:02.50,23,-412,-2005,73,50,78,564,99,465,-331
,109,2023-10-20 13:07:02.51,49,-410,-2007,70,54,69,553,213,340,-383
,110,2023-10-20 13:07:02.52,44,-411,-1998,69,53,68,560,112,448,-336
,111,2023-10-20 13:07:02.53,75,-410,-1995,71,51,61,550,227,323,-388
,112,2023-10-20 13:07:02.54,54,-376,-1990,65,59,50,551,123,428,-337
,113,2023-10-20 13:07:02.55,70,-409,-2043,48,56,41,526,222,304,-374
,114,2023-10-20 13:07:02.56,65,-382,-2026,19,68,46,541,118,423,-329
,115,2023-10-20 13:07:02.57,60,-386,-2062,-2,50,44,538,239,299,-388
,116,2023-10-20 13:07:02.58,44,-369,-2098,-47,37,46,551,139,412,-345
,117,2023-10-20 13:07:02.59,50,-359,-2098,-76,11,51,523,238,285,-380
,118,2023-10-20 13:07:02.60,39,-347,-2085,-102,-19,60,522,124,398,-323
,119,2023-10-20 13:07:02.61,49,-346,-2065,-123,-43,64,500,221,279,-360
,120,2023-10-20 13:07:02.62,42,-329,-2057,-141,-52,67,540,139,401,-339
,121,2023-10-20 13:07:02.63,41,-339,-2043,-147,-56,71,500,226,274,-363
,122,2023-10-20 13:07:02.64,46,-351,-2014,-142,-50,74,533,144,389,-338
,123,2023-10-20 13:07:02.65,50,-354,-2018,-128,-55,79,488,223,265,-355
,124,2023-10-20 13:07:02.66,24,-356,-2013,-105,-45,83,524,138,386,-331
,125,2023-10-20 13:07:02.67,19,-343,-2000,-73,-60,85,480,212,268,-346
,126,2023-10-20 13:07:02.68,29,-343,-2008,-47,-59,83,531,153,378,-342
,127,2023-10-20 13:07:02.69,26,-349,-2009,-18,-53,79,486,226,260,-356
,128,2023-10-20 13:07:02.70,29,-351,-2022,5,-53,71,542,155,387,-348
,129,2023-10-20 13:07:02.71,41,-336,-2036,28,-60,60,481,213,268,-347
,130,2023-10-20 13:07:02.72,38,-338,-2036,48,-68,46,521,151,370,-336
,131,2023-10-20 13:07:02.73,35,-348,-2032,53,-56,35,458,204,254,-331
,132,2023-10-20 13:07:02.74,33,-385,-2030,55,-54,23,518,148,370,-333
,133,2023-10-20 13:07:02.75,16,-381,-2042,59,-37,16,462,201,261,-331
,134,2023-10-20 13:07:02.76,7,-392,-2046,68,-33,14,528,157,371,-342
,135,2023-10-20 13:07:02.77,-11,-411,-2025,68,-41,14,462,206,256,-334
,136,2023-10-20 13:07:02.78,-8,-438,-2032,78,-63,18,524,160,364,-342
,137,2023-10-20 13:07:02.79,-9,-426,-2013,82,-50,27,449,198,251,-323
,138,2023-10-20 13:07:02.80,8,-424,-1996,81,-55,37,518,164,354,-341
,139,2023-10-20 13:07:02.81,-17,-430,-1988,75,-40,40,445,194,251,-319
,140,2023-10-20 13:07:02.82,-20,-430,-1996,72,-38,45,513,164,349,-338
,141,2023-10-20 13:07:02.83,-23,-423,-1997,77,-54,53,435,188,247,-311
,142,2023-10-20 13:07:02.84,-18,-434,-1994,78,-69,60,508,159,349,-333
,143,2023-10-20 13:07:02.85,-13,-420,-1990,74,-73,65,425,177,248,-301
,144,2023-10-20 13:07:02.86,-39,-413,-1998,75,-79,68,505,151,354,-328
,145,2023-10-20 13:07:02.87,-36,-411,-2021,68,-80,72,421,170,251,-295
,146,2023-10-20 13:07:02.88,-45,-421,-2020,54,-79,74,500,157,343,-328
,147,2023-10-20 13:07:02.89,-48,-425,-2012,43,-77,78,408,170,238,-289
,148,2023-10-20 13:07:02.90,-41,-429,-2020,32,-71,85,488,164,324,-326
,149,2023-10-20 13:07:02.91,-55,-428,-2011,19,-56,87,396,166,230,-281
,150,2023-10-20 13:07:02.92,-50,-414,-2017,5,-40,83,493,162,331,-327
,151,2023-10-20 13:07:02.93,-49,-405,-2010,-5,-24,80,403,163,240,-283
,152,2023-10-20 13:07:02.94,-41,-398,-2003,-17,-6,72,502,166,336,-334
,153,2023-10-20 13:07:02.95,-42,-390,-2003,-38,27,47,408,160,248,-284
,154,2023-10-20 13:07:02.96,-35,-381,-2016,-40,36,37,504,169,335,-336
,155,2023-10-20 13:07:02.97,-23,-373,-2025,-42,40,22,402,162,240,-282
,156,2023-10-20 13:07:02.98,-16,-376,-2026,-41,36,13,515,189,326,-352
,157,2023-10-20 13:07:02.99,-32,-372,-2025,-39,27,4,392,183,209,-287
,158,2023-10-20 13:07:03.00,-21,-385,-2021,-32,17,0,690,268,422,-479
,159,2023-10-20 13:07:03.01,-16,-376,-2016,-25,6,-1,767,189,578,-478
,160,2023-10-20 13:07:03.02,-15,-375,-2013,-20,-5,-4,1090,158,932,-624
,161,2023-10-20 13:07:03.03,-10,-394,-2011,-7,-6,0,989,48,941,-518
,162,2023-10-20 13:07:03.04,-7,-387,-2008,2,-3,0,1253,59,1194,-656
,163,2023-10-20 13:07:03.05,-6,-375,-2003,4,4,-1,1017,-10,1027,-503
,164,2023-10-20 13:07:03.06,9,-382,-2007,12,13,-4,1214,-6,1220,-604
,165,2023-10-20 13:07:03.07,-2,-382,-2014,23,17,-7,964,-65,1029,-449
,166,2023-10-20 13:07:03.08,0,-381,-2028,31,15,-10,1192,-37,1229,-577
,167,2023-10-20 13:07:03.09,3,-387,-2042,32,10,-10,990,-88,1078,-451
,168,2023-10-20 13:07:03.10,2,-381,-2037,31,2,-10,1239,-52,1291,-593
,169,2023-10-20 13:07:03.11,-17,-382,-2032,34,-2,-11,998,-92,1090,-453
,170,2023-10-20 13:07:03.12,-2,-393,-2026,32,-3,-12,1192,-85,1277,-553
,171,2023-10-20 13:07:03.13,-4,-385,-2034,27,-9,-14,952,-140,1092,-406
,172,2023-10-20 13:07:03.14,-3,-393,-2031,26,-11,-9,1140,-138,1278,-501
,173,2023-10-20 13:07:03.15,-24,-393,-2022,24,-16,-7,945,-181,1126,-382
,174,2023-10-20 13:07:03.16,-8,-399,-2015,23,-13,-8,1157,-172,1329,-492
,175,2023-10-20 13:07:03.17,-22,-402,-2027,20,0,-2,981,-196,1177,-392
,176,2023-10-20 13:07:03.18,-23,-398,-2033,14,-1,0,1221,-123,1344,-549
,177,2023-10-20 13:07:03.19,-22,-391,-2035,15,2,1,984,-163,1147,-410
,178,2023-10-20 13:07:03.20,-35,-376,-2030,6,-11,4,1149,-177,1326,-486
,179,2023-10-20 13:07:03.21,-16,-377,-2017,0,0,3,941,-223,1164,-359
,180,2023-10-20 13:07:03.22,-12,-370,-1998,-13,15,0,1140,-202,1342,-469
,181,2023-10-20 13:07:03.23,-38,-403,-1998,-22,37,-7,980,-240,1220,-370
,182,2023-10-20 13:07:03.24,-42,-396,-2019,-13,36,-12,1197,-227,1424,-485
,183,2023-10-20 13:07:03.25,-37,-385,-2025,2,23,-11,1008,-263,1271,-372
,184,2023-10-20 13:07:03.26,-12,-391,-2023,11,-5,-13,1198,-237,1435,-480
,185,2023-10-20 13:07:03.27,-28,-390,-2012,12,-1,-15,980,-266,1246,-357
,186,2023-10-20 13:07:03.28,-14,-387,-2012,12,3,-15,1138,-234,1372,-452
,187,2023-10-20 13:07:03.29,-29,-391,-2013,10,7,-18,996,-261,1257,-367
,188,2023-10-20 13:07:03.30,-32,-387,-2017,9,10,-16,1209,-190,1399,-509
,189,2023-10-20 13:07:03.31,-21,-385,-2014,4,13,-15,1007,-216,1223,-395
,190,2023-10-20 13:07:03.32,-20,-399,-2016,-5,21,-9,1155,-165,1320,-495
,191,2023-10-20 13:07:03.33,-34,-393,-2023,-7,33,-8,975,-217,1192,-379
,192,2023-10-20 13:07:03.34,-22,-405,-2029,-7,35,-1,1147,-193,1340,-477
,193,2023-10-20 13:07:03.35,-11,-408,-2020,-7,45,8,1021,-250,1271,-385
,194,2023-10-20 13:07:03.36,3,-414,-2001,-9,60,14,1199,-208,1407,-495
,195,2023-10-20 13:07:03.37,-2,-412,-2008,-4,83,21,1012,-256,1268,-378
,196,2023-10-20 13:07:03.38,10,-394,-2010,-7,105,26,1132,-206,1338,-463
,197,2023-10-20 13:07:03.39,21,-378,-2019,-18,117,28,1024,-226,1250,-399
,198,2023-10-20 13:07:03.40,8,-362,-2030,-28,123,27,1191,-157,1348,-517
,199,2023-10-20 13:07:03.41,19,-358,-2023,-40,117,19,1019,-222,1241,-398
,200,2023-10-20 13:07:03.42,31,-349,-2024,-47,114,11,1113,-211,1324,-451
,201,2023-10-20 13:07:03.43,34,-349,-2021,-54,106,2,1021,-247,1268,-387
,202,2023-10-20 13:07:03.44,41,-350,-2027,-54,98,-8,1176,-154,1330,-511
,203,2023-10-20 13:07:03.45,42,-355,-2028,-53,87,-12,1040,-202,1242,-419
,204,2023-10-20 13:07:03.46,49,-353,-2034,-52,76,-17,1131,-156,1287,-487
,205,2023-10-20 13:07:03.47,47,-353,-2033,-44,63,-18,1019,-207,1226,-406
,206,2023-10-20 13:07:03.48,50,-358,-2030,-39,53,-16,1122,-154,1276,-484
,207,2023-10-20 13:07:03.49,55,-359,-2029,-32,43,-15,1054,-198,1252,-428
,208,2023-10-20 13:07:03.50,56,-358,-2020,-22,32,-14,1156,-160,1316,-498
,209,2023-10-20 13:07:03.51,47,-359,-2026,-13,26,-11,1012,-246,1258,-383
,210,2023-10-20 13:07:03.52,46,-354,-2051,-7,21,-10,1071,-242,1313,-414
,211,2023-10-20 13:07:03.53,43,-368,-2074,-5,15,-4,997,-284,1281,-356
,212,2023-10-20 13:07:03.54,23,-395,-2070,3,1,7,1076,-331,1407,-372
,213,2023-10-20 13:07:03.55,25,-401,-2061,15,-12,18,981,-532,1513,-224
,214,2023-10-20 13:07:03.56,19,-403,-2047,27,-19,33,1046,-817,1863,-114
,215,2023-10-20 13:07:03.57,22,-408,-2028,33,-20,44,1000,-891,1891,-54
,216,2023-10-20 13:07:03.58,24,-401,-2011,44,-13,52,1072,-949,2021,-61
,217,2023-10-20 13:07:03.59,24,-379,-2000,53,-6,56,1005,-879,1884,-63
,218,2023-10-20 13:07:03.60,11,-377,-2002,52,12,55,1045,-907,1952,-69
,219,2023-10-20 13:07:03.61,13,-371,-2002,48,19,51,972,-835,1807,-68
,220,2023-10-20 13:07:03.62,7,-365,-2011,40,20,46,1013,-766,1779,-123
,221,2023-10-20 13:07:03.63,-1,-368,-2008,34,18,45,993,-769,1762,-112
,222,2023-10-20 13:07:03.64,11,-374,-2007,37,14,40,1041,-923,1964,-59
,223,2023-10-20 13:07:03.65,9,-380,-2015,37,11,35,1023,-967,1990,-28
,224,2023-10-20 13:07:03.66,-8,-374,-2019,34,-1,34,1056,-1018,2074,-19
,225,2023-10-20 13:07:03.67,-5,-375,-2010,30,-8,34,1031,-979,2010,-26
,226,2023-10-20 13:07:03.68,22,-383,-2001,27,-8,34,1050,-1003,2053,-23
,227,2023-10-20 13:07:03.69,8,-374,-2006,26,2,34,1008,-974,1982,-17
,228,2023-10-20 13:07:03.70,9,-371,-2022,24,13,31,1033,-1012,2045,-10
,229,2023-10-20 13:07:03.71,4,-374,-2029,31,17,31,1083,-1010,2093,-36
,230,2023-10-20 13:07:03.72,15,-367,-2029,37,13,27,1205,-1079,2284,-63
,231,2023-10-20 13:07:03.73,20,-376,-2049,42,8,24,1197,-1083,2280,-57
,232,2023-10-20 13:07:03.74,14,-378,-2051,52,5,21,1237,-1096,2333,-70
,233,2023-10-20 13:07:03.75,19,-372,-2055,55,-4,16,1199,-1043,2242,-78
,234,2023-10-20 13:07:03.76,8,-394,-2052,58,-4,19,1222,-957,2179,-132
,235,2023-10-20 13:07:03.77,14,-392,-2034,65,-4,20,1192,-893,2085,-149
,236,2023-10-20 13:07:03.78,25,-388,-2021,71,-7,16,1207,-785,1992,-211
,237,2023-10-20 13:07:03.79,16,-401,-2003,80,-6,23,1147,-753,1900,-197
,238,2023-10-20 13:07:03.80,20,-398,-1991,88,6,21,1177,-624,1801,-276
,239,2023-10-20 13:07:03.81,33,-398,-1985,95,22,17,1067,-625,1692,-221
,240,2023-10-20 13:07:03.82,19,-393,-2008,90,35,16,1087,-491,1578,-298
,241,2023-10-20 13:07:03.83,16,-396,-2012,82,37,11,950,-518,1468,-216
,242,2023-10-20 13:07:03.84,18,-407,-2021,72,35,11,995,-370,1365,-312
,243,2023-10-20 13:07:03.85,25,-407,-2016,63,28,6,848,-411,1259,-218
,244,2023-10-20 13:07:03.86,32,-413,-2005,54,24,5,862,-258,1120,-302
,245,2023-10-20 13:07:03.87,36,-406,-2006,45,28,5,718,-317,1035,-200
,246,2023-10-20 13:07:03.88,33,-404,-2025,33,29,2,732,-165,897,-283
,247,2023-10-20 13:07:03.89,32,-404,-2034,16,24,0,601,-250,851,-175
,248,2023-10-20 13:07:03.90,41,-410,-2041,5,11,4,640,-89,729,-275
,249,2023-10-20 13:07:03.91,29,-416,-2042,-4,-2,6,540,-183,723,-178
,250,2023-10-20 13:07:03.92,29,-413,-2048,-10,-11,12,568,-36,604,-266
,251,2023-10-20 13:07:03.93,22,-415,-2032,-14,-16,17,480,-137,617,-171
,252,2023-10-20 13:07:03.94,30,-405,-2038,-20,-18,24,496,5,491,-250
,253,2023-10-20 13:07:03.95,23,-403,-2031,-20,-15,28,504,-13,517,-245
,254,2023-10-20 13:07:03.96,25,-398,-2032,-19,-16,28,766,54,712,-410
,255,2023-10-20 13:07:03.97,17,-393,-2017,-14,-13,30,1141,-128,1269,-506
,256,2023-10-20 13:07:03.98,20,-389,-2016,-10,-12,26,1145,-134,1279,-505
,257,2023-10-20 13:07:03.99,22,-383,-2007,-6,-6,24,1171,-231,1402,-470
,258,2023-10-20 13:07:04.00,20,-383,-2017,-3,-3,17,1031,-153,1184,-439
,259,2023-10-20 13:07:04.01,9,-386,-2009,3,1,16,1116,-230,1346,-443
,260,2023-10-20 13:07:04.02,4,-388,-2009,6,2,10,1038,-177,1215,-430
,261,2023-10-20 13:07:04.03,9,-375,-2006,5,1,7,1152,-268,1420,-442
,262,2023-10-20 13:07:04.04,13,-378,-2003,9,3,0,1044,-194,1238,-425
,263,2023-10-20 13:07:04.05,19,-389,-1992,9,13,-1,1196,-231,1427,-482
,264,2023-10-20 13:07:04.06,20,-391,-2012,4,20,-3,1068,-128,1196,-470
,265,2023-10-20 13:07:04.07,13,-400,-2024,3,23,-1,1151,-187,1338,-482
,266,2023-10-20 13:07:04.08,25,-399,-2030,7,14,-3,1010,-127,1137,-441
,267,2023-10-20 13:07:04.09,40,-400,-2020,9,4,2,1114,-228,1342,-443
,268,2023-10-20 13:07:04.10,22,-386,-2033,4,1,2,1001,-179,1180,-411
,269,2023-10-20 13:07:04.11,18,-396,-2057,0,-8,3,1128,-275,1403,-426
,270,2023-10-20 13:07:04.12,17,-415,-2063,-5,-24,9,1007,-240,1247,-383
,271,2023-10-20 13:07:04.13,5,-420,-2055,1,-40,18,1145,-323,1468,-411
,272,2023-10-20 13:07:04.14,1,-417,-2031,-1,-50,27,1010,-267,1277,-371
,273,2023-10-20 13:07:04.15,-7,-412,-2024,0,-49,36,1168,-312,1480,-428
,274,2023-10-20 13:07:04.16,8,-399,-2026,-8,-39,39,1012,-222,1234,-395
,275,2023-10-20 13:07:04.17,-6,-403,-2012,-16,-29,39,1168,-219,1387,-474
,276,2023-10-20 13:07:04.18,-2,-396,-1992,-18,-11,37,1009,-121,1130,-444
,277,2023-10-20 13:07:04.19,4,-391,-1984,-20,9,32,1177,-160,1337,-508
,278,2023-10-20 13:07:04.20,1,-380,-1994,-20,36,22,1018,-116,1134,-451
,279,2023-10-20 13:07:04.21,13,-370,-2003,-25,51,11,1197,-202,1399,-497
,280,2023-10-20 13:07:04.22,7,-371,-2014,-29,56,0,1013,-170,1183,-421
,281,2023-10-20 13:07:04.23,13,-379,-2019,-22,48,-9,1207,-219,1426,-494
,282,2023-10-20 13:07:04.24,16,-374,-2013,-19,38,-16,1014,-168,1182,-423
,283,2023-10-20 13:07:04.25,29,-383,-2021,-19,25,-23,1169,-205,1374,-482
,284,2023-10-20 13:07:04.26,36,-387,-2027,-13,17,-25,983,-147,1130,-418
,285,2023-10-20 13:07:04.27,28,-390,-2025,-9,10,-24,1173,-177,1350,-498
,286,2023-10-20 13:07:04.28,44,-391,-2043,-5,6,-22,1007,-122,1129,-442
,287,2023-10-20 13:07:04.29,35,-394,-2028,2,2,-19,1171,-185,1356,-493
,288,2023-10-20 13:07:04.30,29,-396,-2026,9,2,-18,985,-166,1151,-409
,289,2023-10-20 13:07:04.31,33,-387,-2030,16,3,-15,1226,-226,1452,-500
,290,2023-10-20 13:07:04.32,30,-384,-2045,25,-4,-11,1019,-184,1203,-417
,291,2023-10-20 13:07:04.33,32,-385,-2028,29,-8,-14,1182,-216,1398,-483
,292,2023-10-20 13:07:04.34,34,-388,-2024,30,-12,-14,980,-171,1151,-404
,293,2023-10-20 13:07:04.35,22,-388,-2018,35,-16,-14,1233,-199,1432,-517
,294,2023-10-20 13:07:04.36,22,-393,-2023,39,-13,-14,1020,-121,1141,-449
,295,2023-10-20 13:07:04.37,34,-384,-2021,43,-10,-10,1236,-62,1298,-587
,296,2023-10-20 13:07:04.38,19,-399,-2012,45,-15,-6,1005,7,998,-506
,297,2023-10-20 13:07:04.39,29,-401,-2023,49,-18,-1,1211,23,1188,-617
,298,2023-10-20 13:07:04.40,21,-392,-2033,49,-19,2,996,40,956,-518
,299,2023-10-20 13:07:04.41,9,-399,-2040,49,-26,10,1233,35,1198,-634
,300,2023-10-20 13:07:04.42,13,-404,-2046,42,-34,18,1014,38,976,-526
,301,2023-10-20 13:07:04.43,10,-402,-2037,33,-35,24,1235,7,1228,-621
,302,2023-10-20 13:07:04.44,-2,-403,-2024,28,-39,31,1003,-14,1017,-494
,303,2023-10-20 13:07:04.45,2,-396,-2018,21,-39,35,1232,-40,1272,-596
,304,2023-10-20 13:07:04.46,10,-389,-2005,12,-33,37,992,-45,1037,-473
,305,2023-10-20 13:07:04.47,11,-387,-1993,0,-12,34,1190,-56,1246,-567
,306,2023-10-20 13:07:04.48,7,-390,-1990,-2,-3,32,961,-51,1012,-455
,307,2023-10-20 13:07:04.49,3,-387,-2003,-9,10,27,1187,-75,1262,-556
,308,2023-10-20 13:07:04.50,5,-381,-2015,-15,26,22,972,-91,1063,-440
,309,2023-10-20 13:07:04.51,2,-392,-2012,-17,41,18,1202,-107,1309,-547
,310,2023-10-20 13:07:04.52,9,-388,-2013,-17,53,14,975,-100,1075,-437
,311,2023-10-20 13:07:04.53,10,-376,-2022,-19,62,13,1208,-89,1297,-559
,312,2023-10-20 13:07:04.54,23,-370,-2037,-21,62,10,976,-90,1066,-443
,313,2023-10-20 13:07:04.55,22,-376,-2039,-23,54,7,1188,-114,1302,-537
,314,2023-10-20 13:07:04.56,29,-373,-2038,-21,40,5,974,-130,1104,-422
,315,2023-10-20 13:07:04.57,30,-374,-2020,-13,29,7,1244,-97,1341,-573
,316,2023-10-20 13:07:04.58,35,-366,-2027,-7,17,3,1013,-87,1100,-463
,317,2023-10-20 13:07:04.59,38,-379,-2031,1,15,1,1242,-72,1314,-585
,318,2023-10-20 13:07:04.60,31,-382,-2021,7,13,1,984,-87,1071,-448
,319,2023-10-20 13:07:04.61,35,-380,-2019,14,19,0,1195,-76,1271,-559
,320,2023-10-20 13:07:04.62,25,-388,-2026,17,19,2,989,-88,1077,-450
,321,2023-10-20 13:07:04.63,29,-390,-2035,20,14,3,1240,-53,1293,-593
,322,2023-10-20 13:07:04.64,29,-389,-2027,24,12,7,1002,-54,1056,-474
,323,2023-10-20 13:07:04.65,34,-394,-2020,21,8,8,1219,-16,1235,-601
,324,2023-10-20 13:07:04.66,21,-397,-2007,21,7,9,992,-33,1025,-479
,325,2023-10-20 13:07:04.67,38,-394,-2008,27,9,12,1231,4,1227,-617
,326,2023-10-20 13:07:04.68,29,-402,-2015,25,11,14,977,-44,1021,-466
,327,2023-10-20 13:07:04.69,35,-400,-2027,25,6,15,1177,-37,1214,-570
,328,2023-10-20 13:07:04.70,24,-396,-2029,23,-4,18,975,-79,1054,-448
,329,2023-10-20 13:07:04.71,24,-395,-2016,20,-12,19,1235,-21,1256,-607
,330,2023-10-20 13:07:04.72,23,-410,-2025,15,-15,21,1013,-61,1074,-476
,331,2023-10-20 13:07:04.73,19,-404,-2018,16,-15,28,1218,-47,1265,-585
,332,2023-10-20 13:07:04.74,27,-406,-2022,15,-17,33,1000,-95,1095,-452
,333,2023-10-20 13:07:04.75,16,-407,-2028,15,-21,38,1232,-37,1269,-597
,334,2023-10-20 13:07:04.76,10,-395,-2018,14,-20,45,1009,-77,1086,-466
,335,2023-10-20 13:07:04.77,6,-388,-2018,9,-16,48,1224,-34,1258,-595
,336,2023-10-20 13:07:04.78,24,-397,-2019,4,-10,45,1005,-77,1082,-464
,337,2023-10-20 13:07:04.79,23,-387,-2009,-2,-1,46,1223,-40,1263,-591
,338,2023-10-20 13:07:04.80,14,-393,-2020,-3,9,44,1010,-104,1114,-453
,339,2023-10-20 13:07:04.81,16,-389,-2020,-4,10,40,1222,-47,1269,-587
,340,2023-10-20 13:07:04.82,12,-384,-2019,-3,12,40,984,-89,1073,-447
,341,2023-10-20 13:07:04.83,7,-374,-2018,-8,8,36,1156,-110,1266,-523
,342,2023-10-20 13:07:04.84,9,-389,-2016,-10,7,36,975,-185,1160,-395
,343,2023-10-20 13:07:04.85,18,-383,-2019,-10,5,34,1187,-156,1343,-515
,344,2023-10-20 13:07:04.86,21,-380,-2022,-8,4,33,972,-201,1173,-385
,345,2023-10-20 13:07:04.87,24,-393,-2013,-7,6,32,1141,-179,1320,-481
,346,2023-10-20 13:07:04.88,7,-387,-2008,3,16,35,972,-218,1190,-377
,347,2023-10-20 13:07:04.89,13,-384,-2031,8,13,33,1181,-162,1343,-509
,348,2023-10-20 13:07:04.90,24,-379,-2029,14,7,33,992,-189,1181,-401
,349,2023-10-20 13:07:04.91,22,-385,-2027,15,2,32,1173,-139,1312,-517
,350,2023-10-20 13:07:04.92,19,-387,-2021,16,-2,29,1018,-194,1212,-412
,351,2023-10-20 13:07:04.93,22,-386,-2026,15,-1,29,1216,-147,1363,-534
,352,2023-10-20 13:07:04.94,28,-393,-2021,17,3,26,1023,-189,1212,-417
,353,2023-10-20 13:07:04.95,9,-386,-2022,18,8,22,1174,-108,1282,-533
,354,2023-10-20 13:07:04.96,30,-388,-2015,18,6,21,981,-157,1138,-412
,355,2023-10-20 13:07:04.97,16,-390,-2014,20,5,20,1138,-129,1267,-504
,356,2023-10-20 13:07:04.98,9,-387,-2020,21,3,16,1013,-208,1221,-402
,357,2023-10-20 13:07:04.99,13,-392,-2021,20,4,17,1202,-138,1340,-532
,358,2023-10-20 13:07:05.00,21,-395,-2020,16,2,13,1043,-163,1206,-440
,359,2023-10-20 13:07:05.01,19,-392,-2031,10,3,15,1192,-46,1238,-573
,360,2023-10-20 13:07:05.02,21,-401,-2026,8,4,12,1016,-110,1126,-453
,361,2023-10-20 13:07:05.03,20,-395,-2024,8,5,13,1162,-20,1182,-571
,362,2023-10-20 13:07:05.04,15,-395,-2018,4,9,14,989,-113,1102,-438
,363,2023-10-20 13:07:05.05,15,-404,-2021,1,9,14,1129,-59,1188,-535
,364,2023-10-20 13:07:05.06,16,-399,-2020,0,9,14,987,-151,1138,-418
,365,2023-10-20 13:07:05.07,15,-396,-2024,1,8,14,1116,-69,1185,-523
,366,2023-10-20 13:07:05.08,7,-392,-2018,0,9,15,1029,-135,1164,-447
,367,2023-10-20 13:07:05.09,10,-391,-2016,-3,8,14,1180,-43,1223,-568
,368,2023-10-20 13:07:05.10,19,-401,-2009,0,12,16,1020,-135,1155,-442
,369,2023-10-20 13:07:05.11,20,-399,-2003,4,21,13,1113,-89,1202,-512
,370,2023-10-20 13:07:05.12,21,-393,-2004,14,33,10,1015,-188,1203,-413
,371,2023-10-20 13:07:05.13,16,-400,-2013,27,41,7,1165,-104,1269,-530
,372,2023-10-20 13:07:05.14,9,-373,-2028,32,36,7,1050,-174,1224,-438
,373,2023-10-20 13:07:05.15,28,-377,-2046,13,16,3,1132,-100,1232,-516
,374,2023-10-20 13:07:05.16,18,-402,-2032,3,7,5,1054,-181,1235,-436
,375,2023-10-20 13:07:05.17,23,-403,-2028,0,-4,8,1160,-90,1250,-535
,376,2023-10-20 13:07:05.18,29,-407,-2018,6,-8,9,1073,-155,1228,-459
,377,2023-10-20 13:07:05.19,29,-405,-2033,9,-11,11,1142,-60,1202,-541
,378,2023-10-20 13:07:05.20,24,-399,-2036,7,-10,17,1072,-139,1211,-466
,379,2023-10-20 13:07:05.21,14,-404,-2036,5,-12,23,1146,-52,1198,-547
,380,2023-10-20 13:07:05.22,15,-396,-2023,8,-13,28,1068,-143,1211,-462
,381,2023-10-20 13:07:05.23,21,-391,-2023,14,-14,32,1120,-62,1182,-529
,382,2023-10-20 13:07:05.24,29,-379,-2017,15,-15,34,1076,-152,1228,-462
,383,2023-10-20 13:07:05.25,15,-378,-2025,14,-13,35,1131,-48,1179,-541
,384,2023-10-20 13:07:05.26,22,-378,-2016,13,-14,34,1075,-141,1216,-467
,385,2023-10-20 13:07:05.27,20,-383,-2013,15,-10,32,1117,-52,1169,-532
,386,2023-10-20 13:07:05.28,14,-376,-2014,12,-6,28,1076,-140,1216,-468
,387,2023-10-20 13:07:05.29,12,-383,-2025,8,-2,25,1111,-45,1156,-533
,388,2023-10-20 13:07:05.30,25,-381,-2026,4,-3,21,1062,-150,1212,-456
,389,2023-10-20 13:07:05.31,9,-378,-2030,8,-3,19,1085,-82,1167,-501
,390,2023-10-20 13:07:05.32,23,-390,-2024,10,-7,14,1093,-158,1251,-467
,391,2023-10-20 13:07:05.33,0,-394,-2021,14,-11,14,1125,-33,1158,-546
,392,2023-10-20 13:07:05.34,9,-390,-2019,18,-11,13,1076,-148,1224,-464
,393,2023-10-20 13:07:05.35,23,-402,-2017,21,-11,13,1076,-101,1177,-487
,394,2023-10-20 13:07:05.36,34,-397,-2016,21,-7,13,1088,-212,1300,-438
,395,2023-10-20 13:07:05.37,25,-392,-2014,24,-3,12,1106,-132,1238,-487
,396,2023-10-20 13:07:05.38,27,-396,-2004,26,5,13,1115,-207,1322,-454
,397,2023-10-20 13:07:05.39,31,-395,-2018,28,14,13,1102,-98,1200,-502
,398,2023-10-20 13:07:05.40,30,-393,-2021,32,13,13,1095,-191,1286,-452
,399,2023-10-20 13:07:05.41,26,-394,-2047,32,4,17,1073,-97,1170,-488
,400,2023-10-20 13:07:05.42,27,-392,-2039,32,-7,22,1064,-202,1266,-431
,401,2023-10-20 13:07:05.43,24,-391,-2024,29,-17,23,1044,-113,1157,-465
,402,2023-10-20 13:07:05.44,31,-393,-2020,27,-18,24,1080,-199,1279,-440
,403,2023-10-20 13:07:05.45,30,-397,-2026,25,-15,25,1064,-135,1199,-464
,404,2023-10-20 13:07:05.46,25,-398,-2014,22,-14,22,1096,-242,1338,-427
,405,2023-10-20 13:07:05.47,24,-400,-2024,25,-12,21,1059,-159,1218,-450
,406,2023-10-20 13:07:05.48,24,-394,-2020,21,-10,24,1094,-240,1334,-427
,407,2023-10-20 13:07:05.49,9,-397,-2027,18,-8,21,1057,-150,1207,-453
,408,2023-10-20 13:07:05.50,12,-392,-2030,15,-7,20,1088,-239,1327,-424
,409,2023-10-20 13:07:05.51,21,-389,-2029,11,-10,22,1040,-165,1205,-437
,410,2023-10-20 13:07:05.52,21,-384,-2028,1,-10,21,1098,-257,1355,-420
,411,2023-10-20 13:07:05.53,7,-389,-2020,-4,-7,20,1032,-187,1219,-422
,412,2023-10-20 13:07:05.54,7,-386,-2019,-7,-6,21,1107,-255,1362,-426
,413,2023-10-20 13:07:05.55,8,-391,-2015,-7,-8,20,1045,-168,1213,-438
,414,2023-10-20 13:07:05.56,11,-398,-2014,-5,-4,17,1093,-247,1340,-423
,415,2023-10-20 13:07:05.57,13,-384,-2016,-8,-3,19,1024,-159,1183,-432
,416,2023-10-20 13:07:05.58,18,-386,-2016,-8,3,14,1148,-243,1391,-452
,417,2023-10-20 13:07:05.59,4,-384,-2017,-7,7,15,1073,-153,1226,-460
,418,2023-10-20 13:07:05.60,5,-392,-2011,-2,10,14,1154,-225,1379,-464
,419,2023-10-20 13:07:05.61,13,-380,-2010,11,21,11,1049,-126,1175,-461
,420,2023-10-20 13:07:05.62,17,-380,-2023,17,23,10,1104,-218,1322,-443
,421,2023-10-20 13:07:05.63,-1,-384,-2035,22,20,9,1012,-154,1166,-429
,422,2023-10-20 13:07:05.64,7,-375,-2036,19,5,7,1134,-230,1364,-452
,423,2023-10-20 13:07:05.65,11,-392,-2028,16,-8,11,1037,-132,1169,-452
,424,2023-10-20 13:07:05.66,7,-399,-2019,18,-14,15,1108,-210,1318,-449
,425,2023-10-20 13:07:05.67,10,-398,-2020,21,-12,18,999,-134,1133,-432
,426,2023-10-20 13:07:05.68,15,-401,-2026,20,-7,22,1145,-228,1373,-458
,427,2023-10-20 13:07:05.69,12,-400,-2016,22,3,24,1047,-163,1210,-442
,428,2023-10-20 13:07:05.70,12,-393,-2019,21,9,26,1202,-242,1444,-480
,429,2023-10-20 13:07:05.71,12,-399,-2020,21,16,28,1060,-159,1219,-450
,430,2023-10-20 13:07:05.72,17,-397,-2021,25,18,26,1169,-225,1394,-472
,431,2023-10-20 13:07:05.73,1,-396,-2027,25,14,27,1017,-148,1165,-434
,432,2023-10-20 13:07:05.74,12,-389,-2031,20,8,23,1152,-215,1367,-468
,433,2023-10-20 13:07:05.75,5,-394,-2020,17,-1,23,1014,-127,1141,-443
,434,2023-10-20 13:07:05.76,5,-403,-2025,16,-8,24,1159,-209,1368,-475
,435,2023-10-20 13:07:05.77,22,-406,-2021,12,-11,23,1015,-152,1167,-431
,436,2023-10-20 13:07:05.78,19,-396,-2022,9,-14,25,1154,-243,1397,-455
,437,2023-10-20 13:07:05.79,13,-402,-2021,6,-13,27,1004,-189,1193,-407
,438,2023-10-20 13:07:05.80,20,-395,-2019,-1,-7,25,1182,-240,1422,-471
,439,2023-10-20 13:07:05.81,5,-393,-2018,-4,-1,24,1011,-148,1159,-431
,440,2023-10-20 13:07:05.82,12,-393,-2022,-3,0,24,1141,-202,1343,-469
,441,2023-10-20 13:07:05.83,22,-394,-2023,-7,2,20,974,-128,1102,-423
,442,2023-10-20 13:07:05.84,4,-395,-2023,-5,1,19,1136,-198,1334,-469
,443,2023-10-20 13:07:05.85,22,-399,-2016,-2,4,15,993,-130,1123,-431
,444,2023-10-20 13:07:05.86,9,-403,-2008,4,11,17,1156,-203,1359,-476
,445,2023-10-20 13:07:05.87,12,-406,-2017,9,15,18,989,-147,1136,-421
,446,2023-10-20 13:07:05.88,4,-397,-2032,14,13,19,1158,-221,1379,-468
,447,2023-10-20 13:07:05.89,10,-389,-2033,16,3,18,985,-164,1149,-410
,448,2023-10-20 13:07:05.90,8,-382,-2014,16,-4,17,1163,-248,1411,-457
,449,2023-10-20 13:07:05.91,10,-396,-2011,15,-3,18,990,-213,1203,-388
,450,2023-10-20 13:07:05.92,18,-397,-2009,15,-2,15,1152,-269,1421,-441
,451,2023-10-20 13:07:05.93,13,-399,-2016,15,-1,14,968,-205,1173,-381
,452,2023-10-20 13:07:05.94,17,-397,-2017,16,1,16,1156,-237,1393,-459
,453,2023-10-20 13:07:05.95,6,-398,-2014,15,4,18,978,-157,1135,-410
,454,2023-10-20 13:07:05.96,18,-399,-2019,13,10,18,1158,-203,1361,-477
,455,2023-10-20 13:07:05.97,5,-406,-2022,9,9,23,972,-155,1127,-408
,456,2023-10-20 13:07:05.98,10,-400,-2039,5,8,23,1202,-197,1399,-502
,457,2023-10-20 13:07:05.99,18,-394,-2031,3,5,27,1003,-153,1156,-425
,458,2023-10-20 13:07:06.00,11,-393,-2028,2,2,29,1242,-181,1423,-530
,459,2023-10-20 13:07:06.01,3,-388,-2023,-1,2,29,1016,-124,1140,-446
,460,2023-10-20 13:07:06.02,8,-385,-2018,-4,0,26,1218,-145,1363,-536
,461,2023-10-20 13:07:06.03,14,-377,-2016,-1,3,22,996,-102,1098,-447
,462,2023-10-20 13:07:06.04,9,-381,-2011,-2,5,20,1213,-125,1338,-544
,463,2023-10-20 13:07:06.05,8,-382,-2015,-2,11,16,988,-90,1078,-449
,464,2023-10-20 13:07:06.06,11,-384,-2026,-3,16,8,1176,-131,1307,-522
,465,2023-10-20 13:07:06.07,11,-383,-2024,-4,17,3,956,-119,1075,-418
,466,2023-10-20 13:07:06.08,13,-386,-2027,-5,14,-1,1177,-162,1339,-507
,467,2023-10-20 13:07:06.09,16,-393,-2024,-4,10,-4,974,-143,1117,-415
,468,2023-10-20 13:07:06.10,13,-391,-2023,0,2,-5,1194,-200,1394,-497
,469,2023-10-20 13:07:06.11,14,-401,-2028,10,-3,-3,972,-192,1164,-390
,470,2023-10-20 13:07:06.12,10,-406,-2013,16,-5,1,1177,-224,1401,-476
,471,2023-10-20 13:07:06.13,7,-408,-2012,20,3,4,963,-197,1160,-383
,472,2023-10-20 13:07:06.14,12,-396,-2019,28,9,8,1198,-206,1404,-496
,473,2023-10-20 13:07:06.15,12,-385,-2023,33,10,9,974,-175,1149,-399
,474,2023-10-20 13:07:06.16,17,-391,-2024,29,9,8,1196,-201,1397,-497
,475,2023-10-20 13:07:06.17,8,-394,-2023,23,6,7,992,-188,1180,-402
,476,2023-10-20 13:07:06.18,17,-385,-2016,19,3,6,1255,-172,1427,-541
,477,2023-10-20 13:07:06.19,12,-401,-2028,17,2,5,1004,-136,1140,-434
,478,2023-10-20 13:07:06.20,19,-401,-2015,17,2,6,1206,-163,1369,-521
,479,2023-10-20 13:07:06.21,16,-401,-2013,13,8,3,967,-173,1140,-397
,480,2023-10-20 13:07:06.22,19,-400,-2016,15,14,2,1187,-185,1372,-501
,481,2023-10-20 13:07:06.23,19,-398,-2024,12,17,4,966,-176,1142,-395
,482,2023-10-20 13:07:06.24,26,-396,-2019,10,20,3,1190,-167,1357,-511
,483,2023-10-20 13:07:06.25,11,-409,-2025,8,22,3,980,-161,1141,-409
,484,2023-10-20 13:07:06.26,21,-402,-2029,9,15,6,1241,-124,1365,-558
,485,2023-10-20 13:07:06.27,19,-401,-2031,7,7,11,982,-128,1110,-427
,486,2023-10-20 13:07:06.28,22,-398,-2030,1,-1,13,1162,-128,1290,-517
,487,2023-10-20 13:07:06.29,23,-391,-2024,1,-8,18,941,-142,1083,-399
,488,2023-10-20 13:07:06.30,20,-391,-2021,-1,-11,19,1155,-154,1309,-500
,489,2023-10-20 13:07:06.31,14,-396,-2022,-4,-7,18,953,-178,1131,-387
,490,2023-10-20 13:07:06.32,10,-395,-2017,-6,-2,20,1181,-191,1372,-495
,491,2023-10-20 13:07:06.33,2,-390,-2021,-6,1,19,975,-197,1172,-389
,492,2023-10-20 13:07:06.34,12,-388,-2024,-7,-1,21,1202,-184,1386,-509
,493,2023-10-20 13:07:06.35,13,-396,-2023,-2,1,19,960,-198,1158,-381
,494,2023-10-20 13:07:06.36,10,-387,-2017,0,-1,20,1177,-166,1343,-505
,495,2023-10-20 13:07:06.37,5,-387,-2025,2,-1,19,964,-186,1150,-389
,496,2023-10-20 13:07:06.38,13,-383,-2023,1,-5,20,1187,-151,1338,-518
,497,2023-10-20 13:07:06.39,9,-383,-2023,2,-5,17,961,-171,1132,-395
,498,2023-10-20 13:07:06.40,14,-388,-2021,0,-2,17,1169,-149,1318,-510
,499,2023-10-20 13:07:06.41,20,-390,-2027,0,1,16,965,-176,1141,-394
,500,2023-10-20 13:07:06.42,5,-399,-2004,2,6,14,1190,-139,1329,-525
,501,2023-10-20 13:07:06.43,1,-393,-2005,14,21,15,996,-168,1164,-414
,502,2023-10-20 13:07:06.44,17,-381,-2026,12,22,10,1218,-114,1332,-552
,503,2023-10-20 13:07:06.45,17,-383,-2029,15,19,11,1020,-137,1157,-441
,504,2023-10-20 13:07:06.46,20,-379,-2027,8,18,8,1244,-76,1320,-584
,505,2023-10-20 13:07:06.47,16,-390,-2030,4,17,6,1013,-123,1136,-445
,506,2023-10-20 13:07:06.48,19,-385,-2027,0,15,4,1190,-104,1294,-543
,507,2023-10-20 13:07:06.49,16,-393,-2020,0,10,5,996,-171,1167,-412
,508,2023-10-20 13:07:06.50,20,-401,-2020,4,10,8,1204,-170,1374,-517
,509,2023-10-20 13:07:06.51,26,-399,-2024,2,8,10,989,-226,1215,-381
,510,2023-10-20 13:07:06.52,17,-400,-2021,5,5,13,1157,-213,1370,-472
,511,2023-10-20 13:07:06.53,27,-404,-2016,8,1,15,978,-249,1227,-364
,512,2023-10-20 13:07:06.54,25,-398,-2020,11,5,19,1179,-192,1371,-493
,513,2023-10-20 13:07:06.55,17,-392,-2020,11,7,19,1023,-217,1240,-403
,514,2023-10-20 13:07:06.56,14,-394,-2020,5,9,20,1230,-129,1359,-550
,515,2023-10-20 13:07:06.57,15,-390,-2025,4,9,20,1020,-160,1180,-430
,516,2023-10-20 13:07:06.58,17,-393,-2019,4,9,21,1170,-93,1263,-538
,517,2023-10-20 13:07:06.59,18,-384,-2019,3,10,21,1011,-159,1170,-426
,518,2023-10-20 13:07:06.60,19,-379,-2017,0,10,20,1203,-92,1295,-555
,519,2023-10-20 13:07:06.61,16,-386,-2024,-4,13,13,1018,-147,1165,-435
,520,2023-10-20 13:07:06.62,15,-378,-2025,-7,12,11,1164,-80,1244,-542
,521,2023-10-20 13:07:06.63,14,-386,-2025,-4,10,9,1001,-157,1158,-422
,522,2023-10-20 13:07:06.64,30,-387,-2026,2,2,7,1164,-86,1250,-539
,523,2023-10-20 13:07:06.65,19,-391,-2021,6,-6,7,1024,-143,1167,-440
,524,2023-10-20 13:07:06.66,15,-389,-2019,11,-9,7,1199,-57,1256,-571
,525,2023-10-20 13:07:06.67,19,-391,-2020,13,-9,8,1052,-121,1173,-465
,526,2023-10-20 13:07:06.68,12,-389,-2019,15,-9,12,1194,-28,1222,-583
,527,2023-10-20 13:07:06.69,13,-391,-2013,15,-7,16,1016,-97,1113,-459
,528,2023-10-20 13:07:06.70,16,-397,-2019,13,-5,17,1139,-13,1152,-563
,529,2023-10-20 13:07:06.71,13,-394,-2023,10,-3,18,1032,-111,1143,-460
,530,2023-10-20 13:07:06.72,9,-407,-2026,8,-1,22,1186,-35,1221,-575
,531,2023-10-20 13:07:06.73,12,-394,-2010,10,-1,25,1035,-134,1169,-450
,532,2023-10-20 13:07:06.74,13,-396,-2018,10,4,24,1140,-54,1194,-543
,533,2023-10-20 13:07:06.75,8,-402,-2014,12,1,25,1036,-156,1192,-440
,534,2023-10-20 13:07:06.76,9,-387,-2010,19,-2,25,1162,-98,1260,-532
,535,2023-10-20 13:07:06.77,17,-388,-2017,19,-2,25,1066,-182,1248,-442
,536,2023-10-20 13:07:06.78,13,-392,-2026,17,4,24,1168,-82,1250,-543
,537,2023-10-20 13:07:06.79,5,-387,-2037,12,11,21,1037,-162,1199,-437
,538,2023-10-20 13:07:06.80,5,-384,-2035,9,10,20,1119,-68,1187,-525
,539,2023-10-20 13:07:06.81,11,-392,-2029,8,3,22,1032,-160,1192,-436
,540,2023-10-20 13:07:06.82,-4,-384,-2016,13,-2,21,1125,-92,1217,-516
,541,2023-10-20 13:07:06.83,4,-381,-2008,17,-5,20,1064,-185,1249,-439
,542,2023-10-20 13:07:06.84,9,-377,-2009,14,1,15,1151,-96,1247,-527
,543,2023-10-20 13:07:06.85,0,-370,-2011,7,7,13,1078,-170,1248,-454
,544,2023-10-20 13:07:06.86,10,-378,-2009,0,16,6,1138,-78,1216,-530
,545,2023-10-20 13:07:06.87,13,-383,-2010,-4,21,1,1066,-162,1228,-452
,546,2023-10-20 13:07:06.88,25,-386,-2004,-5,28,-4,1128,-49,1177,-539
,547,2023-10-20 13:07:06.89,23,-384,-2022,1,32,-14,1040,-148,1188,-446
,548,2023-10-20 13:07:06.90,21,-391,-2024,3,33,-18,1089,-78,1167,-505
,549,2023-10-20 13:07:06.91,10,-397,-2038,10,22,-18,1089,-152,1241,-468
,550,2023-10-20 13:07:06.92,7,-403,-2031,19,5,-18,1158,-15,1173,-571
,551,2023-10-20 13:07:06.93,17,-410,-2030,27,-8,-16,1107,-80,1187,-513
,552,2023-10-20 13:07:06.94,15,-408,-2024,29,-4,-15,1128,20,1108,-574
,553,2023-10-20 13:07:06.95,7,-414,-2017,34,-11,-16,1082,-122,1204,-480
,554,2023-10-20 13:07:06.96,12,-394,-2034,37,-7,-20,1102,-85,1187,-508
,555,2023-10-20 13:07:06.97,3,-375,-2038,27,2,-31,1108,-206,1314,-451
,556,2023-10-20 13:07:06.98,11,-352,-2059,13,-6,-43,1121,-93,1214,-514
,557,2023-10-20 13:07:06.99,6,-318,-2072,-8,-19,-60,1108,-159,1267,-474
,558,2023-10-20 13:07:07.00,15,-326,-2057,-36,-9,-79,1109,-45,1154,-532
,559,2023-10-20 13:07:07.01,30,-345,-2051,-51,-14,-98,1063,-148,1211,-457
,560,2023-10-20 13:07:07.02,15,-331,-2065,-60,-20,-118,1052,-75,1127,-488
,561,2023-10-20 13:07:07.03,8,-348,-2032,-62,-21,-129,1089,-196,1285,-446
,562,2023-10-20 13:07:07.04,16,-356,-1993,-50,-21,-138,1101,-112,1213,-494
,563,2023-10-20 13:07:07.05,29,-360,-1970,-37,-8,-151,1133,-173,1306,-480
,564,2023-10-20 13:07:07.06,26,-379,-1942,-25,10,-157,1115,-36,1151,-539
,565,2023-10-20 13:07:07.07,10,-453,-1931,45,43,-168,1141,-141,1282,-500
,566,2023-10-20 13:07:07.08,18,-426,-1936,86,21,-168,1117,-88,1205,-514
,567,2023-10-20 13:07:07.09,16,-402,-1987,97,19,-174,1148,-203,1351,-472
,568,2023-10-20 13:07:07.10,25,-427,-1985,82,11,-174,1104,-95,1199,-504
,569,2023-10-20 13:07:07.11,24,-423,-2018,56,39,-177,1152,-157,1309,-497
,570,2023-10-20 13:07:07.12,26,-418,-2019,30,38,-181,1081,-36,1117,-522
,571,2023-10-20 13:07:07.13,25,-434,-2017,16,26,-185,1143,-161,1304,-491
,572,2023-10-20 13:07:07.14,23,-457,-2040,13,20,-187,1086,-72,1158,-507
,573,2023-10-20 13:07:07.15,19,-484,-2056,15,8,-180,1158,-119,1277,-519
,574,2023-10-20 13:07:07.16,4,-502,-2088,12,20,-170,1097,26,1071,-561
,575,2023-10-20 13:07:07.17,-13,-518,-2084,3,16,-148,1160,-61,1221,-549
,576,2023-10-20 13:07:07.18,-16,-509,-2071,-7,36,-124,1088,60,1028,-574
,577,2023-10-20 13:07:07.19,1,-502,-2059,-5,46,-105,1156,-73,1229,-541
,578,2023-10-20 13:07:07.20,-15,-444,-2046,-34,95,-93,1062,0,1062,-531
,579,2023-10-20 13:07:07.21,-19,-413,-2046,-63,110,-95,1163,-123,1286,-520
,580,2023-10-20 13:07:07.22,-18,-411,-2038,-77,107,-87,1072,-52,1124,-510
,581,2023-10-20 13:07:07.23,-7,-381,-1998,-88,129,-84,1178,-146,1324,-516
,582,2023-10-20 13:07:07.24,-3,-375,-1978,-100,126,-85,1068,-25,1093,-521
,583,2023-10-20 13:07:07.25,15,-351,-1985,-103,112,-84,1176,-74,1250,-551
,584,2023-10-20 13:07:07.26,5,-339,-1969,-97,85,-79,1060,43,1017,-551
,585,2023-10-20 13:07:07.27,-6,-331,-1987,-87,64,-68,1148,-51,1199,-548
,586,2023-10-20 13:07:07.28,29,-308,-1978,-95,56,-51,1038,45,993,-541
,587,2023-10-20 13:07:07.29,37,-285,-1972,-119,80,-41,1185,-17,1202,-584
,588,2023-10-20 13:07:07.30,59,-278,-1950,-133,98,-35,1078,90,988,-584
,589,2023-10-20 13:07:07.31,76,-261,-1942,-138,119,-35,1204,5,1199,-604
,590,2023-10-20 13:07:07.32,95,-253,-1961,-123,126,-41,1069,84,985,-576
,591,2023-10-20 13:07:07.33,111,-250,-1987,-92,113,-50,1167,6,1161,-586
,592,2023-10-20 13:07:07.34,126,-249,-2018,-62,91,-60,1038,93,945,-565
,593,2023-10-20 13:07:07.35,121,-263,-2062,-36,69,-71,1210,60,1150,-635
,594,2023-10-20 13:07:07.36,160,-269,-2081,-18,73,-77,1064,152,912,-608
,595,2023-10-20 13:07:07.37,156,-283,-2123,-13,83,-81,1182,74,1108,-628
,596,2023-10-20 13:07:07.38,164,-304,-2144,-6,90,-77,1026,117,909,-571
,597,2023-10-20 13:07:07.39,166,-323,-2164,8,74,-69,1168,9,1159,-588
,598,2023-10-20 13:07:07.40,151,-340,-2150,31,59,-54,1027,62,965,-544
,599,2023-10-20 13:07:07.41,164,-348,-2129,55,37,-36,1214,65,1149,-639
,600,2023-10-20 13:07:07.42,164,-345,-2119,75,24,-20,1047,158,889,-602
,601,2023-10-20 13:07:07.43,173,-340,-2091,93,6,-2,1212,32,1180,-622
,602,2023-10-20 13:07:07.44,167,-355,-2056,110,7,12,1041,58,983,-549
,603,2023-10-20 13:07:07.45,157,-364,-2040,125,9,22,1200,-18,1218,-591
,604,2023-10-20 13:07:07.46,144,-365,-2035,138,8,37,1012,61,951,-536
,605,2023-10-20 13:07:07.47,118,-376,-2020,152,-10,53,1211,92,1119,-651
,606,2023-10-20 13:07:07.48,110,-401,-2007,166,-28,73,1038,167,871,-602
,607,2023-10-20 13:07:07.49,91,-406,-1992,173,-34,91,1236,125,1111,-680
,608,2023-10-20 13:07:07.50,78,-396,-1981,174,-41,108,1030,142,888,-586
,609,2023-10-20 13:07:07.51,77,-405,-1984,173,-47,126,1223,82,1141,-652
,610,2023-10-20 13:07:07.52,71,-406,-1985,163,-48,139,1024,114,910,-569
,611,2023-10-20 13:07:07.53,65,-416,-1979,164,-59,147,1213,57,1156,-635
,612,2023-10-20 13:07:07.54,68,-408,-1988,162,-70,151,1016,82,934,-549
,613,2023-10-20 13:07:07.55,56,-423,-1993,165,-72,154,1230,35,1195,-632
,614,2023-10-20 13:07:07.56,66,-436,-2002,165,-68,156,1018,82,936,-550
,615,2023-10-20 13:07:07.57,61,-446,-2012,161,-54,153,1180,54,1126,-617
,616,2023-10-20 13:07:07.58,50,-456,-2014,158,-44,155,971,71,900,-521
,617,2023-10-20 13:07:07.59,39,-463,-2024,159,-35,151,1228,44,1184,-636
,618,2023-10-20 13:07:07.60,34,-466,-2043,158,-29,154,1028,77,951,-552
,619,2023-10-20 13:07:07.61,22,-470,-2044,152,-25,150,1238,89,1149,-663
,620,2023-10-20 13:07:07.62,25,-468,-2044,143,-20,150,1014,118,896,-566
,621,2023-10-20 13:07:07.63,25,-461,-2044,129,-6,147,1235,91,1144,-663
,622,2023-10-20 13:07:07.64,29,-445,-2029,106,13,139,1009,100,909,-554
,623,2023-10-20 13:07:07.65,19,-431,-2025,84,33,128,1233,61,1172,-647
,624,2023-10-20 13:07:07.66,0,-412,-2016,60,53,118,1008,53,955,-530
,625,2023-10-20 13:07:07.67,17,-406,-2000,37,57,108,1245,35,1210,-640
,626,2023-10-20 13:07:07.68,26,-401,-1988,16,69,97,1009,47,962,-528
,627,2023-10-20 13:07:07.69,37,-404,-1965,-4,81,87,1193,0,1193,-596
,628,2023-10-20 13:07:07.70,49,-405,-1965,-16,100,83,980,-12,992,-484
,629,2023-10-20 13:07:07.71,45,-406,-1971,-19,108,83,1238,-16,1254,-611
,630,2023-10-20 13:07:07.72,61,-407,-1979,-20,112,85,1013,1,1012,-507
,631,2023-10-20 13:07:07.73,59,-407,-1990,-19,108,86,1249,-13,1262,-618
,632,2023-10-20 13:07:07.74,71,-398,-1993,-11,104,86,1014,-14,1028,-500
,633,2023-10-20 13:07:07.75,93,-392,-2000,1,95,88,1246,2,1244,-624
,634,2023-10-20 13:07:07.76,101,-391,-2008,6,86,86,1010,12,998,-511
,635,2023-10-20 13:07:07.77,100,-398,-1995,21,71,81,1248,35,1213,-641
,636,2023-10-20 13:07:07.78,125,-387,-2018,39,59,79,1006,23,983,-514
,637,2023-10-20 13:07:07.79,133,-393,-2029,47,63,68,1248,12,1236,-630
,638,2023-10-20 13:07:07.80,141,-401,-2055,57,52,63,1004,-16,1020,-494
,639,2023-10-20 13:07:07.81,116,-413,-2079,59,55,61,1247,-35,1282,-606
,640,2023-10-20 13:07:07.82,129,-411,-2079,63,47,57,1000,-46,1046,-477
,641,2023-10-20 13:07:07.83,119,-429,-2084,65,29,60,1220,-46,1266,-587
,642,2023-10-20 13:07:07.84,98,-429,-2084,65,17,61,973,-65,1038,-454
,643,2023-10-20 13:07:07.85,96,-446,-2086,70,1,68,1180,-74,1254,-553
,644,2023-10-20 13:07:07.86,85,-444,-2068,74,-17,74,956,-90,1046,-433
,645,2023-10-20 13:07:07.87,84,-443,-2033,79,-38,75,1200,-99,1299,-550
,646,2023-10-20 13:07:07.88,85,-448,-2000,90,-46,74,972,-115,1087,-428
,647,2023-10-20 13:07:07.89,98,-437,-1983,97,-42,68,1187,-82,1269,-552
,648,2023-10-20 13:07:07.90,70,-439,-1980,98,-28,61,956,-85,1041,-435
,649,2023-10-20 13:07:07.91,67,-440,-1974,99,-18,52,1188,-94,1282,-547
,650,2023-10-20 13:07:07.92,64,-446,-1977,101,-8,51,987,-122,1109,-432
,651,2023-10-20 13:07:07.93,63,-455,-1963,99,-2,51,1259,-74,1333,-592
,652,2023-10-20 13:07:07.94,56,-455,-1977,94,8,48,1017,-88,1105,-464
,653,2023-10-20 13:07:07.95,58,-452,-1985,85,12,48,1235,-36,1271,-599
,654,2023-10-20 13:07:07.96,66,-454,-2007,76,15,56,971,-63,1034,-454
,655,2023-10-20 13:07:07.97,71,-461,-1995,64,18,58,1157,-78,1235,-539
,656,2023-10-20 13:07:07.98,55,-453,-2015,56,21,58,964,-147,1111,-408
,657,2023-10-20 13:07:07.99,64,-452,-2033,46,25,58,1233,-116,1349,-558
,658,2023-10-20 13:07:08.00,54,-470,-2056,41,26,56,1013,-114,1127,-449
,659,2023-10-20 13:07:08.01,54,-471,-2058,42,16,56,1230,-44,1274,-593
,660,2023-10-20 13:07:08.02,63,-478,-2028,44,11,56,984,-79,1063,-452
,661,2023-10-20 13:07:08.03,65,-477,-2020,46,11,52,1181,-55,1236,-563
,662,2023-10-20 13:07:08.04,52,-474,-2005,51,10,49,982,-104,1086,-439
,663,2023-10-20 13:07:08.05,67,-464,-1997,57,14,45,1224,-39,1263,-592
,664,2023-10-20 13:07:08.06,73,-463,-1982,62,19,42,1006,-65,1071,-470
,665,2023-10-20 13:07:08.07,68,-452,-1992,60,16,44,1201,-11,1212,-595
,666,2023-10-20 13:07:08.08,79,-469,-1986,57,24,41,1002,-80,1082,-461
,667,2023-10-20 13:07:08.09,76,-460,-1980,55,13,43,1228,-28,1256,-600
,668,2023-10-20 13:07:08.10,87,-465,-1996,46,-2,45,1021,-92,1113,-464
,669,2023-10-20 13:07:08.11,91,-466,-1991,33,2,41,1228,-58,1286,-585
,670,2023-10-20 13:07:08.12,89,-469,-1988,20,0,43,1014,-124,1138,-445
,671,2023-10-20 13:07:08.13,95,-467,-1984,3,-7,41,1208,-47,1255,-580
,672,2023-10-20 13:07:08.14,114,-463,-2004,-11,-13,39,1016,-82,1098,-467
,673,2023-10-20 13:07:08.15,105,-460,-2031,-35,-5,35,1220,18,1202,-619
,674,2023-10-20 13:07:08.16,110,-469,-2031,-58,-15,30,1024,-33,1057,-495
,675,2023-10-20 13:07:08.17,116,-486,-2035,-74,-28,32,1214,81,1133,-647
,676,2023-10-20 13:07:08.18,116,-481,-2036,-88,-38,31,1024,7,1017,-515
,677,2023-10-20 13:07:08.19,110,-475,-2026,-92,-53,31,1214,88,1126,-651
,678,2023-10-20 13:07:08.20,122,-466,-2039,-98,-67,31,1003,-12,1015,-495
,679,2023-10-20 13:07:08.21,106,-461,-2047,-104,-73,27,1165,11,1154,-588
,680,2023-10-20 13:07:08.22,103,-470,-2034,-110,-69,26,1016,-105,1121,-455
,681,2023-10-20 13:07:08.23,84,-472,-2041,-101,-104,27,1216,-44,1260,-586
,682,2023-10-20 13:07:08.24,77,-466,-2036,-85,-140,31,1046,-114,1160,-466
,683,2023-10-20 13:07:08.25,69,-476,-2024,-73,-171,36,1311,33,1278,-672
,684,2023-10-20 13:07:08.26,68,-477,-2011,-63,-194,44,1170,-52,1222,-559
,685,2023-10-20 13:07:08.27,32,-467,-2004,-64,-197,52,1344,-14,1358,-665
,686,2023-10-20 13:07:08.28,24,-470,-1998,-68,-195,60,1149,-113,1262,-518
,687,2023-10-20 13:07:08.29,15,-472,-1997,-71,-196,72,1315,-14,1329,-650
,688,2023-10-20 13:07:08.30,10,-465,-1992,-82,-182,81,1129,-80,1209,-524
,689,2023-10-20 13:07:08.31,4,-461,-1986,-95,-174,88,1290,41,1249,-665
,690,2023-10-20 13:07:08.32,13,-461,-1988,-110,-158,94,1072,-48,1120,-512
,691,2023-10-20 13:07:08.33,23,-447,-1950,-115,-127,96,1237,68,1169,-652
,692,2023-10-20 13:07:08.34,19,-423,-1932,-119,-84,87,985,-30,1015,-477
,693,2023-10-20 13:07:08.35,7,-424,-1962,-116,-44,82,1140,82,1058,-611
,694,2023-10-20 13:07:08.36,-6,-411,-2001,-103,-32,74,869,-23,892,-423
,695,2023-10-20 13:07:08.37,-10,-403,-2030,-86,-33,68,1006,96,910,-551
,696,2023-10-20 13:07:08.38,-17,-414,-2033,-81,-29,66,746,-9,755,-368
,697,2023-10-20 13:07:08.39,-12,-414,-2039,-80,-21,63,842,117,725,-479
,698,2023-10-20 13:07:08.40,1,-406,-2033,-68,-26,62,623,0,623,-311
,699,2023-10-20 13:07:08.41,4,-403,-2036,-59,-19,61,719,129,590,-424
,700,2023-10-20 13:07:08.42,-1,-414,-2029,-40,-31,60,532,4,528,-268
,701,2023-10-20 13:07:08.43,-16,-393,-2027,-30,-24,57,626,140,486,-383
,702,2023-10-20 13:07:08.44,-9,-376,-2009,-25,-9,55,467,21,446,-244
,703,2023-10-20 13:07:08.45,-7,-387,-2010,-21,-5,50,568,164,404,-366
,704,2023-10-20 13:07:08.46,-5,-385,-2003,-15,3,43,434,79,355,-256
,705,2023-10-20 13:07:08.47,-12,-379,-2006,-4,9,38,610,200,410,-405
,706,2023-10-20 13:07:08.48,-14,-380,-1996,3,2,33,502,81,421,-291
,707,2023-10-20 13:07:08.49,-12,-358,-2021,1,8,31,745,216,529,-480
,708,2023-10-20 13:07:08.50,-11,-368,-2015,-12,23,26,755,80,675,-417
,709,2023-10-20 13:07:08.51,-2,-364,-2024,-26,37,22,946,165,781,-555
,710,2023-10-20 13:07:08.52,9,-370,-2008,-39,46,21,960,-17,977,-471
,711,2023-10-20 13:07:08.53,11,-369,-2001,-43,52,17,1081,18,1063,-549
,712,2023-10-20 13:07:08.54,19,-371,-2013,-43,57,15,1087,-123,1210,-482
,713,2023-10-20 13:07:08.55,19,-372,-2021,-35,54,11,1145,-57,1202,-544
,714,2023-10-20 13:07:08.56,33,-383,-2016,-24,46,10,1120,-166,1286,-477
,715,2023-10-20 13:07:08.57,36,-381,-2018,-15,44,8,1156,-62,1218,-547
,716,2023-10-20 13:07:08.58,34,-385,-2015,1,44,5,1096,-162,1258,-467
,717,2023-10-20 13:07:08.59,34,-388,-2021,11,48,2,1104,-68,1172,-518
,718,2023-10-20 13:07:08.60,38,-380,-2017,24,47,-1,1102,-159,1261,-471
,719,2023-10-20 13:07:08.61,39,-395,-2032,33,49,-2,1130,-60,1190,-535
,720,2023-10-20 13:07:08.62,44,-398,-2048,37,43,-2,1118,-160,1278,-479
,721,2023-10-20 13:07:08.63,28,-406,-2049,41,39,-3,1118,-82,1200,-518
,722,2023-10-20 13:07:08.64,41,-413,-2044,41,36,2,1122,-166,1288,-478
,723,2023-10-20 13:07:08.65,37,-414,-2032,42,35,5,1112,-36,1148,-538
,724,2023-10-20 13:07:08.66,44,-418,-2029,43,25,10,1092,-137,1229,-477
,725,2023-10-20 13:07:08.67,32,-430,-2034,44,19,17,1076,-76,1152,-500
,726,2023-10-20 13:07:08.68,29,-435,-2019,48,9,27,1062,-212,1274,-425
,727,2023-10-20 13:07:08.69,31,-434,-2017,48,1,33,1055,-175,1230,-440
,728,2023-10-20 13:07:08.70,25,-431,-2005,52,-3,38,1112,-268,1380,-422
,729,2023-10-20 13:07:08.71,21,-416,-2001,48,-1,40,1099,-165,1264,-467
,730,2023-10-20 13:07:08.72,21,-423,-2000,40,7,42,1134,-241,1375,-446
,731,2023-10-20 13:07:08.73,7,-415,-2002,32,18,39,1106,-134,1240,-486
,732,2023-10-20 13:07:08.74,28,-413,-2008,30,16,34,1142,-236,1378,-453
,733,2023-10-20 13:07:08.75,38,-409,-1999,21,16,32,1094,-166,1260,-464
,734,2023-10-20 13:07:08.76,32,-406,-2005,9,21,26,1127,-263,1390,-432
,735,2023-10-20 13:07:08.77,42,-408,-2020,-1,26,23,1072,-164,1236,-454
,736,2023-10-20 13:07:08.78,41,-409,-2025,-16,28,20,1150,-237,1387,-456
,737,2023-10-20 13:07:08.79,32,-415,-2041,-21,21,21,1108,-110,1218,-499
,738,2023-10-20 13:07:08.80,44,-417,-2029,-26,11,23,1177,-218,1395,-479
,739,2023-10-20 13:07:08.81,34,-410,-2030,-24,4,22,1113,-145,1258,-484
,740,2023-10-20 13:07:08.82,32,-407,-2026,-21,1,24,1185,-279,1464,-453
,741,2023-10-20 13:07:08.83,33,-403,-2026,-16,1,27,1152,-144,1296,-504
,742,2023-10-20 13:07:08.84,31,-406,-2021,-8,0,28,1242,-261,1503,-490
,743,2023-10-20 13:07:08.85,22,-408,-2010,-1,6,32,1210,-138,1348,-536
,744,2023-10-20 13:07:08.86,23,-395,-2019,2,8,33,1262,-224,1486,-519
,745,2023-10-20 13:07:08.87,36,-388,-2027,2,14,34,1186,-52,1238,-567
,746,2023-10-20 13:07:08.88,22,-389,-2024,5,17,37,1205,-137,1342,-534
,747,2023-10-20 13:07:08.89,26,-391,-2023,10,13,36,1133,19,1114,-576
,748,2023-10-20 13:07:08.90,26,-389,-2032,18,4,38,1120,-89,1209,-515
,749,2023-10-20 13:07:08.91,10,-396,-2019,21,-6,40,1057,65,992,-561
,750,2023-10-20 13:07:08.92,16,-404,-2018,23,-10,43,1020,-43,1063,-488
,751,2023-10-20 13:07:08.93,25,-404,-2009,20,-7,47,972,104,868,-538
,752,2023-10-20 13:07:08.94,26,-404,-2003,13,7,49,905,-5,910,-450
,753,2023-10-20 13:07:08.95,38,-411,-2009,3,17,55,814,128,686,-471
,754,2023-10-20 13:07:08.96,33,-408,-2021,-4,15,57,713,127,586,-420
,755,2023-10-20 13:07:08.97,37,-424,-2014,-8,6,64,741,216,525,-478
,756,2023-10-20 13:07:08.98,35,-435,-2015,-5,10,75,976,84,892,-530
,757,2023-10-20 13:07:08.99,39,-419,-2035,3,12,75,983,96,887,-539
,758,2023-10-20 13:07:09.00,27,-375,-2058,7,-8,70,1157,-19,1176,-569
,759,2023-10-20 13:07:09.01,28,-369,-2051,15,-29,63,1034,36,998,-535
,760,2023-10-20 13:07:09.02,16,-369,-2028,16,-36,49,1150,-71,1221,-539
,761,2023-10-20 13:07:09.03,30,-367,-2031,20,-42,29,1008,-31,1039,-488
,762,2023-10-20 13:07:09.04,30,-379,-2014,24,-40,16,1213,-117,1330,-548
,763,2023-10-20 13:07:09.05,20,-393,-2003,28,-38,9,1060,-55,1115,-502
,764,2023-10-20 13:07:09.06,4,-410,-2014,30,-33,10,1223,-100,1323,-561
,765,2023-10-20 13:07:09.07,14,-414,-2015,34,-27,10,1026,-22,1048,-502
,766,2023-10-20 13:07:09.08,11,-424,-2018,35,-27,20,1159,-70,1229,-544
,767,2023-10-20 13:07:09.09,4,-433,-2007,28,-18,30,983,-11,994,-486
,768,2023-10-20 13:07:09.10,15,-438,-2010,16,-12,40,1174,-70,1244,-552
,769,2023-10-20 13:07:09.11,8,-431,-2016,18,-4,48,998,-38,1036,-480
,770,2023-10-20 13:07:09.12,11,-427,-2007,10,5,54,1141,-138,1279,-501
,771,2023-10-20 13:07:09.13,9,-421,-2016,-3,26,66,945,-117,1062,-414
,772,2023-10-20 13:07:09.14,16,-411,-2037,-16,26,70,1138,-189,1327,-474
,773,2023-10-20 13:07:09.15,21,-414,-2026,-21,13,79,973,-145,1118,-414
,774,2023-10-20 13:07:09.16,13,-409,-2016,-28,10,82,1184,-191,1375,-496
,775,2023-10-20 13:07:09.17,21,-394,-2022,-33,11,80,986,-126,1112,-430
,776,2023-10-20 13:07:09.18,13,-390,-2032,-37,4,75,1220,-94,1314,-563
,777,2023-10-20 13:07:09.19,28,-385,-2031,-35,-1,73,1012,-19,1031,-496
,778,2023-10-20 13:07:09.20,43,-390,-2000,-27,-1,66,1232,-32,1264,-600
,779,2023-10-20 13:07:09.21,19,-403,-2005,-14,-2,64,1008,0,1008,-504
,780,2023-10-20 13:07:09.22,14,-365,-2038,-1,-9,50,1217,-50,1267,-583
,781,2023-10-20 13:07:09.23,20,-359,-2038,9,-23,36,1005,-11,1016,-497
,782,2023-10-20 13:07:09.24,32,-359,-2025,14,-33,23,1225,-15,1240,-605
,783,2023-10-20 13:07:09.25,28,-373,-2023,4,-31,8,1000,24,976,-512
,784,2023-10-20 13:07:09.26,20,-385,-2023,-1,-19,-1,1228,44,1184,-636
,785,2023-10-20 13:07:09.27,21,-399,-2013,3,-23,-6,991,72,919,-531
,786,2023-10-20 13:07:09.28,18,-404,-2016,10,-29,-6,1204,25,1179,-614
,787,2023-10-20 13:07:09.29,17,-404,-2028,14,-27,-6,980,4,976,-492
,788,2023-10-20 13:07:09.30,9,-411,-2032,14,-28,2,1226,-50,1276,-588
,789,2023-10-20 13:07:09.31,13,-409,-2026,16,-29,7,986,-40,1026,-473
,790,2023-10-20 13:07:09.32,12,-423,-2014,17,-28,20,1166,-67,1233,-549
,791,2023-10-20 13:07:09.33,2,-423,-2007,16,-22,30,948,-67,1015,-440
,792,2023-10-20 13:07:09.34,2,-424,-2005,17,-15,39,1211,-124,1335,-543
,793,2023-10-20 13:07:09.35,11,-405,-2007,15,-6,45,992,-115,1107,-438
,794,2023-10-20 13:07:09.36,10,-412,-2005,13,1,50,1227,-145,1372,-541
,795,2023-10-20 13:07:09.37,3,-401,-2013,9,9,49,991,-140,1131,-425
,796,2023-10-20 13:07:09.38,10,-401,-2021,5,16,50,1231,-180,1411,-525
,797,2023-10-20 13:07:09.39,3,-400,-2018,-1,18,45,982,-162,1144,-410
,798,2023-10-20 13:07:09.40,13,-409,-2017,-1,21,44,1186,-162,1348,-512
,799,2023-10-20 13:07:09.41,16,-409,-2005,6,24,47,966,-142,1108,-412
,800,2023-10-20 13:07:09.42,20,-419,-1997,21,32,63,1233,-152,1385,-540
,801,2023-10-20 13:07:09.43,-11,-417,-2036,39,32,65,996,-150,1146,-423
,802,2023-10-20 13:07:09.44,-13,-387,-2038,57,21,64,1217,-189,1406,-514
,803,2023-10-20 13:07:09.45,-11,-357,-2035,48,7,56,979,-186,1165,-396
,804,2023-10-20 13:07:09.46,2,-373,-2020,37,-1,47,1229,-138,1367,-545
,805,2023-10-20 13:07:09.47,20,-376,-2006,22,-2,32,992,-102,1094,-445
,806,2023-10-20 13:07:09.48,11,-388,-2013,15,10,25,1232,-77,1309,-577
,807,2023-10-20 13:07:09.49,-3,-400,-2017,16,18,21,989,-95,1084,-447
,808,2023-10-20 13:07:09.50,16,-412,-2019,17,30,21,1225,-91,1316,-567
,809,2023-10-20 13:07:09.51,16,-412,-2024,12,34,25,991,-97,1088,-447
,810,2023-10-20 13:07:09.52,7,-436,-2018,9,37,31,1224,-51,1275,-586
,811,2023-10-20 13:07:09.53,-4,-420,-2014,12,41,39,983,-52,1035,-465
,812,2023-10-20 13:07:09.54,-4,-380,-2000,11,38,43,1202,-48,1250,-577
,813,2023-10-20 13:07:09.55,17,-411,-2047,8,37,38,985,-76,1061,-454
,814,2023-10-20 13:07:09.56,25,-419,-2002,-6,33,47,1226,-68,1294,-579
,815,2023-10-20 13:07:09.57,17,-422,-2009,7,39,47,993,-97,1090,-448
,816,2023-10-20 13:07:09.58,25,-416,-2027,8,41,46,1220,-101,1321,-559
,817,2023-10-20 13:07:09.59,23,-402,-2024,16,38,47,986,-130,1116,-428
,818,2023-10-20 13:07:09.60,21,-397,-2023,22,32,46,1220,-73,1293,-573
,819,2023-10-20 13:07:09.61,17,-394,-2025,24,24,43,988,-75,1063,-456
,820,2023-10-20 13:07:09.62,11,-390,-2026,26,5,42,1220,-6,1226,-607
,821,2023-10-20 13:07:09.63,23,-388,-2024,29,-5,38,990,-35,1025,-477
,822,2023-10-20 13:07:09.64,22,-379,-2020,22,6,30,1222,32,1190,-627
,823,2023-10-20 13:07:09.65,22,-384,-2021,16,0,23,995,-27,1022,-484
,824,2023-10-20 13:07:09.66,16,-391,-2020,14,-5,19,1221,36,1185,-628
,825,2023-10-20 13:07:09.67,15,-397,-2016,18,-5,14,994,-4,998,-495
,826,2023-10-20 13:07:09.68,10,-393,-2019,18,0,11,1213,77,1136,-645
,827,2023-10-20 13:07:09.69,16,-392,-2016,15,6,4,997,21,976,-509
,828,2023-10-20 13:07:09.70,9,-402,-2016,12,12,4,1213,99,1114,-656
,829,2023-10-20 13:07:09.71,8,-408,-2020,14,15,5,999,29,970,-514
,830,2023-10-20 13:07:09.72,18,-403,-2022,18,15,7,1211,99,1112,-655
,831,2023-10-20 13:07:09.73,7,-406,-2019,17,18,12,1001,13,988,-507
,832,2023-10-20 13:07:09.74,16,-403,-2023,14,22,12,1212,69,1143,-640
,833,2023-10-20 13:07:09.75,23,-410,-2032,10,20,20,1009,1,1008,-505
,834,2023-10-20 13:07:09.76,17,-401,-2038,0,10,21,1208,115,1093,-661
,835,2023-10-20 13:07:09.77,16,-402,-2038,-12,-3,21,990,26,964,-508
,836,2023-10-20 13:07:09.78,23,-411,-2033,-23,-21,22,1174,25,1149,-599
,837,2023-10-20 13:07:09.79,35,-429,-2010,-27,-20,26,996,-82,1078,-457
,838,2023-10-20 13:07:09.80,34,-439,-1997,-25,-7,29,1210,-26,1236,-592
,839,2023-10-20 13:07:09.81,27,-441,-2011,-24,7,39,1023,-83,1106,-470
,840,2023-10-20 13:07:09.82,34,-435,-2026,-24,11,48,1206,26,1180,-616
,841,2023-10-20 13:07:09.83,26,-420,-2036,-20,6,55,1016,-23,1039,-496
,842,2023-10-20 13:07:09.84,20,-400,-2026,-18,2,56,1196,92,1104,-644
,843,2023-10-20 13:07:09.85,25,-389,-2038,-19,-9,58,1020,4,1016,-512
,844,2023-10-20 13:07:09.86,11,-380,-2030,-9,-27,59,1193,68,1125,-630
,845,2023-10-20 13:07:09.87,17,-367,-2024,-9,-43,49,1019,-28,1047,-495
,846,2023-10-20 13:07:09.88,5,-374,-2024,-7,-50,39,1187,68,1119,-627
,847,2023-10-20 13:07:09.89,16,-360,-2011,1,-54,21,1025,-8,1033,-508
,848,2023-10-20 13:07:09.90,9,-372,-2002,6,-50,10,1185,114,1071,-649
,849,2023-10-20 13:07:09.91,9,-396,-2003,12,-39,-2,1027,18,1009,-522
,850,2023-10-20 13:07:09.92,-2,-417,-2022,16,-30,-4,1190,92,1098,-641
,851,2023-10-20 13:07:09.93,2,-400,-2025,26,-30,-2,1031,-32,1063,-499
,852,2023-10-20 13:07:09.94,3,-424,-2019,22,-34,13,1176,38,1138,-607
,853,2023-10-20 13:07:09.95,9,-449,-1992,19,-22,27,1017,-54,1071,-481
,854,2023-10-20 13:07:09.96,-3,-408,-2040,11,-3,31,1171,74,1097,-622
,855,2023-10-20 13:07:09.97,13,-372,-2054,4,-13,27,1010,-44,1054,-483
,856,2023-10-20 13:07:09.98,-10,-360,-2004,12,-24,28,1132,1,1131,-566
,857,2023-10-20 13:07:09.99,11,-382,-1977,1,-7,13,1013,-109,1122,-452
,858,2023-10-20 13:07:10.00,10,-385,-1990,-13,23,0,1140,-27,1167,-556
,859,2023-10-20 13:07:10.01,8,-398,-2023,-16,32,-5,1039,-107,1146,-466
,860,2023-10-20 13:07:10.02,3,-401,-2020,-8,28,-1,1162,26,1136,-594
,861,2023-10-20 13:07:10.03,7,-407,-2013,-5,22,1,1040,-47,1087,-496
,862,2023-10-20 13:07:10.04,6,-406,-2027,-7,22,6,1132,42,1090,-587
,863,2023-10-20 13:07:10.05,15,-404,-2029,-6,18,12,1045,-75,1120,-485
,864,2023-10-20 13:07:10.06,17,-398,-2025,-1,15,18,1156,22,1134,-589
,865,2023-10-20 13:07:10.07,15,-402,-2029,-1,10,22,1035,-70,1105,-482
,866,2023-10-20 13:07:10.08,20,-392,-2025,4,5,26,1105,24,1081,-564
,867,2023-10-20 13:07:10.09,17,-392,-2019,7,4,25,1055,-82,1137,-486
,868,2023-10-20 13:07:10.10,11,-391,-2022,10,2,28,1153,34,1119,-593
,869,2023-10-20 13:07:10.11,15,-393,-2023,15,5,28,1086,-38,1124,-524
,870,2023-10-20 13:07:10.12,10,-400,-2017,18,5,26,1145,79,1066,-612
,871,2023-10-20 13:07:10.13,19,-396,-2011,19,11,25,1078,-50,1128,-514
,872,2023-10-20 13:07:10.14,14,-396,-2018,17,15,20,1138,32,1106,-585
,873,2023-10-20 13:07:10.15,13,-389,-2033,15,23,19,1084,-87,1171,-498
,874,2023-10-20 13:07:10.16,18,-401,-2030,13,23,19,1133,-4,1137,-564
,875,2023-10-20 13:07:10.17,16,-401,-2040,14,19,21,1083,-107,1190,-488
,876,2023-10-20 13:07:10.18,29,-410,-1998,14,20,30,1117,-2,1119,-557
,877,2023-10-20 13:07:10.19,7,-395,-2039,22,25,38,1086,-90,1176,-498
,878,2023-10-20 13:07:10.20,22,-386,-2032,18,8,30,1114,44,1070,-579
,879,2023-10-20 13:07:10.21,22,-354,-2005,21,7,19,1090,-27,1117,-531
,880,2023-10-20 13:07:10.22,11,-354,-2000,16,3,2,1114,90,1024,-602
,881,2023-10-20 13:07:10.23,7,-361,-2023,14,-4,-10,1097,-30,1127,-533
,882,2023-10-20 13:07:10.24,0,-377,-2018,14,-16,-16,1112,71,1041,-591
,883,2023-10-20 13:07:10.25,-1,-391,-2013,16,-22,-19,1090,-47,1137,-521
,884,2023-10-20 13:07:10.26,6,-405,-2019,13,-19,-16,1090,52,1038,-571
,885,2023-10-20 13:07:10.27,0,-408,-2019,14,-9,-5,1101,-56,1157,-522
,886,2023-10-20 13:07:10.28,13,-418,-2019,12,3,6,1102,47,1055,-574
,887,2023-10-20 13:07:10.29,1,-421,-2019,12,21,20,1109,-76,1185,-516
,888,2023-10-20 13:07:10.30,14,-419,-2020,15,34,31,1094,7,1087,-550
,889,2023-10-20 13:07:10.31,9,-404,-2020,21,42,38,1114,-96,1210,-509
,890,2023-10-20 13:07:10.32,19,-370,-2019,28,41,38,1094,14,1080,-554
,891,2023-10-20 13:07:10.33,10,-376,-2034,36,46,27,1126,-47,1173,-539
,892,2023-10-20 13:07:10.34,27,-393,-2006,33,33,26,1089,91,998,-590
,893,2023-10-20 13:07:10.35,17,-394,-2020,42,32,24,1125,1,1124,-563
,894,2023-10-20 13:07:10.36,20,-401,-2038,42,25,21,1066,100,966,-583
,895,2023-10-20 13:07:10.37,13,-388,-2033,39,14,21,1092,-8,1100,-542
,896,2023-10-20 13:07:10.38,16,-415,-2018,43,0,21,1042,56,986,-549
,897,2023-10-20 13:07:10.39,19,-399,-2019,43,-2,18,1123,-52,1175,-535
,898,2023-10-20 13:07:10.40,1,-397,-2018,40,-6,11,1086,74,1012,-580
,899,2023-10-20 13:07:10.41,9,-393,-2017,41,-10,9,1144,6,1138,-575
,900,2023-10-20 13:07:10.42,3,-395,-2012,37,-6,3,1069,102,967,-585
,901,2023-10-20 13:07:10.43,9,-400,-2020,28,4,-5,1142,20,1122,-581
,902,2023-10-20 13:07:10.44,12,-402,-2017,24,6,-6,1060,123,937,-591
,903,2023-10-20 13:07:10.45,13,-406,-2015,22,10,-10,1145,-2,1147,-571
,904,2023-10-20 13:07:10.46,20,-407,-2013,22,15,-16,1054,53,1001,-553
,905,2023-10-20 13:07:10.47,15,-410,-2026,22,17,-17,1152,-38,1190,-557
,906,2023-10-20 13:07:10.48,24,-405,-2041,21,15,-15,1052,40,1012,-546
,907,2023-10-20 13:07:10.49,21,-410,-2046,13,4,-11,1154,-82,1236,-536
,908,2023-10-20 13:07:10.50,13,-396,-2044,5,-18,-12,1042,-35,1077,-503
,909,2023-10-20 13:07:10.51,24,-410,-2029,-4,-44,-8,1160,-133,1293,-513
,910,2023-10-20 13:07:10.52,29,-422,-2015,0,-58,-8,1047,-41,1088,-503
,911,2023-10-20 13:07:10.53,29,-430,-2015,11,-61,-6,1124,-119,1243,-502
,912,2023-10-20 13:07:10.54,26,-437,-2020,26,-67,0,1010,-62,1072,-474
,913,2023-10-20 13:07:10.55,13,-436,-2028,41,-68,7,1165,-117,1282,-524
,914,2023-10-20 13:07:10.56,15,-413,-2030,44,-72,13,1050,-20,1070,-515
,915,2023-10-20 13:07:10.57,0,-402,-2035,45,-71,18,1180,-74,1254,-553
,916,2023-10-20 13:07:10.58,-22,-404,-2039,37,-57,19,1040,6,1034,-523
,917,2023-10-20 13:07:10.59,-19,-403,-2049,22,-47,19,1150,-115,1265,-517
,918,2023-10-20 13:07:10.60,-36,-409,-2041,11,-35,17,1011,-83,1094,-464
,919,2023-10-20 13:07:10.61,-42,-415,-2021,7,-27,17,1173,-150,1323,-511
,920,2023-10-20 13:07:10.62,-33,-434,-2001,2,-19,15,1026,-50,1076,-488
,921,2023-10-20 13:07:10.63,-38,-426,-1990,10,-9,16,1179,-84,1263,-547
,922,2023-10-20 13:07:10.64,-29,-405,-1980,17,0,12,1024,-6,1030,-509
,923,2023-10-20 13:07:10.65,-35,-399,-1988,19,9,-1,1182,-85,1267,-548
,924,2023-10-20 13:07:10.66,-10,-413,-1986,10,30,-2,1020,-52,1072,-484
,925,2023-10-20 13:07:10.67,-14,-446,-1949,11,52,-4,1188,-103,1291,-542
,926,2023-10-20 13:07:10.68,-11,-393,-2035,9,72,-15,1010,-23,1033,-493
,927,2023-10-20 13:07:10.69,-5,-356,-2053,-1,58,-28,1189,-50,1239,-569
,928,2023-10-20 13:07:10.70,15,-344,-2000,1,36,-42,1010,32,978,-521
,929,2023-10-20 13:07:10.71,14,-376,-1973,-17,45,-60,1169,-44,1213,-562
,930,2023-10-20 13:07:10.72,9,-395,-1997,-36,63,-74,994,-41,1035,-476
,931,2023-10-20 13:07:10.73,24,-406,-2009,-43,65,-72,1159,-138,1297,-510
,932,2023-10-20 13:07:10.74,26,-410,-2005,-37,63,-66,992,-105,1097,-443
,933,2023-10-20 13:07:10.75,22,-410,-2005,-39,75,-59,1194,-150,1344,-522
,934,2023-10-20 13:07:10.76,33,-399,-2009,-49,88,-55,1006,-85,1091,-460
,935,2023-10-20 13:07:10.77,37,-389,-2028,-51,101,-48,1162,-154,1316,-504
,936,2023-10-20 13:07:10.78,54,-385,-2021,-46,105,-48,986,-121,1107,-432
,937,2023-10-20 13:07:10.79,61,-385,-2031,-41,108,-51,1210,-187,1397,-511
,938,2023-10-20 13:07:10.80,54,-378,-2029,-33,105,-58,1012,-136,1148,-438
,939,2023-10-20 13:07:10.81,55,-385,-2037,-20,99,-64,1210,-161,1371,-524
,940,2023-10-20 13:07:10.82,62,-390,-2046,-3,85,-70,1003,-115,1118,-444
,941,2023-10-20 13:07:10.83,61,-387,-2044,6,71,-74,1209,-222,1431,-493
,942,2023-10-20 13:07:10.84,56,-399,-2044,13,58,-80,998,-207,1205,-395
,943,2023-10-20 13:07:10.85,57,-394,-2034,17,47,-81,1198,-285,1483,-456
,944,2023-10-20 13:07:10.86,54,-407,-2042,21,37,-78,987,-239,1226,-374
,945,2023-10-20 13:07:10.87,53,-412,-2032,28,25,-76,1211,-298,1509,-456
,946,2023-10-20 13:07:10.88,55,-419,-2033,34,13,-69,993,-249,1242,-372
,947,2023-10-20 13:07:10.89,48,-412,-2034,36,2,-62,1214,-257,1471,-478
,948,2023-10-20 13:07:10.90,50,-417,-2043,25,-2,-55,990,-179,1169,-405
,949,2023-10-20 13:07:10.91,39,-425,-2011,14,6,-44,1219,-160,1379,-529
,950,2023-10-20 13:07:10.92,34,-436,-1992,5,17,-32,998,-102,1100,-448
,951,2023-10-20 13:07:10.93,19,-424,-2018,13,11,-21,1221,-132,1353,-544
,952,2023-10-20 13:07:10.94,20,-442,-2009,19,3,-3,990,-125,1115,-432
,953,2023-10-20 13:07:10.95,-1,-405,-1998,58,14,-3,1224,-180,1404,-522
,954,2023-10-20 13:07:10.96,2,-358,-2029,49,13,-11,987,-158,1145,-414
,955,2023-10-20 13:07:10.97,-3,-348,-2024,23,2,-23,1224,-155,1379,-534
,956,2023-10-20 13:07:10.98,16,-381,-1998,-1,-2,-35,988,-109,1097,-439
,957,2023-10-20 13:07:10.99,13,-393,-1976,-12,15,-43,1222,-100,1322,-561
,958,2023-10-20 13:07:11.00,15,-398,-2007,-11,30,-51,988,-69,1057,-459
,959,2023-10-20 13:07:11.01,29,-401,-2017,-9,38,-49,1228,-49,1277,-589
,960,2023-10-20 13:07:11.02,24,-406,-2024,-17,60,-48,984,-28,1012,-478
,961,2023-10-20 13:07:11.03,27,-409,-2023,-22,79,-43,1228,-5,1233,-611
,962,2023-10-20 13:07:11.04,33,-410,-2030,-18,78,-36,987,-17,1004,-485
,963,2023-10-20 13:07:11.05,31,-396,-2030,-4,72,-31,1231,-35,1266,-598
,964,2023-10-20 13:07:11.06,50,-379,-2035,10,58,-26,984,-49,1033,-467
,965,2023-10-20 13:07:11.07,45,-361,-2003,19,62,-34,1229,-14,1243,-607
,966,2023-10-20 13:07:11.08,71,-386,-1994,16,66,-42,982,-12,994,-485
,967,2023-10-20 13:07:11.09,83,-376,-1977,19,77,-43,1227,-6,1233,-610
,968,2023-10-20 13:07:11.10,88,-388,-1988,32,91,-45,981,-23,1004,-479
,969,2023-10-20 13:07:11.11,78,-374,-2000,35,92,-53,1228,-4,1232,-612
,970,2023-10-20 13:07:11.12,87,-375,-2009,37,80,-57,986,-30,1016,-478
,971,2023-10-20 13:07:11.13,89,-381,-2022,40,82,-64,1230,-30,1260,-600
,972,2023-10-20 13:07:11.14,110,-370,-2033,40,74,-74,981,-65,1046,-458
,973,2023-10-20 13:07:11.15,110,-389,-2047,39,61,-80,1234,-73,1307,-580
,974,2023-10-20 13:07:11.16,104,-396,-2038,42,61,-84,977,-103,1080,-437
,975,2023-10-20 13:07:11.17,94,-407,-2048,40,68,-91,1215,-104,1319,-555
,976,2023-10-20 13:07:11.18,90,-419,-2057,45,54,-96,949,-128,1077,-410
,977,2023-10-20 13:07:11.19,90,-450,-2026,63,29,-93,1173,-116,1289,-528
,978,2023-10-20 13:07:11.20,92,-460,-2006,67,21,-88,950,-127,1077,-411
,979,2023-10-20 13:07:11.21,90,-462,-1979,76,26,-82,1188,-112,1300,-538
,980,2023-10-20 13:07:11.22,73,-475,-1989,80,28,-72,969,-144,1113,-412
,981,2023-10-20 13:07:11.23,74,-467,-2010,77,28,-62,1200,-136,1336,-532
,982,2023-10-20 13:07:11.24,61,-469,-2032,55,34,-51,966,-142,1108,-412
,983,2023-10-20 13:07:11.25,73,-484,-2043,28,35,-40,1184,-124,1308,-530
,984,2023-10-20 13:07:11.26,72,-512,-2030,18,21,-32,977,-168,1145,-404
,985,2023-10-20 13:07:11.27,69,-485,-2018,22,5,-28,1217,-238,1455,-489
,986,2023-10-20 13:07:11.28,59,-455,-2026,21,4,-23,1000,-278,1278,-361
,987,2023-10-20 13:07:11.29,62,-429,-2043,4,-5,-20,1226,-247,1473,-489
,988,2023-10-20 13:07:11.30,77,-388,-2054,-34,0,-31,988,-228,1216,-380
,989,2023-10-20 13:07:11.31,74,-363,-2050,-64,9,-38,1176,-190,1366,-493
,990,2023-10-20 13:07:11.32,70,-373,-2052,-81,-18,-54,961,-209,1170,-376
,991,2023-10-20 13:07:11.33,50,-375,-2049,-100,-27,-63,1175,-210,1385,-482
,992,2023-10-20 13:07:11.34,67,-367,-2038,-106,-39,-73,997,-236,1233,-380
,993,2023-10-20 13:07:11.35,62,-375,-2041,-116,-48,-73,1227,-190,1417,-518
,994,2023-10-20 13:07:11.36,57,-399,-1994,-97,-38,-78,1018,-204,1222,-407
,995,2023-10-20 13:07:11.37,64,-403,-1942,-93,-8,-81,1221,-168,1389,-526
,996,2023-10-20 13:07:11.38,37,-399,-1986,-84,22,-68,1005,-199,1204,-403
,997,2023-10-20 13:07:11.39,37,-371,-2057,-75,33,-72,1200,-179,1379,-510
,998,2023-10-20 13:07:11.40,52,-322,-1995,-50,24,-69,996,-224,1220,-386
,999,2023-10-20 13:07:11.41,62,-349,-1952,-34,13,-72,1202,-176,1378,-513
,1000,2023-10-20 13:07:11.42,73,-382,-1954,-39,45,-88,1007,-210,1217,-398
,1001,2023-10-20 13:07:11.43,64,-373,-2003,-32,69,-94,1202,-181,1383,-510
,1002,2023-10-20 13:07:11.44,86,-370,-2032,-18,58,-92,1014,-252,1266,-381
,1003,2023-10-20 13:07:11.45,83,-383,-2039,-10,60,-87,1201,-283,1484,-459
,1004,2023-10-20 13:07:11.46,83,-376,-2036,-19,67,-91,1012,-304,1316,-354
,1005,2023-10-20 13:07:11.47,96,-372,-2040,-27,71,-88,1200,-200,1400,-500
,1006,2023-10-20 13:07:11.48,99,-385,-2045,-21,65,-90,999,-228,1227,-385
,1007,2023-10-20 13:07:11.49,97,-382,-2042,-20,75,-89,1162,-220,1382,-471
,1008,2023-10-20 13:07:11.50,112,-371,-2027,-16,66,-92,1011,-271,1282,-370
,1009,2023-10-20 13:07:11.51,119,-368,-2028,-12,59,-98,1204,-209,1413,-497
,1010,2023-10-20 13:07:11.52,117,-368,-2031,-15,73,-104,1030,-267,1297,-381
,1011,2023-10-20 13:07:11.53,118,-358,-2026,-21,74,-118,1179,-324,1503,-427
,1012,2023-10-20 13:07:11.54,136,-355,-2018,-26,72,-126,1019,-435,1454,-292
,1013,2023-10-20 13:07:11.55,136,-369,-1997,-35,76,-131,1177,-575,1752,-301
,1014,2023-10-20 13:07:11.56,133,-384,-1998,-11,51,-136,1045,-637,1682,-204
,1015,2023-10-20 13:07:11.57,126,-381,-2007,17,23,-133,1189,-715,1904,-237
,1016,2023-10-20 13:07:11.58,114,-370,-2025,38,-4,-128,1046,-742,1788,-152
,1017,2023-10-20 13:07:11.59,114,-379,-2022,44,-22,-130,1167,-960,2127,-103
,1018,2023-10-20 13:07:11.60,122,-382,-2017,42,-32,-131,1053,-996,2049,-28
,1019,2023-10-20 13:07:11.61,126,-378,-2018,36,-41,-131,1177,-1138,2315,-19
,1020,2023-10-20 13:07:11.62,110,-390,-2039,34,-51,-132,1048,-1065,2113,8
,1021,2023-10-20 13:07:11.63,105,-364,-2067,25,-49,-132,1158,-1075,2233,-41
,1022,2023-10-20 13:07:11.64,121,-325,-2069,18,-49,-155,1044,-981,2025,-31
,1023,2023-10-20 13:07:11.65,137,-301,-2016,2,-21,-183,1150,-1070,2220,-40
,1024,2023-10-20 13:07:11.66,167,-300,-1976,-27,16,-214,1048,-1018,2066,-15
,1025,2023-10-20 13:07:11.67,155,-367,-1978,-55,55,-232,1160,-1068,2228,-46
,1026,2023-10-20 13:07:11.68,144,-415,-2007,-54,84,-236,1064,-999,2063,-32
,1027,2023-10-20 13:07:11.69,133,-429,-2019,-48,93,-220,1166,-1070,2236,-48
,1028,2023-10-20 13:07:11.70,142,-459,-2025,-35,91,-197,1069,-1021,2090,-24
,1029,2023-10-20 13:07:11.71,92,-468,-2037,-5,90,-178,1148,-1081,2229,-33
,1030,2023-10-20 13:07:11.72,106,-501,-2020,13,66,-147,1063,-1017,2080,-23
,1031,2023-10-20 13:07:11.73,103,-494,-1981,38,58,-109,1138,-1065,2203,-36
,1032,2023-10-20 13:07:11.74,103,-471,-2036,64,33,-78,1031,-1005,2036,-13
,1033,2023-10-20 13:07:11.75,86,-443,-2051,69,-5,-52,1080,-1050,2130,-15
,1034,2023-10-20 13:07:11.76,90,-424,-2052,70,-34,-29,1016,-995,2011,-10
,1035,2023-10-20 13:07:11.77,105,-377,-2081,53,-47,-24,1079,-1040,2119,-19
,1036,2023-10-20 13:07:11.78,91,-338,-2081,-15,20,-24,1039,-990,2029,-24
,1037,2023-10-20 13:07:11.79,104,-332,-2050,-86,76,-34,1086,-1029,2115,-28
,1038,2023-10-20 13:07:11.80,114,-325,-2042,-128,103,-48,1068,-980,2048,-44
,1039,2023-10-20 13:07:11.81,113,-318,-2030,-141,122,-64,1107,-1013,2120,-47
,1040,2023-10-20 13:07:11.82,123,-315,-2015,-134,118,-80,1075,-979,2054,-48
,1041,2023-10-20 13:07:11.83,123,-313,-2000,-127,111,-88,1087,-1024,2111,-31
,1042,2023-10-20 13:07:11.84,126,-314,-2000,-117,103,-101,1068,-975,2043,-46
,1043,2023-10-20 13:07:11.85,125,-328,-2009,-98,87,-108,1084,-991,2075,-46
,1044,2023-10-20 13:07:11.86,143,-322,-2018,-69,71,-112,1057,-970,2027,-43
,1045,2023-10-20 13:07:11.87,145,-311,-2021,-51,66,-115,1052,-1013,2065,-19
,1046,2023-10-20 13:07:11.88,140,-299,-2018,-52,65,-124,1037,-993,2030,-22
,1047,2023-10-20 13:07:11.89,147,-300,-2041,-59,63,-128,1037,-1013,2050,-12
,1048,2023-10-20 13:07:11.90,141,-312,-2039,-59,48,-130,1085,-1003,2088,-41
,1049,2023-10-20 13:07:11.91,144,-295,-2032,-59,32,-130,1084,-1038,2122,-23
,1050,2023-10-20 13:07:11.92,169,-296,-2028,-74,19,-133,1100,-1028,2128,-36
,1051,2023-10-20 13:07:11.93,168,-293,-2043,-106,18,-132,1060,-1040,2100,-10
,1052,2023-10-20 13:07:11.94,170,-330,-2036,-133,18,-135,1051,-1009,2060,-21
,1053,2023-10-20 13:07:11.95,194,-365,-2017,-125,22,-132,1020,-1002,2022,-9
,1054,2023-10-20 13:07:11.96,203,-376,-2023,-101,24,-131,1095,-996,2091,-49
,1055,2023-10-20 13:07:11.97,181,-365,-2060,-61,20,-132,1089,-1003,2092,-43
,1056,2023-10-20 13:07:11.98,174,-343,-2083,-29,-3,-134,1074,-1013,2087,-30
,1057,2023-10-20 13:07:11.99,171,-351,-2088,-3,-37,-136,1009,-1023,2032,7
,1058,2023-10-20 13:07:12.00,165,-363,-2053,18,-55,-130,1018,-1019,2037,0
,1059,2023-10-20 13:07:12.01,166,-363,-2048,40,-58,-126,988,-999,1987,5
,1060,2023-10-20 13:07:12.02,168,-355,-2030,50,-60,-128,1114,-1012,2126,-51
,1061,2023-10-20 13:07:12.03,153,-358,-2021,52,-53,-121,1065,-1016,2081,-24
,1062,2023-10-20 13:07:12.04,159,-373,-2019,54,-49,-111,1072,-1016,2088,-28
,1063,2023-10-20 13:07:12.05,176,-415,-2007,61,-25,-107,983,-996,1979,6
,1064,2023-10-20 13:07:12.06,195,-414,-1939,81,8,-101,1066,-1019,2085,-23
,1065,2023-10-20 13:07:12.07,182,-448,-1953,69,49,-86,1015,-1014,2029,0
,1066,2023-10-20 13:07:12.08,130,-394,-2065,57,86,-71,1097,-1033,2130,-32
,1067,2023-10-20 13:07:12.09,124,-346,-2123,49,44,-72,1010,-1011,2021,0
,1068,2023-10-20 13:07:12.10,173,-319,-2017,49,0,-65,1088,-1029,2117,-29
,1069,2023-10-20 13:07:12.11,177,-367,-1954,7,25,-76,993,-999,1992,3
,1070,2023-10-20 13:07:12.12,187,-372,-1988,-31,63,-92,1074,-1002,2076,-36
,1071,2023-10-20 13:07:12.13,205,-359,-2016,-41,73,-95,977,-962,1939,-7
,1072,2023-10-20 13:07:12.14,192,-368,-2011,-29,71,-87,1105,-995,2100,-55
,1073,2023-10-20 13:07:12.15,192,-361,-2012,-29,65,-87,995,-982,1977,-6
,1074,2023-10-20 13:07:12.16,197,-343,-2034,-28,66,-81,1092,-1021,2113,-35
,1075,2023-10-20 13:07:12.17,205,-341,-2046,-22,61,-71,974,-984,1958,5
,1076,2023-10-20 13:07:12.18,203,-338,-2047,-23,57,-60,1077,-1008,2085,-34
,1077,2023-10-20 13:07:12.19,205,-341,-2046,-34,58,-47,970,-958,1928,-6
,1078,2023-10-20 13:07:12.20,208,-342,-2041,-43,59,-37,1092,-1007,2099,-42
,1079,2023-10-20 13:07:12.21,204,-341,-2050,-47,53,-26,978,-975,1953,-1
,1080,2023-10-20 13:07:12.22,205,-334,-2053,-45,41,-14,1105,-1021,2126,-42
,1081,2023-10-20 13:07:12.23,207,-330,-2042,-45,24,-3,977,-982,1959,2
,1082,2023-10-20 13:07:12.24,205,-327,-2037,-45,11,5,1165,-1050,2215,-57
,1083,2023-10-20 13:07:12.25,211,-326,-2026,-43,-1,9,1014,-1010,2024,-2
,1084,2023-10-20 13:07:12.26,200,-317,-2030,-45,-9,14,1132,-1044,2176,-44
,1085,2023-10-20 13:07:12.27,208,-328,-2029,-48,0,29,963,-978,1941,7
,1086,2023-10-20 13:07:12.28,183,-341,-2040,-44,10,41,1150,-1032,2182,-59
,1087,2023-10-20 13:07:12.29,182,-331,-2047,-44,8,55,991,-980,1971,-5
,1088,2023-10-20 13:07:12.30,202,-325,-2031,-41,1,68,1177,-1049,2226,-64
,1089,2023-10-20 13:07:12.31,189,-334,-2021,-40,19,87,985,-994,1979,4
,1090,2023-10-20 13:07:12.32,196,-325,-2020,-40,34,90,1122,-1041,2163,-40
,1091,2023-10-20 13:07:12.33,186,-287,-2021,-37,44,94,942,-965,1907,11
,1092,2023-10-20 13:07:12.34,172,-291,-2051,-27,37,99,1146,-1035,2181,-55
,1093,2023-10-20 13:07:12.35,186,-246,-2036,4,14,65,972,-980,1952,4
,1094,2023-10-20 13:07:12.36,186,-217,-2034,7,-18,52,1150,-1051,2201,-49
,1095,2023-10-20 13:07:12.37,208,-247,-2045,7,-39,26,960,-978,1938,9
,1096,2023-10-20 13:07:12.38,205,-270,-2030,-2,-27,12,1180,-1051,2231,-64
,1097,2023-10-20 13:07:12.39,198,-268,-2036,-10,0,-1,969,-979,1948,5
,1098,2023-10-20 13:07:12.40,191,-280,-2050,-12,11,-11,1156,-1053,2209,-51
,1099,2023-10-20 13:07:12.41,192,-286,-2064,-10,4,-10,946,-979,1925,16
,1100,2023-10-20 13:07:12.42,176,-301,-2078,-12,-6,0,1129,-1035,2164,-47
,1101,2023-10-20 13:07:12.43,187,-314,-2080,-10,-30,16,950,-950,1900,0
,1102,2023-10-20 13:07:12.44,177,-283,-2043,2,-40,24,1168,-1037,2205,-65
,1103,2023-10-20 13:07:12.45,195,-312,-2055,9,-50,25,981,-966,1947,-7
,1104,2023-10-20 13:07:12.46,189,-296,-2012,-1,-38,40,1181,-1056,2237,-62
,1105,2023-10-20 13:07:12.47,174,-318,-2032,10,-28,37,957,-978,1935,10
,1106,2023-10-20 13:07:12.48,163,-320,-2050,32,-60,45,1147,-1057,2204,-45
,1107,2023-10-20 13:07:12.49,154,-318,-2024,69,-93,47,938,-964,1902,13
,1108,2023-10-20 13:07:12.50,136,-329,-2018,103,-111,50,1146,-1041,2187,-52
,1109,2023-10-20 13:07:12.51,125,-316,-2030,112,-121,47,941,-955,1896,7
,1110,2023-10-20 13:07:12.52,125,-321,-2039,115,-127,46,1169,-1051,2220,-59
,1111,2023-10-20 13:07:12.53,117,-337,-2024,113,-125,45,948,-966,1914,9
,1112,2023-10-20 13:07:12.54,127,-345,-2019,100,-112,39,1162,-1067,2229,-47
,1113,2023-10-20 13:07:12.55,128,-335,-2025,78,-93,33,940,-972,1912,16
,1114,2023-10-20 13:07:12.56,120,-343,-2026,55,-84,25,1167,-1057,2224,-55
,1115,2023-10-20 13:07:12.57,129,-347,-2009,33,-64,20,955,-957,1912,1
,1116,2023-10-20 13:07:12.58,145,-358,-1984,15,-38,16,1213,-1065,2278,-74
,1117,2023-10-20 13:07:12.59,143,-380,-1989,-4,7,17,974,-967,1941,-3
,1118,2023-10-20 13:07:12.60,134,-399,-2015,-5,41,21,1206,-1058,2264,-74
,1119,2023-10-20 13:07:12.61,137,-399,-2027,7,57,30,944,-947,1891,1
,1120,2023-10-20 13:07:12.62,129,-383,-2044,30,45,42,1122,-1046,2168,-38
,1121,2023-10-20 13:07:12.63,140,-354,-2033,51,23,43,921,-947,1868,13
,1122,2023-10-20 13:07:12.64,146,-340,-2033,58,6,48,1208,-1057,2265,-75
,1123,2023-10-20 13:07:12.65,150,-334,-2031,54,-2,40,968,-953,1921,-7
,1124,2023-10-20 13:07:12.66,141,-325,-2024,38,0,34,1159,-1061,2220,-49
,1125,2023-10-20 13:07:12.67,159,-319,-2023,29,-2,24,933,-954,1887,10
,1126,2023-10-20 13:07:12.68,156,-320,-2020,27,1,10,1206,-1067,2273,-69
,1127,2023-10-20 13:07:12.69,156,-328,-2024,15,4,-5,958,-962,1920,2
,1128,2023-10-20 13:07:12.70,190,-357,-1994,3,18,-9,1159,-1068,2227,-45
,1129,2023-10-20 13:07:12.71,150,-342,-2007,-10,62,1,936,-955,1891,9
,1130,2023-10-20 13:07:12.72,143,-317,-2091,-19,64,-10,1200,-1053,2253,-73
,1131,2023-10-20 13:07:12.73,145,-267,-2071,-15,20,-3,970,-936,1906,-17
,1132,2023-10-20 13:07:12.74,175,-302,-2010,-9,-12,-5,1200,-1054,2254,-73
,1133,2023-10-20 13:07:12.75,182,-325,-1996,-19,4,-15,946,-944,1890,-1
,1134,2023-10-20 13:07:12.76,185,-300,-2026,-24,14,-28,1150,-1035,2185,-57
,1135,2023-10-20 13:07:12.77,173,-312,-2047,-15,4,-24,940,-923,1863,-8
,1136,2023-10-20 13:07:12.78,152,-325,-2041,-3,-12,-21,1199,-1056,2255,-71
,1137,2023-10-20 13:07:12.79,158,-312,-2054,-2,-17,-19,985,-956,1941,-14
,1138,2023-10-20 13:07:12.80,155,-318,-2065,-5,-23,-16,1201,-1084,2285,-58
,1139,2023-10-20 13:07:12.81,156,-308,-2047,-2,-29,-11,963,-969,1932,3
,1140,2023-10-20 13:07:12.82,156,-315,-2022,-4,-24,-7,1181,-1075,2256,-53
,1141,2023-10-20 13:07:12.83,166,-318,-2023,-4,-14,-2,965,-953,1918,-6
,1142,2023-10-20 13:07:12.84,170,-321,-2029,-1,-7,4,1194,-1066,2260,-64
,1143,2023-10-20 13:07:12.85,160,-323,-2030,12,-9,10,960,-962,1922,1
,1144,2023-10-20 13:07:12.86,168,-330,-2021,25,-17,14,1192,-1083,2275,-54
,1145,2023-10-20 13:07:12.87,167,-328,-2023,42,-23,14,965,-972,1937,3
,1146,2023-10-20 13:07:12.88,163,-336,-2016,55,-25,14,1184,-1078,2262,-53
,1147,2023-10-20 13:07:12.89,155,-339,-2023,68,-28,14,962,-962,1924,0
,1148,2023-10-20 13:07:12.90,159,-346,-2034,78,-35,16,1184,-1073,2257,-55
,1149,2023-10-20 13:07:12.91,147,-350,-2032,80,-31,18,968,-961,1929,-3
,1150,2023-10-20 13:07:12.92,145,-354,-2016,71,-27,17,1184,-1071,2255,-56
,1151,2023-10-20 13:07:12.93,142,-366,-2002,70,-16,22,958,-962,1920,2
,1152,2023-10-20 13:07:12.94,145,-351,-2002,68,2,24,1150,-1074,2224,-38
,1153,2023-10-20 13:07:12.95,127,-373,-1998,66,22,26,955,-968,1923,6
,1154,2023-10-20 13:07:12.96,122,-343,-2024,76,31,11,1177,-1079,2256,-49
,1155,2023-10-20 13:07:12.97,141,-322,-2048,67,19,8,960,-968,1928,4
,1156,2023-10-20 13:07:12.98,145,-333,-2022,65,18,-6,1136,-1064,2200,-36
,1157,2023-10-20 13:07:12.99,150,-337,-2016,59,23,-12,960,-950,1910,-5
,1158,2023-10-20 13:07:13.00,145,-349,-2022,50,32,-19,1182,-1058,2240,-62
,1159,2023-10-20 13:07:13.01,158,-362,-2023,44,32,-17,992,-953,1945,-19
,1160,2023-10-20 13:07:13.02,152,-365,-2028,38,31,-12,1181,-1061,2242,-60
,1161,2023-10-20 13:07:13.03,149,-362,-2032,39,31,-7,987,-960,1947,-13
,1162,2023-10-20 13:07:13.04,169,-363,-2049,31,28,2,1173,-1071,2244,-51
,1163,2023-10-20 13:07:13.05,154,-360,-2041,24,19,14,991,-973,1964,-9
,1164,2023-10-20 13:07:13.06,158,-354,-2032,23,16,21,1169,-1069,2238,-50
,1165,2023-10-20 13:07:13.07,166,-341,-2033,20,5,26,973,-963,1936,-5
,1166,2023-10-20 13:07:13.08,147,-320,-2021,22,2,24,1136,-1062,2198,-37
,1167,2023-10-20 13:07:13.09,159,-337,-2030,15,-12,21,982,-961,1943,-10
,1168,2023-10-20 13:07:13.10,164,-349,-2016,11,-13,23,1161,-1053,2214,-54
,1169,2023-10-20 13:07:13.11,158,-344,-2039,14,-8,24,1002,-966,1968,-18
,1170,2023-10-20 13:07:13.12,143,-350,-2048,7,-10,28,1162,-1077,2239,-42
,1171,2023-10-20 13:07:13.13,146,-348,-2045,7,-15,30,1002,-982,1984,-10
,1172,2023-10-20 13:07:13.14,140,-352,-2033,7,-13,32,1150,-1066,2216,-42
,1173,2023-10-20 13:07:13.15,140,-343,-2043,4,-8,32,1003,-974,1977,-14
,1174,2023-10-20 13:07:13.16,151,-340,-2038,4,-8,32,1146,-1071,2217,-37
,1175,2023-10-20 13:07:13.17,145,-343,-2020,7,-1,33,1004,-985,1989,-9
,1176,2023-10-20 13:07:13.18,150,-338,-2018,4,5,28,1140,-1067,2207,-36
,1177,2023-10-20 13:07:13.19,157,-339,-2017,4,13,22,1008,-979,1987,-14
,1178,2023-10-20 13:07:13.20,144,-333,-2017,2,18,15,1153,-1056,2209,-48
,1179,2023-10-20 13:07:13.21,150,-343,-2018,2,20,10,1017,-973,1990,-22
,1180,2023-10-20 13:07:13.22,165,-341,-2019,1,18,6,1140,-1044,2184,-48
,1181,2023-10-20 13:07:13.23,135,-350,-2026,8,14,2,1015,-975,1990,-20
,1182,2023-10-20 13:07:13.24,161,-351,-2015,11,11,1,1137,-1052,2189,-42
,1183,2023-10-20 13:07:13.25,155,-346,-2014,38,9,1,999,-975,1974,-12
,1184,2023-10-20 13:07:13.26,155,-346,-2014,38,9,1,1096,-1039,2135,-28
,1185,2023-10-20 13:07:13.27,152,-352,-2049,41,-11,1,1004,-966,1970,-19
,1186,2023-10-20 13:07:13.28,155,-355,-2043,45,-22,7,1121,-1042,2163,-39
,1187,2023-10-20 13:07:13.29,152,-364,-2028,47,-28,10,994,-980,1974,-7
,1188,2023-10-20 13:07:13.30,150,-357,-2018,52,-18,12,1094,-1032,2126,-31
,1189,2023-10-20 13:07:13.31,156,-350,-2029,48,-4,13,1024,-976,2000,-24
,1190,2023-10-20 13:07:13.32,149,-353,-2045,46,-2,14,1125,-1046,2171,-39
,1191,2023-10-20 13:07:13.33,155,-357,-2038,48,-9,16,1044,-994,2038,-25
,1192,2023-10-20 13:07:13.34,158,-363,-2022,49,-10,23,1114,-1047,2161,-33
,1193,2023-10-20 13:07:13.35,151,-367,-2023,51,-4,28,1046,-989,2035,-28
,1194,2023-10-20 13:07:13.36,138,-365,-2023,55,2,35,1107,-1040,2147,-33
,1195,2023-10-20 13:07:13.37,146,-362,-2026,56,11,41,1020,-981,2001,-19
,1196,2023-10-20 13:07:13.38,154,-364,-2028,53,10,47,1062,-1021,2083,-20
,1197,2023-10-20 13:07:13.39,154,-357,-2019,52,10,51,1048,-971,2019,-38
,1198,2023-10-20 13:07:13.40,159,-357,-2016,49,10,51,1105,-1023,2128,-41
,1199,2023-10-20 13:07:13.41,167,-367,-2029,46,11,56,1044,-987,2031,-28
,1200,2023-10-20 13:07:13.42,151,-364,-2029,49,8,58,1060,-1030,2090,-15
,1201,2023-10-20 13:07:13.43,151,-359,-2024,50,2,57,1012,-987,1999,-12
,1202,2023-10-20 13:07:13.44,159,-363,-2028,47,-3,58,1047,-1016,2063,-15
,1203,2023-10-20 13:07:13.45,157,-381,-2030,44,-2,60,1034,-968,2002,-33
,1204,2023-10-20 13:07:13.46,157,-370,-2026,46,7,61,1052,-990,2042,-31
,1205,2023-10-20 13:07:13.47,152,-371,-2030,42,16,67,1018,-960,1978,-29
,1206,2023-10-20 13:07:13.48,139,-376,-2035,38,13,72,1022,-996,2018,-13
,1207,2023-10-20 13:07:13.49,137,-363,-2047,26,6,78,1037,-976,2013,-30
,1208,2023-10-20 13:07:13.50,142,-366,-2053,3,6,84,1048,-1003,2051,-22
,1209,2023-10-20 13:07:13.51,155,-364,-2044,-21,19,84,1066,-978,2044,-44
,1210,2023-10-20 13:07:13.52,161,-358,-2018,-44,37,81,1068,-997,2065,-35
,1211,2023-10-20 13:07:13.53,162,-375,-2003,-50,58,78,1058,-992,2050,-33
,1212,2023-10-20 13:07:13.54,163,-368,-2010,-40,65,72,1038,-1019,2057,-9
,1213,2023-10-20 13:07:13.55,157,-356,-2033,-23,57,65,1085,-1019,2104,-33
,1214,2023-10-20 13:07:13.56,145,-324,-2060,-3,40,52,1066,-1035,2101,-15
,1215,2023-10-20 13:07:13.57,149,-319,-2054,6,10,44,1074,-1021,2095,-26
,1216,2023-10-20 13:07:13.58,137,-323,-2067,12,-18,35,1026,-1016,2042,-5
,1217,2023-10-20 13:07:13.59,141,-325,-2053,19,-56,21,1088,-1002,2090,-43
,1218,2023-10-20 13:07:13.60,169,-311,-2037,24,-75,4,1056,-1000,2056,-28
,1219,2023-10-20 13:07:13.61,160,-330,-1997,34,-81,-9,1102,-999,2101,-51
,1220,2023-10-20 13:07:13.62,182,-377,-1974,47,-74,-15,1023,-1009,2032,-7
,1221,2023-10-20 13:07:13.63,151,-417,-1971,47,-33,-6,1098,-1016,2114,-41
,1222,2023-10-20 13:07:13.64,126,-386,-2062,50,-16,-12,1027,-1020,2047,-3
,1223,2023-10-20 13:07:13.65,123,-359,-2071,63,-46,3,1115,-1028,2143,-43
,1224,2023-10-20 13:07:13.66,132,-374,-2022,87,-82,11,1036,-1022,2058,-7
,1225,2023-10-20 13:07:13.67,139,-404,-1991,79,-75,24,1123,-1031,2154,-46
,1226,2023-10-20 13:07:13.68,120,-415,-2010,57,-54,32,1031,-1017,2048,-7
,1227,2023-10-20 13:07:13.69,130,-412,-2028,48,-49,52,1113,-1033,2146,-40
,1228,2023-10-20 13:07:13.70,132,-415,-1998,59,-49,71,1006,-1018,2024,6
,1229,2023-10-20 13:07:13.71,125,-403,-1990,55,-30,80,1123,-1021,2144,-51
,1230,2023-10-20 13:07:13.72,129,-394,-1998,46,-3,87,1020,-993,2013,-13
,1231,2023-10-20 13:07:13.73,129,-387,-2012,47,16,90,1096,-1015,2111,-40
,1232,2023-10-20 13:07:13.74,133,-382,-2023,53,25,89,986,-992,1978,3
,1233,2023-10-20 13:07:13.75,137,-380,-2031,50,29,89,1084,-1011,2095,-36
,1234,2023-10-20 13:07:13.76,130,-373,-2043,47,25,85,977,-981,1958,2
,1235,2023-10-20 13:07:13.77,136,-371,-2031,43,18,79,1102,-1012,2114,-45
,1236,2023-10-20 13:07:13.78,138,-374,-2029,45,7,71,990,-985,1975,-2
,1237,2023-10-20 13:07:13.79,148,-375,-2030,45,2,66,1149,-1029,2178,-60
,1238,2023-10-20 13:07:13.80,135,-367,-2025,41,-3,55,1018,-997,2015,-10
,1239,2023-10-20 13:07:13.81,139,-366,-2020,39,-3,49,1156,-1051,2207,-52
,1240,2023-10-20 13:07:13.82,139,-375,-2016,32,-1,39,1002,-1012,2014,5
,1241,2023-10-20 13:07:13.83,140,-390,-2013,28,4,34,1150,-1042,2192,-54
,1242,2023-10-20 13:07:13.84,134,-394,-2019,30,12,37,1002,-989,1991,-6
,1243,2023-10-20 13:07:13.85,132,-393,-2023,31,15,43,1150,-1024,2174,-63
,1244,2023-10-20 13:07:13.86,142,-404,-1994,23,19,46,995,-972,1967,-11
,1245,2023-10-20 13:07:13.87,126,-410,-2018,19,40,64,1155,-1029,2184,-63
,1246,2023-10-20 13:07:13.88,117,-402,-2049,9,35,69,992,-980,1972,-6
,1247,2023-10-20 13:07:13.89,119,-384,-2035,13,20,72,1147,-1031,2178,-58
,1248,2023-10-20 13:07:13.90,124,-375,-2027,25,11,70,976,-973,1949,-1
,1249,2023-10-20 13:07:13.91,132,-359,-2009,44,-2,52,1122,-1030,2152,-46
,1250,2023-10-20 13:07:13.92,127,-344,-1993,60,-8,33,953,-968,1921,7
,1251,2023-10-20 13:07:13.93,120,-378,-2002,58,-4,19,1115,-1029,2144,-43
,1252,2023-10-20 13:07:13.94,124,-414,-2017,51,1,18,960,-972,1932,6
,1253,2023-10-20 13:07:13.95,128,-427,-2026,36,7,31,1176,-1049,2225,-63
,1254,2023-10-20 13:07:13.96,148,-415,-2020,24,16,49,990,-984,1974,-3
,1255,2023-10-20 13:07:13.97,140,-426,-2052,6,48,54,1150,-1030,2180,-60
,1256,2023-10-20 13:07:13.98,141,-444,-2006,-19,51,80,956,-952,1908,-2
,1257,2023-10-20 13:07:13.99,146,-435,-2012,-11,54,100,1126,-1028,2154,-49
,1258,2023-10-20 13:07:14.00,145,-415,-2040,-6,54,116,951,-961,1912,5
,1259,2023-10-20 13:07:14.01,157,-376,-2035,-1,49,123,1134,-1045,2179,-44
,1260,2023-10-20 13:07:14.02,151,-362,-2020,5,40,123,962,-966,1928,2
,1261,2023-10-20 13:07:14.03,157,-371,-2015,14,34,115,1178,-1057,2235,-60
,1262,2023-10-20 13:07:14.04,160,-354,-2032,26,25,102,978,-974,1952,-2
,1263,2023-10-20 13:07:14.05,167,-354,-2031,48,5,92,1156,-1053,2209,-51
,1264,2023-10-20 13:07:14.06,146,-365,-2024,67,-2,78,957,-962,1919,2
,1265,2023-10-20 13:07:14.07,151,-357,-2023,73,-5,64,1160,-1055,2215,-52
,1266,2023-10-20 13:07:14.08,155,-366,-2019,70,-7,56,961,-972,1933,5
,1267,2023-10-20 13:07:14.09,146,-386,-2032,71,-5,52,1152,-1054,2206,-49
,1268,2023-10-20 13:07:14.10,157,-386,-2036,65,7,51,938,-958,1896,10
,1269,2023-10-20 13:07:14.11,154,-396,-2026,50,18,53,1161,-1041,2202,-60
,1270,2023-10-20 13:07:14.12,135,-409,-2024,43,25,59,946,-952,1898,3
,1271,2023-10-20 13:07:14.13,129,-404,-2016,44,18,63,1164,-1048,2212,-58
,1272,2023-10-20 13:07:14.14,114,-413,-2012,44,17,71,952,-961,1913,4
,1273,2023-10-20 13:07:14.15,124,-413,-2002,45,27,78,1187,-1058,2245,-64
,1274,2023-10-20 13:07:14.16,138,-405,-2005,37,44,81,960,-957,1917,-1
,1275,2023-10-20 13:07:14.17,116,-398,-2024,28,53,82,1160,-1037,2197,-61
,1276,2023-10-20 13:07:14.18,116,-385,-2023,13,54,81,938,-934,1872,-2
,1277,2023-10-20 13:07:14.19,129,-381,-2035,-12,46,80,1169,-1044,2213,-62
,1278,2023-10-20 13:07:14.20,148,-401,-2038,-45,46,81,948,-947,1895,0
,1279,2023-10-20 13:07:14.21,152,-410,-2014,-50,56,78,1164,-1011,2175,-76
,1280,2023-10-20 13:07:14.22,156,-392,-2011,-39,65,67,947,-899,1846,-24
,1281,2023-10-20 13:07:14.23,163,-395,-2023,-25,64,55,1200,-981,2181,-109
,1282,2023-10-20 13:07:14.24,170,-411,-2010,-15,62,53,959,-891,1850,-34
,1283,2023-10-20 13:07:14.25,177,-424,-2031,-6,59,50,1150,-1013,2163,-68
,1284,2023-10-20 13:07:14.26,172,-421,-2043,9,45,62,919,-934,1853,7
,1285,2023-10-20 13:07:14.27,155,-400,-2051,29,27,66,1125,-1052,2177,-36
,1286,2023-10-20 13:07:14.28,161,-359,-2044,35,-2,66,933,-951,1884,9
,1287,2023-10-20 13:07:14.29,173,-350,-2055,20,-32,68,1214,-1047,2261,-83
,1288,2023-10-20 13:07:14.30,154,-387,-2044,-4,-42,83,973,-942,1915,-15
,1289,2023-10-20 13:07:14.31,171,-413,-2048,-13,-46,94,1195,-1055,2250,-70
,1290,2023-10-20 13:07:14.32,184,-443,-2015,18,-51,111,952,-954,1906,1
,1291,2023-10-20 13:07:14.33,178,-498,-1932,55,-39,133,1195,-1070,2265,-62
,1292,2023-10-20 13:07:14.34,136,-390,-2012,66,-8,126,954,-967,1921,6
,1293,2023-10-20 13:07:14.35,121,-364,-2095,64,-32,118,1180,-1081,2261,-49
,1294,2023-10-20 13:07:14.36,146,-361,-2018,84,-59,114,946,-974,1920,14
,1295,2023-10-20 13:07:14.37,139,-426,-1942,80,-38,109,1206,-1095,2301,-55
,1296,2023-10-20 13:07:14.38,137,-434,-1965,65,2,99,963,-983,1946,10
,1297,2023-10-20 13:07:14.39,123,-431,-2031,52,11,100,1204,-1093,2297,-55
,1298,2023-10-20 13:07:14.40,120,-448,-2020,66,-5,122,944,-977,1921,16
,1299,2023-10-20 13:07:14.41,128,-453,-1998,70,-14,139,1145,-1083,2228,-31
,1300,2023-10-20 13:07:14.42,123,-445,-2015,56,-8,152,934,-975,1909,20
,1301,2023-10-20 13:07:14.43,108,-438,-2024,53,-10,164,1224,-1098,2322,-63
,1302,2023-10-20 13:07:14.44,119,-425,-2030,45,6,175,960,-986,1946,13
,1303,2023-10-20 13:07:14.45,116,-408,-2022,36,4,179,1162,-1077,2239,-42
,1304,2023-10-20 13:07:14.46,112,-401,-2028,22,3,181,917,-952,1869,17
,1305,2023-10-20 13:07:14.47,106,-404,-2030,20,-2,178,1160,-1055,2215,-52
,1306,2023-10-20 13:07:14.48,110,-382,-2019,21,-9,175,948,-948,1896,0
,1307,2023-10-20 13:07:14.49,110,-380,-1996,22,-17,166,1165,-1066,2231,-49
,1308,2023-10-20 13:07:14.50,128,-380,-1999,19,-10,150,942,-959,1901,8
,1309,2023-10-20 13:07:14.51,126,-368,-1998,18,9,129,1148,-1078,2226,-35
,1310,2023-10-20 13:07:14.52,138,-362,-1998,14,25,113,921,-968,1889,23
,1311,2023-10-20 13:07:14.53,162,-372,-1999,17,42,93,1163,-1051,2214,-56
,1312,2023-10-20 13:07:14.54,170,-372,-2001,34,41,82,973,-940,1913,-16
,1313,2023-10-20 13:07:14.55,165,-389,-2041,42,32,71,1204,-1060,2264,-72
,1314,2023-10-20 13:07:14.56,164,-426,-2043,40,25,69,984,-961,1945,-11
,1315,2023-10-20 13:07:14.57,144,-425,-2038,39,25,65,1193,-1078,2271,-57
,1316,2023-10-20 13:07:14.58,156,-445,-2049,39,12,70,955,-955,1910,0
,1317,2023-10-20 13:07:14.59,133,-462,-2070,57,7,76,1140,-1039,2179,-50
,1318,2023-10-20 13:07:14.60,135,-411,-2029,91,-22,63,949,-934,1883,-7
,1319,2023-10-20 13:07:14.61,140,-357,-2014,103,-50,50,1164,-1061,2225,-51
,1320,2023-10-20 13:07:14.62,136,-395,-2011,98,-71,43,982,-974,1956,-4
,1321,2023-10-20 13:07:14.63,145,-438,-1995,80,-74,40,1195,-1091,2286,-52
,1322,2023-10-20 13:07:14.64,125,-462,-2013,65,-61,50,992,-987,1979,-2
,1323,2023-10-20 13:07:14.65,117,-473,-2027,58,-57,65,1181,-1093,2274,-44
,1324,2023-10-20 13:07:14.66,94,-456,-1991,65,-48,79,988,-985,1973,-1
,1325,2023-10-20 13:07:14.67,109,-492,-2047,78,-48,85,1180,-1092,2272,-44
,1326,2023-10-20 13:07:14.68,122,-475,-1996,74,-48,105,993,-997,1990,2
,1327,2023-10-20 13:07:14.69,117,-440,-2011,94,-44,104,1172,-1111,2283,-30
,1328,2023-10-20 13:07:14.70,130,-424,-2028,89,-60,104,989,-1002,1991,6
,1329,2023-10-20 13:07:14.71,107,-416,-2017,91,-58,88,1160,-1087,2247,-36
,1330,2023-10-20 13:07:14.72,104,-417,-2031,95,-64,72,991,-973,1964,-9
,1331,2023-10-20 13:07:14.73,90,-431,-2019,96,-70,54,1167,-1060,2227,-53
,1332,2023-10-20 13:07:14.74,84,-443,-1998,108,-89,37,981,-961,1942,-10
,1333,2023-10-20 13:07:14.75,82,-449,-1993,120,-83,26,1121,-1062,2183,-29
,1334,2023-10-20 13:07:14.76,84,-440,-1996,121,-77,17,960,-964,1924,2
,1335,2023-10-20 13:07:14.77,71,-448,-1987,112,-63,8,1116,-1044,2160,-36
,1336,2023-10-20 13:07:14.78,74,-462,-1986,99,-47,2,970,-954,1924,-8
,1337,2023-10-20 13:07:14.79,69,-464,-1997,90,-38,2,1123,-1054,2177,-34
,1338,2023-10-20 13:07:14.80,69,-434,-2007,69,-29,2,989,-971,1960,-9
,1339,2023-10-20 13:07:14.81,72,-440,-2020,32,-30,3,1130,-1057,2187,-36
,1340,2023-10-20 13:07:14.82,68,-452,-2040,-14,-37,10,989,-966,1955,-11
,1341,2023-10-20 13:07:14.83,71,-462,-2043,-56,-47,16,1115,-1044,2159,-35
,1342,2023-10-20 13:07:14.84,63,-452,-2019,-73,-56,21,997,-962,1959,-17
,1343,2023-10-20 13:07:14.85,48,-442,-2018,-76,-56,18,1108,-1054,2162,-27
,1344,2023-10-20 13:07:14.86,26,-435,-2044,-74,-71,6,1005,-984,1989,-10
,1345,2023-10-20 13:07:14.87,38,-455,-2020,-69,-86,7,1127,-1070,2197,-28
,1346,2023-10-20 13:07:14.88,37,-464,-1984,-61,-91,5,992,-994,1986,1
,1347,2023-10-20 13:07:14.89,32,-472,-1978,-51,-74,8,1081,-1065,2146,-8
,1348,2023-10-20 13:07:14.90,24,-452,-1987,-47,-50,14,980,-991,1971,5
,1349,2023-10-20 13:07:14.91,26,-444,-1997,-47,-38,21,1095,-1050,2145,-22
,1350,2023-10-20 13:07:14.92,15,-455,-1991,-49,-20,35,1026,-989,2015,-18
,1351,2023-10-20 13:07:14.93,44,-461,-1995,-54,-3,44,1117,-1065,2182,-26
,1352,2023-10-20 13:07:14.94,70,-477,-1967,-22,20,46,1008,-996,2004,-6
,1353,2023-10-20 13:07:14.95,91,-484,-1926,-7,61,50,1076,-1046,2122,-15
,1354,2023-10-20 13:07:14.96,29,-470,-1933,3,113,46,1013,-988,2001,-12
,1355,2023-10-20 13:07:14.97,47,-420,-2053,45,43,4,1100,-1051,2151,-24
,1356,2023-10-20 13:07:14.98,77,-342,-2051,85,-3,-10,1001,-990,1991,-5
,1357,2023-10-20 13:07:14.99,107,-371,-1968,71,20,-40,1054,-1032,2086,-11
,1358,2023-10-20 13:07:15.00,106,-453,-1926,24,69,-73,1024,-974,1998,-25
,1359,2023-10-20 13:07:15.01,117,-457,-1980,7,113,-95,1098,-1017,2115,-40
,1360,2023-10-20 13:07:15.02,113,-458,-2018,20,117,-94,1050,-983,2033,-33
,1361,2023-10-20 13:07:15.03,113,-474,-2000,19,104,-90,1092,-1041,2133,-25
,1362,2023-10-20 13:07:15.04,117,-481,-2006,9,74,-85,1032,-998,2030,-17
,1363,2023-10-20 13:07:15.05,104,-472,-2036,7,67,-71,1067,-1032,2099,-17
,1364,2023-10-20 13:07:15.06,128,-463,-2035,-5,61,-54,1044,-989,2033,-27
,1365,2023-10-20 13:07:15.07,102,-472,-2024,-40,68,-42,1080,-1023,2103,-28
,1366,2023-10-20 13:07:15.08,108,-457,-2051,-68,82,-32,1035,-986,2021,-24
,1367,2023-10-20 13:07:15.09,112,-465,-2029,-68,41,-20,1049,-1017,2066,-16
,1368,2023-10-20 13:07:15.10,120,-447,-2027,-62,24,-9,1047,-993,2040,-27
,1369,2023-10-20 13:07:15.11,130,-439,-2014,-54,-16,-4,1061,-1027,2088,-17
,1370,2023-10-20 13:07:15.12,125,-420,-2010,-61,12,-5,1041,-1006,2047,-17
,1371,2023-10-20 13:07:15.13,134,-414,-1998,-62,20,-11,1033,-1026,2059,-3
,1372,2023-10-20 13:07:15.14,130,-400,-2009,-69,49,-20,1081,-1028,2109,-26
,1373,2023-10-20 13:07:15.15,142,-404,-1999,-68,68,-28,1077,-1058,2135,-9
,1374,2023-10-20 13:07:15.16,140,-414,-2015,-54,69,-38,1060,-1026,2086,-17
,1375,2023-10-20 13:07:15.17,138,-404,-2021,-38,79,-41,1023,-1020,2043,-1
,1376,2023-10-20 13:07:15.18,150,-402,-2012,-33,73,-46,1042,-972,2014,-35
,1377,2023-10-20 13:07:15.19,137,-452,-1984,-17,70,-37,1036,-973,2009,-31
,1378,2023-10-20 13:07:15.20,113,-462,-1983,42,78,-53,1048,-973,2021,-37
,1379,2023-10-20 13:07:15.21,133,-375,-1996,111,67,-76,1016,-991,2007,-12
,1380,2023-10-20 13:07:15.22,118,-328,-2014,133,57,-102,1033,-975,2008,-29
,1381,2023-10-20 13:07:15.23,140,-359,-2030,116,23,-123,1008,-938,1946,-35
,1382,2023-10-20 13:07:15.24,130,-390,-2049,86,14,-132,1034,-900,1934,-67
,1383,2023-10-20 13:07:15.25,126,-401,-2049,32,36,-137,1016,-850,1866,-83
,1384,2023-10-20 13:07:15.26,164,-424,-2016,-19,40,-133,1053,-820,1873,-116
,1385,2023-10-20 13:07:15.27,150,-458,-2015,-47,53,-119,1016,-782,1798,-117
,1386,2023-10-20 13:07:15.28,158,-467,-2029,-48,52,-97,1092,-802,1894,-145
,1387,2023-10-20 13:07:15.29,104,-435,-2008,-44,68,-83,1040,-767,1807,-136
,1388,2023-10-20 13:07:15.30,141,-467,-2063,-36,70,-72,1143,-890,2033,-126
,1389,2023-10-20 13:07:15.31,143,-441,-2067,-2,19,-37,1046,-997,2043,-24
,1390,2023-10-20 13:07:15.32,140,-429,-2056,-3,5,-25,1140,-1078,2218,-31
,1391,2023-10-20 13:07:15.33,130,-416,-2054,1,-20,-11,1032,-1065,2097,16
,1392,2023-10-20 13:07:15.34,107,-404,-2032,1,-39,0,1098,-1053,2151,-22
,1393,2023-10-20 13:07:15.35,103,-401,-2002,-1,-61,3,990,-1008,1998,9
,1394,2023-10-20 13:07:15.36,112,-405,-1997,7,-102,5,1093,-1021,2114,-36
,1395,2023-10-20 13:07:15.37,121,-401,-2022,1,-137,10,1000,-997,1997,-1
,1396,2023-10-20 13:07:15.38,142,-432,-1993,7,-144,6,1120,-1010,2130,-55
,1397,2023-10-20 13:07:15.39,132,-449,-1945,22,-115,5,1003,-976,1979,-13
,1398,2023-10-20 13:07:15.40,117,-469,-1948,33,-63,7,1086,-1001,2087,-42
,1399,2023-10-20 13:07:15.41,111,-480,-2004,58,-23,17,972,-979,1951,3
,1400,2023-10-20 13:07:15.42,100,-488,-2032,82,-9,30,1107,-1029,2136,-39
,1401,2023-10-20 13:07:15.43,87,-485,-2043,97,-9,45,991,-1003,1994,6
,1402,2023-10-20 13:07:15.44,91,-456,-2045,104,-31,57,1158,-1065,2223,-46
,1403,2023-10-20 13:07:15.45,88,-443,-2037,98,-51,65,1008,-1027,2035,9
,1404,2023-10-20 13:07:15.46,87,-431,-2039,79,-62,63,1140,-1058,2198,-41
,1405,2023-10-20 13:07:15.47,82,-422,-2041,55,-60,56,978,-994,1972,8
,1406,2023-10-20 13:07:15.48,95,-406,-2013,39,-63,46,1148,-1048,2196,-50
,1407,2023-10-20 13:07:15.49,99,-422,-2002,31,-49,38,998,-1006,2004,4
,1408,2023-10-20 13:07:15.50,115,-478,-1974,13,-34,25,1132,-1049,2181,-41
,1409,2023-10-20 13:07:15.51,69,-446,-1990,11,11,22,972,-989,1961,8
,1410,2023-10-20 13:07:15.52,76,-418,-2050,13,2,-2,1102,-1031,2133,-35
,1411,2023-10-20 13:07:15.53,97,-394,-2022,31,-18,-12,956,-976,1932,10
,1412,2023-10-20 13:07:15.54,111,-414,-1953,20,-6,-21,1141,-1050,2191,-45
,1413,2023-10-20 13:07:15.55,99,-456,-1947,-8,49,-34,980,-999,1979,9
,1414,2023-10-20 13:07:15.56,94,-458,-2003,-18,70,-38,1142,-1050,2192,-46
,1415,2023-10-20 13:07:15.57,101,-447,-2017,-1,55,-27,963,-978,1941,7
,1416,2023-10-20 13:07:15.58,106,-453,-1998,11,37,-15,1121,-1045,2166,-38
,1417,2023-10-20 13:07:15.59,129,-428,-2003,5,31,-11,949,-983,1932,17
,1418,2023-10-20 13:07:15.60,132,-422,-2016,-7,36,-6,1128,-1046,2174,-41
,1419,2023-10-20 13:07:15.61,122,-424,-2014,-10,41,-2,956,-970,1926,7
,1420,2023-10-20 13:07:15.62,129,-426,-2018,-7,37,-2,1134,-1046,2180,-44
,1421,2023-10-20 13:07:15.63,139,-429,-2010,-8,36,0,948,-976,1924,14
,1422,2023-10-20 13:07:15.64,139,-424,-2015,-9,42,1,1128,-1047,2175,-40
,1423,2023-10-20 13:07:15.65,140,-431,-2024,-10,47,-1,946,-970,1916,12
,1424,2023-10-20 13:07:15.66,138,-430,-2026,-5,36,-4,1149,-1050,2199,-49
,1425,2023-10-20 13:07:15.67,135,-419,-2019,-1,23,-5,953,-974,1927,10
,1426,2023-10-20 13:07:15.68,138,-421,-2014,5,15,-16,1148,-1045,2193,-51
,1427,2023-10-20 13:07:15.69,148,-414,-2020,4,9,-23,952,-956,1908,2
,1428,2023-10-20 13:07:15.70,131,-422,-2023,6,7,-26,1170,-1037,2207,-66
,1429,2023-10-20 13:07:15.71,132,-420,-2042,5,2,-24,960,-953,1913,-3
,1430,2023-10-20 13:07:15.72,141,-416,-2049,-4,22,-19,1196,-1028,2224,-84
,1431,2023-10-20 13:07:15.73,125,-421,-2022,-28,42,-9,968,-944,1912,-12
,1432,2023-10-20 13:07:15.74,125,-461,-2012,-34,39,6,1160,-1042,2202,-59
,1433,2023-10-20 13:07:15.75,138,-465,-2005,-6,4,22,936,-962,1898,13
,1434,2023-10-20 13:07:15.76,123,-452,-1992,19,15,40,1147,-1046,2193,-50
,1435,2023-10-20 13:07:15.77,117,-459,-1980,40,22,43,934,-951,1885,8
,1436,2023-10-20 13:07:15.78,119,-409,-1985,69,32,27,1139,-1044,2183,-47
,1437,2023-10-20 13:07:15.79,122,-387,-2000,84,19,14,935,-955,1890,10
,1438,2023-10-20 13:07:15.80,125,-411,-1992,75,18,6,1191,-1050,2241,-70
,1439,2023-10-20 13:07:15.81,120,-441,-2009,46,20,-1,957,-957,1914,0
,1440,2023-10-20 13:07:15.82,111,-452,-2004,34,29,-2,1157,-1066,2223,-45
,1441,2023-10-20 13:07:15.83,113,-468,-2018,35,25,6,928,-969,1897,20
,1442,2023-10-20 13:07:15.84,118,-459,-2022,38,26,15,1164,-1067,2231,-48
,1443,2023-10-20 13:07:15.85,136,-457,-2018,39,24,24,930,-960,1890,15
,1444,2023-10-20 13:07:15.86,126,-423,-2007,38,59,22,1152,-1059,2211,-46
,1445,2023-10-20 13:07:15.87,147,-453,-2017,32,67,23,922,-954,1876,16
,1446,2023-10-20 13:07:15.88,144,-437,-2013,30,72,29,1152,-1051,2203,-50
,1447,2023-10-20 13:07:15.89,142,-453,-2037,34,71,30,924,-944,1868,10
,1448,2023-10-20 13:07:15.90,145,-439,-2024,39,53,30,1127,-1046,2173,-40
,1449,2023-10-20 13:07:15.91,162,-432,-2000,46,50,30,912,-943,1855,15
,1450,2023-10-20 13:07:15.92,160,-425,-2004,42,54,18,1172,-1052,2224,-60
,1451,2023-10-20 13:07:15.93,159,-424,-2019,36,61,7,942,-951,1893,4
,1452,2023-10-20 13:07:15.94,145,-428,-2028,35,49,1,1160,-1063,2223,-48
,1453,2023-10-20 13:07:15.95,150,-433,-2025,36,38,-3,935,-954,1889,9
,1454,2023-10-20 13:07:15.96,148,-450,-2022,33,32,-8,1205,-1058,2263,-73
,1455,2023-10-20 13:07:15.97,151,-444,-2015,34,26,-9,952,-948,1900,-2
,1456,2023-10-20 13:07:15.98,147,-444,-2007,39,23,-9,1149,-1055,2204,-47
,1457,2023-10-20 13:07:15.99,157,-435,-2010,34,30,-8,906,-944,1850,19
,1458,2023-10-20 13:07:16.00,155,-434,-2011,25,26,-7,1128,-1045,2173,-41
,1459,2023-10-20 13:07:16.01,167,-445,-2017,21,21,-5,911,-933,1844,11
,1460,2023-10-20 13:07:16.02,142,-454,-2012,33,-2,2,1144,-1037,2181,-53
,1461,2023-10-20 13:07:16.03,143,-464,-2015,52,-23,11,944,-929,1873,-7
,1462,2023-10-20 13:07:16.04,143,-464,-2005,66,-34,22,1217,-1051,2268,-83
,1463,2023-10-20 13:07:16.05,138,-468,-1983,71,-27,31,964,-948,1912,-8
,1464,2023-10-20 13:07:16.06,139,-461,-1989,76,-8,36,1162,-1072,2234,-45
,1465,2023-10-20 13:07:16.07,131,-466,-1983,82,12,44,934,-963,1897,14
,1466,2023-10-20 13:07:16.08,133,-468,-1992,79,38,50,1162,-1082,2244,-40
,1467,2023-10-20 13:07:16.09,128,-462,-2015,74,54,50,948,-965,1913,8
,1468,2023-10-20 13:07:16.10,133,-462,-2024,58,58,55,1166,-1082,2248,-42
,1469,2023-10-20 13:07:16.11,134,-462,-2024,38,64,59,949,-964,1913,7
,1470,2023-10-20 13:07:16.12,141,-462,-2023,12,62,63,1196,-1078,2274,-59
,1471,2023-10-20 13:07:16.13,140,-477,-2028,-18,53,67,971,-959,1930,-6
,1472,2023-10-20 13:07:16.14,163,-485,-2009,-16,48,67,1191,-1060,2251,-65
,1473,2023-10-20 13:07:16.15,162,-468,-2001,-8,42,58,948,-940,1888,-4
,1474,2023-10-20 13:07:16.16,172,-462,-2001,9,35,45,1142,-1047,2189,-47
,1475,2023-10-20 13:07:16.17,161,-461,-2023,18,20,31,949,-943,1892,-3
,1476,2023-10-20 13:07:16.18,154,-458,-2024,15,10,30,1192,-1070,2262,-61
,1477,2023-10-20 13:07:16.19,149,-468,-2043,15,-8,26,955,-961,1916,3
,1478,2023-10-20 13:07:16.20,155,-470,-2041,6,-33,35,1136,-1062,2198,-37
,1479,2023-10-20 13:07:16.21,145,-477,-2032,-6,-53,49,925,-945,1870,10
,1480,2023-10-20 13:07:16.22,142,-470,-2015,-17,-67,64,1132,-1043,2175,-44
,1481,2023-10-20 13:07:16.23,142,-476,-2014,-32,-71,83,938,-938,1876,0
,1482,2023-10-20 13:07:16.24,152,-503,-2000,-19,-72,99,1128,-1053,2181,-37
,1483,2023-10-20 13:07:16.25,154,-493,-1970,-9,-62,111,954,-952,1906,-1
,1484,2023-10-20 13:07:16.26,158,-507,-1933,-11,-23,118,1157,-1056,2213,-50
,1485,2023-10-20 13:07:16.27,112,-427,-2012,-26,29,111,983,-954,1937,-14
,1486,2023-10-20 13:07:16.28,120,-399,-2078,-37,11,99,1178,-1070,2248,-54
,1487,2023-10-20 13:07:16.29,128,-404,-1998,-14,-17,89,974,-966,1940,-4
,1488,2023-10-20 13:07:16.30,148,-448,-1953,-20,-7,74,1142,-1063,2205,-39
,1489,2023-10-20 13:07:16.31,137,-446,-1982,-30,26,58,961,-959,1920,-1
,1490,2023-10-20 13:07:16.32,132,-448,-2005,-29,37,55,1133,-1057,2190,-38
,1491,2023-10-20 13:07:16.33,135,-464,-1995,-9,29,60,954,-956,1910,1
,1492,2023-10-20 13:07:16.34,145,-462,-1985,-2,34,64,1126,-1046,2172,-40
,1493,2023-10-20 13:07:16.35,151,-459,-1996,1,52,64,975,-960,1935,-7
,1494,2023-10-20 13:07:16.36,160,-467,-1999,4,64,67,1142,-1068,2210,-37
,1495,2023-10-20 13:07:16.37,151,-473,-2011,19,60,72,979,-981,1960,1
,1496,2023-10-20 13:07:16.38,149,-478,-2019,31,54,75,1126,-1067,2193,-29
,1497,2023-10-20 13:07:16.39,160,-452,-2024,36,45,80,963,-968,1931,2
,1498,2023-10-20 13:07:16.40,150,-459,-2026,39,15,80,1103,-1047,2150,-28
,1499,2023-10-20 13:07:16.41,168,-450,-2037,37,5,82,952,-955,1907,1
,1500,2023-10-20 13:07:16.42,169,-438,-2026,26,2,83,1094,-1036,2130,-29
,1501,2023-10-20 13:07:16.43,153,-448,-2011,14,-1,80,971,-958,1929,-6
,1502,2023-10-20 13:07:16.44,153,-449,-2014,5,4,74,1112,-1046,2158,-33
,1503,2023-10-20 13:07:16.45,161,-449,-2017,7,-11,77,976,-964,1940,-6
,1504,2023-10-20 13:07:16.46,147,-448,-2022,-4,-7,80,1101,-1034,2135,-33
,1505,2023-10-20 13:07:16.47,165,-459,-2005,-5,-13,86,965,-950,1915,-7
,1506,2023-10-20 13:07:16.48,155,-464,-2029,-5,-14,97,1085,-1022,2107,-31
,1507,2023-10-20 13:07:16.49,163,-460,-2026,2,-26,107,992,-959,1951,-16
,1508,2023-10-20 13:07:16.50,143,-449,-2022,6,-39,118,1117,-1041,2158,-38
,1509,2023-10-20 13:07:16.51,149,-449,-2002,5,-42,127,995,-968,1963,-13
,1510,2023-10-20 13:07:16.52,162,-476,-1978,5,-27,137,1077,-1031,2108,-23
,1511,2023-10-20 13:07:16.53,110,-490,-1994,20,12,159,984,-960,1944,-12
,1512,2023-10-20 13:07:16.54,108,-459,-2032,43,1,151,1079,-1029,2108,-25
,1513,2023-10-20 13:07:16.55,106,-401,-2052,64,-21,144,995,-965,1960,-15
,1514,2023-10-20 13:07:16.56,110,-400,-2018,56,-35,130,1075,-1022,2097,-26
,1515,2023-10-20 13:07:16.57,109,-433,-1982,47,-39,116,1032,-968,2000,-32
,1516,2023-10-20 13:07:16.58,110,-444,-1980,39,-16,104,1113,-1035,2148,-39
,1517,2023-10-20 13:07:16.59,125,-454,-1973,33,2,100,1040,-988,2028,-26
,1518,2023-10-20 13:07:16.60,113,-487,-1974,33,28,108,1099,-1052,2151,-23
,1519,2023-10-20 13:07:16.61,95,-508,-1982,44,34,115,1018,-992,2010,-13
,1520,2023-10-20 13:07:16.62,112,-492,-1995,56,36,125,1065,-1032,2097,-16
,1521,2023-10-20 13:07:16.63,145,-474,-1989,64,30,139,996,-977,1973,-9
,1522,2023-10-20 13:07:16.64,131,-451,-1960,65,33,135,1047,-1026,2073,-10
,1523,2023-10-20 13:07:16.65,130,-484,-2008,68,48,131,1049,-993,2042,-28
,1524,2023-10-20 13:07:16.66,170,-472,-1986,77,27,135,1104,-1041,2145,-31
,1525,2023-10-20 13:07:16.67,146,-443,-2010,90,30,136,1035,-995,2030,-20
,1526,2023-10-20 13:07:16.68,165,-436,-2029,72,14,124,1044,-1028,2072,-8
,1527,2023-10-20 13:07:16.69,160,-422,-2024,52,-6,121,1021,-992,2013,-14
,1528,2023-10-20 13:07:16.70,168,-424,-2031,34,12,110,1054,-1036,2090,-9
,1529,2023-10-20 13:07:16.71,164,-462,-2013,18,9,104,1053,-1013,2066,-20
,1530,2023-10-20 13:07:16.72,163,-482,-2023,24,20,101,1059,-1044,2103,-7
,1531,2023-10-20 13:07:16.73,186,-482,-2007,46,-9,104,1058,-1019,2077,-19
,1532,2023-10-20 13:07:16.74,190,-485,-2000,82,-34,106,1055,-1039,2094,-8
,1533,2023-10-20 13:07:16.75,187,-470,-2013,99,-37,108,1054,-1004,2058,-25
,1534,2023-10-20 13:07:16.76,168,-475,-2028,87,-1,105,1042,-1019,2061,-11
,1535,2023-10-20 13:07:16.77,147,-490,-2042,88,-22,102,1074,-1000,2074,-37
,1536,2023-10-20 13:07:16.78,147,-463,-2066,97,-37,107,1057,-1014,2071,-21
,1537,2023-10-20 13:07:16.79,124,-461,-2057,87,-71,110,1071,-999,2070,-36
,1538,2023-10-20 13:07:16.80,94,-489,-2040,68,-90,109,1031,-1009,2040,-11
,1539,2023-10-20 13:07:16.81,81,-481,-2065,60,-107,112,1044,-1002,2046,-21
,1540,2023-10-20 13:07:16.82,75,-483,-2071,33,-137,121,1015,-1009,2024,-3
,1541,2023-10-20 13:07:16.83,69,-512,-2054,-10,-148,130,1043,-1001,2044,-21
,1542,2023-10-20 13:07:16.84,61,-521,-2010,-48,-137,139,1011,-998,2009,-6
,1543,2023-10-20 13:07:16.85,65,-526,-1977,-53,-127,141,1053,-992,2045,-30
,1544,2023-10-20 13:07:16.86,51,-518,-1944,-32,-123,139,1005,-987,1992,-9
,1545,2023-10-20 13:07:16.87,49,-513,-1956,-11,-110,136,1090,-988,2078,-51
,1546,2023-10-20 13:07:16.88,24,-489,-1947,6,-94,127,1035,-975,2010,-30
,1547,2023-10-20 13:07:16.89,22,-469,-1962,12,-84,115,1073,-992,2065,-40
,1548,2023-10-20 13:07:16.90,10,-453,-1981,13,-76,104,1001,-1002,2003,0
,1549,2023-10-20 13:07:16.91,37,-447,-1991,8,-91,99,1051,-1010,2061,-20
,1550,2023-10-20 13:07:16.92,9,-451,-1996,-12,-91,96,987,-986,1973,0
,1551,2023-10-20 13:07:16.93,32,-429,-2003,-24,-93,85,1056,-1002,2058,-27
,1552,2023-10-20 13:07:16.94,42,-431,-2003,-48,-79,85,989,-984,1973,-2
,1553,2023-10-20 13:07:16.95,56,-466,-1982,-33,-80,75,1090,-1006,2096,-42
,1554,2023-10-20 13:07:16.96,87,-464,-1948,-9,-79,67,1008,-985,1993,-11
,1555,2023-10-20 13:07:16.97,101,-474,-1912,5,-54,50,1078,-1008,2086,-35
,1556,2023-10-20 13:07:16.98,59,-442,-2005,8,-3,33,976,-976,1952,0
,1557,2023-10-20 13:07:16.99,89,-398,-2059,22,-17,12,1093,-1006,2099,-43
,1558,2023-10-20 13:07:17.00,101,-386,-2018,43,-37,-3,995,-980,1975,-7
,1559,2023-10-20 13:07:17.01,94,-448,-1963,28,-27,-23,1096,-1001,2097,-47
,1560,2023-10-20 13:07:17.02,82,-477,-1987,16,0,-45,980,-966,1946,-7
,1561,2023-10-20 13:07:17.03,89,-483,-2021,42,-30,-54,1109,-999,2108,-55
,1562,2023-10-20 13:07:17.04,95,-499,-2027,77,-66,-48,988,-969,1957,-9
,1563,2023-10-20 13:07:17.05,80,-503,-2012,89,-93,-44,1100,-1007,2107,-46
,1564,2023-10-20 13:07:17.06,87,-520,-2016,88,-103,-38,965,-967,1932,1
,1565,2023-10-20 13:07:17.07,59,-531,-2023,93,-113,-26,1112,-1016,2128,-48
,1566,2023-10-20 13:07:17.08,57,-534,-2009,96,-120,-10,986,-982,1968,-2
,1567,2023-10-20 13:07:17.09,50,-543,-2003,88,-120,6,1153,-1039,2192,-57
,1568,2023-10-20 13:07:17.10,37,-538,-2008,71,-109,21,1002,-994,1996,-4
,1569,2023-10-20 13:07:17.11,28,-547,-2011,61,-103,37,1176,-1045,2221,-65
,1570,2023-10-20 13:07:17.12,23,-527,-1995,42,-83,50,1001,-990,1991,-5
,1571,2023-10-20 13:07:17.13,19,-519,-1995,20,-66,52,1109,-1029,2138,-40
,1572,2023-10-20 13:07:17.14,16,-520,-1978,1,-51,52,944,-967,1911,11
,1573,2023-10-20 13:07:17.15,0,-510,-1967,-2,-53,48,1116,-1023,2139,-46
,1574,2023-10-20 13:07:17.16,-2,-501,-1978,5,-53,43,964,-968,1932,2
,1575,2023-10-20 13:07:17.17,8,-500,-1974,-2,-27,40,1133,-1027,2160,-53
,1576,2023-10-20 13:07:17.18,16,-500,-1981,-9,-5,32,968,-967,1935,0
,1577,2023-10-20 13:07:17.19,14,-486,-1976,-10,8,24,1133,-1034,2167,-49
,1578,2023-10-20 13:07:17.20,14,-483,-1985,-9,21,27,957,-973,1930,8
,1579,2023-10-20 13:07:17.21,17,-492,-1990,-14,27,22,1155,-1046,2201,-54
,1580,2023-10-20 13:07:17.22,23,-481,-2008,-10,32,25,971,-981,1952,5
,1581,2023-10-20 13:07:17.23,14,-484,-2018,0,34,24,1135,-1039,2174,-48
,1582,2023-10-20 13:07:17.24,33,-428,-2006,34,28,-4,948,-955,1903,3
,1583,2023-10-20 13:07:17.25,40,-399,-1996,31,14,-23,1144,-1009,2153,-67
,1584,2023-10-20 13:07:17.26,41,-441,-1993,13,22,-40,953,-934,1887,-9
,1585,2023-10-20 13:07:17.27,38,-479,-1977,-17,45,-46,1135,-1014,2149,-60
,1586,2023-10-20 13:07:17.28,55,-499,-1992,-39,75,-40,940,-949,1889,4
,1587,2023-10-20 13:07:17.29,32,-510,-1993,-51,101,-32,1141,-1025,2166,-58
,1588,2023-10-20 13:07:17.30,47,-534,-1990,-31,74,-13,950,-945,1895,-2
,1589,2023-10-20 13:07:17.31,47,-472,-1982,-7,66,-3,1137,-1030,2167,-53
,1590,2023-10-20 13:07:17.32,83,-502,-2011,-15,98,-2,936,-953,1889,8
,1591,2023-10-20 13:07:17.33,85,-504,-1973,-35,128,7,1148,-1055,2203,-46
,1592,2023-10-20 13:07:17.34,77,-498,-2020,-26,139,5,939,-974,1913,17
,1593,2023-10-20 13:07:17.35,92,-485,-2035,-23,125,8,1125,-1043,2168,-41
,1594,2023-10-20 13:07:17.36,79,-481,-2024,-8,92,4,916,-941,1857,12
,1595,2023-10-20 13:07:17.37,91,-485,-2017,2,62,-4,1124,-1025,2149,-49
,1596,2023-10-20 13:07:17.38,81,-485,-1997,0,28,-30,917,-934,1851,8
,1597,2023-10-20 13:07:17.39,87,-489,-1989,-1,17,-34,1131,-1034,2165,-48
,1598,2023-10-20 13:07:17.40,79,-497,-1992,-11,13,-42,929,-951,1880,11
,1599,2023-10-20 13:07:17.41,71,-496,-1996,-28,9,-48,1147,-1053,2200,-47
,1600,2023-10-20 13:07:17.42,71,-483,-1988,-47,11,-52,933,-951,1884,9
,1601,2023-10-20 13:07:17.43,69,-487,-1997,-76,7,-52,1157,-1048,2205,-54
,1602,2023-10-20 13:07:17.44,68,-472,-2024,-102,6,-55,940,-945,1885,2
,1603,2023-10-20 13:07:17.45,56,-451,-2033,-140,-6,-54,1162,-1059,2221,-51
,1604,2023-10-20 13:07:17.46,52,-460,-2044,-182,-19,-47,933,-958,1891,12
,1605,2023-10-20 13:07:17.47,46,-460,-2038,-216,-29,-44,1147,-1062,2209,-42
,1606,2023-10-20 13:07:17.48,67,-445,-2047,-255,-48,-35,936,-964,1900,14
,1607,2023-10-20 13:07:17.49,63,-455,-2051,-280,-67,-33,1152,-1074,2226,-39
,1608,2023-10-20 13:07:17.50,54,-463,-2039,-278,-72,-32,928,-969,1897,20
,1609,2023-10-20 13:07:17.51,54,-432,-2021,-269,-78,-35,1141,-1068,2209,-36
,1610,2023-10-20 13:07:17.52,49,-410,-2027,-267,-86,-35,937,-960,1897,11
,1611,2023-10-20 13:07:17.53,31,-410,-2046,-265,-89,-32,1167,-1058,2225,-54
,1612,2023-10-20 13:07:17.54,33,-384,-2065,-275,-105,-24,940,-949,1889,4
,1613,2023-10-20 13:07:17.55,39,-374,-2038,-285,-132,-16,1144,-1065,2209,-39
,1614,2023-10-20 13:07:17.56,30,-399,-2026,-280,-136,4,933,-963,1896,15
,1615,2023-10-20 13:07:17.57,54,-424,-1945,-229,-116,-2,1185,-1079,2264,-53
,1616,2023-10-20 13:07:17.58,34,-375,-1883,-182,-53,-6,951,-965,1916,7
,1617,2023-10-20 13:07:17.59,0,-280,-1989,-171,3,-11,1140,-1070,2210,-35
,1618,2023-10-20 13:07:17.60,-3,-300,-2115,-152,-22,-19,914,-950,1864,18
,1619,2023-10-20 13:07:17.61,12,-308,-2050,-98,-66,-16,1162,-1068,2230,-47
,1620,2023-10-20 13:07:17.62,21,-348,-1986,-68,-77,-21,938,-961,1899,11
,1621,2023-10-20 13:07:17.63,32,-357,-2009,-50,-40,-28,1166,-1081,2247,-42
,1622,2023-10-20 13:07:17.64,33,-363,-2040,-17,-18,-28,934,-968,1902,17
,1623,2023-10-20 13:07:17.65,48,-379,-2032,26,-3,-19,1157,-1074,2231,-41
,1624,2023-10-20 13:07:17.66,61,-382,-2017,55,26,-15,928,-957,1885,14
,1625,2023-10-20 13:07:17.67,64,-383,-2009,68,65,-16,1151,-1069,2220,-41
,1626,2023-10-20 13:07:17.68,56,-395,-1996,82,115,-16,937,-958,1895,10
,1627,2023-10-20 13:07:17.69,72,-431,-1987,104,133,-13,1166,-1075,2241,-45
,1628,2023-10-20 13:07:17.70,79,-436,-1992,134,123,-8,954,-968,1922,7
,1629,2023-10-20 13:07:17.71,81,-440,-1991,169,112,-2,1203,-1097,2300,-53
,1630,2023-10-20 13:07:17.72,96,-443,-1971,199,102,2,940,-959,1899,9
,1631,2023-10-20 13:07:17.73,85,-427,-1995,204,110,-3,1124,-1018,2142,-53
,1632,2023-10-20 13:07:17.74,90,-433,-2001,185,139,-7,910,-901,1811,-4
,1633,2023-10-20 13:07:17.75,81,-454,-1984,174,136,-13,1134,-1031,2165,-51
,1634,2023-10-20 13:07:17.76,115,-460,-1985,177,114,-14,916,-935,1851,9
,1635,2023-10-20 13:07:17.77,125,-460,-1973,171,119,-17,1116,-1052,2168,-32
,1636,2023-10-20 13:07:17.78,108,-471,-1982,160,120,-20,914,-938,1852,12
,1637,2023-10-20 13:07:17.79,106,-473,-2010,145,119,-22,1132,-1043,2175,-44
,1638,2023-10-20 13:07:17.80,121,-468,-2024,133,100,-22,938,-931,1869,-3
,1639,2023-10-20 13:07:17.81,117,-478,-2035,123,87,-16,1148,-1024,2172,-62
,1640,2023-10-20 13:07:17.82,148,-499,-2004,107,75,-16,936,-909,1845,-13
,1641,2023-10-20 13:07:17.83,119,-489,-2024,115,90,-2,1130,-966,2096,-82
,1642,2023-10-20 13:07:17.84,125,-465,-2057,102,77,-11,929,-862,1791,-33
,1643,2023-10-20 13:07:17.85,110,-444,-2054,100,67,-23,1133,-972,2105,-80
,1644,2023-10-20 13:07:17.86,116,-436,-2034,81,42,-35,956,-892,1848,-32
,1645,2023-10-20 13:07:17.87,122,-451,-2026,65,40,-56,1160,-984,2144,-88
,1646,2023-10-20 13:07:17.88,118,-453,-1997,56,40,-67,957,-892,1849,-32
,1647,2023-10-20 13:07:17.89,114,-438,-1992,49,39,-76,1132,-986,2118,-73
,1648,2023-10-20 13:07:17.90,101,-465,-2015,31,22,-76,947,-898,1845,-24
,1649,2023-10-20 13:07:17.91,98,-478,-2035,19,-1,-69,1128,-991,2119,-68
,1650,2023-10-20 13:07:17.92,99,-488,-2032,14,-24,-62,954,-903,1857,-25
,1651,2023-10-20 13:07:17.93,108,-488,-2003,13,-27,-49,1136,-1002,2138,-67
,1652,2023-10-20 13:07:17.94,107,-485,-1991,14,-20,-41,960,-916,1876,-22
,1653,2023-10-20 13:07:17.95,98,-476,-1999,18,-9,-34,1139,-1018,2157,-60
,1654,2023-10-20 13:07:17.96,90,-468,-1999,18,-2,-24,956,-913,1869,-21
,1655,2023-10-20 13:07:17.97,84,-463,-2004,13,-2,-17,1106,-989,2095,-58
,1656,2023-10-20 13:07:17.98,88,-465,-2004,3,-6,-7,962,-915,1877,-23
,1657,2023-10-20 13:07:17.99,78,-468,-2011,-7,-7,1,1132,-1040,2172,-46
,1658,2023-10-20 13:07:18.00,79,-450,-2028,-11,-11,4,979,-971,1950,-4
,1659,2023-10-20 13:07:18.01,79,-452,-2033,-16,-20,4,1125,-1070,2195,-27
,1660,2023-10-20 13:07:18.02,74,-444,-2019,-18,-34,4,976,-968,1944,-4
,1661,2023-10-20 13:07:18.03,70,-448,-2009,-12,-46,3,1116,-1031,2147,-42
,1662,2023-10-20 13:07:18.04,65,-426,-2002,-7,-49,-2,980,-944,1924,-18
,1663,2023-10-20 13:07:18.05,54,-429,-2004,-4,-49,-5,1122,-1041,2163,-40
,1664,2023-10-20 13:07:18.06,65,-455,-2003,-2,-44,-4,978,-960,1938,-9
,1665,2023-10-20 13:07:18.07,70,-442,-1984,-3,-25,2,1104,-1037,2141,-33
,1666,2023-10-20 13:07:18.08,59,-442,-1992,-10,4,1,1008,-967,1975,-20
,1667,2023-10-20 13:07:18.09,63,-430,-2014,-21,26,4,1148,-1062,2210,-43
,1668,2023-10-20 13:07:18.10,68,-414,-2013,-27,38,4,1034,-1001,2035,-16
,1669,2023-10-20 13:07:18.11,77,-420,-2008,-34,48,5,1146,-1083,2229,-31
,1670,2023-10-20 13:07:18.12,82,-435,-2011,-34,58,4,1010,-1005,2015,-2
,1671,2023-10-20 13:07:18.13,82,-437,-2019,-35,66,2,1109,-1063,2172,-23
,1672,2023-10-20 13:07:18.14,95,-435,-2020,-36,71,7,1030,-1007,2037,-11
,1673,2023-10-20 13:07:18.15,87,-429,-2041,-41,68,11,1142,-1085,2227,-28
,1674,2023-10-20 13:07:18.16,105,-417,-2039,-50,51,18,1036,-1018,2054,-9
,1675,2023-10-20 13:07:18.17,113,-426,-2023,-54,42,18,1110,-1067,2177,-21
,1676,2023-10-20 13:07:18.18,128,-428,-2000,-50,46,22,1020,-1006,2026,-7
,1677,2023-10-20 13:07:18.19,133,-432,-2006,-45,54,21,1103,-1059,2162,-22
,1678,2023-10-20 13:07:18.20,133,-437,-2009,-35,62,23,1042,-1012,2054,-15
,1679,2023-10-20 13:07:18.21,122,-419,-2029,-21,62,27,1098,-1073,2171,-12
,1680,2023-10-20 13:07:18.22,127,-412,-2043,-10,40,24,1040,-1018,2058,-11
,1681,2023-10-20 13:07:18.23,117,-409,-2037,4,23,19,1089,-1062,2151,-13
,1682,2023-10-20 13:07:18.24,126,-394,-2018,12,8,10,1048,-1009,2057,-19
,1683,2023-10-20 13:07:18.25,116,-401,-2028,15,-7,5,1096,-1047,2143,-24
,1684,2023-10-20 13:07:18.26,124,-419,-2035,20,-25,4,1062,-1008,2070,-27
,1685,2023-10-20 13:07:18.27,126,-431,-2018,27,-39,-5,1084,-1050,2134,-17
