// Data mode  : Full
// Data quality  : High
// Acceleration sensor's range  : 16g
// Gyroscope sensor's range  : 2000dps
//
//ARTIFACT,NUM,DATE,ACC_X,ACC_Y,ACC_Z,GYRO_X,GYRO_Y,GYRO_Z,EOG_L,EOG_R,EOG_H,EOG_V
,1,2023-10-27 11:51:12.51,90,-233,-2059,32,33,5,-514,-705,191,609
,2,2023-10-27 11:51:12.52,93,-238,-2050,22,32,21,-599,-811,212,705
,3,2023-10-27 11:51:12.53,104,-237,-2042,9,34,21,-529,-715,186,622
,4,2023-10-27 11:51:12.54,87,-231,-2029,-1,21,19,-599,-791,192,695
,5,2023-10-27 11:51:12.55,101,-236,-2021,-12,11,6,-523,-695,172,609
,6,2023-10-27 11:51:12.56,97,-229,-2016,-14,8,11,-592,-788,196,690
,7,2023-10-27 11:51:12.57,97,-215,-2021,-16,32,18,-518,-714,196,616
,8,2023-10-27 11:51:12.58,105,-221,-2026,-20,19,2,-587,-804,217,695
,9,2023-10-27 11:51:12.59,101,-228,-2049,-25,21,-2,-534,-719,185,626
,10,2023-10-27 11:51:12.60,96,-237,-2058,-22,27,0,-598,-786,188,692
,11,2023-10-27 11:51:12.61,93,-227,-2058,-11,20,7,-539,-712,173,625
,12,2023-10-27 11:51:12.62,89,-204,-2068,-12,-6,-1,-592,-785,193,688
,13,2023-10-27 11:51:12.63,103,-182,-2061,-18,-5,-1,-539,-717,178,628
,14,2023-10-27 11:51:12.64,90,-177,-2053,-31,10,-2,-589,-776,187,682
,15,2023-10-27 11:51:12.65,105,-163,-2040,-45,-3,-33,-537,-716,179,626
,16,2023-10-27 11:51:12.66,105,-160,-2040,-52,25,-32,-572,-781,209,676
,17,2023-10-27 11:51:12.67,117,-172,-2043,-60,46,-42,-531,-737,206,634
,18,2023-10-27 11:51:12.68,119,-200,-2053,-61,27,-56,-575,-794,219,684
,19,2023-10-27 11:51:12.69,123,-199,-2052,-50,37,-57,-545,-726,181,635
,20,2023-10-27 11:51:12.70,105,-205,-2045,-34,25,-48,-577,-763,186,670
,21,2023-10-27 11:51:12.71,122,-206,-2050,-25,48,-38,-549,-728,179,638
,22,2023-10-27 11:51:12.72,132,-207,-2035,-15,12,-35,-581,-779,198,680
,23,2023-10-27 11:51:12.73,135,-216,-2021,3,14,-33,-564,-741,177,652
,24,2023-10-27 11:51:12.74,130,-223,-2035,27,23,-18,-586,-778,192,682
,25,2023-10-27 11:51:12.75,128,-241,-2051,45,6,-20,-569,-725,156,647
,26,2023-10-27 11:51:12.76,126,-249,-2070,61,-4,4,-579,-753,174,666
,27,2023-10-27 11:51:12.77,104,-260,-2072,72,-20,21,-565,-729,164,647
,28,2023-10-27 11:51:12.78,102,-260,-2076,72,-47,37,-576,-763,187,669
,29,2023-10-27 11:51:12.79,88,-266,-2076,79,-40,69,-578,-754,176,666
,30,2023-10-27 11:51:12.80,89,-259,-2059,70,-41,94,-585,-780,195,682
,31,2023-10-27 11:51:12.81,85,-255,-2038,56,-35,106,-590,-757,167,673
,32,2023-10-27 11:51:12.82,86,-244,-2027,39,-42,108,-588,-764,176,676
,33,2023-10-27 11:51:12.83,82,-221,-2024,18,-16,110,-595,-745,150,670
,34,2023-10-27 11:51:12.84,86,-221,-2033,2,2,109,-582,-752,170,667
,35,2023-10-27 11:51:12.85,80,-204,-2038,-18,22,98,-605,-755,150,680
,36,2023-10-27 11:51:12.86,84,-192,-2037,-30,19,92,-583,-760,177,671
,37,2023-10-27 11:51:12.87,106,-181,-2016,-45,29,81,-599,-756,157,677
,38,2023-10-27 11:51:12.88,113,-174,-2009,-56,60,66,-565,-748,183,656
,39,2023-10-27 11:51:12.89,114,-178,-2010,-60,87,41,-598,-761,163,679
,40,2023-10-27 11:51:12.90,126,-178,-2012,-53,92,25,-571,-757,186,664
,41,2023-10-27 11:51:12.91,130,-194,-2033,-33,82,7,-604,-768,164,686
,42,2023-10-27 11:51:12.92,126,-188,-2062,-6,56,5,-570,-748,178,659
,43,2023-10-27 11:51:12.93,125,-185,-2077,4,61,-4,-614,-766,152,690
,44,2023-10-27 11:51:12.94,125,-184,-2084,-5,67,-8,-577,-753,176,665
,45,2023-10-27 11:51:12.95,128,-205,-2084,-15,48,-15,-614,-766,152,690
,46,2023-10-27 11:51:12.96,120,-220,-2085,-7,24,0,-567,-736,169,651
,47,2023-10-27 11:51:12.97,127,-218,-2065,6,-11,-5,-610,-746,136,678
,48,2023-10-27 11:51:12.98,119,-220,-2053,16,-25,4,-552,-714,162,633
,49,2023-10-27 11:51:12.99,118,-224,-2038,23,-38,7,-603,-736,133,669
,50,2023-10-27 11:51:13.00,116,-226,-2039,29,-56,17,-540,-706,166,623
,51,2023-10-27 11:51:13.01,110,-225,-2049,35,-52,17,-599,-752,153,675
,52,2023-10-27 11:51:13.02,105,-233,-2046,37,-57,31,-534,-718,184,626
,53,2023-10-27 11:51:13.03,102,-230,-2035,38,-43,40,-599,-762,163,680
,54,2023-10-27 11:51:13.04,104,-226,-2044,38,-34,64,-524,-715,191,619
,55,2023-10-27 11:51:13.05,107,-220,-2038,33,-34,62,-590,-752,162,671
,56,2023-10-27 11:51:13.06,96,-225,-2036,33,4,72,-511,-698,187,604
,57,2023-10-27 11:51:13.07,95,-211,-2039,34,6,79,-593,-753,160,673
,58,2023-10-27 11:51:13.08,97,-212,-2032,35,23,75,-515,-704,189,609
,59,2023-10-27 11:51:13.09,107,-212,-2037,34,19,72,-596,-757,161,676
,60,2023-10-27 11:51:13.10,95,-216,-2042,37,37,79,-510,-701,191,605
,61,2023-10-27 11:51:13.11,91,-216,-2029,33,34,72,-594,-765,171,679
,62,2023-10-27 11:51:13.12,108,-220,-2038,28,47,69,-496,-703,207,599
,63,2023-10-27 11:51:13.13,100,-209,-2038,24,44,60,-585,-766,181,675
,64,2023-10-27 11:51:13.14,120,-204,-2034,19,72,66,-498,-697,199,597
,65,2023-10-27 11:51:13.15,120,-202,-2032,11,60,51,-599,-770,171,684
,66,2023-10-27 11:51:13.16,128,-208,-2033,5,73,45,-503,-697,194,600
,67,2023-10-27 11:51:13.17,136,-201,-2039,0,92,40,-590,-764,174,677
,68,2023-10-27 11:51:13.18,123,-198,-2047,-5,72,34,-478,-684,206,581
,69,2023-10-27 11:51:13.19,115,-209,-2066,-10,50,24,-577,-764,187,670
,70,2023-10-27 11:51:13.20,125,-212,-2076,-12,23,34,-470,-680,210,575
,71,2023-10-27 11:51:13.21,127,-215,-2070,-9,17,39,-582,-767,185,674
,72,2023-10-27 11:51:13.22,109,-223,-2063,-6,11,58,-472,-683,211,577
,73,2023-10-27 11:51:13.23,115,-226,-2048,-1,-6,61,-578,-771,193,674
,74,2023-10-27 11:51:13.24,115,-228,-2043,3,-10,69,-462,-686,224,574
,75,2023-10-27 11:51:13.25,106,-229,-2048,13,26,82,-589,-790,201,689
,76,2023-10-27 11:51:13.26,118,-216,-2044,19,26,92,-496,-698,202,597
,77,2023-10-27 11:51:13.27,105,-240,-2050,33,24,94,-619,-782,163,700
,78,2023-10-27 11:51:13.28,105,-239,-2056,43,2,89,-501,-682,181,591
,79,2023-10-27 11:51:13.29,117,-235,-2036,49,26,101,-615,-796,181,705
,80,2023-10-27 11:51:13.30,119,-226,-2029,45,29,102,-485,-699,214,592
,81,2023-10-27 11:51:13.31,113,-230,-2018,44,53,106,-608,-789,181,698
,82,2023-10-27 11:51:13.32,120,-228,-2002,41,40,98,-482,-682,200,582
,83,2023-10-27 11:51:13.33,127,-214,-2013,42,47,102,-615,-791,176,703
,84,2023-10-27 11:51:13.34,118,-215,-2025,31,43,99,-487,-678,191,582
,85,2023-10-27 11:51:13.35,120,-223,-2044,24,55,116,-614,-789,175,701
,86,2023-10-27 11:51:13.36,125,-240,-2055,21,45,123,-471,-675,204,573
,87,2023-10-27 11:51:13.37,114,-233,-2058,24,42,134,-606,-789,183,697
,88,2023-10-27 11:51:13.38,128,-228,-2053,20,22,132,-478,-678,200,578
,89,2023-10-27 11:51:13.39,124,-212,-2058,19,29,146,-608,-788,180,698
,90,2023-10-27 11:51:13.40,115,-215,-2070,13,25,150,-468,-670,202,569
,91,2023-10-27 11:51:13.41,120,-224,-2057,15,9,158,-613,-791,178,702
,92,2023-10-27 11:51:13.42,131,-209,-2040,9,7,141,-480,-671,191,575
,93,2023-10-27 11:51:13.43,140,-184,-2005,6,26,131,-616,-796,180,706
,94,2023-10-27 11:51:13.44,157,-187,-1998,0,25,109,-468,-674,206,571
,95,2023-10-27 11:51:13.45,166,-184,-2028,5,44,103,-616,-802,186,709
,96,2023-10-27 11:51:13.46,159,-186,-2041,6,37,86,-477,-669,192,573
,97,2023-10-27 11:51:13.47,166,-197,-2061,6,44,78,-611,-796,185,703
,98,2023-10-27 11:51:13.48,162,-210,-2061,8,42,75,-458,-663,205,560
,99,2023-10-27 11:51:13.49,155,-207,-2063,18,19,78,-605,-792,187,698
,100,2023-10-27 11:51:13.50,165,-219,-2060,23,7,78,-463,-662,199,562
,101,2023-10-27 11:51:13.51,164,-211,-2056,34,21,103,-619,-800,181,709
,102,2023-10-27 11:51:13.52,163,-217,-2060,34,5,102,-471,-669,198,570
,103,2023-10-27 11:51:13.53,149,-234,-2040,40,18,116,-606,-803,197,704
,104,2023-10-27 11:51:13.54,172,-237,-2036,48,5,113,-446,-656,210,551
,105,2023-10-27 11:51:13.55,166,-251,-2033,57,26,127,-558,-777,219,667
,106,2023-10-27 11:51:13.56,161,-255,-2020,72,16,120,-388,-641,253,514
,107,2023-10-27 11:51:13.57,144,-268,-2044,71,-3,122,-530,-788,258,659
,108,2023-10-27 11:51:13.58,126,-278,-2057,79,-25,138,-390,-657,267,523
,109,2023-10-27 11:51:13.59,136,-272,-2058,77,-29,168,-540,-791,251,665
,110,2023-10-27 11:51:13.60,122,-281,-2060,78,-34,197,-401,-643,242,522
,111,2023-10-27 11:51:13.61,127,-281,-2054,67,-25,220,-547,-771,224,659
,112,2023-10-27 11:51:13.62,123,-278,-2041,65,-46,237,-403,-632,229,517
,113,2023-10-27 11:51:13.63,120,-250,-2043,62,-44,239,-553,-778,225,665
,114,2023-10-27 11:51:13.64,136,-252,-2029,63,-61,244,-413,-643,230,528
,115,2023-10-27 11:51:13.65,151,-206,-2030,56,-48,237,-554,-780,226,667
,116,2023-10-27 11:51:13.66,149,-216,-2026,46,-51,228,-406,-630,224,518
,117,2023-10-27 11:51:13.67,162,-197,-2039,34,-35,213,-540,-764,224,652
,118,2023-10-27 11:51:13.68,138,-196,-2043,25,4,206,-384,-632,248,508
,119,2023-10-27 11:51:13.69,141,-220,-2060,29,-11,181,-512,-784,272,648
,120,2023-10-27 11:51:13.70,129,-200,-2090,32,0,175,-368,-638,270,503
,121,2023-10-27 11:51:13.71,124,-222,-2088,27,-27,158,-512,-774,262,643
,122,2023-10-27 11:51:13.72,112,-214,-2086,32,-51,149,-380,-636,256,508
,123,2023-10-27 11:51:13.73,90,-195,-2109,21,-85,121,-516,-787,271,651
,124,2023-10-27 11:51:13.74,93,-213,-2086,8,-105,111,-374,-643,269,508
,125,2023-10-27 11:51:13.75,73,-241,-2069,8,-126,107,-509,-779,270,644
,126,2023-10-27 11:51:13.76,65,-260,-2038,28,-144,103,-303,-632,329,467
,127,2023-10-27 11:51:13.77,52,-264,-2030,65,-165,103,-411,-816,405,613
,128,2023-10-27 11:51:13.78,51,-267,-2019,93,-192,93,-305,-710,405,507
,129,2023-10-27 11:51:13.79,49,-284,-2021,106,-175,100,-493,-866,373,679
,130,2023-10-27 11:51:13.80,47,-287,-2000,104,-200,89,-381,-711,330,546
,131,2023-10-27 11:51:13.81,27,-291,-1996,101,-179,96,-541,-845,304,693
,132,2023-10-27 11:51:13.82,34,-291,-2006,89,-136,113,-410,-696,286,553
,133,2023-10-27 11:51:13.83,31,-285,-1993,71,-98,116,-561,-836,275,698
,134,2023-10-27 11:51:13.84,43,-282,-2003,49,-68,132,-427,-689,262,558
,135,2023-10-27 11:51:13.85,27,-287,-2027,25,-52,142,-579,-828,249,703
,136,2023-10-27 11:51:13.86,17,-310,-2036,18,-53,161,-447,-684,237,565
,137,2023-10-27 11:51:13.87,15,-321,-2064,14,-75,170,-594,-823,229,708
,138,2023-10-27 11:51:13.88,35,-320,-2049,12,-87,191,-459,-680,221,569
,139,2023-10-27 11:51:13.89,24,-313,-2057,8,-92,202,-600,-817,217,708
,140,2023-10-27 11:51:13.90,26,-301,-2054,7,-55,228,-459,-672,213,565
,141,2023-10-27 11:51:13.91,29,-285,-2055,3,-40,236,-601,-807,206,704
,142,2023-10-27 11:51:13.92,32,-275,-2050,2,-38,234,-466,-665,199,565
,143,2023-10-27 11:51:13.93,41,-264,-2040,-3,-55,218,-604,-801,197,702
,144,2023-10-27 11:51:13.94,52,-248,-2006,-1,-54,207,-476,-667,191,571
,145,2023-10-27 11:51:13.95,48,-208,-2005,-12,-35,190,-614,-805,191,709
,146,2023-10-27 11:51:13.96,38,-216,-1999,-17,5,163,-490,-671,181,580
,147,2023-10-27 11:51:13.97,44,-230,-2004,-14,11,142,-627,-804,177,715
,148,2023-10-27 11:51:13.98,49,-219,-2029,-1,13,120,-506,-677,171,591
,149,2023-10-27 11:51:13.99,44,-229,-2046,13,16,103,-644,-812,168,728
,150,2023-10-27 11:51:14.00,58,-221,-2001,17,4,71,-529,-693,164,611
,151,2023-10-27 11:51:14.01,59,-222,-2005,6,39,51,-661,-824,163,742
,152,2023-10-27 11:51:14.02,66,-237,-2034,1,49,22,-541,-697,156,619
,153,2023-10-27 11:51:14.03,60,-249,-2055,-5,50,5,-655,-813,158,734
,154,2023-10-27 11:51:14.04,66,-259,-2047,4,23,-16,-529,-684,155,606
,155,2023-10-27 11:51:14.05,78,-255,-2032,14,22,-29,-635,-799,164,717
,156,2023-10-27 11:51:14.06,82,-255,-2025,6,33,-35,-524,-684,160,604
,157,2023-10-27 11:51:14.07,79,-282,-2005,6,66,-35,-639,-800,161,719
,158,2023-10-27 11:51:14.08,84,-295,-2021,25,72,-32,-536,-687,151,611
,159,2023-10-27 11:51:14.09,72,-302,-2027,48,78,-29,-634,-793,159,713
,160,2023-10-27 11:51:14.10,66,-298,-2021,65,71,-19,-530,-684,154,607
,161,2023-10-27 11:51:14.11,64,-292,-2046,66,54,-21,-631,-787,156,709
,162,2023-10-27 11:51:14.12,67,-286,-2055,61,52,-13,-535,-686,151,610
,163,2023-10-27 11:51:14.13,69,-285,-2068,42,37,1,-633,-789,156,711
,164,2023-10-27 11:51:14.14,64,-307,-2080,34,43,19,-540,-690,150,615
,165,2023-10-27 11:51:14.15,80,-292,-2094,34,23,34,-637,-788,151,712
,166,2023-10-27 11:51:14.16,70,-282,-2088,19,14,43,-555,-699,144,627
,167,2023-10-27 11:51:14.17,69,-267,-2087,-5,23,50,-644,-792,148,718
,168,2023-10-27 11:51:14.18,68,-256,-2091,-39,0,46,-552,-698,146,625
,169,2023-10-27 11:51:14.19,55,-265,-2089,-57,-12,52,-628,-782,154,705
,170,2023-10-27 11:51:14.20,59,-257,-2076,-64,-68,50,-549,-697,148,623
,171,2023-10-27 11:51:14.21,44,-251,-2049,-63,-95,61,-631,-779,148,705
,172,2023-10-27 11:51:14.22,40,-253,-2028,-60,-118,66,-554,-695,141,624
,173,2023-10-27 11:51:14.23,32,-241,-2016,-56,-106,70,-620,-768,148,694
,174,2023-10-27 11:51:14.24,47,-239,-1982,-68,-76,65,-550,-694,144,622
,175,2023-10-27 11:51:14.25,24,-237,-1982,-83,-25,64,-624,-769,145,696
,176,2023-10-27 11:51:14.26,22,-252,-1999,-83,-4,53,-562,-700,138,631
,177,2023-10-27 11:51:14.27,16,-251,-2008,-59,10,58,-611,-759,148,685
,178,2023-10-27 11:51:14.28,3,-255,-2004,-26,-18,49,-548,-689,141,618
,179,2023-10-27 11:51:14.29,15,-247,-2006,3,-17,45,-613,-754,141,683
,180,2023-10-27 11:51:14.30,16,-236,-2024,18,-18,41,-573,-704,131,638
,181,2023-10-27 11:51:14.31,15,-247,-2026,25,4,37,-620,-759,139,689
,182,2023-10-27 11:51:14.32,24,-237,-2028,34,21,39,-566,-700,134,633
,183,2023-10-27 11:51:14.33,43,-247,-2026,33,43,27,-597,-746,149,671
,184,2023-10-27 11:51:14.34,41,-251,-2040,19,44,9,-559,-699,140,629
,185,2023-10-27 11:51:14.35,26,-239,-2078,17,74,10,-600,-748,148,674
,186,2023-10-27 11:51:14.36,40,-226,-2047,4,72,2,-569,-708,139,638
,187,2023-10-27 11:51:14.37,36,-263,-2040,3,76,-1,-598,-748,150,673
,188,2023-10-27 11:51:14.38,40,-263,-2033,-3,54,-14,-569,-713,144,641
,189,2023-10-27 11:51:14.39,58,-250,-2036,-6,47,-17,-590,-744,154,667
,190,2023-10-27 11:51:14.40,54,-239,-2045,-6,55,-4,-569,-713,144,641
,191,2023-10-27 11:51:14.41,58,-241,-2034,-17,79,4,-581,-737,156,659
,192,2023-10-27 11:51:14.42,74,-243,-2040,-36,107,21,-568,-713,145,640
,193,2023-10-27 11:51:14.43,80,-235,-2038,-48,106,24,-582,-737,155,659
,194,2023-10-27 11:51:14.44,72,-240,-2046,-47,119,29,-579,-722,143,650
,195,2023-10-27 11:51:14.45,105,-226,-2031,-57,80,21,-588,-741,153,664
,196,2023-10-27 11:51:14.46,94,-226,-2049,-55,86,34,-581,-726,145,653
,197,2023-10-27 11:51:14.47,98,-224,-2064,-53,90,31,-579,-737,158,658
,198,2023-10-27 11:51:14.48,113,-217,-2058,-51,88,25,-578,-728,150,653
,199,2023-10-27 11:51:14.49,100,-219,-2049,-45,66,20,-579,-738,159,658
,200,2023-10-27 11:51:14.50,86,-228,-2052,-35,54,13,-588,-736,148,662
,201,2023-10-27 11:51:14.51,106,-221,-2058,-21,48,15,-581,-738,157,659
,202,2023-10-27 11:51:14.52,104,-220,-2046,-7,48,16,-600,-742,142,671
,203,2023-10-27 11:51:14.53,103,-220,-2034,6,52,14,-572,-730,158,651
,204,2023-10-27 11:51:14.54,115,-230,-2027,12,17,-3,-587,-731,144,659
,205,2023-10-27 11:51:14.55,107,-231,-2022,20,6,-10,-563,-720,157,641
,206,2023-10-27 11:51:14.56,107,-222,-2026,19,24,0,-594,-736,142,665
,207,2023-10-27 11:51:14.57,110,-220,-2057,12,18,-8,-571,-721,150,646
,208,2023-10-27 11:51:14.58,106,-236,-2068,9,39,4,-626,-690,64,658
,209,2023-10-27 11:51:14.59,105,-259,-2073,8,28,3,-494,-590,96,542
,210,2023-10-27 11:51:14.60,99,-268,-2064,18,15,12,-501,-621,120,561
,211,2023-10-27 11:51:14.61,111,-273,-2044,27,-22,22,-381,-602,221,491
,212,2023-10-27 11:51:14.62,95,-275,-2062,37,-34,34,-445,-657,212,551
,213,2023-10-27 11:51:14.63,86,-271,-2073,47,-27,57,-350,-621,271,485
,214,2023-10-27 11:51:14.64,86,-280,-2054,50,-57,57,-429,-675,246,552
,215,2023-10-27 11:51:14.65,82,-297,-2046,55,-71,75,-330,-633,303,481
,216,2023-10-27 11:51:14.66,84,-281,-2038,59,-97,89,-399,-696,297,547
,217,2023-10-27 11:51:14.67,83,-270,-2034,59,-110,93,-284,-643,359,463
,218,2023-10-27 11:51:14.68,81,-273,-2045,65,-88,114,-368,-711,343,539
,219,2023-10-27 11:51:14.69,66,-282,-2052,58,-79,118,-272,-651,379,461
,220,2023-10-27 11:51:14.70,45,-285,-2051,46,-83,112,-387,-714,327,550
,221,2023-10-27 11:51:14.71,41,-279,-2054,32,-116,110,-290,-644,354,467
,222,2023-10-27 11:51:14.72,36,-291,-2038,15,-132,124,-405,-713,308,559
,223,2023-10-27 11:51:14.73,27,-288,-2043,-2,-102,146,-304,-638,334,471
,224,2023-10-27 11:51:14.74,17,-260,-2036,-25,-106,142,-418,-708,290,563
,225,2023-10-27 11:51:14.75,23,-241,-2019,-38,-85,138,-316,-631,315,473
,226,2023-10-27 11:51:14.76,28,-241,-2002,-44,-80,135,-430,-716,286,573
,227,2023-10-27 11:51:14.77,34,-247,-2004,-52,-68,120,-319,-637,318,478
,228,2023-10-27 11:51:14.78,46,-248,-2018,-51,-34,128,-434,-727,293,580
,229,2023-10-27 11:51:14.79,60,-243,-2014,-49,16,126,-322,-644,322,483
,230,2023-10-27 11:51:14.80,41,-251,-2005,-44,42,107,-455,-736,281,595
,231,2023-10-27 11:51:14.81,42,-241,-2018,-35,36,86,-341,-645,304,493
,232,2023-10-27 11:51:14.82,39,-235,-2035,-24,20,63,-478,-743,265,610
,233,2023-10-27 11:51:14.83,37,-223,-2036,-17,26,54,-367,-643,276,505
,234,2023-10-27 11:51:14.84,42,-233,-2031,-11,21,33,-494,-734,240,614
,235,2023-10-27 11:51:14.85,61,-223,-2040,-11,49,27,-360,-630,270,495
,236,2023-10-27 11:51:14.86,61,-212,-2034,-22,71,12,-480,-723,243,601
,237,2023-10-27 11:51:14.87,70,-207,-2036,-40,93,1,-345,-615,270,480
,238,2023-10-27 11:51:14.88,64,-191,-2037,-57,99,-21,-498,-709,211,603
,239,2023-10-27 11:51:14.89,60,-200,-2054,-74,94,-35,-370,-604,234,487
,240,2023-10-27 11:51:14.90,68,-205,-2091,-88,61,-51,-509,-720,211,614
,241,2023-10-27 11:51:14.91,78,-217,-2089,-98,36,-48,-358,-608,250,483
,242,2023-10-27 11:51:14.92,84,-224,-2079,-100,-2,-53,-484,-727,243,605
,243,2023-10-27 11:51:14.93,79,-222,-2071,-97,-19,-42,-342,-609,267,475
,244,2023-10-27 11:51:14.94,75,-220,-2070,-97,-41,-30,-473,-714,241,593
,245,2023-10-27 11:51:14.95,71,-220,-2072,-93,-37,-7,-321,-599,278,460
,246,2023-10-27 11:51:14.96,60,-222,-2059,-82,-31,13,-439,-722,283,580
,247,2023-10-27 11:51:14.97,59,-229,-2055,-75,-59,13,-286,-614,328,450
,248,2023-10-27 11:51:14.98,56,-225,-2050,-64,-77,32,-426,-741,315,583
,249,2023-10-27 11:51:14.99,59,-227,-2048,-43,-86,41,-290,-628,338,459
,250,2023-10-27 11:51:15.00,48,-220,-2021,-25,-77,58,-426,-741,315,583
,251,2023-10-27 11:51:15.01,47,-215,-2014,-9,-67,57,-284,-623,339,453
,252,2023-10-27 11:51:15.02,45,-214,-2021,7,-29,69,-428,-746,318,587
,253,2023-10-27 11:51:15.03,35,-204,-2019,17,-16,69,-290,-629,339,459
,254,2023-10-27 11:51:15.04,48,-198,-2031,23,3,69,-432,-756,324,594
,255,2023-10-27 11:51:15.05,36,-199,-2026,28,-13,58,-287,-632,345,459
,256,2023-10-27 11:51:15.06,43,-209,-2021,30,-16,49,-421,-756,335,588
,257,2023-10-27 11:51:15.07,48,-208,-2037,37,7,50,-276,-635,359,455
,258,2023-10-27 11:51:15.08,40,-209,-2052,34,12,41,-422,-768,346,595
,259,2023-10-27 11:51:15.09,40,-214,-2055,35,22,40,-285,-644,359,464
,260,2023-10-27 11:51:15.10,42,-221,-2043,28,5,32,-436,-778,342,607
,261,2023-10-27 11:51:15.11,44,-231,-2041,20,4,24,-299,-639,340,469
,262,2023-10-27 11:51:15.12,41,-229,-2042,12,-15,22,-444,-759,315,601
,263,2023-10-27 11:51:15.13,46,-210,-2032,4,-22,23,-301,-609,308,455
,264,2023-10-27 11:51:15.14,54,-212,-2031,-3,0,25,-448,-728,280,588
,265,2023-10-27 11:51:15.15,37,-210,-2047,-16,-4,12,-301,-616,315,458
,266,2023-10-27 11:51:15.16,36,-214,-2056,-23,-2,8,-442,-779,337,610
,267,2023-10-27 11:51:15.17,35,-216,-2061,-25,-8,11,-302,-654,352,478
,268,2023-10-27 11:51:15.18,38,-217,-2065,-23,-11,10,-456,-787,331,621
,269,2023-10-27 11:51:15.19,39,-215,-2065,-24,-9,16,-318,-647,329,482
,270,2023-10-27 11:51:15.20,25,-215,-2066,-23,-16,19,-460,-789,329,624
,271,2023-10-27 11:51:15.21,35,-216,-2051,-19,-43,24,-320,-644,324,482
,272,2023-10-27 11:51:15.22,44,-201,-2043,-16,-15,35,-459,-761,302,610
,273,2023-10-27 11:51:15.23,27,-197,-2033,-9,1,43,-316,-617,301,466
,274,2023-10-27 11:51:15.24,50,-195,-2033,-5,12,38,-447,-755,308,601
,275,2023-10-27 11:51:15.25,32,-193,-2037,-3,12,38,-308,-627,319,467
,276,2023-10-27 11:51:15.26,38,-194,-2033,2,20,32,-444,-767,323,605
,277,2023-10-27 11:51:15.27,36,-194,-2033,4,22,23,-313,-631,318,472
,278,2023-10-27 11:51:15.28,39,-187,-2033,3,14,9,-456,-768,312,612
,279,2023-10-27 11:51:15.29,36,-189,-2028,9,16,14,-334,-628,294,481
,280,2023-10-27 11:51:15.30,43,-195,-2033,10,23,19,-465,-767,302,616
,281,2023-10-27 11:51:15.31,48,-196,-2041,11,41,14,-333,-645,312,489
,282,2023-10-27 11:51:15.32,46,-200,-2058,11,27,5,-457,-778,321,617
,283,2023-10-27 11:51:15.33,64,-217,-2046,16,25,-2,-330,-642,312,486
,284,2023-10-27 11:51:15.34,48,-216,-2050,16,17,-4,-468,-778,310,623
,285,2023-10-27 11:51:15.35,60,-217,-2050,19,10,-3,-349,-633,284,491
,286,2023-10-27 11:51:15.36,49,-217,-2060,25,24,6,-484,-750,266,617
,287,2023-10-27 11:51:15.37,63,-218,-2050,25,27,8,-354,-611,257,482
,288,2023-10-27 11:51:15.38,55,-220,-2047,23,19,2,-462,-746,284,604
,289,2023-10-27 11:51:15.39,58,-219,-2042,19,5,6,-329,-626,297,477
,290,2023-10-27 11:51:15.40,58,-217,-2047,17,-1,7,-442,-771,329,606
,291,2023-10-27 11:51:15.41,52,-219,-2045,16,1,12,-318,-642,324,480
,292,2023-10-27 11:51:15.42,44,-225,-2053,11,-8,16,-430,-777,347,603
,293,2023-10-27 11:51:15.43,47,-223,-2067,9,11,32,-315,-636,321,475
,294,2023-10-27 11:51:15.44,43,-230,-2055,6,17,41,-421,-754,333,587
,295,2023-10-27 11:51:15.45,44,-230,-2055,0,8,35,-306,-627,321,466
,296,2023-10-27 11:51:15.46,48,-214,-2048,1,0,42,-412,-764,352,588
,297,2023-10-27 11:51:15.47,59,-203,-2037,0,6,53,-300,-643,343,471
,298,2023-10-27 11:51:15.48,61,-196,-2024,0,17,52,-406,-774,368,590
,299,2023-10-27 11:51:15.49,56,-196,-2036,1,11,46,-304,-655,351,479
,300,2023-10-27 11:51:15.50,48,-200,-2041,6,20,41,-410,-781,371,595
,301,2023-10-27 11:51:15.51,54,-204,-2040,15,24,35,-312,-660,348,486
,302,2023-10-27 11:51:15.52,50,-200,-2038,22,18,33,-435,-780,345,607
,303,2023-10-27 11:51:15.53,54,-207,-2036,27,7,24,-348,-646,298,497
,304,2023-10-27 11:51:15.54,55,-204,-2036,31,20,27,-445,-756,311,600
,305,2023-10-27 11:51:15.55,58,-207,-2043,34,13,21,-340,-641,301,490
,306,2023-10-27 11:51:15.56,63,-212,-2059,33,7,19,-426,-765,339,595
,307,2023-10-27 11:51:15.57,52,-218,-2049,37,7,34,-333,-656,323,494
,308,2023-10-27 11:51:15.58,52,-215,-2050,38,13,39,-425,-769,344,597
,309,2023-10-27 11:51:15.59,49,-223,-2046,33,25,31,-340,-654,314,497
,310,2023-10-27 11:51:15.60,63,-218,-2051,26,7,25,-425,-759,334,592
,311,2023-10-27 11:51:15.61,57,-225,-2039,27,-1,20,-342,-645,303,493
,312,2023-10-27 11:51:15.62,61,-222,-2043,30,0,18,-424,-747,323,585
,313,2023-10-27 11:51:15.63,65,-224,-2052,24,-6,13,-351,-649,298,500
,314,2023-10-27 11:51:15.64,61,-232,-2042,27,16,25,-436,-759,323,597
,315,2023-10-27 11:51:15.65,70,-224,-2038,27,24,22,-363,-642,279,502
,316,2023-10-27 11:51:15.66,65,-228,-2045,21,34,16,-425,-729,304,577
,317,2023-10-27 11:51:15.67,53,-233,-2051,17,12,10,-350,-639,289,494
,318,2023-10-27 11:51:15.68,40,-233,-2053,9,-13,8,-404,-748,344,576
,319,2023-10-27 11:51:15.69,67,-226,-2045,4,-13,16,-325,-662,337,493
,320,2023-10-27 11:51:15.70,57,-227,-2041,2,-14,12,-390,-764,374,577
,321,2023-10-27 11:51:15.71,64,-226,-2048,0,12,20,-339,-672,333,505
,322,2023-10-27 11:51:15.72,49,-225,-2050,-2,16,19,-420,-759,339,589
,323,2023-10-27 11:51:15.73,58,-222,-2040,-7,2,9,-366,-671,305,518
,324,2023-10-27 11:51:15.74,42,-218,-2049,-6,-12,16,-426,-754,328,590
,325,2023-10-27 11:51:15.75,54,-232,-2053,-1,-15,21,-379,-670,291,524
,326,2023-10-27 11:51:15.76,43,-217,-2045,4,-2,28,-424,-738,314,581
,327,2023-10-27 11:51:15.77,44,-224,-2041,7,-10,22,-377,-669,292,523
,328,2023-10-27 11:51:15.78,50,-212,-2032,4,-3,14,-432,-748,316,590
,329,2023-10-27 11:51:15.79,54,-210,-2043,-2,-7,10,-400,-664,264,532
,330,2023-10-27 11:51:15.80,50,-202,-2036,-5,-6,6,-439,-721,282,580
,331,2023-10-27 11:51:15.81,44,-202,-2038,-5,13,17,-397,-653,256,525
,332,2023-10-27 11:51:15.82,52,-202,-2039,-4,26,18,-420,-720,300,570
,333,2023-10-27 11:51:15.83,49,-206,-2039,-7,22,1,-390,-655,265,522
,334,2023-10-27 11:51:15.84,41,-202,-2040,-6,23,-4,-428,-710,282,569
,335,2023-10-27 11:51:15.85,50,-202,-2039,-1,13,-3,-409,-650,241,529
,336,2023-10-27 11:51:15.86,55,-210,-2043,2,10,1,-433,-700,267,566
,337,2023-10-27 11:51:15.87,56,-214,-2051,7,20,8,-408,-652,244,530
,338,2023-10-27 11:51:15.88,63,-216,-2051,9,19,0,-417,-699,282,558
,339,2023-10-27 11:51:15.89,54,-212,-2042,6,7,-1,-402,-654,252,528
,340,2023-10-27 11:51:15.90,66,-206,-2046,2,-7,-2,-412,-698,286,555
,341,2023-10-27 11:51:15.91,67,-211,-2045,7,14,7,-407,-654,247,530
,342,2023-10-27 11:51:15.92,57,-212,-2050,7,26,13,-410,-692,282,551
,343,2023-10-27 11:51:15.93,56,-220,-2054,7,24,3,-402,-656,254,529
,344,2023-10-27 11:51:15.94,60,-216,-2051,12,18,6,-388,-694,306,541
,345,2023-10-27 11:51:15.95,57,-216,-2041,9,2,0,-395,-675,280,535
,346,2023-10-27 11:51:15.96,61,-222,-2036,11,13,7,-391,-706,315,548
,347,2023-10-27 11:51:15.97,50,-212,-2042,10,19,14,-417,-693,276,555
,348,2023-10-27 11:51:15.98,47,-213,-2047,5,32,4,-418,-712,294,565
,349,2023-10-27 11:51:15.99,53,-208,-2046,2,31,4,-444,-686,242,565
,350,2023-10-27 11:51:16.00,64,-219,-2043,2,20,-1,-412,-698,286,555
,351,2023-10-27 11:51:16.01,63,-216,-2049,5,20,5,-425,-681,256,553
,352,2023-10-27 11:51:16.02,58,-219,-2048,5,11,1,-387,-695,308,541
,353,2023-10-27 11:51:16.03,64,-220,-2044,7,25,9,-418,-688,270,553
,354,2023-10-27 11:51:16.04,63,-227,-2043,9,23,11,-388,-697,309,542
,355,2023-10-27 11:51:16.05,71,-215,-2037,4,21,-1,-426,-703,277,564
,356,2023-10-27 11:51:16.06,62,-209,-2041,1,31,-5,-389,-706,317,547
,357,2023-10-27 11:51:16.07,61,-209,-2051,-3,15,-8,-434,-709,275,571
,358,2023-10-27 11:51:16.08,53,-212,-2059,-4,19,-6,-399,-699,300,549
,359,2023-10-27 11:51:16.09,49,-210,-2059,-8,24,-5,-444,-700,256,572
,360,2023-10-27 11:51:16.10,59,-209,-2065,-15,5,-15,-382,-680,298,531
,361,2023-10-27 11:51:16.11,53,-209,-2067,-16,3,-10,-436,-714,278,575
,362,2023-10-27 11:51:16.12,57,-207,-2046,-16,-17,-11,-388,-702,314,545
,363,2023-10-27 11:51:16.13,53,-205,-2032,-11,-13,-6,-452,-720,268,586
,364,2023-10-27 11:51:16.14,59,-206,-2035,-7,-17,-1,-372,-686,314,529
,365,2023-10-27 11:51:16.15,60,-206,-2039,3,-1,-1,-426,-700,274,563
,366,2023-10-27 11:51:16.16,59,-210,-2035,14,12,2,-362,-675,313,518
,367,2023-10-27 11:51:16.17,52,-211,-2044,20,-1,-1,-416,-713,297,564
,368,2023-10-27 11:51:16.18,59,-206,-2045,28,13,6,-336,-695,359,515
,369,2023-10-27 11:51:16.19,67,-206,-2050,34,17,12,-396,-729,333,562
,370,2023-10-27 11:51:16.20,62,-212,-2037,35,10,4,-314,-694,380,504
,371,2023-10-27 11:51:16.21,78,-208,-2040,37,18,7,-388,-736,348,562
,372,2023-10-27 11:51:16.22,74,-210,-2042,36,5,4,-304,-704,400,504
,373,2023-10-27 11:51:16.23,68,-208,-2044,33,7,0,-380,-768,388,574
,374,2023-10-27 11:51:16.24,71,-207,-2049,28,9,0,-288,-726,438,507
,375,2023-10-27 11:51:16.25,77,-208,-2050,23,5,-13,-379,-779,400,579
,376,2023-10-27 11:51:16.26,79,-218,-2043,19,6,-21,-305,-723,418,514
,377,2023-10-27 11:51:16.27,70,-221,-2043,21,0,-18,-405,-774,369,589
,378,2023-10-27 11:51:16.28,90,-217,-2035,24,3,-22,-315,-717,402,516
,379,2023-10-27 11:51:16.29,70,-225,-2042,30,9,-22,-424,-776,352,600
,380,2023-10-27 11:51:16.30,74,-235,-2050,28,-3,-22,-335,-717,382,526
,381,2023-10-27 11:51:16.31,70,-244,-2054,27,-9,-17,-450,-786,336,618
,382,2023-10-27 11:51:16.32,65,-235,-2058,21,-21,-11,-361,-718,357,539
,383,2023-10-27 11:51:16.33,56,-243,-2064,12,-15,-2,-465,-777,312,621
,384,2023-10-27 11:51:16.34,46,-238,-2050,3,-4,13,-360,-697,337,528
,385,2023-10-27 11:51:16.35,56,-234,-2044,-10,-14,11,-455,-762,307,608
,386,2023-10-27 11:51:16.36,62,-227,-2038,-22,-18,13,-334,-685,351,509
,387,2023-10-27 11:51:16.37,64,-230,-2043,-27,-22,26,-442,-770,328,606
,388,2023-10-27 11:51:16.38,53,-226,-2035,-30,-28,24,-332,-696,364,514
,389,2023-10-27 11:51:16.39,45,-222,-2019,-27,-17,35,-441,-785,344,613
,390,2023-10-27 11:51:16.40,58,-206,-2023,-31,-20,35,-321,-706,385,513
,391,2023-10-27 11:51:16.41,45,-210,-2037,-30,-22,31,-427,-789,362,608
,392,2023-10-27 11:51:16.42,44,-215,-2049,-31,-13,44,-298,-704,406,501
,393,2023-10-27 11:51:16.43,45,-221,-2059,-30,-2,53,-413,-800,387,606
,394,2023-10-27 11:51:16.44,52,-216,-2052,-26,17,54,-300,-709,409,504
,395,2023-10-27 11:51:16.45,40,-211,-2029,-30,11,60,-438,-811,373,624
,396,2023-10-27 11:51:16.46,44,-192,-2016,-33,17,58,-322,-710,388,516
,397,2023-10-27 11:51:16.47,70,-183,-2020,-35,52,61,-458,-802,344,630
,398,2023-10-27 11:51:16.48,58,-186,-2023,-37,48,43,-333,-703,370,518
,399,2023-10-27 11:51:16.49,78,-183,-2033,-32,66,22,-468,-794,326,631
,400,2023-10-27 11:51:16.50,78,-178,-2039,-25,52,7,-340,-685,345,512
,401,2023-10-27 11:51:16.51,75,-178,-2058,-22,70,2,-463,-788,325,625
,402,2023-10-27 11:51:16.52,70,-184,-2071,-16,56,-9,-335,-686,351,510
,403,2023-10-27 11:51:16.53,83,-194,-2085,-15,36,-28,-468,-789,321,628
,404,2023-10-27 11:51:16.54,81,-195,-2074,-8,23,-17,-342,-681,339,511
,405,2023-10-27 11:51:16.55,72,-196,-2068,0,21,-11,-479,-775,296,627
,406,2023-10-27 11:51:16.56,78,-203,-2083,4,-11,-21,-340,-659,319,499
,407,2023-10-27 11:51:16.57,71,-204,-2061,9,-17,-17,-478,-775,297,626
,408,2023-10-27 11:51:16.58,83,-209,-2047,16,-48,-17,-342,-658,316,500
,409,2023-10-27 11:51:16.59,67,-211,-2041,22,-52,-14,-478,-766,288,622
,410,2023-10-27 11:51:16.60,74,-211,-2032,29,-24,7,-340,-644,304,492
,411,2023-10-27 11:51:16.61,70,-208,-2025,32,-38,-3,-475,-754,279,614
,412,2023-10-27 11:51:16.62,70,-216,-2036,34,-33,4,-339,-632,293,485
,413,2023-10-27 11:51:16.63,79,-219,-2040,33,-25,11,-479,-749,270,614
,414,2023-10-27 11:51:16.64,59,-217,-2044,32,-18,19,-334,-625,291,479
,415,2023-10-27 11:51:16.65,66,-213,-2036,30,-9,28,-457,-754,297,605
,416,2023-10-27 11:51:16.66,52,-218,-2042,22,-14,27,-300,-636,336,468
,417,2023-10-27 11:51:16.67,56,-220,-2059,13,-19,25,-436,-771,335,603
,418,2023-10-27 11:51:16.68,66,-221,-2046,11,-19,39,-300,-652,352,476
,419,2023-10-27 11:51:16.69,55,-215,-2056,5,1,50,-452,-793,341,622
,420,2023-10-27 11:51:16.70,63,-210,-2054,5,16,53,-316,-653,337,484
,421,2023-10-27 11:51:16.71,63,-209,-2054,1,-2,40,-468,-762,294,615
,422,2023-10-27 11:51:16.72,60,-204,-2048,3,-2,37,-325,-624,299,474
,423,2023-10-27 11:51:16.73,75,-211,-2044,5,2,35,-470,-760,290,615
,424,2023-10-27 11:51:16.74,70,-197,-2036,5,8,29,-322,-631,309,476
,425,2023-10-27 11:51:16.75,71,-195,-2030,5,33,23,-468,-769,301,618
,426,2023-10-27 11:51:16.76,74,-196,-2035,5,30,13,-328,-632,304,480
,427,2023-10-27 11:51:16.77,72,-201,-2056,4,6,-2,-486,-764,278,625
,428,2023-10-27 11:51:16.78,64,-214,-2064,7,10,17,-344,-625,281,484
,429,2023-10-27 11:51:16.79,56,-211,-2049,5,12,19,-492,-763,271,627
,430,2023-10-27 11:51:16.80,63,-209,-2048,3,-8,12,-346,-621,275,483
,431,2023-10-27 11:51:16.81,58,-224,-2057,5,-34,16,-482,-755,273,618
,432,2023-10-27 11:51:16.82,39,-230,-2058,10,-52,24,-329,-616,287,472
,433,2023-10-27 11:51:16.83,54,-223,-2038,19,-47,39,-454,-758,304,606
,434,2023-10-27 11:51:16.84,50,-216,-2032,22,-28,49,-307,-630,323,468
,435,2023-10-27 11:51:16.85,56,-216,-2034,14,-38,40,-439,-771,332,605
,436,2023-10-27 11:51:16.86,43,-210,-2037,8,-32,45,-301,-645,344,473
,437,2023-10-27 11:51:16.87,39,-198,-2031,1,12,57,-450,-798,348,624
,438,2023-10-27 11:51:16.88,44,-190,-2034,-9,4,42,-326,-657,331,491
,439,2023-10-27 11:51:16.89,42,-188,-2050,-13,6,42,-466,-782,316,624
,440,2023-10-27 11:51:16.90,51,-187,-2053,-18,14,44,-326,-632,306,479
,441,2023-10-27 11:51:16.91,65,-181,-2046,-17,15,39,-451,-766,315,608
,442,2023-10-27 11:51:16.92,50,-193,-2051,-15,-5,26,-300,-634,334,467
,443,2023-10-27 11:51:16.93,55,-194,-2055,-15,-21,25,-430,-785,355,607
,444,2023-10-27 11:51:16.94,61,-195,-2056,-6,-5,41,-298,-650,352,474
,445,2023-10-27 11:51:16.95,58,-201,-2051,0,-23,25,-442,-792,350,617
,446,2023-10-27 11:51:16.96,57,-198,-2040,4,-42,28,-316,-648,332,482
,447,2023-10-27 11:51:16.97,60,-183,-2023,10,-19,38,-442,-789,347,615
,448,2023-10-27 11:51:16.98,51,-188,-2033,14,-12,34,-308,-656,348,482
,449,2023-10-27 11:51:16.99,54,-203,-2050,17,-17,23,-425,-800,375,612
,450,2023-10-27 11:51:17.00,56,-200,-2056,23,-16,27,-300,-672,372,486
,451,2023-10-27 11:51:17.01,47,-202,-2056,28,-16,36,-437,-811,374,624
,452,2023-10-27 11:51:17.02,52,-202,-2059,29,-1,31,-318,-683,365,500
,453,2023-10-27 11:51:17.03,53,-201,-2053,28,-19,22,-455,-826,371,640
,454,2023-10-27 11:51:17.04,56,-202,-2049,32,-4,36,-340,-689,349,514
,455,2023-10-27 11:51:17.05,57,-205,-2052,35,2,34,-467,-804,337,635
,456,2023-10-27 11:51:17.06,44,-206,-2046,35,5,29,-352,-666,314,509
,457,2023-10-27 11:51:17.07,56,-193,-2040,37,1,28,-478,-794,316,636
,458,2023-10-27 11:51:17.08,53,-188,-2046,35,-5,27,-362,-671,309,516
,459,2023-10-27 11:51:17.09,59,-199,-2048,33,11,16,-483,-805,322,644
,460,2023-10-27 11:51:17.10,57,-198,-2045,30,-8,5,-368,-665,297,516
,461,2023-10-27 11:51:17.11,47,-211,-2047,31,-11,13,-478,-773,295,625
,462,2023-10-27 11:51:17.12,42,-214,-2048,33,-9,8,-360,-648,288,504
,463,2023-10-27 11:51:17.13,44,-212,-2049,33,-15,5,-474,-777,303,625
,464,2023-10-27 11:51:17.14,36,-222,-2047,34,-25,9,-373,-660,287,516
,465,2023-10-27 11:51:17.15,50,-216,-2046,35,-36,12,-485,-782,297,633
,466,2023-10-27 11:51:17.16,35,-222,-2046,37,-27,11,-379,-654,275,516
,467,2023-10-27 11:51:17.17,36,-223,-2049,35,-26,13,-462,-768,306,615
,468,2023-10-27 11:51:17.18,37,-229,-2049,34,-38,15,-355,-643,288,499
,469,2023-10-27 11:51:17.19,31,-219,-2048,34,-23,24,-443,-753,310,598
,470,2023-10-27 11:51:17.20,32,-224,-2038,29,-9,31,-350,-651,301,500
,471,2023-10-27 11:51:17.21,24,-226,-2033,25,-4,27,-458,-768,310,613
,472,2023-10-27 11:51:17.22,24,-216,-2030,23,7,20,-377,-650,273,513
,473,2023-10-27 11:51:17.23,31,-215,-2024,19,0,18,-458,-753,295,605
,474,2023-10-27 11:51:17.24,49,-214,-2032,10,10,15,-359,-650,291,504
,475,2023-10-27 11:51:17.25,39,-216,-2048,6,33,10,-442,-761,319,601
,476,2023-10-27 11:51:17.26,45,-213,-2047,3,22,-1,-365,-665,300,515
,477,2023-10-27 11:51:17.27,51,-205,-2040,-1,26,-9,-455,-769,314,612
,478,2023-10-27 11:51:17.28,40,-211,-2045,-7,21,-17,-384,-668,284,526
,479,2023-10-27 11:51:17.29,47,-210,-2051,-13,7,-28,-460,-758,298,609
,480,2023-10-27 11:51:17.30,48,-219,-2056,-17,20,-21,-382,-661,279,521
,481,2023-10-27 11:51:17.31,51,-216,-2049,-18,19,-21,-462,-753,291,607
,482,2023-10-27 11:51:17.32,55,-205,-2041,-26,5,-31,-402,-657,255,529
,483,2023-10-27 11:51:17.33,58,-216,-2059,-25,5,-19,-462,-733,271,597
,484,2023-10-27 11:51:17.34,52,-226,-2063,-25,5,-8,-398,-645,247,521
,485,2023-10-27 11:51:17.35,49,-227,-2050,-21,-7,-1,-456,-728,272,592
,486,2023-10-27 11:51:17.36,49,-221,-2044,-12,2,21,-401,-654,253,527
,487,2023-10-27 11:51:17.37,39,-224,-2044,-6,-14,23,-438,-732,294,585
,488,2023-10-27 11:51:17.38,38,-217,-2042,-7,-20,30,-383,-670,287,526
,489,2023-10-27 11:51:17.39,39,-221,-2041,0,0,44,-437,-752,315,594
,490,2023-10-27 11:51:17.40,53,-213,-2042,1,-17,40,-401,-668,267,534
,491,2023-10-27 11:51:17.41,44,-206,-2042,2,-21,42,-447,-729,282,588
,492,2023-10-27 11:51:17.42,39,-189,-2021,6,2,45,-415,-652,237,533
,493,2023-10-27 11:51:17.43,44,-187,-2025,6,9,38,-453,-718,265,585
,494,2023-10-27 11:51:17.44,57,-186,-2023,1,12,24,-419,-672,253,545
,495,2023-10-27 11:51:17.45,39,-197,-2034,2,30,20,-458,-740,282,599
,496,2023-10-27 11:51:17.46,55,-187,-2053,1,45,25,-433,-674,241,553
,497,2023-10-27 11:51:17.47,57,-186,-2057,-8,54,11,-463,-719,256,591
,498,2023-10-27 11:51:17.48,55,-181,-2057,-15,36,-6,-431,-663,232,547
,499,2023-10-27 11:51:17.49,59,-183,-2054,-17,53,-1,-447,-719,272,583
,500,2023-10-27 11:51:17.50,64,-195,-2058,-17,60,1,-426,-678,252,552
,501,2023-10-27 11:51:17.51,70,-193,-2058,-12,25,-17,-433,-728,295,580
,502,2023-10-27 11:51:17.52,55,-202,-2057,-1,23,-9,-414,-686,272,550
,503,2023-10-27 11:51:17.53,65,-201,-2054,9,21,-3,-428,-725,297,576
,504,2023-10-27 11:51:17.54,52,-204,-2063,16,-14,-14,-421,-677,256,549
,505,2023-10-27 11:51:17.55,59,-202,-2054,20,-31,-9,-415,-710,295,562
,506,2023-10-27 11:51:17.56,56,-204,-2041,24,-12,4,-407,-684,277,545
,507,2023-10-27 11:51:17.57,59,-213,-2041,29,-13,9,-400,-717,317,558
,508,2023-10-27 11:51:17.58,49,-212,-2054,27,-28,1,-406,-693,287,549
,509,2023-10-27 11:51:17.59,53,-219,-2053,31,-25,13,-399,-716,317,557
,510,2023-10-27 11:51:17.60,41,-216,-2056,33,-16,30,-412,-692,280,552
,511,2023-10-27 11:51:17.61,47,-209,-2044,31,-13,28,-391,-714,323,552
,512,2023-10-27 11:51:17.62,43,-217,-2035,26,-19,36,-403,-704,301,553
,513,2023-10-27 11:51:17.63,52,-211,-2043,22,5,43,-391,-718,327,554
,514,2023-10-27 11:51:17.64,48,-204,-2046,19,15,48,-412,-699,287,555
,515,2023-10-27 11:51:17.65,49,-200,-2040,14,9,33,-372,-709,337,540
,516,2023-10-27 11:51:17.66,63,-198,-2039,10,-1,27,-393,-707,314,550
,517,2023-10-27 11:51:17.67,52,-194,-2045,12,9,33,-362,-714,352,538
,518,2023-10-27 11:51:17.68,63,-195,-2044,11,17,19,-408,-722,314,565
,519,2023-10-27 11:51:17.69,51,-202,-2050,8,-14,2,-383,-718,335,550
,520,2023-10-27 11:51:17.70,57,-210,-2065,14,-7,7,-424,-717,293,570
,521,2023-10-27 11:51:17.71,45,-207,-2048,17,-7,2,-368,-706,338,537
,522,2023-10-27 11:51:17.72,61,-207,-2035,22,6,-1,-404,-717,313,560
,523,2023-10-27 11:51:17.73,54,-215,-2037,20,-7,-8,-350,-707,357,528
,524,2023-10-27 11:51:17.74,55,-219,-2045,20,-13,-10,-402,-730,328,566
,525,2023-10-27 11:51:17.75,55,-209,-2032,19,16,5,-367,-719,352,543
,526,2023-10-27 11:51:17.76,46,-215,-2038,12,14,-8,-434,-731,297,582
,527,2023-10-27 11:51:17.77,50,-228,-2050,7,-3,-8,-379,-701,322,540
,528,2023-10-27 11:51:17.78,50,-218,-2047,5,2,4,-354,-739,385,546
,529,2023-10-27 11:51:17.79,54,-224,-2052,6,15,18,-340,-797,457,568
,530,2023-10-27 11:51:17.80,47,-227,-2057,2,14,21,-425,-851,426,638
,531,2023-10-27 11:51:17.81,45,-224,-2058,1,8,23,-430,-829,399,629
,532,2023-10-27 11:51:17.82,60,-228,-2045,3,-2,34,-483,-829,346,656
,533,2023-10-27 11:51:17.83,52,-212,-2035,7,14,45,-461,-795,334,628
,534,2023-10-27 11:51:17.84,58,-199,-2045,7,22,34,-500,-803,303,651
,535,2023-10-27 11:51:17.85,58,-196,-2048,6,0,31,-467,-770,303,618
,536,2023-10-27 11:51:17.86,40,-200,-2057,7,0,36,-519,-794,275,656
,537,2023-10-27 11:51:17.87,55,-199,-2059,8,2,32,-478,-754,276,616
,538,2023-10-27 11:51:17.88,45,-195,-2058,9,6,32,-533,-784,251,658
,539,2023-10-27 11:51:17.89,52,-194,-2044,4,-20,14,-486,-742,256,614
,540,2023-10-27 11:51:17.90,48,-194,-2039,11,-20,9,-543,-776,233,659
,541,2023-10-27 11:51:17.91,52,-183,-2037,13,1,15,-496,-728,232,612
,542,2023-10-27 11:51:17.92,44,-189,-2037,11,16,1,-585,-713,128,649
,543,2023-10-27 11:51:17.93,45,-191,-2029,12,11,-12,-450,-603,153,526
,544,2023-10-27 11:51:17.94,66,-194,-2044,17,17,-10,-496,-651,155,573
,545,2023-10-27 11:51:17.95,54,-201,-2045,14,20,-13,-364,-604,240,484
,546,2023-10-27 11:51:17.96,54,-210,-2040,16,35,-15,-463,-689,226,576
,547,2023-10-27 11:51:17.97,54,-213,-2051,17,25,-13,-358,-632,274,495
,548,2023-10-27 11:51:17.98,56,-221,-2044,20,-12,-18,-464,-718,254,591
,549,2023-10-27 11:51:17.99,51,-225,-2048,25,9,5,-357,-648,291,502
,550,2023-10-27 11:51:18.00,52,-229,-2060,17,13,7,-473,-732,259,602
,551,2023-10-27 11:51:18.01,53,-239,-2062,13,-4,11,-367,-648,281,507
,552,2023-10-27 11:51:18.02,53,-240,-2039,17,2,30,-482,-722,240,602
,553,2023-10-27 11:51:18.03,51,-231,-2041,21,7,42,-361,-639,278,500
,554,2023-10-27 11:51:18.04,48,-238,-2046,18,7,48,-472,-730,258,601
,555,2023-10-27 11:51:18.05,49,-232,-2054,17,8,52,-351,-652,301,501
,556,2023-10-27 11:51:18.06,47,-221,-2041,15,3,66,-473,-754,281,613
,557,2023-10-27 11:51:18.07,51,-217,-2043,16,6,71,-353,-659,306,506
,558,2023-10-27 11:51:18.08,45,-214,-2047,15,18,67,-481,-741,260,611
,559,2023-10-27 11:51:18.09,57,-193,-2037,5,5,58,-353,-640,287,496
,560,2023-10-27 11:51:18.10,44,-196,-2048,1,7,51,-482,-742,260,612
,561,2023-10-27 11:51:18.11,43,-196,-2042,-2,29,50,-353,-644,291,498
,562,2023-10-27 11:51:18.12,55,-196,-2051,-6,29,33,-489,-746,257,617
,563,2023-10-27 11:51:18.13,54,-194,-2037,-9,24,19,-364,-639,275,501
,564,2023-10-27 11:51:18.14,51,-185,-2037,-7,24,8,-502,-740,238,621
,565,2023-10-27 11:51:18.15,67,-191,-2036,0,22,-1,-358,-622,264,490
,566,2023-10-27 11:51:18.16,64,-198,-2034,5,33,-13,-503,-728,225,615
,567,2023-10-27 11:51:18.17,66,-200,-2030,9,26,-24,-364,-612,248,488
,568,2023-10-27 11:51:18.18,59,-209,-2029,14,21,-23,-501,-729,228,615
,569,2023-10-27 11:51:18.19,65,-213,-2040,16,28,-30,-349,-621,272,485
,570,2023-10-27 11:51:18.20,52,-227,-2042,16,33,-29,-482,-747,265,614
,571,2023-10-27 11:51:18.21,55,-228,-2045,14,25,-28,-345,-644,299,494
,572,2023-10-27 11:51:18.22,50,-230,-2047,11,19,-28,-480,-764,284,622
,573,2023-10-27 11:51:18.23,57,-239,-2055,10,22,-8,-344,-649,305,496
,574,2023-10-27 11:51:18.24,65,-236,-2055,5,33,3,-506,-783,277,644
,575,2023-10-27 11:51:18.25,70,-232,-2050,-1,32,8,-372,-659,287,515
,576,2023-10-27 11:51:18.26,61,-223,-2057,-3,9,16,-536,-783,247,659
,577,2023-10-27 11:51:18.27,72,-230,-2055,-8,14,31,-400,-652,252,526
,578,2023-10-27 11:51:18.28,71,-231,-2057,-11,16,34,-551,-772,221,661
,579,2023-10-27 11:51:18.29,68,-214,-2050,-7,18,37,-397,-637,240,517
,580,2023-10-27 11:51:18.30,71,-210,-2051,-10,11,42,-528,-762,234,645
,581,2023-10-27 11:51:18.31,70,-220,-2059,-6,8,44,-367,-627,260,497
,582,2023-10-27 11:51:18.32,75,-209,-2055,-2,17,48,-517,-750,233,633
,583,2023-10-27 11:51:18.33,69,-208,-2042,1,-5,42,-376,-612,236,494
,584,2023-10-27 11:51:18.34,65,-203,-2036,7,1,43,-524,-740,216,632
,585,2023-10-27 11:51:18.35,77,-195,-2038,9,5,39,-370,-612,242,491
,586,2023-10-27 11:51:18.36,72,-194,-2036,5,-1,25,-511,-758,247,634
,587,2023-10-27 11:51:18.37,55,-196,-2046,4,1,23,-364,-625,261,494
,588,2023-10-27 11:51:18.38,68,-199,-2051,3,-4,18,-526,-767,241,646
,589,2023-10-27 11:51:18.39,65,-205,-2052,2,-6,14,-389,-620,231,504
,590,2023-10-27 11:51:18.40,71,-207,-2050,8,4,20,-542,-744,202,643
,591,2023-10-27 11:51:18.41,60,-205,-2042,7,4,14,-391,-602,211,496
,592,2023-10-27 11:51:18.42,67,-210,-2043,6,-11,5,-534,-739,205,636
,593,2023-10-27 11:51:18.43,62,-207,-2043,6,0,15,-382,-602,220,492
,594,2023-10-27 11:51:18.44,66,-209,-2041,8,14,21,-526,-741,215,633
,595,2023-10-27 11:51:18.45,68,-212,-2046,9,3,10,-374,-605,231,489
,596,2023-10-27 11:51:18.46,68,-217,-2054,12,-8,16,-520,-744,224,632
,597,2023-10-27 11:51:18.47,65,-213,-2047,12,-5,21,-374,-604,230,489
,598,2023-10-27 11:51:18.48,70,-210,-2050,12,-3,23,-520,-742,222,631
,599,2023-10-27 11:51:18.49,62,-209,-2055,10,0,27,-374,-601,227,487
,600,2023-10-27 11:51:18.50,59,-200,-2048,10,-18,19,-515,-738,223,626
,601,2023-10-27 11:51:18.51,68,-198,-2044,6,-12,26,-368,-597,229,482
,602,2023-10-27 11:51:18.52,56,-197,-2039,5,4,23,-507,-739,232,623
,603,2023-10-27 11:51:18.53,64,-194,-2044,7,-18,20,-364,-602,238,483
,604,2023-10-27 11:51:18.54,68,-199,-2046,12,7,25,-511,-746,235,628
,605,2023-10-27 11:51:18.55,53,-194,-2038,14,-14,13,-378,-607,229,492
,606,2023-10-27 11:51:18.56,48,-199,-2050,16,-27,15,-514,-741,227,627
,607,2023-10-27 11:51:18.57,60,-211,-2042,19,-8,18,-382,-607,225,494
,608,2023-10-27 11:51:18.58,62,-209,-2043,23,-17,16,-519,-743,224,631
,609,2023-10-27 11:51:18.59,53,-216,-2048,27,-17,9,-386,-612,226,499
,610,2023-10-27 11:51:18.60,49,-216,-2055,25,-29,14,-520,-744,224,632
,611,2023-10-27 11:51:18.61,44,-218,-2047,26,-23,20,-390,-609,219,499
,612,2023-10-27 11:51:18.62,44,-218,-2049,20,-5,23,-532,-745,213,638
,613,2023-10-27 11:51:18.63,43,-218,-2054,13,-14,17,-404,-611,207,507
,614,2023-10-27 11:51:18.64,48,-217,-2042,8,-9,30,-535,-745,210,640
,615,2023-10-27 11:51:18.65,48,-220,-2041,5,18,30,-413,-619,206,516
,616,2023-10-27 11:51:18.66,43,-217,-2035,-1,0,19,-534,-746,212,640
,617,2023-10-27 11:51:18.67,47,-213,-2038,1,5,26,-405,-613,208,509
,618,2023-10-27 11:51:18.68,41,-209,-2029,2,14,22,-537,-741,204,639
,619,2023-10-27 11:51:18.69,53,-204,-2032,1,6,9,-414,-609,195,511
,620,2023-10-27 11:51:18.70,52,-202,-2049,4,3,9,-535,-737,202,636
,621,2023-10-27 11:51:18.71,53,-208,-2038,6,3,15,-415,-608,193,511
,622,2023-10-27 11:51:18.72,62,-210,-2049,8,14,9,-521,-735,214,628
,623,2023-10-27 11:51:18.73,63,-216,-2049,3,4,3,-397,-608,211,502
,624,2023-10-27 11:51:18.74,48,-211,-2047,3,-7,5,-505,-733,228,619
,625,2023-10-27 11:51:18.75,52,-218,-2049,5,25,18,-394,-624,230,509
,626,2023-10-27 11:51:18.76,51,-216,-2043,4,12,8,-510,-756,246,633
,627,2023-10-27 11:51:18.77,49,-219,-2042,5,-12,6,-406,-635,229,520
,628,2023-10-27 11:51:18.78,51,-210,-2044,8,-2,16,-521,-750,229,635
,629,2023-10-27 11:51:18.79,46,-211,-2045,7,20,23,-415,-625,210,520
,630,2023-10-27 11:51:18.80,65,-203,-2049,4,15,13,-515,-740,225,627
,631,2023-10-27 11:51:18.81,55,-207,-2041,-2,16,9,-410,-624,214,517
,632,2023-10-27 11:51:18.82,55,-201,-2049,-4,11,14,-502,-736,234,619
,633,2023-10-27 11:51:18.83,48,-197,-2065,-3,22,14,-403,-617,214,510
,634,2023-10-27 11:51:18.84,54,-201,-2056,-5,22,13,-493,-728,235,610
,635,2023-10-27 11:51:18.85,51,-207,-2042,1,-10,-1,-397,-629,232,513
,636,2023-10-27 11:51:18.86,39,-202,-2026,5,-5,5,-484,-745,261,614
,637,2023-10-27 11:51:18.87,61,-208,-2037,14,33,15,-400,-643,243,521
,638,2023-10-27 11:51:18.88,48,-209,-2043,18,16,3,-491,-744,253,617
,639,2023-10-27 11:51:18.89,53,-209,-2046,23,3,6,-410,-632,222,521
,640,2023-10-27 11:51:18.90,58,-205,-2051,23,37,20,-487,-726,239,606
,641,2023-10-27 11:51:18.91,53,-199,-2044,18,37,18,-414,-622,208,518
,642,2023-10-27 11:51:18.92,57,-197,-2049,14,23,11,-472,-719,247,595
,643,2023-10-27 11:51:18.93,60,-199,-2052,13,31,17,-393,-631,238,512
,644,2023-10-27 11:51:18.94,73,-203,-2044,15,35,20,-462,-725,263,593
,645,2023-10-27 11:51:18.95,62,-199,-2045,17,13,5,-406,-640,234,523
,646,2023-10-27 11:51:18.96,69,-197,-2049,24,-8,1,-477,-730,253,603
,647,2023-10-27 11:51:18.97,68,-201,-2050,31,-5,14,-411,-638,227,524
,648,2023-10-27 11:51:18.98,68,-203,-2047,32,-7,1,-467,-723,256,595
,649,2023-10-27 11:51:18.99,66,-220,-2043,35,-21,-6,-412,-651,239,531
,650,2023-10-27 11:51:19.00,62,-220,-2039,42,-24,1,-475,-737,262,606
,651,2023-10-27 11:51:19.01,55,-219,-2056,47,0,12,-430,-653,223,541
,652,2023-10-27 11:51:19.02,53,-208,-2058,48,-3,7,-475,-719,244,597
,653,2023-10-27 11:51:19.03,41,-209,-2064,44,-22,4,-428,-648,220,538
,654,2023-10-27 11:51:19.04,57,-205,-2076,40,-24,7,-463,-720,257,591
,655,2023-10-27 11:51:19.05,70,-188,-2058,25,39,17,-423,-665,242,544
,656,2023-10-27 11:51:19.06,49,-212,-2038,12,62,6,-467,-737,270,602
,657,2023-10-27 11:51:19.07,40,-228,-2039,26,34,-7,-428,-675,247,551
,658,2023-10-27 11:51:19.08,54,-222,-2037,68,37,11,-451,-730,279,590
,659,2023-10-27 11:51:19.09,59,-197,-2029,85,26,2,-424,-674,250,549
,660,2023-10-27 11:51:19.10,50,-193,-2044,70,36,-10,-444,-724,280,584
,661,2023-10-27 11:51:19.11,54,-203,-2047,51,57,-13,-422,-675,253,548
,662,2023-10-27 11:51:19.12,44,-210,-2034,52,65,-17,-421,-723,302,572
,663,2023-10-27 11:51:19.13,49,-227,-2029,59,50,-23,-401,-680,279,540
,664,2023-10-27 11:51:19.14,57,-236,-2030,66,35,-18,-415,-720,305,567
,665,2023-10-27 11:51:19.15,54,-231,-2029,60,48,-31,-414,-696,282,555
,666,2023-10-27 11:51:19.16,69,-243,-2016,59,41,-32,-422,-730,308,576
,667,2023-10-27 11:51:19.17,71,-243,-2021,58,57,-29,-422,-680,258,551
,668,2023-10-27 11:51:19.18,61,-243,-2053,59,76,-32,-419,-704,285,561
,669,2023-10-27 11:51:19.19,57,-229,-2031,44,88,-33,-423,-683,260,553
,670,2023-10-27 11:51:19.20,77,-250,-2024,33,85,-42,-405,-716,311,560
,671,2023-10-27 11:51:19.21,70,-249,-2034,25,89,-46,-414,-697,283,555
,672,2023-10-27 11:51:19.22,76,-245,-2034,19,116,-45,-407,-714,307,560
,673,2023-10-27 11:51:19.23,88,-246,-2035,19,101,-63,-429,-705,276,567
,674,2023-10-27 11:51:19.24,91,-261,-2038,23,103,-53,-403,-720,317,561
,675,2023-10-27 11:51:19.25,96,-266,-2053,22,112,-53,-419,-701,282,560
,676,2023-10-27 11:51:19.26,86,-266,-2071,16,103,-55,-384,-707,323,545
,677,2023-10-27 11:51:19.27,90,-262,-2075,12,83,-47,-409,-702,293,555
,678,2023-10-27 11:51:19.28,93,-267,-2073,3,60,-48,-368,-708,340,538
,679,2023-10-27 11:51:19.29,95,-256,-2052,-7,61,-31,-402,-715,313,558
,680,2023-10-27 11:51:19.30,106,-248,-2039,-14,56,-24,-378,-712,334,545
,681,2023-10-27 11:51:19.31,105,-246,-2028,-21,59,-25,-429,-721,292,575
,682,2023-10-27 11:51:19.32,97,-232,-2030,-30,35,-24,-386,-708,322,547
,683,2023-10-27 11:51:19.33,90,-209,-2049,-29,38,-18,-436,-708,272,572
,684,2023-10-27 11:51:19.34,86,-211,-2039,-36,36,-28,-396,-685,289,540
,685,2023-10-27 11:51:19.35,103,-206,-2026,-42,44,-33,-459,-709,250,584
,686,2023-10-27 11:51:19.36,94,-212,-2027,-44,30,-34,-409,-697,288,553
,687,2023-10-27 11:51:19.37,86,-213,-2054,-39,32,-37,-465,-706,241,585
,688,2023-10-27 11:51:19.38,99,-199,-2061,-31,37,-35,-391,-674,283,532
,689,2023-10-27 11:51:19.39,103,-222,-2029,-26,20,-49,-452,-704,252,578
,690,2023-10-27 11:51:19.40,96,-217,-2043,-11,9,-55,-379,-680,301,529
,691,2023-10-27 11:51:19.41,101,-208,-2051,4,45,-48,-447,-714,267,580
,692,2023-10-27 11:51:19.42,109,-209,-2043,12,31,-67,-381,-674,293,527
,693,2023-10-27 11:51:19.43,116,-224,-2051,25,18,-76,-445,-711,266,578
,694,2023-10-27 11:51:19.44,111,-219,-2035,39,48,-76,-351,-678,327,514
,695,2023-10-27 11:51:19.45,133,-205,-2011,46,57,-91,-421,-723,302,572
,696,2023-10-27 11:51:19.46,145,-195,-2000,67,68,-107,-343,-682,339,512
,697,2023-10-27 11:51:19.47,154,-186,-1991,69,80,-121,-434,-730,296,582
,698,2023-10-27 11:51:19.48,152,-188,-2006,68,79,-143,-337,-672,335,504
,699,2023-10-27 11:51:19.49,160,-209,-2048,63,94,-155,-428,-723,295,575
,700,2023-10-27 11:51:19.50,168,-200,-2073,55,89,-168,-338,-672,334,505
,701,2023-10-27 11:51:19.51,168,-218,-2096,43,30,-189,-443,-733,290,588
,702,2023-10-27 11:51:19.52,179,-211,-2093,27,32,-177,-355,-678,323,516
,703,2023-10-27 11:51:19.53,165,-209,-2098,-2,35,-177,-447,-738,291,592
,704,2023-10-27 11:51:19.54,163,-206,-2091,-38,-22,-185,-332,-673,341,502
,705,2023-10-27 11:51:19.55,161,-214,-2099,-64,-47,-174,-430,-743,313,586
,706,2023-10-27 11:51:19.56,160,-201,-2070,-87,-54,-156,-324,-672,348,498
,707,2023-10-27 11:51:19.57,156,-201,-2070,-112,-65,-151,-396,-753,357,574
,708,2023-10-27 11:51:19.58,121,-243,-2029,-112,-109,-152,-253,-668,415,460
,709,2023-10-27 11:51:19.59,125,-255,-2028,-72,-197,-132,-340,-731,391,535
,710,2023-10-27 11:51:19.60,118,-264,-2029,-26,-211,-104,-241,-644,403,442
,711,2023-10-27 11:51:19.61,103,-249,-2018,-14,-182,-84,-375,-729,354,552
,712,2023-10-27 11:51:19.62,104,-238,-2011,-30,-185,-92,-274,-651,377,462
,713,2023-10-27 11:51:19.63,90,-252,-2011,-45,-153,-78,-400,-730,330,565
,714,2023-10-27 11:51:19.64,54,-276,-2013,-39,-109,-57,-295,-638,343,466
,715,2023-10-27 11:51:19.65,33,-264,-2028,-16,-106,-50,-418,-726,308,572
,716,2023-10-27 11:51:19.66,22,-231,-2011,0,-131,-52,-296,-638,342,467
,717,2023-10-27 11:51:19.67,41,-224,-2015,10,-123,-50,-419,-724,305,571
,718,2023-10-27 11:51:19.68,35,-224,-2010,9,-105,-48,-306,-630,324,468
,719,2023-10-27 11:51:19.69,7,-231,-2014,10,-96,-61,-428,-742,314,585
,720,2023-10-27 11:51:19.70,4,-245,-2028,20,-91,-66,-300,-653,353,476
,721,2023-10-27 11:51:19.71,8,-248,-2044,22,-59,-51,-437,-751,314,594
,722,2023-10-27 11:51:19.72,16,-243,-2055,8,-28,-64,-320,-644,324,482
,723,2023-10-27 11:51:19.73,10,-240,-2048,-20,6,-55,-452,-755,303,603
,724,2023-10-27 11:51:19.74,43,-226,-2032,-49,99,-41,-318,-651,333,484
,725,2023-10-27 11:51:19.75,41,-222,-2020,-72,147,-47,-451,-761,310,606
,726,2023-10-27 11:51:19.76,63,-209,-2012,-79,159,-61,-320,-650,330,485
,727,2023-10-27 11:51:19.77,80,-203,-2034,-71,166,-60,-453,-750,297,601
,728,2023-10-27 11:51:19.78,79,-188,-2066,-65,173,-54,-320,-636,316,478
,729,2023-10-27 11:51:19.79,98,-181,-2085,-65,149,-68,-445,-767,322,606
,730,2023-10-27 11:51:19.80,104,-186,-2093,-61,106,-66,-315,-655,340,485
,731,2023-10-27 11:51:19.81,119,-179,-2072,-49,84,-50,-468,-757,289,612
,732,2023-10-27 11:51:19.82,120,-176,-2048,-48,89,-54,-340,-633,293,486
,733,2023-10-27 11:51:19.83,125,-169,-2045,-55,51,-65,-483,-748,265,615
,734,2023-10-27 11:51:19.84,135,-166,-2038,-59,59,-51,-338,-629,291,483
,735,2023-10-27 11:51:19.85,137,-154,-2018,-60,78,-52,-471,-764,293,617
,736,2023-10-27 11:51:19.86,142,-145,-2014,-60,64,-70,-320,-642,322,481
,737,2023-10-27 11:51:19.87,147,-146,-2030,-54,65,-71,-457,-769,312,613
,738,2023-10-27 11:51:19.88,144,-146,-2047,-47,71,-76,-309,-647,338,478
,739,2023-10-27 11:51:19.89,143,-150,-2054,-35,66,-87,-463,-774,311,618
,740,2023-10-27 11:51:19.90,146,-156,-2053,-22,34,-95,-331,-643,312,487
,741,2023-10-27 11:51:19.91,135,-154,-2026,-6,9,-99,-488,-762,274,625
,742,2023-10-27 11:51:19.92,157,-151,-2034,8,22,-98,-345,-632,287,488
,743,2023-10-27 11:51:19.93,146,-144,-2053,6,29,-113,-491,-772,281,631
,744,2023-10-27 11:51:19.94,155,-152,-2065,-5,3,-131,-350,-641,291,495
,745,2023-10-27 11:51:19.95,144,-155,-2055,-3,24,-125,-497,-770,273,633
,746,2023-10-27 11:51:19.96,150,-154,-2053,-8,56,-143,-349,-636,287,492
,747,2023-10-27 11:51:19.97,187,-154,-2060,-3,30,-168,-486,-777,291,631
,748,2023-10-27 11:51:19.98,186,-145,-2061,-7,32,-182,-338,-640,302,489
,749,2023-10-27 11:51:19.99,196,-148,-2060,-15,61,-187,-494,-769,275,631
,750,2023-10-27 11:51:20.00,194,-163,-2040,-19,84,-203,-356,-632,276,494
,751,2023-10-27 11:51:20.01,181,-184,-2046,-15,97,-217,-500,-775,275,637
,752,2023-10-27 11:51:20.02,188,-197,-2048,0,80,-219,-350,-635,285,492
,753,2023-10-27 11:51:20.03,180,-217,-2050,14,71,-218,-486,-767,281,626
,754,2023-10-27 11:51:20.04,172,-227,-2045,18,29,-215,-335,-630,295,482
,755,2023-10-27 11:51:20.05,162,-233,-2048,24,22,-192,-480,-781,301,630
,756,2023-10-27 11:51:20.06,154,-227,-2058,24,13,-174,-341,-646,305,493
,757,2023-10-27 11:51:20.07,149,-228,-2070,14,-17,-157,-484,-778,294,631
,758,2023-10-27 11:51:20.08,127,-233,-2060,10,-41,-134,-343,-635,292,489
,759,2023-10-27 11:51:20.09,126,-234,-2040,9,-44,-106,-495,-779,284,637
,760,2023-10-27 11:51:20.10,128,-233,-2042,16,-46,-86,-358,-642,284,500
,761,2023-10-27 11:51:20.11,122,-238,-2041,26,-69,-79,-509,-781,272,645
,762,2023-10-27 11:51:20.12,111,-226,-2061,42,-63,-48,-372,-636,264,504
,763,2023-10-27 11:51:20.13,109,-217,-2051,52,-39,-33,-514,-774,260,644
,764,2023-10-27 11:51:20.14,107,-205,-2042,54,-55,-35,-378,-623,245,500
,765,2023-10-27 11:51:20.15,104,-202,-2054,52,-27,-26,-514,-750,236,632
,766,2023-10-27 11:51:20.16,95,-206,-2064,44,-4,-20,-373,-611,238,492
,767,2023-10-27 11:51:20.17,102,-201,-2081,38,-4,-23,-527,-754,227,640
,768,2023-10-27 11:51:20.18,83,-212,-2080,31,1,-24,-398,-621,223,509
,769,2023-10-27 11:51:20.19,91,-205,-2072,26,-20,-25,-528,-766,238,647
,770,2023-10-27 11:51:20.20,87,-196,-2052,19,-9,-18,-379,-620,241,499
,771,2023-10-27 11:51:20.21,100,-191,-2038,8,-7,-23,-509,-765,256,637
,772,2023-10-27 11:51:20.22,98,-191,-2024,4,-18,-24,-376,-635,259,505
,773,2023-10-27 11:51:20.23,97,-182,-2017,2,-10,-20,-518,-772,254,645
,774,2023-10-27 11:51:20.24,107,-200,-2018,4,-4,-27,-400,-634,234,517
,775,2023-10-27 11:51:20.25,102,-210,-2026,4,7,-20,-530,-768,238,649
,776,2023-10-27 11:51:20.26,119,-208,-2027,8,8,-15,-405,-639,234,522
,777,2023-10-27 11:51:20.27,108,-205,-2037,17,16,-6,-526,-762,236,644
,778,2023-10-27 11:51:20.28,95,-219,-2034,18,28,2,-401,-626,225,513
,779,2023-10-27 11:51:20.29,105,-209,-2041,16,20,16,-526,-756,230,641
,780,2023-10-27 11:51:20.30,104,-209,-2034,10,6,28,-406,-626,220,516
,781,2023-10-27 11:51:20.31,124,-184,-2041,8,27,43,-522,-753,231,637
,782,2023-10-27 11:51:20.32,132,-154,-2048,-18,31,30,-402,-638,236,520
,783,2023-10-27 11:51:20.33,131,-146,-2045,-48,46,24,-518,-774,256,646
,784,2023-10-27 11:51:20.34,151,-140,-2056,-74,68,20,-405,-648,243,526
,785,2023-10-27 11:51:20.35,169,-141,-2060,-90,83,12,-523,-769,246,646
,786,2023-10-27 11:51:20.36,182,-138,-2065,-97,100,0,-411,-639,228,525
,787,2023-10-27 11:51:20.37,185,-147,-2068,-96,101,-9,-530,-759,229,644
,788,2023-10-27 11:51:20.38,181,-147,-2075,-91,87,-18,-422,-624,202,523
,789,2023-10-27 11:51:20.39,194,-150,-2087,-77,95,-16,-531,-736,205,633
,790,2023-10-27 11:51:20.40,188,-142,-2096,-65,85,-16,-427,-622,195,524
,791,2023-10-27 11:51:20.41,195,-150,-2087,-50,46,-16,-536,-743,207,639
,792,2023-10-27 11:51:20.42,188,-157,-2085,-27,15,-11,-429,-629,200,529
,793,2023-10-27 11:51:20.43,189,-170,-2069,8,-18,-1,-508,-748,240,628
,794,2023-10-27 11:51:20.44,172,-179,-2043,39,-48,9,-401,-645,244,523
,795,2023-10-27 11:51:20.45,166,-181,-2027,56,-74,11,-494,-760,266,627
,796,2023-10-27 11:51:20.46,175,-190,-2022,66,-57,31,-404,-653,249,528
,797,2023-10-27 11:51:20.47,153,-202,-2028,68,-43,43,-504,-757,253,630
,798,2023-10-27 11:51:20.48,154,-208,-2018,61,-58,46,-422,-656,234,539
,799,2023-10-27 11:51:20.49,152,-206,-2034,57,-39,68,-510,-758,248,634
,800,2023-10-27 11:51:20.50,143,-206,-2036,45,-16,86,-429,-646,217,537
,801,2023-10-27 11:51:20.51,127,-211,-2047,30,-37,91,-511,-736,225,623
,802,2023-10-27 11:51:20.52,139,-212,-2051,18,-38,105,-432,-638,206,535
,803,2023-10-27 11:51:20.53,132,-203,-2047,11,-21,123,-501,-738,237,619
,804,2023-10-27 11:51:20.54,135,-195,-2051,4,-20,129,-423,-658,235,540
,805,2023-10-27 11:51:20.55,132,-195,-2052,0,-33,122,-485,-758,273,621
,806,2023-10-27 11:51:20.56,132,-181,-2066,2,-5,137,-419,-673,254,546
,807,2023-10-27 11:51:20.57,123,-160,-2051,-6,-11,121,-492,-753,261,622
,808,2023-10-27 11:51:20.58,132,-152,-2040,-8,17,119,-438,-666,228,552
,809,2023-10-27 11:51:20.59,129,-147,-2058,-13,21,102,-496,-745,249,620
,810,2023-10-27 11:51:20.60,139,-151,-2075,-13,8,100,-438,-661,223,549
,811,2023-10-27 11:51:20.61,135,-148,-2067,-6,-10,96,-478,-731,253,604
,812,2023-10-27 11:51:20.62,144,-141,-2045,7,1,91,-428,-675,247,551
,813,2023-10-27 11:51:20.63,145,-141,-2034,15,-4,77,-478,-751,273,614
,814,2023-10-27 11:51:20.64,152,-144,-2044,21,-19,76,-437,-681,244,559
,815,2023-10-27 11:51:20.65,148,-147,-2048,20,-2,73,-477,-737,260,607
,816,2023-10-27 11:51:20.66,139,-162,-2051,18,-26,65,-432,-668,236,550
,817,2023-10-27 11:51:20.67,129,-177,-2067,17,-32,82,-477,-730,253,603
,818,2023-10-27 11:51:20.68,130,-190,-2059,17,-49,97,-450,-683,233,566
,819,2023-10-27 11:51:20.69,116,-200,-2057,23,-61,110,-468,-743,275,605
,820,2023-10-27 11:51:20.70,134,-190,-2031,23,-75,132,-441,-699,258,570
,821,2023-10-27 11:51:20.71,138,-181,-2010,25,-66,146,-456,-738,282,597
,822,2023-10-27 11:51:20.72,148,-180,-2009,29,-26,148,-439,-682,243,560
,823,2023-10-27 11:51:20.73,140,-186,-2024,40,-25,146,-454,-720,266,587
,824,2023-10-27 11:51:20.74,143,-191,-2038,55,5,165,-435,-670,235,552
,825,2023-10-27 11:51:20.75,143,-193,-2052,62,14,157,-450,-710,260,580
,826,2023-10-27 11:51:20.76,131,-200,-2069,61,2,163,-451,-679,228,565
,827,2023-10-27 11:51:20.77,146,-207,-2100,60,13,179,-467,-713,246,590
,828,2023-10-27 11:51:20.78,133,-210,-2084,56,-4,183,-459,-684,225,571
,829,2023-10-27 11:51:20.79,145,-206,-2067,57,-30,186,-449,-715,266,582
,830,2023-10-27 11:51:20.80,135,-203,-2050,47,-27,193,-457,-687,230,572
,831,2023-10-27 11:51:20.81,139,-191,-2029,44,-20,198,-459,-706,247,582
,832,2023-10-27 11:51:20.82,137,-206,-2007,42,-42,180,-473,-685,212,579
,833,2023-10-27 11:51:20.83,148,-207,-2001,47,-35,179,-458,-702,244,580
,834,2023-10-27 11:51:20.84,143,-206,-2010,52,6,185,-465,-679,214,572
,835,2023-10-27 11:51:20.85,134,-213,-2029,47,-7,168,-427,-693,266,560
,836,2023-10-27 11:51:20.86,110,-217,-2058,43,-20,169,-445,-696,251,570
,837,2023-10-27 11:51:20.87,113,-218,-2058,41,-9,174,-430,-714,284,572
,838,2023-10-27 11:51:20.88,101,-214,-2043,34,-12,175,-472,-704,232,588
,839,2023-10-27 11:51:20.89,106,-208,-2045,28,-50,163,-441,-694,253,567
,840,2023-10-27 11:51:20.90,93,-199,-2061,20,-58,161,-460,-698,238,579
,841,2023-10-27 11:51:20.91,97,-204,-2046,6,-46,160,-407,-700,293,553
,842,2023-10-27 11:51:20.92,89,-207,-2056,0,-52,161,-440,-714,274,577
,843,2023-10-27 11:51:20.93,80,-197,-2040,1,-46,164,-394,-703,309,548
,844,2023-10-27 11:51:20.94,80,-188,-2029,-1,-36,153,-445,-696,251,570
,845,2023-10-27 11:51:20.95,86,-187,-2036,-4,-21,136,-391,-674,283,532
,846,2023-10-27 11:51:20.96,85,-184,-2043,-9,-28,128,-416,-686,270,551
,847,2023-10-27 11:51:20.97,74,-176,-2042,-4,-6,122,-306,-664,358,485
,848,2023-10-27 11:51:20.98,71,-162,-2057,-9,-30,92,-344,-699,355,521
,849,2023-10-27 11:51:20.99,76,-164,-2056,-12,-31,86,-292,-668,376,480
,850,2023-10-27 11:51:21.00,74,-175,-2066,-17,-17,80,-390,-701,311,545
,851,2023-10-27 11:51:21.01,78,-179,-2049,-20,-19,63,-344,-666,322,505
,852,2023-10-27 11:51:21.02,72,-185,-2043,-20,-20,48,-421,-704,283,562
,853,2023-10-27 11:51:21.03,81,-205,-2039,-10,-13,49,-365,-676,311,520
,854,2023-10-27 11:51:21.04,85,-193,-2041,2,-25,37,-452,-742,290,597
,855,2023-10-27 11:51:21.05,96,-190,-2037,11,-37,46,-390,-700,310,545
,856,2023-10-27 11:51:21.06,83,-189,-2030,9,-15,41,-483,-731,248,607
,857,2023-10-27 11:51:21.07,79,-195,-2042,5,-10,35,-400,-667,267,533
,858,2023-10-27 11:51:21.08,91,-210,-2048,20,-20,40,-482,-709,227,595
,859,2023-10-27 11:51:21.09,86,-211,-2045,35,-37,47,-393,-662,269,527
,860,2023-10-27 11:51:21.10,77,-213,-2047,44,-22,51,-484,-731,247,607
,861,2023-10-27 11:51:21.11,77,-208,-2032,53,-41,50,-401,-691,290,546
,862,2023-10-27 11:51:21.12,73,-197,-2025,58,-31,65,-492,-756,264,624
,863,2023-10-27 11:51:21.13,74,-196,-2032,59,-30,53,-400,-688,288,544
,864,2023-10-27 11:51:21.14,81,-197,-2021,56,-26,53,-511,-755,244,633
,865,2023-10-27 11:51:21.15,88,-200,-2025,55,-3,55,-423,-681,258,552
,866,2023-10-27 11:51:21.16,93,-198,-2031,53,8,49,-532,-752,220,642
,867,2023-10-27 11:51:21.17,97,-200,-2030,49,19,35,-425,-671,246,548
,868,2023-10-27 11:51:21.18,105,-194,-2030,36,28,23,-530,-747,217,638
,869,2023-10-27 11:51:21.19,112,-193,-2038,27,65,26,-422,-664,242,543
,870,2023-10-27 11:51:21.20,110,-198,-2036,13,71,8,-536,-749,213,642
,871,2023-10-27 11:51:21.21,109,-194,-2049,0,75,4,-428,-666,238,547
,872,2023-10-27 11:51:21.22,106,-196,-2065,-13,96,3,-545,-753,208,649
,873,2023-10-27 11:51:21.23,108,-190,-2070,-28,94,3,-425,-657,232,541
,874,2023-10-27 11:51:21.24,114,-191,-2075,-45,71,-4,-544,-744,200,644
,875,2023-10-27 11:51:21.25,111,-193,-2073,-54,74,0,-423,-651,228,537
,876,2023-10-27 11:51:21.26,121,-186,-2064,-66,36,-12,-544,-747,203,645
,877,2023-10-27 11:51:21.27,116,-180,-2043,-66,41,-2,-416,-649,233,532
,878,2023-10-27 11:51:21.28,116,-176,-2037,-65,28,-10,-538,-745,207,641
,879,2023-10-27 11:51:21.29,124,-186,-2036,-56,23,-6,-408,-643,235,525
,880,2023-10-27 11:51:21.30,118,-181,-2048,-41,4,-4,-533,-746,213,639
,881,2023-10-27 11:51:21.31,121,-180,-2049,-28,7,-2,-405,-628,223,516
,882,2023-10-27 11:51:21.32,113,-183,-2050,-25,1,0,-485,-688,203,586
,883,2023-10-27 11:51:21.33,107,-194,-2052,-11,6,17,-285,-574,289,429
,884,2023-10-27 11:51:21.34,108,-191,-2067,1,-30,9,-372,-694,322,533
,885,2023-10-27 11:51:21.35,107,-179,-2063,8,-37,23,-251,-598,347,424
,886,2023-10-27 11:51:21.36,123,-177,-2055,9,-26,25,-411,-715,304,563
,887,2023-10-27 11:51:21.37,113,-179,-2050,10,-25,26,-304,-602,298,453
,888,2023-10-27 11:51:21.38,111,-178,-2049,15,-23,16,-453,-710,257,581
,889,2023-10-27 11:51:21.39,104,-177,-2062,20,-32,20,-320,-594,274,457
,890,2023-10-27 11:51:21.40,105,-192,-2056,19,-3,24,-472,-726,254,599
,891,2023-10-27 11:51:21.41,107,-192,-2047,24,3,25,-353,-610,257,481
,892,2023-10-27 11:51:21.42,86,-194,-2025,35,1,28,-503,-725,222,614
,893,2023-10-27 11:51:21.43,119,-200,-2031,56,-1,29,-357,-597,240,477
,894,2023-10-27 11:51:21.44,117,-199,-2040,68,-16,21,-504,-735,231,619
,895,2023-10-27 11:51:21.45,103,-199,-2047,74,10,29,-359,-609,250,484
,896,2023-10-27 11:51:21.46,112,-197,-2054,74,-2,21,-514,-727,213,620
,897,2023-10-27 11:51:21.47,107,-196,-2045,69,1,24,-380,-596,216,488
,898,2023-10-27 11:51:21.48,115,-200,-2046,67,-13,19,-522,-720,198,621
,899,2023-10-27 11:51:21.49,104,-188,-2055,61,-20,18,-366,-601,235,483
,900,2023-10-27 11:51:21.50,99,-188,-2051,44,-18,16,-513,-745,232,629
,901,2023-10-27 11:51:21.51,101,-187,-2056,30,-26,14,-371,-614,243,492
,902,2023-10-27 11:51:21.52,100,-204,-2049,18,-30,15,-526,-738,212,632
,903,2023-10-27 11:51:21.53,90,-217,-2055,14,-42,14,-368,-598,230,483
,904,2023-10-27 11:51:21.54,91,-214,-2049,22,-59,18,-517,-740,223,628
,905,2023-10-27 11:51:21.55,88,-217,-2045,28,-69,21,-370,-613,243,491
,906,2023-10-27 11:51:21.56,79,-218,-2047,40,-71,29,-524,-754,230,639
,907,2023-10-27 11:51:21.57,85,-212,-2031,47,-71,34,-376,-610,234,493
,908,2023-10-27 11:51:21.58,71,-221,-2023,60,-63,41,-521,-732,211,626
,909,2023-10-27 11:51:21.59,78,-226,-2028,74,-58,44,-361,-595,234,478
,910,2023-10-27 11:51:21.60,69,-215,-2042,83,-49,49,-499,-737,238,618
,911,2023-10-27 11:51:21.61,77,-212,-2030,81,-39,52,-346,-610,264,478
,912,2023-10-27 11:51:21.62,70,-213,-2031,82,-30,54,-493,-759,266,626
,913,2023-10-27 11:51:21.63,60,-210,-2041,81,-19,52,-349,-631,282,490
,914,2023-10-27 11:51:21.64,69,-215,-2046,73,-8,50,-506,-783,277,644
,915,2023-10-27 11:51:21.65,69,-223,-2042,67,0,48,-370,-644,274,507
,916,2023-10-27 11:51:21.66,75,-217,-2044,59,5,43,-525,-788,263,656
,917,2023-10-27 11:51:21.67,77,-216,-2051,52,8,36,-381,-635,254,508
,918,2023-10-27 11:51:21.68,71,-213,-2044,43,13,30,-527,-758,231,642
,919,2023-10-27 11:51:21.69,77,-212,-2040,33,20,21,-379,-618,239,498
,920,2023-10-27 11:51:21.70,84,-201,-2042,21,25,12,-526,-768,242,647
,921,2023-10-27 11:51:21.71,82,-210,-2047,10,34,6,-390,-621,231,505
,922,2023-10-27 11:51:21.72,83,-215,-2042,3,35,-2,-534,-760,226,647
,923,2023-10-27 11:51:21.73,96,-210,-2039,2,31,-4,-382,-622,240,502
,924,2023-10-27 11:51:21.74,89,-216,-2043,6,27,-5,-535,-768,233,651
,925,2023-10-27 11:51:21.75,80,-214,-2049,11,24,-3,-403,-624,221,513
,926,2023-10-27 11:51:21.76,86,-210,-2047,11,23,0,-539,-755,216,647
,927,2023-10-27 11:51:21.77,103,-218,-2046,10,24,1,-392,-614,222,503
,928,2023-10-27 11:51:21.78,105,-209,-2051,11,22,3,-517,-760,243,638
,929,2023-10-27 11:51:21.79,104,-209,-2049,14,21,3,-366,-617,251,491
,930,2023-10-27 11:51:21.80,103,-209,-2048,17,15,5,-499,-753,254,626
,931,2023-10-27 11:51:21.81,101,-210,-2045,21,12,3,-364,-620,256,492
,932,2023-10-27 11:51:21.82,116,-216,-2053,28,6,1,-512,-763,251,637
,933,2023-10-27 11:51:21.83,112,-215,-2049,32,1,3,-390,-623,233,506
,934,2023-10-27 11:51:21.84,110,-217,-2052,39,-5,4,-526,-751,225,638
,935,2023-10-27 11:51:21.85,102,-224,-2044,43,-8,5,-399,-615,216,507
,936,2023-10-27 11:51:21.86,106,-227,-2048,45,-10,7,-524,-747,223,635
,937,2023-10-27 11:51:21.87,98,-237,-2046,48,-12,13,-389,-624,235,506
,938,2023-10-27 11:51:21.88,90,-236,-2047,48,-13,17,-526,-775,249,650
,939,2023-10-27 11:51:21.89,89,-231,-2041,43,-13,22,-407,-637,230,522
,940,2023-10-27 11:51:21.90,101,-234,-2044,39,-13,27,-532,-762,230,647
,941,2023-10-27 11:51:21.91,90,-236,-2046,33,-7,28,-405,-626,221,515
,942,2023-10-27 11:51:21.92,80,-235,-2039,28,-3,30,-526,-756,230,641
,943,2023-10-27 11:51:21.93,81,-234,-2036,31,-5,30,-410,-634,224,522
,944,2023-10-27 11:51:21.94,86,-242,-2034,36,-13,33,-543,-769,226,656
,945,2023-10-27 11:51:21.95,71,-237,-2045,36,-12,30,-434,-627,193,530
,946,2023-10-27 11:51:21.96,84,-230,-2033,34,-9,29,-548,-740,192,644
,947,2023-10-27 11:51:21.97,83,-234,-2042,28,3,23,-426,-611,185,518
,948,2023-10-27 11:51:21.98,86,-232,-2036,25,4,21,-528,-740,212,634
,949,2023-10-27 11:51:21.99,82,-234,-2040,29,4,17,-411,-634,223,522
,950,2023-10-27 11:51:22.00,74,-229,-2044,27,2,14,-515,-764,249,639
,951,2023-10-27 11:51:22.01,75,-236,-2042,28,1,11,-418,-638,220,528
,952,2023-10-27 11:51:22.02,82,-236,-2041,24,3,8,-515,-747,232,631
,953,2023-10-27 11:51:22.03,81,-238,-2041,23,6,7,-406,-626,220,516
,954,2023-10-27 11:51:22.04,74,-238,-2043,19,8,6,-492,-745,253,618
,955,2023-10-27 11:51:22.05,74,-240,-2041,14,9,5,-390,-648,258,519
,956,2023-10-27 11:51:22.06,76,-234,-2044,11,14,5,-496,-774,278,635
,957,2023-10-27 11:51:22.07,83,-237,-2044,11,16,4,-416,-659,243,537
,958,2023-10-27 11:51:22.08,75,-241,-2044,12,19,3,-520,-758,238,639
,959,2023-10-27 11:51:22.09,87,-231,-2046,15,19,5,-430,-638,208,534
,960,2023-10-27 11:51:22.10,86,-224,-2038,16,22,2,-503,-740,237,621
,961,2023-10-27 11:51:22.11,93,-228,-2041,13,27,1,-411,-645,234,528
,962,2023-10-27 11:51:22.12,76,-227,-2042,17,30,-1,-493,-756,263,624
,963,2023-10-27 11:51:22.13,83,-225,-2039,18,30,-3,-423,-656,233,539
,964,2023-10-27 11:51:22.14,95,-231,-2030,24,31,-6,-508,-747,239,627
,965,2023-10-27 11:51:22.15,94,-221,-2030,25,32,-10,-441,-656,215,548
,966,2023-10-27 11:51:22.16,92,-223,-2034,26,35,-15,-514,-748,234,631
,967,2023-10-27 11:51:22.17,96,-225,-2045,28,36,-22,-449,-648,199,548
,968,2023-10-27 11:51:22.18,100,-228,-2048,26,35,-25,-502,-727,225,614
,969,2023-10-27 11:51:22.19,93,-229,-2044,26,33,-25,-439,-649,210,544
,970,2023-10-27 11:51:22.20,93,-228,-2046,23,31,-27,-501,-743,242,622
,971,2023-10-27 11:51:22.21,80,-237,-2038,22,27,-31,-450,-672,222,561
,972,2023-10-27 11:51:22.22,98,-233,-2033,22,27,-31,-512,-753,241,632
,973,2023-10-27 11:51:22.23,87,-238,-2036,18,28,-31,-464,-665,201,564
,974,2023-10-27 11:51:22.24,98,-242,-2039,13,28,-30,-509,-731,222,620
,975,2023-10-27 11:51:22.25,107,-238,-2038,9,28,-29,-461,-660,199,560
,976,2023-10-27 11:51:22.26,109,-243,-2036,7,29,-27,-493,-731,238,612
,977,2023-10-27 11:51:22.27,94,-239,-2043,6,32,-27,-454,-679,225,566
,978,2023-10-27 11:51:22.28,102,-237,-2034,6,35,-27,-488,-745,257,616
,979,2023-10-27 11:51:22.29,110,-240,-2040,6,34,-26,-468,-692,224,580
,980,2023-10-27 11:51:22.30,103,-240,-2044,9,35,-22,-503,-746,243,624
,981,2023-10-27 11:51:22.31,110,-237,-2044,11,30,-20,-480,-680,200,580
,982,2023-10-27 11:51:22.32,106,-236,-2046,16,32,-19,-496,-718,222,607
,983,2023-10-27 11:51:22.33,104,-237,-2044,21,30,-20,-469,-668,199,568
,984,2023-10-27 11:51:22.34,102,-237,-2039,26,27,-19,-478,-720,242,599
,985,2023-10-27 11:51:22.35,122,-238,-2037,33,27,-21,-455,-678,223,566
,986,2023-10-27 11:51:22.36,104,-236,-2033,35,30,-25,-460,-719,259,589
,987,2023-10-27 11:51:22.37,108,-244,-2037,36,33,-28,-459,-666,207,562
,988,2023-10-27 11:51:22.38,115,-247,-2050,36,31,-27,-461,-692,231,576
,989,2023-10-27 11:51:22.39,117,-242,-2041,35,29,-29,-453,-677,224,565
,990,2023-10-27 11:51:22.40,116,-242,-2038,29,24,-30,-437,-719,282,578
,991,2023-10-27 11:51:22.41,108,-248,-2048,27,26,-30,-440,-692,252,566
,992,2023-10-27 11:51:22.42,107,-244,-2048,18,31,-28,-423,-704,281,563
,993,2023-10-27 11:51:22.43,115,-247,-2051,11,32,-28,-428,-678,250,553
,994,2023-10-27 11:51:22.44,105,-253,-2048,7,27,-29,-416,-698,282,557
,995,2023-10-27 11:51:22.45,114,-244,-2052,6,24,-26,-435,-678,243,556
,996,2023-10-27 11:51:22.46,119,-246,-2044,4,29,-25,-408,-691,283,549
,997,2023-10-27 11:51:22.47,128,-254,-2038,8,22,-24,-426,-684,258,555
,998,2023-10-27 11:51:22.48,122,-252,-2048,13,26,-20,-391,-694,303,542
,999,2023-10-27 11:51:22.49,126,-249,-2042,21,23,-17,-420,-692,272,556
,1000,2023-10-27 11:51:22.50,114,-249,-2036,22,26,-13,-383,-689,306,536
,1001,2023-10-27 11:51:22.51,110,-248,-2035,19,31,-10,-420,-679,259,549
,1002,2023-10-27 11:51:22.52,116,-242,-2030,19,31,-7,-366,-670,304,518
,1003,2023-10-27 11:51:22.53,112,-246,-2033,16,30,-5,-410,-715,305,562
,1004,2023-10-27 11:51:22.54,116,-234,-2045,15,28,0,-373,-714,341,543
,1005,2023-10-27 11:51:22.55,121,-234,-2044,11,30,-2,-434,-713,279,573
,1006,2023-10-27 11:51:22.56,133,-231,-2033,7,30,-3,-390,-682,292,536
,1007,2023-10-27 11:51:22.57,123,-230,-2042,1,32,-7,-440,-691,251,565
,1008,2023-10-27 11:51:22.58,119,-234,-2043,-1,31,-9,-390,-669,279,529
,1009,2023-10-27 11:51:22.59,124,-229,-2045,-2,24,-10,-449,-687,238,568
,1010,2023-10-27 11:51:22.60,127,-234,-2039,-2,20,-13,-391,-658,267,524
,1011,2023-10-27 11:51:22.61,121,-234,-2042,0,18,-12,-464,-690,226,577
,1012,2023-10-27 11:51:22.62,129,-232,-2039,2,16,-16,-400,-658,258,529
,1013,2023-10-27 11:51:22.63,135,-231,-2045,3,18,-19,-465,-691,226,578
,1014,2023-10-27 11:51:22.64,130,-241,-2039,4,17,-18,-386,-651,265,518
,1015,2023-10-27 11:51:22.65,130,-238,-2043,8,18,-18,-469,-709,240,589
,1016,2023-10-27 11:51:22.66,120,-243,-2049,15,13,-19,-399,-666,267,532
,1017,2023-10-27 11:51:22.67,125,-237,-2047,22,5,-18,-480,-719,239,599
,1018,2023-10-27 11:51:22.68,125,-245,-2044,33,1,-20,-397,-665,268,531
,1019,2023-10-27 11:51:22.69,133,-231,-2044,42,-7,-23,-480,-706,226,593
,1020,2023-10-27 11:51:22.70,125,-235,-2048,47,-10,-21,-395,-650,255,522
,1021,2023-10-27 11:51:22.71,125,-232,-2052,47,-9,-19,-492,-703,211,597
,1022,2023-10-27 11:51:22.72,128,-237,-2056,46,-14,-20,-403,-651,248,527
,1023,2023-10-27 11:51:22.73,120,-248,-2051,43,-10,-17,-496,-725,229,610
,1024,2023-10-27 11:51:22.74,110,-251,-2044,44,-15,-15,-406,-661,255,533
,1025,2023-10-27 11:51:22.75,118,-253,-2032,38,-7,-9,-468,-717,249,592
,1026,2023-10-27 11:51:22.76,106,-265,-2025,35,-4,-7,-314,-621,307,467
,1027,2023-10-27 11:51:22.77,113,-267,-2025,34,2,-1,-324,-672,348,498
,1028,2023-10-27 11:51:22.78,106,-267,-2029,35,8,4,-171,-592,421,381
,1029,2023-10-27 11:51:22.79,102,-275,-2035,33,11,7,-277,-696,419,486
,1030,2023-10-27 11:51:22.80,96,-275,-2044,32,10,12,-205,-623,418,414
,1031,2023-10-27 11:51:22.81,116,-275,-2043,26,17,19,-372,-718,346,545
,1032,2023-10-27 11:51:22.82,109,-271,-2030,19,21,20,-291,-623,332,457
,1033,2023-10-27 11:51:22.83,115,-262,-2041,13,18,20,-432,-701,269,566
,1034,2023-10-27 11:51:22.84,119,-258,-2042,9,13,17,-328,-617,289,472
,1035,2023-10-27 11:51:22.85,115,-256,-2040,5,10,12,-452,-722,270,587
,1036,2023-10-27 11:51:22.86,113,-248,-2042,-3,13,8,-336,-639,303,487
,1037,2023-10-27 11:51:22.87,123,-244,-2040,-9,19,2,-447,-737,290,592
,1038,2023-10-27 11:51:22.88,118,-239,-2032,-13,15,-7,-317,-628,311,472
,1039,2023-10-27 11:51:22.89,116,-241,-2029,-12,8,-16,-360,-699,339,529
,1040,2023-10-27 11:51:22.90,123,-241,-2045,-5,2,-23,-196,-591,395,393
,1041,2023-10-27 11:51:22.91,131,-235,-2048,-7,3,-29,-313,-700,387,506
,1042,2023-10-27 11:51:22.92,130,-241,-2049,-7,-4,-32,-218,-600,382,409
,1043,2023-10-27 11:51:22.93,127,-235,-2049,-3,-6,-35,-375,-712,337,543
,1044,2023-10-27 11:51:22.94,127,-243,-2036,-1,-4,-34,-266,-611,345,438
,1045,2023-10-27 11:51:22.95,121,-247,-2047,0,-9,-40,-424,-728,304,576
,1046,2023-10-27 11:51:22.96,132,-242,-2045,5,-9,-41,-312,-621,309,466
,1047,2023-10-27 11:51:22.97,121,-237,-2043,9,-14,-38,-457,-729,272,593
,1048,2023-10-27 11:51:22.98,123,-234,-2036,8,-6,-37,-327,-619,292,473
,1049,2023-10-27 11:51:22.99,122,-238,-2036,5,2,-35,-459,-732,273,595
,1050,2023-10-27 11:51:23.00,111,-253,-2030,3,5,-34,-330,-624,294,477
,1051,2023-10-27 11:51:23.01,120,-261,-2023,3,14,-29,-469,-742,273,605
,1052,2023-10-27 11:51:23.02,114,-268,-2026,13,12,-24,-337,-629,292,483
,1053,2023-10-27 11:51:23.03,123,-266,-2027,16,23,-19,-489,-748,259,618
,1054,2023-10-27 11:51:23.04,119,-278,-2019,22,28,-14,-352,-629,277,490
,1055,2023-10-27 11:51:23.05,111,-277,-2032,31,22,-7,-499,-760,261,629
,1056,2023-10-27 11:51:23.06,117,-270,-2029,36,23,-2,-357,-636,279,496
,1057,2023-10-27 11:51:23.07,111,-277,-2030,32,32,4,-514,-760,246,637
,1058,2023-10-27 11:51:23.08,122,-269,-2041,21,35,6,-370,-636,266,503
,1059,2023-10-27 11:51:23.09,131,-262,-2045,11,44,10,-511,-768,257,639
,1060,2023-10-27 11:51:23.10,121,-262,-2043,-6,59,11,-365,-643,278,504
,1061,2023-10-27 11:51:23.11,123,-248,-2044,-19,58,10,-524,-780,256,652
,1062,2023-10-27 11:51:23.12,127,-236,-2041,-30,58,6,-388,-642,254,515
,1063,2023-10-27 11:51:23.13,137,-227,-2052,-40,62,2,-537,-765,228,651
,1064,2023-10-27 11:51:23.14,150,-211,-2048,-55,70,-11,-390,-627,237,508
,1065,2023-10-27 11:51:23.15,149,-203,-2048,-67,84,-24,-543,-770,227,656
,1066,2023-10-27 11:51:23.16,160,-215,-2040,-70,83,-39,-397,-637,240,517
,1067,2023-10-27 11:51:23.17,167,-208,-2030,-63,75,-52,-562,-778,216,670
,1068,2023-10-27 11:51:23.18,156,-212,-2037,-46,66,-62,-419,-633,214,526
,1069,2023-10-27 11:51:23.19,146,-216,-2036,-30,59,-71,-568,-759,191,663
,1070,2023-10-27 11:51:23.20,159,-210,-2056,-15,42,-78,-409,-622,213,515
,1071,2023-10-27 11:51:23.21,174,-207,-2046,-9,25,-81,-550,-767,217,658
,1072,2023-10-27 11:51:23.22,160,-215,-2061,-9,21,-78,-402,-629,227,515
,1073,2023-10-27 11:51:23.23,172,-230,-2038,-7,9,-79,-544,-756,212,650
,1074,2023-10-27 11:51:23.24,167,-241,-2037,0,7,-77,-421,-631,210,526
,1075,2023-10-27 11:51:23.25,160,-242,-2030,8,3,-72,-595,-778,183,686
,1076,2023-10-27 11:51:23.26,158,-252,-2017,17,4,-68,-426,-620,194,523
,1077,2023-10-27 11:51:23.27,161,-256,-2024,27,6,-65,-523,-735,212,629
,1078,2023-10-27 11:51:23.28,163,-254,-2023,27,8,-59,-362,-586,224,474
,1079,2023-10-27 11:51:23.29,152,-259,-2033,30,11,-55,-535,-735,200,635
,1080,2023-10-27 11:51:23.30,160,-249,-2042,21,16,-53,-414,-599,185,506
,1081,2023-10-27 11:51:23.31,162,-236,-2066,8,10,-51,-580,-743,163,661
,1082,2023-10-27 11:51:23.32,143,-237,-2064,-6,4,-49,-435,-597,162,516
,1083,2023-10-27 11:51:23.33,152,-215,-2061,-26,5,-46,-587,-733,146,660
,1084,2023-10-27 11:51:23.34,140,-230,-2065,-43,1,-46,-447,-599,152,523
,1085,2023-10-27 11:51:23.35,133,-226,-2063,-53,1,-45,-599,-744,145,671
,1086,2023-10-27 11:51:23.36,142,-225,-2056,-47,-14,-42,-460,-602,142,531
,1087,2023-10-27 11:51:23.37,135,-225,-2046,-43,-16,-40,-584,-731,147,657
,1088,2023-10-27 11:51:23.38,132,-222,-2040,-37,-21,-36,-424,-592,168,508
,1089,2023-10-27 11:51:23.39,143,-210,-2029,-35,-8,-38,-526,-736,210,631
,1090,2023-10-27 11:51:23.40,153,-212,-2032,-31,-3,-40,-370,-597,227,483
,1091,2023-10-27 11:51:23.41,153,-222,-2028,-26,0,-38,-467,-729,262,598
,1092,2023-10-27 11:51:23.42,157,-228,-2038,-17,1,-31,-315,-586,271,450
,1093,2023-10-27 11:51:23.43,140,-233,-2038,-11,10,-25,-424,-719,295,571
,1094,2023-10-27 11:51:23.44,150,-232,-2036,-2,7,-18,-297,-586,289,441
,1095,2023-10-27 11:51:23.45,147,-240,-2032,6,4,-7,-412,-718,306,565
,1096,2023-10-27 11:51:23.46,149,-244,-2040,22,3,8,-303,-579,276,441
,1097,2023-10-27 11:51:23.47,150,-249,-2039,31,1,18,-432,-709,277,570
,1098,2023-10-27 11:51:23.48,154,-253,-2051,41,-3,31,-337,-594,257,465
,1099,2023-10-27 11:51:23.49,131,-254,-2053,42,-4,45,-460,-734,274,597
,1100,2023-10-27 11:51:23.50,138,-263,-2056,45,-7,58,-355,-602,247,478
,1101,2023-10-27 11:51:23.51,141,-247,-2049,39,-6,67,-479,-733,254,606
,1102,2023-10-27 11:51:23.52,146,-240,-2049,30,4,76,-372,-606,234,489
,1103,2023-10-27 11:51:23.53,146,-232,-2035,21,18,75,-509,-740,231,624
,1104,2023-10-27 11:51:23.54,155,-226,-2027,12,30,73,-404,-628,224,516
,1105,2023-10-27 11:51:23.55,146,-219,-2033,6,34,64,-540,-773,233,656
,1106,2023-10-27 11:51:23.56,146,-216,-2044,3,33,57,-427,-637,210,532
,1107,2023-10-27 11:51:23.57,158,-217,-2033,8,25,47,-548,-752,204,650
,1108,2023-10-27 11:51:23.58,144,-214,-2056,22,-1,36,-440,-625,185,532
,1109,2023-10-27 11:51:23.59,164,-207,-2059,26,-12,30,-562,-749,187,655
,1110,2023-10-27 11:51:23.60,156,-200,-2057,13,-5,24,-460,-631,171,545
,1111,2023-10-27 11:51:23.61,171,-215,-2051,1,3,20,-574,-748,174,661
,1112,2023-10-27 11:51:23.62,170,-221,-2044,1,-3,18,-467,-627,160,547
,1113,2023-10-27 11:51:23.63,165,-232,-2045,13,-19,21,-561,-742,181,651
,1114,2023-10-27 11:51:23.64,178,-243,-2033,33,-33,26,-451,-628,177,539
,1115,2023-10-27 11:51:23.65,171,-242,-2036,55,-45,30,-542,-747,205,644
,1116,2023-10-27 11:51:23.66,162,-265,-2031,72,-50,42,-444,-638,194,541
,1117,2023-10-27 11:51:23.67,161,-263,-2033,88,-47,55,-543,-753,210,648
,1118,2023-10-27 11:51:23.68,159,-268,-2045,96,-46,67,-449,-650,201,549
,1119,2023-10-27 11:51:23.69,150,-273,-2050,96,-48,82,-553,-764,211,658
,1120,2023-10-27 11:51:23.70,148,-277,-2063,92,-50,96,-465,-651,186,558
,1121,2023-10-27 11:51:23.71,138,-268,-2055,82,-49,110,-548,-751,203,649
,1122,2023-10-27 11:51:23.72,145,-261,-2051,74,-45,123,-454,-649,195,551
,1123,2023-10-27 11:51:23.73,142,-260,-2045,58,-34,128,-538,-741,203,639
,1124,2023-10-27 11:51:23.74,142,-255,-2053,45,-21,131,-462,-650,188,556
,1125,2023-10-27 11:51:23.75,141,-245,-2051,34,-14,132,-541,-750,209,645
,1126,2023-10-27 11:51:23.76,143,-246,-2043,33,-11,129,-472,-654,182,563
,1127,2023-10-27 11:51:23.77,134,-241,-2038,30,-6,125,-544,-738,194,641
,1128,2023-10-27 11:51:23.78,136,-239,-2039,29,-8,121,-474,-643,169,558
,1129,2023-10-27 11:51:23.79,119,-233,-2036,25,-9,116,-542,-730,188,636
,1130,2023-10-27 11:51:23.80,154,-229,-2026,22,-5,109,-474,-646,172,560
,1131,2023-10-27 11:51:23.81,140,-224,-2029,17,-4,103,-532,-730,198,631
,1132,2023-10-27 11:51:23.82,139,-228,-2034,6,-1,97,-469,-655,186,562
,1133,2023-10-27 11:51:23.83,143,-235,-2038,3,2,94,-520,-736,216,628
,1134,2023-10-27 11:51:23.84,137,-239,-2037,-3,-1,91,-466,-661,195,563
,1135,2023-10-27 11:51:23.85,121,-244,-2029,-9,-1,93,-509,-728,219,618
,1136,2023-10-27 11:51:23.86,135,-241,-2016,-16,4,96,-463,-656,193,559
,1137,2023-10-27 11:51:23.87,141,-260,-2021,-17,3,107,-513,-723,210,618
,1138,2023-10-27 11:51:23.88,142,-259,-2033,-4,-5,114,-479,-677,198,578
,1139,2023-10-27 11:51:23.89,128,-256,-2038,1,-8,126,-527,-743,216,635
,1140,2023-10-27 11:51:23.90,139,-262,-2047,9,-14,137,-490,-674,184,582
,1141,2023-10-27 11:51:23.91,144,-255,-2055,12,-13,144,-523,-723,200,623
,1142,2023-10-27 11:51:23.92,148,-265,-2054,20,-11,152,-483,-669,186,576
,1143,2023-10-27 11:51:23.93,146,-269,-2058,28,-14,162,-511,-724,213,617
,1144,2023-10-27 11:51:23.94,132,-281,-2071,34,-16,169,-485,-673,188,579
,1145,2023-10-27 11:51:23.95,133,-284,-2060,45,-31,180,-496,-713,217,604
,1146,2023-10-27 11:51:23.96,125,-270,-2056,49,-39,192,-478,-677,199,577
,1147,2023-10-27 11:51:23.97,134,-268,-2035,52,-46,196,-482,-721,239,601
,1148,2023-10-27 11:51:23.98,129,-261,-2040,45,-40,198,-480,-687,207,583
,1149,2023-10-27 11:51:23.99,112,-256,-2037,39,-33,198,-498,-718,220,608
,1150,2023-10-27 11:51:24.00,107,-263,-2038,27,-22,198,-495,-689,194,592
,1151,2023-10-27 11:51:24.01,102,-255,-2028,26,-27,199,-482,-718,236,600
,1152,2023-10-27 11:51:24.02,105,-262,-2038,19,-25,198,-487,-690,203,588
,1153,2023-10-27 11:51:24.03,103,-262,-2031,15,-27,199,-485,-713,228,599
,1154,2023-10-27 11:51:24.04,113,-260,-2021,10,-24,199,-488,-678,190,583
,1155,2023-10-27 11:51:24.05,123,-253,-2020,3,-20,197,-447,-691,244,569
,1156,2023-10-27 11:51:24.06,109,-257,-2016,1,-15,196,-437,-681,244,559
,1157,2023-10-27 11:51:24.07,114,-250,-2024,-3,-11,197,-416,-695,279,555
,1158,2023-10-27 11:51:24.08,101,-252,-2030,-6,-2,194,-446,-703,257,574
,1159,2023-10-27 11:51:24.09,99,-252,-2036,-5,-7,195,-424,-710,286,567
,1160,2023-10-27 11:51:24.10,116,-251,-2038,2,-17,192,-454,-689,235,571
,1161,2023-10-27 11:51:24.11,99,-253,-2035,10,-21,193,-422,-674,252,548
,1162,2023-10-27 11:51:24.12,95,-250,-2043,13,-20,190,-470,-671,201,570
,1163,2023-10-27 11:51:24.13,115,-250,-2047,13,-13,189,-437,-665,228,551
,1164,2023-10-27 11:51:24.14,106,-258,-2048,18,-20,187,-476,-683,207,579
,1165,2023-10-27 11:51:24.15,112,-245,-2054,21,-12,186,-432,-681,249,556
,1166,2023-10-27 11:51:24.16,108,-256,-2038,22,-5,182,-483,-697,214,590
,1167,2023-10-27 11:51:24.17,98,-257,-2037,27,-5,178,-446,-685,239,565
,1168,2023-10-27 11:51:24.18,112,-250,-2041,34,-3,175,-497,-701,204,599
,1169,2023-10-27 11:51:24.19,124,-245,-2028,37,0,169,-450,-680,230,565
,1170,2023-10-27 11:51:24.20,111,-252,-2033,31,3,163,-504,-697,193,600
,1171,2023-10-27 11:51:24.21,100,-250,-2048,26,10,156,-451,-675,224,563
,1172,2023-10-27 11:51:24.22,95,-255,-2044,22,10,150,-509,-700,191,604
,1173,2023-10-27 11:51:24.23,126,-247,-2051,20,3,142,-451,-667,216,559
,1174,2023-10-27 11:51:24.24,105,-246,-2053,14,2,136,-515,-701,186,608
,1175,2023-10-27 11:51:24.25,108,-248,-2050,7,-13,131,-441,-668,227,554
,1176,2023-10-27 11:51:24.26,101,-244,-2050,4,-20,125,-511,-716,205,613
,1177,2023-10-27 11:51:24.27,110,-245,-2038,-2,-24,126,-440,-681,241,560
,1178,2023-10-27 11:51:24.28,99,-252,-2045,0,-35,122,-519,-729,210,624
,1179,2023-10-27 11:51:24.29,85,-266,-2056,-1,-41,123,-439,-682,243,560
,1180,2023-10-27 11:51:24.30,79,-283,-2060,8,-68,127,-524,-729,205,626
,1181,2023-10-27 11:51:24.31,65,-288,-2055,25,-95,132,-437,-674,237,555
,1182,2023-10-27 11:51:24.32,70,-287,-2063,37,-105,140,-529,-725,196,627
,1183,2023-10-27 11:51:24.33,72,-301,-2043,43,-105,142,-452,-663,211,557
,1184,2023-10-27 11:51:24.34,52,-291,-2035,46,-97,146,-544,-725,181,634
,1185,2023-10-27 11:51:24.35,51,-283,-2026,52,-85,147,-445,-663,218,554
,1186,2023-10-27 11:51:24.36,47,-276,-2024,52,-71,143,-536,-726,190,631
,1187,2023-10-27 11:51:24.37,48,-260,-2020,41,-54,137,-430,-650,220,540
,1188,2023-10-27 11:51:24.38,50,-250,-2026,24,-32,131,-528,-713,185,620
,1189,2023-10-27 11:51:24.39,62,-261,-2025,12,-18,123,-420,-645,225,532
,1190,2023-10-27 11:51:24.40,52,-267,-2030,-3,-7,119,-518,-714,196,616
,1191,2023-10-27 11:51:24.41,55,-267,-2028,-10,6,117,-402,-647,245,524
,1192,2023-10-27 11:51:24.42,64,-270,-2010,-13,12,110,-518,-737,219,627
,1193,2023-10-27 11:51:24.43,73,-258,-2002,-14,17,105,-425,-666,241,545
,1194,2023-10-27 11:51:24.44,76,-262,-2018,-20,28,100,-536,-740,204,638
,1195,2023-10-27 11:51:24.45,64,-258,-2032,-23,33,92,-414,-656,242,535
,1196,2023-10-27 11:51:24.46,69,-255,-2051,-25,33,84,-516,-738,222,627
,1197,2023-10-27 11:51:24.47,70,-250,-2054,-29,30,80,-392,-652,260,522
,1198,2023-10-27 11:51:24.48,69,-251,-2068,-33,24,73,-514,-754,240,634
,1199,2023-10-27 11:51:24.49,67,-243,-2074,-37,17,65,-397,-663,266,530
,1200,2023-10-27 11:51:24.50,77,-248,-2061,-38,5,59,-524,-763,239,643
,1201,2023-10-27 11:51:24.51,78,-242,-2048,-34,-1,57,-400,-662,262,531
,1202,2023-10-27 11:51:24.52,76,-247,-2037,-25,-5,54,-536,-762,226,649
,1203,2023-10-27 11:51:24.53,81,-242,-2031,-20,-7,51,-418,-657,239,537
,1204,2023-10-27 11:51:24.54,80,-234,-2024,-14,2,48,-546,-751,205,648
,1205,2023-10-27 11:51:24.55,72,-228,-2019,-12,5,47,-413,-643,230,528
,1206,2023-10-27 11:51:24.56,82,-235,-2040,-10,11,42,-546,-742,196,644
,1207,2023-10-27 11:51:24.57,75,-223,-2052,-5,-6,43,-420,-636,216,528
,1208,2023-10-27 11:51:24.58,78,-226,-2063,2,-11,42,-554,-741,187,647
,1209,2023-10-27 11:51:24.59,69,-231,-2063,2,-14,42,-420,-632,212,526
,1210,2023-10-27 11:51:24.60,66,-243,-2065,2,-19,39,-555,-757,202,656
,1211,2023-10-27 11:51:24.61,58,-240,-2050,4,-17,38,-412,-641,229,526
,1212,2023-10-27 11:51:24.62,66,-255,-2029,15,-19,34,-553,-754,201,653
,1213,2023-10-27 11:51:24.63,64,-249,-2032,26,-13,31,-415,-633,218,524
,1214,2023-10-27 11:51:24.64,66,-248,-2027,33,-9,27,-558,-757,199,657
,1215,2023-10-27 11:51:24.65,79,-252,-2015,33,4,19,-418,-640,222,529
,1216,2023-10-27 11:51:24.66,80,-259,-2028,50,1,2,-557,-757,200,657
,1217,2023-10-27 11:51:24.67,84,-269,-2046,53,-2,-6,-410,-638,228,524
,1218,2023-10-27 11:51:24.68,75,-275,-2042,51,-6,-11,-554,-757,203,655
,1219,2023-10-27 11:51:24.69,88,-285,-2047,49,-14,-16,-420,-631,211,525
,1220,2023-10-27 11:51:24.70,75,-296,-2047,46,-20,-18,-562,-756,194,659
,1221,2023-10-27 11:51:24.71,88,-296,-2044,46,-32,-16,-420,-624,204,522
,1222,2023-10-27 11:51:24.72,72,-293,-2037,41,-33,-14,-557,-743,186,650
,1223,2023-10-27 11:51:24.73,59,-282,-2055,35,-33,-11,-405,-616,211,510
,1224,2023-10-27 11:51:24.74,68,-277,-2055,31,-39,-6,-546,-758,212,652
,1225,2023-10-27 11:51:24.75,82,-266,-2048,31,-42,-5,-393,-637,244,515
,1226,2023-10-27 11:51:24.76,66,-276,-2049,31,-45,-2,-544,-769,225,656
,1227,2023-10-27 11:51:24.77,76,-279,-2054,34,-48,-3,-403,-634,231,518
,1228,2023-10-27 11:51:24.78,73,-269,-2039,40,-44,-1,-553,-765,212,659
,1229,2023-10-27 11:51:24.79,68,-268,-2045,44,-47,-2,-408,-626,218,517
,1230,2023-10-27 11:51:24.80,58,-269,-2045,43,-50,-1,-563,-757,194,660
,1231,2023-10-27 11:51:24.81,56,-255,-2042,42,-49,-6,-417,-628,211,522
,1232,2023-10-27 11:51:24.82,58,-261,-2040,37,-50,-9,-578,-783,205,680
