// Data mode  : Full
// Data quality  : High
// Acceleration sensor's range  : 16g
// Gyroscope sensor's range  : 2000dps
//
//ARTIFACT,NUM,DATE,ACC_X,ACC_Y,ACC_Z,GYRO_X,GYRO_Y,GYRO_Z,EOG_L,EOG_R,EOG_H,EOG_V
,1,2023-10-27 11:58:38.22,121,-264,-2042,25,-127,110,-282,-626,344,454
,2,2023-10-27 11:58:38.23,113,-239,-1992,60,-128,123,-374,-766,392,570
,3,2023-10-27 11:58:38.24,119,-221,-1994,73,-111,125,-258,-621,363,439
,4,2023-10-27 11:58:38.25,112,-223,-1995,81,-91,127,-351,-764,413,557
,5,2023-10-27 11:58:38.26,102,-236,-2020,94,-82,127,-250,-615,365,432
,6,2023-10-27 11:58:38.27,86,-254,-2042,107,-69,135,-356,-758,402,557
,7,2023-10-27 11:58:38.28,79,-267,-2064,116,-71,145,-254,-611,357,432
,8,2023-10-27 11:58:38.29,80,-274,-2060,123,-78,159,-356,-761,405,558
,9,2023-10-27 11:58:38.30,71,-260,-2054,120,-76,172,-260,-617,357,438
,10,2023-10-27 11:58:38.31,69,-264,-2037,116,-83,181,-367,-765,398,566
,11,2023-10-27 11:58:38.32,73,-265,-2015,117,-75,186,-258,-610,352,434
,12,2023-10-27 11:58:38.33,85,-249,-2003,114,-57,189,-371,-768,397,569
,13,2023-10-27 11:58:38.34,99,-245,-1984,104,-25,180,-272,-622,350,447
,14,2023-10-27 11:58:38.35,107,-232,-2009,91,3,164,-380,-776,396,578
,15,2023-10-27 11:58:38.36,104,-250,-2024,86,15,151,-278,-626,348,452
,16,2023-10-27 11:58:38.37,101,-265,-2053,91,7,137,-390,-776,386,583
,17,2023-10-27 11:58:38.38,90,-276,-2063,93,-7,127,-288,-631,343,459
,18,2023-10-27 11:58:38.39,99,-264,-2070,87,-16,121,-383,-774,391,578
,19,2023-10-27 11:58:38.40,85,-251,-2078,76,-23,110,-283,-634,351,458
,20,2023-10-27 11:58:38.41,79,-262,-2092,57,-29,110,-396,-783,387,589
,21,2023-10-27 11:58:38.42,60,-268,-2104,41,-48,104,-295,-640,345,467
,22,2023-10-27 11:58:38.43,60,-287,-2105,30,-72,107,-385,-778,393,581
,23,2023-10-27 11:58:38.44,43,-288,-2080,20,-84,114,-282,-634,352,458
,24,2023-10-27 11:58:38.45,40,-302,-2052,11,-91,123,-378,-771,393,574
,25,2023-10-27 11:58:38.46,43,-300,-2032,10,-92,126,-284,-632,348,458
,26,2023-10-27 11:58:38.47,39,-298,-2012,9,-81,137,-386,-772,386,579
,27,2023-10-27 11:58:38.48,26,-289,-2005,9,-76,143,-301,-642,341,471
,28,2023-10-27 11:58:38.49,29,-288,-1998,13,-74,156,-403,-783,380,593
,29,2023-10-27 11:58:38.50,14,-285,-2010,16,-78,166,-312,-649,337,480
,30,2023-10-27 11:58:38.51,-4,-280,-2034,15,-79,181,-399,-782,383,590
,31,2023-10-27 11:58:38.52,3,-277,-2034,8,-87,192,-314,-650,336,482
,32,2023-10-27 11:58:38.53,-13,-269,-2048,-5,-93,206,-406,-787,381,596
,33,2023-10-27 11:58:38.54,1,-264,-2045,-22,-90,220,-320,-655,335,487
,34,2023-10-27 11:58:38.55,-18,-251,-2042,-32,-98,227,-400,-788,388,594
,35,2023-10-27 11:58:38.56,-11,-246,-2032,-37,-108,229,-310,-652,342,481
,36,2023-10-27 11:58:38.57,-19,-236,-2029,-34,-102,226,-392,-782,390,587
,37,2023-10-27 11:58:38.58,2,-222,-2026,-31,-92,219,-313,-655,342,484
,38,2023-10-27 11:58:38.59,9,-206,-2025,-30,-66,202,-404,-784,380,594
,39,2023-10-27 11:58:38.60,18,-204,-2021,-27,-37,178,-326,-663,337,494
,40,2023-10-27 11:58:38.61,1,-208,-2016,-23,-6,155,-403,-784,381,593
,41,2023-10-27 11:58:38.62,6,-228,-2044,-6,13,132,-324,-662,338,493
,42,2023-10-27 11:58:38.63,3,-242,-2036,18,20,112,-397,-780,383,588
,43,2023-10-27 11:58:38.64,22,-248,-2022,38,31,91,-324,-664,340,494
,44,2023-10-27 11:58:38.65,15,-260,-2019,58,38,75,-388,-776,388,582
,45,2023-10-27 11:58:38.66,18,-262,-2026,76,44,60,-315,-660,345,487
,46,2023-10-27 11:58:38.67,27,-274,-2031,85,44,47,-378,-769,391,573
,47,2023-10-27 11:58:38.68,34,-282,-2025,93,45,38,-319,-665,346,492
,48,2023-10-27 11:58:38.69,33,-273,-2017,92,33,30,-387,-776,389,581
,49,2023-10-27 11:58:38.70,43,-281,-2033,80,32,25,-326,-672,346,499
,50,2023-10-27 11:58:38.71,50,-289,-2050,64,31,26,-383,-773,390,578
,51,2023-10-27 11:58:38.72,28,-298,-2044,46,22,30,-322,-669,347,495
,52,2023-10-27 11:58:38.73,50,-303,-2053,36,4,33,-367,-762,395,564
,53,2023-10-27 11:58:38.74,37,-308,-2049,23,-9,41,-312,-665,353,488
,54,2023-10-27 11:58:38.75,33,-306,-2060,15,-16,48,-365,-761,396,563
,55,2023-10-27 11:58:38.76,31,-307,-2059,5,-22,53,-315,-672,357,493
,56,2023-10-27 11:58:38.77,30,-310,-2056,0,-30,62,-366,-762,396,564
,57,2023-10-27 11:58:38.78,25,-305,-2050,3,-40,62,-320,-678,358,499
,58,2023-10-27 11:58:38.79,34,-290,-2048,1,-49,66,-378,-770,392,574
,59,2023-10-27 11:58:38.80,32,-270,-2051,1,-41,66,-327,-683,356,505
,60,2023-10-27 11:58:38.81,35,-256,-2041,-13,-22,58,-370,-763,393,566
,61,2023-10-27 11:58:38.82,41,-254,-2032,-23,-5,51,-320,-683,363,501
,62,2023-10-27 11:58:38.83,24,-258,-2032,-18,-12,42,-356,-755,399,555
,63,2023-10-27 11:58:38.84,28,-240,-2020,2,-38,36,-319,-682,363,500
,64,2023-10-27 11:58:38.85,28,-243,-2022,16,-44,24,-353,-751,398,552
,65,2023-10-27 11:58:38.86,27,-245,-2032,17,-35,15,-325,-688,363,506
,66,2023-10-27 11:58:38.87,34,-251,-2035,12,-18,3,-362,-755,393,558
,67,2023-10-27 11:58:38.88,23,-268,-2033,19,-8,-6,-343,-700,357,521
,68,2023-10-27 11:58:38.89,19,-289,-2032,35,-15,-12,-366,-756,390,561
,69,2023-10-27 11:58:38.90,25,-292,-2040,54,-32,-12,-341,-699,358,520
,70,2023-10-27 11:58:38.91,23,-295,-2045,63,-23,-11,-358,-752,394,555
,71,2023-10-27 11:58:38.92,12,-298,-2041,63,-15,-9,-342,-702,360,522
,72,2023-10-27 11:58:38.93,9,-308,-2036,60,-14,-9,-354,-747,393,550
,73,2023-10-27 11:58:38.94,20,-292,-2037,59,-6,-1,-331,-699,368,515
,74,2023-10-27 11:58:38.95,16,-296,-2045,49,3,0,-332,-737,405,534
,75,2023-10-27 11:58:38.96,17,-298,-2050,37,8,4,-322,-694,372,508
,76,2023-10-27 11:58:38.97,17,-305,-2054,32,3,8,-329,-730,401,529
,77,2023-10-27 11:58:38.98,0,-306,-2043,32,-6,13,-334,-700,366,517
,78,2023-10-27 11:58:38.99,8,-287,-2045,33,-13,15,-348,-740,392,544
,79,2023-10-27 11:58:39.00,11,-291,-2033,29,-9,15,-354,-715,361,534
,80,2023-10-27 11:58:39.01,6,-296,-2034,26,-5,17,-356,-741,385,548
,81,2023-10-27 11:58:39.02,9,-281,-2037,28,-5,16,-348,-713,365,530
,82,2023-10-27 11:58:39.03,-8,-276,-2025,20,10,13,-334,-728,394,531
,83,2023-10-27 11:58:39.04,-12,-272,-2025,17,5,11,-341,-710,369,525
,84,2023-10-27 11:58:39.05,19,-266,-2022,15,-1,11,-343,-728,385,535
,85,2023-10-27 11:58:39.06,2,-258,-2013,12,1,11,-364,-724,360,544
,86,2023-10-27 11:58:39.07,12,-245,-2015,0,3,5,-345,-727,382,536
,87,2023-10-27 11:58:39.08,15,-236,-2019,-6,10,3,-353,-721,368,537
,88,2023-10-27 11:58:39.09,-4,-240,-2052,-13,6,-1,-331,-717,386,524
,89,2023-10-27 11:58:39.10,-14,-264,-2082,-17,-8,-3,-358,-723,365,540
,90,2023-10-27 11:58:39.11,-14,-273,-2102,-12,-28,5,-338,-718,380,528
,91,2023-10-27 11:58:39.12,-25,-277,-2091,-5,-44,16,-368,-730,362,549
,92,2023-10-27 11:58:39.13,-34,-259,-2085,-8,-41,24,-345,-721,376,533
,93,2023-10-27 11:58:39.14,-33,-270,-2068,-9,-33,32,-368,-732,364,550
,94,2023-10-27 11:58:39.15,-34,-272,-2057,3,-36,40,-332,-718,386,525
,95,2023-10-27 11:58:39.16,-35,-258,-2041,22,-35,47,-368,-735,367,551
,96,2023-10-27 11:58:39.17,-26,-264,-2015,35,-23,46,-330,-713,383,521
,97,2023-10-27 11:58:39.18,-14,-269,-1993,46,2,45,-370,-737,367,553
,98,2023-10-27 11:58:39.19,-20,-271,-1986,59,27,39,-328,-708,380,518
,99,2023-10-27 11:58:39.20,-12,-280,-1968,76,55,36,-372,-741,369,556
,100,2023-10-27 11:58:39.21,-2,-282,-1961,91,75,24,-322,-705,383,513
,101,2023-10-27 11:58:39.22,17,-285,-1962,104,99,14,-370,-740,370,555
,102,2023-10-27 11:58:39.23,33,-271,-1975,101,146,2,-318,-699,381,508
,103,2023-10-27 11:58:39.24,37,-276,-1997,81,190,-18,-372,-743,371,557
,104,2023-10-27 11:58:39.25,59,-280,-2022,61,202,-34,-328,-702,374,515
,105,2023-10-27 11:58:39.26,76,-286,-2035,56,194,-44,-378,-750,372,564
,106,2023-10-27 11:58:39.27,81,-298,-2059,59,164,-52,-323,-701,378,512
,107,2023-10-27 11:58:39.28,75,-313,-2074,61,129,-50,-377,-753,376,565
,108,2023-10-27 11:58:39.29,84,-325,-2092,65,84,-50,-322,-697,375,509
,109,2023-10-27 11:58:39.30,75,-338,-2092,67,55,-41,-371,-752,381,561
,110,2023-10-27 11:58:39.31,96,-337,-2078,65,38,-29,-306,-687,381,496
,111,2023-10-27 11:58:39.32,86,-353,-2066,62,29,-15,-360,-746,386,553
,112,2023-10-27 11:58:39.33,88,-363,-2060,70,0,-6,-295,-679,384,487
,113,2023-10-27 11:58:39.34,86,-358,-2051,82,-21,13,-355,-746,391,550
,114,2023-10-27 11:58:39.35,59,-347,-2027,87,-37,38,-288,-672,384,480
,115,2023-10-27 11:58:39.36,56,-347,-2025,80,-34,52,-357,-745,388,551
,116,2023-10-27 11:58:39.37,53,-332,-2022,72,-34,62,-288,-666,378,477
,117,2023-10-27 11:58:39.38,41,-325,-2011,63,-31,71,-357,-744,387,550
,118,2023-10-27 11:58:39.39,35,-313,-2015,50,-28,75,-288,-662,374,475
,119,2023-10-27 11:58:39.40,43,-312,-2014,42,-19,76,-375,-753,378,564
,120,2023-10-27 11:58:39.41,41,-308,-2016,39,-21,73,-299,-666,367,482
,121,2023-10-27 11:58:39.42,39,-309,-2017,35,-20,66,-380,-756,376,568
,122,2023-10-27 11:58:39.43,40,-301,-2021,35,-11,59,-301,-663,362,482
,123,2023-10-27 11:58:39.44,33,-303,-2031,29,-3,50,-389,-760,371,574
,124,2023-10-27 11:58:39.45,32,-316,-2048,27,-6,42,-307,-665,358,486
,125,2023-10-27 11:58:39.46,30,-319,-2056,26,-11,37,-399,-766,367,582
,126,2023-10-27 11:58:39.47,11,-331,-2066,25,-17,33,-313,-670,357,491
,127,2023-10-27 11:58:39.48,27,-329,-2055,20,-21,31,-405,-772,367,588
,128,2023-10-27 11:58:39.49,31,-329,-2049,14,-16,28,-316,-671,355,493
,129,2023-10-27 11:58:39.50,27,-327,-2040,7,-10,25,-411,-776,365,593
,130,2023-10-27 11:58:39.51,36,-334,-2031,-1,-2,20,-320,-671,351,495
,131,2023-10-27 11:58:39.52,28,-336,-2039,-5,9,19,-410,-777,367,593
,132,2023-10-27 11:58:39.53,28,-337,-2030,-7,12,22,-314,-666,352,490
,133,2023-10-27 11:58:39.54,23,-335,-2032,-7,14,26,-404,-776,372,590
,134,2023-10-27 11:58:39.55,26,-333,-2033,-10,11,32,-306,-658,352,482
,135,2023-10-27 11:58:39.56,21,-322,-2037,-10,11,40,-402,-777,375,589
,136,2023-10-27 11:58:39.57,19,-332,-2033,-11,4,48,-313,-663,350,488
,137,2023-10-27 11:58:39.58,17,-317,-2033,-9,-10,53,-423,-790,367,606
,138,2023-10-27 11:58:39.59,24,-312,-2027,-7,-18,63,-332,-673,341,502
,139,2023-10-27 11:58:39.60,20,-302,-2026,-7,-26,62,-427,-795,368,611
,140,2023-10-27 11:58:39.61,14,-312,-2019,-7,-29,68,-316,-663,347,489
,141,2023-10-27 11:58:39.62,18,-312,-2020,-5,-30,69,-411,-786,375,598
,142,2023-10-27 11:58:39.63,22,-314,-2015,-6,-26,66,-307,-658,351,482
,143,2023-10-27 11:58:39.64,14,-310,-2017,-7,-12,68,-413,-789,376,601
,144,2023-10-27 11:58:39.65,11,-305,-2029,-11,1,66,-310,-658,348,484
,145,2023-10-27 11:58:39.66,14,-318,-2039,-12,7,57,-416,-791,375,603
,146,2023-10-27 11:58:39.67,27,-315,-2047,-9,15,53,-308,-656,348,482
,147,2023-10-27 11:58:39.68,25,-309,-2045,-5,12,45,-418,-793,375,605
,148,2023-10-27 11:58:39.69,20,-313,-2042,1,16,41,-307,-656,349,481
,149,2023-10-27 11:58:39.70,23,-311,-2043,5,16,32,-417,-793,376,605
,150,2023-10-27 11:58:39.71,28,-310,-2037,6,18,22,-312,-658,346,485
,151,2023-10-27 11:58:39.72,12,-307,-2032,8,22,19,-424,-797,373,610
,152,2023-10-27 11:58:39.73,39,-302,-2038,5,25,12,-311,-655,344,483
,153,2023-10-27 11:58:39.74,25,-309,-2041,3,30,11,-416,-794,378,605
,154,2023-10-27 11:58:39.75,34,-325,-2036,2,30,6,-305,-653,348,479
,155,2023-10-27 11:58:39.76,30,-319,-2036,-1,31,4,-407,-791,384,599
,156,2023-10-27 11:58:39.77,23,-318,-2037,-3,30,4,-290,-647,357,468
,157,2023-10-27 11:58:39.78,36,-315,-2032,-9,34,2,-397,-786,389,591
,158,2023-10-27 11:58:39.79,43,-308,-2030,-11,36,-2,-292,-646,354,469
,159,2023-10-27 11:58:39.80,46,-298,-2027,-17,40,-6,-396,-787,391,591
,160,2023-10-27 11:58:39.81,52,-287,-2026,-18,43,-11,-289,-643,354,466
,161,2023-10-27 11:58:39.82,48,-294,-2032,-21,41,-15,-394,-784,390,589
,162,2023-10-27 11:58:39.83,51,-298,-2041,-17,33,-21,-292,-643,351,467
,163,2023-10-27 11:58:39.84,53,-308,-2045,-7,23,-22,-403,-790,387,596
,164,2023-10-27 11:58:39.85,53,-313,-2058,6,11,-19,-301,-648,347,474
,165,2023-10-27 11:58:39.86,62,-327,-2054,16,-6,-17,-400,-792,392,596
,166,2023-10-27 11:58:39.87,48,-328,-2047,29,-20,-10,-290,-646,356,468
,167,2023-10-27 11:58:39.88,53,-322,-2034,40,-29,-2,-394,-790,396,592
,168,2023-10-27 11:58:39.89,47,-308,-2025,47,-40,4,-290,-644,354,467
,169,2023-10-27 11:58:39.90,38,-303,-2033,44,-40,8,-389,-788,399,588
,170,2023-10-27 11:58:39.91,31,-309,-2047,40,-43,7,-284,-639,355,461
,171,2023-10-27 11:58:39.92,31,-331,-2050,35,-47,15,-383,-783,400,583
,172,2023-10-27 11:58:39.93,30,-324,-2040,33,-54,23,-284,-637,353,460
,173,2023-10-27 11:58:39.94,17,-334,-2040,27,-61,28,-384,-785,401,584
,174,2023-10-27 11:58:39.95,14,-329,-2042,20,-57,37,-284,-639,355,461
,175,2023-10-27 11:58:39.96,18,-328,-2038,17,-52,47,-384,-781,397,582
,176,2023-10-27 11:58:39.97,17,-322,-2020,13,-45,51,-288,-641,353,464
,177,2023-10-27 11:58:39.98,17,-307,-2012,5,-29,53,-386,-786,400,586
,178,2023-10-27 11:58:39.99,16,-302,-2026,-1,-16,49,-284,-639,355,461
,179,2023-10-27 11:58:40.00,7,-304,-2029,-6,4,47,-387,-782,395,584
,180,2023-10-27 11:58:40.01,10,-306,-2020,-4,10,42,-291,-640,349,465
,181,2023-10-27 11:58:40.02,10,-305,-2024,-3,15,33,-392,-785,393,588
,182,2023-10-27 11:58:40.03,24,-301,-2023,-6,22,28,-295,-640,345,467
,183,2023-10-27 11:58:40.04,18,-314,-2025,-3,27,24,-391,-780,389,585
,184,2023-10-27 11:58:40.05,14,-308,-2028,3,25,19,-295,-638,343,466
,185,2023-10-27 11:58:40.06,28,-319,-2025,6,24,19,-392,-780,388,586
,186,2023-10-27 11:58:40.07,23,-318,-2036,7,20,17,-294,-642,348,468
,187,2023-10-27 11:58:40.08,23,-329,-2040,10,16,20,-391,-782,391,586
,188,2023-10-27 11:58:40.09,27,-328,-2047,16,6,21,-302,-651,349,476
,189,2023-10-27 11:58:40.10,23,-330,-2037,21,-1,23,-392,-786,394,589
,190,2023-10-27 11:58:40.11,19,-322,-2036,18,-1,25,-299,-652,353,475
,191,2023-10-27 11:58:40.12,18,-321,-2043,17,4,25,-384,-779,395,581
,192,2023-10-27 11:58:40.13,17,-313,-2045,13,4,21,-298,-651,353,474
,193,2023-10-27 11:58:40.14,17,-309,-2047,10,8,16,-380,-780,400,580
,194,2023-10-27 11:58:40.15,25,-308,-2040,10,9,14,-295,-652,357,473
,195,2023-10-27 11:58:40.16,34,-312,-2044,9,12,8,-372,-776,404,574
,196,2023-10-27 11:58:40.17,29,-317,-2037,12,5,8,-296,-652,356,474
,197,2023-10-27 11:58:40.18,31,-317,-2025,16,3,6,-373,-775,402,574
,198,2023-10-27 11:58:40.19,34,-313,-2034,19,0,5,-300,-655,355,477
,199,2023-10-27 11:58:40.20,16,-314,-2027,15,1,8,-374,-776,402,575
,200,2023-10-27 11:58:40.21,23,-311,-2029,9,1,11,-300,-658,358,479
,201,2023-10-27 11:58:40.22,21,-315,-2026,2,4,7,-374,-776,402,575
,202,2023-10-27 11:58:40.23,22,-307,-2030,-3,6,11,-306,-662,356,484
,203,2023-10-27 11:58:40.24,23,-309,-2029,-11,11,11,-376,-778,402,577
,204,2023-10-27 11:58:40.25,33,-306,-2023,-14,11,8,-307,-663,356,485
,205,2023-10-27 11:58:40.26,33,-298,-2020,-15,8,9,-376,-775,399,575
,206,2023-10-27 11:58:40.27,19,-300,-2028,-16,18,10,-313,-668,355,490
,207,2023-10-27 11:58:40.28,30,-303,-2037,-11,16,11,-378,-775,397,576
,208,2023-10-27 11:58:40.29,19,-309,-2043,-4,14,7,-315,-672,357,493
,209,2023-10-27 11:58:40.30,27,-315,-2044,3,9,9,-373,-773,400,573
,210,2023-10-27 11:58:40.31,19,-312,-2046,8,5,12,-307,-671,364,489
,211,2023-10-27 11:58:40.32,27,-320,-2042,14,2,15,-362,-763,401,562
,212,2023-10-27 11:58:40.33,31,-314,-2034,19,5,18,-307,-665,358,486
,213,2023-10-27 11:58:40.34,15,-324,-2031,24,15,19,-359,-756,397,557
,214,2023-10-27 11:58:40.35,28,-318,-2028,29,24,17,-303,-664,361,483
,215,2023-10-27 11:58:40.36,25,-320,-2027,28,35,18,-357,-755,398,556
,216,2023-10-27 11:58:40.37,33,-325,-2028,29,50,20,-314,-668,354,491
,217,2023-10-27 11:58:40.38,39,-312,-2030,26,58,19,-369,-756,387,562
,218,2023-10-27 11:58:40.39,34,-306,-2030,19,67,14,-326,-676,350,501
,219,2023-10-27 11:58:40.40,32,-316,-2035,15,72,11,-368,-754,386,561
,220,2023-10-27 11:58:40.41,32,-337,-2021,12,74,18,-336,-682,346,509
,221,2023-10-27 11:58:40.42,44,-325,-2026,10,72,18,-378,-757,379,567
,222,2023-10-27 11:58:40.43,44,-316,-2028,1,71,23,-349,-696,347,522
,223,2023-10-27 11:58:40.44,51,-307,-2023,-6,64,24,-378,-759,381,568
,224,2023-10-27 11:58:40.45,56,-314,-2045,-11,47,30,-337,-691,354,514
,225,2023-10-27 11:58:40.46,33,-327,-2060,-12,25,35,-355,-745,390,550
,226,2023-10-27 11:58:40.47,40,-333,-2082,-8,-2,44,-328,-686,358,507
,227,2023-10-27 11:58:40.48,24,-325,-2063,3,-25,53,-351,-740,389,545
,228,2023-10-27 11:58:40.49,28,-319,-2044,9,-36,57,-340,-692,352,516
,229,2023-10-27 11:58:40.50,29,-302,-2027,12,-32,57,-360,-743,383,551
,230,2023-10-27 11:58:40.51,35,-302,-2017,14,-26,52,-344,-696,352,520
,231,2023-10-27 11:58:40.52,20,-305,-2006,18,-8,43,-357,-738,381,547
,232,2023-10-27 11:58:40.53,19,-302,-2001,18,10,37,-347,-695,348,521
,233,2023-10-27 11:58:40.54,31,-293,-2007,17,32,26,-361,-736,375,548
,234,2023-10-27 11:58:40.55,28,-295,-2012,11,63,12,-365,-704,339,534
,235,2023-10-27 11:58:40.56,24,-297,-2010,6,81,-1,-376,-746,370,561
,236,2023-10-27 11:58:40.57,41,-315,-2021,1,96,-12,-380,-717,337,548
,237,2023-10-27 11:58:40.58,48,-315,-2025,6,90,-20,-380,-747,367,563
,238,2023-10-27 11:58:40.59,44,-309,-2027,14,81,-27,-384,-723,339,553
,239,2023-10-27 11:58:40.60,55,-303,-2031,25,66,-35,-378,-748,370,563
,240,2023-10-27 11:58:40.61,66,-307,-2041,33,52,-42,-375,-724,349,549
,241,2023-10-27 11:58:40.62,72,-310,-2046,36,49,-47,-364,-740,376,552
,242,2023-10-27 11:58:40.63,72,-317,-2058,31,46,-57,-371,-725,354,548
,243,2023-10-27 11:58:40.64,71,-325,-2063,33,33,-59,-358,-737,379,547
,244,2023-10-27 11:58:40.65,74,-331,-2062,29,28,-56,-368,-724,356,546
,245,2023-10-27 11:58:40.66,60,-335,-2059,26,15,-58,-354,-729,375,541
,246,2023-10-27 11:58:40.67,70,-345,-2049,26,10,-52,-366,-723,357,544
,247,2023-10-27 11:58:40.68,63,-340,-2041,22,3,-44,-340,-722,382,531
,248,2023-10-27 11:58:40.69,63,-325,-2033,18,0,-34,-359,-723,364,541
,249,2023-10-27 11:58:40.70,60,-328,-2028,8,0,-27,-336,-715,379,525
,250,2023-10-27 11:58:40.71,61,-317,-2025,2,3,-17,-360,-723,363,541
,251,2023-10-27 11:58:40.72,61,-311,-2032,-5,2,-10,-334,-713,379,523
,252,2023-10-27 11:58:40.73,53,-311,-2052,-13,4,0,-365,-730,365,547
,253,2023-10-27 11:58:40.74,46,-320,-2042,-16,-10,11,-338,-714,376,526
,254,2023-10-27 11:58:40.75,44,-314,-2042,-14,-18,24,-372,-737,365,554
,255,2023-10-27 11:58:40.76,57,-310,-2034,-7,-28,33,-339,-710,371,524
,256,2023-10-27 11:58:40.77,38,-306,-2023,-3,-29,40,-374,-734,360,554
,257,2023-10-27 11:58:40.78,44,-307,-2020,4,-30,46,-330,-696,366,513
,258,2023-10-27 11:58:40.79,50,-303,-2028,12,-31,49,-377,-733,356,555
,259,2023-10-27 11:58:40.80,44,-313,-2031,20,-26,55,-340,-696,356,518
,260,2023-10-27 11:58:40.81,37,-315,-2037,30,-27,58,-383,-736,353,559
,261,2023-10-27 11:58:40.82,38,-313,-2037,39,-25,59,-331,-691,360,511
,262,2023-10-27 11:58:40.83,39,-313,-2031,45,-13,59,-381,-736,355,558
,263,2023-10-27 11:58:40.84,43,-315,-2028,46,-2,58,-334,-692,358,513
,264,2023-10-27 11:58:40.85,43,-316,-2039,46,10,53,-390,-742,352,566
,265,2023-10-27 11:58:40.86,53,-315,-2028,49,17,53,-337,-690,353,513
,266,2023-10-27 11:58:40.87,51,-327,-2020,51,23,47,-396,-744,348,570
,267,2023-10-27 11:58:40.88,42,-321,-2016,51,29,37,-332,-683,351,507
,268,2023-10-27 11:58:40.89,52,-322,-2021,47,35,31,-400,-748,348,574
,269,2023-10-27 11:58:40.90,47,-330,-2032,38,44,28,-330,-681,351,505
,270,2023-10-27 11:58:40.91,59,-344,-2034,30,47,25,-399,-747,348,573
,271,2023-10-27 11:58:40.92,54,-346,-2038,21,48,23,-329,-676,347,502
,272,2023-10-27 11:58:40.93,69,-346,-2043,13,51,21,-409,-755,346,582
,273,2023-10-27 11:58:40.94,63,-347,-2041,6,48,19,-336,-680,344,508
,274,2023-10-27 11:58:40.95,63,-338,-2042,1,41,12,-415,-760,345,587
,275,2023-10-27 11:58:40.96,64,-326,-2036,-2,34,9,-336,-679,343,507
,276,2023-10-27 11:58:40.97,59,-320,-2037,-6,26,1,-421,-764,343,592
,277,2023-10-27 11:58:40.98,69,-324,-2041,-4,14,-2,-336,-679,343,507
,278,2023-10-27 11:58:40.99,60,-330,-2043,-1,-2,-7,-410,-763,353,586
,279,2023-10-27 11:58:41.00,67,-332,-2045,4,-24,-8,-321,-673,352,497
,280,2023-10-27 11:58:41.01,54,-337,-2035,10,-35,-5,-414,-768,354,591
,281,2023-10-27 11:58:41.02,57,-331,-2036,9,-43,-2,-331,-674,343,502
,282,2023-10-27 11:58:41.03,51,-323,-2032,8,-45,2,-413,-769,356,591
,283,2023-10-27 11:58:41.04,47,-331,-2040,5,-44,7,-318,-670,352,494
,284,2023-10-27 11:58:41.05,38,-331,-2041,0,-39,11,-410,-770,360,590
,285,2023-10-27 11:58:41.06,41,-329,-2025,1,-40,17,-320,-669,349,494
,286,2023-10-27 11:58:41.07,44,-319,-2018,-1,-31,21,-413,-772,359,592
,287,2023-10-27 11:58:41.08,36,-327,-2022,2,-32,23,-318,-668,350,493
,288,2023-10-27 11:58:41.09,42,-326,-2022,3,-22,22,-417,-774,357,595
,289,2023-10-27 11:58:41.10,38,-313,-2020,4,-19,25,-320,-665,345,492
,290,2023-10-27 11:58:41.11,44,-316,-2009,3,-11,25,-417,-774,357,595
,291,2023-10-27 11:58:41.12,46,-314,-2023,-3,-1,22,-319,-660,341,489
,292,2023-10-27 11:58:41.13,34,-319,-2024,-5,10,19,-416,-771,355,593
,293,2023-10-27 11:58:41.14,36,-320,-2036,-7,11,16,-314,-656,342,485
,294,2023-10-27 11:58:41.15,42,-325,-2034,-7,16,17,-416,-773,357,594
,295,2023-10-27 11:58:41.16,47,-320,-2037,-8,20,18,-316,-655,339,485
,296,2023-10-27 11:58:41.17,36,-330,-2039,-8,18,14,-420,-776,356,598
,297,2023-10-27 11:58:41.18,41,-324,-2038,-4,15,15,-317,-653,336,485
,298,2023-10-27 11:58:41.19,43,-324,-2029,1,19,13,-422,-772,350,597
,299,2023-10-27 11:58:41.20,49,-321,-2027,-2,15,6,-319,-652,333,485
,300,2023-10-27 11:58:41.21,47,-317,-2032,-2,22,7,-424,-782,358,603
,301,2023-10-27 11:58:41.22,53,-316,-2030,-2,18,3,-314,-655,341,484
,302,2023-10-27 11:58:41.23,41,-319,-2034,-3,16,1,-421,-784,363,602
,303,2023-10-27 11:58:41.24,52,-327,-2043,5,16,3,-310,-654,344,482
,304,2023-10-27 11:58:41.25,53,-327,-2031,8,12,9,-422,-787,365,604
,305,2023-10-27 11:58:41.26,59,-324,-2030,10,3,11,-313,-652,339,482
,306,2023-10-27 11:58:41.27,53,-329,-2033,14,5,14,-427,-779,352,603
,307,2023-10-27 11:58:41.28,61,-324,-2034,13,9,19,-315,-635,320,475
,308,2023-10-27 11:58:41.29,42,-327,-2041,16,16,24,-438,-774,336,606
,309,2023-10-27 11:58:41.30,53,-327,-2042,17,16,31,-328,-643,315,485
,310,2023-10-27 11:58:41.31,58,-328,-2038,23,15,31,-450,-787,337,618
,311,2023-10-27 11:58:41.32,52,-323,-2040,23,15,31,-336,-650,314,493
,312,2023-10-27 11:58:41.33,50,-319,-2035,23,7,30,-454,-794,340,624
,313,2023-10-27 11:58:41.34,56,-317,-2038,22,9,28,-339,-651,312,495
,314,2023-10-27 11:58:41.35,47,-308,-2034,18,1,25,-456,-794,338,625
,315,2023-10-27 11:58:41.36,48,-309,-2031,14,7,26,-340,-650,310,495
,316,2023-10-27 11:58:41.37,59,-310,-2033,10,6,24,-456,-791,335,623
,317,2023-10-27 11:58:41.38,46,-312,-2041,8,3,18,-342,-645,303,493
,318,2023-10-27 11:58:41.39,43,-316,-2032,3,-1,15,-460,-788,328,624
,319,2023-10-27 11:58:41.40,63,-323,-2030,-1,3,15,-344,-640,296,492
,320,2023-10-27 11:58:41.41,58,-326,-2028,-6,3,11,-459,-781,322,620
,321,2023-10-27 11:58:41.42,55,-333,-2030,-7,7,13,-347,-639,292,493
,322,2023-10-27 11:58:41.43,50,-330,-2031,-8,11,16,-461,-792,331,626
,323,2023-10-27 11:58:41.44,53,-331,-2036,-9,7,19,-345,-648,303,496
,324,2023-10-27 11:58:41.45,43,-327,-2030,-6,6,26,-458,-796,338,627
,325,2023-10-27 11:58:41.46,49,-326,-2038,-6,3,26,-345,-646,301,495
,326,2023-10-27 11:58:41.47,53,-322,-2035,-6,4,28,-458,-792,334,625
,327,2023-10-27 11:58:41.48,62,-314,-2032,-6,5,23,-344,-640,296,492
,328,2023-10-27 11:58:41.49,48,-314,-2038,-3,6,22,-456,-787,331,621
,329,2023-10-27 11:58:41.50,60,-312,-2036,-1,6,18,-347,-645,298,496
,330,2023-10-27 11:58:41.51,55,-319,-2025,4,2,13,-460,-802,342,631
,331,2023-10-27 11:58:41.52,64,-317,-2030,8,0,9,-348,-653,305,500
,332,2023-10-27 11:58:41.53,52,-315,-2038,12,0,11,-459,-796,337,627
,333,2023-10-27 11:58:41.54,56,-315,-2041,12,-5,10,-348,-644,296,496
,334,2023-10-27 11:58:41.55,50,-325,-2045,16,-13,10,-456,-791,335,623
,335,2023-10-27 11:58:41.56,47,-323,-2039,15,-15,12,-350,-648,298,499
,336,2023-10-27 11:58:41.57,30,-326,-2045,16,-17,17,-460,-802,342,631
,337,2023-10-27 11:58:41.58,38,-331,-2034,12,-14,21,-354,-655,301,504
,338,2023-10-27 11:58:41.59,34,-323,-2031,11,-9,26,-459,-795,336,627
,339,2023-10-27 11:58:41.60,32,-331,-2030,10,-1,29,-361,-653,292,507
,340,2023-10-27 11:58:41.61,41,-321,-2029,10,1,30,-469,-805,336,637
,341,2023-10-27 11:58:41.62,42,-324,-2017,9,10,31,-366,-665,299,515
,342,2023-10-27 11:58:41.63,49,-313,-2022,6,16,27,-464,-804,340,634
,343,2023-10-27 11:58:41.64,38,-315,-2025,3,28,24,-361,-661,300,511
,344,2023-10-27 11:58:41.65,46,-313,-2022,-2,34,22,-458,-797,339,627
,345,2023-10-27 11:58:41.66,50,-313,-2033,-3,33,16,-363,-661,298,512
,346,2023-10-27 11:58:41.67,36,-310,-2038,-5,35,12,-459,-795,336,627
,347,2023-10-27 11:58:41.68,48,-312,-2034,-9,31,6,-362,-658,296,510
,348,2023-10-27 11:58:41.69,63,-309,-2033,-10,27,2,-457,-794,337,625
,349,2023-10-27 11:58:41.70,54,-320,-2037,-10,19,-2,-366,-664,298,515
,350,2023-10-27 11:58:41.71,63,-321,-2034,-9,14,-2,-456,-796,340,626
,351,2023-10-27 11:58:41.72,50,-326,-2038,-7,8,-1,-362,-665,303,513
,352,2023-10-27 11:58:41.73,60,-326,-2035,-3,3,-1,-449,-789,340,619
,353,2023-10-27 11:58:41.74,56,-330,-2036,-2,4,-1,-358,-655,297,506
,354,2023-10-27 11:58:41.75,52,-327,-2041,0,-5,1,-440,-777,337,608
,355,2023-10-27 11:58:41.76,49,-330,-2048,3,-9,5,-362,-658,296,510
,356,2023-10-27 11:58:41.77,43,-335,-2051,5,-18,12,-453,-788,335,620
,357,2023-10-27 11:58:41.78,53,-337,-2043,8,-21,17,-373,-674,301,523
,358,2023-10-27 11:58:41.79,49,-336,-2032,9,-20,21,-452,-795,343,623
,359,2023-10-27 11:58:41.80,50,-330,-2013,12,-8,22,-371,-672,301,521
,360,2023-10-27 11:58:41.81,57,-321,-2009,11,9,23,-443,-780,337,611
,361,2023-10-27 11:58:41.82,62,-315,-2015,8,30,22,-373,-673,300,523
,362,2023-10-27 11:58:41.83,58,-313,-2013,3,48,18,-454,-792,338,623
,363,2023-10-27 11:58:41.84,65,-313,-2019,-1,55,13,-390,-693,303,541
,364,2023-10-27 11:58:41.85,61,-313,-2025,-5,59,9,-456,-797,341,626
,365,2023-10-27 11:58:41.86,59,-311,-2044,-11,58,5,-386,-692,306,539
,366,2023-10-27 11:58:41.87,68,-304,-2056,-15,49,-2,-441,-788,347,614
,367,2023-10-27 11:58:41.88,79,-309,-2055,-18,32,-8,-377,-681,304,529
,368,2023-10-27 11:58:41.89,68,-301,-2059,-20,20,-13,-435,-773,338,604
,369,2023-10-27 11:58:41.90,60,-304,-2054,-19,11,-19,-391,-686,295,538
,370,2023-10-27 11:58:41.91,58,-310,-2046,-19,-6,-22,-452,-784,332,618
,371,2023-10-27 11:58:41.92,70,-314,-2046,-16,-13,-26,-402,-698,296,550
,372,2023-10-27 11:58:41.93,71,-312,-2037,-15,-17,-23,-440,-781,341,610
,373,2023-10-27 11:58:41.94,71,-310,-2029,-17,-20,-25,-390,-688,298,539
,374,2023-10-27 11:58:41.95,55,-307,-2032,-21,-15,-20,-438,-768,330,603
,375,2023-10-27 11:58:41.96,55,-307,-2032,-28,-9,-16,-404,-695,291,549
,376,2023-10-27 11:58:41.97,43,-306,-2034,-33,-7,-9,-443,-775,332,609
,377,2023-10-27 11:58:41.98,54,-313,-2031,-37,-5,-4,-401,-697,296,549
,378,2023-10-27 11:58:41.99,34,-319,-2031,-35,-23,2,-433,-767,334,600
,379,2023-10-27 11:58:42.00,31,-312,-2039,-31,-26,11,-403,-695,292,549
,380,2023-10-27 11:58:42.01,35,-305,-2027,-31,-17,18,-441,-761,320,601
,381,2023-10-27 11:58:42.02,39,-296,-2020,-34,-6,23,-414,-702,288,558
,382,2023-10-27 11:58:42.03,35,-293,-2026,-33,6,28,-443,-766,323,604
,383,2023-10-27 11:58:42.04,41,-295,-2017,-29,4,26,-423,-715,292,569
,384,2023-10-27 11:58:42.05,35,-277,-2024,-26,14,25,-447,-773,326,610
,385,2023-10-27 11:58:42.06,41,-286,-2025,-25,26,21,-422,-719,297,570
,386,2023-10-27 11:58:42.07,39,-284,-2027,-20,31,16,-434,-768,334,601
,387,2023-10-27 11:58:42.08,41,-298,-2026,-11,35,11,-417,-719,302,568
,388,2023-10-27 11:58:42.09,59,-301,-2029,1,31,8,-424,-762,338,593
,389,2023-10-27 11:58:42.10,49,-299,-2037,10,27,2,-414,-714,300,564
,390,2023-10-27 11:58:42.11,50,-297,-2036,16,26,1,-413,-747,334,580
,391,2023-10-27 11:58:42.12,64,-303,-2039,20,37,-2,-405,-710,305,557
,392,2023-10-27 11:58:42.13,60,-312,-2052,18,49,-4,-405,-746,341,575
,393,2023-10-27 11:58:42.14,71,-320,-2030,18,53,1,-409,-718,309,563
,394,2023-10-27 11:58:42.15,64,-319,-2041,23,56,5,-405,-747,342,576
,395,2023-10-27 11:58:42.16,82,-312,-2047,22,47,11,-415,-727,312,571
,396,2023-10-27 11:58:42.17,82,-315,-2042,18,50,15,-408,-752,344,580
,397,2023-10-27 11:58:42.18,84,-311,-2054,12,55,22,-424,-729,305,576
,398,2023-10-27 11:58:42.19,86,-307,-2051,4,48,24,-411,-740,329,575
,399,2023-10-27 11:58:42.20,81,-305,-2042,1,32,23,-420,-726,306,573
,400,2023-10-27 11:58:42.21,81,-296,-2035,0,25,29,-399,-736,337,567
,401,2023-10-27 11:58:42.22,83,-284,-2042,-6,18,22,-419,-729,310,574
,402,2023-10-27 11:58:42.23,84,-285,-2034,-12,17,15,-395,-734,339,564
,403,2023-10-27 11:58:42.24,88,-288,-2044,-15,3,10,-418,-729,311,573
,404,2023-10-27 11:58:42.25,84,-298,-2047,-9,-13,10,-391,-725,334,558
,405,2023-10-27 11:58:42.26,85,-299,-2044,-5,-26,12,-416,-733,317,574
,406,2023-10-27 11:58:42.27,76,-303,-2033,-2,-34,9,-385,-725,340,555
,407,2023-10-27 11:58:42.28,76,-301,-2043,-4,-35,13,-416,-733,317,574
,408,2023-10-27 11:58:42.29,67,-310,-2034,-3,-27,20,-382,-720,338,551
,409,2023-10-27 11:58:42.30,50,-308,-2044,-4,-25,26,-421,-741,320,581
,410,2023-10-27 11:58:42.31,48,-313,-2039,-7,-22,29,-385,-723,338,554
,411,2023-10-27 11:58:42.32,62,-304,-2033,-11,-19,33,-428,-747,319,587
,412,2023-10-27 11:58:42.33,72,-301,-2027,-15,-13,33,-387,-721,334,554
,413,2023-10-27 11:58:42.34,69,-288,-2020,-20,3,35,-424,-746,322,585
,414,2023-10-27 11:58:42.35,66,-286,-2020,-21,18,35,-373,-716,343,544
,415,2023-10-27 11:58:42.36,73,-287,-2029,-22,28,33,-394,-733,339,563
,416,2023-10-27 11:58:42.37,70,-290,-2033,-21,30,33,-344,-701,357,522
,417,2023-10-27 11:58:42.38,69,-297,-2039,-19,26,32,-383,-737,354,560
,418,2023-10-27 11:58:42.39,79,-291,-2044,-16,17,30,-343,-707,364,525
,419,2023-10-27 11:58:42.40,73,-296,-2043,-12,7,31,-390,-748,358,569
,420,2023-10-27 11:58:42.41,69,-306,-2045,-9,-5,32,-343,-704,361,523
,421,2023-10-27 11:58:42.42,78,-306,-2039,-7,-12,38,-404,-750,346,577
,422,2023-10-27 11:58:42.43,80,-311,-2032,-7,-14,41,-353,-709,356,531
,423,2023-10-27 11:58:42.44,82,-293,-2034,-8,-9,45,-388,-753,365,570
,424,2023-10-27 11:58:42.45,88,-292,-2021,-15,-7,46,-323,-696,373,509
,425,2023-10-27 11:58:42.46,68,-291,-2040,-22,-3,44,-380,-749,369,564
,426,2023-10-27 11:58:42.47,67,-303,-2062,-29,-2,51,-327,-694,367,510
,427,2023-10-27 11:58:42.48,63,-308,-2066,-28,-15,56,-378,-751,373,564
,428,2023-10-27 11:58:42.49,67,-303,-2057,-25,-28,66,-309,-682,373,495
,429,2023-10-27 11:58:42.50,73,-296,-2057,-22,-49,71,-366,-744,378,555
,430,2023-10-27 11:58:42.51,64,-283,-2045,-23,-60,72,-303,-674,371,488
,431,2023-10-27 11:58:42.52,55,-280,-2048,-22,-65,75,-368,-742,374,555
,432,2023-10-27 11:58:42.53,55,-274,-2048,-18,-64,80,-310,-677,367,493
,433,2023-10-27 11:58:42.54,45,-264,-2028,-14,-59,77,-386,-754,368,570
,434,2023-10-27 11:58:42.55,49,-254,-2011,-11,-54,74,-322,-680,358,501
,435,2023-10-27 11:58:42.56,59,-250,-2027,-12,-44,63,-391,-758,367,574
,436,2023-10-27 11:58:42.57,42,-260,-2048,-15,-32,54,-312,-674,362,493
,437,2023-10-27 11:58:42.58,40,-276,-2055,-9,-25,52,-381,-757,376,569
,438,2023-10-27 11:58:42.59,23,-282,-2052,2,-33,50,-305,-670,365,487
,439,2023-10-27 11:58:42.60,25,-278,-2052,7,-36,48,-381,-756,375,568
,440,2023-10-27 11:58:42.61,26,-268,-2038,6,-41,47,-307,-666,359,486
,441,2023-10-27 11:58:42.62,38,-274,-2038,8,-36,45,-394,-760,366,577
,442,2023-10-27 11:58:42.63,27,-275,-2032,12,-25,41,-316,-668,352,492
,443,2023-10-27 11:58:42.64,38,-278,-2024,16,-18,36,-394,-767,373,580
,444,2023-10-27 11:58:42.65,29,-269,-2016,21,-2,25,-308,-667,359,487
,445,2023-10-27 11:58:42.66,50,-275,-2014,26,12,17,-385,-766,381,575
,446,2023-10-27 11:58:42.67,60,-277,-2008,29,28,4,-297,-660,363,478
,447,2023-10-27 11:58:42.68,60,-278,-2009,33,41,-9,-383,-765,382,574
,448,2023-10-27 11:58:42.69,55,-285,-2026,33,54,-19,-294,-656,362,475
,449,2023-10-27 11:58:42.70,63,-297,-2042,34,59,-21,-388,-768,380,578
,450,2023-10-27 11:58:42.71,57,-311,-2064,35,44,-22,-301,-660,359,480
,451,2023-10-27 11:58:42.72,60,-308,-2075,39,23,-19,-402,-776,374,589
,452,2023-10-27 11:58:42.73,57,-321,-2073,38,-1,-14,-308,-662,354,485
,453,2023-10-27 11:58:42.74,61,-321,-2065,41,-22,-6,-405,-778,373,591
,454,2023-10-27 11:58:42.75,59,-317,-2053,46,-34,-2,-307,-657,350,482
,455,2023-10-27 11:58:42.76,56,-312,-2058,47,-40,7,-403,-777,374,590
,456,2023-10-27 11:58:42.77,59,-322,-2060,51,-48,10,-301,-655,354,478
,457,2023-10-27 11:58:42.78,44,-315,-2044,55,-50,18,-400,-778,378,589
,458,2023-10-27 11:58:42.79,43,-323,-2037,58,-46,26,-298,-654,356,476
,459,2023-10-27 11:58:42.80,43,-309,-2017,50,-39,34,-397,-779,382,588
,460,2023-10-27 11:58:42.81,35,-300,-2018,42,-30,45,-297,-651,354,474
,461,2023-10-27 11:58:42.82,35,-303,-2034,32,-27,55,-404,-779,375,591
,462,2023-10-27 11:58:42.83,35,-298,-2039,21,-24,65,-311,-655,344,483
,463,2023-10-27 11:58:42.84,27,-294,-2029,10,-25,77,-408,-784,376,596
,464,2023-10-27 11:58:42.85,13,-289,-2029,2,-24,85,-299,-652,353,475
,465,2023-10-27 11:58:42.86,23,-288,-2026,-2,-17,88,-399,-780,381,589
,466,2023-10-27 11:58:42.87,31,-287,-2022,-4,-8,87,-294,-648,354,471
,467,2023-10-27 11:58:42.88,27,-286,-2018,3,-4,88,-401,-783,382,592
,468,2023-10-27 11:58:42.89,24,-271,-2018,10,-5,81,-291,-647,356,469
,469,2023-10-27 11:58:42.90,31,-272,-2020,19,-1,72,-390,-779,389,584
,470,2023-10-27 11:58:42.91,33,-269,-2029,25,4,66,-282,-644,362,463
,471,2023-10-27 11:58:42.92,45,-269,-2032,28,9,56,-397,-782,385,589
,472,2023-10-27 11:58:42.93,37,-269,-2034,31,10,47,-294,-643,349,468
,473,2023-10-27 11:58:42.94,41,-277,-2041,32,7,39,-399,-785,386,592
,474,2023-10-27 11:58:42.95,42,-279,-2051,32,8,32,-286,-643,357,464
,475,2023-10-27 11:58:42.96,27,-295,-2054,33,6,28,-388,-781,393,584
,476,2023-10-27 11:58:42.97,38,-311,-2057,33,3,27,-281,-638,357,459
,477,2023-10-27 11:58:42.98,40,-304,-2053,38,-3,27,-386,-780,394,583
,478,2023-10-27 11:58:42.99,32,-310,-2034,37,7,31,-280,-639,359,459
,479,2023-10-27 11:58:43.00,38,-311,-2019,35,12,31,-387,-780,393,583
,480,2023-10-27 11:58:43.01,40,-309,-2020,37,19,33,-285,-639,354,462
,481,2023-10-27 11:58:43.02,27,-311,-2026,38,23,33,-391,-785,394,588
,482,2023-10-27 11:58:43.03,35,-310,-2034,37,29,36,-286,-641,355,463
,483,2023-10-27 11:58:43.04,41,-313,-2044,32,33,34,-388,-785,397,586
,484,2023-10-27 11:58:43.05,48,-314,-2036,29,32,33,-282,-639,357,460
,485,2023-10-27 11:58:43.06,44,-313,-2041,27,21,33,-384,-782,398,583
,486,2023-10-27 11:58:43.07,39,-307,-2035,29,9,33,-284,-638,354,461
,487,2023-10-27 11:58:43.08,55,-311,-2034,27,11,33,-386,-782,396,584
,488,2023-10-27 11:58:43.09,50,-312,-2027,24,4,29,-280,-635,355,457
,489,2023-10-27 11:58:43.10,43,-316,-2020,22,2,30,-381,-778,397,579
,490,2023-10-27 11:58:43.11,52,-317,-2027,24,1,29,-281,-634,353,457
,491,2023-10-27 11:58:43.12,45,-315,-2030,24,3,30,-386,-784,398,585
,492,2023-10-27 11:58:43.13,52,-315,-2042,21,2,28,-291,-640,349,465
,493,2023-10-27 11:58:43.14,52,-316,-2042,19,6,28,-396,-784,388,590
,494,2023-10-27 11:58:43.15,43,-315,-2043,19,8,29,-295,-638,343,466
,495,2023-10-27 11:58:43.16,51,-317,-2049,18,11,28,-396,-784,388,590
,496,2023-10-27 11:58:43.17,42,-318,-2042,14,3,24,-294,-637,343,465
,497,2023-10-27 11:58:43.18,48,-309,-2041,11,6,19,-392,-781,389,586
,498,2023-10-27 11:58:43.19,40,-307,-2044,11,-1,18,-296,-640,344,468
,499,2023-10-27 11:58:43.20,42,-315,-2041,9,-7,16,-395,-786,391,590
,500,2023-10-27 11:58:43.21,44,-311,-2040,8,-13,16,-295,-639,344,467
,501,2023-10-27 11:58:43.22,43,-316,-2033,13,-17,16,-400,-786,386,593
,502,2023-10-27 11:58:43.23,36,-318,-2034,13,-24,13,-301,-642,341,471
,503,2023-10-27 11:58:43.24,32,-328,-2031,12,-20,17,-402,-790,388,596
,504,2023-10-27 11:58:43.25,37,-324,-2021,10,-18,23,-300,-644,344,472
,505,2023-10-27 11:58:43.26,43,-320,-2020,6,-16,23,-394,-786,392,590
,506,2023-10-27 11:58:43.27,34,-321,-2032,0,-14,24,-307,-646,339,476
,507,2023-10-27 11:58:43.28,32,-314,-2026,-7,-10,22,-408,-790,382,599
,508,2023-10-27 11:58:43.29,48,-305,-2036,-10,-2,19,-317,-653,336,485
,509,2023-10-27 11:58:43.30,38,-296,-2033,-15,8,15,-404,-792,388,598
,510,2023-10-27 11:58:43.31,36,-287,-2039,-20,9,8,-312,-653,341,482
,511,2023-10-27 11:58:43.32,44,-284,-2032,-23,8,2,-402,-788,386,595
,512,2023-10-27 11:58:43.33,36,-288,-2041,-22,4,-3,-312,-654,342,483
,513,2023-10-27 11:58:43.34,31,-299,-2054,-19,-7,-3,-399,-786,387,592
,514,2023-10-27 11:58:43.35,38,-308,-2064,-12,-22,2,-312,-656,344,484
,515,2023-10-27 11:58:43.36,21,-316,-2056,-5,-36,10,-396,-786,390,591
,516,2023-10-27 11:58:43.37,12,-316,-2049,-1,-48,25,-307,-657,350,482
,517,2023-10-27 11:58:43.38,21,-315,-2033,1,-46,35,-389,-783,394,586
,518,2023-10-27 11:58:43.39,19,-309,-2030,1,-39,47,-310,-660,350,485
,519,2023-10-27 11:58:43.40,31,-306,-2021,4,-29,57,-388,-779,391,583
,520,2023-10-27 11:58:43.41,24,-300,-2027,0,-9,67,-309,-659,350,484
,521,2023-10-27 11:58:43.42,12,-297,-2022,-1,8,72,-385,-777,392,581
,522,2023-10-27 11:58:43.43,8,-292,-2028,4,12,73,-312,-660,348,486
,523,2023-10-27 11:58:43.44,-1,-286,-2021,10,15,72,-385,-776,391,580
,524,2023-10-27 11:58:43.45,13,-279,-2031,14,18,68,-315,-663,348,489
,525,2023-10-27 11:58:43.46,26,-270,-2022,15,17,61,-383,-774,391,578
,526,2023-10-27 11:58:43.47,27,-270,-2024,16,21,47,-314,-668,354,491
,527,2023-10-27 11:58:43.48,29,-286,-2030,24,7,25,-382,-772,390,577
,528,2023-10-27 11:58:43.49,37,-287,-2037,28,-1,18,-318,-669,351,493
,529,2023-10-27 11:58:43.50,29,-308,-2044,31,0,9,-380,-772,392,576
,530,2023-10-27 11:58:43.51,39,-317,-2037,36,-2,5,-322,-675,353,498
,531,2023-10-27 11:58:43.52,43,-313,-2033,34,4,3,-379,-771,392,575
,532,2023-10-27 11:58:43.53,45,-304,-2031,28,20,2,-317,-674,357,495
,533,2023-10-27 11:58:43.54,35,-321,-2038,19,35,-4,-371,-766,395,568
,534,2023-10-27 11:58:43.55,48,-323,-2041,12,32,-7,-322,-675,353,498
,535,2023-10-27 11:58:43.56,32,-327,-2044,7,31,-7,-378,-765,387,571
,536,2023-10-27 11:58:43.57,39,-329,-2040,5,26,-3,-331,-682,351,506
,537,2023-10-27 11:58:43.58,31,-335,-2041,-3,22,0,-377,-762,385,569
,538,2023-10-27 11:58:43.59,36,-329,-2052,-8,18,5,-334,-684,350,509
,539,2023-10-27 11:58:43.60,34,-322,-2040,-12,16,13,-377,-761,384,569
,540,2023-10-27 11:58:43.61,36,-311,-2030,-13,11,14,-335,-687,352,511
,541,2023-10-27 11:58:43.62,39,-310,-2031,-17,9,17,-367,-758,391,562
,542,2023-10-27 11:58:43.63,38,-307,-2035,-18,10,16,-326,-688,362,507
,543,2023-10-27 11:58:43.64,32,-310,-2039,-13,9,19,-355,-751,396,553
,544,2023-10-27 11:58:43.65,24,-309,-2039,-8,7,25,-333,-690,357,511
,545,2023-10-27 11:58:43.66,33,-304,-2032,-2,1,25,-353,-746,393,549
,546,2023-10-27 11:58:43.67,32,-302,-2027,-2,5,28,-326,-688,362,507
,547,2023-10-27 11:58:43.68,44,-295,-2030,4,11,27,-352,-742,390,547
,548,2023-10-27 11:58:43.69,38,-295,-2028,4,18,29,-340,-695,355,517
,549,2023-10-27 11:58:43.70,48,-287,-2025,6,23,23,-360,-745,385,552
,550,2023-10-27 11:58:43.71,42,-287,-2024,2,25,21,-339,-698,359,518
,551,2023-10-27 11:58:43.72,48,-297,-2035,4,23,14,-354,-736,382,545
,552,2023-10-27 11:58:43.73,38,-297,-2046,4,16,12,-346,-700,354,523
,553,2023-10-27 11:58:43.74,36,-312,-2054,9,-1,13,-359,-739,380,549
,554,2023-10-27 11:58:43.75,33,-314,-2051,18,-20,13,-349,-703,354,526
,555,2023-10-27 11:58:43.76,26,-318,-2047,20,-32,14,-355,-736,381,545
,556,2023-10-27 11:58:43.77,24,-319,-2044,19,-33,21,-355,-709,354,532
,557,2023-10-27 11:58:43.78,33,-313,-2042,16,-31,26,-360,-737,377,548
,558,2023-10-27 11:58:43.79,32,-305,-2032,14,-21,27,-363,-715,352,539
,559,2023-10-27 11:58:43.80,35,-306,-2023,10,-11,26,-357,-733,376,545
,560,2023-10-27 11:58:43.81,28,-292,-2015,4,5,24,-362,-715,353,538
,561,2023-10-27 11:58:43.82,36,-281,-2026,-2,19,16,-352,-727,375,539
,562,2023-10-27 11:58:43.83,28,-286,-2037,-4,23,7,-364,-716,352,540
,563,2023-10-27 11:58:43.84,28,-292,-2042,-2,22,0,-352,-726,374,539
,564,2023-10-27 11:58:43.85,35,-294,-2042,6,10,-1,-368,-720,352,544
,565,2023-10-27 11:58:43.86,30,-297,-2038,14,9,-6,-351,-723,372,537
,566,2023-10-27 11:58:43.87,39,-300,-2028,22,3,-8,-370,-723,353,546
,567,2023-10-27 11:58:43.88,40,-309,-2024,31,3,-9,-348,-721,373,534
,568,2023-10-27 11:58:43.89,29,-311,-2035,37,8,-9,-372,-728,356,550
,569,2023-10-27 11:58:43.90,34,-315,-2040,37,5,-10,-348,-722,374,535
,570,2023-10-27 11:58:43.91,37,-311,-2041,35,6,-7,-376,-732,356,554
,571,2023-10-27 11:58:43.92,28,-319,-2043,34,7,-4,-344,-718,374,531
,572,2023-10-27 11:58:43.93,44,-318,-2039,30,5,1,-375,-732,357,553
,573,2023-10-27 11:58:43.94,37,-318,-2030,22,12,8,-343,-714,371,528
,574,2023-10-27 11:58:43.95,33,-314,-2034,15,9,14,-377,-735,358,556
,575,2023-10-27 11:58:43.96,40,-316,-2036,9,15,18,-341,-712,371,526
,576,2023-10-27 11:58:43.97,31,-315,-2034,3,12,18,-384,-741,357,562
,577,2023-10-27 11:58:43.98,40,-319,-2040,0,11,22,-340,-711,371,525
,578,2023-10-27 11:58:43.99,27,-310,-2043,-3,11,24,-381,-741,360,561
,579,2023-10-27 11:58:44.00,36,-307,-2035,-5,10,27,-338,-704,366,521
,580,2023-10-27 11:58:44.01,45,-314,-2036,-5,7,30,-383,-742,359,562
,581,2023-10-27 11:58:44.02,24,-315,-2041,-7,-1,26,-336,-702,366,519
,582,2023-10-27 11:58:44.03,21,-310,-2044,-5,-4,29,-386,-744,358,565
,583,2023-10-27 11:58:44.04,33,-310,-2026,-2,-8,28,-341,-703,362,522
,584,2023-10-27 11:58:44.05,35,-305,-2027,-2,-8,29,-398,-750,352,574
,585,2023-10-27 11:58:44.06,44,-303,-2027,1,1,28,-350,-700,350,525
,586,2023-10-27 11:58:44.07,26,-298,-2025,5,8,26,-393,-745,352,569
,587,2023-10-27 11:58:44.08,39,-305,-2023,6,10,23,-334,-690,356,512
,588,2023-10-27 11:58:44.09,23,-309,-2033,5,14,20,-392,-748,356,570
,589,2023-10-27 11:58:44.10,30,-301,-2039,6,18,20,-333,-691,358,512
,590,2023-10-27 11:58:44.11,39,-303,-2038,4,21,18,-397,-756,359,576
,591,2023-10-27 11:58:44.12,40,-293,-2045,3,25,10,-333,-690,357,511
,592,2023-10-27 11:58:44.13,47,-288,-2036,-2,28,4,-394,-756,362,575
,593,2023-10-27 11:58:44.14,43,-289,-2033,0,29,4,-327,-685,358,506
,594,2023-10-27 11:58:44.15,45,-292,-2037,4,27,-1,-393,-756,363,574
,595,2023-10-27 11:58:44.16,42,-303,-2039,11,27,-2,-322,-681,359,501
,596,2023-10-27 11:58:44.17,46,-306,-2043,17,17,1,-391,-758,367,574
,597,2023-10-27 11:58:44.18,50,-307,-2052,21,11,2,-315,-677,362,496
,598,2023-10-27 11:58:44.19,44,-314,-2046,24,7,7,-392,-760,368,576
,599,2023-10-27 11:58:44.20,41,-316,-2047,25,-1,15,-317,-676,359,496
,600,2023-10-27 11:58:44.21,37,-319,-2044,25,-7,22,-395,-764,369,579
,601,2023-10-27 11:58:44.22,33,-321,-2037,26,-10,31,-315,-674,359,494
,602,2023-10-27 11:58:44.23,46,-305,-2029,25,-12,38,-395,-766,371,580
,603,2023-10-27 11:58:44.24,47,-309,-2027,22,-5,39,-311,-670,359,490
,604,2023-10-27 11:58:44.25,43,-304,-2031,20,-2,41,-390,-767,377,578
,605,2023-10-27 11:58:44.26,40,-307,-2033,19,-3,42,-308,-667,359,487
,606,2023-10-27 11:58:44.27,35,-301,-2029,20,-3,42,-396,-769,373,582
,607,2023-10-27 11:58:44.28,39,-306,-2037,20,-4,41,-310,-666,356,488
,608,2023-10-27 11:58:44.29,36,-317,-2039,21,-6,37,-396,-773,377,584
,609,2023-10-27 11:58:44.30,42,-314,-2032,24,-4,33,-307,-663,356,485
,610,2023-10-27 11:58:44.31,46,-304,-2037,25,0,31,-395,-772,377,583
,611,2023-10-27 11:58:44.32,32,-304,-2036,23,-2,25,-304,-660,356,482
,612,2023-10-27 11:58:44.33,36,-316,-2032,20,2,23,-396,-773,377,584
,613,2023-10-27 11:58:44.34,34,-314,-2039,16,10,19,-300,-655,355,477
,614,2023-10-27 11:58:44.35,46,-311,-2038,17,14,16,-392,-773,381,582
,615,2023-10-27 11:58:44.36,42,-315,-2043,16,15,15,-298,-653,355,475
,616,2023-10-27 11:58:44.37,49,-318,-2037,15,11,9,-402,-774,372,588
,617,2023-10-27 11:58:44.38,41,-313,-2034,13,6,7,-304,-652,348,478
,618,2023-10-27 11:58:44.39,30,-315,-2036,15,6,7,-405,-777,372,591
,619,2023-10-27 11:58:44.40,39,-322,-2034,15,1,9,-303,-650,347,476
,620,2023-10-27 11:58:44.41,44,-316,-2037,22,1,13,-408,-781,373,594
,621,2023-10-27 11:58:44.42,27,-320,-2042,22,-3,16,-304,-651,347,477
,622,2023-10-27 11:58:44.43,26,-320,-2027,22,-4,18,-405,-782,377,593
,623,2023-10-27 11:58:44.44,38,-312,-2032,19,-2,21,-295,-646,351,470
,624,2023-10-27 11:58:44.45,30,-314,-2040,17,4,23,-406,-782,376,594
,625,2023-10-27 11:58:44.46,35,-320,-2037,11,4,27,-301,-646,345,473
,626,2023-10-27 11:58:44.47,22,-308,-2037,6,2,24,-418,-789,371,603
,627,2023-10-27 11:58:44.48,25,-306,-2022,5,5,25,-299,-647,348,473
,628,2023-10-27 11:58:44.49,41,-305,-2032,3,5,23,-406,-785,379,595
,629,2023-10-27 11:58:44.50,42,-304,-2031,3,6,22,-299,-648,349,473
,630,2023-10-27 11:58:44.51,47,-303,-2028,2,9,18,-409,-788,379,598
,631,2023-10-27 11:58:44.52,32,-300,-2038,1,6,16,-299,-649,350,474
,632,2023-10-27 11:58:44.53,41,-314,-2042,3,7,14,-412,-792,380,602
,633,2023-10-27 11:58:44.54,39,-314,-2039,3,1,11,-302,-650,348,476
,634,2023-10-27 11:58:44.55,36,-316,-2043,4,-4,11,-413,-792,379,602
,635,2023-10-27 11:58:44.56,33,-311,-2037,3,0,11,-301,-651,350,476
,636,2023-10-27 11:58:44.57,45,-322,-2038,6,3,12,-414,-793,379,603
,637,2023-10-27 11:58:44.58,48,-322,-2030,4,4,15,-300,-647,347,473
,638,2023-10-27 11:58:44.59,35,-308,-2024,3,8,15,-414,-789,375,601
,639,2023-10-27 11:58:44.60,42,-307,-2024,0,13,17,-302,-646,344,474
,640,2023-10-27 11:58:44.61,28,-318,-2031,-2,16,17,-413,-790,377,601
,641,2023-10-27 11:58:44.62,38,-308,-2044,-1,10,15,-305,-645,340,475
,642,2023-10-27 11:58:44.63,45,-316,-2041,3,11,17,-413,-789,376,601
,643,2023-10-27 11:58:44.64,42,-317,-2032,1,7,13,-304,-647,343,475
,644,2023-10-27 11:58:44.65,27,-316,-2039,4,12,11,-413,-792,379,602
,645,2023-10-27 11:58:44.66,41,-316,-2040,8,17,8,-308,-648,340,478
,646,2023-10-27 11:58:44.67,25,-318,-2034,10,10,9,-416,-795,379,605
,647,2023-10-27 11:58:44.68,37,-318,-2027,12,12,4,-306,-650,344,478
,648,2023-10-27 11:58:44.69,55,-310,-2026,15,14,1,-413,-793,380,603
,649,2023-10-27 11:58:44.70,41,-310,-2030,11,21,-2,-306,-646,340,476
,650,2023-10-27 11:58:44.71,44,-310,-2038,3,27,-7,-412,-792,380,602
,651,2023-10-27 11:58:44.72,37,-304,-2039,-5,24,-12,-307,-648,341,477
,652,2023-10-27 11:58:44.73,44,-312,-2037,-14,22,-12,-411,-793,382,602
,653,2023-10-27 11:58:44.74,38,-320,-2043,-19,17,-8,-308,-648,340,478
,654,2023-10-27 11:58:44.75,37,-327,-2044,-21,10,-3,-406,-795,389,600
,655,2023-10-27 11:58:44.76,36,-320,-2044,-19,1,-1,-304,-647,343,475
,656,2023-10-27 11:58:44.77,37,-317,-2047,-18,-2,7,-406,-792,386,599
,657,2023-10-27 11:58:44.78,43,-316,-2040,-15,-2,8,-306,-648,342,477
,658,2023-10-27 11:58:44.79,48,-304,-2030,-11,-2,10,-406,-795,389,600
,659,2023-10-27 11:58:44.80,38,-304,-2032,-5,-4,10,-308,-651,343,479
,660,2023-10-27 11:58:44.81,33,-297,-2027,1,-2,10,-409,-795,386,602
,661,2023-10-27 11:58:44.82,39,-307,-2032,5,-1,9,-309,-651,342,480
,662,2023-10-27 11:58:44.83,32,-302,-2034,8,0,11,-405,-794,389,599
,663,2023-10-27 11:58:44.84,25,-303,-2037,8,5,10,-306,-651,345,478
,664,2023-10-27 11:58:44.85,36,-302,-2039,10,2,13,-401,-793,392,597
,665,2023-10-27 11:58:44.86,42,-300,-2030,12,5,18,-314,-656,342,485
,666,2023-10-27 11:58:44.87,35,-294,-2021,8,7,17,-414,-796,382,605
,667,2023-10-27 11:58:44.88,40,-285,-2024,-1,11,15,-327,-664,337,495
,668,2023-10-27 11:58:44.89,34,-290,-2033,-7,19,18,-410,-795,385,602
,669,2023-10-27 11:58:44.90,26,-295,-2038,-11,18,15,-311,-658,347,484
,670,2023-10-27 11:58:44.91,30,-301,-2035,-11,18,14,-407,-792,385,599
,671,2023-10-27 11:58:44.92,41,-294,-2040,-8,19,10,-314,-656,342,485
,672,2023-10-27 11:58:44.93,47,-295,-2035,-5,22,7,-405,-790,385,597
,673,2023-10-27 11:58:44.94,44,-301,-2033,2,23,0,-315,-660,345,487
,674,2023-10-27 11:58:44.95,43,-292,-2030,3,29,-8,-400,-788,388,594
,675,2023-10-27 11:58:44.96,41,-299,-2033,7,33,-13,-316,-660,344,488
,676,2023-10-27 11:58:44.97,44,-306,-2042,8,34,-17,-402,-787,385,594
,677,2023-10-27 11:58:44.98,42,-313,-2041,15,32,-17,-319,-663,344,491
,678,2023-10-27 11:58:44.99,48,-312,-2050,17,28,-17,-403,-788,385,595
,679,2023-10-27 11:58:45.00,51,-311,-2051,16,23,-13,-322,-667,345,494
,680,2023-10-27 11:58:45.01,44,-318,-2034,16,22,-5,-400,-784,384,592
,681,2023-10-27 11:58:45.02,50,-321,-2024,19,21,3,-323,-667,344,495
,682,2023-10-27 11:58:45.03,51,-314,-2029,20,29,14,-396,-783,387,589
,683,2023-10-27 11:58:45.04,61,-314,-2026,20,31,20,-321,-669,348,495
,684,2023-10-27 11:58:45.05,45,-309,-2025,20,40,27,-394,-780,386,587
,685,2023-10-27 11:58:45.06,55,-297,-2029,21,38,31,-323,-668,345,495
,686,2023-10-27 11:58:45.07,65,-307,-2029,24,33,32,-388,-774,386,581
,687,2023-10-27 11:58:45.08,55,-309,-2049,28,31,33,-322,-671,349,496
,688,2023-10-27 11:58:45.09,64,-299,-2048,30,21,31,-387,-774,387,580
,689,2023-10-27 11:58:45.10,70,-296,-2036,30,14,24,-328,-674,346,501
,690,2023-10-27 11:58:45.11,63,-295,-2033,29,19,19,-388,-773,385,580
,691,2023-10-27 11:58:45.12,69,-296,-2032,22,22,8,-331,-677,346,504
,692,2023-10-27 11:58:45.13,56,-308,-2029,20,20,4,-383,-769,386,576
,693,2023-10-27 11:58:45.14,56,-313,-2038,25,14,3,-333,-681,348,507
,694,2023-10-27 11:58:45.15,55,-324,-2044,26,4,6,-393,-774,381,583
,695,2023-10-27 11:58:45.16,44,-329,-2044,31,-9,13,-349,-689,340,519
,696,2023-10-27 11:58:45.17,51,-329,-2034,31,-12,28,-400,-775,375,587
,697,2023-10-27 11:58:45.18,55,-333,-2030,31,-23,36,-347,-692,345,519
,698,2023-10-27 11:58:45.19,46,-307,-2012,28,-23,43,-382,-767,385,574
,699,2023-10-27 11:58:45.20,47,-300,-2020,24,-21,48,-336,-687,351,511
,700,2023-10-27 11:58:45.21,41,-302,-2027,19,-17,45,-368,-759,391,563
,701,2023-10-27 11:58:45.22,40,-310,-2039,15,-10,43,-328,-684,356,506
,702,2023-10-27 11:58:45.23,29,-312,-2039,16,-9,41,-356,-751,395,553
,703,2023-10-27 11:58:45.24,48,-313,-2026,22,-1,43,-321,-683,362,502
,704,2023-10-27 11:58:45.25,38,-311,-2020,21,8,40,-353,-746,393,549
,705,2023-10-27 11:58:45.26,40,-305,-2031,22,23,31,-321,-679,358,500
,706,2023-10-27 11:58:45.27,43,-313,-2037,21,31,21,-360,-746,386,553
,707,2023-10-27 11:58:45.28,51,-314,-2049,23,42,15,-340,-692,352,516
,708,2023-10-27 11:58:45.29,43,-319,-2057,29,44,4,-373,-756,383,564
,709,2023-10-27 11:58:45.30,33,-308,-2049,34,38,-3,-353,-703,350,528
,710,2023-10-27 11:58:45.31,49,-304,-2043,39,42,-12,-375,-756,381,565
,711,2023-10-27 11:58:45.32,37,-306,-2022,44,48,-21,-363,-709,346,536
,712,2023-10-27 11:58:45.33,39,-304,-2015,46,64,-33,-366,-747,381,556
,713,2023-10-27 11:58:45.34,49,-317,-2014,47,76,-43,-348,-703,355,525
,714,2023-10-27 11:58:45.35,59,-327,-2016,51,84,-51,-356,-742,386,549
,715,2023-10-27 11:58:45.36,62,-334,-2020,54,86,-58,-355,-707,352,531
,716,2023-10-27 11:58:45.37,66,-341,-2028,57,80,-66,-364,-744,380,554
,717,2023-10-27 11:58:45.38,87,-343,-2029,57,74,-63,-358,-711,353,534
,718,2023-10-27 11:58:45.39,83,-348,-2035,53,66,-61,-350,-734,384,542
,719,2023-10-27 11:58:45.40,86,-350,-2038,51,57,-53,-359,-714,355,536
,720,2023-10-27 11:58:45.41,84,-366,-2048,50,42,-43,-358,-738,380,548
,721,2023-10-27 11:58:45.42,96,-365,-2037,47,26,-28,-365,-720,355,542
,722,2023-10-27 11:58:45.43,81,-362,-2036,44,15,-19,-355,-735,380,545
,723,2023-10-27 11:58:45.44,96,-353,-2017,42,15,-9,-367,-724,357,545
,724,2023-10-27 11:58:45.45,100,-336,-2030,33,12,-6,-347,-732,385,539
,725,2023-10-27 11:58:45.46,95,-320,-2040,24,2,-5,-369,-726,357,547
,726,2023-10-27 11:58:45.47,78,-321,-2045,12,-7,-9,-355,-729,374,542
,727,2023-10-27 11:58:45.48,76,-327,-2053,10,-23,-6,-366,-723,357,544
,728,2023-10-27 11:58:45.49,59,-334,-2060,15,-42,-5,-343,-721,378,532
,729,2023-10-27 11:58:45.50,61,-341,-2045,15,-56,1,-372,-727,355,549
,730,2023-10-27 11:58:45.51,55,-342,-2043,16,-53,9,-343,-718,375,530
,731,2023-10-27 11:58:45.52,61,-326,-2038,5,-20,13,-365,-725,360,545
,732,2023-10-27 11:58:45.53,42,-333,-2006,-13,28,11,-334,-709,375,521
,733,2023-10-27 11:58:45.54,61,-345,-1992,6,38,-1,-371,-726,355,548
,734,2023-10-27 11:58:45.55,62,-325,-1996,15,67,-7,-343,-709,366,526
,735,2023-10-27 11:58:45.56,63,-333,-2013,8,96,-21,-374,-730,356,552
,736,2023-10-27 11:58:45.57,52,-335,-2037,-5,112,-28,-325,-703,378,514
,737,2023-10-27 11:58:45.58,73,-344,-2046,2,116,-35,-363,-729,366,546
,738,2023-10-27 11:58:45.59,70,-337,-2041,4,113,-40,-325,-701,376,513
,739,2023-10-27 11:58:45.60,70,-340,-2030,-4,113,-46,-375,-734,359,554
,740,2023-10-27 11:58:45.61,79,-330,-2022,-7,116,-52,-332,-697,365,514
,741,2023-10-27 11:58:45.62,81,-326,-2031,-3,108,-59,-386,-738,352,562
,742,2023-10-27 11:58:45.63,89,-329,-2032,6,93,-62,-338,-697,359,517
,743,2023-10-27 11:58:45.64,99,-320,-2033,9,76,-69,-379,-737,358,558
,744,2023-10-27 11:58:45.65,95,-319,-2035,7,67,-74,-314,-684,370,499
,745,2023-10-27 11:58:45.66,109,-315,-2042,2,50,-78,-368,-736,368,552
,746,2023-10-27 11:58:45.67,103,-311,-2038,-5,42,-86,-302,-688,386,495
,747,2023-10-27 11:58:45.68,111,-301,-2029,-12,32,-94,-348,-739,391,543
,748,2023-10-27 11:58:45.69,124,-295,-2025,-24,31,-102,-264,-656,392,460
,749,2023-10-27 11:58:45.70,128,-303,-2027,-34,30,-111,-312,-703,391,507
,750,2023-10-27 11:58:45.71,127,-299,-2044,-43,24,-119,-240,-629,389,434
,751,2023-10-27 11:58:45.72,116,-307,-2048,-54,17,-120,-314,-702,388,508
,752,2023-10-27 11:58:45.73,127,-298,-2055,-60,12,-118,-255,-636,381,445
,753,2023-10-27 11:58:45.74,122,-301,-2057,-70,3,-116,-291,-708,417,499
,754,2023-10-27 11:58:45.75,125,-307,-2053,-77,1,-107,-191,-627,436,409
,755,2023-10-27 11:58:45.76,125,-292,-2055,-82,-28,-104,-239,-700,461,469
,756,2023-10-27 11:58:45.77,131,-286,-2052,-86,-45,-94,-172,-626,454,399
,757,2023-10-27 11:58:45.78,123,-279,-2056,-93,-52,-89,-272,-715,443,493
,758,2023-10-27 11:58:45.79,113,-271,-2055,-99,-49,-85,-221,-641,420,431
,759,2023-10-27 11:58:45.80,109,-261,-2060,-98,-61,-82,-309,-728,419,518
,760,2023-10-27 11:58:45.81,117,-249,-2048,-100,-75,-79,-244,-646,402,445
,761,2023-10-27 11:58:45.82,108,-248,-2049,-100,-75,-80,-296,-732,436,514
,762,2023-10-27 11:58:45.83,104,-247,-2046,-93,-82,-85,-193,-641,448,417
,763,2023-10-27 11:58:45.84,95,-243,-2028,-89,-69,-89,-248,-730,482,489
,764,2023-10-27 11:58:45.85,110,-244,-2021,-85,-61,-94,-173,-632,459,402
,765,2023-10-27 11:58:45.86,92,-269,-1999,-69,-63,-102,-264,-729,465,496
,766,2023-10-27 11:58:45.87,87,-289,-2007,-26,-96,-105,-202,-632,430,417
,767,2023-10-27 11:58:45.88,67,-314,-2010,28,-117,-100,-306,-742,436,524
,768,2023-10-27 11:58:45.89,69,-318,-2020,73,-121,-93,-231,-645,414,438
,769,2023-10-27 11:58:45.90,76,-321,-2029,94,-106,-86,-313,-749,436,531
,770,2023-10-27 11:58:45.91,71,-326,-2041,106,-76,-84,-232,-644,412,438
,771,2023-10-27 11:58:45.92,77,-349,-2035,112,-44,-78,-333,-754,421,543
,772,2023-10-27 11:58:45.93,57,-346,-2031,118,-24,-76,-252,-646,394,449
,773,2023-10-27 11:58:45.94,55,-352,-2031,124,-10,-73,-349,-759,410,554
,774,2023-10-27 11:58:45.95,48,-345,-2035,134,-12,-70,-259,-644,385,451
,775,2023-10-27 11:58:45.96,37,-350,-2041,136,-25,-68,-351,-758,407,554
,776,2023-10-27 11:58:45.97,44,-344,-2047,123,-29,-63,-264,-643,379,453
,777,2023-10-27 11:58:45.98,36,-340,-2052,98,-18,-62,-376,-765,389,570
,778,2023-10-27 11:58:45.99,38,-344,-2047,58,-3,-56,-287,-648,361,467
,779,2023-10-27 11:58:46.00,34,-345,-2038,22,8,-51,-375,-769,394,572
,780,2023-10-27 11:58:46.01,28,-340,-2038,-11,16,-47,-270,-640,370,455
,781,2023-10-27 11:58:46.02,34,-338,-2022,-34,6,-41,-365,-762,397,563
,782,2023-10-27 11:58:46.03,44,-334,-2016,-40,-2,-34,-268,-637,369,452
,783,2023-10-27 11:58:46.04,64,-309,-2009,-33,5,-31,-370,-767,397,568
,784,2023-10-27 11:58:46.05,65,-292,-2021,-18,17,-35,-274,-640,366,457
,785,2023-10-27 11:58:46.06,97,-278,-2042,-3,26,-41,-380,-774,394,577
,786,2023-10-27 11:58:46.07,96,-254,-2029,18,31,-50,-284,-644,360,464
,787,2023-10-27 11:58:46.08,124,-233,-2029,37,41,-60,-383,-773,390,578
,788,2023-10-27 11:58:46.09,115,-223,-2034,47,44,-73,-291,-646,355,468
,789,2023-10-27 11:58:46.10,128,-229,-2043,51,50,-83,-394,-783,389,588
,790,2023-10-27 11:58:46.11,121,-238,-2045,52,46,-93,-298,-654,356,476
,791,2023-10-27 11:58:46.12,125,-263,-2047,54,42,-95,-396,-784,388,590
,792,2023-10-27 11:58:46.13,122,-287,-2053,55,39,-93,-295,-646,351,470
,793,2023-10-27 11:58:46.14,124,-307,-2052,56,31,-83,-400,-783,383,591
,794,2023-10-27 11:58:46.15,115,-320,-2050,58,25,-72,-297,-647,350,472
,795,2023-10-27 11:58:46.16,129,-322,-2057,59,16,-65,-403,-790,387,596
,796,2023-10-27 11:58:46.17,128,-321,-2050,54,13,-56,-306,-651,345,478
,797,2023-10-27 11:58:46.18,134,-319,-2042,47,15,-47,-412,-789,377,600
,798,2023-10-27 11:58:46.19,150,-323,-2018,42,21,-43,-306,-646,340,476
,799,2023-10-27 11:58:46.20,156,-318,-2020,43,24,-45,-409,-789,380,599
,800,2023-10-27 11:58:46.21,142,-326,-2026,45,28,-44,-306,-647,341,476
,801,2023-10-27 11:58:46.22,120,-339,-2037,51,10,-46,-412,-791,379,601
,802,2023-10-27 11:58:46.23,124,-345,-2036,64,-17,-42,-302,-643,341,472
,803,2023-10-27 11:58:46.24,115,-361,-2036,79,-39,-38,-402,-785,383,593
,804,2023-10-27 11:58:46.25,114,-365,-2041,89,-60,-30,-288,-636,348,462
,805,2023-10-27 11:58:46.26,99,-375,-2032,95,-67,-21,-385,-779,394,582
,806,2023-10-27 11:58:46.27,95,-389,-2031,94,-78,-4,-283,-631,348,457
,807,2023-10-27 11:58:46.28,93,-400,-2040,93,-87,17,-393,-780,387,586
,808,2023-10-27 11:58:46.29,74,-385,-2030,89,-89,32,-290,-633,343,461
,809,2023-10-27 11:58:46.30,76,-384,-2024,82,-87,49,-400,-785,385,592
,810,2023-10-27 11:58:46.31,73,-368,-2019,73,-84,59,-299,-637,338,468
,811,2023-10-27 11:58:46.32,67,-369,-2030,65,-84,67,-406,-785,379,595
,812,2023-10-27 11:58:46.33,61,-370,-2035,57,-77,74,-299,-635,336,467
,813,2023-10-27 11:58:46.34,59,-360,-2041,46,-67,79,-400,-779,379,589
,814,2023-10-27 11:58:46.35,49,-360,-2026,30,-47,85,-295,-633,338,464
,815,2023-10-27 11:58:46.36,48,-363,-2032,18,-29,85,-412,-788,376,600
,816,2023-10-27 11:58:46.37,48,-369,-2009,12,-16,89,-314,-643,329,478
,817,2023-10-27 11:58:46.38,53,-372,-2013,8,-2,93,-422,-792,370,607
,818,2023-10-27 11:58:46.39,44,-373,-2011,4,7,92,-316,-645,329,480
,819,2023-10-27 11:58:46.40,54,-372,-2015,3,20,97,-413,-789,376,601
,820,2023-10-27 11:58:46.41,58,-362,-2005,-4,33,93,-302,-640,338,471
,821,2023-10-27 11:58:46.42,50,-356,-2016,-14,33,88,-399,-783,384,591
,822,2023-10-27 11:58:46.43,67,-323,-2039,-25,34,82,-298,-639,341,468
,823,2023-10-27 11:58:46.44,71,-304,-2022,-61,69,70,-398,-782,384,590
,824,2023-10-27 11:58:46.45,71,-297,-2040,-96,90,53,-298,-640,342,469
,825,2023-10-27 11:58:46.46,81,-311,-2041,-111,92,42,-398,-784,386,591
,826,2023-10-27 11:58:46.47,75,-302,-2035,-108,82,31,-300,-647,347,473
,827,2023-10-27 11:58:46.48,100,-308,-2032,-96,56,18,-400,-787,387,593
,828,2023-10-27 11:58:46.49,103,-298,-2024,-85,48,9,-296,-641,345,468
,829,2023-10-27 11:58:46.50,96,-301,-2016,-76,58,-3,-398,-789,391,593
,830,2023-10-27 11:58:46.51,106,-307,-2017,-68,57,-15,-306,-655,349,480
,831,2023-10-27 11:58:46.52,102,-306,-2030,-56,54,-23,-412,-800,388,606
,832,2023-10-27 11:58:46.53,110,-309,-2036,-42,47,-26,-316,-663,347,489
,833,2023-10-27 11:58:46.54,100,-325,-2039,-28,37,-27,-409,-796,387,602
,834,2023-10-27 11:58:46.55,115,-309,-2058,-11,18,-24,-323,-664,341,493
,835,2023-10-27 11:58:46.56,113,-311,-2061,-5,12,-23,-398,-786,388,592
,836,2023-10-27 11:58:46.57,120,-302,-2056,-8,9,-20,-305,-651,346,478
,837,2023-10-27 11:58:46.58,105,-305,-2051,-11,6,-17,-389,-780,391,584
,838,2023-10-27 11:58:46.59,121,-306,-2041,-5,-12,-14,-309,-657,348,483
,839,2023-10-27 11:58:46.60,110,-307,-2038,3,-27,-10,-398,-784,386,591
,840,2023-10-27 11:58:46.61,122,-297,-2033,3,-17,-6,-323,-664,341,493
,841,2023-10-27 11:58:46.62,116,-300,-2039,-1,-8,-5,-413,-791,378,602
,842,2023-10-27 11:58:46.63,107,-301,-2048,0,-7,1,-328,-669,341,498
,843,2023-10-27 11:58:46.64,100,-315,-2052,10,-12,0,-399,-784,385,591
,844,2023-10-27 11:58:46.65,94,-332,-2048,19,-21,8,-318,-667,349,492
,845,2023-10-27 11:58:46.66,92,-340,-2044,31,-33,16,-389,-777,388,583
,846,2023-10-27 11:58:46.67,88,-345,-2048,48,-42,26,-315,-662,347,488
,847,2023-10-27 11:58:46.68,75,-352,-2033,58,-51,34,-382,-773,391,577
,848,2023-10-27 11:58:46.69,72,-354,-2026,67,-54,47,-314,-665,351,489
,849,2023-10-27 11:58:46.70,67,-362,-2025,74,-54,54,-382,-769,387,575
,850,2023-10-27 11:58:46.71,70,-352,-2020,77,-47,63,-314,-660,346,487
,851,2023-10-27 11:58:46.72,67,-347,-2020,69,-29,72,-380,-764,384,572
,852,2023-10-27 11:58:46.73,71,-348,-2022,59,-16,73,-328,-669,341,498
,853,2023-10-27 11:58:46.74,69,-343,-2027,50,-9,76,-392,-768,376,580
,854,2023-10-27 11:58:46.75,65,-345,-2022,42,-4,75,-334,-674,340,504
,855,2023-10-27 11:58:46.76,56,-335,-2024,31,1,69,-385,-765,380,575
,856,2023-10-27 11:58:46.77,63,-329,-2027,18,5,63,-326,-673,347,499
,857,2023-10-27 11:58:46.78,64,-331,-2023,8,9,54,-374,-758,384,566
,858,2023-10-27 11:58:46.79,58,-329,-2021,1,5,48,-330,-674,344,502
,859,2023-10-27 11:58:46.80,63,-331,-2030,-2,-1,39,-379,-758,379,568
,860,2023-10-27 11:58:46.81,52,-329,-2030,-5,-5,30,-335,-678,343,506
,861,2023-10-27 11:58:46.82,66,-328,-2031,-7,-11,23,-375,-757,382,566
,862,2023-10-27 11:58:46.83,61,-330,-2027,-6,-18,14,-339,-683,344,511
,863,2023-10-27 11:58:46.84,47,-323,-2026,-5,-18,11,-380,-759,379,569
,864,2023-10-27 11:58:46.85,66,-325,-2020,-12,-8,6,-346,-688,342,517
,865,2023-10-27 11:58:46.86,69,-328,-2031,-16,3,2,-384,-758,374,571
,866,2023-10-27 11:58:46.87,70,-329,-2036,-17,9,0,-355,-695,340,525
,867,2023-10-27 11:58:46.88,62,-332,-2028,-16,14,4,-384,-758,374,571
,868,2023-10-27 11:58:46.89,67,-327,-2028,-17,22,2,-352,-697,345,524
,869,2023-10-27 11:58:46.90,74,-323,-2027,-16,30,5,-363,-747,384,555
,870,2023-10-27 11:58:46.91,78,-328,-2033,-13,36,8,-349,-697,348,523
,871,2023-10-27 11:58:46.92,79,-324,-2041,-13,38,7,-373,-749,376,561
,872,2023-10-27 11:58:46.93,84,-322,-2037,-13,40,7,-364,-710,346,537
,873,2023-10-27 11:58:46.94,75,-318,-2035,-12,41,6,-374,-747,373,560
,874,2023-10-27 11:58:46.95,91,-322,-2032,-11,35,3,-356,-702,346,529
,875,2023-10-27 11:58:46.96,86,-323,-2032,-7,30,1,-366,-740,374,553
,876,2023-10-27 11:58:46.97,85,-323,-2034,-4,18,-3,-343,-700,357,521
,877,2023-10-27 11:58:46.98,96,-319,-2043,1,10,-4,-348,-733,385,540
,878,2023-10-27 11:58:46.99,81,-312,-2050,-1,2,-7,-340,-700,360,520
,879,2023-10-27 11:58:47.00,83,-313,-2042,-6,-5,-9,-347,-731,384,539
,880,2023-10-27 11:58:47.01,79,-327,-2047,-10,-5,-9,-348,-703,355,525
,881,2023-10-27 11:58:47.02,92,-325,-2038,-10,-12,-7,-347,-727,380,537
,882,2023-10-27 11:58:47.03,93,-320,-2036,-10,-14,-10,-356,-706,350,531
,883,2023-10-27 11:58:47.04,85,-313,-2029,-11,-7,-9,-352,-724,372,538
,884,2023-10-27 11:58:47.05,88,-314,-2028,-11,-8,-9,-361,-714,353,537
,885,2023-10-27 11:58:47.06,87,-319,-2035,-8,-6,-8,-353,-722,369,537
,886,2023-10-27 11:58:47.07,89,-309,-2036,-5,-4,-9,-364,-711,347,537
,887,2023-10-27 11:58:47.08,83,-314,-2029,-3,-1,-11,-350,-718,368,534
,888,2023-10-27 11:58:47.09,83,-319,-2028,3,2,-8,-371,-715,344,543
,889,2023-10-27 11:58:47.10,87,-323,-2034,6,4,-8,-350,-713,363,531
,890,2023-10-27 11:58:47.11,74,-329,-2041,11,-5,-7,-367,-718,351,542
,891,2023-10-27 11:58:47.12,90,-330,-2036,20,-16,-3,-344,-711,367,527
,892,2023-10-27 11:58:47.13,71,-333,-2033,28,-23,0,-368,-718,350,543
,893,2023-10-27 11:58:47.14,76,-342,-2029,30,-36,6,-342,-706,364,524
,894,2023-10-27 11:58:47.15,74,-341,-2038,34,-42,12,-376,-722,346,549
,895,2023-10-27 11:58:47.16,61,-352,-2037,34,-52,20,-346,-703,357,524
,896,2023-10-27 11:58:47.17,67,-345,-2042,32,-57,30,-382,-726,344,554
,897,2023-10-27 11:58:47.18,65,-345,-2036,25,-58,36,-346,-705,359,525
,898,2023-10-27 11:58:47.19,60,-344,-2032,17,-60,45,-385,-731,346,558
,899,2023-10-27 11:58:47.20,54,-341,-2027,10,-58,48,-344,-700,356,522
,900,2023-10-27 11:58:47.21,57,-331,-2025,8,-54,52,-385,-733,348,559
,901,2023-10-27 11:58:47.22,47,-326,-2018,6,-51,54,-348,-702,354,525
,902,2023-10-27 11:58:47.23,55,-322,-2019,6,-48,51,-401,-741,340,571
,903,2023-10-27 11:58:47.24,49,-314,-2019,9,-42,49,-356,-702,346,529
,904,2023-10-27 11:58:47.25,57,-313,-2019,7,-28,41,-414,-751,337,582
,905,2023-10-27 11:58:47.26,57,-313,-2017,0,-14,35,-364,-704,340,534
,906,2023-10-27 11:58:47.27,56,-312,-2030,-3,6,26,-410,-750,340,580
,907,2023-10-27 11:58:47.28,52,-318,-2017,-2,12,19,-352,-699,347,525
,908,2023-10-27 11:58:47.29,41,-316,-2024,2,14,13,-408,-751,343,579
,909,2023-10-27 11:58:47.30,52,-312,-2028,8,11,5,-348,-691,343,519
,910,2023-10-27 11:58:47.31,61,-307,-2030,5,17,2,-400,-747,347,573
,911,2023-10-27 11:58:47.32,57,-306,-2028,-3,27,-4,-352,-694,342,523
,912,2023-10-27 11:58:47.33,60,-314,-2029,-9,36,-12,-420,-758,338,589
,913,2023-10-27 11:58:47.34,61,-320,-2030,-12,39,-16,-359,-698,339,528
,914,2023-10-27 11:58:47.35,62,-316,-2031,-15,34,-16,-419,-763,344,591
,915,2023-10-27 11:58:47.36,69,-323,-2040,-15,39,-20,-348,-690,342,519
,916,2023-10-27 11:58:47.37,60,-331,-2033,-18,40,-20,-415,-761,346,588
,917,2023-10-27 11:58:47.38,71,-325,-2047,-25,43,-18,-331,-678,347,504
,918,2023-10-27 11:58:47.39,70,-323,-2037,-26,45,-15,-403,-758,355,580
,919,2023-10-27 11:58:47.40,75,-320,-2040,-31,46,-11,-329,-677,348,503
,920,2023-10-27 11:58:47.41,86,-316,-2040,-41,42,-10,-406,-761,355,583
,921,2023-10-27 11:58:47.42,81,-316,-2034,-42,42,-8,-327,-674,347,500
,922,2023-10-27 11:58:47.43,84,-303,-2035,-45,36,-6,-410,-766,356,588
,923,2023-10-27 11:58:47.44,88,-301,-2030,-44,31,-6,-331,-676,345,503
,924,2023-10-27 11:58:47.45,77,-294,-2037,-39,24,-7,-413,-768,355,590
,925,2023-10-27 11:58:47.46,87,-297,-2040,-33,21,-10,-327,-675,348,501
,926,2023-10-27 11:58:47.47,88,-299,-2041,-31,16,-14,-418,-774,356,596
,927,2023-10-27 11:58:47.48,82,-305,-2044,-22,10,-15,-333,-674,341,503
,928,2023-10-27 11:58:47.49,82,-300,-2040,-11,6,-15,-422,-772,350,597
,929,2023-10-27 11:58:47.50,88,-310,-2031,-2,3,-17,-332,-670,338,501
,930,2023-10-27 11:58:47.51,92,-312,-2038,8,0,-14,-419,-771,352,595
,931,2023-10-27 11:58:47.52,88,-308,-2031,12,-2,-20,-324,-662,338,493
,932,2023-10-27 11:58:47.53,88,-306,-2034,19,-3,-16,-418,-775,357,596
,933,2023-10-27 11:58:47.54,90,-312,-2033,22,-2,-15,-332,-668,336,500
,934,2023-10-27 11:58:47.55,88,-320,-2035,19,1,-18,-430,-780,350,605
,935,2023-10-27 11:58:47.56,86,-326,-2041,20,0,-13,-327,-660,333,493
,936,2023-10-27 11:58:47.57,80,-322,-2032,21,-2,-10,-425,-777,352,601
,937,2023-10-27 11:58:47.58,80,-317,-2044,18,0,-7,-328,-660,332,494
,938,2023-10-27 11:58:47.59,83,-325,-2038,17,-1,-5,-427,-776,349,601
,939,2023-10-27 11:58:47.60,75,-323,-2037,18,-4,-1,-328,-657,329,492
,940,2023-10-27 11:58:47.61,82,-316,-2031,19,-3,3,-441,-785,344,613
,941,2023-10-27 11:58:47.62,82,-320,-2034,18,1,5,-345,-662,317,503
,942,2023-10-27 11:58:47.63,79,-313,-2044,16,-1,1,-450,-787,337,618
,943,2023-10-27 11:58:47.64,84,-315,-2050,15,-5,4,-341,-658,317,499
,944,2023-10-27 11:58:47.65,63,-319,-2041,12,-7,5,-440,-785,345,612
,945,2023-10-27 11:58:47.66,72,-312,-2037,9,-14,6,-327,-653,326,490
,946,2023-10-27 11:58:47.67,77,-316,-2039,4,-10,11,-421,-778,357,599
,947,2023-10-27 11:58:47.68,72,-315,-2032,-2,-2,11,-313,-647,334,480
,948,2023-10-27 11:58:47.69,64,-324,-2022,-8,2,16,-420,-780,360,600
,949,2023-10-27 11:58:47.70,64,-323,-2023,-3,-2,21,-311,-642,331,476
,950,2023-10-27 11:58:47.71,57,-316,-2021,2,2,25,-409,-774,365,591
,951,2023-10-27 11:58:47.72,68,-312,-2031,2,7,28,-289,-632,343,460
,952,2023-10-27 11:58:47.73,73,-315,-2040,3,9,27,-409,-776,367,592
,953,2023-10-27 11:58:47.74,74,-308,-2042,2,16,25,-300,-635,335,467
,954,2023-10-27 11:58:47.75,87,-315,-2037,6,15,25,-407,-780,373,593
,955,2023-10-27 11:58:47.76,80,-314,-2037,8,13,23,-293,-635,342,464
,956,2023-10-27 11:58:47.77,70,-309,-2034,7,18,19,-410,-777,367,593
,957,2023-10-27 11:58:47.78,82,-315,-2033,5,22,16,-305,-634,329,469
,958,2023-10-27 11:58:47.79,79,-318,-2035,8,16,15,-420,-781,361,600
,959,2023-10-27 11:58:47.80,78,-319,-2030,10,6,17,-314,-641,327,477
,960,2023-10-27 11:58:47.81,70,-316,-2036,12,9,17,-433,-789,356,611
,961,2023-10-27 11:58:47.82,74,-311,-2041,4,13,18,-318,-642,324,480
,962,2023-10-27 11:58:47.83,73,-319,-2031,-3,18,17,-437,-793,356,615
,963,2023-10-27 11:58:47.84,70,-314,-2030,-6,21,16,-327,-646,319,486
,964,2023-10-27 11:58:47.85,84,-311,-2032,-3,26,16,-434,-789,355,611
,965,2023-10-27 11:58:47.86,76,-305,-2035,-5,29,12,-318,-641,323,479
,966,2023-10-27 11:58:47.87,95,-305,-2025,-8,28,9,-433,-791,358,612
,967,2023-10-27 11:58:47.88,72,-311,-2027,-1,24,5,-322,-647,325,484
,968,2023-10-27 11:58:47.89,76,-306,-2040,-1,21,1,-432,-793,361,612
,969,2023-10-27 11:58:47.90,76,-295,-2044,-4,24,-7,-320,-647,327,483
,970,2023-10-27 11:58:47.91,93,-306,-2034,-7,23,-12,-433,-794,361,613
,971,2023-10-27 11:58:47.92,94,-306,-2037,-12,26,-14,-319,-646,327,482
,972,2023-10-27 11:58:47.93,87,-301,-2041,-13,30,-20,-416,-789,373,602
,973,2023-10-27 11:58:47.94,96,-302,-2040,-18,30,-23,-303,-643,340,473
,974,2023-10-27 11:58:47.95,98,-299,-2039,-16,32,-26,-413,-792,379,602
,975,2023-10-27 11:58:47.96,86,-302,-2037,-14,31,-27,-309,-647,338,478
,976,2023-10-27 11:58:47.97,97,-310,-2038,-8,27,-26,-413,-792,379,602
,977,2023-10-27 11:58:47.98,105,-311,-2033,-1,22,-24,-305,-646,341,475
,978,2023-10-27 11:58:47.99,103,-307,-2032,2,17,-22,-411,-790,379,600
,979,2023-10-27 11:58:48.00,100,-307,-2034,5,15,-17,-304,-643,339,473
,980,2023-10-27 11:58:48.01,93,-316,-2037,9,13,-12,-406,-789,383,597
,981,2023-10-27 11:58:48.02,92,-314,-2037,10,11,-4,-301,-646,345,473
,982,2023-10-27 11:58:48.03,87,-318,-2044,14,8,3,-402,-786,384,594
,983,2023-10-27 11:58:48.04,86,-310,-2040,14,1,7,-298,-640,342,469
,984,2023-10-27 11:58:48.05,94,-305,-2041,15,-5,14,-400,-783,383,591
,985,2023-10-27 11:58:48.06,86,-318,-2027,17,-8,19,-305,-642,337,473
,986,2023-10-27 11:58:48.07,89,-309,-2029,16,-4,21,-405,-785,380,595
,987,2023-10-27 11:58:48.08,95,-307,-2037,14,-4,21,-307,-644,337,475
,988,2023-10-27 11:58:48.09,86,-302,-2028,12,-1,18,-411,-788,377,599
,989,2023-10-27 11:58:48.10,90,-306,-2033,15,1,16,-316,-648,332,482
,990,2023-10-27 11:58:48.11,95,-308,-2042,15,1,13,-418,-789,371,603
,991,2023-10-27 11:58:48.12,100,-308,-2038,13,-3,11,-326,-655,329,490
,992,2023-10-27 11:58:48.13,95,-315,-2038,16,-2,9,-416,-787,371,601
,993,2023-10-27 11:58:48.14,94,-308,-2039,18,-3,6,-332,-658,326,495
,994,2023-10-27 11:58:48.15,86,-310,-2040,15,-3,3,-422,-789,367,605
,995,2023-10-27 11:58:48.16,97,-308,-2040,13,-5,0,-330,-663,333,496
,996,2023-10-27 11:58:48.17,84,-311,-2039,13,-6,0,-415,-788,373,601
,997,2023-10-27 11:58:48.18,98,-314,-2029,13,-13,2,-319,-654,335,486
,998,2023-10-27 11:58:48.19,88,-316,-2033,16,-12,4,-402,-777,375,589
,999,2023-10-27 11:58:48.20,91,-312,-2031,13,-7,4,-317,-653,336,485
,1000,2023-10-27 11:58:48.21,89,-316,-2036,9,-2,6,-412,-782,370,597
,1001,2023-10-27 11:58:48.22,75,-317,-2053,7,-6,10,-347,-671,324,509
,1002,2023-10-27 11:58:48.23,77,-316,-2048,5,-12,18,-422,-789,367,605
,1003,2023-10-27 11:58:48.24,75,-311,-2024,2,-11,20,-339,-675,336,507
,1004,2023-10-27 11:58:48.25,76,-311,-2019,-2,-1,24,-414,-789,375,601
,1005,2023-10-27 11:58:48.26,72,-308,-2022,-6,6,22,-336,-671,335,503
,1006,2023-10-27 11:58:48.27,82,-312,-2030,-7,7,25,-409,-784,375,596
,1007,2023-10-27 11:58:48.28,79,-311,-2033,-6,8,25,-338,-672,334,505
,1008,2023-10-27 11:58:48.29,81,-301,-2038,-8,10,21,-404,-778,374,591
,1009,2023-10-27 11:58:48.30,86,-297,-2043,-15,15,20,-333,-668,335,500
,1010,2023-10-27 11:58:48.31,91,-287,-2037,-22,22,18,-398,-777,379,587
,1011,2023-10-27 11:58:48.32,79,-285,-2044,-30,24,12,-335,-673,338,504
,1012,2023-10-27 11:58:48.33,87,-280,-2037,-35,26,6,-398,-775,377,586
,1013,2023-10-27 11:58:48.34,97,-281,-2033,-35,27,-2,-333,-675,342,504
,1014,2023-10-27 11:58:48.35,95,-278,-2028,-32,25,-12,-392,-775,383,583
,1015,2023-10-27 11:58:48.36,108,-289,-2025,-30,30,-25,-334,-679,345,506
,1016,2023-10-27 11:58:48.37,102,-275,-2022,-25,31,-36,-390,-769,379,579
,1017,2023-10-27 11:58:48.38,96,-281,-2033,-15,36,-43,-336,-679,343,507
,1018,2023-10-27 11:58:48.39,90,-289,-2048,-16,36,-48,-391,-770,379,580
,1019,2023-10-27 11:58:48.40,96,-290,-2055,-14,33,-52,-338,-682,344,510
,1020,2023-10-27 11:58:48.41,96,-290,-2052,-14,25,-51,-384,-765,381,574
,1021,2023-10-27 11:58:48.42,94,-288,-2046,-16,17,-53,-339,-687,348,513
,1022,2023-10-27 11:58:48.43,95,-287,-2044,-16,10,-53,-386,-765,379,575
,1023,2023-10-27 11:58:48.44,94,-288,-2046,-17,5,-56,-342,-686,344,514
,1024,2023-10-27 11:58:48.45,106,-293,-2047,-15,-2,-57,-380,-757,377,568
,1025,2023-10-27 11:58:48.46,94,-298,-2036,-9,-10,-58,-337,-687,350,512
,1026,2023-10-27 11:58:48.47,91,-305,-2038,-1,-17,-54,-376,-756,380,566
,1027,2023-10-27 11:58:48.48,85,-314,-2043,5,-24,-50,-339,-688,349,513
,1028,2023-10-27 11:58:48.49,89,-318,-2038,9,-27,-42,-365,-746,381,555
,1029,2023-10-27 11:58:48.50,85,-319,-2026,14,-26,-30,-334,-688,354,511
,1030,2023-10-27 11:58:48.51,77,-321,-2015,16,-18,-15,-362,-744,382,553
,1031,2023-10-27 11:58:48.52,81,-317,-2014,18,-12,-5,-342,-692,350,517
,1032,2023-10-27 11:58:48.53,79,-323,-2010,25,-9,8,-362,-743,381,552
,1033,2023-10-27 11:58:48.54,78,-327,-2019,32,-7,14,-337,-686,349,511
,1034,2023-10-27 11:58:48.55,76,-322,-2020,38,-4,24,-364,-736,372,550
,1035,2023-10-27 11:58:48.56,78,-319,-2032,42,5,30,-349,-693,344,521
,1036,2023-10-27 11:58:48.57,76,-324,-2034,42,13,36,-368,-742,374,555
,1037,2023-10-27 11:58:48.58,82,-320,-2035,40,21,44,-360,-701,341,530
,1038,2023-10-27 11:58:48.59,69,-314,-2042,31,35,48,-371,-736,365,553
,1039,2023-10-27 11:58:48.60,81,-302,-2045,22,47,48,-365,-703,338,534
,1040,2023-10-27 11:58:48.61,90,-295,-2035,7,63,45,-371,-737,366,554
,1041,2023-10-27 11:58:48.62,107,-280,-2023,-7,78,35,-368,-709,341,538
,1042,2023-10-27 11:58:48.63,112,-270,-2020,-13,98,21,-368,-731,363,549
,1043,2023-10-27 11:58:48.64,113,-272,-2029,-16,107,1,-370,-711,341,540
,1044,2023-10-27 11:58:48.65,118,-280,-2041,-12,100,-14,-369,-731,362,550
,1045,2023-10-27 11:58:48.66,121,-282,-2052,0,83,-27,-376,-718,342,547
,1046,2023-10-27 11:58:48.67,129,-278,-2052,-2,65,-41,-367,-729,362,548
,1047,2023-10-27 11:58:48.68,138,-294,-2054,0,53,-47,-373,-720,347,546
,1048,2023-10-27 11:58:48.69,123,-290,-2052,-7,45,-53,-362,-726,364,544
,1049,2023-10-27 11:58:48.70,122,-297,-2052,-17,37,-54,-379,-722,343,550
,1050,2023-10-27 11:58:48.71,112,-309,-2054,-18,24,-50,-364,-720,356,542
,1051,2023-10-27 11:58:48.72,126,-321,-2039,-19,9,-43,-382,-726,344,554
,1052,2023-10-27 11:58:48.73,126,-320,-2042,-19,-2,-33,-361,-718,357,539
,1053,2023-10-27 11:58:48.74,94,-322,-2040,-13,-4,-20,-384,-727,343,555
,1054,2023-10-27 11:58:48.75,112,-314,-2050,-16,1,-7,-357,-714,357,535
,1055,2023-10-27 11:58:48.76,100,-321,-2038,-18,3,6,-385,-733,348,559
,1056,2023-10-27 11:58:48.77,111,-319,-2038,-14,9,19,-356,-713,357,534
,1057,2023-10-27 11:58:48.78,112,-304,-2029,-10,13,27,-387,-731,344,559
,1058,2023-10-27 11:58:48.79,104,-297,-2030,-5,13,27,-353,-706,353,529
,1059,2023-10-27 11:58:48.80,110,-291,-2027,4,4,29,-391,-738,347,564
,1060,2023-10-27 11:58:48.81,121,-280,-2024,13,8,26,-357,-708,351,532
,1061,2023-10-27 11:58:48.82,102,-287,-2033,15,20,24,-398,-741,343,569
,1062,2023-10-27 11:58:48.83,105,-283,-2034,23,12,20,-356,-704,348,530
,1063,2023-10-27 11:58:48.84,117,-286,-2034,31,9,19,-409,-748,339,578
,1064,2023-10-27 11:58:48.85,111,-282,-2026,30,20,17,-362,-706,344,534
,1065,2023-10-27 11:58:48.86,97,-285,-2035,21,29,12,-403,-747,344,575
,1066,2023-10-27 11:58:48.87,110,-297,-2036,12,30,11,-344,-698,354,521
,1067,2023-10-27 11:58:48.88,105,-303,-2038,13,30,11,-397,-745,348,571
,1068,2023-10-27 11:58:48.89,121,-299,-2032,13,29,12,-338,-690,352,514
,1069,2023-10-27 11:58:48.90,122,-291,-2031,4,39,11,-384,-741,357,562
,1070,2023-10-27 11:58:48.91,121,-291,-2028,-4,51,10,-321,-685,364,503
,1071,2023-10-27 11:58:48.92,124,-297,-2032,-6,56,11,-388,-747,359,567
,1072,2023-10-27 11:58:48.93,124,-296,-2040,-10,57,8,-329,-684,355,506
,1073,2023-10-27 11:58:48.94,129,-296,-2039,-11,55,5,-391,-749,358,570
,1074,2023-10-27 11:58:48.95,126,-283,-2049,-7,42,1,-318,-678,360,498
,1075,2023-10-27 11:58:48.96,138,-291,-2038,-4,32,-1,-395,-755,360,575
,1076,2023-10-27 11:58:48.97,138,-290,-2052,-5,22,-2,-332,-683,351,507
,1077,2023-10-27 11:58:48.98,128,-293,-2039,-6,12,-3,-403,-762,359,582
,1078,2023-10-27 11:58:48.99,136,-291,-2048,-7,0,-4,-328,-680,352,504
,1079,2023-10-27 11:58:49.00,135,-292,-2054,-5,-14,-2,-404,-760,356,582
,1080,2023-10-27 11:58:49.01,131,-274,-2056,-3,-27,-2,-334,-681,347,507
,1081,2023-10-27 11:58:49.02,146,-270,-2059,-4,-36,-5,-403,-761,358,582
,1082,2023-10-27 11:58:49.03,132,-265,-2047,-13,-26,-5,-320,-674,354,497
,1083,2023-10-27 11:58:49.04,121,-267,-2046,-18,-25,-8,-399,-763,364,581
,1084,2023-10-27 11:58:49.05,114,-277,-2043,-15,-30,-9,-318,-671,353,494
,1085,2023-10-27 11:58:49.06,124,-271,-2044,-11,-39,-8,-400,-763,363,581
,1086,2023-10-27 11:58:49.07,121,-291,-2038,-4,-48,-5,-315,-668,353,491
,1087,2023-10-27 11:58:49.08,98,-306,-2039,11,-67,1,-402,-767,365,584
,1088,2023-10-27 11:58:49.09,75,-312,-2037,29,-86,13,-316,-666,350,491
,1089,2023-10-27 11:58:49.10,72,-315,-2026,46,-94,28,-405,-769,364,587
,1090,2023-10-27 11:58:49.11,90,-312,-2019,51,-91,41,-312,-666,354,489
,1091,2023-10-27 11:58:49.12,81,-321,-2018,50,-75,54,-397,-769,372,583
,1092,2023-10-27 11:58:49.13,81,-316,-2020,49,-57,62,-301,-657,356,479
,1093,2023-10-27 11:58:49.14,73,-305,-2019,44,-41,71,-391,-767,376,579
,1094,2023-10-27 11:58:49.15,74,-297,-2016,39,-21,77,-301,-656,355,478
,1095,2023-10-27 11:58:49.16,71,-291,-2012,32,-1,78,-394,-770,376,582
,1096,2023-10-27 11:58:49.17,90,-288,-2033,26,14,78,-293,-650,357,471
,1097,2023-10-27 11:58:49.18,80,-289,-2039,21,26,70,-384,-765,381,574
,1098,2023-10-27 11:58:49.19,81,-272,-2045,17,28,61,-288,-647,359,467
,1099,2023-10-27 11:58:49.20,95,-278,-2046,13,28,48,-390,-769,379,579
,1100,2023-10-27 11:58:49.21,96,-286,-2052,12,28,37,-293,-648,355,470
,1101,2023-10-27 11:58:49.22,95,-285,-2041,14,25,24,-400,-776,376,588
,1102,2023-10-27 11:58:49.23,101,-285,-2036,17,23,10,-300,-651,351,475
,1103,2023-10-27 11:58:49.24,106,-291,-2028,22,28,-3,-401,-776,375,588
,1104,2023-10-27 11:58:49.25,109,-290,-2033,24,29,-13,-292,-646,354,469
,1105,2023-10-27 11:58:49.26,107,-294,-2036,24,29,-23,-394,-773,379,583
,1106,2023-10-27 11:58:49.27,102,-296,-2042,23,25,-29,-290,-642,352,466
,1107,2023-10-27 11:58:49.28,103,-306,-2042,20,18,-30,-404,-777,373,590
,1108,2023-10-27 11:58:49.29,101,-303,-2047,17,10,-29,-309,-653,344,481
,1109,2023-10-27 11:58:49.30,97,-312,-2039,13,7,-23,-420,-789,369,604
,1110,2023-10-27 11:58:49.31,110,-322,-2035,6,9,-16,-308,-652,344,480
,1111,2023-10-27 11:58:49.32,100,-323,-2026,4,6,-7,-408,-786,378,597
,1112,2023-10-27 11:58:49.33,104,-322,-2017,2,11,5,-299,-649,350,474
,1113,2023-10-27 11:58:49.34,104,-319,-2031,-1,25,13,-406,-787,381,596
,1114,2023-10-27 11:58:49.35,131,-303,-2019,-6,45,17,-295,-643,348,469
,1115,2023-10-27 11:58:49.36,140,-285,-2018,-15,78,21,-398,-778,380,588
,1116,2023-10-27 11:58:49.37,149,-269,-2028,-33,113,10,-295,-645,350,470
,1117,2023-10-27 11:58:49.38,151,-268,-2033,-44,130,-2,-405,-786,381,595
,1118,2023-10-27 11:58:49.39,158,-283,-2048,-42,123,-12,-290,-643,353,466
,1119,2023-10-27 11:58:49.40,144,-286,-2044,-28,100,-15,-395,-780,385,587
,1120,2023-10-27 11:58:49.41,156,-292,-2047,-11,75,-21,-290,-641,351,465
,1121,2023-10-27 11:58:49.42,148,-303,-2040,-3,57,-23,-414,-791,377,602
,1122,2023-10-27 11:58:49.43,142,-314,-2054,4,41,-20,-303,-643,340,473
,1123,2023-10-27 11:58:49.44,132,-302,-2067,3,24,-12,-408,-786,378,597
,1124,2023-10-27 11:58:49.45,140,-298,-2061,-1,13,-5,-293,-640,347,466
,1125,2023-10-27 11:58:49.46,142,-297,-2054,-10,3,3,-406,-785,379,595
,1126,2023-10-27 11:58:49.47,158,-291,-2037,-20,-9,5,-297,-636,339,466
,1127,2023-10-27 11:58:49.48,152,-277,-2038,-21,-26,6,-408,-785,377,596
,1128,2023-10-27 11:58:49.49,147,-282,-2042,-26,-32,8,-298,-638,340,468
,1129,2023-10-27 11:58:49.50,137,-290,-2054,-24,-47,12,-412,-786,374,599
,1130,2023-10-27 11:58:49.51,143,-287,-2058,-24,-62,16,-304,-639,335,471
,1131,2023-10-27 11:58:49.52,141,-283,-2065,-21,-65,23,-414,-784,370,599
,1132,2023-10-27 11:58:49.53,135,-290,-2057,-24,-59,30,-308,-640,332,474
,1133,2023-10-27 11:58:49.54,123,-300,-2054,-19,-68,35,-421,-789,368,605
,1134,2023-10-27 11:58:49.55,110,-310,-2039,-3,-70,43,-314,-642,328,478
,1135,2023-10-27 11:58:49.56,111,-295,-2031,17,-77,53,-419,-786,367,602
,1136,2023-10-27 11:58:49.57,113,-293,-2022,30,-76,56,-310,-643,333,476
,1137,2023-10-27 11:58:49.58,99,-294,-2029,40,-72,60,-419,-788,369,603
,1138,2023-10-27 11:58:49.59,94,-297,-2032,43,-63,63,-314,-642,328,478
,1139,2023-10-27 11:58:49.60,87,-291,-2030,44,-56,68,-419,-787,368,603
,1140,2023-10-27 11:58:49.61,81,-295,-2026,38,-46,71,-318,-648,330,483
,1141,2023-10-27 11:58:49.62,77,-296,-2028,34,-35,70,-427,-791,364,609
,1142,2023-10-27 11:58:49.63,85,-296,-2030,31,-28,71,-320,-644,324,482
,1143,2023-10-27 11:58:49.64,81,-309,-2019,32,-27,72,-418,-785,367,601
,1144,2023-10-27 11:58:49.65,84,-302,-2020,31,-25,71,-316,-645,329,480
,1145,2023-10-27 11:58:49.66,81,-306,-2016,31,-18,68,-412,-784,372,598
,1146,2023-10-27 11:58:49.67,86,-300,-2029,24,1,64,-310,-642,332,476
,1147,2023-10-27 11:58:49.68,87,-297,-2032,15,10,62,-407,-783,376,595
,1148,2023-10-27 11:58:49.69,85,-293,-2045,6,14,62,-315,-649,334,482
,1149,2023-10-27 11:58:49.70,78,-296,-2046,-2,17,61,-416,-789,373,602
,1150,2023-10-27 11:58:49.71,94,-297,-2037,-8,18,64,-320,-653,333,486
,1151,2023-10-27 11:58:49.72,107,-293,-2034,-11,23,65,-409,-789,380,599
,1152,2023-10-27 11:58:49.73,99,-287,-2025,-11,35,66,-313,-652,339,482
,1153,2023-10-27 11:58:49.74,94,-283,-2029,-14,50,63,-394,-780,386,587
,1154,2023-10-27 11:58:49.75,107,-299,-2040,-20,63,69,-298,-645,347,471
,1155,2023-10-27 11:58:49.76,118,-294,-2039,-26,72,78,-389,-780,391,584
,1156,2023-10-27 11:58:49.77,105,-290,-2054,-26,70,80,-307,-648,341,477
,1157,2023-10-27 11:58:49.78,113,-288,-2062,-33,70,89,-405,-784,379,594
,1158,2023-10-27 11:58:49.79,115,-292,-2051,-32,62,96,-326,-659,333,492
,1159,2023-10-27 11:58:49.80,124,-273,-2040,-32,60,101,-409,-788,379,598
,1160,2023-10-27 11:58:49.81,120,-268,-2044,-33,51,98,-324,-662,338,493
,1161,2023-10-27 11:58:49.82,121,-259,-2047,-31,39,99,-390,-777,387,583
,1162,2023-10-27 11:58:49.83,121,-259,-2038,-25,26,102,-307,-653,346,480
,1163,2023-10-27 11:58:49.84,137,-265,-2035,-21,15,101,-395,-776,381,585
,1164,2023-10-27 11:58:49.85,124,-260,-2029,-12,7,101,-329,-664,335,496
,1165,2023-10-27 11:58:49.86,137,-260,-2026,0,2,96,-413,-787,374,600
,1166,2023-10-27 11:58:49.87,135,-264,-2043,4,5,93,-330,-670,340,500
,1167,2023-10-27 11:58:49.88,130,-277,-2043,16,2,96,-406,-780,374,593
,1168,2023-10-27 11:58:49.89,142,-285,-2035,24,-3,92,-332,-666,334,499
,1169,2023-10-27 11:58:49.90,141,-286,-2040,36,-9,99,-395,-771,376,583
,1170,2023-10-27 11:58:49.91,130,-299,-2041,47,-9,99,-333,-670,337,501
,1171,2023-10-27 11:58:49.92,133,-297,-2054,50,-11,106,-412,-775,363,593
,1172,2023-10-27 11:58:49.93,130,-294,-2058,43,-5,109,-349,-674,325,511
,1173,2023-10-27 11:58:49.94,130,-308,-2059,41,-15,114,-396,-765,369,580
,1174,2023-10-27 11:58:49.95,126,-305,-2048,44,-22,121,-322,-666,344,494
,1175,2023-10-27 11:58:49.96,116,-300,-2041,41,-23,126,-375,-755,380,565
,1176,2023-10-27 11:58:49.97,113,-303,-2045,37,-21,130,-308,-658,350,483
,1177,2023-10-27 11:58:49.98,115,-305,-2041,30,-13,137,-328,-739,411,533
,1178,2023-10-27 11:58:49.99,108,-317,-2027,31,-20,143,-259,-646,387,452
,1179,2023-10-27 11:58:50.00,94,-321,-2028,36,-28,150,-305,-722,417,513
,1180,2023-10-27 11:58:50.01,99,-319,-2032,44,-33,155,-268,-638,370,453
,1181,2023-10-27 11:58:50.02,99,-325,-2018,49,-36,161,-321,-714,393,517
,1182,2023-10-27 11:58:50.03,95,-313,-2023,45,-31,163,-298,-653,355,475
,1183,2023-10-27 11:58:50.04,89,-300,-2033,37,-29,162,-331,-733,402,532
,1184,2023-10-27 11:58:50.05,87,-304,-2029,37,-33,162,-280,-657,377,468
,1185,2023-10-27 11:58:50.06,98,-299,-2030,35,-35,159,-309,-724,415,516
,1186,2023-10-27 11:58:50.07,108,-291,-2021,32,-45,157,-288,-659,371,473
,1187,2023-10-27 11:58:50.08,99,-289,-2025,22,-38,149,-325,-724,399,524
,1188,2023-10-27 11:58:50.09,90,-283,-2045,15,-26,146,-295,-663,368,479
,1189,2023-10-27 11:58:50.10,91,-290,-2046,13,-31,143,-317,-718,401,517
,1190,2023-10-27 11:58:50.11,86,-292,-2060,6,-33,140,-294,-662,368,478
,1191,2023-10-27 11:58:50.12,92,-288,-2060,7,-42,138,-316,-712,396,514
,1192,2023-10-27 11:58:50.13,75,-291,-2059,6,-44,135,-302,-664,362,483
,1193,2023-10-27 11:58:50.14,77,-289,-2065,1,-43,133,-323,-712,389,517
,1194,2023-10-27 11:58:50.15,71,-292,-2060,-3,-48,132,-316,-674,358,495
,1195,2023-10-27 11:58:50.16,66,-290,-2056,-2,-63,134,-333,-716,383,524
,1196,2023-10-27 11:58:50.17,68,-276,-2044,1,-69,132,-323,-679,356,501
,1197,2023-10-27 11:58:50.18,63,-282,-2034,3,-77,126,-334,-712,378,523
,1198,2023-10-27 11:58:50.19,60,-278,-2009,8,-81,123,-337,-691,354,514
,1199,2023-10-27 11:58:50.20,53,-285,-2008,17,-80,112,-347,-722,375,534
,1200,2023-10-27 11:58:50.21,64,-285,-1992,30,-71,102,-350,-699,349,524
,1201,2023-10-27 11:58:50.22,40,-284,-1990,39,-61,92,-360,-727,367,543
,1202,2023-10-27 11:58:50.23,57,-279,-1995,45,-41,82,-360,-706,346,533
,1203,2023-10-27 11:58:50.24,49,-285,-2000,45,-18,70,-353,-721,368,537
,1204,2023-10-27 11:58:50.25,55,-291,-2009,43,3,60,-356,-706,350,531
,1205,2023-10-27 11:58:50.26,58,-286,-2018,35,28,52,-351,-719,368,535
,1206,2023-10-27 11:58:50.27,52,-286,-2033,20,45,41,-370,-720,350,545
,1207,2023-10-27 11:58:50.28,51,-307,-2047,12,41,33,-347,-718,371,532
,1208,2023-10-27 11:58:50.29,64,-311,-2052,18,16,30,-355,-717,362,536
,1209,2023-10-27 11:58:50.30,75,-309,-2045,20,-2,26,-333,-711,378,522
,1210,2023-10-27 11:58:50.31,71,-311,-2041,11,0,23,-352,-714,362,533
,1211,2023-10-27 11:58:50.32,82,-304,-2056,2,7,19,-329,-704,375,516
,1212,2023-10-27 11:58:50.33,69,-309,-2062,-8,6,12,-355,-714,359,534
,1213,2023-10-27 11:58:50.34,75,-311,-2062,-9,2,13,-334,-704,370,519
,1214,2023-10-27 11:58:50.35,68,-314,-2068,-8,-3,16,-366,-721,355,543
,1215,2023-10-27 11:58:50.36,66,-318,-2058,-5,-9,18,-338,-703,365,520
,1216,2023-10-27 11:58:50.37,59,-312,-2053,-2,-22,23,-364,-724,360,544
,1217,2023-10-27 11:58:50.38,68,-314,-2027,9,-35,30,-328,-699,371,513
,1218,2023-10-27 11:58:50.39,59,-307,-2023,16,-35,38,-364,-726,362,545
,1219,2023-10-27 11:58:50.40,58,-295,-2021,21,-34,39,-325,-694,369,509
,1220,2023-10-27 11:58:50.41,56,-297,-2016,23,-31,42,-362,-728,366,545
,1221,2023-10-27 11:58:50.42,49,-294,-2018,26,-30,42,-324,-694,370,509
,1222,2023-10-27 11:58:50.43,53,-293,-2022,24,-27,41,-369,-734,365,551
,1223,2023-10-27 11:58:50.44,49,-284,-2020,22,-20,38,-324,-692,368,508
,1224,2023-10-27 11:58:50.45,42,-289,-2023,17,-8,30,-374,-740,366,557
,1225,2023-10-27 11:58:50.46,49,-291,-2022,12,3,24,-326,-691,365,508
,1226,2023-10-27 11:58:50.47,61,-288,-2031,12,12,20,-374,-738,364,556
,1227,2023-10-27 11:58:50.48,59,-285,-2031,10,17,12,-315,-682,367,498
,1228,2023-10-27 11:58:50.49,70,-304,-2042,9,17,3,-363,-738,375,550
,1229,2023-10-27 11:58:50.50,62,-300,-2041,16,11,0,-304,-678,374,491
,1230,2023-10-27 11:58:50.51,64,-309,-2037,21,4,-1,-364,-738,374,551
,1231,2023-10-27 11:58:50.52,56,-316,-2047,29,-2,0,-306,-675,369,490
,1232,2023-10-27 11:58:50.53,55,-314,-2039,31,-4,2,-375,-744,369,559
,1233,2023-10-27 11:58:50.54,67,-319,-2043,33,0,3,-309,-674,365,491
,1234,2023-10-27 11:58:50.55,72,-315,-2032,33,2,3,-374,-745,371,559
,1235,2023-10-27 11:58:50.56,74,-307,-2029,36,3,4,-301,-667,366,484
,1236,2023-10-27 11:58:50.57,67,-309,-2036,39,-3,0,-373,-745,372,559
,1237,2023-10-27 11:58:50.58,72,-308,-2028,36,-3,0,-306,-666,360,486
,1238,2023-10-27 11:58:50.59,67,-307,-2032,36,-1,-3,-362,-738,376,550
,1239,2023-10-27 11:58:50.60,64,-307,-2041,33,-3,-6,-285,-655,370,470
,1240,2023-10-27 11:58:50.61,77,-314,-2050,27,-8,-8,-365,-744,379,554
,1241,2023-10-27 11:58:50.62,66,-313,-2045,26,-17,-6,-286,-655,369,470
,1242,2023-10-27 11:58:50.63,58,-319,-2042,28,-26,-3,-369,-746,377,557
,1243,2023-10-27 11:58:50.64,70,-316,-2040,31,-32,-3,-288,-653,365,470
,1244,2023-10-27 11:58:50.65,58,-312,-2030,27,-26,-1,-384,-754,370,569
,1245,2023-10-27 11:58:50.66,61,-314,-2030,25,-14,-2,-301,-657,356,479
,1246,2023-10-27 11:58:50.67,65,-326,-2025,23,-6,1,-390,-756,366,573
,1247,2023-10-27 11:58:50.68,54,-323,-2030,21,2,1,-299,-651,352,475
,1248,2023-10-27 11:58:50.69,54,-322,-2030,24,5,1,-400,-761,361,580
,1249,2023-10-27 11:58:50.70,57,-324,-2034,24,3,1,-317,-659,342,488
,1250,2023-10-27 11:58:50.71,50,-323,-2036,25,2,0,-407,-768,361,587
,1251,2023-10-27 11:58:50.72,61,-316,-2034,24,-1,-1,-306,-656,350,481
,1252,2023-10-27 11:58:50.73,47,-320,-2043,14,4,-2,-387,-763,376,575
,1253,2023-10-27 11:58:50.74,52,-308,-2039,4,4,-6,-280,-642,362,461
,1254,2023-10-27 11:58:50.75,62,-302,-2040,-3,1,-12,-369,-754,385,561
,1255,2023-10-27 11:58:50.76,51,-313,-2034,-10,5,-13,-269,-636,367,452
,1256,2023-10-27 11:58:50.77,49,-304,-2024,-14,6,-17,-365,-753,388,559
,1257,2023-10-27 11:58:50.78,53,-309,-2023,-14,-2,-20,-263,-629,366,446
,1258,2023-10-27 11:58:50.79,51,-310,-2014,-9,-3,-19,-332,-745,413,538
,1259,2023-10-27 11:58:50.80,45,-312,-2023,-10,8,-24,-208,-615,407,411
,1260,2023-10-27 11:58:50.81,53,-317,-2025,-10,14,-24,-274,-738,464,506
,1261,2023-10-27 11:58:50.82,53,-316,-2022,-7,24,-24,-178,-607,429,392
,1262,2023-10-27 11:58:50.83,49,-324,-2023,-1,22,-21,-296,-738,442,517
,1263,2023-10-27 11:58:50.84,44,-322,-2028,8,20,-16,-217,-614,397,415
,1264,2023-10-27 11:58:50.85,64,-314,-2034,13,26,-11,-332,-750,418,541
,1265,2023-10-27 11:58:50.86,59,-321,-2040,12,30,-10,-236,-620,384,428
,1266,2023-10-27 11:58:50.87,44,-320,-2047,7,29,-7,-344,-756,412,550
,1267,2023-10-27 11:58:50.88,45,-314,-2041,5,30,-1,-246,-626,380,436
,1268,2023-10-27 11:58:50.89,50,-313,-2031,3,31,2,-366,-765,399,565
,1269,2023-10-27 11:58:50.90,52,-303,-2031,0,41,2,-262,-626,364,444
,1270,2023-10-27 11:58:50.91,59,-300,-2034,-5,45,0,-367,-763,396,565
,1271,2023-10-27 11:58:50.92,61,-296,-2037,-8,50,0,-266,-629,363,447
,1272,2023-10-27 11:58:50.93,71,-289,-2033,-11,57,-3,-357,-770,413,563
,1273,2023-10-27 11:58:50.94,61,-291,-2035,-13,65,-6,-221,-621,400,421
,1274,2023-10-27 11:58:50.95,88,-295,-2035,-16,70,-10,-270,-752,482,511
,1275,2023-10-27 11:58:50.96,85,-291,-2034,-17,74,-13,-142,-603,461,372
,1276,2023-10-27 11:58:50.97,82,-296,-2039,-17,70,-13,-195,-736,541,465
,1277,2023-10-27 11:58:50.98,79,-306,-2032,-15,67,-11,-82,-584,502,333
,1278,2023-10-27 11:58:50.99,90,-292,-2043,-13,62,-9,-144,-720,576,432
,1279,2023-10-27 11:58:51.00,96,-301,-2040,-14,58,-9,-33,-560,527,296
,1280,2023-10-27 11:58:51.01,106,-296,-2042,-14,56,-10,-111,-699,588,405
,1281,2023-10-27 11:58:51.02,103,-293,-2044,-15,49,-10,-50,-558,508,304
,1282,2023-10-27 11:58:51.03,103,-301,-2045,-16,47,-8,-183,-717,534,450
,1283,2023-10-27 11:58:51.04,104,-307,-2051,-13,42,-5,-126,-583,457,354
,1284,2023-10-27 11:58:51.05,104,-309,-2050,-11,39,3,-245,-736,491,490
,1285,2023-10-27 11:58:51.06,106,-308,-2046,-6,34,8,-167,-597,430,382
,1286,2023-10-27 11:58:51.07,100,-305,-2051,-3,33,17,-281,-748,467,514
,1287,2023-10-27 11:58:51.08,108,-314,-2042,3,27,21,-196,-606,410,401
,1288,2023-10-27 11:58:51.09,104,-302,-2042,13,23,22,-312,-757,445,534
,1289,2023-10-27 11:58:51.10,107,-303,-2047,24,15,26,-219,-610,391,414
,1290,2023-10-27 11:58:51.11,114,-302,-2037,31,11,28,-332,-759,427,545
,1291,2023-10-27 11:58:51.12,105,-308,-2043,34,10,29,-242,-616,374,429
,1292,2023-10-27 11:58:51.13,110,-316,-2036,42,5,30,-354,-767,413,560
,1293,2023-10-27 11:58:51.14,101,-313,-2036,47,-5,29,-253,-618,365,435
,1294,2023-10-27 11:58:51.15,95,-320,-2030,52,-15,34,-364,-771,407,567
,1295,2023-10-27 11:58:51.16,105,-322,-2036,52,-17,35,-268,-625,357,446
,1296,2023-10-27 11:58:51.17,94,-306,-2033,48,-17,33,-378,-772,394,575
,1297,2023-10-27 11:58:51.18,102,-315,-2036,42,-17,33,-274,-623,349,448
,1298,2023-10-27 11:58:51.19,99,-309,-2036,38,-21,31,-380,-771,391,575
,1299,2023-10-27 11:58:51.20,81,-323,-2036,36,-29,32,-284,-629,345,456
,1300,2023-10-27 11:58:51.21,74,-322,-2038,34,-39,31,-395,-776,381,585
,1301,2023-10-27 11:58:51.22,80,-328,-2035,38,-46,38,-288,-627,339,457
,1302,2023-10-27 11:58:51.23,79,-326,-2036,37,-52,42,-393,-772,379,582
,1303,2023-10-27 11:58:51.24,68,-320,-2029,33,-54,45,-299,-634,335,466
,1304,2023-10-27 11:58:51.25,70,-320,-2029,30,-52,48,-404,-776,372,590
,1305,2023-10-27 11:58:51.26,64,-325,-2020,32,-48,52,-301,-633,332,467
,1306,2023-10-27 11:58:51.27,65,-319,-2028,28,-43,54,-403,-774,371,588
,1307,2023-10-27 11:58:51.28,61,-315,-2019,25,-38,55,-308,-636,328,472
,1308,2023-10-27 11:58:51.29,66,-308,-2023,18,-31,54,-407,-773,366,590
,1309,2023-10-27 11:58:51.30,62,-305,-2033,13,-23,53,-313,-637,324,475
,1310,2023-10-27 11:58:51.31,58,-300,-2033,12,-20,54,-412,-780,368,596
,1311,2023-10-27 11:58:51.32,58,-305,-2044,10,-21,52,-324,-648,324,486
,1312,2023-10-27 11:58:51.33,66,-305,-2048,14,-21,52,-421,-785,364,603
,1313,2023-10-27 11:58:51.34,57,-293,-2038,21,-21,51,-329,-652,323,490
,1314,2023-10-27 11:58:51.35,56,-291,-2034,26,-20,48,-422,-789,367,605
,1315,2023-10-27 11:58:51.36,63,-290,-2044,27,-12,44,-326,-654,328,490
,1316,2023-10-27 11:58:51.37,62,-296,-2028,21,-3,42,-399,-774,375,586
,1317,2023-10-27 11:58:51.38,76,-299,-2033,26,5,35,-309,-644,335,476
,1318,2023-10-27 11:58:51.39,67,-302,-2039,29,11,31,-394,-771,377,582
,1319,2023-10-27 11:58:51.40,73,-303,-2037,33,14,28,-320,-650,330,485
,1320,2023-10-27 11:58:51.41,78,-309,-2036,33,13,24,-408,-771,363,589
,1321,2023-10-27 11:58:51.42,72,-314,-2036,34,16,22,-323,-659,336,491
,1322,2023-10-27 11:58:51.43,77,-320,-2040,37,16,21,-358,-775,417,566
,1323,2023-10-27 11:58:51.44,79,-329,-2037,40,14,22,-235,-652,417,443
,1324,2023-10-27 11:58:51.45,66,-326,-2034,38,11,20,-237,-754,517,495
,1325,2023-10-27 11:58:51.46,73,-333,-2024,37,10,22,-135,-629,494,382
,1326,2023-10-27 11:58:51.47,82,-332,-2029,34,11,22,-165,-733,568,449
,1327,2023-10-27 11:58:51.48,77,-329,-2026,33,14,22,-100,-619,519,359
,1328,2023-10-27 11:58:51.49,63,-325,-2018,25,15,23,-152,-717,565,434
,1329,2023-10-27 11:58:51.50,61,-330,-2025,22,18,21,-105,-606,501,355
,1330,2023-10-27 11:58:51.51,61,-329,-2026,19,20,23,-165,-705,540,435
,1331,2023-10-27 11:58:51.52,77,-328,-2031,15,22,22,-129,-607,478,368
,1332,2023-10-27 11:58:51.53,54,-328,-2032,12,26,23,-184,-700,516,442
,1333,2023-10-27 11:58:51.54,65,-323,-2038,12,25,24,-148,-608,460,378
,1334,2023-10-27 11:58:51.55,62,-328,-2036,9,25,25,-207,-704,497,455
,1335,2023-10-27 11:58:51.56,66,-322,-2033,8,26,24,-184,-620,436,402
,1336,2023-10-27 11:58:51.57,71,-326,-2033,9,28,21,-245,-710,465,477
,1337,2023-10-27 11:58:51.58,70,-317,-2027,11,33,13,-213,-630,417,421
,1338,2023-10-27 11:58:51.59,78,-314,-2025,13,41,9,-258,-714,456,486
,1339,2023-10-27 11:58:51.60,84,-313,-2012,20,46,2,-225,-634,409,429
,1340,2023-10-27 11:58:51.61,74,-321,-2016,27,45,-3,-272,-712,440,492
,1341,2023-10-27 11:58:51.62,91,-328,-2026,39,43,-9,-244,-643,399,443
,1342,2023-10-27 11:58:51.63,72,-323,-2029,48,36,-10,-282,-716,434,499
,1343,2023-10-27 11:58:51.64,90,-327,-2039,55,30,-12,-251,-646,395,448
,1344,2023-10-27 11:58:51.65,83,-333,-2044,61,23,-11,-287,-711,424,499
,1345,2023-10-27 11:58:51.66,87,-340,-2040,62,16,-11,-268,-652,384,460
,1346,2023-10-27 11:58:51.67,92,-352,-2045,69,0,-8,-305,-718,413,511
,1347,2023-10-27 11:58:51.68,93,-340,-2040,66,-5,-1,-293,-665,372,479
,1348,2023-10-27 11:58:51.69,93,-339,-2034,60,-2,-1,-320,-720,400,520
,1349,2023-10-27 11:58:51.70,84,-352,-2036,52,-7,3,-305,-671,366,488
,1350,2023-10-27 11:58:51.71,81,-350,-2031,47,-9,6,-326,-721,395,523
,1351,2023-10-27 11:58:51.72,81,-355,-2022,45,-15,10,-315,-677,362,496
,1352,2023-10-27 11:58:51.73,79,-358,-2021,46,-36,18,-333,-719,386,526
,1353,2023-10-27 11:58:51.74,69,-358,-2032,46,-40,23,-324,-680,356,502
,1354,2023-10-27 11:58:51.75,71,-357,-2034,45,-48,28,-340,-719,379,529
,1355,2023-10-27 11:58:51.76,84,-360,-2028,44,-49,33,-330,-684,354,507
,1356,2023-10-27 11:58:51.77,63,-360,-2025,42,-44,38,-338,-714,376,526
,1357,2023-10-27 11:58:51.78,62,-356,-2031,37,-41,41,-334,-687,353,510
,1358,2023-10-27 11:58:51.79,54,-347,-2024,34,-39,45,-342,-716,374,529
,1359,2023-10-27 11:58:51.80,75,-344,-2017,32,-32,46,-351,-697,346,524
,1360,2023-10-27 11:58:51.81,80,-339,-2013,27,-22,45,-349,-715,366,532
,1361,2023-10-27 11:58:51.82,61,-338,-2012,21,-11,42,-354,-699,345,526
,1362,2023-10-27 11:58:51.83,56,-335,-2020,17,-7,37,-343,-710,367,526
,1363,2023-10-27 11:58:51.84,55,-336,-2024,15,-3,31,-345,-696,351,520
,1364,2023-10-27 11:58:51.85,61,-337,-2028,13,0,26,-325,-699,374,512
,1365,2023-10-27 11:58:51.86,69,-338,-2038,12,2,21,-336,-698,362,517
,1366,2023-10-27 11:58:51.87,64,-336,-2044,10,3,19,-320,-696,376,508
,1367,2023-10-27 11:58:51.88,66,-343,-2034,6,-2,15,-337,-698,361,517
,1368,2023-10-27 11:58:51.89,67,-338,-2032,6,-1,10,-310,-688,378,499
,1369,2023-10-27 11:58:51.90,78,-337,-2026,3,3,12,-332,-698,366,515
,1370,2023-10-27 11:58:51.91,57,-339,-2029,-1,10,6,-308,-688,380,498
,1371,2023-10-27 11:58:51.92,63,-340,-2030,-4,14,2,-328,-695,367,511
,1372,2023-10-27 11:58:51.93,77,-333,-2032,-4,15,2,-299,-677,378,488
,1373,2023-10-27 11:58:51.94,79,-339,-2030,-5,16,-2,-331,-701,370,516
,1374,2023-10-27 11:58:51.95,79,-346,-2030,-3,16,-1,-295,-676,381,485
,1375,2023-10-27 11:58:51.96,70,-347,-2026,1,15,2,-329,-701,372,515
,1376,2023-10-27 11:58:51.97,83,-339,-2028,2,16,1,-288,-674,386,481
,1377,2023-10-27 11:58:51.98,91,-341,-2021,5,23,2,-330,-706,376,518
,1378,2023-10-27 11:58:51.99,93,-334,-2024,3,32,-1,-291,-671,380,481
,1379,2023-10-27 11:58:52.00,87,-332,-2034,4,35,-7,-334,-707,373,520
,1380,2023-10-27 11:58:52.01,87,-334,-2042,4,31,-10,-286,-665,379,475
,1381,2023-10-27 11:58:52.02,84,-335,-2052,14,17,-10,-337,-710,373,523
,1382,2023-10-27 11:58:52.03,81,-338,-2050,18,4,-11,-286,-664,378,475
,1383,2023-10-27 11:58:52.04,79,-349,-2045,21,-11,-9,-336,-712,376,524
,1384,2023-10-27 11:58:52.05,69,-356,-2041,29,-23,-4,-279,-661,382,470
,1385,2023-10-27 11:58:52.06,79,-363,-2039,32,-33,5,-336,-715,379,525
,1386,2023-10-27 11:58:52.07,67,-359,-2029,34,-36,10,-279,-656,377,467
,1387,2023-10-27 11:58:52.08,68,-349,-2026,30,-30,18,-337,-715,378,526
,1388,2023-10-27 11:58:52.09,70,-350,-2017,25,-21,23,-280,-654,374,467
,1389,2023-10-27 11:58:52.10,73,-349,-2014,19,-10,27,-346,-722,376,534
,1390,2023-10-27 11:58:52.11,57,-342,-2018,12,0,29,-285,-656,371,470
,1391,2023-10-27 11:58:52.12,71,-343,-2012,7,9,29,-349,-728,379,538
,1392,2023-10-27 11:58:52.13,54,-342,-2023,7,16,30,-283,-654,371,468
,1393,2023-10-27 11:58:52.14,55,-341,-2027,6,16,27,-351,-728,377,539
,1394,2023-10-27 11:58:52.15,65,-346,-2036,7,15,24,-275,-644,369,459
,1395,2023-10-27 11:58:52.16,65,-334,-2033,6,14,21,-344,-723,379,533
,1396,2023-10-27 11:58:52.17,80,-335,-2030,9,9,15,-275,-642,367,458
,1397,2023-10-27 11:58:52.18,69,-336,-2038,9,10,8,-350,-729,379,539
,1398,2023-10-27 11:58:52.19,67,-340,-2027,11,8,2,-270,-639,369,454
,1399,2023-10-27 11:58:52.20,68,-342,-2026,13,8,-4,-341,-729,388,535
,1400,2023-10-27 11:58:52.21,75,-350,-2023,15,4,-10,-266,-638,372,452
,1401,2023-10-27 11:58:52.22,74,-350,-2033,14,6,-13,-347,-730,383,538
,1402,2023-10-27 11:58:52.23,75,-356,-2032,13,7,-14,-271,-634,363,452
,1403,2023-10-27 11:58:52.24,75,-356,-2027,9,6,-13,-347,-734,387,540
,1404,2023-10-27 11:58:52.25,66,-359,-2026,6,6,-13,-265,-632,367,448
,1405,2023-10-27 11:58:52.26,81,-364,-2023,3,5,-10,-341,-731,390,536
,1406,2023-10-27 11:58:52.27,72,-369,-2021,1,5,-2,-255,-628,373,441
,1407,2023-10-27 11:58:52.28,72,-364,-2028,1,5,1,-341,-735,394,538
,1408,2023-10-27 11:58:52.29,80,-356,-2033,-3,3,7,-249,-624,375,436
,1409,2023-10-27 11:58:52.30,59,-351,-2033,-4,6,12,-334,-731,397,532
,1410,2023-10-27 11:58:52.31,76,-347,-2030,-9,7,15,-244,-622,378,433
,1411,2023-10-27 11:58:52.32,80,-345,-2033,-12,8,15,-346,-742,396,544
,1412,2023-10-27 11:58:52.33,80,-344,-2033,-14,8,17,-249,-620,371,434
,1413,2023-10-27 11:58:52.34,60,-341,-2038,-12,3,16,-342,-736,394,539
,1414,2023-10-27 11:58:52.35,75,-343,-2035,-10,-6,16,-250,-621,371,435
,1415,2023-10-27 11:58:52.36,75,-347,-2035,-6,-12,21,-353,-744,391,548
,1416,2023-10-27 11:58:52.37,78,-348,-2039,2,-16,22,-255,-619,364,437
,1417,2023-10-27 11:58:52.38,71,-342,-2023,3,-13,24,-351,-742,391,546
,1418,2023-10-27 11:58:52.39,75,-343,-2022,1,-7,23,-253,-618,365,435
,1419,2023-10-27 11:58:52.40,78,-341,-2027,-1,2,23,-356,-744,388,550
,1420,2023-10-27 11:58:52.41,72,-348,-2027,-3,7,21,-254,-615,361,434
,1421,2023-10-27 11:58:52.42,77,-342,-2031,-4,12,19,-357,-749,392,553
,1422,2023-10-27 11:58:52.43,75,-344,-2027,-5,16,16,-256,-617,361,436
,1423,2023-10-27 11:58:52.44,69,-342,-2030,-4,15,16,-358,-748,390,553
,1424,2023-10-27 11:58:52.45,79,-346,-2037,-2,10,16,-256,-615,359,435
,1425,2023-10-27 11:58:52.46,78,-348,-2034,-1,7,14,-362,-755,393,558
,1426,2023-10-27 11:58:52.47,81,-344,-2031,0,0,13,-261,-620,359,440
,1427,2023-10-27 11:58:52.48,84,-347,-2038,-1,-3,13,-367,-756,389,561
,1428,2023-10-27 11:58:52.49,73,-342,-2033,0,-10,11,-259,-614,355,436
,1429,2023-10-27 11:58:52.50,72,-344,-2037,1,-12,12,-370,-753,383,561
,1430,2023-10-27 11:58:52.51,77,-337,-2032,3,-20,13,-264,-608,344,436
,1431,2023-10-27 11:58:52.52,76,-344,-2033,4,-21,14,-374,-743,369,558
,1432,2023-10-27 11:58:52.53,75,-346,-2034,6,-23,15,-264,-598,334,431
,1433,2023-10-27 11:58:52.54,68,-347,-2047,10,-23,19,-370,-735,365,552
,1434,2023-10-27 11:58:52.55,69,-350,-2034,16,-28,26,-259,-587,328,423
,1435,2023-10-27 11:58:52.56,61,-349,-2034,19,-29,30,-362,-728,366,545
,1436,2023-10-27 11:58:52.57,55,-350,-2032,23,-29,37,-256,-585,329,420
,1437,2023-10-27 11:58:52.58,67,-343,-2024,23,-21,42,-361,-730,369,545
,1438,2023-10-27 11:58:52.59,54,-347,-2018,21,-14,47,-249,-584,335,416
,1439,2023-10-27 11:58:52.60,48,-351,-2021,21,-14,45,-350,-734,384,542
,1440,2023-10-27 11:58:52.61,53,-343,-2017,22,-6,47,-243,-589,346,416
,1441,2023-10-27 11:58:52.62,61,-329,-2015,19,0,46,-350,-736,386,543
,1442,2023-10-27 11:58:52.63,61,-338,-2024,10,4,40,-242,-589,347,415
,1443,2023-10-27 11:58:52.64,71,-334,-2032,9,5,37,-352,-744,392,548
,1444,2023-10-27 11:58:52.65,67,-339,-2032,8,1,32,-240,-594,354,417
,1445,2023-10-27 11:58:52.66,69,-336,-2030,7,-1,31,-343,-742,399,542
,1446,2023-10-27 11:58:52.67,68,-343,-2043,3,-1,29,-233,-592,359,412
,1447,2023-10-27 11:58:52.68,77,-346,-2044,6,-5,28,-346,-748,402,547
,1448,2023-10-27 11:58:52.69,72,-352,-2036,9,-8,31,-244,-598,354,421
,1449,2023-10-27 11:58:52.70,68,-338,-2044,9,-17,32,-292,-727,435,509
,1450,2023-10-27 11:58:52.71,71,-345,-2042,7,-18,34,-158,-582,424,370
,1451,2023-10-27 11:58:52.72,62,-344,-2039,2,-12,34,-161,-720,559,440
