// Data mode  : Full
// Data quality  : High
// Acceleration sensor's range  : 16g
// Gyroscope sensor's range  : 2000dps
//
//ARTIFACT,NUM,DATE,ACC_X,ACC_Y,ACC_Z,GYRO_X,GYRO_Y,GYRO_Z,EOG_L,EOG_R,EOG_H,EOG_V
,1,2023-10-27 12:16:10.67,79,-86,-2057,41,-34,158,357,190,167,-273
,2,2023-10-27 12:16:10.68,77,-91,-2047,45,-20,163,388,279,109,-333
,3,2023-10-27 12:16:10.69,68,-81,-2048,49,-23,162,346,188,158,-267
,4,2023-10-27 12:16:10.70,53,-90,-2056,46,-24,161,380,294,86,-337
,5,2023-10-27 12:16:10.71,66,-78,-2061,45,-31,158,353,207,146,-280
,6,2023-10-27 12:16:10.72,69,-78,-2048,40,-29,161,365,272,93,-318
,7,2023-10-27 12:16:10.73,72,-79,-2050,37,-23,167,340,191,149,-265
,8,2023-10-27 12:16:10.74,65,-78,-2044,35,-25,161,369,281,88,-325
,9,2023-10-27 12:16:10.75,81,-85,-2035,33,-12,164,349,207,142,-278
,10,2023-10-27 12:16:10.76,70,-94,-2034,33,-3,164,350,261,89,-305
,11,2023-10-27 12:16:10.77,70,-98,-2043,35,10,166,324,194,130,-259
,12,2023-10-27 12:16:10.78,76,-104,-2040,40,10,165,344,247,97,-295
,13,2023-10-27 12:16:10.79,86,-100,-2036,52,15,163,328,192,136,-260
,14,2023-10-27 12:16:10.80,77,-109,-2039,60,18,167,322,251,71,-286
,15,2023-10-27 12:16:10.81,84,-107,-2042,62,20,160,307,210,97,-258
,16,2023-10-27 12:16:10.82,89,-106,-2034,77,18,158,301,236,65,-268
,17,2023-10-27 12:16:10.83,92,-107,-2034,89,21,164,304,194,110,-249
,18,2023-10-27 12:16:10.84,88,-111,-2032,91,21,166,311,238,73,-274
,19,2023-10-27 12:16:10.85,97,-102,-2030,92,21,165,320,216,104,-268
,20,2023-10-27 12:16:10.86,106,-119,-2049,93,18,161,301,236,65,-268
,21,2023-10-27 12:16:10.87,99,-107,-2044,88,26,158,318,217,101,-267
,22,2023-10-27 12:16:10.88,100,-112,-2068,82,17,148,337,262,75,-299
,23,2023-10-27 12:16:10.89,119,-110,-2058,85,6,150,376,254,122,-315
,24,2023-10-27 12:16:10.90,114,-105,-2042,88,7,146,354,245,109,-299
,25,2023-10-27 12:16:10.91,107,-111,-2056,90,5,146,361,229,132,-295
,26,2023-10-27 12:16:10.92,120,-118,-2064,80,7,145,320,236,84,-278
,27,2023-10-27 12:16:10.93,131,-116,-2061,69,-9,141,349,252,97,-300
,28,2023-10-27 12:16:10.94,113,-117,-2051,67,7,148,314,274,40,-294
,29,2023-10-27 12:16:10.95,126,-100,-2048,55,-2,145,351,288,63,-319
,30,2023-10-27 12:16:10.96,110,-125,-2058,40,5,143,305,286,19,-295
,31,2023-10-27 12:16:10.97,99,-134,-2071,31,5,142,356,299,57,-327
,32,2023-10-27 12:16:10.98,106,-136,-2070,38,-5,142,323,283,40,-303
,33,2023-10-27 12:16:10.99,96,-134,-2070,39,-5,147,372,294,78,-333
,34,2023-10-27 12:16:11.00,89,-148,-2054,41,-12,152,317,266,51,-291
,35,2023-10-27 12:16:11.01,104,-135,-2067,39,-8,144,367,303,64,-335
,36,2023-10-27 12:16:11.02,80,-143,-2055,40,-10,150,308,283,25,-295
,37,2023-10-27 12:16:11.03,71,-154,-2037,46,-25,146,368,320,48,-344
,38,2023-10-27 12:16:11.04,66,-134,-2043,50,-24,148,298,275,23,-286
,39,2023-10-27 12:16:11.05,66,-161,-2022,40,-17,146,358,316,42,-337
,40,2023-10-27 12:16:11.06,90,-142,-2040,45,-33,141,279,259,20,-269
,41,2023-10-27 12:16:11.07,62,-154,-2032,50,-10,145,329,309,20,-319
,42,2023-10-27 12:16:11.08,69,-152,-2036,51,-35,137,223,243,-20,-233
,43,2023-10-27 12:16:11.09,62,-149,-2038,49,-16,138,287,320,-33,-303
,44,2023-10-27 12:16:11.10,59,-143,-2053,47,-27,127,193,254,-61,-223
,45,2023-10-27 12:16:11.11,56,-134,-2035,49,-35,119,270,331,-61,-300
,46,2023-10-27 12:16:11.12,74,-140,-2032,47,-31,109,175,234,-59,-204
,47,2023-10-27 12:16:11.13,75,-136,-2028,40,-26,103,257,310,-53,-283
,48,2023-10-27 12:16:11.14,83,-135,-2016,38,-20,90,164,232,-68,-198
,49,2023-10-27 12:16:11.15,82,-146,-2030,35,-5,81,228,320,-92,-274
,50,2023-10-27 12:16:11.16,82,-152,-2038,24,0,75,113,224,-111,-168
,51,2023-10-27 12:16:11.17,97,-154,-2041,19,19,68,205,327,-122,-266
,52,2023-10-27 12:16:11.18,90,-145,-2039,18,26,61,112,225,-113,-168
,53,2023-10-27 12:16:11.19,90,-151,-2038,16,37,60,232,328,-96,-280
,54,2023-10-27 12:16:11.20,84,-150,-2059,17,36,56,149,217,-68,-183
,55,2023-10-27 12:16:11.21,83,-154,-2051,14,40,57,272,339,-67,-305
,56,2023-10-27 12:16:11.22,97,-144,-2046,24,14,51,186,240,-54,-213
,57,2023-10-27 12:16:11.23,105,-139,-2057,26,7,52,292,326,-34,-309
,58,2023-10-27 12:16:11.24,90,-141,-2053,21,6,49,200,152,48,-176
,59,2023-10-27 12:16:11.25,93,-141,-2046,19,-1,44,338,282,56,-310
,60,2023-10-27 12:16:11.26,88,-135,-2049,20,-3,40,237,146,91,-191
,61,2023-10-27 12:16:11.27,82,-132,-2065,11,-11,29,345,304,41,-324
,62,2023-10-27 12:16:11.28,78,-142,-2053,8,-12,34,214,161,53,-187
,63,2023-10-27 12:16:11.29,81,-145,-2074,10,-23,30,294,303,-9,-298
,64,2023-10-27 12:16:11.30,76,-150,-2075,13,-30,41,158,151,7,-154
,65,2023-10-27 12:16:11.31,67,-152,-2083,13,-42,44,272,305,-33,-288
,66,2023-10-27 12:16:11.32,65,-151,-2076,16,-50,51,154,148,6,-151
,67,2023-10-27 12:16:11.33,59,-145,-2074,18,-63,46,273,301,-28,-287
,68,2023-10-27 12:16:11.34,50,-139,-2061,19,-73,49,160,133,27,-146
,69,2023-10-27 12:16:11.35,62,-147,-2056,14,-80,49,295,302,-7,-298
,70,2023-10-27 12:16:11.36,54,-143,-2048,8,-80,51,181,141,40,-161
,71,2023-10-27 12:16:11.37,61,-142,-2044,5,-69,56,320,303,17,-311
,72,2023-10-27 12:16:11.38,58,-142,-2036,-3,-61,56,202,124,78,-163
,73,2023-10-27 12:16:11.39,45,-138,-2034,-8,-54,59,350,300,50,-325
,74,2023-10-27 12:16:11.40,53,-135,-2033,-11,-34,60,232,132,100,-182
,75,2023-10-27 12:16:11.41,40,-138,-2032,-15,-28,58,388,315,73,-351
,76,2023-10-27 12:16:11.42,49,-140,-2043,-18,-15,61,270,143,127,-206
,77,2023-10-27 12:16:11.43,39,-148,-2044,-22,2,61,420,330,90,-375
,78,2023-10-27 12:16:11.44,39,-147,-2043,-18,5,61,287,134,153,-210
,79,2023-10-27 12:16:11.45,45,-151,-2027,-14,0,61,439,324,115,-381
,80,2023-10-27 12:16:11.46,35,-146,-2028,-12,8,59,302,135,167,-218
,81,2023-10-27 12:16:11.47,45,-138,-2032,-12,11,59,453,327,126,-390
,82,2023-10-27 12:16:11.48,44,-135,-2032,-16,15,52,305,128,177,-216
,83,2023-10-27 12:16:11.49,40,-122,-2041,-22,25,46,447,318,129,-382
,84,2023-10-27 12:16:11.50,48,-120,-2048,-26,34,40,300,114,186,-207
,85,2023-10-27 12:16:11.51,66,-126,-2043,-26,44,34,460,328,132,-394
,86,2023-10-27 12:16:11.52,58,-127,-2043,-25,41,28,320,145,175,-232
,87,2023-10-27 12:16:11.53,67,-131,-2042,-23,43,22,480,349,131,-414
,88,2023-10-27 12:16:11.54,63,-132,-2035,-25,52,18,332,129,203,-230
,89,2023-10-27 12:16:11.55,66,-139,-2040,-26,54,9,484,339,145,-411
,90,2023-10-27 12:16:11.56,64,-143,-2054,-25,50,4,337,131,206,-234
,91,2023-10-27 12:16:11.57,79,-131,-2083,-25,56,11,492,349,143,-420
,92,2023-10-27 12:16:11.58,64,-135,-2077,-29,46,9,333,139,194,-236
,93,2023-10-27 12:16:11.59,63,-140,-2078,-30,48,9,475,348,127,-411
,94,2023-10-27 12:16:11.60,58,-141,-2093,-28,45,6,341,140,201,-240
,95,2023-10-27 12:16:11.61,50,-144,-2079,-23,36,10,493,350,143,-421
,96,2023-10-27 12:16:11.62,56,-154,-2058,-8,24,10,348,129,219,-238
,97,2023-10-27 12:16:11.63,57,-148,-2053,3,18,16,493,340,153,-416
,98,2023-10-27 12:16:11.64,43,-154,-2038,7,15,11,330,115,215,-222
,99,2023-10-27 12:16:11.65,61,-169,-2027,18,18,18,486,350,136,-418
,100,2023-10-27 12:16:11.66,66,-157,-2024,27,15,14,335,144,191,-239
,101,2023-10-27 12:16:11.67,83,-150,-2013,31,19,16,483,365,118,-424
,102,2023-10-27 12:16:11.68,93,-144,-2027,30,24,9,324,138,186,-231
,103,2023-10-27 12:16:11.69,78,-148,-2020,27,32,5,473,358,115,-415
,104,2023-10-27 12:16:11.70,94,-152,-2027,26,33,2,322,131,191,-226
,105,2023-10-27 12:16:11.71,86,-148,-2025,29,32,4,470,354,116,-412
,106,2023-10-27 12:16:11.72,82,-143,-2046,26,24,2,313,130,183,-221
,107,2023-10-27 12:16:11.73,66,-145,-2056,20,21,0,459,348,111,-403
,108,2023-10-27 12:16:11.74,79,-133,-2053,19,14,-1,315,119,196,-217
,109,2023-10-27 12:16:11.75,77,-122,-2070,21,-4,0,457,348,109,-402
,110,2023-10-27 12:16:11.76,79,-116,-2055,11,-30,-10,315,122,193,-218
,111,2023-10-27 12:16:11.77,74,-114,-2048,3,-42,-18,464,357,107,-410
,112,2023-10-27 12:16:11.78,74,-122,-2060,-5,-45,-26,328,137,191,-232
,113,2023-10-27 12:16:11.79,58,-133,-2066,-14,-51,-32,472,374,98,-423
,114,2023-10-27 12:16:11.80,47,-130,-2081,-16,-56,-39,318,151,167,-234
,115,2023-10-27 12:16:11.81,42,-140,-2089,-18,-61,-41,452,384,68,-418
,116,2023-10-27 12:16:11.82,43,-142,-2060,-15,-65,-45,308,157,151,-232
,117,2023-10-27 12:16:11.83,42,-143,-2073,-14,-53,-38,442,368,74,-405
,118,2023-10-27 12:16:11.84,45,-144,-2077,-16,-56,-45,282,131,151,-206
,119,2023-10-27 12:16:11.85,34,-157,-2064,-12,-59,-40,401,354,47,-377
,120,2023-10-27 12:16:11.86,31,-164,-2072,-6,-64,-35,272,133,139,-202
,121,2023-10-27 12:16:11.87,23,-168,-2097,-5,-51,-25,410,360,50,-385
,122,2023-10-27 12:16:11.88,30,-152,-2055,-7,-52,-20,264,132,132,-198
,123,2023-10-27 12:16:11.89,33,-146,-2052,-2,-51,-16,372,359,13,-365
,124,2023-10-27 12:16:11.90,9,-147,-2032,-8,-37,-10,242,141,101,-191
,125,2023-10-27 12:16:11.91,20,-141,-2019,-10,-27,-7,380,360,20,-370
,126,2023-10-27 12:16:11.92,22,-137,-2026,-14,-22,-4,266,133,133,-199
,127,2023-10-27 12:16:11.93,11,-139,-2029,-10,-29,2,382,352,30,-367
,128,2023-10-27 12:16:11.94,9,-126,-2027,-15,-14,8,265,137,128,-201
,129,2023-10-27 12:16:11.95,23,-121,-2008,-21,-10,6,397,360,37,-378
,130,2023-10-27 12:16:11.96,32,-127,-2017,-33,19,7,281,144,137,-212
,131,2023-10-27 12:16:11.97,29,-127,-2035,-40,30,0,378,123,255,-250
,132,2023-10-27 12:16:11.98,23,-133,-2059,-37,37,8,235,-136,371,-49
,133,2023-10-27 12:16:11.99,36,-139,-2047,-32,31,13,309,208,101,-258
,134,2023-10-27 12:16:12.00,40,-136,-2038,-29,32,21,177,119,58,-148
,135,2023-10-27 12:16:12.01,43,-132,-2045,-34,46,22,301,358,-57,-329
,136,2023-10-27 12:16:12.02,42,-118,-2042,-43,57,20,222,136,86,-179
,137,2023-10-27 12:16:12.03,31,-109,-2056,-54,58,8,354,334,20,-344
,138,2023-10-27 12:16:12.04,43,-108,-2038,-55,64,14,264,131,133,-197
,139,2023-10-27 12:16:12.05,51,-112,-2052,-59,70,8,364,328,36,-346
,140,2023-10-27 12:16:12.06,59,-115,-2042,-67,79,0,270,131,139,-200
,141,2023-10-27 12:16:12.07,60,-104,-2042,-75,79,-2,373,344,29,-358
,142,2023-10-27 12:16:12.08,51,-97,-2070,-88,96,-8,275,171,104,-223
,143,2023-10-27 12:16:12.09,53,-105,-2059,-91,84,-11,354,362,-8,-358
,144,2023-10-27 12:16:12.10,61,-107,-2040,-89,86,-17,248,165,83,-206
,145,2023-10-27 12:16:12.11,65,-101,-2056,-82,83,-19,321,356,-35,-338
,146,2023-10-27 12:16:12.12,69,-91,-2053,-90,103,-20,234,165,69,-199
,147,2023-10-27 12:16:12.13,76,-85,-2067,-89,88,-28,325,337,-12,-331
,148,2023-10-27 12:16:12.14,68,-87,-2049,-87,82,-31,255,142,113,-198
,149,2023-10-27 12:16:12.15,74,-85,-2036,-81,78,-35,337,326,11,-331
,150,2023-10-27 12:16:12.16,77,-88,-2044,-84,69,-47,266,156,110,-211
,151,2023-10-27 12:16:12.17,69,-91,-2048,-75,66,-45,346,336,10,-341
,152,2023-10-27 12:16:12.18,73,-100,-2062,-63,57,-52,292,161,131,-226
,153,2023-10-27 12:16:12.19,76,-102,-2074,-56,46,-55,374,338,36,-356
,154,2023-10-27 12:16:12.20,72,-102,-2071,-45,28,-57,318,169,149,-243
,155,2023-10-27 12:16:12.21,81,-104,-2072,-35,28,-51,397,338,59,-367
,156,2023-10-27 12:16:12.22,82,-106,-2068,-31,27,-52,342,178,164,-260
,157,2023-10-27 12:16:12.23,87,-99,-2057,-22,31,-56,415,329,86,-372
,158,2023-10-27 12:16:12.24,75,-99,-2051,-15,25,-59,360,177,183,-268
,159,2023-10-27 12:16:12.25,75,-104,-2057,-7,35,-46,430,342,88,-386
,160,2023-10-27 12:16:12.26,72,-97,-2051,-3,34,-48,378,198,180,-288
,161,2023-10-27 12:16:12.27,69,-100,-2049,-1,41,-47,449,338,111,-393
,162,2023-10-27 12:16:12.28,69,-94,-2061,5,38,-46,381,192,189,-286
,163,2023-10-27 12:16:12.29,72,-99,-2047,8,34,-51,427,309,118,-368
,164,2023-10-27 12:16:12.30,77,-91,-2047,17,34,-50,369,174,195,-271
,165,2023-10-27 12:16:12.31,78,-99,-2032,20,33,-54,414,303,111,-358
,166,2023-10-27 12:16:12.32,79,-99,-2039,20,42,-55,384,181,203,-282
,167,2023-10-27 12:16:12.33,98,-103,-2029,19,49,-61,431,292,139,-361
,168,2023-10-27 12:16:12.34,93,-102,-2035,27,69,-63,400,180,220,-290
,169,2023-10-27 12:16:12.35,106,-103,-2036,24,61,-70,432,280,152,-356
,170,2023-10-27 12:16:12.36,112,-99,-2034,28,68,-72,410,183,227,-296
,171,2023-10-27 12:16:12.37,132,-90,-2031,30,71,-76,433,276,157,-354
,172,2023-10-27 12:16:12.38,120,-95,-2049,26,75,-80,421,193,228,-307
,173,2023-10-27 12:16:12.39,115,-86,-2048,22,70,-83,427,271,156,-349
,174,2023-10-27 12:16:12.40,120,-97,-2056,22,55,-87,414,188,226,-301
,175,2023-10-27 12:16:12.41,130,-96,-2051,19,58,-80,414,252,162,-333
,176,2023-10-27 12:16:12.42,135,-82,-2065,8,57,-88,410,194,216,-302
,177,2023-10-27 12:16:12.43,123,-87,-2072,-3,56,-84,408,257,151,-332
,178,2023-10-27 12:16:12.44,126,-83,-2077,-8,28,-85,386,190,196,-288
,179,2023-10-27 12:16:12.45,122,-92,-2082,-9,34,-65,395,265,130,-330
,180,2023-10-27 12:16:12.46,117,-90,-2089,-12,-1,-69,384,207,177,-295
,181,2023-10-27 12:16:12.47,118,-96,-2077,-11,-8,-63,371,264,107,-317
,182,2023-10-27 12:16:12.48,137,-89,-2071,-7,-31,-59,361,211,150,-286
,183,2023-10-27 12:16:12.49,127,-79,-2065,-5,-22,-45,362,261,101,-311
,184,2023-10-27 12:16:12.50,131,-77,-2047,-5,-31,-50,371,217,154,-294
,185,2023-10-27 12:16:12.51,127,-79,-2069,-4,-24,-52,354,253,101,-303
,186,2023-10-27 12:16:12.52,128,-87,-2048,2,-28,-52,356,218,138,-287
,187,2023-10-27 12:16:12.53,140,-87,-2053,15,-23,-52,335,247,88,-291
,188,2023-10-27 12:16:12.54,120,-94,-2063,31,-27,-58,346,219,127,-282
,189,2023-10-27 12:16:12.55,129,-89,-2077,53,-26,-58,311,234,77,-272
,190,2023-10-27 12:16:12.56,111,-93,-2079,77,-22,-57,324,215,109,-269
,191,2023-10-27 12:16:12.57,134,-93,-2095,105,-36,-71,283,222,61,-252
,192,2023-10-27 12:16:12.58,142,-125,-2095,137,-26,-88,298,219,79,-258
,193,2023-10-27 12:16:12.59,107,-95,-2102,176,1,-102,232,221,11,-226
,194,2023-10-27 12:16:12.60,121,-117,-2089,193,-15,-111,234,215,19,-224
,195,2023-10-27 12:16:12.61,128,-138,-2086,209,-11,-124,139,179,-40,-159
,196,2023-10-27 12:16:12.62,114,-123,-2037,245,-9,-145,121,182,-61,-151
,197,2023-10-27 12:16:12.63,133,-161,-2034,283,6,-151,4,142,-138,-73
,198,2023-10-27 12:16:12.64,120,-165,-2017,324,0,-164,0,166,-166,-83
,199,2023-10-27 12:16:12.65,111,-173,-1992,358,3,-173,-112,104,-216,4
,200,2023-10-27 12:16:12.66,98,-199,-2030,394,-6,-172,-111,141,-252,-15
,201,2023-10-27 12:16:12.67,117,-196,-2020,419,-13,-174,-209,88,-297,60
,202,2023-10-27 12:16:12.68,91,-194,-2027,443,-15,-167,-158,150,-308,4
,203,2023-10-27 12:16:12.69,75,-184,-2070,439,-17,-167,-234,104,-338,65
,204,2023-10-27 12:16:12.70,84,-178,-2041,428,-33,-159,-156,172,-328,-8
,205,2023-10-27 12:16:12.71,94,-185,-1993,398,-11,-154,-217,118,-335,49
,206,2023-10-27 12:16:12.72,93,-189,-1958,367,-3,-150,-148,189,-337,-20
,207,2023-10-27 12:16:12.73,106,-178,-1957,347,13,-153,-213,136,-349,38
,208,2023-10-27 12:16:12.74,91,-196,-1969,320,26,-155,-135,208,-343,-36
,209,2023-10-27 12:16:12.75,120,-199,-1983,301,32,-152,-180,136,-316,22
,210,2023-10-27 12:16:12.76,99,-213,-2001,278,35,-160,-71,218,-289,-73
,211,2023-10-27 12:16:12.77,118,-233,-2031,255,56,-145,-92,160,-252,-34
,212,2023-10-27 12:16:12.78,132,-214,-2013,230,51,-158,22,254,-232,-138
,213,2023-10-27 12:16:12.79,117,-238,-2023,230,58,-167,-3,198,-201,-97
,214,2023-10-27 12:16:12.80,132,-247,-2040,237,57,-173,107,290,-183,-198
,215,2023-10-27 12:16:12.81,149,-274,-2046,246,64,-181,134,222,-88,-178
,216,2023-10-27 12:16:12.82,145,-292,-2006,253,85,-187,253,293,-40,-273
,217,2023-10-27 12:16:12.83,153,-285,-1994,278,108,-194,214,209,5,-211
,218,2023-10-27 12:16:12.84,166,-294,-2010,294,102,-212,285,312,-27,-298
,219,2023-10-27 12:16:12.85,168,-316,-2017,317,134,-206,249,253,-4,-251
,220,2023-10-27 12:16:12.86,152,-300,-2021,336,122,-210,328,361,-33,-344
,221,2023-10-27 12:16:12.87,147,-312,-2004,336,138,-212,289,267,22,-278
,222,2023-10-27 12:16:12.88,144,-335,-2003,350,151,-206,353,353,0,-353
,223,2023-10-27 12:16:12.89,110,-336,-2025,355,152,-207,290,246,44,-268
,224,2023-10-27 12:16:12.90,108,-338,-2031,355,142,-192,353,366,-13,-359
,225,2023-10-27 12:16:12.91,97,-327,-2009,352,121,-184,301,266,35,-283
,226,2023-10-27 12:16:12.92,82,-322,-2040,339,111,-179,352,380,-28,-366
,227,2023-10-27 12:16:12.93,99,-335,-2036,313,98,-168,297,268,29,-282
,228,2023-10-27 12:16:12.94,99,-334,-2006,296,99,-156,334,386,-52,-360
,229,2023-10-27 12:16:12.95,117,-310,-2005,274,92,-156,282,261,21,-271
,230,2023-10-27 12:16:12.96,112,-325,-2017,236,104,-154,315,366,-51,-340
,231,2023-10-27 12:16:12.97,128,-338,-2020,205,103,-163,289,219,70,-254
,232,2023-10-27 12:16:12.98,137,-339,-2013,183,112,-162,361,348,13,-354
,233,2023-10-27 12:16:12.99,142,-346,-2009,160,108,-172,340,193,147,-266
,234,2023-10-27 12:16:13.00,161,-349,-2008,144,119,-176,350,332,18,-341
,235,2023-10-27 12:16:13.01,164,-350,-2020,135,108,-179,280,180,100,-230
,236,2023-10-27 12:16:13.02,156,-347,-2041,120,111,-178,253,340,-87,-296
,237,2023-10-27 12:16:13.03,166,-346,-2014,102,99,-182,234,192,42,-213
,238,2023-10-27 12:16:13.04,169,-335,-2020,86,91,-195,138,356,-218,-247
,239,2023-10-27 12:16:13.05,180,-367,-2050,68,58,-205,109,205,-96,-157
,240,2023-10-27 12:16:13.06,167,-388,-2023,55,42,-210,63,369,-306,-216
,241,2023-10-27 12:16:13.07,177,-386,-2054,64,16,-209,87,199,-112,-143
,242,2023-10-27 12:16:13.08,191,-386,-2054,50,-26,-220,64,370,-306,-217
,243,2023-10-27 12:16:13.09,175,-405,-2037,40,-27,-198,77,204,-127,-140
,244,2023-10-27 12:16:13.10,192,-407,-2036,34,-45,-198,8,377,-369,-192
,245,2023-10-27 12:16:13.11,192,-416,-2042,36,-56,-192,22,198,-176,-110
,246,2023-10-27 12:16:13.12,197,-410,-2032,29,-61,-178,-2,376,-378,-187
,247,2023-10-27 12:16:13.13,171,-421,-2018,29,-71,-176,58,194,-136,-126
,248,2023-10-27 12:16:13.14,165,-394,-2028,19,-68,-175,15,367,-352,-191
,249,2023-10-27 12:16:13.15,158,-359,-2058,-9,-86,-175,16,165,-149,-90
,250,2023-10-27 12:16:13.16,157,-347,-2050,-55,-94,-172,-48,355,-403,-153
,251,2023-10-27 12:16:13.17,183,-356,-2025,-101,-101,-176,-3,178,-181,-87
,252,2023-10-27 12:16:13.18,201,-370,-1992,-137,-65,-176,-34,375,-409,-170
,253,2023-10-27 12:16:13.19,197,-391,-1979,-150,-38,-177,40,175,-135,-107
,254,2023-10-27 12:16:13.20,194,-386,-2006,-157,-8,-171,11,375,-364,-193
,255,2023-10-27 12:16:13.21,198,-346,-2008,-192,17,-152,40,170,-130,-105
,256,2023-10-27 12:16:13.22,221,-337,-1970,-241,31,-148,-35,369,-404,-167
,257,2023-10-27 12:16:13.23,223,-340,-1980,-277,67,-132,1,148,-147,-74
,258,2023-10-27 12:16:13.24,227,-309,-2003,-292,82,-127,-46,356,-402,-155
,259,2023-10-27 12:16:13.25,227,-301,-2017,-312,114,-121,13,157,-144,-85
,260,2023-10-27 12:16:13.26,221,-298,-2034,-336,123,-109,-42,362,-404,-160
,261,2023-10-27 12:16:13.27,236,-297,-2059,-357,120,-97,25,162,-137,-93
,262,2023-10-27 12:16:13.28,214,-263,-2082,-380,105,-67,-45,370,-415,-162
,263,2023-10-27 12:16:13.29,223,-233,-2057,-404,92,-56,-2,151,-153,-74
,264,2023-10-27 12:16:13.30,219,-220,-2044,-424,83,-52,-78,369,-447,-145
,265,2023-10-27 12:16:13.31,220,-231,-2034,-423,82,-34,-21,168,-189,-73
,266,2023-10-27 12:16:13.32,222,-195,-2026,-419,60,-34,-86,381,-467,-147
,267,2023-10-27 12:16:13.33,221,-176,-2039,-420,45,-31,-23,158,-181,-67
,268,2023-10-27 12:16:13.34,211,-174,-2009,-426,2,-34,-104,371,-475,-133
,269,2023-10-27 12:16:13.35,226,-156,-2030,-436,46,-40,-28,151,-179,-61
,270,2023-10-27 12:16:13.36,216,-148,-2019,-413,-11,-38,-94,381,-475,-143
,271,2023-10-27 12:16:13.37,239,-152,-2025,-372,-55,-37,10,171,-161,-90
,272,2023-10-27 12:16:13.38,243,-151,-2040,-328,-57,-32,-62,391,-453,-164
,273,2023-10-27 12:16:13.39,235,-158,-2031,-282,-55,-32,2,168,-166,-85
,274,2023-10-27 12:16:13.40,216,-141,-2038,-241,-72,-30,-99,397,-496,-149
,275,2023-10-27 12:16:13.41,223,-146,-2079,-202,-105,-33,-44,188,-232,-72
,276,2023-10-27 12:16:13.42,226,-144,-2069,-162,-111,-24,-128,408,-536,-140
,277,2023-10-27 12:16:13.43,207,-147,-2072,-123,-124,-13,-23,176,-199,-76
,278,2023-10-27 12:16:13.44,200,-139,-2078,-97,-139,-20,-92,394,-486,-151
,279,2023-10-27 12:16:13.45,217,-158,-2067,-69,-140,-8,-16,173,-189,-78
,280,2023-10-27 12:16:13.46,203,-188,-2067,-38,-147,-1,-126,390,-516,-132
,281,2023-10-27 12:16:13.47,202,-213,-2057,-6,-149,3,-53,159,-212,-53
,282,2023-10-27 12:16:13.48,204,-205,-2049,28,-152,17,-121,385,-506,-132
,283,2023-10-27 12:16:13.49,184,-191,-2026,38,-129,24,-12,168,-180,-78
,284,2023-10-27 12:16:13.50,197,-182,-2036,27,-97,25,-88,395,-483,-153
,285,2023-10-27 12:16:13.51,207,-193,-2026,27,-73,29,-34,179,-213,-72
,286,2023-10-27 12:16:13.52,184,-203,-1990,43,-45,29,-146,403,-549,-128
,287,2023-10-27 12:16:13.53,179,-183,-2039,43,-18,29,-44,180,-224,-68
,288,2023-10-27 12:16:13.54,183,-167,-2048,23,-19,31,-106,390,-496,-142
,289,2023-10-27 12:16:13.55,178,-198,-2009,16,21,44,4,166,-162,-85
,290,2023-10-27 12:16:13.56,181,-175,-2054,19,18,38,-92,384,-476,-146
,291,2023-10-27 12:16:13.57,204,-190,-2035,4,34,46,-42,167,-209,-62
,292,2023-10-27 12:16:13.58,204,-208,-1974,30,51,48,-157,391,-548,-117
,293,2023-10-27 12:16:13.59,202,-191,-2020,40,86,52,-72,175,-247,-51
,294,2023-10-27 12:16:13.60,210,-205,-2054,27,109,60,-143,398,-541,-127
,295,2023-10-27 12:16:13.61,204,-193,-2018,16,145,68,-35,199,-234,-82
,296,2023-10-27 12:16:13.62,189,-168,-2019,-3,195,81,-128,382,-510,-127
,297,2023-10-27 12:16:13.63,174,-141,-2037,-20,194,92,-35,157,-192,-61
,298,2023-10-27 12:16:13.64,178,-120,-2111,-52,183,105,-146,360,-506,-107
,299,2023-10-27 12:16:13.65,186,-104,-2117,-99,153,109,-64,176,-240,-56
,300,2023-10-27 12:16:13.66,222,-96,-2030,-117,140,123,-169,387,-556,-109
,301,2023-10-27 12:16:13.67,209,-98,-1962,-124,154,118,-79,181,-260,-51
,302,2023-10-27 12:16:13.68,223,-70,-2009,-108,142,100,-175,380,-555,-102
,303,2023-10-27 12:16:13.69,211,-60,-2048,-117,141,95,-95,174,-269,-39
,304,2023-10-27 12:16:13.70,226,-67,-2050,-137,127,85,-186,380,-566,-97
,305,2023-10-27 12:16:13.71,235,-73,-2028,-156,120,74,-101,180,-281,-39
,306,2023-10-27 12:16:13.72,234,-58,-2034,-161,114,70,-188,380,-568,-96
,307,2023-10-27 12:16:13.73,236,-66,-2032,-150,99,57,-85,184,-269,-49
,308,2023-10-27 12:16:13.74,238,-53,-2034,-141,92,46,-163,368,-531,-102
,309,2023-10-27 12:16:13.75,223,-46,-2069,-144,67,32,-54,168,-222,-57
,310,2023-10-27 12:16:13.76,247,-49,-2084,-140,27,9,-157,362,-519,-102
,311,2023-10-27 12:16:13.77,238,-61,-2088,-129,15,5,-63,172,-235,-54
,312,2023-10-27 12:16:13.78,240,-68,-2074,-115,-7,-9,-178,347,-525,-84
,313,2023-10-27 12:16:13.79,246,-59,-2066,-104,-13,-18,-103,157,-260,-27
,314,2023-10-27 12:16:13.80,259,-61,-2074,-104,-18,-32,-211,344,-555,-66
,315,2023-10-27 12:16:13.81,248,-68,-2085,-109,-20,-44,-122,172,-294,-25
,316,2023-10-27 12:16:13.82,242,-106,-2064,-106,-31,-51,-226,353,-579,-63
,317,2023-10-27 12:16:13.83,230,-121,-2044,-93,-42,-56,-114,182,-296,-34
,318,2023-10-27 12:16:13.84,236,-117,-2044,-90,-19,-36,-187,358,-545,-85
,319,2023-10-27 12:16:13.85,204,-140,-2050,-86,-18,-19,-85,190,-275,-52
,320,2023-10-27 12:16:13.86,172,-139,-2108,-77,-19,0,-169,371,-540,-101
,321,2023-10-27 12:16:13.87,168,-119,-2101,-60,-60,31,-73,204,-277,-65
,322,2023-10-27 12:16:13.88,168,-98,-2079,-59,-93,41,-142,383,-525,-120
,323,2023-10-27 12:16:13.89,171,-86,-2055,-64,-112,53,-52,230,-282,-89
,324,2023-10-27 12:16:13.90,178,-81,-2041,-76,-111,52,-139,372,-511,-116
,325,2023-10-27 12:16:13.91,203,-94,-2005,-73,-112,54,-38,207,-245,-84
,326,2023-10-27 12:16:13.92,204,-118,-1977,-70,-95,55,-114,356,-470,-121
,327,2023-10-27 12:16:13.93,173,-133,-1996,-50,-71,49,-25,213,-238,-94
,328,2023-10-27 12:16:13.94,176,-140,-2015,-30,-61,52,-111,349,-460,-119
,329,2023-10-27 12:16:13.95,185,-133,-2021,-7,-44,58,-33,209,-242,-88
,330,2023-10-27 12:16:13.96,170,-110,-2013,-6,-16,64,-134,327,-461,-96
,331,2023-10-27 12:16:13.97,198,-115,-1998,10,-6,61,-61,196,-257,-67
,332,2023-10-27 12:16:13.98,196,-126,-2020,39,23,62,-146,337,-483,-95
,333,2023-10-27 12:16:13.99,222,-141,-2006,73,42,60,-61,220,-281,-79
,334,2023-10-27 12:16:14.00,213,-130,-2010,115,67,49,-127,330,-457,-101
,335,2023-10-27 12:16:14.01,194,-98,-2064,118,95,52,-45,204,-249,-79
,336,2023-10-27 12:16:14.02,211,-90,-2074,115,104,41,-126,338,-464,-106
,337,2023-10-27 12:16:14.03,251,-118,-2014,128,110,39,-60,224,-284,-82
,338,2023-10-27 12:16:14.04,256,-92,-2024,145,138,40,-139,331,-470,-96
,339,2023-10-27 12:16:14.05,255,-106,-2038,159,156,45,-79,208,-287,-64
,340,2023-10-27 12:16:14.06,257,-110,-2040,172,168,43,-145,328,-473,-91
,341,2023-10-27 12:16:14.07,277,-121,-2025,190,147,50,-61,234,-295,-86
,342,2023-10-27 12:16:14.08,260,-99,-2028,203,150,63,-117,344,-461,-113
,343,2023-10-27 12:16:14.09,268,-107,-2053,202,128,72,-61,245,-306,-92
,344,2023-10-27 12:16:14.10,268,-109,-2040,205,103,67,-133,328,-461,-97
,345,2023-10-27 12:16:14.11,308,-114,-2039,212,95,88,-57,240,-297,-91
,346,2023-10-27 12:16:14.12,315,-158,-2061,228,89,81,-122,317,-439,-97
,347,2023-10-27 12:16:14.13,289,-177,-2056,270,83,87,-66,248,-314,-91
,348,2023-10-27 12:16:14.14,258,-182,-2069,307,62,102,-132,330,-462,-99
,349,2023-10-27 12:16:14.15,265,-136,-2098,317,34,109,-77,262,-339,-92
,350,2023-10-27 12:16:14.16,258,-175,-2084,308,2,110,-142,340,-482,-99
,351,2023-10-27 12:16:14.17,265,-179,-2066,294,0,119,-98,282,-380,-92
,352,2023-10-27 12:16:14.18,252,-187,-2064,299,-27,132,-128,338,-466,-105
,353,2023-10-27 12:16:14.19,245,-181,-2059,286,-36,136,-48,274,-322,-113
,354,2023-10-27 12:16:14.20,246,-200,-2038,258,-32,141,-101,332,-433,-115
,355,2023-10-27 12:16:14.21,243,-197,-2054,236,-32,138,-80,284,-364,-102
,356,2023-10-27 12:16:14.22,242,-193,-2093,203,-22,138,-131,333,-464,-101
,357,2023-10-27 12:16:14.23,251,-167,-2066,153,-36,134,-72,294,-366,-111
,358,2023-10-27 12:16:14.24,242,-177,-2065,94,-26,128,-119,336,-455,-108
,359,2023-10-27 12:16:14.25,241,-179,-2074,33,-22,130,-83,294,-377,-105
,360,2023-10-27 12:16:14.26,249,-173,-2040,-27,-12,123,-122,317,-439,-97
,361,2023-10-27 12:16:14.27,261,-198,-2041,-54,-17,120,-87,289,-376,-101
,362,2023-10-27 12:16:14.28,261,-171,-2010,-75,-22,114,-127,309,-436,-91
,363,2023-10-27 12:16:14.29,268,-184,-2021,-101,-16,99,-88,290,-378,-101
,364,2023-10-27 12:16:14.30,267,-187,-2024,-120,-9,86,-132,292,-424,-80
,365,2023-10-27 12:16:14.31,264,-181,-2012,-127,-16,73,-103,284,-387,-90
,366,2023-10-27 12:16:14.32,252,-187,-2026,-136,-23,64,-160,286,-446,-63
,367,2023-10-27 12:16:14.33,259,-175,-2065,-145,-44,56,-136,296,-432,-80
,368,2023-10-27 12:16:14.34,268,-191,-2054,-164,-56,52,-165,297,-462,-66
,369,2023-10-27 12:16:14.35,256,-189,-2046,-177,-56,57,-133,303,-436,-85
,370,2023-10-27 12:16:14.36,275,-187,-2066,-180,-77,50,-169,275,-444,-53
,371,2023-10-27 12:16:14.37,260,-165,-2033,-179,-90,47,-144,296,-440,-76
,372,2023-10-27 12:16:14.38,265,-161,-2047,-202,-101,50,-158,268,-426,-55
,373,2023-10-27 12:16:14.39,261,-137,-2073,-210,-117,47,-130,298,-428,-84
,374,2023-10-27 12:16:14.40,227,-135,-2080,-222,-151,38,-155,257,-412,-51
,375,2023-10-27 12:16:14.41,235,-133,-2059,-251,-165,38,-125,298,-423,-86
,376,2023-10-27 12:16:14.42,219,-137,-2048,-258,-191,32,-125,250,-375,-62
,377,2023-10-27 12:16:14.43,230,-131,-2061,-243,-218,35,-79,307,-386,-114
,378,2023-10-27 12:16:14.44,220,-145,-2074,-237,-229,29,-102,244,-346,-71
,379,2023-10-27 12:16:14.45,225,-134,-2080,-235,-253,19,-84,298,-382,-107
,380,2023-10-27 12:16:14.46,230,-157,-2046,-228,-262,27,-105,219,-324,-57
,381,2023-10-27 12:16:14.47,206,-148,-2045,-207,-256,25,-65,293,-358,-114
,382,2023-10-27 12:16:14.48,192,-153,-2051,-184,-261,28,-12,215,-227,-101
,383,2023-10-27 12:16:14.49,167,-140,-2044,-172,-266,29,42,291,-249,-166
,384,2023-10-27 12:16:14.50,170,-124,-2036,-162,-262,31,91,210,-119,-150
,385,2023-10-27 12:16:14.51,170,-129,-2040,-156,-258,32,120,294,-174,-207
,386,2023-10-27 12:16:14.52,166,-122,-2045,-150,-250,34,173,192,-19,-182
,387,2023-10-27 12:16:14.53,144,-100,-2043,-136,-247,38,168,282,-114,-225
,388,2023-10-27 12:16:14.54,126,-105,-2022,-122,-251,49,202,189,13,-195
,389,2023-10-27 12:16:14.55,129,-84,-2077,-128,-265,46,201,290,-89,-245
,390,2023-10-27 12:16:14.56,129,-86,-2053,-130,-267,38,248,182,66,-215
,391,2023-10-27 12:16:14.57,138,-87,-1998,-100,-259,39,260,293,-33,-276
,392,2023-10-27 12:16:14.58,144,-107,-2006,-80,-239,36,330,187,143,-258
,393,2023-10-27 12:16:14.59,114,-115,-2032,-52,-209,34,325,300,25,-312
,394,2023-10-27 12:16:14.60,121,-115,-2008,-19,-203,49,351,166,185,-258
,395,2023-10-27 12:16:14.61,113,-130,-2009,11,-176,56,294,290,4,-292
,396,2023-10-27 12:16:14.62,123,-125,-2051,39,-151,55,292,158,134,-225
,397,2023-10-27 12:16:14.63,121,-126,-2024,59,-116,67,225,296,-71,-260
,398,2023-10-27 12:16:14.64,116,-122,-2013,80,-97,81,241,164,77,-202
,399,2023-10-27 12:16:14.65,117,-131,-2010,94,-89,91,188,307,-119,-247
,400,2023-10-27 12:16:14.66,113,-143,-2020,103,-54,109,212,182,30,-197
,401,2023-10-27 12:16:14.67,114,-183,-2004,104,-34,136,165,329,-164,-247
,402,2023-10-27 12:16:14.68,129,-239,-1978,110,8,181,188,182,6,-185
,403,2023-10-27 12:16:14.69,122,-285,-1892,100,67,251,149,341,-192,-245
,404,2023-10-27 12:16:14.70,132,-314,-1884,97,146,332,217,202,15,-209
,405,2023-10-27 12:16:14.71,107,-317,-1912,85,219,417,163,345,-182,-254
,406,2023-10-27 12:16:14.72,107,-327,-1914,51,276,525,180,176,4,-178
,407,2023-10-27 12:16:14.73,119,-298,-1930,-11,336,626,90,346,-256,-218
,408,2023-10-27 12:16:14.74,105,-300,-1962,-75,384,729,96,213,-117,-154
,409,2023-10-27 12:16:14.75,144,-294,-1949,-140,435,837,21,374,-353,-197
,410,2023-10-27 12:16:14.76,137,-303,-1947,-186,478,917,83,179,-96,-131
,411,2023-10-27 12:16:14.77,174,-266,-1944,-230,523,1013,53,333,-280,-193
,412,2023-10-27 12:16:14.78,187,-227,-1987,-276,566,1087,92,162,-70,-127
,413,2023-10-27 12:16:14.79,181,-172,-2055,-321,592,1138,24,352,-328,-188
,414,2023-10-27 12:16:14.80,188,-106,-2093,-369,570,1169,72,176,-104,-124
,415,2023-10-27 12:16:14.81,228,-47,-2096,-412,556,1173,-5,353,-358,-174
,416,2023-10-27 12:16:14.82,232,-9,-2113,-427,519,1150,16,179,-163,-97
,417,2023-10-27 12:16:14.83,243,26,-2126,-425,463,1111,-55,361,-416,-153
,418,2023-10-27 12:16:14.84,274,26,-2176,-417,393,1052,2,178,-176,-90
,419,2023-10-27 12:16:14.85,263,63,-2164,-402,351,994,-65,349,-414,-142
,420,2023-10-27 12:16:14.86,244,84,-2147,-376,279,914,-9,162,-171,-76
,421,2023-10-27 12:16:14.87,262,148,-2134,-347,221,818,-87,338,-425,-125
,422,2023-10-27 12:16:14.88,267,162,-2120,-324,169,712,-32,156,-188,-62
,423,2023-10-27 12:16:14.89,263,191,-2101,-298,117,586,-105,347,-452,-121
,424,2023-10-27 12:16:14.90,260,193,-2100,-271,76,463,-54,136,-190,-41
,425,2023-10-27 12:16:14.91,239,172,-2085,-250,49,346,-124,332,-456,-104
,426,2023-10-27 12:16:14.92,228,171,-2095,-214,-10,215,-50,128,-178,-39
,427,2023-10-27 12:16:14.93,217,161,-2099,-179,-33,113,-113,322,-435,-104
,428,2023-10-27 12:16:14.94,196,140,-2099,-155,-58,13,-34,117,-151,-41
,429,2023-10-27 12:16:14.95,199,142,-2100,-129,-97,-78,-106,315,-421,-104
,430,2023-10-27 12:16:14.96,178,123,-2094,-104,-133,-155,-56,108,-164,-26
,431,2023-10-27 12:16:14.97,175,108,-2086,-86,-161,-227,-134,312,-446,-89
,432,2023-10-27 12:16:14.98,181,101,-2083,-62,-182,-293,-68,102,-170,-17
,433,2023-10-27 12:16:14.99,187,70,-2065,-30,-182,-341,-146,302,-448,-78
,434,2023-10-27 12:16:15.00,190,63,-2034,11,-191,-392,-58,85,-143,-13
,435,2023-10-27 12:16:15.01,190,61,-2059,45,-180,-430,-127,283,-410,-78
,436,2023-10-27 12:16:15.02,183,42,-2046,73,-176,-464,-30,70,-100,-20
,437,2023-10-27 12:16:15.03,185,25,-2038,101,-179,-504,-110,280,-390,-85
,438,2023-10-27 12:16:15.04,182,5,-2021,128,-165,-521,-18,73,-91,-27
,439,2023-10-27 12:16:15.05,166,13,-2039,156,-159,-538,-94,285,-379,-95
,440,2023-10-27 12:16:15.06,172,-2,-2031,174,-162,-554,-8,72,-80,-32
,441,2023-10-27 12:16:15.07,165,-14,-2020,194,-143,-556,-104,280,-384,-88
,442,2023-10-27 12:16:15.08,166,-14,-2035,209,-148,-561,-19,77,-96,-29
,443,2023-10-27 12:16:15.09,174,-25,-2046,224,-146,-567,-118,295,-413,-88
,444,2023-10-27 12:16:15.10,178,-24,-2041,238,-134,-562,-28,83,-111,-27
,445,2023-10-27 12:16:15.11,147,-32,-2046,246,-130,-562,-134,291,-425,-78
,446,2023-10-27 12:16:15.12,160,-35,-2044,256,-132,-562,-54,79,-133,-12
,447,2023-10-27 12:16:15.13,158,-35,-2039,264,-130,-552,-160,284,-444,-62
,448,2023-10-27 12:16:15.14,161,-54,-2041,272,-138,-545,-58,71,-129,-6
,449,2023-10-27 12:16:15.15,149,-52,-2057,282,-123,-539,-149,267,-416,-59
,450,2023-10-27 12:16:15.16,149,-63,-2055,283,-120,-527,-54,60,-114,-3
,451,2023-10-27 12:16:15.17,148,-48,-2088,291,-119,-516,-164,261,-425,-48
,452,2023-10-27 12:16:15.18,153,-56,-2052,285,-115,-508,-56,58,-114,-1
,453,2023-10-27 12:16:15.19,155,-59,-2050,286,-128,-509,-162,262,-424,-50
,454,2023-10-27 12:16:15.20,161,-56,-2056,297,-108,-499,-64,59,-123,2
,455,2023-10-27 12:16:15.21,157,-70,-2059,301,-101,-498,-208,249,-457,-20
,456,2023-10-27 12:16:15.22,136,-86,-2027,300,-86,-500,-109,44,-153,32
,457,2023-10-27 12:16:15.23,151,-81,-2037,311,-80,-485,-237,238,-475,0
,458,2023-10-27 12:16:15.24,134,-99,-2040,317,-66,-481,-132,44,-176,44
,459,2023-10-27 12:16:15.25,153,-89,-2064,317,-72,-471,-256,266,-522,-5
,460,2023-10-27 12:16:15.26,141,-98,-2050,306,-49,-470,-152,68,-220,42
,461,2023-10-27 12:16:15.27,133,-111,-2046,300,-45,-450,-300,255,-555,22
,462,2023-10-27 12:16:15.28,133,-103,-2044,306,-43,-439,-203,43,-246,80
,463,2023-10-27 12:16:15.29,149,-95,-2039,305,-35,-432,-333,242,-575,45
,464,2023-10-27 12:16:15.30,140,-121,-2082,304,-39,-430,-219,54,-273,82
,465,2023-10-27 12:16:15.31,131,-137,-2068,312,-44,-410,-355,242,-597,56
,466,2023-10-27 12:16:15.32,147,-145,-2058,317,-44,-390,-235,55,-290,90
,467,2023-10-27 12:16:15.33,151,-155,-2061,321,-52,-381,-384,233,-617,75
,468,2023-10-27 12:16:15.34,140,-166,-2025,317,-47,-366,-264,50,-314,107
,469,2023-10-27 12:16:15.35,159,-179,-2030,323,-53,-347,-399,242,-641,78
,470,2023-10-27 12:16:15.36,141,-197,-2040,312,-31,-328,-268,71,-339,98
,471,2023-10-27 12:16:15.37,141,-197,-2019,297,-30,-302,-394,256,-650,69
,472,2023-10-27 12:16:15.38,147,-215,-2025,283,-27,-275,-255,84,-339,85
,473,2023-10-27 12:16:15.39,125,-221,-2045,264,-16,-259,-370,261,-631,54
,474,2023-10-27 12:16:15.40,125,-235,-2006,233,11,-226,-226,88,-314,69
,475,2023-10-27 12:16:15.41,124,-239,-1991,210,10,-203,-349,275,-624,37
,476,2023-10-27 12:16:15.42,130,-230,-1982,192,17,-186,-205,109,-314,48
,477,2023-10-27 12:16:15.43,145,-239,-1974,168,30,-159,-310,277,-587,16
,478,2023-10-27 12:16:15.44,129,-234,-1991,138,52,-139,-167,105,-272,31
,479,2023-10-27 12:16:15.45,139,-233,-1997,110,66,-120,-286,290,-576,-2
,480,2023-10-27 12:16:15.46,144,-244,-1993,86,82,-104,-139,135,-274,2
,481,2023-10-27 12:16:15.47,138,-242,-2018,61,96,-93,-196,290,-486,-47
,482,2023-10-27 12:16:15.48,142,-237,-2031,37,118,-71,-21,116,-137,-47
,483,2023-10-27 12:16:15.49,143,-225,-2031,19,124,-56,-65,314,-379,-124
,484,2023-10-27 12:16:15.50,159,-223,-2036,8,122,-47,69,172,-103,-120
,485,2023-10-27 12:16:15.51,163,-213,-2038,4,131,-36,-35,368,-403,-166
,486,2023-10-27 12:16:15.52,171,-228,-2034,9,118,-28,54,200,-146,-127
,487,2023-10-27 12:16:15.53,164,-232,-2038,10,127,-17,-62,374,-436,-156
,488,2023-10-27 12:16:15.54,188,-225,-2051,15,128,-3,37,208,-171,-122
,489,2023-10-27 12:16:15.55,167,-227,-2045,5,127,-3,-28,366,-394,-169
,490,2023-10-27 12:16:15.56,183,-226,-2049,8,119,10,82,202,-120,-142
,491,2023-10-27 12:16:15.57,181,-216,-2058,10,129,16,-17,354,-371,-168
,492,2023-10-27 12:16:15.58,184,-216,-2051,13,122,21,36,200,-164,-118
,493,2023-10-27 12:16:15.59,186,-212,-2056,25,110,28,-69,334,-403,-132
,494,2023-10-27 12:16:15.60,183,-199,-2054,25,96,32,22,187,-165,-104
,495,2023-10-27 12:16:15.61,195,-190,-2066,25,95,31,-64,320,-384,-128
,496,2023-10-27 12:16:15.62,184,-200,-2042,32,85,32,21,189,-168,-105
,497,2023-10-27 12:16:15.63,184,-185,-2067,38,84,24,-78,319,-397,-120
,498,2023-10-27 12:16:15.64,171,-206,-2054,40,68,21,-11,193,-204,-91
,499,2023-10-27 12:16:15.65,192,-197,-2049,53,55,27,-93,331,-424,-119
,500,2023-10-27 12:16:15.66,178,-206,-2055,64,44,21,-12,224,-236,-106
,501,2023-10-27 12:16:15.67,182,-202,-2052,68,37,22,-115,323,-438,-104
,502,2023-10-27 12:16:15.68,191,-202,-2057,72,29,21,-42,200,-242,-79
,503,2023-10-27 12:16:15.69,179,-222,-2050,75,22,15,-123,296,-419,-86
,504,2023-10-27 12:16:15.70,195,-213,-2044,83,17,20,-28,203,-231,-87
,505,2023-10-27 12:16:15.71,203,-220,-2050,94,16,19,-86,317,-403,-115
,506,2023-10-27 12:16:15.72,203,-220,-2055,101,7,20,-14,218,-232,-102
,507,2023-10-27 12:16:15.73,205,-224,-2043,105,10,21,-104,313,-417,-104
,508,2023-10-27 12:16:15.74,207,-209,-2039,109,10,20,-47,217,-264,-85
,509,2023-10-27 12:16:15.75,216,-201,-2042,108,10,14,-126,305,-431,-89
,510,2023-10-27 12:16:15.76,202,-206,-2043,105,13,9,-49,217,-266,-84
,511,2023-10-27 12:16:15.77,214,-205,-2047,107,1,2,-120,305,-425,-92
,512,2023-10-27 12:16:15.78,217,-206,-2033,111,10,-3,-52,225,-277,-86
,513,2023-10-27 12:16:15.79,211,-204,-2034,117,8,-3,-122,302,-424,-90
,514,2023-10-27 12:16:15.80,226,-182,-2035,116,2,-3,-61,229,-290,-84
,515,2023-10-27 12:16:15.81,212,-219,-2000,115,0,-13,-134,291,-425,-78
,516,2023-10-27 12:16:15.82,216,-219,-2016,120,9,-17,-78,233,-311,-77
,517,2023-10-27 12:16:15.83,218,-208,-2035,114,24,-18,-138,292,-430,-77
,518,2023-10-27 12:16:15.84,205,-237,-2034,107,28,-23,-84,239,-323,-77
,519,2023-10-27 12:16:15.85,197,-245,-2020,107,27,-21,-152,290,-442,-69
,520,2023-10-27 12:16:15.86,198,-239,-2037,106,32,-22,-115,244,-359,-64
,521,2023-10-27 12:16:15.87,191,-243,-2037,102,39,-15,-196,268,-464,-36
,522,2023-10-27 12:16:15.88,196,-255,-2024,94,50,-12,-148,233,-381,-42
,523,2023-10-27 12:16:15.89,190,-265,-2016,93,55,-8,-185,267,-452,-41
,524,2023-10-27 12:16:15.90,201,-265,-2022,85,69,4,-128,242,-370,-57
,525,2023-10-27 12:16:15.91,191,-269,-2026,73,78,8,-168,272,-440,-52
,526,2023-10-27 12:16:15.92,192,-262,-2016,57,91,10,-116,261,-377,-72
,527,2023-10-27 12:16:15.93,199,-261,-2008,48,102,16,-158,275,-433,-58
,528,2023-10-27 12:16:15.94,190,-269,-2012,34,110,18,-115,260,-375,-72
,529,2023-10-27 12:16:15.95,212,-252,-2006,25,123,21,-171,264,-435,-46
,530,2023-10-27 12:16:15.96,199,-249,-2025,11,140,29,-155,262,-417,-53
,531,2023-10-27 12:16:15.97,190,-263,-2012,-4,124,23,-207,265,-472,-29
,532,2023-10-27 12:16:15.98,226,-252,-2014,-12,134,16,-178,276,-454,-49
,533,2023-10-27 12:16:15.99,224,-266,-1995,-13,138,11,-216,275,-491,-29
,534,2023-10-27 12:16:16.00,238,-256,-1986,-2,139,11,-193,289,-482,-48
,535,2023-10-27 12:16:16.01,227,-249,-2014,-5,144,4,-220,272,-492,-26
,536,2023-10-27 12:16:16.02,231,-270,-2057,-19,140,1,-198,290,-488,-46
,537,2023-10-27 12:16:16.03,243,-265,-2054,-26,142,11,-241,269,-510,-14
,538,2023-10-27 12:16:16.04,255,-252,-2047,-23,122,15,-240,306,-546,-33
,539,2023-10-27 12:16:16.05,264,-263,-2034,-28,113,19,-252,283,-535,-15
,540,2023-10-27 12:16:16.06,273,-247,-2070,-40,106,31,-225,316,-541,-45
,541,2023-10-27 12:16:16.07,262,-271,-2023,-56,101,26,-226,277,-503,-25
,542,2023-10-27 12:16:16.08,294,-269,-2036,-46,84,35,-218,311,-529,-46
,543,2023-10-27 12:16:16.09,275,-258,-2061,-47,77,51,-230,258,-488,-14
,544,2023-10-27 12:16:16.10,287,-247,-2063,-54,71,70,-218,307,-525,-44
,545,2023-10-27 12:16:16.11,282,-263,-2056,-65,59,77,-218,261,-479,-21
,546,2023-10-27 12:16:16.12,298,-251,-2070,-58,41,93,-209,318,-527,-54
,547,2023-10-27 12:16:16.13,296,-253,-2060,-58,36,108,-196,259,-455,-31
,548,2023-10-27 12:16:16.14,303,-245,-2081,-66,22,114,-188,326,-514,-69
,549,2023-10-27 12:16:16.15,311,-254,-2060,-66,15,127,-180,260,-440,-40
,550,2023-10-27 12:16:16.16,300,-250,-2057,-50,2,147,-178,334,-512,-78
,551,2023-10-27 12:16:16.17,308,-248,-2054,-44,-9,155,-166,263,-429,-48
,552,2023-10-27 12:16:16.18,320,-239,-2063,-43,-17,171,-168,342,-510,-87
,553,2023-10-27 12:16:16.19,289,-245,-2051,-40,-43,181,-154,251,-405,-48
,554,2023-10-27 12:16:16.20,292,-237,-2057,-33,-71,193,-161,339,-500,-89
,555,2023-10-27 12:16:16.21,278,-229,-2054,-28,-84,213,-122,259,-381,-68
,556,2023-10-27 12:16:16.22,279,-233,-2059,-34,-106,220,-126,353,-479,-113
,557,2023-10-27 12:16:16.23,272,-224,-2066,-31,-134,231,-115,255,-370,-70
,558,2023-10-27 12:16:16.24,269,-217,-2057,-42,-148,237,-126,358,-484,-116
,559,2023-10-27 12:16:16.25,250,-222,-2042,-58,-164,244,-114,251,-365,-68
,560,2023-10-27 12:16:16.26,256,-229,-2058,-61,-189,247,-148,359,-507,-105
,561,2023-10-27 12:16:16.27,242,-213,-2050,-78,-185,253,-130,238,-368,-54
,562,2023-10-27 12:16:16.28,260,-209,-2033,-96,-215,255,-144,341,-485,-98
,563,2023-10-27 12:16:16.29,226,-215,-2042,-115,-207,253,-128,217,-345,-44
,564,2023-10-27 12:16:16.30,244,-214,-2034,-131,-212,249,-151,346,-497,-97
,565,2023-10-27 12:16:16.31,231,-200,-2045,-143,-211,250,-105,229,-334,-62
,566,2023-10-27 12:16:16.32,229,-203,-2045,-153,-209,244,-131,353,-484,-111
,567,2023-10-27 12:16:16.33,218,-187,-2048,-167,-190,239,-101,213,-314,-56
,568,2023-10-27 12:16:16.34,232,-191,-2050,-173,-184,239,-125,344,-469,-109
,569,2023-10-27 12:16:16.35,208,-175,-2045,-181,-176,223,-89,202,-291,-56
,570,2023-10-27 12:16:16.36,203,-171,-2029,-182,-178,212,-112,345,-457,-116
,571,2023-10-27 12:16:16.37,195,-171,-2013,-179,-173,206,-76,196,-272,-60
,572,2023-10-27 12:16:16.38,184,-174,-2021,-173,-169,196,-111,348,-459,-118
,573,2023-10-27 12:16:16.39,174,-172,-2034,-165,-174,183,-80,199,-279,-59
,574,2023-10-27 12:16:16.40,172,-178,-2036,-155,-177,172,-121,353,-474,-116
,575,2023-10-27 12:16:16.41,165,-177,-2038,-141,-170,167,-88,192,-280,-52
,576,2023-10-27 12:16:16.42,154,-171,-2041,-133,-175,159,-139,350,-489,-105
,577,2023-10-27 12:16:16.43,154,-169,-2031,-124,-171,151,-101,186,-287,-42
,578,2023-10-27 12:16:16.44,139,-161,-2039,-118,-165,150,-138,357,-495,-109
,579,2023-10-27 12:16:16.45,144,-163,-2029,-107,-179,149,-106,196,-302,-45
,580,2023-10-27 12:16:16.46,129,-159,-2010,-101,-171,141,-143,364,-507,-110
,581,2023-10-27 12:16:16.47,131,-158,-2023,-95,-156,141,-96,188,-284,-46
,582,2023-10-27 12:16:16.48,121,-155,-2028,-96,-146,140,-129,371,-500,-121
,583,2023-10-27 12:16:16.49,128,-164,-2039,-94,-148,132,-96,186,-282,-45
,584,2023-10-27 12:16:16.50,133,-157,-2033,-79,-141,133,-136,369,-505,-116
,585,2023-10-27 12:16:16.51,119,-151,-2039,-72,-138,128,-93,179,-272,-43
,586,2023-10-27 12:16:16.52,132,-158,-2036,-62,-121,126,-141,361,-502,-110
,587,2023-10-27 12:16:16.53,119,-150,-2039,-57,-109,124,-92,174,-266,-41
,588,2023-10-27 12:16:16.54,128,-165,-2037,-40,-101,129,-147,364,-511,-108
,589,2023-10-27 12:16:16.55,135,-165,-2044,-32,-91,124,-98,177,-275,-39
,590,2023-10-27 12:16:16.56,145,-168,-2017,-17,-78,126,-128,371,-499,-121
,591,2023-10-27 12:16:16.57,139,-183,-2023,7,-72,123,-72,174,-246,-51
,592,2023-10-27 12:16:16.58,129,-173,-2026,27,-65,126,-126,357,-483,-115
,593,2023-10-27 12:16:16.59,125,-173,-2042,43,-53,126,-86,151,-237,-32
,594,2023-10-27 12:16:16.60,118,-188,-2027,61,-58,125,-126,356,-482,-115
,595,2023-10-27 12:16:16.61,123,-191,-2043,87,-57,126,-54,164,-218,-55
,596,2023-10-27 12:16:16.62,126,-195,-2032,105,-58,136,-101,370,-471,-134
,597,2023-10-27 12:16:16.63,112,-194,-2040,111,-47,140,-62,161,-223,-49
,598,2023-10-27 12:16:16.64,126,-190,-2031,123,-59,148,-114,352,-466,-119
,599,2023-10-27 12:16:16.65,96,-196,-2004,138,-70,141,-64,136,-200,-36
,600,2023-10-27 12:16:16.66,105,-184,-2038,145,-66,149,-103,341,-444,-119
,601,2023-10-27 12:16:16.67,100,-183,-2030,142,-61,146,-45,133,-178,-44
,602,2023-10-27 12:16:16.68,117,-177,-2025,144,-74,143,-63,341,-404,-139
,603,2023-10-27 12:16:16.69,98,-204,-2029,147,-68,127,-6,127,-133,-60
,604,2023-10-27 12:16:16.70,106,-187,-2051,144,-55,127,-31,342,-373,-155
,605,2023-10-27 12:16:16.71,100,-183,-2031,130,-74,113,29,133,-104,-81
,606,2023-10-27 12:16:16.72,97,-194,-2050,128,-67,97,5,336,-331,-170
,607,2023-10-27 12:16:16.73,101,-200,-2063,126,-52,95,54,110,-56,-82
,608,2023-10-27 12:16:16.74,73,-196,-2060,109,-36,83,32,311,-279,-171
,609,2023-10-27 12:16:16.75,97,-188,-2066,85,-24,66,70,94,-24,-82
,610,2023-10-27 12:16:16.76,79,-207,-2037,68,-4,56,26,291,-265,-158
,611,2023-10-27 12:16:16.77,97,-214,-2046,71,9,49,57,77,-20,-67
,612,2023-10-27 12:16:16.78,86,-199,-2052,61,13,29,40,298,-258,-169
,613,2023-10-27 12:16:16.79,97,-209,-2038,50,32,22,94,93,1,-93
,614,2023-10-27 12:16:16.80,91,-213,-2057,49,32,11,78,314,-236,-196
,615,2023-10-27 12:16:16.81,86,-226,-2034,54,47,6,119,102,17,-110
,616,2023-10-27 12:16:16.82,89,-228,-2032,67,56,4,89,328,-239,-208
,617,2023-10-27 12:16:16.83,89,-221,-2025,74,61,10,128,121,7,-124
,618,2023-10-27 12:16:16.84,96,-212,-2017,76,72,6,88,338,-250,-213
,619,2023-10-27 12:16:16.85,94,-228,-2012,85,80,3,132,116,16,-124
,620,2023-10-27 12:16:16.86,99,-220,-2007,94,94,4,99,335,-236,-217
,621,2023-10-27 12:16:16.87,100,-225,-1998,103,112,-4,140,118,22,-129
,622,2023-10-27 12:16:16.88,105,-229,-2023,114,133,-6,97,342,-245,-219
,623,2023-10-27 12:16:16.89,114,-232,-2019,129,136,-4,146,136,10,-141
,624,2023-10-27 12:16:16.90,116,-241,-2004,146,124,-19,114,340,-226,-227
,625,2023-10-27 12:16:16.91,131,-229,-2023,161,133,-22,187,121,66,-154
,626,2023-10-27 12:16:16.92,128,-232,-2024,168,148,-24,200,332,-132,-266
,627,2023-10-27 12:16:16.93,137,-251,-2023,167,156,-34,276,125,151,-200
,628,2023-10-27 12:16:16.94,135,-245,-2029,180,150,-40,232,352,-120,-292
,629,2023-10-27 12:16:16.95,131,-259,-2031,193,138,-31,238,139,99,-188
,630,2023-10-27 12:16:16.96,133,-268,-2029,194,135,-32,174,376,-202,-275
,631,2023-10-27 12:16:16.97,126,-267,-2038,187,153,-28,200,165,35,-182
,632,2023-10-27 12:16:16.98,136,-279,-2025,185,159,-23,129,394,-265,-261
,633,2023-10-27 12:16:16.99,138,-289,-2013,204,150,-21,165,181,-16,-173
,634,2023-10-27 12:16:17.00,153,-275,-2040,219,143,-19,99,403,-304,-251
,635,2023-10-27 12:16:17.01,155,-296,-2032,220,143,-21,140,184,-44,-162
,636,2023-10-27 12:16:17.02,145,-303,-2033,226,139,-18,82,399,-317,-240
,637,2023-10-27 12:16:17.03,144,-308,-2034,230,133,-13,133,186,-53,-159
,638,2023-10-27 12:16:17.04,144,-319,-2045,243,132,-7,83,404,-321,-243
,639,2023-10-27 12:16:17.05,149,-322,-2029,242,137,-5,148,198,-50,-173
,640,2023-10-27 12:16:17.06,155,-321,-2022,244,143,-5,85,408,-323,-246
,641,2023-10-27 12:16:17.07,166,-310,-2022,251,141,-1,141,197,-56,-169
,642,2023-10-27 12:16:17.08,170,-308,-2025,247,153,-3,63,370,-307,-216
,643,2023-10-27 12:16:17.09,177,-329,-1989,245,175,-2,97,158,-61,-127
,644,2023-10-27 12:16:17.10,169,-326,-2006,262,171,1,35,358,-323,-196
,645,2023-10-27 12:16:17.11,174,-319,-1983,276,172,-5,126,167,-41,-146
,646,2023-10-27 12:16:17.12,181,-332,-2018,280,178,-7,108,350,-242,-229
,647,2023-10-27 12:16:17.13,193,-348,-2033,266,198,-11,190,158,32,-174
,648,2023-10-27 12:16:17.14,170,-356,-2054,261,188,-13,167,327,-160,-247
,649,2023-10-27 12:16:17.15,185,-357,-2063,253,173,-11,224,146,78,-185
,650,2023-10-27 12:16:17.16,188,-364,-2058,236,187,-15,182,336,-154,-259
,651,2023-10-27 12:16:17.17,191,-351,-2081,209,174,-27,234,167,67,-200
,652,2023-10-27 12:16:17.18,211,-341,-2065,197,147,-34,216,340,-124,-278
,653,2023-10-27 12:16:17.19,185,-337,-2041,188,141,-37,288,161,127,-224
,654,2023-10-27 12:16:17.20,202,-334,-2044,176,118,-42,238,339,-101,-288
,655,2023-10-27 12:16:17.21,200,-329,-2039,161,98,-49,260,180,80,-220
,656,2023-10-27 12:16:17.22,214,-344,-2019,152,87,-50,168,362,-194,-265
,657,2023-10-27 12:16:17.23,204,-345,-2016,141,75,-47,197,197,0,-197
,658,2023-10-27 12:16:17.24,205,-357,-2035,127,41,-60,123,379,-256,-251
,659,2023-10-27 12:16:17.25,205,-372,-2014,113,33,-65,175,213,-38,-194
,660,2023-10-27 12:16:17.26,210,-379,-2036,112,19,-61,113,385,-272,-249
,661,2023-10-27 12:16:17.27,212,-382,-2032,109,-9,-61,164,219,-55,-191
,662,2023-10-27 12:16:17.28,213,-388,-2022,108,-22,-60,91,388,-297,-239
,663,2023-10-27 12:16:17.29,223,-392,-2034,103,-22,-55,140,224,-84,-182
,664,2023-10-27 12:16:17.30,207,-393,-2029,94,-28,-43,87,408,-321,-247
,665,2023-10-27 12:16:17.31,207,-391,-2026,89,-51,-39,138,243,-105,-190
,666,2023-10-27 12:16:17.32,203,-387,-2012,75,-52,-36,78,400,-322,-239
,667,2023-10-27 12:16:17.33,192,-401,-2032,58,-58,-41,133,236,-103,-184
,668,2023-10-27 12:16:17.34,227,-380,-2023,43,-68,-38,69,402,-333,-235
,669,2023-10-27 12:16:17.35,179,-395,-2032,33,-70,-39,127,257,-130,-192
,670,2023-10-27 12:16:17.36,187,-387,-2044,18,-86,-29,56,391,-335,-223
,671,2023-10-27 12:16:17.37,194,-384,-2027,1,-99,-35,127,248,-121,-187
,672,2023-10-27 12:16:17.38,178,-390,-2038,-7,-105,-22,69,393,-324,-231
,673,2023-10-27 12:16:17.39,180,-397,-2035,-14,-116,-15,124,266,-142,-195
,674,2023-10-27 12:16:17.40,181,-378,-2034,-27,-118,-9,58,401,-343,-229
,675,2023-10-27 12:16:17.41,179,-399,-2030,-38,-128,-4,111,271,-160,-191
,676,2023-10-27 12:16:17.42,176,-381,-2032,-45,-130,8,60,398,-338,-229
,677,2023-10-27 12:16:17.43,162,-386,-2035,-54,-145,16,120,275,-155,-197
,678,2023-10-27 12:16:17.44,157,-403,-2039,-61,-160,26,59,396,-337,-227
,679,2023-10-27 12:16:17.45,155,-389,-2028,-65,-158,39,109,280,-171,-194
,680,2023-10-27 12:16:17.46,166,-381,-2027,-72,-146,55,56,385,-329,-220
,681,2023-10-27 12:16:17.47,149,-381,-2053,-81,-147,62,118,277,-159,-197
,682,2023-10-27 12:16:17.48,145,-366,-2048,-82,-145,64,65,383,-318,-224
,683,2023-10-27 12:16:17.49,119,-386,-2046,-82,-153,80,122,281,-159,-201
,684,2023-10-27 12:16:17.50,130,-368,-2031,-82,-163,91,65,372,-307,-218
,685,2023-10-27 12:16:17.51,136,-357,-2033,-81,-174,99,122,282,-160,-202
,686,2023-10-27 12:16:17.52,112,-370,-2014,-82,-177,104,82,384,-302,-233
,687,2023-10-27 12:16:17.53,119,-368,-2014,-79,-163,123,137,306,-169,-221
,688,2023-10-27 12:16:17.54,119,-364,-2025,-78,-171,128,87,371,-284,-229
,689,2023-10-27 12:16:17.55,143,-340,-2018,-77,-178,125,147,290,-143,-218
,690,2023-10-27 12:16:17.56,105,-381,-2021,-69,-178,125,96,358,-262,-227
,691,2023-10-27 12:16:17.57,111,-365,-2017,-63,-166,134,147,298,-151,-222
,692,2023-10-27 12:16:17.58,118,-366,-2019,-57,-162,143,98,358,-260,-228
,693,2023-10-27 12:16:17.59,112,-345,-2011,-58,-145,143,148,300,-152,-224
,694,2023-10-27 12:16:17.60,83,-369,-1999,-57,-130,151,106,353,-247,-229
,695,2023-10-27 12:16:17.61,96,-368,-2022,-54,-118,153,153,306,-153,-229
,696,2023-10-27 12:16:17.62,105,-346,-2011,-55,-104,153,108,334,-226,-221
,697,2023-10-27 12:16:17.63,87,-369,-2014,-48,-88,154,159,299,-140,-229
,698,2023-10-27 12:16:17.64,94,-347,-2010,-42,-89,151,108,335,-227,-221
,699,2023-10-27 12:16:17.65,83,-364,-2011,-36,-78,151,157,313,-156,-235
,700,2023-10-27 12:16:17.66,97,-343,-2020,-37,-48,154,109,340,-231,-224
,701,2023-10-27 12:16:17.67,92,-352,-2015,-35,-38,159,165,321,-156,-243
,702,2023-10-27 12:16:17.68,81,-366,-2016,-29,-32,152,108,323,-215,-215
,703,2023-10-27 12:16:17.69,89,-352,-2018,-22,-38,149,188,312,-124,-250
,704,2023-10-27 12:16:17.70,82,-350,-2006,-17,-28,153,154,300,-146,-227
,705,2023-10-27 12:16:17.71,110,-347,-2011,-9,-12,148,204,314,-110,-259
,706,2023-10-27 12:16:17.72,89,-348,-2000,-8,-5,138,144,302,-158,-223
,707,2023-10-27 12:16:17.73,98,-349,-2008,-8,22,135,194,320,-126,-257
,708,2023-10-27 12:16:17.74,82,-350,-2009,-6,40,131,149,288,-139,-218
,709,2023-10-27 12:16:17.75,88,-350,-2014,-8,33,124,204,314,-110,-259
,710,2023-10-27 12:16:17.76,82,-348,-2012,-5,44,122,150,285,-135,-217
,711,2023-10-27 12:16:17.77,92,-353,-2014,0,46,120,207,313,-106,-260
,712,2023-10-27 12:16:17.78,80,-350,-2009,4,53,114,156,280,-124,-218
,713,2023-10-27 12:16:17.79,88,-346,-2016,12,53,110,215,321,-106,-268
,714,2023-10-27 12:16:17.80,83,-353,-2015,16,55,99,160,266,-106,-213
,715,2023-10-27 12:16:17.81,100,-354,-2014,17,52,92,217,315,-98,-266
,716,2023-10-27 12:16:17.82,96,-344,-2010,21,62,92,152,256,-104,-204
,717,2023-10-27 12:16:17.83,93,-357,-2009,20,64,84,222,318,-96,-270
,718,2023-10-27 12:16:17.84,94,-359,-2020,22,77,80,152,250,-98,-201
,719,2023-10-27 12:16:17.85,81,-364,-2020,22,73,63,221,323,-102,-272
,720,2023-10-27 12:16:17.86,90,-361,-2010,23,73,54,152,244,-92,-198
,721,2023-10-27 12:16:17.87,99,-353,-2013,21,77,48,223,318,-95,-270
,722,2023-10-27 12:16:17.88,104,-356,-2007,12,92,39,149,239,-90,-194
,723,2023-10-27 12:16:17.89,105,-373,-2010,5,93,35,217,328,-111,-272
,724,2023-10-27 12:16:17.90,100,-360,-2010,3,104,28,146,234,-88,-190
,725,2023-10-27 12:16:17.91,108,-361,-2015,2,106,24,218,327,-109,-272
,726,2023-10-27 12:16:17.92,115,-363,-2012,-6,111,20,138,215,-77,-176
,727,2023-10-27 12:16:17.93,107,-364,-2018,-12,112,13,219,318,-99,-268
,728,2023-10-27 12:16:17.94,116,-361,-2026,-13,112,8,137,218,-81,-177
,729,2023-10-27 12:16:17.95,112,-366,-2027,-9,119,10,217,332,-115,-274
,730,2023-10-27 12:16:17.96,123,-357,-2024,-4,94,7,134,218,-84,-176
,731,2023-10-27 12:16:17.97,118,-347,-2031,-6,89,-2,216,338,-122,-277
,732,2023-10-27 12:16:17.98,115,-360,-2027,-7,84,-6,138,220,-82,-179
,733,2023-10-27 12:16:17.99,136,-355,-2020,-6,88,-7,219,338,-119,-278
,734,2023-10-27 12:16:18.00,122,-359,-2026,-6,81,-13,130,198,-68,-164
,735,2023-10-27 12:16:18.01,133,-358,-2025,-2,84,-17,227,329,-102,-278
,736,2023-10-27 12:16:18.02,149,-355,-2028,-2,81,-23,150,195,-45,-172
,737,2023-10-27 12:16:18.03,140,-347,-2029,0,76,-28,225,322,-97,-273
,738,2023-10-27 12:16:18.04,142,-349,-2032,7,76,-37,140,136,4,-138
,739,2023-10-27 12:16:18.05,149,-342,-2033,8,77,-47,258,251,7,-254
,740,2023-10-27 12:16:18.06,133,-343,-2007,8,84,-48,213,74,139,-143
,741,2023-10-27 12:16:18.07,155,-331,-2031,12,88,-54,344,230,114,-287
,742,2023-10-27 12:16:18.08,131,-335,-2038,7,71,-67,272,59,213,-165
,743,2023-10-27 12:16:18.09,144,-339,-2016,-14,84,-75,368,226,142,-297
,744,2023-10-27 12:16:18.10,148,-342,-2008,-17,67,-75,263,60,203,-161
,745,2023-10-27 12:16:18.11,157,-335,-2039,-9,72,-76,355,240,115,-297
,746,2023-10-27 12:16:18.12,137,-345,-2031,-12,58,-83,259,69,190,-164
,747,2023-10-27 12:16:18.13,146,-355,-2007,-12,76,-78,353,238,115,-295
,748,2023-10-27 12:16:18.14,158,-346,-2021,-1,80,-83,244,60,184,-152
,749,2023-10-27 12:16:18.15,159,-336,-2031,0,75,-83,341,235,106,-288
,750,2023-10-27 12:16:18.16,152,-352,-2031,-3,69,-90,229,55,174,-142
,751,2023-10-27 12:16:18.17,164,-331,-2038,-8,70,-87,328,237,91,-282
,752,2023-10-27 12:16:18.18,164,-340,-2030,-8,62,-85,207,41,166,-124
,753,2023-10-27 12:16:18.19,172,-317,-2069,-17,63,-84,318,237,81,-277
,754,2023-10-27 12:16:18.20,169,-329,-2050,-51,82,-83,207,51,156,-129
,755,2023-10-27 12:16:18.21,177,-343,-2007,-52,79,-84,318,241,77,-279
,756,2023-10-27 12:16:18.22,181,-330,-2025,-35,78,-83,197,40,157,-118
,757,2023-10-27 12:16:18.23,187,-329,-2020,-26,62,-83,306,228,78,-267
,758,2023-10-27 12:16:18.24,185,-333,-2014,-29,70,-86,188,26,162,-107
,759,2023-10-27 12:16:18.25,191,-326,-2032,-21,74,-82,306,221,85,-263
,760,2023-10-27 12:16:18.26,197,-346,-2026,-13,82,-75,191,25,166,-108
,761,2023-10-27 12:16:18.27,205,-341,-2022,-6,70,-71,309,229,80,-269
,762,2023-10-27 12:16:18.28,197,-338,-2015,-3,60,-70,195,34,161,-114
,763,2023-10-27 12:16:18.29,205,-336,-2017,0,65,-57,320,232,88,-276
,764,2023-10-27 12:16:18.30,212,-353,-2012,-4,64,-50,203,25,178,-114
,765,2023-10-27 12:16:18.31,204,-347,-2027,-2,74,-36,320,215,105,-267
,766,2023-10-27 12:16:18.32,217,-347,-2028,2,65,-37,199,6,193,-102
,767,2023-10-27 12:16:18.33,219,-343,-2020,3,71,-27,323,217,106,-270
,768,2023-10-27 12:16:18.34,217,-345,-2021,0,69,-21,203,22,181,-112
,769,2023-10-27 12:16:18.35,212,-348,-2026,-1,60,-15,330,232,98,-281
,770,2023-10-27 12:16:18.36,215,-341,-2025,-2,57,-12,207,28,179,-117
,771,2023-10-27 12:16:18.37,228,-344,-2020,-7,60,0,330,213,117,-271
,772,2023-10-27 12:16:18.38,228,-335,-2017,-16,58,3,202,-1,203,-100
,773,2023-10-27 12:16:18.39,213,-335,-2023,-31,53,10,329,199,130,-264
,774,2023-10-27 12:16:18.40,219,-346,-2022,-39,44,9,202,0,202,-101
,775,2023-10-27 12:16:18.41,236,-343,-2017,-47,47,21,323,200,123,-261
,776,2023-10-27 12:16:18.42,222,-349,-2023,-54,52,25,193,-6,199,-93
,777,2023-10-27 12:16:18.43,219,-344,-2027,-62,42,32,317,189,128,-253
,778,2023-10-27 12:16:18.44,226,-345,-2033,-66,44,41,196,-19,215,-88
,779,2023-10-27 12:16:18.45,229,-343,-2026,-70,48,50,320,185,135,-252
,780,2023-10-27 12:16:18.46,233,-347,-2024,-72,51,59,195,-6,201,-94
,781,2023-10-27 12:16:18.47,241,-345,-2027,-79,52,68,314,193,121,-253
,782,2023-10-27 12:16:18.48,238,-333,-2025,-89,58,72,192,-4,196,-94
,783,2023-10-27 12:16:18.49,235,-332,-2025,-99,71,80,317,192,125,-254
,784,2023-10-27 12:16:18.50,229,-323,-2026,-109,70,84,199,-6,205,-96
,785,2023-10-27 12:16:18.51,223,-316,-2028,-113,75,87,311,183,128,-247
,786,2023-10-27 12:16:18.52,217,-317,-2025,-113,74,91,194,-8,202,-93
,787,2023-10-27 12:16:18.53,216,-319,-2034,-113,76,101,312,184,128,-248
,788,2023-10-27 12:16:18.54,232,-322,-2034,-106,66,101,196,-12,208,-92
,789,2023-10-27 12:16:18.55,239,-299,-2039,-103,61,107,310,176,134,-243
,790,2023-10-27 12:16:18.56,220,-296,-2025,-101,52,106,208,-16,224,-96
,791,2023-10-27 12:16:18.57,219,-301,-2022,-94,53,105,311,170,141,-240
,792,2023-10-27 12:16:18.58,210,-301,-2045,-88,25,99,201,-11,212,-95
,793,2023-10-27 12:16:18.59,218,-296,-2039,-82,11,96,291,156,135,-223
,794,2023-10-27 12:16:18.60,226,-294,-2035,-77,5,85,198,-20,218,-89
