// Data mode  : Full
// Data quality  : High
// Acceleration sensor's range  : 16g
// Gyroscope sensor's range  : 2000dps
//
//ARTIFACT,NUM,DATE,ACC_X,ACC_Y,ACC_Z,GYRO_X,GYRO_Y,GYRO_Z,EOG_L,EOG_R,EOG_H,EOG_V
,1,2023-10-27 12:23:25.33,127,-41,-2066,-22,-24,16,307,392,-85,-349
,2,2023-10-27 12:23:25.34,127,-36,-2052,-18,-39,16,496,624,-128,-560
,3,2023-10-27 12:23:25.35,127,-42,-2046,-12,-29,17,321,400,-79,-360
,4,2023-10-27 12:23:25.36,123,-34,-2046,-10,-29,17,485,625,-140,-555
,5,2023-10-27 12:23:25.37,141,-36,-2055,-11,-25,14,313,405,-92,-359
,6,2023-10-27 12:23:25.38,131,-31,-2046,-7,-26,14,494,627,-133,-560
,7,2023-10-27 12:23:25.39,127,-41,-2051,0,-20,10,335,409,-74,-372
,8,2023-10-27 12:23:25.40,126,-39,-2052,8,-33,6,489,613,-124,-551
,9,2023-10-27 12:23:25.41,128,-47,-2057,11,-35,8,337,407,-70,-372
,10,2023-10-27 12:23:25.42,132,-51,-2039,20,-38,6,487,611,-124,-549
,11,2023-10-27 12:23:25.43,133,-49,-2053,37,-37,10,343,416,-73,-379
,12,2023-10-27 12:23:25.44,130,-57,-2045,47,-43,7,467,612,-145,-539
,13,2023-10-27 12:23:25.45,131,-51,-2046,46,-43,5,335,420,-85,-377
,14,2023-10-27 12:23:25.46,126,-46,-2039,47,-46,2,451,604,-153,-527
,15,2023-10-27 12:23:25.47,115,-42,-2051,52,-43,4,337,418,-81,-377
,16,2023-10-27 12:23:25.48,115,-43,-2051,50,-44,5,449,598,-149,-523
,17,2023-10-27 12:23:25.49,112,-38,-2056,43,-38,6,348,424,-76,-386
,18,2023-10-27 12:23:25.50,119,-41,-2056,40,-40,13,454,595,-141,-524
,19,2023-10-27 12:23:25.51,124,-37,-2046,34,-36,8,360,432,-72,-396
,20,2023-10-27 12:23:25.52,118,-40,-2064,26,-33,13,452,596,-144,-524
,21,2023-10-27 12:23:25.53,109,-26,-2067,15,-39,5,369,438,-69,-403
,22,2023-10-27 12:23:25.54,104,-34,-2060,8,-42,2,452,594,-142,-523
,23,2023-10-27 12:23:25.55,112,-39,-2072,7,-53,2,386,445,-59,-415
,24,2023-10-27 12:23:25.56,108,-38,-2062,-4,-48,6,455,591,-136,-523
,25,2023-10-27 12:23:25.57,114,-36,-2052,-13,-49,7,389,455,-66,-422
,26,2023-10-27 12:23:25.58,107,-23,-2064,-21,-50,8,445,589,-144,-517
,27,2023-10-27 12:23:25.59,105,-29,-2061,-35,-45,7,396,461,-65,-428
,28,2023-10-27 12:23:25.60,124,-23,-2058,-42,-42,14,446,584,-138,-515
,29,2023-10-27 12:23:25.61,100,-17,-2057,-48,-39,13,414,464,-50,-439
,30,2023-10-27 12:23:25.62,98,-15,-2057,-50,-49,17,444,580,-136,-512
,31,2023-10-27 12:23:25.63,99,-1,-2047,-56,-51,20,422,482,-60,-452
,32,2023-10-27 12:23:25.64,107,-9,-2065,-52,-61,23,440,578,-138,-509
,33,2023-10-27 12:23:25.65,121,8,-2037,-57,-62,26,426,480,-54,-453
,34,2023-10-27 12:23:25.66,99,-18,-2065,-53,-58,31,443,571,-128,-507
,35,2023-10-27 12:23:25.67,92,-13,-2067,-50,-77,32,431,481,-50,-456
,36,2023-10-27 12:23:25.68,96,-16,-2063,-43,-78,42,435,570,-135,-502
,37,2023-10-27 12:23:25.69,98,-5,-2060,-41,-86,50,437,487,-50,-462
,38,2023-10-27 12:23:25.70,88,-3,-2037,-37,-83,53,428,564,-136,-496
,39,2023-10-27 12:23:25.71,88,-16,-2061,-26,-82,57,441,491,-50,-466
,40,2023-10-27 12:23:25.72,76,-12,-2079,-13,-94,65,410,541,-131,-475
,41,2023-10-27 12:23:25.73,89,-11,-2057,-1,-108,69,449,496,-47,-472
,42,2023-10-27 12:23:25.74,91,-28,-2058,15,-104,78,419,551,-132,-485
,43,2023-10-27 12:23:25.75,61,-13,-2055,15,-102,80,454,506,-52,-480
,44,2023-10-27 12:23:25.76,87,-17,-2059,10,-81,82,418,547,-129,-482
,45,2023-10-27 12:23:25.77,76,-14,-2061,21,-88,83,470,518,-48,-494
,46,2023-10-27 12:23:25.78,86,-14,-2057,35,-87,82,416,543,-127,-479
,47,2023-10-27 12:23:25.79,58,-9,-2058,38,-81,79,473,515,-42,-494
,48,2023-10-27 12:23:25.80,71,-20,-2060,40,-98,85,405,533,-128,-469
,49,2023-10-27 12:23:25.81,86,-17,-2050,47,-102,90,479,525,-46,-502
,50,2023-10-27 12:23:25.82,68,-14,-2058,52,-90,92,408,528,-120,-468
,51,2023-10-27 12:23:25.83,64,-17,-2063,48,-89,94,492,532,-40,-512
,52,2023-10-27 12:23:25.84,75,-2,-2060,49,-90,93,405,531,-126,-468
,53,2023-10-27 12:23:25.85,73,-10,-2080,57,-98,101,496,541,-45,-518
,54,2023-10-27 12:23:25.86,70,-17,-2069,60,-109,105,397,522,-125,-459
,55,2023-10-27 12:23:25.87,79,-15,-2061,63,-110,103,500,541,-41,-520
,56,2023-10-27 12:23:25.88,76,-9,-2063,72,-107,106,393,512,-119,-452
,57,2023-10-27 12:23:25.89,67,-20,-2059,74,-94,107,505,549,-44,-527
,58,2023-10-27 12:23:25.90,70,-18,-2057,80,-100,106,387,508,-121,-447
,59,2023-10-27 12:23:25.91,76,-29,-2051,86,-96,109,512,552,-40,-532
,60,2023-10-27 12:23:25.92,78,-25,-2052,92,-93,108,380,502,-122,-441
,61,2023-10-27 12:23:25.93,65,-22,-2043,96,-85,105,516,557,-41,-536
,62,2023-10-27 12:23:25.94,63,-43,-2047,103,-84,108,376,498,-122,-437
,63,2023-10-27 12:23:25.95,64,-48,-2046,109,-73,111,525,561,-36,-543
,64,2023-10-27 12:23:25.96,45,-60,-2061,122,-74,110,371,491,-120,-431
,65,2023-10-27 12:23:25.97,45,-62,-2061,131,-67,112,527,570,-43,-548
,66,2023-10-27 12:23:25.98,55,-63,-2051,141,-67,119,365,489,-124,-427
,67,2023-10-27 12:23:25.99,51,-62,-2048,151,-52,124,532,575,-43,-553
,68,2023-10-27 12:23:26.00,50,-75,-2058,160,-52,124,362,483,-121,-422
,69,2023-10-27 12:23:26.01,35,-80,-2056,167,-46,127,539,577,-38,-558
,70,2023-10-27 12:23:26.02,45,-77,-2046,180,-43,121,354,478,-124,-416
,71,2023-10-27 12:23:26.03,39,-71,-2040,195,-30,122,538,583,-45,-560
,72,2023-10-27 12:23:26.04,42,-83,-2057,199,-22,124,346,476,-130,-411
,73,2023-10-27 12:23:26.05,26,-80,-2051,203,-22,116,538,585,-47,-561
,74,2023-10-27 12:23:26.06,23,-82,-2045,212,-5,106,343,466,-123,-404
,75,2023-10-27 12:23:26.07,14,-83,-2045,218,-2,99,556,591,-35,-573
,76,2023-10-27 12:23:26.08,14,-83,-2016,222,8,91,342,458,-116,-400
,77,2023-10-27 12:23:26.09,16,-93,-2019,226,26,86,549,595,-46,-572
,78,2023-10-27 12:23:26.10,10,-110,-2049,227,41,77,323,452,-129,-387
,79,2023-10-27 12:23:26.11,20,-119,-2030,223,55,71,548,605,-57,-576
,80,2023-10-27 12:23:26.12,26,-113,-2036,225,61,66,324,457,-133,-390
,81,2023-10-27 12:23:26.13,30,-127,-2043,228,87,63,551,608,-57,-579
,82,2023-10-27 12:23:26.14,24,-117,-2020,226,107,57,318,448,-130,-383
,83,2023-10-27 12:23:26.15,32,-109,-2016,228,109,45,551,609,-58,-580
,84,2023-10-27 12:23:26.16,34,-110,-2022,217,134,36,305,449,-144,-377
,85,2023-10-27 12:23:26.17,31,-119,-2024,205,143,22,543,617,-74,-580
,86,2023-10-27 12:23:26.18,46,-114,-2035,201,142,10,290,440,-150,-365
,87,2023-10-27 12:23:26.19,33,-111,-2051,198,143,1,540,614,-74,-577
,88,2023-10-27 12:23:26.20,59,-108,-2040,185,131,-12,288,431,-143,-359
,89,2023-10-27 12:23:26.21,40,-123,-2031,172,143,-23,542,620,-78,-581
,90,2023-10-27 12:23:26.22,49,-125,-2069,164,148,-31,272,432,-160,-352
,91,2023-10-27 12:23:26.23,57,-131,-2058,148,144,-44,529,625,-96,-577
,92,2023-10-27 12:23:26.24,55,-146,-2043,143,142,-48,262,429,-167,-345
,93,2023-10-27 12:23:26.25,65,-148,-2076,140,138,-55,528,629,-101,-578
,94,2023-10-27 12:23:26.26,68,-158,-2046,132,142,-58,254,421,-167,-337
,95,2023-10-27 12:23:26.27,90,-168,-2049,130,131,-64,529,635,-106,-582
,96,2023-10-27 12:23:26.28,90,-153,-2050,120,143,-68,249,421,-172,-335
,97,2023-10-27 12:23:26.29,65,-170,-2050,111,147,-68,524,640,-116,-582
,98,2023-10-27 12:23:26.30,80,-174,-2036,112,136,-71,239,418,-179,-328
,99,2023-10-27 12:23:26.31,88,-175,-2052,115,130,-69,522,639,-117,-580
,100,2023-10-27 12:23:26.32,90,-168,-2042,110,123,-69,231,411,-180,-321
,101,2023-10-27 12:23:26.33,102,-174,-2048,98,128,-71,518,637,-119,-577
,102,2023-10-27 12:23:26.34,88,-177,-2049,89,135,-73,225,406,-181,-315
,103,2023-10-27 12:23:26.35,97,-177,-2056,82,120,-72,512,647,-135,-579
,104,2023-10-27 12:23:26.36,98,-184,-2056,77,106,-73,219,411,-192,-315
,105,2023-10-27 12:23:26.37,97,-177,-2051,74,102,-66,507,646,-139,-576
,106,2023-10-27 12:23:26.38,90,-184,-2044,70,105,-66,211,401,-190,-306
,107,2023-10-27 12:23:26.39,98,-184,-2047,62,107,-66,505,644,-139,-574
,108,2023-10-27 12:23:26.40,106,-181,-2043,53,112,-67,212,401,-189,-306
,109,2023-10-27 12:23:26.41,107,-172,-2043,44,120,-66,502,656,-154,-579
,110,2023-10-27 12:23:26.42,113,-181,-2038,40,127,-67,205,404,-199,-304
,111,2023-10-27 12:23:26.43,96,-186,-2044,36,120,-68,494,656,-162,-575
,112,2023-10-27 12:23:26.44,119,-181,-2060,28,126,-68,196,397,-201,-296
,113,2023-10-27 12:23:26.45,133,-180,-2056,24,122,-70,482,656,-174,-569
,114,2023-10-27 12:23:26.46,119,-184,-2040,21,125,-67,190,396,-206,-293
,115,2023-10-27 12:23:26.47,123,-180,-2063,22,116,-66,486,655,-169,-570
,116,2023-10-27 12:23:26.48,115,-191,-2062,22,115,-64,194,400,-206,-297
,117,2023-10-27 12:23:26.49,122,-177,-2044,21,110,-65,480,661,-181,-570
,118,2023-10-27 12:23:26.50,131,-190,-2055,25,110,-60,186,397,-211,-291
,119,2023-10-27 12:23:26.51,121,-189,-2050,24,102,-61,461,652,-191,-556
,120,2023-10-27 12:23:26.52,139,-188,-2059,27,89,-59,183,393,-210,-288
,121,2023-10-27 12:23:26.53,143,-185,-2060,36,80,-53,467,656,-189,-561
,122,2023-10-27 12:23:26.54,152,-186,-2040,40,82,-47,179,392,-213,-285
,123,2023-10-27 12:23:26.55,162,-186,-2030,43,85,-48,451,662,-211,-556
,124,2023-10-27 12:23:26.56,153,-195,-2052,38,102,-47,170,392,-222,-281
,125,2023-10-27 12:23:26.57,161,-191,-2048,44,102,-40,444,660,-216,-552
,126,2023-10-27 12:23:26.58,164,-192,-2057,50,100,-35,170,384,-214,-277
,127,2023-10-27 12:23:26.59,150,-201,-2048,54,85,-33,438,656,-218,-547
,128,2023-10-27 12:23:26.60,162,-204,-2054,55,81,-25,164,386,-222,-275
,129,2023-10-27 12:23:26.61,163,-200,-2051,58,71,-18,423,660,-237,-541
,130,2023-10-27 12:23:26.62,170,-203,-2045,62,70,-9,160,387,-227,-273
,131,2023-10-27 12:23:26.63,161,-192,-2041,61,70,-6,425,668,-243,-546
,132,2023-10-27 12:23:26.64,177,-193,-2037,57,76,-6,176,396,-220,-286
,133,2023-10-27 12:23:26.65,177,-189,-2038,54,76,-5,422,666,-244,-544
,134,2023-10-27 12:23:26.66,174,-196,-2047,47,72,-7,157,388,-231,-272
,135,2023-10-27 12:23:26.67,168,-198,-2042,42,66,-7,395,661,-266,-528
,136,2023-10-27 12:23:26.68,183,-194,-2049,40,63,-3,150,386,-236,-268
,137,2023-10-27 12:23:26.69,176,-200,-2053,39,61,3,390,659,-269,-524
,138,2023-10-27 12:23:26.70,175,-196,-2051,36,57,4,155,383,-228,-269
,139,2023-10-27 12:23:26.71,180,-202,-2040,38,57,12,391,658,-267,-524
,140,2023-10-27 12:23:26.72,183,-201,-2033,38,57,10,164,390,-226,-277
,141,2023-10-27 12:23:26.73,174,-204,-2032,30,60,7,386,662,-276,-524
,142,2023-10-27 12:23:26.74,176,-204,-2040,25,58,5,159,388,-229,-273
,143,2023-10-27 12:23:26.75,171,-207,-2042,20,61,8,372,658,-286,-515
,144,2023-10-27 12:23:26.76,167,-210,-2049,16,61,12,157,385,-228,-271
,145,2023-10-27 12:23:26.77,172,-212,-2067,11,60,16,366,660,-294,-513
,146,2023-10-27 12:23:26.78,171,-210,-2060,5,63,26,159,389,-230,-274
,147,2023-10-27 12:23:26.79,165,-202,-2051,3,67,30,355,659,-304,-507
,148,2023-10-27 12:23:26.80,169,-213,-2059,2,61,29,155,387,-232,-271
,149,2023-10-27 12:23:26.81,174,-213,-2050,0,52,33,346,652,-306,-499
,150,2023-10-27 12:23:26.82,174,-213,-2037,5,48,35,160,384,-224,-272
,151,2023-10-27 12:23:26.83,171,-213,-2020,9,52,40,346,655,-309,-500
,152,2023-10-27 12:23:26.84,179,-218,-2028,12,65,41,160,389,-229,-274
,153,2023-10-27 12:23:26.85,179,-214,-2027,14,73,40,329,649,-320,-489
,154,2023-10-27 12:23:26.86,185,-214,-2032,19,86,34,153,386,-233,-269
,155,2023-10-27 12:23:26.87,197,-202,-2029,20,83,27,324,648,-324,-486
,156,2023-10-27 12:23:26.88,184,-198,-2020,16,86,22,170,392,-222,-281
,157,2023-10-27 12:23:26.89,196,-195,-2025,17,97,18,326,656,-330,-491
,158,2023-10-27 12:23:26.90,189,-200,-2029,15,110,18,169,396,-227,-282
,159,2023-10-27 12:23:26.91,195,-199,-2033,11,121,17,306,646,-340,-476
,160,2023-10-27 12:23:26.92,209,-191,-2027,11,120,17,162,388,-226,-275
,161,2023-10-27 12:23:26.93,212,-199,-2026,8,136,13,293,638,-345,-465
,162,2023-10-27 12:23:26.94,219,-201,-2032,5,145,10,167,392,-225,-279
,163,2023-10-27 12:23:26.95,205,-191,-2023,1,159,9,290,636,-346,-463
,164,2023-10-27 12:23:26.96,223,-186,-2023,4,160,3,177,397,-220,-287
,165,2023-10-27 12:23:26.97,223,-182,-2012,-3,178,-5,279,636,-357,-457
,166,2023-10-27 12:23:26.98,237,-188,-2010,-11,187,-14,174,398,-224,-286
,167,2023-10-27 12:23:26.99,230,-194,-2008,-13,204,-21,258,625,-367,-441
,168,2023-10-27 12:23:27.00,241,-192,-2021,-9,216,-24,167,395,-228,-281
,169,2023-10-27 12:23:27.01,244,-192,-2020,-3,240,-30,224,615,-391,-419
,170,2023-10-27 12:23:27.02,254,-202,-2024,1,257,-36,154,399,-245,-276
,171,2023-10-27 12:23:27.03,273,-193,-2011,5,283,-44,187,617,-430,-402
,172,2023-10-27 12:23:27.04,274,-202,-2003,11,315,-55,140,404,-264,-272
,173,2023-10-27 12:23:27.05,299,-182,-2010,43,351,-89,159,610,-451,-384
,174,2023-10-27 12:23:27.06,302,-184,-1994,48,383,-108,131,402,-271,-266
,175,2023-10-27 12:23:27.07,316,-185,-1994,62,404,-129,141,604,-463,-372
,176,2023-10-27 12:23:27.08,309,-179,-1979,75,435,-154,137,414,-277,-275
,177,2023-10-27 12:23:27.09,324,-190,-1978,93,469,-172,138,612,-474,-375
,178,2023-10-27 12:23:27.10,311,-184,-1986,114,492,-196,140,427,-287,-283
,179,2023-10-27 12:23:27.11,339,-186,-1983,125,504,-221,125,620,-495,-372
,180,2023-10-27 12:23:27.12,347,-198,-1988,136,526,-237,139,432,-293,-285
,181,2023-10-27 12:23:27.13,340,-203,-2003,149,527,-248,101,617,-516,-359
,182,2023-10-27 12:23:27.14,366,-217,-2017,162,513,-264,138,439,-301,-288
,183,2023-10-27 12:23:27.15,383,-215,-2028,182,502,-260,76,610,-534,-343
,184,2023-10-27 12:23:27.16,388,-224,-2020,192,496,-261,128,449,-321,-288
,185,2023-10-27 12:23:27.17,412,-240,-2038,209,481,-262,68,614,-546,-341
,186,2023-10-27 12:23:27.18,432,-243,-2043,224,464,-260,71,457,-386,-264
,187,2023-10-27 12:23:27.19,434,-251,-2042,241,443,-257,-235,618,-853,-191
,188,2023-10-27 12:23:27.20,461,-246,-2044,254,432,-250,-73,463,-536,-195
,189,2023-10-27 12:23:27.21,470,-249,-2041,266,408,-244,-254,608,-862,-177
,190,2023-10-27 12:23:27.22,471,-263,-2047,278,378,-234,-61,468,-529,-203
,191,2023-10-27 12:23:27.23,479,-266,-2055,290,359,-220,-286,605,-891,-159
,192,2023-10-27 12:23:27.24,485,-261,-2048,297,336,-210,-102,475,-577,-186
,193,2023-10-27 12:23:27.25,480,-263,-2044,294,321,-199,-334,603,-937,-134
,194,2023-10-27 12:23:27.26,496,-270,-2040,286,286,-190,-132,478,-610,-173
,195,2023-10-27 12:23:27.27,491,-291,-2063,290,265,-174,-373,597,-970,-112
,196,2023-10-27 12:23:27.28,492,-303,-2050,291,226,-163,-154,489,-643,-167
,197,2023-10-27 12:23:27.29,497,-291,-2042,293,192,-147,-393,600,-993,-103
,198,2023-10-27 12:23:27.30,504,-301,-2040,289,170,-132,-172,501,-673,-164
,199,2023-10-27 12:23:27.31,509,-298,-2041,283,153,-117,-418,594,-1012,-88
,200,2023-10-27 12:23:27.32,505,-308,-2032,273,130,-107,-188,499,-687,-155
,201,2023-10-27 12:23:27.33,509,-315,-2031,262,101,-96,-435,586,-1021,-75
,202,2023-10-27 12:23:27.34,506,-321,-2018,252,81,-76,-203,507,-710,-152
,203,2023-10-27 12:23:27.35,508,-330,-2003,244,48,-60,-455,586,-1041,-65
,204,2023-10-27 12:23:27.36,510,-331,-1989,235,31,-40,-225,504,-729,-139
,205,2023-10-27 12:23:27.37,502,-339,-1989,220,18,-27,-469,579,-1048,-55
,206,2023-10-27 12:23:27.38,512,-340,-1996,202,8,-13,-226,511,-737,-142
,207,2023-10-27 12:23:27.39,506,-345,-1998,185,-4,1,-478,581,-1059,-51
,208,2023-10-27 12:23:27.40,494,-353,-2004,174,-23,13,-233,528,-761,-147
,209,2023-10-27 12:23:27.41,509,-349,-2005,154,-42,25,-489,576,-1065,-43
,210,2023-10-27 12:23:27.42,479,-357,-2007,139,-53,44,-234,533,-767,-149
,211,2023-10-27 12:23:27.43,504,-357,-1998,122,-71,56,-483,567,-1050,-42
,212,2023-10-27 12:23:27.44,509,-360,-1999,109,-87,61,-237,537,-774,-150
,213,2023-10-27 12:23:27.45,517,-351,-1989,93,-92,74,-497,564,-1061,-33
,214,2023-10-27 12:23:27.46,518,-354,-1981,81,-89,77,-245,547,-792,-151
,215,2023-10-27 12:23:27.47,516,-354,-1982,64,-78,79,-499,563,-1062,-32
,216,2023-10-27 12:23:27.48,504,-355,-1985,54,-90,80,-244,557,-801,-156
,217,2023-10-27 12:23:27.49,501,-355,-1987,45,-100,83,-500,560,-1060,-30
,218,2023-10-27 12:23:27.50,492,-361,-1996,36,-95,88,-244,561,-805,-158
,219,2023-10-27 12:23:27.51,501,-353,-1999,27,-98,89,-498,558,-1056,-30
,220,2023-10-27 12:23:27.52,492,-360,-2008,22,-98,93,-245,570,-815,-162
,221,2023-10-27 12:23:27.53,479,-351,-2013,23,-115,98,-496,545,-1041,-24
,222,2023-10-27 12:23:27.54,474,-358,-2017,23,-132,100,-234,562,-796,-164
,223,2023-10-27 12:23:27.55,481,-378,-2014,19,-132,101,-498,536,-1034,-19
,224,2023-10-27 12:23:27.56,465,-369,-2015,16,-145,109,-252,576,-828,-162
,225,2023-10-27 12:23:27.57,460,-368,-2012,22,-148,112,-512,539,-1051,-13
,226,2023-10-27 12:23:27.58,453,-365,-2005,30,-158,115,-262,584,-846,-161
,227,2023-10-27 12:23:27.59,453,-367,-2001,30,-161,116,-511,529,-1040,-9
,228,2023-10-27 12:23:27.60,424,-368,-2001,32,-170,114,-255,584,-839,-164
,229,2023-10-27 12:23:27.61,424,-376,-1997,34,-182,113,-507,523,-1030,-8
,230,2023-10-27 12:23:27.62,422,-386,-1994,41,-179,119,-260,590,-850,-165
,231,2023-10-27 12:23:27.63,424,-384,-1992,43,-180,124,-511,519,-1030,-4
,232,2023-10-27 12:23:27.64,412,-383,-1988,44,-189,123,-266,594,-860,-164
,233,2023-10-27 12:23:27.65,413,-389,-1981,40,-182,129,-513,514,-1027,0
,234,2023-10-27 12:23:27.66,400,-370,-1976,41,-185,128,-272,598,-870,-163
,235,2023-10-27 12:23:27.67,399,-375,-1983,38,-184,129,-514,498,-1012,8
,236,2023-10-27 12:23:27.68,404,-374,-1987,31,-182,131,-275,600,-875,-162
,237,2023-10-27 12:23:27.69,402,-382,-2003,31,-187,130,-513,501,-1014,6
,238,2023-10-27 12:23:27.70,396,-393,-2019,30,-198,139,-273,609,-882,-168
,239,2023-10-27 12:23:27.71,400,-392,-2032,35,-224,146,-509,502,-1011,3
,240,2023-10-27 12:23:27.72,395,-397,-2027,37,-242,153,-280,616,-896,-168
,241,2023-10-27 12:23:27.73,408,-372,-2014,42,-263,164,-515,490,-1005,12
,242,2023-10-27 12:23:27.74,419,-370,-1982,41,-266,162,-285,611,-896,-163
,243,2023-10-27 12:23:27.75,410,-365,-1988,39,-265,159,-510,488,-998,11
,244,2023-10-27 12:23:27.76,384,-368,-1980,40,-259,155,-282,622,-904,-170
,245,2023-10-27 12:23:27.77,392,-378,-1993,43,-265,155,-512,469,-981,21
,246,2023-10-27 12:23:27.78,388,-370,-1986,42,-260,153,-285,622,-907,-168
,247,2023-10-27 12:23:27.79,377,-377,-1987,43,-268,152,-504,475,-979,14
,248,2023-10-27 12:23:27.80,383,-374,-1995,38,-249,150,-286,636,-922,-175
,249,2023-10-27 12:23:27.81,354,-377,-1990,39,-244,146,-500,476,-976,12
,250,2023-10-27 12:23:27.82,353,-376,-1984,35,-240,144,-287,633,-920,-173
,251,2023-10-27 12:23:27.83,340,-380,-1979,36,-244,145,-498,467,-965,15
,252,2023-10-27 12:23:27.84,341,-369,-1994,34,-236,144,-292,635,-927,-171
,253,2023-10-27 12:23:27.85,320,-377,-1986,23,-229,142,-494,459,-953,17
,254,2023-10-27 12:23:27.86,334,-381,-2001,18,-218,141,-287,644,-931,-178
,255,2023-10-27 12:23:27.87,315,-379,-2006,11,-218,138,-484,468,-952,8
,256,2023-10-27 12:23:27.88,313,-379,-1995,5,-218,133,-282,647,-929,-182
,257,2023-10-27 12:23:27.89,308,-370,-2005,2,-217,133,-480,446,-926,17
,258,2023-10-27 12:23:27.90,304,-370,-2001,-14,-206,130,-285,640,-925,-177
,259,2023-10-27 12:23:27.91,285,-389,-2007,-21,-198,126,-473,450,-923,11
,260,2023-10-27 12:23:27.92,291,-388,-2012,-17,-181,122,-283,653,-936,-185
,261,2023-10-27 12:23:27.93,281,-370,-2019,-16,-178,117,-465,448,-913,8
,262,2023-10-27 12:23:27.94,274,-383,-1999,-33,-177,110,-280,651,-931,-185
,263,2023-10-27 12:23:27.95,286,-375,-2001,-38,-170,106,-456,436,-892,10
,264,2023-10-27 12:23:27.96,269,-374,-2000,-39,-159,104,-277,648,-925,-185
,265,2023-10-27 12:23:27.97,272,-376,-2021,-36,-160,99,-450,438,-888,6
,266,2023-10-27 12:23:27.98,271,-378,-2024,-39,-150,95,-281,656,-937,-187
,267,2023-10-27 12:23:27.99,265,-382,-2020,-35,-161,90,-446,434,-880,6
,268,2023-10-27 12:23:28.00,237,-377,-2015,-30,-154,83,-282,654,-936,-186
,269,2023-10-27 12:23:28.01,255,-377,-2019,-24,-152,81,-437,423,-860,7
,270,2023-10-27 12:23:28.02,238,-366,-2021,-33,-136,75,-283,660,-943,-188
,271,2023-10-27 12:23:28.03,247,-383,-1985,-32,-137,79,-436,428,-864,4
,272,2023-10-27 12:23:28.04,237,-374,-2007,-24,-148,74,-289,664,-953,-187
,273,2023-10-27 12:23:28.05,232,-382,-1974,-25,-145,76,-433,424,-857,4
,274,2023-10-27 12:23:28.06,241,-376,-1988,-22,-149,80,-289,665,-954,-188
,275,2023-10-27 12:23:28.07,233,-375,-1988,-34,-127,78,-422,420,-842,1
,276,2023-10-27 12:23:28.08,255,-370,-2008,-37,-133,77,-287,668,-955,-190
,277,2023-10-27 12:23:28.09,236,-362,-1994,-42,-119,76,-422,420,-842,1
,278,2023-10-27 12:23:28.10,242,-377,-2016,-44,-116,75,-290,666,-956,-188
,279,2023-10-27 12:23:28.11,223,-375,-1986,-43,-115,81,-410,414,-824,-2
,280,2023-10-27 12:23:28.12,222,-381,-2013,-39,-106,88,-284,672,-956,-194
,281,2023-10-27 12:23:28.13,220,-371,-2015,-46,-97,91,-397,413,-810,-8
,282,2023-10-27 12:23:28.14,233,-379,-2007,-59,-87,98,-287,674,-961,-193
,283,2023-10-27 12:23:28.15,243,-369,-2020,-64,-77,102,-397,408,-805,-5
,284,2023-10-27 12:23:28.16,229,-360,-2012,-65,-69,108,-289,674,-963,-192
,285,2023-10-27 12:23:28.17,238,-375,-2028,-60,-67,113,-385,413,-798,-14
,286,2023-10-27 12:23:28.18,220,-357,-2047,-67,-57,116,-289,676,-965,-193
,287,2023-10-27 12:23:28.19,218,-354,-2026,-77,-59,120,-380,406,-786,-13
,288,2023-10-27 12:23:28.20,223,-364,-2027,-75,-49,121,-295,673,-968,-189
,289,2023-10-27 12:23:28.21,221,-369,-2029,-63,-49,126,-375,407,-782,-16
,290,2023-10-27 12:23:28.22,196,-357,-2014,-55,-61,123,-294,675,-969,-190
,291,2023-10-27 12:23:28.23,218,-353,-2021,-56,-50,130,-362,404,-766,-21
,292,2023-10-27 12:23:28.24,200,-355,-2000,-67,-46,127,-291,671,-962,-190
,293,2023-10-27 12:23:28.25,216,-368,-1984,-58,-48,130,-356,405,-761,-24
,294,2023-10-27 12:23:28.26,207,-364,-1959,-39,-40,129,-296,676,-972,-190
,295,2023-10-27 12:23:28.27,215,-356,-1976,-23,-37,125,-350,401,-751,-25
,296,2023-10-27 12:23:28.28,218,-347,-1974,-31,-19,126,-295,674,-969,-189
,297,2023-10-27 12:23:28.29,221,-364,-1995,-39,2,123,-341,399,-740,-29
,298,2023-10-27 12:23:28.30,220,-369,-2014,-41,9,121,-300,678,-978,-189
,299,2023-10-27 12:23:28.31,211,-344,-2015,-40,13,123,-338,403,-741,-32
,300,2023-10-27 12:23:28.32,200,-344,-2018,-44,10,123,-301,675,-976,-187
,301,2023-10-27 12:23:28.33,203,-338,-2036,-59,14,125,-326,396,-722,-35
,302,2023-10-27 12:23:28.34,207,-327,-2046,-72,10,121,-294,668,-962,-187
,303,2023-10-27 12:23:28.35,199,-324,-2042,-78,7,124,-316,395,-711,-39
,304,2023-10-27 12:23:28.36,193,-313,-2040,-83,2,121,-293,676,-969,-191
,305,2023-10-27 12:23:28.37,199,-309,-2044,-94,-9,114,-312,401,-713,-44
,306,2023-10-27 12:23:28.38,199,-313,-2058,-104,-15,104,-302,672,-974,-185
,307,2023-10-27 12:23:28.39,195,-315,-2058,-111,-17,95,-309,394,-703,-42
,308,2023-10-27 12:23:28.40,198,-308,-2074,-116,-17,89,-299,665,-964,-183
,309,2023-10-27 12:23:28.41,187,-314,-2055,-119,-29,83,-292,393,-685,-50
,310,2023-10-27 12:23:28.42,194,-318,-2051,-118,-33,74,-295,671,-966,-188
,311,2023-10-27 12:23:28.43,188,-317,-2022,-113,-43,68,-284,402,-686,-59
,312,2023-10-27 12:23:28.44,199,-312,-2004,-104,-41,61,-305,675,-980,-185
,313,2023-10-27 12:23:28.45,191,-313,-2015,-103,-31,62,-285,404,-689,-59
,314,2023-10-27 12:23:28.46,184,-315,-1993,-102,-35,56,-298,670,-968,-186
,315,2023-10-27 12:23:28.47,195,-321,-2007,-100,-22,50,-258,414,-672,-78
,316,2023-10-27 12:23:28.48,197,-313,-1999,-101,-17,52,-291,679,-970,-194
,317,2023-10-27 12:23:28.49,204,-322,-2006,-91,-17,53,-261,406,-667,-72
,318,2023-10-27 12:23:28.50,187,-325,-2011,-75,-9,57,-308,660,-968,-176
,319,2023-10-27 12:23:28.51,197,-311,-2022,-67,-6,55,-257,402,-659,-72
,320,2023-10-27 12:23:28.52,198,-310,-2021,-71,-1,56,-299,663,-962,-182
,321,2023-10-27 12:23:28.53,198,-307,-2035,-73,6,59,-240,406,-646,-83
,322,2023-10-27 12:23:28.54,179,-303,-2052,-74,3,60,-295,665,-960,-185
,323,2023-10-27 12:23:28.55,169,-315,-2048,-76,-7,61,-234,404,-638,-85
,324,2023-10-27 12:23:28.56,191,-304,-2084,-77,1,64,-294,656,-950,-181
,325,2023-10-27 12:23:28.57,173,-300,-2057,-83,-19,64,-226,405,-631,-89
,326,2023-10-27 12:23:28.58,173,-293,-2051,-84,-6,62,-291,662,-953,-185
,327,2023-10-27 12:23:28.59,168,-295,-2053,-94,-7,60,-219,404,-623,-92
,328,2023-10-27 12:23:28.60,169,-289,-2038,-105,-9,60,-287,657,-944,-185
,329,2023-10-27 12:23:28.61,170,-282,-2043,-110,1,63,-207,408,-615,-100
,330,2023-10-27 12:23:28.62,164,-285,-2034,-116,6,64,-289,651,-940,-181
,331,2023-10-27 12:23:28.63,167,-280,-2024,-118,11,62,-194,410,-604,-108
,332,2023-10-27 12:23:28.64,165,-285,-2037,-121,4,59,-285,652,-937,-183
,333,2023-10-27 12:23:28.65,174,-280,-2031,-116,2,57,-188,417,-605,-114
,334,2023-10-27 12:23:28.66,159,-288,-2034,-105,8,55,-287,650,-937,-181
,335,2023-10-27 12:23:28.67,165,-284,-2031,-95,13,58,-184,415,-599,-115
,336,2023-10-27 12:23:28.68,172,-277,-2029,-86,10,52,-297,643,-940,-173
,337,2023-10-27 12:23:28.69,178,-276,-2024,-80,9,47,-183,421,-604,-119
,338,2023-10-27 12:23:28.70,169,-287,-2027,-73,18,44,-297,648,-945,-175
,339,2023-10-27 12:23:28.71,160,-268,-2028,-64,13,43,-172,426,-598,-127
,340,2023-10-27 12:23:28.72,173,-276,-2026,-58,18,43,-298,637,-935,-169
,341,2023-10-27 12:23:28.73,167,-289,-2029,-53,14,42,-169,419,-588,-125
,342,2023-10-27 12:23:28.74,166,-287,-2036,-43,6,43,-300,630,-930,-165
,343,2023-10-27 12:23:28.75,166,-278,-2035,-33,-1,45,-161,427,-588,-133
,344,2023-10-27 12:23:28.76,177,-284,-2039,-25,4,52,-303,634,-937,-165
,345,2023-10-27 12:23:28.77,159,-280,-2040,-21,2,51,-158,432,-590,-137
,346,2023-10-27 12:23:28.78,165,-272,-2038,-18,-4,45,-304,629,-933,-162
,347,2023-10-27 12:23:28.79,172,-267,-2031,-16,-6,48,-147,439,-586,-146
,348,2023-10-27 12:23:28.80,189,-271,-2028,-14,-4,47,-300,632,-932,-166
,349,2023-10-27 12:23:28.81,192,-275,-2034,-19,3,44,-138,446,-584,-154
,350,2023-10-27 12:23:28.82,188,-266,-2032,-18,4,42,-301,625,-926,-162
,351,2023-10-27 12:23:28.83,189,-271,-2039,-20,10,43,-134,444,-578,-155
,352,2023-10-27 12:23:28.84,187,-269,-2036,-21,5,41,-302,619,-921,-158
,353,2023-10-27 12:23:28.85,180,-264,-2042,-25,3,45,-126,450,-576,-162
,354,2023-10-27 12:23:28.86,173,-262,-2045,-32,16,48,-304,622,-926,-159
,355,2023-10-27 12:23:28.87,182,-263,-2040,-34,16,51,-121,462,-583,-170
,356,2023-10-27 12:23:28.88,182,-256,-2034,-39,14,57,-299,620,-919,-160
,357,2023-10-27 12:23:28.89,178,-254,-2030,-45,16,53,-114,459,-573,-172
,358,2023-10-27 12:23:28.90,166,-249,-2046,-52,15,52,-303,608,-911,-152
,359,2023-10-27 12:23:28.91,182,-251,-2033,-58,10,55,-116,453,-569,-168
,360,2023-10-27 12:23:28.92,188,-250,-2039,-58,10,54,-304,608,-912,-152
,361,2023-10-27 12:23:28.93,176,-256,-2042,-59,8,56,-102,472,-574,-185
,362,2023-10-27 12:23:28.94,180,-252,-2037,-56,3,62,-303,610,-913,-153
,363,2023-10-27 12:23:28.95,181,-256,-2038,-52,4,67,-99,478,-577,-189
,364,2023-10-27 12:23:28.96,178,-245,-2047,-48,5,62,-307,595,-902,-144
,365,2023-10-27 12:23:28.97,182,-250,-2043,-48,8,60,-93,472,-565,-189
,366,2023-10-27 12:23:28.98,169,-251,-2045,-43,4,61,-308,590,-898,-141
,367,2023-10-27 12:23:28.99,178,-253,-2048,-36,-8,60,-90,485,-575,-197
,368,2023-10-27 12:23:29.00,181,-244,-2039,-34,-13,61,-309,587,-896,-139
,369,2023-10-27 12:23:29.01,186,-239,-2029,-28,-4,67,-84,490,-574,-203
,370,2023-10-27 12:23:29.02,174,-242,-2034,-28,-5,71,-309,576,-885,-133
,371,2023-10-27 12:23:29.03,172,-240,-2043,-28,0,70,-79,497,-576,-209
,372,2023-10-27 12:23:29.04,181,-235,-2045,-23,-2,70,-311,579,-890,-134
,373,2023-10-27 12:23:29.05,183,-243,-2047,-22,1,71,-77,505,-582,-214
,374,2023-10-27 12:23:29.06,157,-240,-2031,-25,-16,68,-311,569,-880,-129
,375,2023-10-27 12:23:29.07,163,-241,-2035,-26,-7,64,-69,507,-576,-219
,376,2023-10-27 12:23:29.08,172,-230,-2042,-24,-6,70,-309,563,-872,-127
,377,2023-10-27 12:23:29.09,183,-225,-2044,-29,-4,69,-64,512,-576,-224
,378,2023-10-27 12:23:29.10,180,-227,-2042,-33,7,63,-309,563,-872,-127
,379,2023-10-27 12:23:29.11,166,-232,-2033,-34,-4,61,-62,522,-584,-230
,380,2023-10-27 12:23:29.12,173,-226,-2047,-38,6,63,-313,555,-868,-121
,381,2023-10-27 12:23:29.13,175,-224,-2045,-38,5,61,-61,522,-583,-230
,382,2023-10-27 12:23:29.14,174,-222,-2043,-40,10,60,-312,552,-864,-120
,383,2023-10-27 12:23:29.15,179,-225,-2039,-42,12,59,-51,535,-586,-242
,384,2023-10-27 12:23:29.16,176,-222,-2044,-44,12,60,-310,548,-858,-119
,385,2023-10-27 12:23:29.17,180,-222,-2048,-45,10,56,-52,534,-586,-241
,386,2023-10-27 12:23:29.18,180,-214,-2041,-44,8,57,-312,538,-850,-113
,387,2023-10-27 12:23:29.19,177,-209,-2041,-40,18,60,-45,538,-583,-246
,388,2023-10-27 12:23:29.20,188,-214,-2032,-41,21,55,-304,528,-832,-112
,389,2023-10-27 12:23:29.21,173,-215,-2035,-41,21,53,-38,545,-583,-253
,390,2023-10-27 12:23:29.22,181,-210,-2039,-41,24,52,-309,532,-841,-111
,391,2023-10-27 12:23:29.23,187,-219,-2041,-39,25,52,-40,556,-596,-258
,392,2023-10-27 12:23:29.24,185,-213,-2047,-38,23,53,-310,530,-840,-110
,393,2023-10-27 12:23:29.25,186,-204,-2045,-35,23,54,-42,562,-604,-260
,394,2023-10-27 12:23:29.26,180,-212,-2048,-33,14,52,-314,518,-832,-102
,395,2023-10-27 12:23:29.27,181,-215,-2051,-28,13,54,-36,570,-606,-267
,396,2023-10-27 12:23:29.28,184,-217,-2048,-24,5,53,-310,515,-825,-102
,397,2023-10-27 12:23:29.29,184,-217,-2053,-18,-5,57,-29,574,-603,-272
,398,2023-10-27 12:23:29.30,185,-214,-2058,-13,-9,60,-315,503,-818,-94
,399,2023-10-27 12:23:29.31,182,-219,-2066,-10,-11,64,-38,570,-608,-266
,400,2023-10-27 12:23:29.32,181,-215,-2047,-4,-32,64,-320,493,-813,-86
,401,2023-10-27 12:23:29.33,181,-202,-2026,-5,-21,60,-28,585,-613,-278
,402,2023-10-27 12:23:29.34,197,-206,-2033,-2,-33,58,-304,505,-809,-100
,403,2023-10-27 12:23:29.35,178,-215,-2023,-4,-31,53,-18,596,-614,-289
,404,2023-10-27 12:23:29.36,187,-212,-2031,-7,-24,52,-301,492,-793,-95
,405,2023-10-27 12:23:29.37,191,-213,-2040,-5,-27,53,-24,590,-614,-283
,406,2023-10-27 12:23:29.38,187,-216,-2045,-2,-27,49,-305,489,-794,-92
,407,2023-10-27 12:23:29.39,181,-213,-2041,-3,-29,47,-24,598,-622,-287
,408,2023-10-27 12:23:29.40,188,-216,-2066,-4,-20,44,-303,485,-788,-91
,409,2023-10-27 12:23:29.41,178,-198,-2066,-10,-22,48,-21,603,-624,-291
,410,2023-10-27 12:23:29.42,165,-206,-2050,-22,-25,45,-300,478,-778,-89
,411,2023-10-27 12:23:29.43,155,-208,-2043,-28,-30,46,-14,603,-617,-294
,412,2023-10-27 12:23:29.44,173,-194,-2051,-33,-30,46,-288,482,-770,-97
,413,2023-10-27 12:23:29.45,154,-184,-2024,-39,-32,43,-9,611,-620,-301
,414,2023-10-27 12:23:29.46,172,-189,-2051,-46,-27,41,-289,473,-762,-92
,415,2023-10-27 12:23:29.47,161,-187,-2040,-61,-30,36,-2,612,-614,-305
,416,2023-10-27 12:23:29.48,153,-191,-2058,-70,-28,27,-275,470,-745,-97
,417,2023-10-27 12:23:29.49,157,-179,-2064,-82,-28,26,11,623,-612,-317
,418,2023-10-27 12:23:29.50,162,-189,-2063,-90,-27,24,-270,463,-733,-96
,419,2023-10-27 12:23:29.51,171,-172,-2068,-91,-41,18,18,622,-604,-320
,420,2023-10-27 12:23:29.52,146,-176,-2064,-97,-37,14,-250,459,-709,-104
,421,2023-10-27 12:23:29.53,157,-172,-2060,-105,-34,18,46,628,-582,-337
,422,2023-10-27 12:23:29.54,149,-178,-2039,-112,-38,10,-240,457,-697,-108
,423,2023-10-27 12:23:29.55,145,-161,-2047,-110,-38,9,174,633,-459,-403
,424,2023-10-27 12:23:29.56,160,-165,-2008,-111,-35,5,-47,447,-494,-200
,425,2023-10-27 12:23:29.57,179,-175,-2022,-102,-31,5,236,627,-391,-431
,426,2023-10-27 12:23:29.58,170,-172,-2034,-104,-31,3,-67,446,-513,-189
,427,2023-10-27 12:23:29.59,163,-168,-2032,-114,-27,-3,214,641,-427,-427
,428,2023-10-27 12:23:29.60,173,-168,-2045,-111,-20,-6,-70,447,-517,-188
,429,2023-10-27 12:23:29.61,163,-163,-2062,-101,-25,-7,228,645,-417,-436
,430,2023-10-27 12:23:29.62,159,-160,-2058,-97,-18,-8,-48,442,-490,-197
,431,2023-10-27 12:23:29.63,156,-171,-2058,-97,-23,-17,254,647,-393,-450
,432,2023-10-27 12:23:29.64,163,-167,-2060,-84,-29,-18,-30,442,-472,-206
,433,2023-10-27 12:23:29.65,156,-166,-2043,-74,-41,-16,253,654,-401,-453
,434,2023-10-27 12:23:29.66,149,-164,-2056,-60,-40,-13,-34,436,-470,-201
,435,2023-10-27 12:23:29.67,144,-157,-2062,-74,-29,-16,256,652,-396,-454
,436,2023-10-27 12:23:29.68,143,-162,-2059,-72,-28,-12,-22,427,-449,-202
,437,2023-10-27 12:23:29.69,143,-169,-2058,-61,-36,-8,263,655,-392,-459
,438,2023-10-27 12:23:29.70,151,-164,-2055,-52,-41,-6,-17,431,-448,-207
,439,2023-10-27 12:23:29.71,142,-170,-2037,-45,-28,1,262,658,-396,-460
,440,2023-10-27 12:23:29.72,137,-174,-2053,-35,-28,2,-16,425,-441,-204
,441,2023-10-27 12:23:29.73,125,-173,-2055,-34,-26,4,260,642,-382,-451
,442,2023-10-27 12:23:29.74,140,-166,-2036,-30,-31,7,-5,419,-424,-207
,443,2023-10-27 12:23:29.75,136,-169,-2057,-23,-15,10,275,664,-389,-469
,444,2023-10-27 12:23:29.76,124,-172,-2039,-21,-18,11,2,424,-422,-213
,445,2023-10-27 12:23:29.77,135,-162,-2024,-20,-6,11,274,658,-384,-466
,446,2023-10-27 12:23:29.78,136,-161,-2034,-11,-7,13,2,408,-406,-205
,447,2023-10-27 12:23:29.79,140,-160,-2034,-9,5,19,278,662,-384,-470
,448,2023-10-27 12:23:29.80,146,-158,-2033,-10,20,21,10,413,-403,-211
,449,2023-10-27 12:23:29.81,144,-156,-2042,-9,13,14,282,669,-387,-475
,450,2023-10-27 12:23:29.82,143,-146,-2043,-7,14,16,11,412,-401,-211
,451,2023-10-27 12:23:29.83,148,-154,-2045,0,23,15,282,667,-385,-474
,452,2023-10-27 12:23:29.84,154,-151,-2055,3,25,15,17,405,-388,-211
,453,2023-10-27 12:23:29.85,135,-154,-2063,7,15,10,284,671,-387,-477
,454,2023-10-27 12:23:29.86,147,-151,-2061,12,9,9,25,406,-381,-215
,455,2023-10-27 12:23:29.87,151,-163,-2056,16,7,8,286,670,-384,-478
,456,2023-10-27 12:23:29.88,146,-147,-2056,19,-1,8,27,403,-376,-215
,457,2023-10-27 12:23:29.89,156,-146,-2054,23,-2,9,286,673,-387,-479
,458,2023-10-27 12:23:29.90,146,-146,-2033,28,3,11,35,407,-372,-221
,459,2023-10-27 12:23:29.91,149,-146,-2056,32,-6,2,291,677,-386,-484
,460,2023-10-27 12:23:29.92,147,-146,-2047,30,-3,2,43,401,-358,-222
,461,2023-10-27 12:23:29.93,148,-156,-2036,30,-8,2,288,674,-386,-481
,462,2023-10-27 12:23:29.94,166,-155,-2043,38,-11,2,42,402,-360,-222
,463,2023-10-27 12:23:29.95,143,-152,-2026,47,-9,-2,291,677,-386,-484
,464,2023-10-27 12:23:29.96,147,-159,-2038,49,-8,-7,52,399,-347,-225
,465,2023-10-27 12:23:29.97,156,-166,-2049,47,-9,1,286,675,-389,-480
,466,2023-10-27 12:23:29.98,150,-159,-2046,36,3,3,51,400,-349,-225
,467,2023-10-27 12:23:29.99,156,-173,-2040,38,0,4,288,674,-386,-481
,468,2023-10-27 12:23:30.00,169,-161,-2054,42,-3,5,68,402,-334,-235
,469,2023-10-27 12:23:30.01,148,-160,-2065,37,-1,11,290,675,-385,-482
,470,2023-10-27 12:23:30.02,150,-157,-2067,22,-1,19,67,395,-328,-231
,471,2023-10-27 12:23:30.03,144,-147,-2060,5,12,19,284,670,-386,-477
,472,2023-10-27 12:23:30.04,133,-144,-2070,-9,1,22,74,393,-319,-233
,473,2023-10-27 12:23:30.05,138,-152,-2060,-18,7,27,292,667,-375,-479
,474,2023-10-27 12:23:30.06,137,-146,-2060,-26,8,28,89,395,-306,-242
,475,2023-10-27 12:23:30.07,130,-148,-2058,-30,-1,30,294,668,-374,-481
,476,2023-10-27 12:23:30.08,125,-147,-2074,-31,8,30,97,393,-296,-245
,477,2023-10-27 12:23:30.09,133,-151,-2063,-25,5,30,292,663,-371,-477
,478,2023-10-27 12:23:30.10,130,-137,-2040,-21,-3,23,110,390,-280,-250
,479,2023-10-27 12:23:30.11,132,-148,-2039,-22,-4,21,306,669,-363,-487
,480,2023-10-27 12:23:30.12,124,-144,-2039,-27,0,13,120,390,-270,-255
,481,2023-10-27 12:23:30.13,124,-146,-2065,-27,7,11,302,656,-354,-479
,482,2023-10-27 12:23:30.14,103,-141,-2057,-28,14,7,126,373,-247,-249
,483,2023-10-27 12:23:30.15,155,-144,-2057,-27,4,4,300,655,-355,-477
,484,2023-10-27 12:23:30.16,130,-139,-2053,-25,5,-3,132,394,-262,-263
,485,2023-10-27 12:23:30.17,134,-126,-2060,-27,18,-6,284,666,-382,-475
,486,2023-10-27 12:23:30.18,131,-130,-2043,-27,23,-12,122,393,-271,-257
,487,2023-10-27 12:23:30.19,139,-126,-2046,-34,29,-20,256,656,-400,-456
,488,2023-10-27 12:23:30.20,138,-142,-2059,-30,9,-24,110,389,-279,-249
,489,2023-10-27 12:23:30.21,136,-140,-2048,-27,5,-21,242,661,-419,-451
,490,2023-10-27 12:23:30.22,151,-145,-2033,-25,11,-18,93,404,-311,-248
,491,2023-10-27 12:23:30.23,146,-147,-2053,-26,16,-19,215,677,-462,-446
,492,2023-10-27 12:23:30.24,132,-148,-2054,-36,35,-17,89,418,-329,-253
,493,2023-10-27 12:23:30.25,143,-143,-2071,-42,42,-11,197,662,-465,-429
,494,2023-10-27 12:23:30.26,142,-148,-2042,-40,47,-13,96,400,-304,-248
,495,2023-10-27 12:23:30.27,150,-149,-2056,-30,48,-5,214,648,-434,-431
,496,2023-10-27 12:23:30.28,140,-148,-2045,-19,37,1,128,403,-275,-265
,497,2023-10-27 12:23:30.29,142,-140,-2068,-11,34,7,220,647,-427,-433
,498,2023-10-27 12:23:30.30,151,-123,-2052,-9,34,7,138,409,-271,-273
,499,2023-10-27 12:23:30.31,137,-143,-2050,-3,20,5,230,642,-412,-436
,500,2023-10-27 12:23:30.32,135,-142,-2046,-3,20,2,161,406,-245,-283
,501,2023-10-27 12:23:30.33,154,-133,-2056,9,4,5,230,647,-417,-438
,502,2023-10-27 12:23:30.34,146,-127,-2064,16,0,3,155,418,-263,-286
,503,2023-10-27 12:23:30.35,140,-128,-2059,8,-1,0,204,645,-441,-424
,504,2023-10-27 12:23:30.36,156,-125,-2045,-2,-3,-1,156,422,-266,-289
,505,2023-10-27 12:23:30.37,142,-130,-2069,-10,5,-9,211,638,-427,-424
,506,2023-10-27 12:23:30.38,135,-103,-2082,-20,2,-11,174,415,-241,-294
,507,2023-10-27 12:23:30.39,140,-121,-2077,-40,-20,-18,210,630,-420,-420
,508,2023-10-27 12:23:30.40,142,-118,-2027,-61,-25,-25,174,419,-245,-296
,509,2023-10-27 12:23:30.41,153,-118,-2053,-64,-23,-37,189,628,-439,-408
,510,2023-10-27 12:23:30.42,146,-120,-2048,-69,-28,-44,172,422,-250,-297
,511,2023-10-27 12:23:30.43,139,-123,-2041,-79,-24,-55,180,624,-444,-402
,512,2023-10-27 12:23:30.44,151,-127,-2051,-82,-29,-59,171,428,-257,-299
,513,2023-10-27 12:23:30.45,162,-126,-2051,-85,-20,-62,161,622,-461,-391
,514,2023-10-27 12:23:30.46,157,-127,-2048,-83,-17,-68,170,427,-257,-298
,515,2023-10-27 12:23:30.47,192,-131,-2043,-82,-8,-69,160,617,-457,-388
,516,2023-10-27 12:23:30.48,152,-128,-2061,-71,-15,-70,186,434,-248,-310
,517,2023-10-27 12:23:30.49,151,-127,-2084,-64,-27,-68,156,617,-461,-386
,518,2023-10-27 12:23:30.50,138,-119,-2072,-66,-29,-61,183,444,-261,-313
,519,2023-10-27 12:23:30.51,147,-125,-2051,-66,-37,-59,141,620,-479,-380
,520,2023-10-27 12:23:30.52,131,-122,-2052,-65,-36,-56,190,459,-269,-324
,521,2023-10-27 12:23:30.53,141,-113,-2050,-65,-53,-55,128,614,-486,-371
,522,2023-10-27 12:23:30.54,129,-119,-2039,-69,-39,-48,184,448,-264,-316
,523,2023-10-27 12:23:30.55,152,-126,-2043,-71,-23,-46,111,591,-480,-351
,524,2023-10-27 12:23:30.56,133,-115,-2031,-74,-21,-45,188,454,-266,-321
,525,2023-10-27 12:23:30.57,133,-110,-2024,-68,-13,-40,114,604,-490,-359
,526,2023-10-27 12:23:30.58,149,-103,-2015,-63,-13,-39,186,458,-272,-322
,527,2023-10-27 12:23:30.59,143,-107,-2033,-64,-2,-36,110,598,-488,-354
,528,2023-10-27 12:23:30.60,138,-94,-2032,-71,4,-30,198,458,-260,-328
,529,2023-10-27 12:23:30.61,155,-101,-2024,-70,17,-25,104,594,-490,-349
,530,2023-10-27 12:23:30.62,132,-103,-2039,-67,33,-20,205,475,-270,-340
,531,2023-10-27 12:23:30.63,138,-91,-2045,-67,28,-15,100,594,-494,-347
,532,2023-10-27 12:23:30.64,130,-94,-2035,-64,26,-7,213,479,-266,-346
,533,2023-10-27 12:23:30.65,154,-92,-2044,-60,26,2,98,582,-484,-340
,534,2023-10-27 12:23:30.66,144,-98,-2046,-59,45,10,228,478,-250,-353
,535,2023-10-27 12:23:30.67,149,-94,-2053,-60,53,9,105,582,-477,-343
,536,2023-10-27 12:23:30.68,144,-86,-2060,-56,58,14,240,496,-256,-368
,537,2023-10-27 12:23:30.69,145,-83,-2059,-51,49,15,100,580,-480,-340
,538,2023-10-27 12:23:30.70,146,-78,-2059,-50,49,15,237,497,-260,-367
,539,2023-10-27 12:23:30.71,153,-82,-2065,-43,50,15,88,571,-483,-329
,540,2023-10-27 12:23:30.72,155,-73,-2074,-40,54,13,241,500,-259,-370
,541,2023-10-27 12:23:30.73,141,-66,-2067,-37,53,7,78,567,-489,-322
,542,2023-10-27 12:23:30.74,152,-53,-2065,-37,52,0,239,511,-272,-375
,543,2023-10-27 12:23:30.75,149,-54,-2060,-38,40,-15,70,561,-491,-315
,544,2023-10-27 12:23:30.76,146,-63,-2057,-40,42,-20,241,514,-273,-377
,545,2023-10-27 12:23:30.77,159,-56,-2057,-35,39,-26,67,557,-490,-312
,546,2023-10-27 12:23:30.78,148,-54,-2048,-32,41,-31,245,518,-273,-381
,547,2023-10-27 12:23:30.79,156,-51,-2047,-33,46,-39,55,549,-494,-302
,548,2023-10-27 12:23:30.80,155,-58,-2046,-30,45,-47,239,523,-284,-381
,549,2023-10-27 12:23:30.81,156,-55,-2044,-31,43,-50,48,543,-495,-295
,550,2023-10-27 12:23:30.82,170,-61,-2043,-33,54,-50,249,530,-281,-389
,551,2023-10-27 12:23:30.83,181,-81,-2047,-28,60,-49,51,543,-492,-297
,552,2023-10-27 12:23:30.84,167,-74,-2045,-18,65,-38,254,539,-285,-396
,553,2023-10-27 12:23:30.85,179,-75,-2047,-11,79,-37,29,532,-503,-280
,554,2023-10-27 12:23:30.86,182,-78,-2034,-5,70,-30,239,538,-299,-388
,555,2023-10-27 12:23:30.87,172,-77,-2046,3,79,-19,23,522,-499,-272
,556,2023-10-27 12:23:30.88,172,-82,-2053,7,79,-9,256,547,-291,-401
,557,2023-10-27 12:23:30.89,176,-82,-2070,14,65,1,29,525,-496,-277
,558,2023-10-27 12:23:30.90,185,-72,-2063,15,54,8,259,558,-299,-408
,559,2023-10-27 12:23:30.91,179,-64,-2073,20,43,14,23,515,-492,-269
,560,2023-10-27 12:23:30.92,191,-64,-2058,19,41,22,259,560,-301,-409
,561,2023-10-27 12:23:30.93,203,-68,-2053,22,50,25,26,516,-490,-271
,562,2023-10-27 12:23:30.94,198,-57,-2057,25,49,25,263,562,-299,-412
,563,2023-10-27 12:23:30.95,201,-72,-2045,27,39,24,13,504,-491,-258
,564,2023-10-27 12:23:30.96,180,-76,-2051,33,32,23,249,555,-306,-402
,565,2023-10-27 12:23:30.97,178,-77,-2047,40,21,32,6,495,-489,-250
,566,2023-10-27 12:23:30.98,184,-69,-2047,49,8,35,262,572,-310,-417
,567,2023-10-27 12:23:30.99,185,-66,-2056,52,16,42,11,497,-486,-254
,568,2023-10-27 12:23:31.00,194,-63,-2055,49,10,35,265,584,-319,-424
,569,2023-10-27 12:23:31.01,188,-75,-2056,43,14,33,-5,493,-498,-244
,570,2023-10-27 12:23:31.02,198,-67,-2051,40,-3,37,258,583,-325,-420
,571,2023-10-27 12:23:31.03,208,-72,-2056,44,2,39,-5,480,-485,-237
,572,2023-10-27 12:23:31.04,183,-65,-2052,45,-8,34,268,585,-317,-426
,573,2023-10-27 12:23:31.05,203,-71,-2058,43,-15,32,-7,480,-487,-236
,574,2023-10-27 12:23:31.06,190,-69,-2058,38,-6,36,261,596,-335,-428
,575,2023-10-27 12:23:31.07,182,-73,-2055,39,-4,29,-18,467,-485,-224
,576,2023-10-27 12:23:31.08,182,-76,-2053,41,-7,30,266,593,-327,-429
,577,2023-10-27 12:23:31.09,188,-69,-2063,42,-21,26,-11,462,-473,-225
,578,2023-10-27 12:23:31.10,193,-73,-2046,42,-34,24,267,603,-336,-435
,579,2023-10-27 12:23:31.11,189,-75,-2051,43,-18,27,-16,464,-480,-224
,580,2023-10-27 12:23:31.12,183,-78,-2056,44,-16,23,266,611,-345,-438
,581,2023-10-27 12:23:31.13,189,-86,-2059,48,-29,19,-21,459,-480,-219
,582,2023-10-27 12:23:31.14,193,-77,-2048,51,-34,18,268,607,-339,-437
,583,2023-10-27 12:23:31.15,185,-90,-2047,56,-26,20,-23,445,-468,-211
,584,2023-10-27 12:23:31.16,172,-82,-2057,64,-26,19,264,613,-349,-438
,585,2023-10-27 12:23:31.17,188,-87,-2053,67,-41,16,-21,451,-472,-215
,586,2023-10-27 12:23:31.18,182,-87,-2058,73,-39,21,270,622,-352,-446
,587,2023-10-27 12:23:31.19,174,-86,-2061,79,-35,18,-21,444,-465,-211
,588,2023-10-27 12:23:31.20,156,-90,-2061,85,-30,14,268,622,-354,-445
,589,2023-10-27 12:23:31.21,163,-95,-2053,90,-30,12,-22,443,-465,-210
,590,2023-10-27 12:23:31.22,152,-103,-2060,96,-45,3,268,628,-360,-448
,591,2023-10-27 12:23:31.23,148,-99,-2057,105,-50,4,-23,437,-460,-207
,592,2023-10-27 12:23:31.24,144,-108,-2044,114,-46,1,268,630,-362,-449
,593,2023-10-27 12:23:31.25,157,-107,-2045,119,-44,-5,-16,438,-454,-211
,594,2023-10-27 12:23:31.26,134,-106,-2038,117,-48,-15,268,640,-372,-454
,595,2023-10-27 12:23:31.27,140,-103,-2040,120,-38,-23,-26,428,-454,-201
,596,2023-10-27 12:23:31.28,150,-114,-2037,124,-35,-30,263,636,-373,-449
,597,2023-10-27 12:23:31.29,136,-116,-2019,123,-30,-37,-27,425,-452,-199
,598,2023-10-27 12:23:31.30,154,-125,-2024,123,-27,-48,261,646,-385,-453
,599,2023-10-27 12:23:31.31,150,-118,-2031,125,-16,-52,-31,430,-461,-199
,600,2023-10-27 12:23:31.32,159,-120,-2029,127,-8,-56,257,644,-387,-450
,601,2023-10-27 12:23:31.33,147,-132,-2040,130,-1,-64,-25,417,-442,-196
,602,2023-10-27 12:23:31.34,161,-137,-2044,130,-7,-68,274,651,-377,-462
,603,2023-10-27 12:23:31.35,165,-130,-2043,129,-1,-71,-16,416,-432,-200
,604,2023-10-27 12:23:31.36,170,-130,-2049,125,5,-71,260,653,-393,-456
,605,2023-10-27 12:23:31.37,149,-143,-2053,120,4,-75,-36,403,-439,-183
,606,2023-10-27 12:23:31.38,165,-142,-2058,113,4,-73,253,650,-397,-451
,607,2023-10-27 12:23:31.39,165,-147,-2057,109,-7,-74,-25,409,-434,-192
,608,2023-10-27 12:23:31.40,178,-138,-2051,103,-4,-68,255,656,-401,-455
,609,2023-10-27 12:23:31.41,162,-148,-2051,96,1,-62,-22,420,-442,-199
,610,2023-10-27 12:23:31.42,163,-145,-2062,88,-10,-66,254,662,-408,-458
,611,2023-10-27 12:23:31.43,162,-149,-2056,79,-13,-60,-19,407,-426,-194
,612,2023-10-27 12:23:31.44,171,-152,-2062,74,-6,-53,251,658,-407,-454
,613,2023-10-27 12:23:31.45,158,-141,-2075,58,-2,-49,-17,406,-423,-194
,614,2023-10-27 12:23:31.46,160,-155,-2064,46,-8,-43,254,657,-403,-455
,615,2023-10-27 12:23:31.47,150,-153,-2075,38,-11,-34,-8,403,-411,-197
,616,2023-10-27 12:23:31.48,153,-153,-2067,28,-23,-27,254,662,-408,-458
,617,2023-10-27 12:23:31.49,145,-150,-2070,21,-26,-15,-8,402,-410,-197
,618,2023-10-27 12:23:31.50,163,-146,-2059,7,-24,-9,248,662,-414,-455
,619,2023-10-27 12:23:31.51,152,-148,-2047,-8,-16,0,-4,404,-408,-200
,620,2023-10-27 12:23:31.52,160,-150,-2054,-17,-28,3,249,667,-418,-458
,621,2023-10-27 12:23:31.53,147,-155,-2045,-25,-29,5,1,395,-394,-198
,622,2023-10-27 12:23:31.54,148,-151,-2033,-29,-21,21,246,659,-413,-452
,623,2023-10-27 12:23:31.55,148,-154,-2030,-34,-13,22,2,393,-391,-197
,624,2023-10-27 12:23:31.56,150,-156,-2028,-37,-12,25,244,662,-418,-453
,625,2023-10-27 12:23:31.57,152,-149,-2050,-40,-10,30,6,396,-390,-201
,626,2023-10-27 12:23:31.58,148,-147,-2045,-41,-12,37,246,663,-417,-454
,627,2023-10-27 12:23:31.59,137,-148,-2049,-40,-12,40,12,394,-382,-203
,628,2023-10-27 12:23:31.60,159,-139,-2045,-39,-7,45,237,664,-427,-450
,629,2023-10-27 12:23:31.61,152,-125,-2040,-38,2,47,12,396,-384,-204
,630,2023-10-27 12:23:31.62,162,-131,-2050,-37,11,44,240,672,-432,-456
,631,2023-10-27 12:23:31.63,157,-121,-2043,-35,13,37,21,398,-377,-209
,632,2023-10-27 12:23:31.64,164,-123,-2031,-36,14,33,237,667,-430,-452
,633,2023-10-27 12:23:31.65,164,-118,-2045,-34,13,26,22,389,-367,-205
,634,2023-10-27 12:23:31.66,160,-117,-2050,-33,20,24,229,665,-436,-447
,635,2023-10-27 12:23:31.67,169,-108,-2045,-34,18,18,17,393,-376,-205
,636,2023-10-27 12:23:31.68,156,-113,-2051,-32,5,12,223,670,-447,-446
,637,2023-10-27 12:23:31.69,166,-115,-2048,-30,13,9,24,390,-366,-207
,638,2023-10-27 12:23:31.70,155,-115,-2061,-28,12,2,220,663,-443,-441
,639,2023-10-27 12:23:31.71,161,-127,-2069,-23,-2,-1,26,388,-362,-207
,640,2023-10-27 12:23:31.72,172,-125,-2063,-16,-9,1,208,666,-458,-437
,641,2023-10-27 12:23:31.73,175,-132,-2061,-14,-12,3,24,390,-366,-207
,642,2023-10-27 12:23:31.74,175,-122,-2055,-12,-9,8,206,664,-458,-435
,643,2023-10-27 12:23:31.75,170,-123,-2047,-9,-10,15,41,399,-358,-220
,644,2023-10-27 12:23:31.76,176,-124,-2046,-4,-14,14,194,665,-471,-429
,645,2023-10-27 12:23:31.77,167,-127,-2043,-4,-16,20,32,398,-366,-215
,646,2023-10-27 12:23:31.78,164,-129,-2054,-1,-8,28,181,651,-470,-416
,647,2023-10-27 12:23:31.79,168,-134,-2052,3,-13,33,41,393,-352,-217
,648,2023-10-27 12:23:31.80,158,-143,-2061,8,-25,37,199,659,-460,-429
,649,2023-10-27 12:23:31.81,161,-143,-2060,11,-35,48,60,395,-335,-227
,650,2023-10-27 12:23:31.82,164,-127,-2057,10,-44,56,191,665,-474,-428
,651,2023-10-27 12:23:31.83,152,-124,-2061,6,-42,68,54,396,-342,-225
,652,2023-10-27 12:23:31.84,153,-120,-2056,-4,-47,72,174,658,-484,-416
,653,2023-10-27 12:23:31.85,154,-119,-2048,-12,-54,71,56,400,-344,-228
,654,2023-10-27 12:23:31.86,148,-119,-2066,-19,-62,73,192,659,-467,-425
,655,2023-10-27 12:23:31.87,143,-120,-2070,-22,-60,79,77,401,-324,-239
,656,2023-10-27 12:23:31.88,141,-125,-2066,-29,-66,83,188,664,-476,-426
,657,2023-10-27 12:23:31.89,143,-122,-2068,-33,-71,86,77,406,-329,-241
,658,2023-10-27 12:23:31.90,136,-140,-2079,-35,-75,89,179,661,-482,-420
,659,2023-10-27 12:23:31.91,122,-134,-2080,-33,-86,94,82,404,-322,-243
,660,2023-10-27 12:23:31.92,130,-144,-2068,-31,-90,101,185,655,-470,-420
,661,2023-10-27 12:23:31.93,108,-137,-2063,-33,-82,110,92,409,-317,-250
,662,2023-10-27 12:23:31.94,104,-144,-2051,-32,-80,118,171,656,-485,-413
,663,2023-10-27 12:23:31.95,98,-127,-2059,-35,-77,121,94,410,-316,-252
,664,2023-10-27 12:23:31.96,100,-124,-2040,-38,-86,118,173,654,-481,-413
,665,2023-10-27 12:23:31.97,92,-118,-2035,-44,-75,120,106,414,-308,-260
,666,2023-10-27 12:23:31.98,90,-129,-2032,-52,-61,121,171,661,-490,-416
,667,2023-10-27 12:23:31.99,88,-109,-2033,-52,-54,117,107,424,-317,-265
,668,2023-10-27 12:23:32.00,92,-111,-2023,-55,-46,111,162,653,-491,-407
,669,2023-10-27 12:23:32.01,87,-107,-2025,-60,-23,109,111,419,-308,-265
,670,2023-10-27 12:23:32.02,91,-101,-2027,-63,-9,105,169,649,-480,-409
,671,2023-10-27 12:23:32.03,102,-102,-2042,-60,-6,94,133,430,-297,-281
,672,2023-10-27 12:23:32.04,98,-109,-2036,-52,-2,84,168,651,-483,-409
,673,2023-10-27 12:23:32.05,88,-98,-2026,-53,14,75,135,430,-295,-282
,674,2023-10-27 12:23:32.06,99,-99,-2029,-52,27,59,160,641,-481,-400
,675,2023-10-27 12:23:32.07,111,-97,-2030,-37,32,45,144,428,-284,-286
,676,2023-10-27 12:23:32.08,117,-99,-2036,-27,34,29,158,643,-485,-400
,677,2023-10-27 12:23:32.09,123,-95,-2030,-23,47,15,151,436,-285,-293
,678,2023-10-27 12:23:32.10,126,-94,-2027,-13,60,3,145,630,-485,-387
,679,2023-10-27 12:23:32.11,117,-103,-2036,1,63,-10,150,434,-284,-292
,680,2023-10-27 12:23:32.12,120,-110,-2037,17,56,-23,147,630,-483,-388
,681,2023-10-27 12:23:32.13,123,-116,-2063,29,44,-39,166,443,-277,-304
,682,2023-10-27 12:23:32.14,120,-101,-2069,40,41,-44,144,626,-482,-385
,683,2023-10-27 12:23:32.15,120,-100,-2072,47,26,-55,167,444,-277,-305
,684,2023-10-27 12:23:32.16,133,-105,-2061,47,32,-66,141,630,-489,-385
,685,2023-10-27 12:23:32.17,118,-105,-2059,45,24,-77,171,443,-272,-307
,686,2023-10-27 12:23:32.18,129,-111,-2065,42,12,-79,140,619,-479,-379
,687,2023-10-27 12:23:32.19,126,-119,-2057,38,10,-81,174,444,-270,-309
,688,2023-10-27 12:23:32.20,112,-114,-2052,32,4,-86,124,623,-499,-373
,689,2023-10-27 12:23:32.21,121,-115,-2062,28,-4,-83,177,464,-287,-320
,690,2023-10-27 12:23:32.22,132,-134,-2046,20,-1,-83,120,618,-498,-369
,691,2023-10-27 12:23:32.23,128,-127,-2054,19,-2,-72,182,465,-283,-323
,692,2023-10-27 12:23:32.24,131,-134,-2052,12,0,-70,104,610,-506,-357
,693,2023-10-27 12:23:32.25,128,-136,-2053,16,-6,-63,179,463,-284,-321
,694,2023-10-27 12:23:32.26,138,-120,-2058,12,-2,-56,105,604,-499,-354
,695,2023-10-27 12:23:32.27,127,-134,-2050,2,10,-47,202,481,-279,-341
,696,2023-10-27 12:23:32.28,117,-121,-2071,-7,1,-48,109,605,-496,-357
,697,2023-10-27 12:23:32.29,128,-121,-2060,-12,-8,-41,204,484,-280,-344
,698,2023-10-27 12:23:32.30,126,-123,-2070,-15,-1,-31,93,592,-499,-342
,699,2023-10-27 12:23:32.31,138,-102,-2060,-20,-7,-29,204,482,-278,-343
,700,2023-10-27 12:23:32.32,134,-99,-2063,-33,12,-27,94,590,-496,-342
,701,2023-10-27 12:23:32.33,149,-104,-2067,-44,6,-26,216,494,-278,-355
,702,2023-10-27 12:23:32.34,129,-89,-2060,-56,0,-22,93,589,-496,-341
,703,2023-10-27 12:23:32.35,131,-92,-2060,-60,-1,-21,221,498,-277,-359
,704,2023-10-27 12:23:32.36,135,-88,-2064,-73,-9,-17,80,583,-503,-331
,705,2023-10-27 12:23:32.37,151,-83,-2063,-79,-12,-13,221,506,-285,-363
,706,2023-10-27 12:23:32.38,137,-79,-2065,-86,-21,-9,81,574,-493,-327
,707,2023-10-27 12:23:32.39,132,-75,-2064,-94,-29,-3,234,509,-275,-371
,708,2023-10-27 12:23:32.40,145,-71,-2056,-102,-30,-3,79,570,-491,-324
,709,2023-10-27 12:23:32.41,139,-68,-2066,-108,-31,3,233,512,-279,-372
,710,2023-10-27 12:23:32.42,134,-61,-2062,-115,-36,2,62,562,-500,-312
,711,2023-10-27 12:23:32.43,143,-60,-2055,-121,-32,5,239,518,-279,-378
,712,2023-10-27 12:23:32.44,132,-61,-2055,-119,-25,15,76,566,-490,-321
,713,2023-10-27 12:23:32.45,132,-55,-2059,-119,-33,19,252,530,-278,-391
,714,2023-10-27 12:23:32.46,136,-63,-2050,-123,-39,19,67,553,-486,-310
,715,2023-10-27 12:23:32.47,121,-55,-2057,-120,-41,26,249,528,-279,-388
,716,2023-10-27 12:23:32.48,143,-56,-2054,-118,-42,34,61,546,-485,-303
,717,2023-10-27 12:23:32.49,114,-45,-2055,-120,-48,36,259,537,-278,-398
,718,2023-10-27 12:23:32.50,115,-42,-2052,-120,-39,39,63,537,-474,-300
,719,2023-10-27 12:23:32.51,127,-33,-2054,-121,-44,38,266,536,-270,-401
,720,2023-10-27 12:23:32.52,116,-39,-2050,-121,-42,40,65,534,-469,-299
,721,2023-10-27 12:23:32.53,113,-32,-2062,-123,-44,38,272,552,-280,-412
,722,2023-10-27 12:23:32.54,119,-24,-2059,-125,-30,45,56,530,-474,-293
,723,2023-10-27 12:23:32.55,107,-11,-2045,-128,-37,40,268,554,-286,-411
,724,2023-10-27 12:23:32.56,101,-34,-2051,-126,-33,34,45,522,-477,-283
,725,2023-10-27 12:23:32.57,121,-14,-2063,-124,-35,32,288,567,-279,-427
,726,2023-10-27 12:23:32.58,102,-15,-2055,-121,-36,29,51,521,-470,-286
,727,2023-10-27 12:23:32.59,112,-14,-2056,-112,-35,20,280,566,-286,-423
,728,2023-10-27 12:23:32.60,97,-8,-2066,-111,-38,17,36,501,-465,-268
,729,2023-10-27 12:23:32.61,114,-7,-2066,-105,-34,10,278,568,-290,-423
,730,2023-10-27 12:23:32.62,110,-2,-2070,-99,-29,3,38,512,-474,-275
,731,2023-10-27 12:23:32.63,100,4,-2063,-95,-32,-8,284,573,-289,-428
,732,2023-10-27 12:23:32.64,101,-3,-2063,-94,-27,-12,46,504,-458,-275
,733,2023-10-27 12:23:32.65,108,-1,-2052,-88,-31,-21,297,580,-283,-438
,734,2023-10-27 12:23:32.66,92,3,-2049,-85,-23,-27,45,499,-454,-272
,735,2023-10-27 12:23:32.67,101,7,-2049,-76,-32,-33,298,588,-290,-443
,736,2023-10-27 12:23:32.68,101,5,-2045,-67,-27,-41,42,495,-453,-268
,737,2023-10-27 12:23:32.69,101,1,-2040,-59,-21,-46,303,594,-291,-448
,738,2023-10-27 12:23:32.70,103,-1,-2038,-44,-17,-55,38,493,-455,-265
,739,2023-10-27 12:23:32.71,108,-10,-2038,-27,-18,-63,299,599,-300,-449
,740,2023-10-27 12:23:32.72,111,-6,-2040,-13,1,-69,32,480,-448,-256
,741,2023-10-27 12:23:32.73,93,-6,-2044,4,-4,-73,306,595,-289,-450
,742,2023-10-27 12:23:32.74,105,-16,-2040,18,8,-77,35,478,-443,-256
,743,2023-10-27 12:23:32.75,104,-14,-2044,35,6,-78,308,611,-303,-459
,744,2023-10-27 12:23:32.76,96,-20,-2041,46,24,-83,32,481,-449,-256
,745,2023-10-27 12:23:32.77,112,-5,-2048,58,21,-90,306,612,-306,-459
,746,2023-10-27 12:23:32.78,105,-21,-2049,72,24,-93,30,473,-443,-251
,747,2023-10-27 12:23:32.79,93,-22,-2050,79,43,-97,314,615,-301,-464
,748,2023-10-27 12:23:32.80,102,-22,-2062,89,36,-101,30,474,-444,-252
,749,2023-10-27 12:23:32.81,102,-30,-2051,95,37,-105,311,629,-318,-470
,750,2023-10-27 12:23:32.82,92,-26,-2063,99,44,-109,26,469,-443,-247
,751,2023-10-27 12:23:32.83,100,-29,-2063,104,55,-113,312,625,-313,-468
,752,2023-10-27 12:23:32.84,103,-25,-2058,113,61,-118,25,458,-433,-241
,753,2023-10-27 12:23:32.85,114,-30,-2067,122,65,-123,314,631,-317,-472
,754,2023-10-27 12:23:32.86,103,-21,-2065,125,65,-133,22,456,-434,-239
,755,2023-10-27 12:23:32.87,120,-31,-2067,131,72,-136,311,636,-325,-473
,756,2023-10-27 12:23:32.88,116,-35,-2060,140,71,-141,19,453,-434,-236
,757,2023-10-27 12:23:32.89,123,-43,-2061,155,66,-145,316,641,-325,-478
,758,2023-10-27 12:23:32.90,128,-36,-2054,167,73,-144,25,455,-430,-240
,759,2023-10-27 12:23:32.91,131,-40,-2053,179,90,-147,304,644,-340,-474
,760,2023-10-27 12:23:32.92,130,-52,-2040,190,89,-160,9,442,-433,-225
,761,2023-10-27 12:23:32.93,126,-44,-2051,205,88,-157,298,640,-342,-469
,762,2023-10-27 12:23:32.94,125,-58,-2041,224,84,-154,12,438,-426,-225
,763,2023-10-27 12:23:32.95,132,-55,-2049,236,98,-152,302,651,-349,-476
,764,2023-10-27 12:23:32.96,140,-67,-2056,244,89,-155,10,438,-428,-224
,765,2023-10-27 12:23:32.97,129,-74,-2048,250,83,-154,296,650,-354,-473
,766,2023-10-27 12:23:32.98,143,-75,-2051,257,86,-145,16,444,-428,-230
,767,2023-10-27 12:23:32.99,130,-86,-2049,268,77,-140,285,654,-369,-469
,768,2023-10-27 12:23:33.00,139,-94,-2054,267,66,-137,-5,437,-442,-216
,769,2023-10-27 12:23:33.01,129,-93,-2054,267,55,-131,275,647,-372,-461
,770,2023-10-27 12:23:33.02,123,-97,-2054,271,53,-125,-5,426,-431,-210
,771,2023-10-27 12:23:33.03,136,-103,-2061,266,56,-118,270,658,-388,-464
,772,2023-10-27 12:23:33.04,138,-108,-2049,255,48,-119,-19,423,-442,-202
,773,2023-10-27 12:23:33.05,131,-110,-2069,241,46,-116,265,667,-402,-466
,774,2023-10-27 12:23:33.06,137,-111,-2053,228,40,-116,-14,423,-437,-204
,775,2023-10-27 12:23:33.07,133,-123,-2054,214,48,-112,264,660,-396,-462
,776,2023-10-27 12:23:33.08,138,-124,-2062,200,39,-111,-10,416,-426,-203
,777,2023-10-27 12:23:33.09,134,-137,-2067,184,35,-107,257,664,-407,-460
,778,2023-10-27 12:23:33.10,128,-138,-2068,172,19,-105,-16,425,-441,-204
,779,2023-10-27 12:23:33.11,133,-150,-2067,161,12,-99,244,673,-429,-458
,780,2023-10-27 12:23:33.12,134,-148,-2059,152,15,-94,-21,414,-435,-196
,781,2023-10-27 12:23:33.13,135,-150,-2059,142,11,-88,244,668,-424,-456
,782,2023-10-27 12:23:33.14,138,-150,-2057,129,-2,-91,-12,412,-424,-200
,783,2023-10-27 12:23:33.15,131,-146,-2060,120,-9,-87,239,672,-433,-455
,784,2023-10-27 12:23:33.16,137,-164,-2053,114,-11,-84,-17,418,-435,-200
,785,2023-10-27 12:23:33.17,137,-155,-2049,103,-16,-78,228,679,-451,-453
,786,2023-10-27 12:23:33.18,127,-168,-2035,94,-17,-76,-20,415,-435,-197
,787,2023-10-27 12:23:33.19,133,-169,-2029,81,-24,-77,223,679,-456,-451
,788,2023-10-27 12:23:33.20,129,-175,-2045,74,-30,-78,-14,419,-433,-202
,789,2023-10-27 12:23:33.21,120,-179,-2050,60,-37,-72,218,682,-464,-450
,790,2023-10-27 12:23:33.22,130,-195,-2039,48,-26,-56,-23,410,-433,-193
,791,2023-10-27 12:23:33.23,108,-183,-2050,39,-43,-53,209,678,-469,-443
,792,2023-10-27 12:23:33.24,122,-183,-2044,25,-36,-49,-18,409,-427,-195
,793,2023-10-27 12:23:33.25,128,-176,-2043,10,-30,-40,206,680,-474,-443
,794,2023-10-27 12:23:33.26,121,-171,-2035,-6,-29,-35,-12,413,-425,-200
,795,2023-10-27 12:23:33.27,129,-177,-2035,-21,-16,-33,192,684,-492,-438
,796,2023-10-27 12:23:33.28,116,-176,-2047,-40,-13,-34,-19,416,-435,-198
,797,2023-10-27 12:23:33.29,127,-170,-2045,-49,-8,-27,183,678,-495,-430
,798,2023-10-27 12:23:33.30,132,-172,-2052,-52,-6,-20,-12,402,-414,-195
,799,2023-10-27 12:23:33.31,132,-162,-2053,-60,-6,-19,182,679,-497,-430
,800,2023-10-27 12:23:33.32,142,-162,-2052,-72,-5,-20,-13,410,-423,-198
,801,2023-10-27 12:23:33.33,140,-150,-2057,-77,5,-15,169,683,-514,-426
,802,2023-10-27 12:23:33.34,134,-149,-2064,-80,5,-16,-14,406,-420,-196
,803,2023-10-27 12:23:33.35,125,-139,-2067,-74,0,-15,169,680,-511,-424
,804,2023-10-27 12:23:33.36,140,-140,-2056,-77,-1,-10,-1,411,-412,-205
,805,2023-10-27 12:23:33.37,136,-132,-2059,-85,9,-12,166,686,-520,-426
,806,2023-10-27 12:23:33.38,123,-128,-2038,-88,17,-16,0,411,-411,-205
,807,2023-10-27 12:23:33.39,146,-121,-2048,-84,15,-19,159,693,-534,-426
,808,2023-10-27 12:23:33.40,142,-120,-2050,-88,20,-18,-2,409,-411,-203
,809,2023-10-27 12:23:33.41,138,-128,-2054,-88,2,-24,150,681,-531,-415
,810,2023-10-27 12:23:33.42,129,-118,-2051,-82,-3,-22,6,399,-393,-202
,811,2023-10-27 12:23:33.43,141,-117,-2050,-80,7,-23,144,681,-537,-412
,812,2023-10-27 12:23:33.44,146,-125,-2055,-80,14,-21,13,412,-399,-212
,813,2023-10-27 12:23:33.45,142,-122,-2059,-79,2,-19,140,682,-542,-411
,814,2023-10-27 12:23:33.46,138,-122,-2064,-75,-2,-13,19,411,-392,-215
,815,2023-10-27 12:23:33.47,149,-118,-2061,-73,-4,-10,133,684,-551,-408
,816,2023-10-27 12:23:33.48,136,-118,-2046,-70,-5,-9,24,416,-392,-220
,817,2023-10-27 12:23:33.49,139,-112,-2047,-74,-5,-5,126,680,-554,-403
,818,2023-10-27 12:23:33.50,129,-110,-2048,-75,-5,0,28,413,-385,-220
,819,2023-10-27 12:23:33.51,143,-108,-2045,-71,-6,6,118,675,-557,-396
,820,2023-10-27 12:23:33.52,144,-105,-2047,-68,-3,12,32,415,-383,-223
,821,2023-10-27 12:23:33.53,137,-106,-2043,-68,4,16,113,673,-560,-393
,822,2023-10-27 12:23:33.54,127,-101,-2050,-63,6,23,39,417,-378,-228
,823,2023-10-27 12:23:33.55,137,-113,-2046,-58,10,24,102,672,-570,-387
,824,2023-10-27 12:23:33.56,138,-113,-2042,-48,13,28,37,418,-381,-227
,825,2023-10-27 12:23:33.57,133,-114,-2055,-40,12,32,98,671,-573,-384
,826,2023-10-27 12:23:33.58,135,-101,-2054,-31,13,35,50,425,-375,-237
,827,2023-10-27 12:23:33.59,137,-102,-2054,-28,16,35,96,672,-576,-384
,828,2023-10-27 12:23:33.60,148,-87,-2055,-28,21,38,52,423,-371,-237
,829,2023-10-27 12:23:33.61,141,-99,-2053,-24,23,38,86,664,-578,-375
,830,2023-10-27 12:23:33.62,146,-95,-2054,-19,25,39,60,429,-369,-244
,831,2023-10-27 12:23:33.63,143,-96,-2055,-19,27,37,81,667,-586,-374
,832,2023-10-27 12:23:33.64,154,-92,-2056,-19,28,38,65,430,-365,-247
,833,2023-10-27 12:23:33.65,144,-96,-2051,-18,32,40,75,663,-588,-369
,834,2023-10-27 12:23:33.66,151,-85,-2050,-20,30,41,65,430,-365,-247
,835,2023-10-27 12:23:33.67,147,-83,-2053,-17,31,40,68,654,-586,-361
,836,2023-10-27 12:23:33.68,150,-95,-2062,-19,30,42,76,435,-359,-255
,837,2023-10-27 12:23:33.69,147,-106,-2061,-13,30,42,58,653,-595,-355
,838,2023-10-27 12:23:33.70,156,-97,-2054,-5,25,43,81,439,-358,-260
,839,2023-10-27 12:23:33.71,154,-96,-2048,-1,24,45,59,655,-596,-357
,840,2023-10-27 12:23:33.72,146,-91,-2043,2,24,44,91,439,-348,-265
,841,2023-10-27 12:23:33.73,157,-106,-2040,9,22,42,48,648,-600,-348
,842,2023-10-27 12:23:33.74,161,-106,-2054,15,23,43,84,441,-357,-262
,843,2023-10-27 12:23:33.75,153,-106,-2064,20,18,43,42,648,-606,-345
,844,2023-10-27 12:23:33.76,168,-110,-2060,26,15,44,93,448,-355,-270
,845,2023-10-27 12:23:33.77,157,-105,-2054,30,20,49,39,642,-603,-340
,846,2023-10-27 12:23:33.78,169,-107,-2056,32,23,49,104,449,-345,-276
,847,2023-10-27 12:23:33.79,160,-103,-2049,35,31,51,35,635,-600,-335
,848,2023-10-27 12:23:33.80,177,-107,-2044,38,34,51,120,469,-349,-294
,849,2023-10-27 12:23:33.81,152,-109,-2040,43,32,55,28,635,-607,-331
,850,2023-10-27 12:23:33.82,169,-106,-2053,44,36,58,112,464,-352,-288
,851,2023-10-27 12:23:33.83,150,-102,-2043,44,33,58,10,622,-612,-316
,852,2023-10-27 12:23:33.84,171,-103,-2045,46,25,61,117,471,-354,-294
,853,2023-10-27 12:23:33.85,169,-105,-2053,46,22,60,12,632,-620,-322
,854,2023-10-27 12:23:33.86,171,-103,-2048,48,22,61,124,482,-358,-303
,855,2023-10-27 12:23:33.87,171,-107,-2051,48,21,59,8,628,-620,-318
,856,2023-10-27 12:23:33.88,159,-114,-2055,52,22,58,128,475,-347,-301
,857,2023-10-27 12:23:33.89,169,-119,-2055,57,13,57,1,618,-617,-309
,858,2023-10-27 12:23:33.90,172,-112,-2060,57,8,55,129,480,-351,-304
,859,2023-10-27 12:23:33.91,161,-115,-2066,58,6,57,-4,619,-623,-307
,860,2023-10-27 12:23:33.92,159,-110,-2061,55,-1,55,134,490,-356,-312
,861,2023-10-27 12:23:33.93,157,-110,-2057,55,-2,53,-5,616,-621,-305
,862,2023-10-27 12:23:33.94,168,-115,-2065,50,-4,53,138,492,-354,-315
,863,2023-10-27 12:23:33.95,154,-113,-2068,46,-13,53,-13,607,-620,-297
,864,2023-10-27 12:23:33.96,159,-124,-2059,45,-17,50,145,497,-352,-321
,865,2023-10-27 12:23:33.97,155,-120,-2061,45,-20,52,-16,595,-611,-289
,866,2023-10-27 12:23:33.98,151,-120,-2068,41,-26,52,146,498,-352,-322
,867,2023-10-27 12:23:33.99,150,-116,-2058,34,-29,51,-25,591,-616,-283
,868,2023-10-27 12:23:34.00,145,-112,-2055,32,-35,50,148,509,-361,-328
,869,2023-10-27 12:23:34.01,147,-112,-2046,26,-38,51,-28,585,-613,-278
,870,2023-10-27 12:23:34.02,143,-120,-2054,18,-39,47,156,513,-357,-334
,871,2023-10-27 12:23:34.03,146,-124,-2057,13,-40,46,-38,575,-613,-268
,872,2023-10-27 12:23:34.04,143,-121,-2051,12,-44,44,156,515,-359,-335
,873,2023-10-27 12:23:34.05,128,-120,-2048,9,-43,40,-40,571,-611,-265
,874,2023-10-27 12:23:34.06,127,-112,-2049,3,-41,36,160,527,-367,-343
,875,2023-10-27 12:23:34.07,122,-111,-2061,-5,-40,33,-43,569,-612,-263
,876,2023-10-27 12:23:34.08,130,-119,-2063,-5,-47,29,175,533,-358,-354
,877,2023-10-27 12:23:34.09,123,-116,-2056,-6,-52,28,-39,569,-608,-265
,878,2023-10-27 12:23:34.10,123,-123,-2063,-9,-52,30,178,543,-365,-360
,879,2023-10-27 12:23:34.11,114,-121,-2057,-10,-54,30,-53,558,-611,-252
,880,2023-10-27 12:23:34.12,124,-119,-2056,-10,-59,32,173,542,-369,-357
,881,2023-10-27 12:23:34.13,117,-113,-2046,-12,-58,37,-54,550,-604,-248
,882,2023-10-27 12:23:34.14,106,-108,-2050,-16,-57,38,180,550,-370,-365
,883,2023-10-27 12:23:34.15,97,-116,-2051,-21,-52,38,-59,550,-609,-245
,884,2023-10-27 12:23:34.16,115,-104,-2048,-22,-50,37,178,560,-382,-369
,885,2023-10-27 12:23:34.17,107,-98,-2052,-22,-51,36,-68,543,-611,-237
,886,2023-10-27 12:23:34.18,114,-96,-2048,-23,-42,33,186,561,-375,-373
,887,2023-10-27 12:23:34.19,105,-101,-2062,-20,-38,29,-56,535,-591,-239
,888,2023-10-27 12:23:34.20,99,-109,-2053,-18,-33,30,194,570,-376,-382
,889,2023-10-27 12:23:34.21,110,-97,-2056,-11,-31,24,-55,550,-605,-247
,890,2023-10-27 12:23:34.22,106,-96,-2054,-10,-27,21,193,582,-389,-387
,891,2023-10-27 12:23:34.23,105,-98,-2043,-5,-19,16,-67,534,-601,-233
,892,2023-10-27 12:23:34.24,115,-96,-2044,2,-17,13,191,571,-380,-381
,893,2023-10-27 12:23:34.25,114,-101,-2054,9,-14,10,-74,525,-599,-225
,894,2023-10-27 12:23:34.26,121,-96,-2057,13,-17,7,194,585,-391,-389
,895,2023-10-27 12:23:34.27,118,-99,-2051,18,-16,2,-83,501,-584,-209
,896,2023-10-27 12:23:34.28,109,-93,-2054,22,-17,-3,198,585,-387,-391
,897,2023-10-27 12:23:34.29,114,-95,-2050,26,-16,-8,-74,513,-587,-219
,898,2023-10-27 12:23:34.30,123,-100,-2057,28,-19,-14,207,601,-394,-404
,899,2023-10-27 12:23:34.31,114,-102,-2050,32,-17,-15,-74,509,-583,-217
,900,2023-10-27 12:23:34.32,126,-98,-2051,36,-17,-19,208,601,-393,-404
,901,2023-10-27 12:23:34.33,109,-103,-2051,40,-17,-21,-75,500,-575,-212
,902,2023-10-27 12:23:34.34,126,-107,-2053,42,-14,-21,209,607,-398,-408
,903,2023-10-27 12:23:34.35,108,-119,-2056,48,-14,-23,-82,496,-578,-207
,904,2023-10-27 12:23:34.36,115,-114,-2054,52,-19,-22,206,611,-405,-408
,905,2023-10-27 12:23:34.37,118,-125,-2052,56,-25,-21,-79,493,-572,-207
,906,2023-10-27 12:23:34.38,117,-126,-2064,59,-28,-16,209,616,-407,-412
,907,2023-10-27 12:23:34.39,114,-129,-2035,62,-30,-15,-78,488,-566,-205
,908,2023-10-27 12:23:34.40,111,-138,-2042,63,-32,-10,209,622,-413,-415
,909,2023-10-27 12:23:34.41,118,-134,-2031,63,-25,-8,-81,484,-565,-201
,910,2023-10-27 12:23:34.42,126,-133,-2039,63,-22,-5,206,620,-414,-413
,911,2023-10-27 12:23:34.43,122,-139,-2032,60,-12,-3,-80,482,-562,-201
,912,2023-10-27 12:23:34.44,109,-144,-2048,65,-14,1,204,627,-423,-415
,913,2023-10-27 12:23:34.45,101,-149,-2050,66,-17,5,-88,477,-565,-194
,914,2023-10-27 12:23:34.46,109,-148,-2067,70,-24,8,201,630,-429,-415
,915,2023-10-27 12:23:34.47,101,-149,-2061,72,-28,11,-87,469,-556,-191
,916,2023-10-27 12:23:34.48,114,-142,-2067,73,-29,12,210,641,-431,-425
,917,2023-10-27 12:23:34.49,106,-144,-2066,68,-22,9,-83,468,-551,-192
,918,2023-10-27 12:23:34.50,117,-137,-2054,61,-10,4,216,640,-424,-428
,919,2023-10-27 12:23:34.51,118,-151,-2048,59,-1,2,-80,464,-544,-192
,920,2023-10-27 12:23:34.52,110,-150,-2051,56,4,6,212,648,-436,-430
,921,2023-10-27 12:23:34.53,120,-151,-2042,54,5,7,-87,459,-546,-186
,922,2023-10-27 12:23:34.54,119,-152,-2035,49,8,8,210,652,-442,-431
,923,2023-10-27 12:23:34.55,98,-153,-2040,45,14,12,-78,455,-533,-188
,924,2023-10-27 12:23:34.56,120,-145,-2046,40,15,10,217,656,-439,-436
,925,2023-10-27 12:23:34.57,120,-142,-2047,37,21,11,-78,454,-532,-188
,926,2023-10-27 12:23:34.58,117,-139,-2052,31,25,12,210,660,-450,-435
,927,2023-10-27 12:23:34.59,124,-137,-2048,28,24,9,-80,450,-530,-185
,928,2023-10-27 12:23:34.60,127,-139,-2046,28,26,11,212,666,-454,-439
,929,2023-10-27 12:23:34.61,127,-144,-2045,27,27,12,-74,446,-520,-186
,930,2023-10-27 12:23:34.62,119,-148,-2056,26,28,11,220,677,-457,-448
,931,2023-10-27 12:23:34.63,126,-138,-2051,21,26,11,-80,440,-520,-180
,932,2023-10-27 12:23:34.64,133,-146,-2045,19,25,11,204,670,-466,-437
,933,2023-10-27 12:23:34.65,132,-146,-2049,19,29,10,-78,439,-517,-180
,934,2023-10-27 12:23:34.66,128,-140,-2045,16,32,10,207,676,-469,-441
,935,2023-10-27 12:23:34.67,126,-137,-2056,15,33,7,-74,440,-514,-183
,936,2023-10-27 12:23:34.68,128,-142,-2049,13,35,5,200,677,-477,-438
,937,2023-10-27 12:23:34.69,128,-130,-2046,13,35,1,-80,438,-518,-179
,938,2023-10-27 12:23:34.70,142,-134,-2048,9,39,-3,188,674,-486,-431
,939,2023-10-27 12:23:34.71,141,-138,-2037,4,44,-5,-82,428,-510,-173
,940,2023-10-27 12:23:34.72,132,-133,-2035,4,46,-5,178,663,-485,-420
,941,2023-10-27 12:23:34.73,132,-145,-2051,1,55,-10,-91,413,-504,-161
,942,2023-10-27 12:23:34.74,133,-136,-2040,-1,59,-12,164,662,-498,-413
,943,2023-10-27 12:23:34.75,145,-139,-2033,-3,70,-16,-91,419,-510,-164
,944,2023-10-27 12:23:34.76,139,-134,-2025,-10,81,-17,167,676,-509,-421
,945,2023-10-27 12:23:34.77,139,-135,-2034,-17,92,-19,-82,428,-510,-173
,946,2023-10-27 12:23:34.78,128,-136,-2037,-26,107,-20,173,679,-506,-426
,947,2023-10-27 12:23:34.79,125,-136,-2029,-35,122,-21,-67,424,-491,-178
,948,2023-10-27 12:23:34.80,136,-132,-2028,-45,139,-22,181,679,-498,-430
,949,2023-10-27 12:23:34.81,131,-133,-2041,-55,148,-20,-59,426,-485,-183
,950,2023-10-27 12:23:34.82,136,-125,-2029,-66,160,-21,177,687,-510,-432
,951,2023-10-27 12:23:34.83,133,-128,-2030,-74,175,-24,-55,427,-482,-186
,952,2023-10-27 12:23:34.84,128,-128,-2037,-82,180,-22,176,689,-513,-432
,953,2023-10-27 12:23:34.85,144,-120,-2038,-91,187,-27,-46,430,-476,-192
,954,2023-10-27 12:23:34.86,149,-116,-2031,-98,191,-27,178,690,-512,-434
,955,2023-10-27 12:23:34.87,149,-105,-2037,-105,208,-32,-42,421,-463,-189
,956,2023-10-27 12:23:34.88,168,-100,-2026,-110,215,-36,164,685,-521,-424
,957,2023-10-27 12:23:34.89,151,-96,-2029,-117,230,-46,-46,421,-467,-187
,958,2023-10-27 12:23:34.90,174,-85,-2022,-120,244,-49,166,690,-524,-428
,959,2023-10-27 12:23:34.91,196,-71,-2012,-132,270,-59,-30,420,-450,-195
,960,2023-10-27 12:23:34.92,204,-59,-2010,-143,287,-73,164,685,-521,-424
,961,2023-10-27 12:23:34.93,209,-38,-1999,-160,315,-89,-32,416,-448,-192
,962,2023-10-27 12:23:34.94,208,-46,-1999,-172,353,-111,154,691,-537,-422
,963,2023-10-27 12:23:34.95,214,-44,-2005,-182,384,-131,-27,424,-451,-198
,964,2023-10-27 12:23:34.96,202,-56,-2027,-186,402,-149,154,694,-540,-424
,965,2023-10-27 12:23:34.97,213,-60,-2053,-181,405,-156,-20,420,-440,-200
,966,2023-10-27 12:23:34.98,211,-81,-2055,-168,393,-154,142,688,-546,-415
,967,2023-10-27 12:23:34.99,225,-86,-2070,-151,378,-148,-24,414,-438,-195
,968,2023-10-27 12:23:35.00,241,-88,-2072,-136,359,-139,131,692,-561,-411
,969,2023-10-27 12:23:35.01,259,-97,-2075,-115,338,-128,-20,415,-435,-197
,970,2023-10-27 12:23:35.02,281,-92,-2084,-98,325,-117,126,690,-564,-408
,971,2023-10-27 12:23:35.03,284,-95,-2073,-73,294,-106,-6,423,-429,-208
,972,2023-10-27 12:23:35.04,291,-91,-2079,-50,278,-89,119,694,-575,-406
,973,2023-10-27 12:23:35.05,309,-83,-2087,-29,259,-77,-12,423,-435,-205
,974,2023-10-27 12:23:35.06,300,-86,-2085,-9,241,-66,106,686,-580,-396
,975,2023-10-27 12:23:35.07,303,-75,-2085,4,223,-53,-12,412,-424,-200
,976,2023-10-27 12:23:35.08,312,-80,-2081,17,202,-39,97,686,-589,-391
,977,2023-10-27 12:23:35.09,320,-75,-2083,30,184,-29,-16,412,-428,-198
,978,2023-10-27 12:23:35.10,324,-84,-2084,42,169,-18,89,690,-601,-389
,979,2023-10-27 12:23:35.11,320,-81,-2085,51,152,-7,-4,416,-420,-206
,980,2023-10-27 12:23:35.12,326,-81,-2073,62,131,5,83,685,-602,-384
,981,2023-10-27 12:23:35.13,323,-79,-2070,66,115,14,-6,416,-422,-205
,982,2023-10-27 12:23:35.14,317,-78,-2053,71,98,22,74,684,-610,-379
,983,2023-10-27 12:23:35.15,319,-79,-2054,73,86,27,4,422,-418,-213
,984,2023-10-27 12:23:35.16,317,-87,-2064,80,65,33,64,684,-620,-374
,985,2023-10-27 12:23:35.17,330,-87,-2072,79,53,40,10,420,-410,-215
,986,2023-10-27 12:23:35.18,336,-77,-2060,84,40,47,64,682,-618,-373
,987,2023-10-27 12:23:35.19,334,-88,-2045,80,38,48,13,422,-409,-217
,988,2023-10-27 12:23:35.20,337,-83,-2055,76,35,48,54,681,-627,-367
,989,2023-10-27 12:23:35.21,332,-77,-2053,68,32,49,17,428,-411,-222
,990,2023-10-27 12:23:35.22,331,-88,-2044,65,30,48,46,678,-632,-362
,991,2023-10-27 12:23:35.23,328,-87,-2039,63,25,47,22,426,-404,-224
,992,2023-10-27 12:23:35.24,334,-97,-2036,66,17,48,40,677,-637,-358
,993,2023-10-27 12:23:35.25,331,-92,-2033,67,6,50,25,429,-404,-227
,994,2023-10-27 12:23:35.26,335,-97,-2038,65,1,49,30,673,-643,-351
,995,2023-10-27 12:23:35.27,333,-86,-2041,61,-5,49,31,433,-402,-232
,996,2023-10-27 12:23:35.28,333,-84,-2039,57,-13,41,25,673,-648,-349
,997,2023-10-27 12:23:35.29,328,-90,-2055,54,-13,34,34,435,-401,-234
,998,2023-10-27 12:23:35.30,319,-87,-2050,52,-15,29,16,664,-648,-340
,999,2023-10-27 12:23:35.31,330,-91,-2056,48,-23,23,38,430,-392,-234
,1000,2023-10-27 12:23:35.32,322,-95,-2052,47,-28,21,9,662,-653,-335
,1001,2023-10-27 12:23:35.33,325,-91,-2052,48,-32,16,48,442,-394,-245
,1002,2023-10-27 12:23:35.34,321,-97,-2042,46,-33,11,9,660,-651,-334
,1003,2023-10-27 12:23:35.35,327,-95,-2054,48,-39,6,54,446,-392,-250
,1004,2023-10-27 12:23:35.36,314,-99,-2045,49,-44,6,1,661,-660,-331
,1005,2023-10-27 12:23:35.37,327,-105,-2046,52,-50,5,58,454,-396,-256
,1006,2023-10-27 12:23:35.38,325,-107,-2052,55,-55,8,-8,655,-663,-323
,1007,2023-10-27 12:23:35.39,329,-110,-2048,55,-57,10,57,452,-395,-254
,1008,2023-10-27 12:23:35.40,332,-107,-2055,61,-68,16,-16,645,-661,-314
,1009,2023-10-27 12:23:35.41,324,-112,-2051,69,-77,23,64,452,-388,-258
,1010,2023-10-27 12:23:35.42,329,-113,-2037,75,-83,33,-21,642,-663,-310
,1011,2023-10-27 12:23:35.43,332,-116,-2032,79,-86,42,73,458,-385,-265
,1012,2023-10-27 12:23:35.44,319,-125,-2040,91,-93,53,-16,650,-666,-317
,1013,2023-10-27 12:23:35.45,323,-130,-2045,101,-104,63,78,468,-390,-273
,1014,2023-10-27 12:23:35.46,320,-120,-2035,118,-113,78,-31,638,-669,-303
,1015,2023-10-27 12:23:35.47,318,-130,-2033,127,-120,89,84,471,-387,-277
,1016,2023-10-27 12:23:35.48,321,-127,-2025,135,-124,103,-33,637,-670,-302
,1017,2023-10-27 12:23:35.49,309,-135,-2026,143,-116,111,88,479,-391,-283
,1018,2023-10-27 12:23:35.50,326,-140,-2028,150,-116,126,-47,629,-676,-291
,1019,2023-10-27 12:23:35.51,314,-150,-2025,158,-119,137,89,481,-392,-285
,1020,2023-10-27 12:23:35.52,286,-177,-2020,169,-125,152,-45,629,-674,-292
,1021,2023-10-27 12:23:35.53,294,-180,-2015,187,-133,167,102,492,-390,-297
,1022,2023-10-27 12:23:35.54,281,-192,-2028,202,-135,180,-49,620,-669,-285
,1023,2023-10-27 12:23:35.55,276,-196,-2009,220,-149,195,104,491,-387,-297
,1024,2023-10-27 12:23:35.56,268,-194,-2016,229,-145,205,-59,608,-667,-274
,1025,2023-10-27 12:23:35.57,289,-187,-2035,233,-145,211,106,488,-382,-297
,1026,2023-10-27 12:23:35.58,267,-192,-2030,229,-147,211,-60,605,-665,-272
,1027,2023-10-27 12:23:35.59,262,-195,-2021,224,-134,210,108,500,-392,-304
,1028,2023-10-27 12:23:35.60,281,-203,-2024,233,-126,207,-67,602,-669,-267
,1029,2023-10-27 12:23:35.61,243,-190,-2061,237,-130,201,114,507,-393,-310
,1030,2023-10-27 12:23:35.62,252,-190,-2050,235,-132,196,-67,596,-663,-264
,1031,2023-10-27 12:23:35.63,241,-184,-2073,220,-116,188,124,508,-384,-316
,1032,2023-10-27 12:23:35.64,244,-183,-2048,200,-129,182,-63,586,-649,-261
,1033,2023-10-27 12:23:35.65,237,-194,-2038,195,-125,168,146,518,-372,-332
,1034,2023-10-27 12:23:35.66,203,-189,-2066,184,-114,156,-42,592,-634,-275
,1035,2023-10-27 12:23:35.67,223,-199,-2072,166,-130,147,149,525,-376,-337
,1036,2023-10-27 12:23:35.68,222,-195,-2065,134,-112,137,-69,586,-655,-258
,1037,2023-10-27 12:23:35.69,211,-201,-2050,110,-117,126,136,530,-394,-333
,1038,2023-10-27 12:23:35.70,203,-205,-2045,97,-92,116,-71,576,-647,-252
,1039,2023-10-27 12:23:35.71,196,-193,-2051,82,-94,109,148,535,-387,-341
,1040,2023-10-27 12:23:35.72,212,-207,-2035,61,-103,95,-72,572,-644,-250
,1041,2023-10-27 12:23:35.73,224,-204,-2037,44,-91,87,151,540,-389,-345
,1042,2023-10-27 12:23:35.74,216,-206,-2034,46,-92,76,-78,565,-643,-243
,1043,2023-10-27 12:23:35.75,210,-207,-2039,49,-96,68,151,544,-393,-347
,1044,2023-10-27 12:23:35.76,217,-195,-2027,46,-103,58,-88,558,-646,-235
,1045,2023-10-27 12:23:35.77,200,-206,-2023,36,-107,50,150,547,-397,-348
,1046,2023-10-27 12:23:35.78,202,-206,-2027,30,-98,39,-78,555,-633,-238
,1047,2023-10-27 12:23:35.79,200,-225,-2023,47,-114,34,161,556,-395,-358
,1048,2023-10-27 12:23:35.80,184,-186,-2068,56,-121,30,-87,552,-639,-232
,1049,2023-10-27 12:23:35.81,203,-206,-2055,38,-123,23,156,561,-405,-358
,1050,2023-10-27 12:23:35.82,207,-221,-2047,19,-121,15,-97,546,-643,-224
,1051,2023-10-27 12:23:35.83,195,-221,-2042,23,-131,13,159,568,-409,-363
,1052,2023-10-27 12:23:35.84,194,-229,-2054,43,-145,15,-94,540,-634,-223
,1053,2023-10-27 12:23:35.85,192,-223,-2054,58,-170,18,172,582,-410,-377
,1054,2023-10-27 12:23:35.86,184,-230,-2049,56,-170,20,-92,535,-627,-221
,1055,2023-10-27 12:23:35.87,183,-230,-2042,49,-168,27,173,582,-409,-377
,1056,2023-10-27 12:23:35.88,199,-239,-2036,50,-170,33,-94,526,-620,-216
,1057,2023-10-27 12:23:35.89,177,-243,-2046,59,-184,41,179,582,-403,-380
,1058,2023-10-27 12:23:35.90,163,-255,-2049,75,-204,54,-84,527,-611,-221
,1059,2023-10-27 12:23:35.91,160,-245,-2048,80,-205,63,189,594,-405,-391
,1060,2023-10-27 12:23:35.92,171,-240,-2047,84,-206,70,-82,520,-602,-219
,1061,2023-10-27 12:23:35.93,164,-240,-2031,83,-203,76,197,597,-400,-397
,1062,2023-10-27 12:23:35.94,165,-240,-2039,84,-202,79,-77,515,-592,-219
,1063,2023-10-27 12:23:35.95,154,-251,-2038,82,-187,82,203,592,-389,-397
,1064,2023-10-27 12:23:35.96,136,-238,-2051,79,-180,86,-71,457,-528,-193
,1065,2023-10-27 12:23:35.97,160,-259,-2025,75,-173,91,219,573,-354,-396
,1066,2023-10-27 12:23:35.98,127,-252,-2044,76,-172,98,-65,507,-572,-221
,1067,2023-10-27 12:23:35.99,143,-259,-2038,74,-164,103,224,631,-407,-427
,1068,2023-10-27 12:23:36.00,151,-240,-2040,71,-153,104,-56,509,-565,-226
,1069,2023-10-27 12:23:36.01,149,-241,-2018,57,-134,103,230,615,-385,-422
,1070,2023-10-27 12:23:36.02,127,-244,-2029,44,-124,103,-57,485,-542,-214
,1071,2023-10-27 12:23:36.03,128,-244,-2025,38,-110,106,233,613,-380,-423
,1072,2023-10-27 12:23:36.04,128,-251,-2020,29,-99,103,-49,480,-529,-215
,1073,2023-10-27 12:23:36.05,110,-260,-2030,23,-86,105,243,620,-377,-431
,1074,2023-10-27 12:23:36.06,111,-259,-2032,26,-88,104,-40,478,-518,-219
,1075,2023-10-27 12:23:36.07,106,-260,-2023,26,-88,103,247,626,-379,-436
,1076,2023-10-27 12:23:36.08,105,-252,-2021,26,-85,102,-44,472,-516,-214
,1077,2023-10-27 12:23:36.09,103,-260,-2011,25,-82,99,254,627,-373,-440
,1078,2023-10-27 12:23:36.10,94,-246,-2010,24,-77,96,-34,467,-501,-216
,1079,2023-10-27 12:23:36.11,80,-246,-2020,17,-61,89,260,635,-375,-447
,1080,2023-10-27 12:23:36.12,91,-272,-2033,13,-59,83,-30,467,-497,-218
,1081,2023-10-27 12:23:36.13,88,-259,-2040,7,-55,81,265,638,-373,-451
,1082,2023-10-27 12:23:36.14,61,-269,-2031,0,-44,73,-26,460,-486,-217
,1083,2023-10-27 12:23:36.15,60,-286,-2028,9,-59,67,272,637,-365,-454
,1084,2023-10-27 12:23:36.16,91,-242,-2060,15,-60,63,-22,458,-480,-218
,1085,2023-10-27 12:23:36.17,74,-247,-2029,1,-47,50,276,646,-370,-461
,1086,2023-10-27 12:23:36.18,79,-263,-2032,-7,-41,40,-15,455,-470,-220
,1087,2023-10-27 12:23:36.19,79,-254,-2038,-13,-35,29,279,642,-363,-460
,1088,2023-10-27 12:23:36.20,64,-252,-2040,-18,-31,18,-20,449,-469,-214
,1089,2023-10-27 12:23:36.21,69,-266,-2037,-16,-38,8,274,646,-372,-460
,1090,2023-10-27 12:23:36.22,64,-253,-2040,-21,-26,0,-8,449,-457,-220
,1091,2023-10-27 12:23:36.23,61,-256,-2052,-30,-27,-9,297,653,-356,-475
,1092,2023-10-27 12:23:36.24,68,-245,-2044,-37,-31,-16,9,445,-436,-227
,1093,2023-10-27 12:23:36.25,72,-247,-2035,-42,-21,-26,295,651,-356,-473
,1094,2023-10-27 12:23:36.26,67,-246,-2048,-44,-29,-34,4,441,-437,-222
,1095,2023-10-27 12:23:36.27,65,-242,-2048,-52,-27,-43,300,653,-353,-476
,1096,2023-10-27 12:23:36.28,76,-241,-2044,-59,-27,-47,13,434,-421,-223
,1097,2023-10-27 12:23:36.29,69,-240,-2053,-62,-20,-49,308,657,-349,-482
,1098,2023-10-27 12:23:36.30,59,-239,-2042,-69,-23,-52,12,433,-421,-222
,1099,2023-10-27 12:23:36.31,59,-239,-2039,-71,-26,-49,297,660,-363,-478
,1100,2023-10-27 12:23:36.32,74,-242,-2042,-74,-27,-49,7,424,-417,-215
,1101,2023-10-27 12:23:36.33,59,-245,-2038,-81,-20,-47,291,659,-368,-475
,1102,2023-10-27 12:23:36.34,75,-247,-2046,-81,-18,-41,8,420,-412,-214
,1103,2023-10-27 12:23:36.35,79,-252,-2042,-78,-18,-35,293,662,-369,-477
,1104,2023-10-27 12:23:36.36,71,-248,-2041,-71,-19,-25,16,419,-403,-217
,1105,2023-10-27 12:23:36.37,74,-251,-2037,-66,-14,-16,296,664,-368,-480
,1106,2023-10-27 12:23:36.38,80,-259,-2033,-56,-9,-9,16,420,-404,-218
,1107,2023-10-27 12:23:36.39,74,-249,-2027,-52,-6,2,296,668,-372,-482
,1108,2023-10-27 12:23:36.40,77,-252,-2035,-44,-1,10,27,422,-395,-224
,1109,2023-10-27 12:23:36.41,62,-249,-2033,-40,4,17,303,671,-368,-487
,1110,2023-10-27 12:23:36.42,69,-243,-2036,-37,7,24,30,415,-385,-222
,1111,2023-10-27 12:23:36.43,79,-237,-2045,-36,11,30,297,668,-371,-482
,1112,2023-10-27 12:23:36.44,76,-233,-2044,-38,14,31,32,406,-374,-219
,1113,2023-10-27 12:23:36.45,70,-227,-2045,-40,21,37,302,665,-363,-483
,1114,2023-10-27 12:23:36.46,68,-221,-2049,-47,26,40,41,397,-356,-219
,1115,2023-10-27 12:23:36.47,81,-227,-2052,-50,29,42,303,668,-365,-485
,1116,2023-10-27 12:23:36.48,76,-224,-2055,-56,27,45,44,401,-357,-222
,1117,2023-10-27 12:23:36.49,85,-215,-2047,-65,28,47,302,677,-375,-489
,1118,2023-10-27 12:23:36.50,75,-215,-2056,-68,31,48,46,406,-360,-226
,1119,2023-10-27 12:23:36.51,74,-212,-2058,-73,25,51,304,676,-372,-490
,1120,2023-10-27 12:23:36.52,79,-199,-2055,-78,26,52,56,395,-339,-225
,1121,2023-10-27 12:23:36.53,85,-199,-2037,-87,27,50,298,667,-369,-482
,1122,2023-10-27 12:23:36.54,82,-197,-2039,-93,31,54,45,389,-344,-217
,1123,2023-10-27 12:23:36.55,98,-205,-2050,-97,30,57,291,673,-382,-482
,1124,2023-10-27 12:23:36.56,106,-198,-2052,-100,31,59,54,400,-346,-227
,1125,2023-10-27 12:23:36.57,89,-201,-2042,-102,30,60,285,678,-393,-481
,1126,2023-10-27 12:23:36.58,76,-199,-2044,-104,28,69,48,392,-344,-220
,1127,2023-10-27 12:23:36.59,95,-205,-2040,-104,27,75,283,669,-386,-476
,1128,2023-10-27 12:23:36.60,92,-192,-2036,-99,30,80,58,388,-330,-223
,1129,2023-10-27 12:23:36.61,95,-193,-2038,-105,33,85,281,672,-391,-476
,1130,2023-10-27 12:23:36.62,96,-196,-2044,-104,34,90,58,393,-335,-225
,1131,2023-10-27 12:23:36.63,104,-183,-2045,-108,38,95,273,677,-404,-475
,1132,2023-10-27 12:23:36.64,100,-194,-2049,-106,37,97,63,396,-333,-229
,1133,2023-10-27 12:23:36.65,104,-185,-2060,-101,31,109,275,674,-399,-474
,1134,2023-10-27 12:23:36.66,98,-178,-2063,-107,27,112,67,391,-324,-229
,1135,2023-10-27 12:23:36.67,104,-173,-2034,-109,26,120,268,677,-409,-472
,1136,2023-10-27 12:23:36.68,94,-174,-2062,-108,24,124,74,395,-321,-234
,1137,2023-10-27 12:23:36.69,93,-182,-2054,-113,18,130,270,677,-407,-473
,1138,2023-10-27 12:23:36.70,95,-176,-2059,-112,13,136,84,401,-317,-242
,1139,2023-10-27 12:23:36.71,98,-160,-2069,-111,12,137,267,668,-401,-467
,1140,2023-10-27 12:23:36.72,106,-165,-2064,-109,11,143,84,394,-310,-239
,1141,2023-10-27 12:23:36.73,117,-145,-2072,-109,14,145,255,659,-404,-457
,1142,2023-10-27 12:23:36.74,105,-144,-2058,-109,15,143,87,400,-313,-243
,1143,2023-10-27 12:23:36.75,98,-142,-2047,-112,19,144,255,665,-410,-460
,1144,2023-10-27 12:23:36.76,88,-140,-2044,-115,20,142,94,398,-304,-246
,1145,2023-10-27 12:23:36.77,104,-141,-2051,-119,24,144,247,661,-414,-454
,1146,2023-10-27 12:23:36.78,98,-134,-2050,-126,24,145,92,397,-305,-244
,1147,2023-10-27 12:23:36.79,92,-122,-2057,-129,30,147,240,662,-422,-451
,1148,2023-10-27 12:23:36.80,112,-141,-2057,-133,27,147,101,403,-302,-252
,1149,2023-10-27 12:23:36.81,106,-126,-2063,-131,24,148,235,660,-425,-447
,1150,2023-10-27 12:23:36.82,104,-108,-2082,-126,19,151,109,404,-295,-256
,1151,2023-10-27 12:23:36.83,99,-124,-2056,-131,17,154,227,655,-428,-441
,1152,2023-10-27 12:23:36.84,102,-112,-2064,-128,11,156,109,404,-295,-256
,1153,2023-10-27 12:23:36.85,108,-106,-2070,-129,5,160,223,655,-432,-439
,1154,2023-10-27 12:23:36.86,108,-113,-2063,-125,-1,161,117,407,-290,-262
,1155,2023-10-27 12:23:36.87,99,-96,-2051,-123,-2,168,226,655,-429,-440
,1156,2023-10-27 12:23:36.88,102,-93,-2056,-123,-5,170,130,412,-282,-271
,1157,2023-10-27 12:23:36.89,97,-90,-2057,-127,-4,170,216,654,-438,-435
,1158,2023-10-27 12:23:36.90,110,-83,-2057,-127,-4,174,131,418,-287,-274
,1159,2023-10-27 12:23:36.91,101,-85,-2058,-128,-1,174,215,652,-437,-433
,1160,2023-10-27 12:23:36.92,105,-83,-2052,-125,1,173,144,417,-273,-280
,1161,2023-10-27 12:23:36.93,96,-74,-2050,-124,6,172,208,640,-432,-424
,1162,2023-10-27 12:23:36.94,118,-76,-2050,-119,7,173,143,406,-263,-274
,1163,2023-10-27 12:23:36.95,115,-68,-2057,-116,11,171,204,640,-436,-422
,1164,2023-10-27 12:23:36.96,119,-59,-2040,-119,16,166,155,419,-264,-287
,1165,2023-10-27 12:23:36.97,103,-73,-2052,-121,22,163,200,644,-444,-422
,1166,2023-10-27 12:23:36.98,106,-73,-2041,-111,22,165,158,424,-266,-291
,1167,2023-10-27 12:23:36.99,106,-66,-2041,-102,15,163,193,635,-442,-414
,1168,2023-10-27 12:23:37.00,115,-65,-2038,-97,21,161,165,420,-255,-292
,1169,2023-10-27 12:23:37.01,115,-62,-2060,-94,23,159,187,633,-446,-410
,1170,2023-10-27 12:23:37.02,112,-54,-2068,-92,25,155,169,432,-263,-300
,1171,2023-10-27 12:23:37.03,111,-44,-2053,-92,22,150,174,628,-454,-401
,1172,2023-10-27 12:23:37.04,117,-53,-2046,-91,33,141,167,425,-258,-296
,1173,2023-10-27 12:23:37.05,117,-45,-2050,-80,20,137,174,624,-450,-399
,1174,2023-10-27 12:23:37.06,98,-40,-2049,-76,21,129,177,432,-255,-304
,1175,2023-10-27 12:23:37.07,109,-35,-2054,-70,22,123,170,623,-453,-396
,1176,2023-10-27 12:23:37.08,107,-43,-2036,-71,23,116,183,442,-259,-312
,1177,2023-10-27 12:23:37.09,107,-41,-2059,-64,19,109,156,619,-463,-387
,1178,2023-10-27 12:23:37.10,108,-32,-2062,-62,22,100,184,440,-256,-312
,1179,2023-10-27 12:23:37.11,104,-23,-2065,-63,23,90,161,613,-452,-387
,1180,2023-10-27 12:23:37.12,107,-39,-2047,-61,23,79,193,443,-250,-318
,1181,2023-10-27 12:23:37.13,110,-35,-2044,-54,19,71,151,609,-458,-380
,1182,2023-10-27 12:23:37.14,107,-23,-2053,-42,13,60,194,444,-250,-319
,1183,2023-10-27 12:23:37.15,114,-28,-2064,-44,18,52,144,608,-464,-376
,1184,2023-10-27 12:23:37.16,105,-27,-2060,-43,13,43,199,458,-259,-328
,1185,2023-10-27 12:23:37.17,110,-28,-2065,-36,13,36,135,603,-468,-369
,1186,2023-10-27 12:23:37.18,99,-36,-2057,-24,9,29,200,457,-257,-328
,1187,2023-10-27 12:23:37.19,118,-39,-2062,-16,5,25,130,595,-465,-362
,1188,2023-10-27 12:23:37.20,112,-42,-2057,-10,2,18,216,467,-251,-341
,1189,2023-10-27 12:23:37.21,117,-48,-2062,1,-3,16,137,593,-456,-365
,1190,2023-10-27 12:23:37.22,116,-38,-2055,12,-6,16,224,477,-253,-350
,1191,2023-10-27 12:23:37.23,118,-47,-2064,21,-10,13,122,587,-465,-354
,1192,2023-10-27 12:23:37.24,118,-47,-2055,31,-15,13,225,478,-253,-351
,1193,2023-10-27 12:23:37.25,122,-53,-2054,40,-21,13,126,577,-451,-351
,1194,2023-10-27 12:23:37.26,118,-49,-2054,49,-23,18,239,486,-247,-362
,1195,2023-10-27 12:23:37.27,124,-57,-2060,55,-21,21,122,580,-458,-351
,1196,2023-10-27 12:23:37.28,113,-55,-2061,59,-26,29,241,491,-250,-366
,1197,2023-10-27 12:23:37.29,95,-75,-2068,65,-26,36,114,572,-458,-343
,1198,2023-10-27 12:23:37.30,98,-75,-2065,68,-25,46,250,497,-247,-373
,1199,2023-10-27 12:23:37.31,104,-89,-2073,73,-36,59,126,562,-436,-344
,1200,2023-10-27 12:23:37.32,87,-84,-2063,79,-35,70,269,503,-234,-386
,1201,2023-10-27 12:23:37.33,88,-81,-2065,82,-48,83,127,561,-434,-344
,1202,2023-10-27 12:23:37.34,88,-78,-2059,84,-48,98,272,510,-238,-391
,1203,2023-10-27 12:23:37.35,91,-80,-2048,84,-46,102,116,547,-431,-331
,1204,2023-10-27 12:23:37.36,88,-90,-2041,83,-42,102,272,508,-236,-390
,1205,2023-10-27 12:23:37.37,90,-88,-2052,86,-34,103,114,542,-428,-328
,1206,2023-10-27 12:23:37.38,83,-80,-2039,89,-25,98,284,519,-235,-401
,1207,2023-10-27 12:23:37.39,93,-91,-2050,91,-24,94,119,537,-418,-328
,1208,2023-10-27 12:23:37.40,80,-88,-2033,91,-19,90,284,520,-236,-402
,1209,2023-10-27 12:23:37.41,76,-94,-2042,96,-20,81,97,519,-422,-308
,1210,2023-10-27 12:23:37.42,74,-97,-2038,101,-23,77,293,524,-231,-408
,1211,2023-10-27 12:23:37.43,80,-87,-2071,108,-31,74,110,527,-417,-318
,1212,2023-10-27 12:23:37.44,77,-95,-2070,105,-37,67,299,542,-243,-420
,1213,2023-10-27 12:23:37.45,75,-92,-2049,108,-35,59,84,526,-442,-305
,1214,2023-10-27 12:23:37.46,89,-82,-2061,99,-29,47,298,550,-252,-424
,1215,2023-10-27 12:23:37.47,83,-90,-2062,87,-16,40,118,526,-408,-322
,1216,2023-10-27 12:23:37.48,60,-100,-2060,76,-26,32,334,559,-225,-446
,1217,2023-10-27 12:23:37.49,71,-100,-2058,63,-22,26,121,528,-407,-324
,1218,2023-10-27 12:23:37.50,69,-88,-2067,52,-27,20,333,562,-229,-447
,1219,2023-10-27 12:23:37.51,48,-89,-2053,36,-32,13,119,511,-392,-315
,1220,2023-10-27 12:23:37.52,67,-90,-2056,26,-23,4,347,570,-223,-458
,1221,2023-10-27 12:23:37.53,71,-87,-2074,18,-25,-4,115,506,-391,-310
,1222,2023-10-27 12:23:37.54,65,-97,-2057,11,-33,-9,346,573,-227,-459
,1223,2023-10-27 12:23:37.55,64,-95,-2068,7,-28,-15,114,494,-380,-304
,1224,2023-10-27 12:23:37.56,69,-96,-2052,6,-39,-19,351,570,-219,-460
,1225,2023-10-27 12:23:37.57,61,-93,-2058,1,-29,-22,115,496,-381,-305
,1226,2023-10-27 12:23:37.58,72,-99,-2039,6,-42,-23,359,587,-228,-473
,1227,2023-10-27 12:23:37.59,62,-95,-2046,-1,-24,-29,117,494,-377,-305
,1228,2023-10-27 12:23:37.60,78,-100,-2056,2,-36,-28,362,584,-222,-473
,1229,2023-10-27 12:23:37.61,68,-109,-2044,-1,-24,-29,110,483,-373,-296
,1230,2023-10-27 12:23:37.62,76,-104,-2053,2,-24,-26,363,584,-221,-473
,1231,2023-10-27 12:23:37.63,65,-106,-2059,0,-21,-24,114,478,-364,-296
,1232,2023-10-27 12:23:37.64,80,-112,-2047,0,-22,-19,371,594,-223,-482
,1233,2023-10-27 12:23:37.65,60,-107,-2058,-2,-12,-17,116,480,-364,-298
,1234,2023-10-27 12:23:37.66,74,-107,-2062,5,-19,-9,373,601,-228,-487
,1235,2023-10-27 12:23:37.67,67,-100,-2067,0,-13,-5,114,474,-360,-294
,1236,2023-10-27 12:23:37.68,87,-98,-2045,-1,-19,1,378,602,-224,-490
,1237,2023-10-27 12:23:37.69,65,-110,-2059,0,-7,3,112,465,-353,-288
,1238,2023-10-27 12:23:37.70,66,-101,-2065,0,-15,5,385,601,-216,-493
,1239,2023-10-27 12:23:37.71,69,-97,-2056,3,-14,10,115,460,-345,-287
,1240,2023-10-27 12:23:37.72,76,-97,-2055,6,-12,15,390,609,-219,-499
,1241,2023-10-27 12:23:37.73,77,-94,-2050,8,-11,15,122,460,-338,-291
,1242,2023-10-27 12:23:37.74,73,-101,-2051,10,-6,17,393,615,-222,-504
,1243,2023-10-27 12:23:37.75,62,-99,-2056,18,-7,17,113,450,-337,-281
,1244,2023-10-27 12:23:37.76,65,-99,-2053,23,-6,18,392,616,-224,-504
,1245,2023-10-27 12:23:37.77,76,-99,-2053,31,-4,20,119,452,-333,-285
,1246,2023-10-27 12:23:37.78,72,-109,-2038,30,-5,18,403,627,-224,-515
,1247,2023-10-27 12:23:37.79,79,-96,-2064,40,-1,20,126,452,-326,-289
,1248,2023-10-27 12:23:37.80,50,-92,-2049,32,3,20,408,629,-221,-518
,1249,2023-10-27 12:23:37.81,80,-96,-2036,35,-4,16,124,436,-312,-280
,1250,2023-10-27 12:23:37.82,62,-95,-2051,33,19,11,405,628,-223,-516
,1251,2023-10-27 12:23:37.83,72,-99,-2046,38,14,7,120,434,-314,-277
,1252,2023-10-27 12:23:37.84,66,-103,-2040,36,21,3,409,634,-225,-521
,1253,2023-10-27 12:23:37.85,65,-105,-2049,38,25,0,120,430,-310,-275
,1254,2023-10-27 12:23:37.86,66,-104,-2048,35,30,-4,411,638,-227,-524
,1255,2023-10-27 12:23:37.87,75,-103,-2049,37,29,-8,122,426,-304,-274
,1256,2023-10-27 12:23:37.88,76,-100,-2050,36,28,-12,420,644,-224,-532
,1257,2023-10-27 12:23:37.89,69,-103,-2054,37,29,-17,131,426,-295,-278
,1258,2023-10-27 12:23:37.90,71,-97,-2046,38,30,-20,416,655,-239,-535
,1259,2023-10-27 12:23:37.91,76,-100,-2053,34,35,-27,116,418,-302,-267
,1260,2023-10-27 12:23:37.92,66,-102,-2054,34,34,-30,409,645,-236,-527
,1261,2023-10-27 12:23:37.93,81,-105,-2053,29,36,-31,118,415,-297,-266
,1262,2023-10-27 12:23:37.94,64,-113,-2063,26,34,-35,414,652,-238,-533
,1263,2023-10-27 12:23:37.95,70,-113,-2062,27,34,-34,118,413,-295,-265
,1264,2023-10-27 12:23:37.96,76,-109,-2053,24,31,-34,420,650,-230,-535
,1265,2023-10-27 12:23:37.97,65,-108,-2065,22,33,-31,124,409,-285,-266
,1266,2023-10-27 12:23:37.98,71,-108,-2046,24,31,-30,411,655,-244,-533
,1267,2023-10-27 12:23:37.99,68,-110,-2045,23,30,-27,112,408,-296,-260
,1268,2023-10-27 12:23:38.00,77,-113,-2055,20,33,-27,414,649,-235,-531
,1269,2023-10-27 12:23:38.01,62,-116,-2063,19,27,-24,122,400,-278,-261
,1270,2023-10-27 12:23:38.02,60,-111,-2064,23,24,-22,419,662,-243,-540
,1271,2023-10-27 12:23:38.03,70,-111,-2062,22,21,-22,120,404,-284,-262
,1272,2023-10-27 12:23:38.04,70,-108,-2058,19,20,-19,405,658,-253,-531
,1273,2023-10-27 12:23:38.05,78,-110,-2048,16,18,-20,112,403,-291,-257
,1274,2023-10-27 12:23:38.06,80,-102,-2057,12,19,-23,407,660,-253,-533
,1275,2023-10-27 12:23:38.07,64,-111,-2048,9,18,-23,125,399,-274,-262
,1276,2023-10-27 12:23:38.08,79,-119,-2057,8,16,-22,402,656,-254,-529
,1277,2023-10-27 12:23:38.09,75,-123,-2050,6,16,-18,112,390,-278,-251
,1278,2023-10-27 12:23:38.10,75,-118,-2053,7,18,-19,392,654,-262,-523
,1279,2023-10-27 12:23:38.11,67,-117,-2050,7,18,-19,120,390,-270,-255
,1280,2023-10-27 12:23:38.12,70,-114,-2052,9,14,-16,414,660,-246,-537
,1281,2023-10-27 12:23:38.13,79,-119,-2052,13,14,-14,148,393,-245,-270
