// Data mode  : Full
// Data quality  : High
// Acceleration sensor's range  : 16g
// Gyroscope sensor's range  : 2000dps
//
//ARTIFACT,NUM,DATE,ACC_X,ACC_Y,ACC_Z,GYRO_X,GYRO_Y,GYRO_Z,EOG_L,EOG_R,EOG_H,EOG_V
,1,2023-10-20 13:44:25.15,342,-407,-2007,27,-17,-23,-329,-866,537,597
,2,2023-10-20 13:44:25.16,347,-415,-2005,15,-9,-6,-365,-932,567,648
,3,2023-10-20 13:44:25.17,331,-409,-2004,8,-18,14,-323,-873,550,598
,4,2023-10-20 13:44:25.18,339,-392,-1999,6,-8,27,-377,-912,535,644
,5,2023-10-20 13:44:25.19,352,-404,-1991,0,-13,40,-320,-849,529,584
,6,2023-10-20 13:44:25.20,333,-412,-1989,-7,-7,57,-382,-886,504,634
,7,2023-10-20 13:44:25.21,347,-405,-1996,-19,-5,80,-318,-811,493,564
,8,2023-10-20 13:44:25.22,344,-406,-1999,-14,1,84,-385,-835,450,610
,9,2023-10-20 13:44:25.23,356,-394,-2014,-14,1,100,-314,-806,492,560
,10,2023-10-20 13:44:25.24,354,-376,-2020,-22,-5,111,-394,-861,467,627
,11,2023-10-20 13:44:25.25,357,-360,-2007,-14,-21,100,-310,-830,520,570
,12,2023-10-20 13:44:25.26,350,-369,-2008,-11,-30,89,-395,-861,466,628
,13,2023-10-20 13:44:25.27,339,-362,-2026,-9,-28,92,-302,-847,545,574
,14,2023-10-20 13:44:25.28,340,-340,-2013,8,-35,87,-402,-886,484,644
,15,2023-10-20 13:44:25.29,347,-339,-2000,11,-49,79,-298,-851,553,574
,16,2023-10-20 13:44:25.30,314,-344,-2010,-3,-69,59,-406,-862,456,634
,17,2023-10-20 13:44:25.31,336,-353,-2014,-17,-71,51,-296,-841,545,568
,18,2023-10-20 13:44:25.32,330,-370,-2019,-21,-70,51,-407,-861,454,634
,19,2023-10-20 13:44:25.33,309,-386,-2015,-21,-63,55,-285,-855,570,570
,20,2023-10-20 13:44:25.34,312,-387,-2022,-23,-58,73,-412,-871,459,641
,21,2023-10-20 13:44:25.35,310,-359,-2020,-10,-52,71,-279,-862,583,570
,22,2023-10-20 13:44:25.36,311,-354,-2017,0,-65,72,-416,-866,450,641
,23,2023-10-20 13:44:25.37,309,-356,-2017,1,-72,67,-286,-853,567,569
,24,2023-10-20 13:44:25.38,310,-369,-2016,-4,-72,61,-432,-848,416,640
,25,2023-10-20 13:44:25.39,305,-371,-2006,-15,-67,62,-279,-852,573,565
,26,2023-10-20 13:44:25.40,299,-370,-1999,-21,-55,70,-430,-855,425,642
,27,2023-10-20 13:44:25.41,305,-370,-1993,-17,-61,74,-278,-846,568,562
,28,2023-10-20 13:44:25.42,307,-362,-1998,-12,-44,76,-443,-827,384,635
,29,2023-10-20 13:44:25.43,305,-357,-1982,-3,-38,69,-279,-824,545,551
,30,2023-10-20 13:44:25.44,305,-370,-1987,6,-34,69,-442,-817,375,629
,31,2023-10-20 13:44:25.45,299,-376,-2006,21,-37,70,-267,-835,568,551
,32,2023-10-20 13:44:25.46,296,-332,-2056,24,-33,70,-441,-828,387,634
,33,2023-10-20 13:44:25.47,308,-377,-1994,7,-25,83,-263,-873,610,568
,34,2023-10-20 13:44:25.48,297,-377,-1950,18,-5,75,-444,-860,416,652
,35,2023-10-20 13:44:25.49,304,-408,-1979,41,-6,69,-264,-879,615,571
,36,2023-10-20 13:44:25.50,303,-372,-1986,52,-21,69,-451,-846,395,648
,37,2023-10-20 13:44:25.51,305,-387,-1985,57,-11,74,-267,-857,590,562
,38,2023-10-20 13:44:25.52,292,-407,-1997,71,-16,78,-455,-814,359,634
,39,2023-10-20 13:44:25.53,300,-398,-2012,66,-16,89,-256,-873,617,564
,40,2023-10-20 13:44:25.54,297,-366,-2072,46,-7,101,-447,-852,405,649
,41,2023-10-20 13:44:25.55,293,-397,-2048,16,5,101,-253,-878,625,565
,42,2023-10-20 13:44:25.56,289,-403,-1995,12,6,89,-465,-827,362,646
,43,2023-10-20 13:44:25.57,283,-389,-2026,5,0,84,-261,-861,600,561
,44,2023-10-20 13:44:25.58,294,-382,-2020,-1,-5,93,-469,-819,350,644
,45,2023-10-20 13:44:25.59,276,-395,-2027,5,4,102,-260,-878,618,569
,46,2023-10-20 13:44:25.60,272,-376,-2013,5,5,112,-469,-830,361,649
,47,2023-10-20 13:44:25.61,275,-355,-2018,9,-1,107,-252,-865,613,558
,48,2023-10-20 13:44:25.62,266,-344,-2010,21,-10,89,-468,-804,336,636
,49,2023-10-20 13:44:25.63,276,-339,-1999,31,-23,54,-254,-848,594,551
,50,2023-10-20 13:44:25.64,283,-357,-1994,38,-22,28,-480,-795,315,637
,51,2023-10-20 13:44:25.65,274,-364,-1988,53,-11,3,-260,-845,585,552
,52,2023-10-20 13:44:25.66,278,-383,-1978,72,4,-13,-478,-789,311,633
,53,2023-10-20 13:44:25.67,260,-377,-1984,78,19,-21,-257,-855,598,556
,54,2023-10-20 13:44:25.68,281,-402,-1990,74,31,-10,-482,-799,317,640
,55,2023-10-20 13:44:25.69,281,-411,-1991,81,44,-2,-252,-852,600,552
,56,2023-10-20 13:44:25.70,284,-414,-1999,77,42,6,-485,-780,295,632
,57,2023-10-20 13:44:25.71,295,-412,-1987,65,45,25,-264,-840,576,552
,58,2023-10-20 13:44:25.72,290,-405,-2005,60,35,35,-496,-779,283,637
,59,2023-10-20 13:44:25.73,299,-406,-2004,53,34,37,-266,-848,582,557
,60,2023-10-20 13:44:25.74,303,-402,-1999,47,26,39,-495,-774,279,634
,61,2023-10-20 13:44:25.75,294,-401,-2003,45,19,44,-260,-834,574,547
,62,2023-10-20 13:44:25.76,293,-397,-1991,41,16,39,-487,-754,267,620
,63,2023-10-20 13:44:25.77,285,-418,-1996,42,13,30,-256,-805,549,530
,64,2023-10-20 13:44:25.78,284,-372,-2040,51,14,36,-491,-738,247,614
,65,2023-10-20 13:44:25.79,304,-404,-2005,33,18,45,-257,-834,577,545
,66,2023-10-20 13:44:25.80,303,-431,-1963,36,27,47,-493,-767,274,630
,67,2023-10-20 13:44:25.81,290,-423,-1969,54,20,33,-266,-850,584,558
,68,2023-10-20 13:44:25.82,296,-362,-2008,55,14,9,-500,-771,271,635
,69,2023-10-20 13:44:25.83,290,-370,-2026,49,6,-6,-279,-862,583,570
,70,2023-10-20 13:44:25.84,297,-351,-2071,36,-4,-14,-502,-771,269,636
,71,2023-10-20 13:44:25.85,315,-409,-2005,7,0,-27,-271,-834,563,552
,72,2023-10-20 13:44:25.86,308,-448,-1939,3,19,-27,-496,-740,244,618
,73,2023-10-20 13:44:25.87,310,-463,-1952,23,20,-21,-268,-828,560,548
,74,2023-10-20 13:44:25.88,314,-437,-2005,33,17,-9,-493,-742,249,617
,75,2023-10-20 13:44:25.89,320,-415,-2012,31,6,-5,-273,-838,565,555
,76,2023-10-20 13:44:25.90,316,-402,-2019,20,8,13,-494,-752,258,623
,77,2023-10-20 13:44:25.91,326,-372,-2052,6,21,29,-262,-853,591,557
,78,2023-10-20 13:44:25.92,330,-418,-2008,-9,19,36,-488,-769,281,628
,79,2023-10-20 13:44:25.93,337,-430,-1991,3,6,29,-277,-894,617,585
,80,2023-10-20 13:44:25.94,328,-416,-2004,14,-16,27,-494,-790,296,642
,81,2023-10-20 13:44:25.95,337,-382,-2029,19,-36,23,-277,-873,596,575
,82,2023-10-20 13:44:25.96,336,-371,-2035,22,-39,21,-492,-759,267,625
,83,2023-10-20 13:44:25.97,331,-372,-2045,9,-48,17,-275,-854,579,564
,84,2023-10-20 13:44:25.98,325,-389,-2012,-13,-47,19,-488,-764,276,626
,85,2023-10-20 13:44:25.99,334,-390,-1992,-6,-50,18,-273,-911,638,592
,86,2023-10-20 13:44:26.00,321,-404,-1981,2,-63,10,-483,-798,315,640
,87,2023-10-20 13:44:26.01,307,-394,-1985,5,-74,8,-278,-858,580,568
,88,2023-10-20 13:44:26.02,320,-408,-1993,10,-76,23,-480,-723,243,601
,89,2023-10-20 13:44:26.03,316,-410,-2012,16,-76,33,-271,-789,518,530
,90,2023-10-20 13:44:26.04,318,-398,-2019,24,-74,54,-472,-691,219,581
,91,2023-10-20 13:44:26.05,290,-362,-2071,15,-83,62,-274,-792,518,533
,92,2023-10-20 13:44:26.06,280,-377,-2054,-9,-85,76,-465,-705,240,585
,93,2023-10-20 13:44:26.07,288,-378,-2028,-21,-100,67,-274,-814,540,544
,94,2023-10-20 13:44:26.08,273,-398,-2018,-35,-103,83,-461,-716,255,588
,95,2023-10-20 13:44:26.09,270,-397,-2025,-56,-106,97,-281,-805,524,543
,96,2023-10-20 13:44:26.10,263,-394,-2024,-70,-105,112,-465,-699,234,582
,97,2023-10-20 13:44:26.11,271,-381,-2001,-74,-114,118,-281,-806,525,543
,98,2023-10-20 13:44:26.12,265,-382,-2008,-72,-114,113,-453,-707,254,580
,99,2023-10-20 13:44:26.13,266,-377,-2002,-75,-100,116,-285,-802,517,543
,100,2023-10-20 13:44:26.14,255,-370,-1992,-74,-91,113,-451,-696,245,573
,101,2023-10-20 13:44:26.15,264,-390,-1989,-80,-76,118,-286,-783,497,534
,102,2023-10-20 13:44:26.16,264,-389,-1990,-71,-56,127,-446,-680,234,563
,103,2023-10-20 13:44:26.17,248,-388,-1991,-53,-50,124,-286,-780,494,533
,104,2023-10-20 13:44:26.18,244,-389,-1992,-43,-34,129,-437,-683,246,560
,105,2023-10-20 13:44:26.19,243,-377,-1998,-37,-25,138,-290,-788,498,539
,106,2023-10-20 13:44:26.20,243,-382,-2002,-39,-23,137,-435,-690,255,562
,107,2023-10-20 13:44:26.21,248,-388,-2010,-45,-3,139,-288,-791,503,539
,108,2023-10-20 13:44:26.22,244,-389,-1999,-51,-9,151,-430,-693,263,561
,109,2023-10-20 13:44:26.23,245,-388,-1999,-60,-4,150,-297,-802,505,549
,110,2023-10-20 13:44:26.24,258,-375,-1996,-69,4,159,-428,-701,273,564
,111,2023-10-20 13:44:26.25,265,-381,-2005,-68,2,153,-300,-801,501,550
,112,2023-10-20 13:44:26.26,253,-385,-1997,-63,9,148,-421,-695,274,558
,113,2023-10-20 13:44:26.27,246,-375,-1998,-50,7,140,-296,-787,491,541
,114,2023-10-20 13:44:26.28,267,-375,-1988,-38,21,132,-412,-688,276,550
,115,2023-10-20 13:44:26.29,255,-380,-1985,-26,12,122,-307,-796,489,551
,116,2023-10-20 13:44:26.30,259,-381,-2000,-15,13,108,-417,-736,319,576
,117,2023-10-20 13:44:26.31,249,-398,-2005,-6,10,113,-323,-895,572,609
,118,2023-10-20 13:44:26.32,243,-399,-2013,1,11,104,-421,-834,413,627
,119,2023-10-20 13:44:26.33,257,-394,-2013,9,14,104,-326,-970,644,648
,120,2023-10-20 13:44:26.34,259,-378,-2012,6,2,97,-402,-859,457,630
,121,2023-10-20 13:44:26.35,250,-362,-2007,-4,6,97,-322,-958,636,640
,122,2023-10-20 13:44:26.36,258,-360,-2013,-18,6,87,-396,-819,423,607
,123,2023-10-20 13:44:26.37,267,-359,-2012,-34,5,80,-332,-880,548,606
,124,2023-10-20 13:44:26.38,246,-360,-2004,-47,5,71,-396,-775,379,585
,125,2023-10-20 13:44:26.39,248,-353,-2006,-57,12,68,-334,-880,546,607
,126,2023-10-20 13:44:26.40,264,-363,-1999,-67,12,61,-389,-793,404,591
,127,2023-10-20 13:44:26.41,248,-375,-2034,-69,16,69,-334,-889,555,611
,128,2023-10-20 13:44:26.42,244,-322,-2039,-40,15,58,-383,-791,408,587
,129,2023-10-20 13:44:26.43,256,-307,-2018,10,4,19,-345,-873,528,609
,130,2023-10-20 13:44:26.44,255,-280,-1971,49,6,-38,-382,-781,399,581
,131,2023-10-20 13:44:26.45,248,-320,-1991,36,14,-59,-345,-874,529,609
,132,2023-10-20 13:44:26.46,247,-359,-2030,-10,1,-43,-374,-797,423,585
,133,2023-10-20 13:44:26.47,248,-405,-2017,-29,-12,-25,-353,-890,537,621
,134,2023-10-20 13:44:26.48,265,-446,-2001,-42,-22,-4,-369,-806,437,587
,135,2023-10-20 13:44:26.49,269,-438,-1995,-56,11,36,-346,-882,536,614
,136,2023-10-20 13:44:26.50,264,-398,-2011,-50,47,73,-358,-825,467,591
,137,2023-10-20 13:44:26.51,273,-360,-2012,-27,72,101,-360,-935,575,647
,138,2023-10-20 13:44:26.52,264,-347,-2006,-7,67,108,-360,-888,528,624
,139,2023-10-20 13:44:26.53,256,-341,-2025,-1,54,103,-368,-970,602,669
,140,2023-10-20 13:44:26.54,258,-321,-2027,-12,32,90,-359,-894,535,626
,141,2023-10-20 13:44:26.55,252,-323,-2017,-28,21,82,-370,-950,580,660
,142,2023-10-20 13:44:26.56,264,-329,-2015,-40,21,71,-352,-803,451,577
,143,2023-10-20 13:44:26.57,259,-335,-2005,-40,25,57,-374,-802,428,588
,144,2023-10-20 13:44:26.58,252,-334,-2005,-40,25,53,-336,-694,358,515
,145,2023-10-20 13:44:26.59,252,-347,-2009,-46,31,43,-367,-746,379,556
,146,2023-10-20 13:44:26.60,260,-348,-2008,-46,36,32,-333,-692,359,512
,147,2023-10-20 13:44:26.61,256,-334,-2011,-36,34,5,-380,-764,384,572
,148,2023-10-20 13:44:26.62,263,-318,-2002,-28,28,-13,-331,-711,380,521
,149,2023-10-20 13:44:26.63,272,-342,-1998,-34,36,-20,-388,-777,389,582
,150,2023-10-20 13:44:26.64,273,-356,-2012,-49,45,-12,-323,-721,398,522
,151,2023-10-20 13:44:26.65,280,-380,-2011,-66,56,16,-390,-771,381,580
,152,2023-10-20 13:44:26.66,284,-400,-1998,-68,64,51,-320,-814,494,567
,153,2023-10-20 13:44:26.67,276,-369,-2032,-57,64,83,-396,-927,531,661
,154,2023-10-20 13:44:26.68,269,-366,-2052,-48,62,120,-320,-873,553,596
,155,2023-10-20 13:44:26.69,270,-337,-2039,-40,56,143,-413,-878,465,645
,156,2023-10-20 13:44:26.70,273,-327,-2040,-38,44,154,-321,-802,481,561
,157,2023-10-20 13:44:26.71,285,-311,-2030,-32,31,143,-415,-824,409,619
,158,2023-10-20 13:44:26.72,281,-306,-2033,-27,17,126,-314,-780,466,547
,159,2023-10-20 13:44:26.73,276,-292,-2040,-17,13,107,-410,-808,398,609
,160,2023-10-20 13:44:26.74,289,-292,-2034,-15,5,84,-307,-770,463,538
,161,2023-10-20 13:44:26.75,279,-304,-2034,-9,8,68,-421,-794,373,607
,162,2023-10-20 13:44:26.76,281,-330,-2039,-3,12,66,-310,-756,446,533
,163,2023-10-20 13:44:26.77,266,-339,-2038,5,16,74,-428,-780,352,604
,164,2023-10-20 13:44:26.78,265,-337,-2037,8,9,78,-304,-779,475,541
,165,2023-10-20 13:44:26.79,271,-324,-2030,7,-3,81,-432,-814,382,623
,166,2023-10-20 13:44:26.80,255,-319,-2036,12,-5,82,-304,-798,494,551
,167,2023-10-20 13:44:26.81,247,-315,-2016,18,-17,75,-439,-807,368,623
,168,2023-10-20 13:44:26.82,236,-309,-2021,17,-27,67,-299,-801,502,550
,169,2023-10-20 13:44:26.83,254,-313,-2012,16,-23,56,-442,-818,376,630
,170,2023-10-20 13:44:26.84,239,-320,-2020,19,-27,46,-288,-792,504,540
,171,2023-10-20 13:44:26.85,232,-311,-2010,20,-29,33,-441,-786,345,613
,172,2023-10-20 13:44:26.86,228,-323,-2010,19,-25,27,-290,-800,510,545
,173,2023-10-20 13:44:26.87,251,-334,-2015,18,-29,23,-452,-813,361,632
,174,2023-10-20 13:44:26.88,237,-332,-2012,18,-34,17,-294,-874,580,584
,175,2023-10-20 13:44:26.89,231,-343,-2006,20,-33,19,-461,-888,427,674
,176,2023-10-20 13:44:26.90,231,-344,-2020,25,-36,22,-293,-928,635,610
,177,2023-10-20 13:44:26.91,235,-352,-2029,35,-29,28,-463,-902,439,682
,178,2023-10-20 13:44:26.92,230,-347,-2025,39,-36,25,-285,-846,561,565
,179,2023-10-20 13:44:26.93,237,-348,-2032,36,-31,30,-456,-783,327,619
,180,2023-10-20 13:44:26.94,242,-346,-2033,32,-34,29,-277,-740,463,508
,181,2023-10-20 13:44:26.95,230,-353,-2035,26,-37,31,-463,-722,259,592
,182,2023-10-20 13:44:26.96,230,-350,-2023,19,-30,35,-276,-730,454,503
,183,2023-10-20 13:44:26.97,216,-348,-2022,12,-25,43,-466,-733,267,599
,184,2023-10-20 13:44:26.98,229,-348,-2004,10,-15,54,-270,-739,469,504
,185,2023-10-20 13:44:26.99,240,-353,-1991,12,-16,55,-468,-733,265,600
,186,2023-10-20 13:44:27.00,241,-348,-1989,10,-18,56,-270,-737,467,503
,187,2023-10-20 13:44:27.01,222,-354,-1986,10,-8,55,-472,-722,250,597
,188,2023-10-20 13:44:27.02,206,-354,-2009,21,4,66,-265,-740,475,502
,189,2023-10-20 13:44:27.03,220,-317,-1999,62,6,46,-464,-726,262,595
,190,2023-10-20 13:44:27.04,210,-312,-1988,104,12,6,-261,-752,491,506
,191,2023-10-20 13:44:27.05,213,-291,-1980,127,10,-38,-474,-731,257,602
,192,2023-10-20 13:44:27.06,239,-316,-1974,108,20,-69,-265,-740,475,502
,193,2023-10-20 13:44:27.07,248,-387,-1995,63,22,-61,-471,-707,236,589
,194,2023-10-20 13:44:27.08,256,-403,-2011,32,35,-46,-253,-740,487,496
,195,2023-10-20 13:44:27.09,235,-433,-2021,4,43,-20,-465,-715,250,590
,196,2023-10-20 13:44:27.10,262,-438,-2046,-31,57,32,-255,-750,495,502
,197,2023-10-20 13:44:27.11,261,-409,-2042,-51,83,84,-478,-721,243,599
,198,2023-10-20 13:44:27.12,283,-383,-2046,-53,92,111,-260,-760,500,510
,199,2023-10-20 13:44:27.13,269,-336,-2044,-46,96,124,-481,-724,243,602
,200,2023-10-20 13:44:27.14,274,-316,-2031,-27,77,111,-252,-778,526,515
,201,2023-10-20 13:44:27.15,276,-284,-2027,-17,44,89,-477,-737,260,607
,202,2023-10-20 13:44:27.16,280,-260,-2026,-20,30,59,-255,-783,528,519
,203,2023-10-20 13:44:27.17,285,-263,-2024,-27,14,26,-488,-734,246,611
,204,2023-10-20 13:44:27.18,277,-275,-2003,-26,15,-8,-257,-770,513,513
,205,2023-10-20 13:44:27.19,272,-304,-1989,-22,8,-38,-487,-715,228,601
,206,2023-10-20 13:44:27.20,271,-326,-1997,-8,19,-49,-256,-772,516,514
,207,2023-10-20 13:44:27.21,275,-342,-2009,7,17,-46,-487,-722,235,604
,208,2023-10-20 13:44:27.22,261,-354,-2016,12,25,-32,-256,-778,522,517
,209,2023-10-20 13:44:27.23,272,-344,-2024,14,21,-15,-488,-719,231,603
,210,2023-10-20 13:44:27.24,278,-349,-2022,11,26,-13,-254,-765,511,509
,211,2023-10-20 13:44:27.25,275,-352,-2007,-4,21,-3,-480,-700,220,590
,212,2023-10-20 13:44:27.26,290,-340,-2015,-14,28,-1,-252,-774,522,513
,213,2023-10-20 13:44:27.27,286,-338,-2026,-21,41,5,-486,-717,231,601
,214,2023-10-20 13:44:27.28,278,-331,-2029,-24,45,9,-249,-788,539,518
,215,2023-10-20 13:44:27.29,293,-337,-2024,-21,50,21,-484,-718,234,601
,216,2023-10-20 13:44:27.30,283,-337,-2018,-10,48,31,-252,-771,519,511
,217,2023-10-20 13:44:27.31,282,-327,-2023,0,41,34,-478,-697,219,587
,218,2023-10-20 13:44:27.32,288,-309,-2020,14,36,31,-250,-754,504,502
,219,2023-10-20 13:44:27.33,296,-309,-2015,17,24,23,-481,-687,206,584
,220,2023-10-20 13:44:27.34,284,-309,-2012,16,26,8,-253,-769,516,511
,221,2023-10-20 13:44:27.35,291,-327,-2015,10,30,2,-483,-700,217,591
,222,2023-10-20 13:44:27.36,293,-346,-2019,0,25,5,-255,-779,524,517
,223,2023-10-20 13:44:27.37,293,-352,-1994,2,39,20,-477,-703,226,590
,224,2023-10-20 13:44:27.38,284,-353,-1990,3,37,32,-255,-786,531,520
,225,2023-10-20 13:44:27.39,291,-361,-2012,3,47,59,-476,-704,228,590
,226,2023-10-20 13:44:27.40,277,-349,-2018,3,43,88,-250,-767,517,508
,227,2023-10-20 13:44:27.41,274,-341,-2008,1,30,93,-471,-680,209,575
,228,2023-10-20 13:44:27.42,282,-325,-2027,-2,25,95,-259,-768,509,513
,229,2023-10-20 13:44:27.43,286,-326,-2029,-6,15,96,-476,-692,216,584
,230,2023-10-20 13:44:27.44,290,-322,-2028,-11,21,89,-255,-785,530,520
,231,2023-10-20 13:44:27.45,270,-332,-2034,-12,19,94,-473,-704,231,588
,232,2023-10-20 13:44:27.46,290,-326,-2036,-10,14,92,-262,-792,530,527
,233,2023-10-20 13:44:27.47,278,-322,-2031,-10,17,91,-470,-696,226,583
,234,2023-10-20 13:44:27.48,282,-314,-2034,-17,13,89,-258,-765,507,511
,235,2023-10-20 13:44:27.49,289,-315,-2026,-25,4,84,-464,-678,214,571
,236,2023-10-20 13:44:27.50,283,-313,-2024,-26,2,83,-273,-782,509,527
,237,2023-10-20 13:44:27.51,278,-316,-2015,-30,5,84,-479,-734,255,606
,238,2023-10-20 13:44:27.52,279,-314,-2016,-30,2,83,-268,-943,675,605
,239,2023-10-20 13:44:27.53,283,-318,-2006,-30,1,86,-459,-851,392,655
,240,2023-10-20 13:44:27.54,291,-308,-1994,-21,-2,85,-278,-916,638,597
,241,2023-10-20 13:44:27.55,288,-305,-1994,-19,-4,78,-467,-764,297,615
,242,2023-10-20 13:44:27.56,278,-317,-2005,-15,-4,83,-279,-845,566,562
,243,2023-10-20 13:44:27.57,272,-329,-2006,-15,4,88,-456,-737,281,596
,244,2023-10-20 13:44:27.58,280,-320,-2009,-13,0,92,-283,-852,569,567
,245,2023-10-20 13:44:27.59,275,-316,-2005,-17,8,93,-450,-752,302,601
,246,2023-10-20 13:44:27.60,280,-319,-2009,-22,18,98,-280,-872,592,576
,247,2023-10-20 13:44:27.61,274,-310,-2019,-27,17,90,-442,-759,317,600
,248,2023-10-20 13:44:27.62,270,-301,-2047,-30,29,93,-278,-858,580,568
,249,2023-10-20 13:44:27.63,264,-298,-2042,-24,27,87,-435,-750,315,592
,250,2023-10-20 13:44:27.64,283,-270,-2031,4,23,55,-288,-879,591,583
,251,2023-10-20 13:44:27.65,281,-266,-2001,36,27,12,-434,-766,332,600
,252,2023-10-20 13:44:27.66,293,-277,-2004,35,11,-20,-286,-862,576,574
,253,2023-10-20 13:44:27.67,294,-302,-2021,4,11,-35,-429,-742,313,585
,254,2023-10-20 13:44:27.68,299,-328,-2023,-34,-1,-33,-297,-842,545,569
,255,2023-10-20 13:44:27.69,299,-362,-2017,-55,-10,-19,-427,-731,304,579
,256,2023-10-20 13:44:27.70,284,-393,-2040,-69,3,5,-301,-840,539,570
,257,2023-10-20 13:44:27.71,286,-374,-2029,-62,8,52,-422,-741,319,581
,258,2023-10-20 13:44:27.72,282,-360,-2027,-43,12,86,-305,-859,554,582
,259,2023-10-20 13:44:27.73,281,-335,-2024,-30,19,116,-423,-750,327,586
,260,2023-10-20 13:44:27.74,258,-315,-2028,-27,17,126,-314,-847,533,580
,261,2023-10-20 13:44:27.75,263,-288,-2026,-29,1,128,-415,-734,319,574
,262,2023-10-20 13:44:27.76,262,-271,-2016,-37,-18,120,-310,-838,528,574
,263,2023-10-20 13:44:27.77,274,-275,-2010,-55,-21,104,-398,-744,346,571
,264,2023-10-20 13:44:27.78,258,-282,-2012,-79,-11,92,-300,-861,561,580
,265,2023-10-20 13:44:27.79,266,-291,-2008,-82,-7,75,-388,-776,388,582
,266,2023-10-20 13:44:27.80,265,-309,-2007,-85,-3,66,-304,-898,594,601
,267,2023-10-20 13:44:27.81,245,-324,-2024,-94,12,71,-387,-794,407,590
,268,2023-10-20 13:44:27.82,239,-302,-2026,-78,19,78,-309,-888,579,598
,269,2023-10-20 13:44:27.83,263,-270,-2029,-51,8,64,-384,-771,387,577
,270,2023-10-20 13:44:27.84,256,-256,-2032,-40,-4,33,-319,-858,539,588
,271,2023-10-20 13:44:27.85,266,-265,-2022,-46,-4,7,-372,-763,391,567
,272,2023-10-20 13:44:27.86,263,-285,-2020,-59,3,-4,-322,-871,549,596
,273,2023-10-20 13:44:27.87,264,-292,-2000,-60,8,5,-374,-781,407,577
,274,2023-10-20 13:44:27.88,263,-316,-2014,-52,5,13,-335,-878,543,606
,275,2023-10-20 13:44:27.89,263,-320,-2027,-52,17,38,-368,-772,404,570
,276,2023-10-20 13:44:27.90,262,-306,-2023,-41,18,52,-327,-860,533,593
,277,2023-10-20 13:44:27.91,254,-296,-2026,-32,21,65,-349,-749,400,549
,278,2023-10-20 13:44:27.92,270,-284,-2033,-33,21,82,-325,-816,491,570
,279,2023-10-20 13:44:27.93,260,-281,-2038,-35,14,82,-352,-762,410,557
,280,2023-10-20 13:44:27.94,268,-267,-2024,-31,16,74,-341,-878,537,609
,281,2023-10-20 13:44:27.95,266,-270,-2015,-32,18,70,-361,-793,432,577
,282,2023-10-20 13:44:27.96,274,-274,-2012,-38,15,66,-361,-854,493,607
,283,2023-10-20 13:44:27.97,268,-272,-2008,-45,18,54,-360,-746,386,553
,284,2023-10-20 13:44:27.98,275,-280,-2006,-51,15,45,-365,-810,445,587
,285,2023-10-20 13:44:27.99,276,-284,-2006,-57,23,48,-353,-743,390,548
,286,2023-10-20 13:44:28.00,288,-295,-2021,-64,30,51,-362,-825,463,593
,287,2023-10-20 13:44:28.01,282,-288,-2006,-56,33,55,-347,-767,420,557
,288,2023-10-20 13:44:28.02,269,-280,-2039,-52,36,58,-370,-836,466,603
,289,2023-10-20 13:44:28.03,270,-265,-2033,-52,32,62,-336,-755,419,545
,290,2023-10-20 13:44:28.04,288,-255,-2030,-46,33,58,-369,-816,447,592
,291,2023-10-20 13:44:28.05,285,-244,-2036,-38,29,49,-334,-734,400,534
,292,2023-10-20 13:44:28.06,288,-240,-2034,-36,25,42,-383,-784,401,583
,293,2023-10-20 13:44:28.07,291,-247,-2028,-33,15,30,-332,-734,402,533
,294,2023-10-20 13:44:28.08,272,-253,-2034,-26,16,24,-387,-802,415,594
,295,2023-10-20 13:44:28.09,271,-257,-2036,-20,18,17,-326,-756,430,541
,296,2023-10-20 13:44:28.10,276,-259,-2043,-14,13,10,-392,-811,419,601
,297,2023-10-20 13:44:28.11,270,-261,-2032,-6,10,12,-318,-768,450,543
,298,2023-10-20 13:44:28.12,274,-252,-2032,-4,2,5,-393,-823,430,608
,299,2023-10-20 13:44:28.13,282,-243,-2020,3,4,5,-320,-767,447,543
,300,2023-10-20 13:44:28.14,284,-252,-2018,7,7,-2,-401,-797,396,599
,301,2023-10-20 13:44:28.15,285,-255,-2023,8,6,-9,-312,-762,450,537
,302,2023-10-20 13:44:28.16,278,-260,-2018,9,22,-11,-402,-814,412,608
,303,2023-10-20 13:44:28.17,286,-259,-2016,12,16,-15,-308,-786,478,547
,304,2023-10-20 13:44:28.18,290,-254,-2016,15,27,-15,-413,-820,407,616
,305,2023-10-20 13:44:28.19,293,-264,-2022,13,23,-19,-311,-786,475,548
,306,2023-10-20 13:44:28.20,294,-264,-2033,12,22,-22,-416,-812,396,614
,307,2023-10-20 13:44:28.21,283,-253,-2030,11,20,-26,-301,-783,482,542
,308,2023-10-20 13:44:28.22,297,-260,-2034,11,15,-35,-419,-806,387,612
,309,2023-10-20 13:44:28.23,285,-248,-2033,15,5,-35,-296,-761,465,528
,310,2023-10-20 13:44:28.24,292,-261,-2027,17,-5,-43,-425,-775,350,600
,311,2023-10-20 13:44:28.25,289,-260,-2027,19,-4,-41,-294,-783,489,538
,312,2023-10-20 13:44:28.26,277,-271,-2028,16,-2,-37,-424,-811,387,617
,313,2023-10-20 13:44:28.27,288,-270,-2031,13,-11,-32,-288,-817,529,552
,314,2023-10-20 13:44:28.28,275,-275,-2033,14,-3,-27,-431,-830,399,630
,315,2023-10-20 13:44:28.29,279,-269,-2036,15,-5,-15,-303,-832,529,567
,316,2023-10-20 13:44:28.30,275,-263,-2023,9,-11,-15,-446,-825,379,635
,317,2023-10-20 13:44:28.31,276,-262,-2023,3,-7,-6,-291,-817,526,554
,318,2023-10-20 13:44:28.32,285,-257,-2027,-5,-12,-2,-444,-807,363,625
,319,2023-10-20 13:44:28.33,270,-258,-2025,-9,0,0,-283,-819,536,551
,320,2023-10-20 13:44:28.34,288,-262,-2023,-9,1,5,-446,-817,371,631
,321,2023-10-20 13:44:28.35,266,-269,-2031,-11,1,13,-285,-836,551,560
,322,2023-10-20 13:44:28.36,269,-258,-2031,-12,0,20,-454,-825,371,639
,323,2023-10-20 13:44:28.37,265,-240,-2026,0,-3,21,-278,-858,580,568
,324,2023-10-20 13:44:28.38,267,-235,-2026,14,6,13,-461,-852,391,656
,325,2023-10-20 13:44:28.39,272,-211,-2027,37,7,-7,-280,-848,568,564
,326,2023-10-20 13:44:28.40,273,-201,-2022,61,-9,-38,-466,-807,341,636
,327,2023-10-20 13:44:28.41,281,-213,-2007,53,-17,-65,-281,-855,574,568
,328,2023-10-20 13:44:28.42,284,-242,-2023,25,-28,-86,-471,-840,369,655
,329,2023-10-20 13:44:28.43,286,-254,-2020,-5,-28,-103,-274,-874,600,574
,330,2023-10-20 13:44:28.44,299,-292,-2023,-28,-11,-88,-472,-838,366,655
,331,2023-10-20 13:44:28.45,280,-327,-2050,-37,4,-44,-271,-898,627,584
,332,2023-10-20 13:44:28.46,280,-296,-2054,-28,9,-3,-474,-865,391,669
,333,2023-10-20 13:44:28.47,291,-262,-2040,-15,13,22,-270,-912,642,591
,334,2023-10-20 13:44:28.48,288,-263,-2034,-13,8,38,-478,-859,381,668
,335,2023-10-20 13:44:28.49,305,-242,-2033,-6,-7,42,-271,-900,629,585
,336,2023-10-20 13:44:28.50,302,-243,-2029,15,-19,34,-480,-845,365,662
,337,2023-10-20 13:44:28.51,280,-259,-2029,30,-24,24,-260,-878,618,569
,338,2023-10-20 13:44:28.52,284,-253,-2032,34,-26,31,-474,-818,344,646
,339,2023-10-20 13:44:28.53,281,-254,-2027,45,-25,28,-258,-882,624,570
,340,2023-10-20 13:44:28.54,266,-249,-2034,47,-19,28,-484,-831,347,657
,341,2023-10-20 13:44:28.55,271,-248,-2035,39,-21,38,-268,-896,628,582
,342,2023-10-20 13:44:28.56,260,-243,-2024,31,-32,33,-489,-833,344,661
,343,2023-10-20 13:44:28.57,275,-235,-2016,20,-20,26,-261,-894,633,577
,344,2023-10-20 13:44:28.58,264,-252,-2014,14,-19,16,-486,-828,342,657
,345,2023-10-20 13:44:28.59,265,-250,-2020,13,-10,10,-259,-904,645,581
,346,2023-10-20 13:44:28.60,254,-255,-2034,16,0,6,-494,-835,341,664
,347,2023-10-20 13:44:28.61,272,-236,-2033,19,9,6,-262,-895,633,578
,348,2023-10-20 13:44:28.62,263,-239,-2030,28,4,-9,-493,-811,318,652
,349,2023-10-20 13:44:28.63,277,-234,-2022,34,-3,-24,-263,-887,624,575
,350,2023-10-20 13:44:28.64,269,-240,-2031,36,1,-34,-496,-811,315,653
,351,2023-10-20 13:44:28.65,260,-252,-2022,40,-6,-41,-261,-888,627,574
,352,2023-10-20 13:44:28.66,269,-253,-2021,43,-7,-51,-494,-807,313,650
,353,2023-10-20 13:44:28.67,258,-256,-2019,37,-4,-48,-254,-895,641,574
,354,2023-10-20 13:44:28.68,262,-263,-2026,35,4,-44,-498,-813,315,655
,355,2023-10-20 13:44:28.69,266,-265,-2025,41,1,-37,-265,-876,611,570
,356,2023-10-20 13:44:28.70,273,-278,-2023,42,6,-29,-503,-787,284,645
,357,2023-10-20 13:44:28.71,273,-273,-2028,40,15,-14,-259,-884,625,571
,358,2023-10-20 13:44:28.72,270,-281,-2035,41,16,-1,-497,-807,310,652
,359,2023-10-20 13:44:28.73,276,-283,-2038,37,15,8,-260,-899,639,579
,360,2023-10-20 13:44:28.74,268,-268,-2033,43,18,22,-501,-804,303,652
,361,2023-10-20 13:44:28.75,279,-262,-2026,44,6,25,-268,-890,622,579
,362,2023-10-20 13:44:28.76,291,-258,-2032,42,6,25,-504,-792,288,648
,363,2023-10-20 13:44:28.77,287,-270,-2028,39,5,22,-273,-904,631,588
,364,2023-10-20 13:44:28.78,291,-270,-2028,30,1,24,-500,-813,313,656
,365,2023-10-20 13:44:28.79,279,-266,-2031,22,-2,22,-266,-914,648,590
,366,2023-10-20 13:44:28.80,290,-261,-2034,15,1,22,-494,-805,311,649
,367,2023-10-20 13:44:28.81,283,-261,-2039,10,-2,20,-265,-883,618,574
,368,2023-10-20 13:44:28.82,288,-268,-2036,6,-8,17,-492,-767,275,629
,369,2023-10-20 13:44:28.83,284,-262,-2030,0,-5,14,-271,-864,593,567
,370,2023-10-20 13:44:28.84,283,-251,-2039,0,-7,16,-491,-772,281,631
,371,2023-10-20 13:44:28.85,281,-254,-2023,2,-17,16,-270,-901,631,585
,372,2023-10-20 13:44:28.86,274,-261,-2023,2,-19,14,-495,-801,306,648
,373,2023-10-20 13:44:28.87,291,-262,-2025,-1,-17,15,-281,-893,612,587
,374,2023-10-20 13:44:28.88,294,-261,-2021,4,-17,16,-496,-772,276,634
,375,2023-10-20 13:44:28.89,264,-257,-2022,16,-20,18,-282,-857,575,569
,376,2023-10-20 13:44:28.90,282,-257,-2023,21,-15,20,-488,-759,271,623
,377,2023-10-20 13:44:28.91,281,-246,-2024,28,-15,14,-277,-912,635,594
,378,2023-10-20 13:44:28.92,284,-259,-2028,34,-17,5,-483,-817,334,650
,379,2023-10-20 13:44:28.93,266,-255,-2032,38,-15,0,-276,-920,644,598
,380,2023-10-20 13:44:28.94,268,-260,-2018,42,-11,-8,-481,-797,316,639
,381,2023-10-20 13:44:28.95,259,-261,-2023,42,-12,-15,-279,-910,631,594
,382,2023-10-20 13:44:28.96,277,-260,-2025,35,-7,-18,-477,-798,321,637
,383,2023-10-20 13:44:28.97,250,-284,-2010,36,0,-13,-282,-916,634,599
,384,2023-10-20 13:44:28.98,257,-267,-2050,45,-10,-18,-473,-809,336,641
,385,2023-10-20 13:44:28.99,243,-265,-2030,43,-4,-12,-281,-942,661,611
,386,2023-10-20 13:44:29.00,251,-259,-2046,34,-6,-14,-471,-820,349,645
,387,2023-10-20 13:44:29.01,243,-262,-2040,22,-5,-20,-290,-917,627,603
,388,2023-10-20 13:44:29.02,252,-257,-2034,17,-9,-31,-466,-791,325,628
,389,2023-10-20 13:44:29.03,252,-252,-2036,9,-14,-38,-292,-912,620,602
,390,2023-10-20 13:44:29.04,244,-256,-2037,2,-6,-47,-462,-809,347,635
,391,2023-10-20 13:44:29.05,258,-258,-2026,-3,-8,-54,-295,-947,652,621
,392,2023-10-20 13:44:29.06,264,-262,-2022,0,-5,-56,-457,-836,379,646
,393,2023-10-20 13:44:29.07,246,-275,-2030,5,1,-57,-291,-950,659,620
,394,2023-10-20 13:44:29.08,252,-272,-2030,11,-4,-54,-445,-822,377,633
,395,2023-10-20 13:44:29.09,258,-266,-2040,17,-4,-47,-302,-945,643,623
,396,2023-10-20 13:44:29.10,260,-255,-2037,18,-8,-47,-444,-821,377,632
,397,2023-10-20 13:44:29.11,265,-265,-2027,17,-1,-50,-309,-932,623,620
,398,2023-10-20 13:44:29.12,258,-261,-2018,19,6,-46,-440,-814,374,627
,399,2023-10-20 13:44:29.13,269,-283,-2007,26,10,-43,-302,-941,639,621
,400,2023-10-20 13:44:29.14,270,-279,-1998,37,18,-35,-442,-832,390,637
,401,2023-10-20 13:44:29.15,265,-277,-2016,48,11,-32,-310,-942,632,626
,402,2023-10-20 13:44:29.16,263,-286,-2013,63,13,-33,-432,-823,391,627
,403,2023-10-20 13:44:29.17,273,-286,-2018,70,15,-29,-313,-936,623,624
,404,2023-10-20 13:44:29.18,260,-295,-2033,73,19,-22,-423,-825,402,624
,405,2023-10-20 13:44:29.19,270,-275,-2056,94,19,-19,-314,-939,625,626
,406,2023-10-20 13:44:29.20,265,-260,-2039,127,19,-40,-419,-831,412,625
,407,2023-10-20 13:44:29.21,271,-211,-2023,162,19,-82,-320,-938,618,629
,408,2023-10-20 13:44:29.22,275,-226,-2002,163,7,-110,-414,-832,418,623
,409,2023-10-20 13:44:29.23,285,-282,-2017,143,-5,-125,-322,-941,619,631
,410,2023-10-20 13:44:29.24,285,-298,-1997,137,-29,-155,-408,-840,432,624
,411,2023-10-20 13:44:29.25,289,-346,-1983,128,-27,-166,-331,-947,616,639
,412,2023-10-20 13:44:29.26,276,-377,-2007,119,-4,-135,-409,-833,424,621
,413,2023-10-20 13:44:29.27,288,-360,-2022,121,22,-84,-336,-921,585,628
,414,2023-10-20 13:44:29.28,286,-336,-2029,130,34,-40,-402,-816,414,609
,415,2023-10-20 13:44:29.29,296,-303,-2032,126,30,-27,-335,-913,578,624
,416,2023-10-20 13:44:29.30,286,-297,-2035,113,20,-33,-398,-829,431,613
,417,2023-10-20 13:44:29.31,308,-299,-2022,105,16,-35,-347,-939,592,643
,418,2023-10-20 13:44:29.32,317,-306,-2015,102,5,-41,-389,-841,452,615
,419,2023-10-20 13:44:29.33,320,-318,-2005,97,15,-42,-341,-928,587,634
,420,2023-10-20 13:44:29.34,292,-314,-2004,98,26,-35,-390,-819,429,604
,421,2023-10-20 13:44:29.35,297,-310,-2026,109,36,-27,-363,-894,531,628
,422,2023-10-20 13:44:29.36,306,-294,-2036,117,28,-28,-392,-823,431,607
,423,2023-10-20 13:44:29.37,299,-298,-2018,123,26,-40,-366,-926,560,646
,424,2023-10-20 13:44:29.38,296,-301,-2009,132,27,-50,-387,-842,455,614
,425,2023-10-20 13:44:29.39,295,-308,-2009,143,29,-57,-368,-909,541,638
,426,2023-10-20 13:44:29.40,286,-307,-2007,153,30,-64,-379,-821,442,600
,427,2023-10-20 13:44:29.41,287,-316,-2011,164,33,-67,-371,-900,529,635
,428,2023-10-20 13:44:29.42,278,-347,-1992,175,21,-65,-372,-843,471,607
,429,2023-10-20 13:44:29.43,294,-349,-1985,186,24,-64,-376,-929,553,652
,430,2023-10-20 13:44:29.44,291,-365,-1973,231,6,-49,-370,-859,489,614
,431,2023-10-20 13:44:29.45,280,-380,-1994,247,10,-32,-381,-922,541,651
,432,2023-10-20 13:44:29.46,269,-355,-2022,253,11,-13,-356,-851,495,603
,433,2023-10-20 13:44:29.47,278,-341,-2026,248,0,-6,-377,-916,539,646
,434,2023-10-20 13:44:29.48,265,-334,-2031,230,-3,-6,-351,-844,493,597
,435,2023-10-20 13:44:29.49,277,-339,-2025,206,0,-1,-386,-889,503,637
,436,2023-10-20 13:44:29.50,273,-333,-2017,184,2,-9,-357,-832,475,594
,437,2023-10-20 13:44:29.51,273,-301,-2065,172,4,-17,-400,-889,489,644
,438,2023-10-20 13:44:29.52,290,-326,-2028,132,8,-24,-355,-834,479,594
,439,2023-10-20 13:44:29.53,277,-364,-1993,135,11,-38,-394,-872,478,633
,440,2023-10-20 13:44:29.54,291,-372,-2028,158,2,-54,-328,-821,493,574
,441,2023-10-20 13:44:29.55,283,-372,-2042,171,-11,-61,-392,-869,477,630
,442,2023-10-20 13:44:29.56,298,-364,-2051,183,-16,-68,-332,-821,489,576
,443,2023-10-20 13:44:29.57,285,-397,-2029,198,-23,-67,-410,-853,443,631
,444,2023-10-20 13:44:29.58,289,-412,-2004,222,-10,-47,-330,-806,476,568
,445,2023-10-20 13:44:29.59,268,-406,-2002,260,12,-45,-397,-834,437,615
,446,2023-10-20 13:44:29.60,263,-366,-2004,319,20,-47,-310,-802,492,556
,447,2023-10-20 13:44:29.61,258,-316,-1973,377,2,-94,-406,-841,435,623
,448,2023-10-20 13:44:29.62,275,-311,-1983,388,-19,-136,-309,-814,505,561
,449,2023-10-20 13:44:29.63,288,-337,-1979,353,-40,-170,-416,-844,428,630
,450,2023-10-20 13:44:29.64,292,-385,-1971,310,-51,-193,-311,-822,511,566
,451,2023-10-20 13:44:29.65,288,-441,-1949,286,-47,-207,-423,-844,421,633
,452,2023-10-20 13:44:29.66,293,-537,-1936,271,-24,-184,-305,-828,523,566
,453,2023-10-20 13:44:29.67,282,-555,-1971,275,2,-122,-424,-840,416,632
,454,2023-10-20 13:44:29.68,292,-551,-1964,277,36,-60,-299,-745,446,522
,455,2023-10-20 13:44:29.69,300,-528,-1965,270,50,-14,-423,-721,298,572
,456,2023-10-20 13:44:29.70,294,-488,-1979,263,54,16,-297,-814,517,555
,457,2023-10-20 13:44:29.71,296,-468,-1967,235,50,37,-440,-907,467,673
,458,2023-10-20 13:44:29.72,290,-469,-1966,203,52,49,-303,-870,567,586
,459,2023-10-20 13:44:29.73,287,-466,-1993,167,43,53,-453,-824,371,638
,460,2023-10-20 13:44:29.74,283,-472,-1985,127,47,50,-300,-794,494,547
,461,2023-10-20 13:44:29.75,292,-487,-1982,91,41,44,-449,-796,347,622
,462,2023-10-20 13:44:29.76,287,-486,-1986,59,50,48,-282,-780,498,531
,463,2023-10-20 13:44:29.77,291,-488,-1984,53,54,39,-441,-774,333,607
,464,2023-10-20 13:44:29.78,293,-465,-1987,63,40,19,-282,-767,485,524
,465,2023-10-20 13:44:29.79,301,-459,-1988,60,36,4,-456,-762,306,609
,466,2023-10-20 13:44:29.80,303,-438,-2020,40,35,-18,-278,-779,501,528
,467,2023-10-20 13:44:29.81,329,-429,-1975,7,46,-46,-449,-781,332,615
,468,2023-10-20 13:44:29.82,315,-469,-1980,-16,65,-58,-273,-812,539,542
,469,2023-10-20 13:44:29.83,309,-482,-1978,-42,78,-60,-454,-806,352,630
,470,2023-10-20 13:44:29.84,307,-455,-1964,-49,86,-65,-270,-815,545,542
,471,2023-10-20 13:44:29.85,331,-462,-1982,-56,75,-72,-458,-791,333,624
,472,2023-10-20 13:44:29.86,324,-446,-1984,-69,76,-83,-270,-793,523,531
,473,2023-10-20 13:44:29.87,334,-452,-1987,-85,82,-85,-464,-768,304,616
,474,2023-10-20 13:44:29.88,344,-452,-1983,-104,90,-84,-267,-819,552,543
,475,2023-10-20 13:44:29.89,351,-439,-1989,-129,90,-84,-461,-809,348,635
,476,2023-10-20 13:44:29.90,347,-441,-1999,-156,94,-73,-251,-922,671,586
,477,2023-10-20 13:44:29.91,365,-428,-1990,-176,94,-63,-462,-906,444,684
,478,2023-10-20 13:44:29.92,352,-409,-2007,-189,97,-57,-256,-963,707,609
,479,2023-10-20 13:44:29.93,391,-414,-1967,-196,96,-53,-475,-898,423,686
,480,2023-10-20 13:44:29.94,391,-410,-1976,-187,121,-48,-260,-906,646,583
,481,2023-10-20 13:44:29.95,392,-396,-2009,-178,118,-46,-472,-821,349,646
,482,2023-10-20 13:44:29.96,398,-383,-2013,-178,132,-46,-251,-804,553,527
,483,2023-10-20 13:44:29.97,390,-377,-2019,-173,124,-51,-469,-738,269,603
,484,2023-10-20 13:44:29.98,387,-378,-2039,-172,112,-50,-254,-757,503,505
,485,2023-10-20 13:44:29.99,381,-370,-2015,-169,108,-53,-476,-720,244,598
,486,2023-10-20 13:44:30.00,377,-372,-2017,-165,106,-64,-249,-777,528,513
,487,2023-10-20 13:44:30.01,364,-357,-2011,-165,84,-66,-475,-743,268,609
,488,2023-10-20 13:44:30.02,371,-365,-1998,-162,76,-66,-253,-810,557,531
,489,2023-10-20 13:44:30.03,381,-360,-1982,-151,71,-65,-477,-757,280,617
,490,2023-10-20 13:44:30.04,389,-364,-1987,-139,72,-70,-255,-806,551,530
,491,2023-10-20 13:44:30.05,372,-378,-1947,-133,66,-71,-485,-744,259,614
,492,2023-10-20 13:44:30.06,389,-393,-1945,-121,68,-61,-253,-776,523,514
,493,2023-10-20 13:44:30.07,390,-404,-1938,-114,73,-49,-485,-721,236,603
,494,2023-10-20 13:44:30.08,385,-411,-1953,-105,77,-42,-255,-812,557,533
,495,2023-10-20 13:44:30.09,364,-420,-1996,-106,89,-20,-488,-765,277,626
,496,2023-10-20 13:44:30.10,369,-411,-2001,-96,87,7,-249,-848,599,548
,497,2023-10-20 13:44:30.11,354,-426,-2043,-71,83,32,-478,-777,299,627
,498,2023-10-20 13:44:30.12,351,-384,-2061,-72,57,55,-240,-855,615,547
,499,2023-10-20 13:44:30.13,355,-357,-2024,-99,44,69,-471,-774,303,622
,500,2023-10-20 13:44:30.14,351,-373,-2001,-114,41,56,-244,-854,610,549
,501,2023-10-20 13:44:30.15,349,-373,-1994,-113,43,56,-479,-770,291,624
,502,2023-10-20 13:44:30.16,366,-373,-2003,-115,47,58,-240,-836,596,538
,503,2023-10-20 13:44:30.17,365,-362,-2023,-125,54,54,-480,-751,271,615
,504,2023-10-20 13:44:30.18,372,-352,-2027,-132,56,44,-255,-839,584,547
,505,2023-10-20 13:44:30.19,368,-344,-2017,-150,57,36,-490,-756,266,623
,506,2023-10-20 13:44:30.20,389,-342,-2018,-153,53,24,-264,-836,572,550
,507,2023-10-20 13:44:30.21,396,-325,-2030,-148,47,15,-491,-745,254,618
,508,2023-10-20 13:44:30.22,403,-327,-2028,-147,40,11,-264,-811,547,537
,509,2023-10-20 13:44:30.23,388,-322,-2038,-148,33,-1,-487,-718,231,602
,510,2023-10-20 13:44:30.24,391,-315,-2040,-145,17,-8,-256,-792,536,524
,511,2023-10-20 13:44:30.25,395,-306,-2030,-140,1,-12,-479,-718,239,598
,512,2023-10-20 13:44:30.26,387,-316,-2020,-134,-7,-12,-246,-834,588,540
,513,2023-10-20 13:44:30.27,389,-322,-2021,-125,-10,-5,-476,-745,269,610
,514,2023-10-20 13:44:30.28,388,-335,-2017,-111,-36,-2,-258,-817,559,537
,515,2023-10-20 13:44:30.29,394,-324,-2025,-94,-38,7,-479,-710,231,594
,516,2023-10-20 13:44:30.30,391,-335,-2017,-78,-33,40,-259,-800,541,529
,517,2023-10-20 13:44:30.31,375,-323,-2011,-30,-40,48,-465,-709,244,587
,518,2023-10-20 13:44:30.32,376,-290,-1985,64,-41,20,-256,-810,554,533
,519,2023-10-20 13:44:30.33,377,-281,-1958,135,-55,-18,-468,-713,245,590
,520,2023-10-20 13:44:30.34,385,-304,-1955,130,-69,-12,-260,-798,538,529
,521,2023-10-20 13:44:30.35,383,-350,-1981,100,-74,3,-463,-700,237,581
,522,2023-10-20 13:44:30.36,378,-387,-1979,88,-82,-1,-260,-822,562,541
,523,2023-10-20 13:44:30.37,365,-430,-1971,82,-73,13,-463,-733,270,598
,524,2023-10-20 13:44:30.38,386,-458,-1987,77,-34,72,-258,-843,585,550
,525,2023-10-20 13:44:30.39,387,-413,-2007,88,5,126,-454,-729,275,591
,526,2023-10-20 13:44:30.40,393,-389,-2013,95,6,154,-257,-804,547,530
,527,2023-10-20 13:44:30.41,355,-373,-2024,92,11,163,-452,-697,245,574
,528,2023-10-20 13:44:30.42,364,-354,-2031,72,0,168,-259,-810,551,534
,529,2023-10-20 13:44:30.43,351,-351,-2033,37,-28,166,-450,-715,265,582
,530,2023-10-20 13:44:30.44,348,-354,-2032,10,-45,157,-265,-825,560,545
,531,2023-10-20 13:44:30.45,360,-339,-2016,-2,-51,136,-447,-714,267,580
,532,2023-10-20 13:44:30.46,345,-341,-2008,-10,-53,122,-268,-805,537,536
,533,2023-10-20 13:44:30.47,339,-336,-2008,-14,-49,113,-441,-693,252,567
,534,2023-10-20 13:44:30.48,347,-330,-2012,-11,-49,101,-268,-798,530,533
,535,2023-10-20 13:44:30.49,344,-319,-2006,-5,-53,66,-431,-698,267,564
,536,2023-10-20 13:44:30.50,343,-327,-1995,-3,-53,40,-274,-810,536,542
,537,2023-10-20 13:44:30.51,340,-347,-2006,-9,-55,32,-433,-702,269,567
,538,2023-10-20 13:44:30.52,332,-349,-2015,-8,-54,31,-273,-786,513,529
,539,2023-10-20 13:44:30.53,328,-345,-2012,-10,-61,30,-426,-681,255,553
,540,2023-10-20 13:44:30.54,335,-347,-2002,-12,-62,29,-274,-791,517,532
,541,2023-10-20 13:44:30.55,319,-346,-1994,-14,-62,18,-417,-685,268,551
,542,2023-10-20 13:44:30.56,331,-333,-1996,-17,-46,20,-275,-779,504,527
,543,2023-10-20 13:44:30.57,326,-339,-2004,-17,-35,31,-413,-674,261,543
,544,2023-10-20 13:44:30.58,312,-333,-2021,-4,-31,35,-285,-783,498,534
,545,2023-10-20 13:44:30.59,335,-329,-1998,-11,-27,40,-409,-677,268,543
,546,2023-10-20 13:44:30.60,319,-342,-1980,-2,-19,40,-290,-777,487,533
,547,2023-10-20 13:44:30.61,320,-331,-2021,20,-25,34,-401,-680,279,540
,548,2023-10-20 13:44:30.62,311,-302,-2019,28,-22,34,-284,-797,513,540
,549,2023-10-20 13:44:30.63,316,-305,-2011,33,-24,25,-396,-703,307,549
,550,2023-10-20 13:44:30.64,318,-316,-2018,35,-34,19,-291,-805,514,548
,551,2023-10-20 13:44:30.65,325,-319,-2012,34,-33,7,-394,-696,302,545
,552,2023-10-20 13:44:30.66,327,-317,-1986,31,-32,1,-295,-789,494,542
,553,2023-10-20 13:44:30.67,328,-320,-1994,22,-17,2,-388,-682,294,535
,554,2023-10-20 13:44:30.68,329,-337,-1998,27,-8,0,-297,-768,471,532
,555,2023-10-20 13:44:30.69,333,-336,-2007,41,-5,-8,-381,-674,293,527
,556,2023-10-20 13:44:30.70,339,-337,-2023,46,-7,-7,-302,-788,486,545
,557,2023-10-20 13:44:30.71,336,-326,-2043,49,-5,-1,-376,-694,318,535
,558,2023-10-20 13:44:30.72,323,-349,-2020,49,-16,-3,-300,-783,483,541
,559,2023-10-20 13:44:30.73,326,-342,-2030,49,-19,0,-368,-681,313,524
,560,2023-10-20 13:44:30.74,333,-322,-2030,48,-22,4,-312,-768,456,540
,561,2023-10-20 13:44:30.75,345,-324,-1992,53,-27,-3,-372,-688,316,530
,562,2023-10-20 13:44:30.76,340,-335,-1991,66,-31,-12,-310,-779,469,544
,563,2023-10-20 13:44:30.77,327,-337,-2003,76,-32,-18,-359,-689,330,524
,564,2023-10-20 13:44:30.78,324,-331,-2000,84,-38,-21,-328,-780,452,554
,565,2023-10-20 13:44:30.79,327,-339,-2011,84,-32,-24,-358,-690,332,524
,566,2023-10-20 13:44:30.80,330,-351,-2010,83,-30,-25,-326,-784,458,555
,567,2023-10-20 13:44:30.81,332,-335,-2015,78,-29,-22,-348,-691,343,519
,568,2023-10-20 13:44:30.82,334,-335,-2009,72,-32,-26,-325,-770,445,547
,569,2023-10-20 13:44:30.83,342,-347,-2008,68,-39,-25,-340,-694,354,517
,570,2023-10-20 13:44:30.84,335,-347,-2004,64,-34,-25,-336,-790,454,563
,571,2023-10-20 13:44:30.85,334,-353,-1999,62,-31,-23,-342,-711,369,526
,572,2023-10-20 13:44:30.86,338,-350,-1999,63,-28,-28,-347,-789,442,568
,573,2023-10-20 13:44:30.87,337,-350,-1996,60,-31,-23,-330,-715,385,522
,574,2023-10-20 13:44:30.88,335,-344,-1998,55,-24,-20,-339,-799,460,569
,575,2023-10-20 13:44:30.89,333,-357,-1997,50,-28,-16,-319,-716,397,517
,576,2023-10-20 13:44:30.90,336,-372,-1998,48,-30,-13,-347,-780,433,563
,577,2023-10-20 13:44:30.91,329,-365,-2007,46,-21,-6,-322,-720,398,521
,578,2023-10-20 13:44:30.92,314,-363,-2009,44,-20,5,-356,-801,445,578
,579,2023-10-20 13:44:30.93,302,-364,-2023,56,-8,15,-318,-717,399,517
,580,2023-10-20 13:44:30.94,314,-306,-2032,90,-5,-18,-360,-765,405,562
,581,2023-10-20 13:44:30.95,310,-284,-1986,124,1,-72,-306,-706,400,506
,582,2023-10-20 13:44:30.96,330,-313,-1975,120,8,-114,-354,-775,421,564
,583,2023-10-20 13:44:30.97,326,-373,-1966,89,11,-108,-300,-700,400,500
,584,2023-10-20 13:44:30.98,326,-396,-1958,66,-10,-96,-364,-739,375,551
,585,2023-10-20 13:44:30.99,329,-425,-1976,60,-34,-94,-300,-673,373,486
,586,2023-10-20 13:44:31.00,340,-456,-1996,43,-30,-61,-371,-729,358,550
,587,2023-10-20 13:44:31.01,342,-470,-2010,39,0,-7,-296,-684,388,490
,588,2023-10-20 13:44:31.02,335,-433,-2026,26,34,47,-380,-742,362,561
,589,2023-10-20 13:44:31.03,355,-353,-2043,5,60,73,-290,-691,401,490
,590,2023-10-20 13:44:31.04,353,-334,-2014,-7,59,59,-382,-735,353,558
,591,2023-10-20 13:44:31.05,346,-353,-2004,-15,47,37,-282,-691,409,486
,592,2023-10-20 13:44:31.06,352,-346,-2014,-18,22,14,-382,-727,345,554
,593,2023-10-20 13:44:31.07,344,-328,-2020,-22,2,-8,-281,-699,418,490
,594,2023-10-20 13:44:31.08,364,-351,-2001,-20,0,-19,-391,-742,351,566
,595,2023-10-20 13:44:31.09,359,-355,-1998,-11,-6,-37,-273,-735,462,504
,596,2023-10-20 13:44:31.10,348,-368,-1992,-8,-13,-40,-390,-775,385,582
,597,2023-10-20 13:44:31.11,354,-383,-2000,-11,-14,-28,-274,-739,465,506
,598,2023-10-20 13:44:31.12,352,-378,-2024,-10,-13,-13,-400,-755,355,577
,599,2023-10-20 13:44:31.13,368,-370,-2008,-11,-21,-9,-264,-729,465,496
,600,2023-10-20 13:44:31.14,375,-380,-1989,-9,-34,-11,-409,-762,353,585
,601,2023-10-20 13:44:31.15,347,-375,-1974,0,-30,-10,-269,-714,445,491
,602,2023-10-20 13:44:31.16,343,-365,-2004,5,-18,9,-420,-728,308,574
,603,2023-10-20 13:44:31.17,329,-356,-2016,19,-18,22,-261,-707,446,484
,604,2023-10-20 13:44:31.18,320,-353,-2027,39,-30,29,-413,-729,316,571
,605,2023-10-20 13:44:31.19,320,-350,-2017,44,-40,19,-269,-736,467,502
,606,2023-10-20 13:44:31.20,306,-345,-2022,50,-54,16,-426,-749,323,587
,607,2023-10-20 13:44:31.21,306,-351,-1997,51,-52,4,-259,-772,513,515
,608,2023-10-20 13:44:31.22,321,-388,-1993,44,-39,5,-419,-785,366,602
,609,2023-10-20 13:44:31.23,304,-404,-2020,34,-24,18,-255,-756,501,505
,610,2023-10-20 13:44:31.24,303,-427,-2011,26,-15,35,-430,-736,306,583
,611,2023-10-20 13:44:31.25,306,-421,-2009,18,9,63,-258,-732,474,495
,612,2023-10-20 13:44:31.26,322,-399,-2012,14,10,91,-435,-736,301,585
,613,2023-10-20 13:44:31.27,320,-377,-2006,21,13,105,-250,-749,499,499
,614,2023-10-20 13:44:31.28,309,-376,-2011,21,6,109,-436,-745,309,590
,615,2023-10-20 13:44:31.29,315,-370,-2000,25,2,105,-242,-750,508,496
,616,2023-10-20 13:44:31.30,312,-357,-1998,29,10,96,-434,-736,302,585
,617,2023-10-20 13:44:31.31,316,-370,-2008,30,4,84,-238,-778,540,508
,618,2023-10-20 13:44:31.32,315,-357,-2010,35,1,78,-442,-772,330,607
,619,2023-10-20 13:44:31.33,315,-359,-2007,34,4,68,-244,-775,531,509
,620,2023-10-20 13:44:31.34,310,-360,-1998,29,-1,57,-452,-735,283,593
,621,2023-10-20 13:44:31.35,312,-360,-1996,26,3,53,-251,-733,482,492
,622,2023-10-20 13:44:31.36,319,-352,-1992,23,5,38,-457,-704,247,580
,623,2023-10-20 13:44:31.37,327,-358,-1999,16,1,25,-245,-743,498,494
,624,2023-10-20 13:44:31.38,314,-363,-2008,11,3,22,-453,-723,270,588
,625,2023-10-20 13:44:31.39,312,-372,-2019,9,8,18,-235,-759,524,497
,626,2023-10-20 13:44:31.40,330,-368,-2014,6,0,18,-452,-720,268,586
,627,2023-10-20 13:44:31.41,324,-364,-2004,5,1,17,-236,-757,521,496
,628,2023-10-20 13:44:31.42,340,-366,-2009,5,-8,16,-454,-720,266,587
,629,2023-10-20 13:44:31.43,336,-362,-2007,3,-7,16,-234,-787,553,510
,630,2023-10-20 13:44:31.44,332,-381,-2001,7,-4,16,-460,-755,295,607
,631,2023-10-20 13:44:31.45,342,-387,-1990,10,-6,22,-229,-813,584,521
,632,2023-10-20 13:44:31.46,327,-389,-2001,12,-7,32,-458,-758,300,608
,633,2023-10-20 13:44:31.47,319,-378,-2007,33,1,43,-234,-796,562,515
,634,2023-10-20 13:44:31.48,309,-327,-2007,70,5,15,-463,-735,272,599
,635,2023-10-20 13:44:31.49,327,-326,-1977,82,-15,-27,-235,-786,551,510
,636,2023-10-20 13:44:31.50,322,-353,-1986,60,-34,-39,-461,-733,272,597
,637,2023-10-20 13:44:31.51,329,-402,-2017,28,-54,-42,-232,-812,580,522
,638,2023-10-20 13:44:31.52,321,-450,-2010,-11,-57,-25,-464,-749,285,606
,639,2023-10-20 13:44:31.53,327,-458,-2021,-44,-31,21,-233,-767,534,500
,640,2023-10-20 13:44:31.54,323,-426,-2009,-45,-9,66,-457,-684,227,570
,641,2023-10-20 13:44:31.55,333,-396,-2007,-27,17,105,-229,-755,526,492
,642,2023-10-20 13:44:31.56,325,-375,-2008,-26,19,122,-462,-703,241,582
,643,2023-10-20 13:44:31.57,336,-363,-2009,-24,21,122,-229,-796,567,512
,644,2023-10-20 13:44:31.58,309,-354,-2008,-20,6,111,-460,-724,264,592
,645,2023-10-20 13:44:31.59,328,-363,-2007,-29,-10,109,-229,-758,529,493
,646,2023-10-20 13:44:31.60,316,-350,-1992,-17,-8,106,-466,-674,208,570
,647,2023-10-20 13:44:31.61,324,-349,-2016,-7,-15,89,-229,-771,542,500
,648,2023-10-20 13:44:31.62,325,-367,-2012,-6,-19,87,-461,-709,248,585
,649,2023-10-20 13:44:31.63,317,-357,-2006,2,-17,80,-240,-782,542,511
,650,2023-10-20 13:44:31.64,316,-363,-2017,6,-7,71,-466,-695,229,580
,651,2023-10-20 13:44:31.65,313,-346,-2008,7,4,64,-231,-803,572,517
,652,2023-10-20 13:44:31.66,307,-334,-2008,15,10,54,-458,-729,271,593
,653,2023-10-20 13:44:31.67,299,-327,-2007,22,17,38,-231,-821,590,526
,654,2023-10-20 13:44:31.68,295,-320,-2001,24,3,11,-456,-718,262,587
,655,2023-10-20 13:44:31.69,292,-331,-1994,24,0,-20,-232,-753,521,492
,656,2023-10-20 13:44:31.70,296,-344,-1999,16,-6,-38,-459,-659,200,559
,657,2023-10-20 13:44:31.71,295,-372,-2003,0,-10,-39,-236,-776,540,506
,658,2023-10-20 13:44:31.72,307,-376,-2012,-13,2,-34,-456,-705,249,580
,659,2023-10-20 13:44:31.73,293,-380,-2008,-21,5,-29,-238,-786,548,512
,660,2023-10-20 13:44:31.74,308,-378,-2007,-28,9,-8,-460,-686,226,573
,661,2023-10-20 13:44:31.75,323,-378,-2000,-35,8,7,-237,-759,522,498
,662,2023-10-20 13:44:31.76,320,-364,-2014,-37,10,15,-452,-662,210,557
,663,2023-10-20 13:44:31.77,313,-368,-2016,-36,15,27,-238,-734,496,486
,664,2023-10-20 13:44:31.78,315,-358,-2010,-26,7,35,-454,-653,199,553
,665,2023-10-20 13:44:31.79,333,-357,-2007,-13,6,38,-242,-758,516,500
,666,2023-10-20 13:44:31.80,322,-361,-2011,-12,1,41,-446,-668,222,557
,667,2023-10-20 13:44:31.81,322,-364,-2023,-3,2,50,-244,-746,502,495
,668,2023-10-20 13:44:31.82,314,-361,-2025,8,-5,52,-447,-665,218,556
,669,2023-10-20 13:44:31.83,308,-354,-2019,14,-23,51,-244,-798,554,521
,670,2023-10-20 13:44:31.84,311,-352,-2025,16,-27,51,-436,-700,264,568
,671,2023-10-20 13:44:31.85,315,-349,-2018,16,-29,49,-240,-779,539,509
,672,2023-10-20 13:44:31.86,302,-358,-2016,15,-29,46,-428,-660,232,544
,673,2023-10-20 13:44:31.87,302,-351,-2013,9,-34,37,-242,-734,492,488
,674,2023-10-20 13:44:31.88,299,-365,-2013,2,-33,33,-430,-651,221,540
,675,2023-10-20 13:44:31.89,302,-366,-2000,-3,-30,33,-254,-802,548,528
,676,2023-10-20 13:44:31.90,311,-360,-1998,2,-28,21,-421,-711,290,566
,677,2023-10-20 13:44:31.91,300,-364,-2007,4,-21,15,-245,-811,566,528
,678,2023-10-20 13:44:31.92,292,-358,-2018,2,-12,14,-414,-692,278,553
,679,2023-10-20 13:44:31.93,290,-356,-2008,8,-17,7,-254,-790,536,522
,680,2023-10-20 13:44:31.94,296,-356,-2006,11,-19,6,-411,-687,276,549
,681,2023-10-20 13:44:31.95,290,-357,-2008,1,-26,3,-248,-790,542,519
,682,2023-10-20 13:44:31.96,314,-355,-2008,-6,-27,2,-408,-681,273,544
,683,2023-10-20 13:44:31.97,303,-357,-2024,-8,-28,6,-267,-761,494,514
,684,2023-10-20 13:44:31.98,300,-353,-2023,-8,-31,5,-411,-668,257,539
,685,2023-10-20 13:44:31.99,299,-343,-2013,-8,-34,4,-262,-786,524,524
,686,2023-10-20 13:44:32.00,302,-340,-2019,-7,-44,1,-397,-695,298,546
,687,2023-10-20 13:44:32.01,300,-338,-2010,-2,-48,2,-264,-797,533,530
,688,2023-10-20 13:44:32.02,313,-346,-2010,8,-50,1,-394,-702,308,548
,689,2023-10-20 13:44:32.03,300,-344,-2007,17,-49,5,-265,-828,563,546
,690,2023-10-20 13:44:32.04,300,-353,-2009,25,-44,10,-388,-720,332,554
,691,2023-10-20 13:44:32.05,300,-359,-2000,27,-34,21,-274,-817,543,545
,692,2023-10-20 13:44:32.06,298,-384,-1987,38,-30,31,-387,-695,308,541
,693,2023-10-20 13:44:32.07,285,-375,-2018,55,-37,41,-283,-773,490,528
,694,2023-10-20 13:44:32.08,285,-350,-2014,52,-40,51,-382,-659,277,520
,695,2023-10-20 13:44:32.09,279,-349,-2006,53,-34,48,-286,-759,473,522
,696,2023-10-20 13:44:32.10,280,-357,-1996,50,-32,43,-371,-661,290,516
,697,2023-10-20 13:44:32.11,279,-370,-2002,47,-34,43,-286,-753,467,519
,698,2023-10-20 13:44:32.12,274,-361,-2006,47,-34,43,-369,-647,278,508
,699,2023-10-20 13:44:32.13,288,-367,-1997,44,-33,40,-293,-724,431,508
,700,2023-10-20 13:44:32.14,286,-379,-1985,40,-22,38,-359,-639,280,499
,701,2023-10-20 13:44:32.15,271,-385,-2001,33,-16,45,-286,-749,463,517
,702,2023-10-20 13:44:32.16,269,-388,-2010,33,-11,51,-352,-676,324,514
,703,2023-10-20 13:44:32.17,278,-385,-2008,37,-5,51,-297,-782,485,539
,704,2023-10-20 13:44:32.18,259,-382,-2025,39,5,57,-354,-671,317,512
,705,2023-10-20 13:44:32.19,267,-318,-2000,69,16,29,-308,-735,427,521
,706,2023-10-20 13:44:32.20,275,-324,-1974,82,9,-1,-354,-640,286,497
,707,2023-10-20 13:44:32.21,272,-379,-1999,41,-11,-2,-316,-735,419,525
,708,2023-10-20 13:44:32.22,279,-400,-2016,20,-23,-11,-343,-658,315,500
,709,2023-10-20 13:44:32.23,295,-397,-1997,20,-34,-39,-312,-757,445,534
,710,2023-10-20 13:44:32.24,298,-417,-2011,3,-15,-34,-338,-686,348,512
,711,2023-10-20 13:44:32.25,283,-392,-2013,4,23,-10,-323,-786,463,554
,712,2023-10-20 13:44:32.26,292,-382,-2017,10,51,15,-332,-669,337,500
,713,2023-10-20 13:44:32.27,278,-399,-2026,-3,39,36,-326,-712,386,519
,714,2023-10-20 13:44:32.28,286,-387,-2016,-12,21,38,-330,-643,313,486
,715,2023-10-20 13:44:32.29,300,-365,-1999,-12,10,38,-333,-750,417,541
,716,2023-10-20 13:44:32.30,305,-356,-1993,-14,4,33,-321,-723,402,522
,717,2023-10-20 13:44:32.31,291,-348,-2004,-12,26,37,-330,-820,490,575
,718,2023-10-20 13:44:32.32,306,-358,-2004,-7,26,28,-313,-734,421,523
,719,2023-10-20 13:44:32.33,291,-355,-2009,4,13,14,-343,-781,438,562
,720,2023-10-20 13:44:32.34,295,-356,-2007,6,12,5,-317,-689,372,503
,721,2023-10-20 13:44:32.35,289,-364,-2010,4,12,2,-348,-749,401,548
,722,2023-10-20 13:44:32.36,303,-364,-2022,3,18,4,-300,-687,387,493
,723,2023-10-20 13:44:32.37,293,-365,-2007,-1,18,11,-348,-764,416,556
,724,2023-10-20 13:44:32.38,292,-365,-2017,-3,18,23,-304,-732,428,518
,725,2023-10-20 13:44:32.39,285,-366,-2013,-6,14,23,-358,-805,447,581
,726,2023-10-20 13:44:32.40,290,-364,-2016,-7,17,26,-299,-713,414,506
,727,2023-10-20 13:44:32.41,291,-361,-2013,-11,16,35,-361,-737,376,549
,728,2023-10-20 13:44:32.42,295,-355,-2018,-9,23,42,-290,-715,425,502
,729,2023-10-20 13:44:32.43,290,-335,-2013,3,18,37,-366,-795,429,580
,730,2023-10-20 13:44:32.44,298,-333,-2012,11,18,24,-292,-739,447,515
,731,2023-10-20 13:44:32.45,301,-352,-2018,11,9,19,-371,-764,393,567
,732,2023-10-20 13:44:32.46,281,-358,-2011,19,11,19,-292,-701,409,496
,733,2023-10-20 13:44:32.47,290,-370,-2011,26,9,20,-384,-733,349,558
,734,2023-10-20 13:44:32.48,297,-347,-2001,35,9,19,-286,-690,404,488
,735,2023-10-20 13:44:32.49,304,-358,-1986,38,1,16,-381,-732,351,556
,736,2023-10-20 13:44:32.50,300,-369,-2005,29,4,16,-277,-688,411,482
,737,2023-10-20 13:44:32.51,292,-365,-2014,31,18,22,-385,-723,338,554
,738,2023-10-20 13:44:32.52,286,-361,-2028,33,19,23,-270,-702,432,486
,739,2023-10-20 13:44:32.53,293,-367,-2016,31,23,30,-392,-745,353,568
,740,2023-10-20 13:44:32.54,291,-358,-2019,30,21,28,-268,-704,436,486
,741,2023-10-20 13:44:32.55,291,-364,-2015,28,23,31,-396,-719,323,557
,742,2023-10-20 13:44:32.56,288,-364,-2018,27,16,32,-264,-713,449,488
,743,2023-10-20 13:44:32.57,298,-365,-2004,28,14,33,-400,-750,350,575
,744,2023-10-20 13:44:32.58,301,-354,-2008,34,11,29,-258,-727,469,492
,745,2023-10-20 13:44:32.59,298,-354,-2003,32,6,29,-403,-734,331,568
,746,2023-10-20 13:44:32.60,308,-362,-2007,37,13,29,-254,-758,504,506
,747,2023-10-20 13:44:32.61,303,-356,-2019,42,13,28,-408,-786,378,597
,748,2023-10-20 13:44:32.62,293,-360,-2010,46,4,24,-254,-747,493,500
,749,2023-10-20 13:44:32.63,296,-364,-2019,44,4,27,-421,-732,311,576
,750,2023-10-20 13:44:32.64,290,-366,-2013,45,2,30,-261,-700,439,480
,751,2023-10-20 13:44:32.65,301,-377,-2009,42,-1,32,-426,-706,280,566
,752,2023-10-20 13:44:32.66,297,-376,-2000,43,6,36,-255,-736,481,495
,753,2023-10-20 13:44:32.67,290,-383,-2018,44,11,46,-426,-755,329,590
,754,2023-10-20 13:44:32.68,282,-367,-2024,49,13,59,-248,-773,525,510
,755,2023-10-20 13:44:32.69,272,-346,-2022,74,14,48,-429,-767,338,598
,756,2023-10-20 13:44:32.70,280,-308,-2000,107,7,8,-242,-738,496,490
,757,2023-10-20 13:44:32.71,294,-314,-1994,105,-7,-35,-429,-712,283,570
,758,2023-10-20 13:44:32.72,280,-371,-1995,74,-15,-48,-244,-702,458,473
,759,2023-10-20 13:44:32.73,283,-410,-1993,50,-22,-45,-443,-691,248,567
,760,2023-10-20 13:44:32.74,281,-438,-2025,25,-17,-24,-245,-727,482,486
,761,2023-10-20 13:44:32.75,288,-472,-2013,0,0,21,-437,-727,290,582
,762,2023-10-20 13:44:32.76,307,-447,-2009,-8,19,68,-235,-716,481,475
,763,2023-10-20 13:44:32.77,303,-413,-2009,-12,37,99,-431,-675,244,553
,764,2023-10-20 13:44:32.78,292,-393,-2016,-12,49,120,-237,-711,474,474
,765,2023-10-20 13:44:32.79,297,-366,-2011,-1,39,126,-445,-704,259,574
,766,2023-10-20 13:44:32.80,291,-357,-2025,10,20,118,-248,-740,492,494
,767,2023-10-20 13:44:32.81,296,-361,-2020,8,-11,105,-454,-707,253,580
,768,2023-10-20 13:44:32.82,286,-351,-2021,0,-21,89,-243,-723,480,483
,769,2023-10-20 13:44:32.83,293,-357,-2027,3,-17,68,-457,-696,239,576
,770,2023-10-20 13:44:32.84,287,-354,-2013,5,-19,51,-234,-766,532,500
,771,2023-10-20 13:44:32.85,274,-360,-2007,8,-10,32,-449,-747,298,598
,772,2023-10-20 13:44:32.86,269,-371,-2014,3,-3,21,-229,-799,570,514
,773,2023-10-20 13:44:32.87,267,-375,-2009,-7,-5,13,-451,-753,302,602
,774,2023-10-20 13:44:32.88,281,-359,-2017,-32,-1,18,-228,-816,588,522
,775,2023-10-20 13:44:32.89,272,-392,-1962,-29,9,24,-456,-762,306,609
,776,2023-10-20 13:44:32.90,281,-392,-2014,-38,12,32,-233,-774,541,503
,777,2023-10-20 13:44:32.91,283,-379,-1982,-44,28,40,-463,-706,243,584
,778,2023-10-20 13:44:32.92,279,-370,-1990,-37,27,47,-232,-747,515,489
,779,2023-10-20 13:44:32.93,299,-365,-2005,-29,31,50,-465,-701,236,583
,780,2023-10-20 13:44:32.94,279,-361,-2013,-25,32,48,-231,-762,531,496
,781,2023-10-20 13:44:32.95,288,-354,-2019,-22,32,44,-463,-707,244,585
,782,2023-10-20 13:44:32.96,274,-358,-2007,-25,26,40,-231,-756,525,493
,783,2023-10-20 13:44:32.97,297,-359,-2020,-22,22,37,-464,-690,226,577
,784,2023-10-20 13:44:32.98,279,-358,-2019,-19,17,31,-229,-735,506,482
,785,2023-10-20 13:44:32.99,288,-375,-2014,-26,21,30,-460,-675,215,567
,786,2023-10-20 13:44:33.00,279,-382,-2009,-25,26,35,-229,-785,556,507
,787,2023-10-20 13:44:33.01,298,-378,-2011,-19,33,36,-464,-728,264,596
,788,2023-10-20 13:44:33.02,296,-369,-2007,-17,43,47,-230,-773,543,501
,789,2023-10-20 13:44:33.03,292,-358,-2002,-13,40,45,-462,-686,224,574
,790,2023-10-20 13:44:33.04,307,-358,-2000,-11,44,38,-236,-766,530,501
,791,2023-10-20 13:44:33.05,316,-358,-2001,-9,39,33,-467,-703,236,585
,792,2023-10-20 13:44:33.06,302,-365,-2011,-3,40,29,-232,-784,552,508
,793,2023-10-20 13:44:33.07,302,-364,-2013,6,34,31,-460,-706,246,583
,794,2023-10-20 13:44:33.08,300,-363,-2008,9,32,32,-228,-762,534,495
,795,2023-10-20 13:44:33.09,309,-366,-2004,9,32,33,-462,-679,217,570
,796,2023-10-20 13:44:33.10,311,-375,-2008,7,26,32,-240,-761,521,500
,797,2023-10-20 13:44:33.11,301,-377,-2012,4,23,33,-468,-688,220,578
,798,2023-10-20 13:44:33.12,299,-374,-2019,3,33,45,-240,-782,542,511
,799,2023-10-20 13:44:33.13,300,-373,-2022,4,31,56,-463,-700,237,581
,800,2023-10-20 13:44:33.14,307,-361,-2021,6,24,55,-236,-775,539,505
,801,2023-10-20 13:44:33.15,317,-345,-2015,12,29,52,-461,-681,220,571
,802,2023-10-20 13:44:33.16,314,-336,-2004,14,26,49,-238,-750,512,494
,803,2023-10-20 13:44:33.17,299,-330,-2016,25,28,34,-454,-659,205,556
,804,2023-10-20 13:44:33.18,309,-329,-2009,33,22,17,-233,-743,510,488
,805,2023-10-20 13:44:33.19,312,-347,-2015,34,16,4,-460,-670,210,565
,806,2023-10-20 13:44:33.20,305,-358,-2010,34,11,-9,-245,-790,545,517
,807,2023-10-20 13:44:33.21,315,-359,-2010,32,9,-12,-458,-704,246,581
,808,2023-10-20 13:44:33.22,297,-363,-2012,31,3,-12,-241,-779,538,510
,809,2023-10-20 13:44:33.23,302,-362,-2025,29,10,-12,-449,-674,225,561
,810,2023-10-20 13:44:33.24,308,-360,-2012,30,8,-12,-249,-769,520,509
,811,2023-10-20 13:44:33.25,307,-368,-2013,23,0,-18,-447,-671,224,559
,812,2023-10-20 13:44:33.26,303,-371,-2009,22,8,-9,-243,-761,518,502
,813,2023-10-20 13:44:33.27,311,-371,-1998,25,4,-5,-441,-662,221,551
,814,2023-10-20 13:44:33.28,309,-377,-2006,27,8,-4,-253,-761,508,507
,815,2023-10-20 13:44:33.29,310,-366,-2005,31,11,2,-443,-661,218,552
,816,2023-10-20 13:44:33.30,301,-361,-2002,35,8,1,-249,-754,505,501
,817,2023-10-20 13:44:33.31,310,-364,-2001,32,11,-3,-432,-660,228,546
,818,2023-10-20 13:44:33.32,307,-369,-2003,38,11,-4,-248,-786,538,517
,819,2023-10-20 13:44:33.33,307,-369,-2004,37,13,-1,-426,-682,256,554
,820,2023-10-20 13:44:33.34,319,-376,-2002,35,11,2,-248,-766,518,507
,821,2023-10-20 13:44:33.35,308,-370,-2004,30,17,6,-418,-647,229,532
,822,2023-10-20 13:44:33.36,309,-386,-2004,27,10,9,-253,-722,469,487
,823,2023-10-20 13:44:33.37,305,-385,-2014,28,8,16,-420,-632,212,526
,824,2023-10-20 13:44:33.38,309,-384,-2003,33,1,21,-267,-766,499,516
,825,2023-10-20 13:44:33.39,302,-369,-1998,32,14,23,-420,-679,259,549
,826,2023-10-20 13:44:33.40,315,-376,-1997,25,14,22,-267,-786,519,526
,827,2023-10-20 13:44:33.41,299,-380,-1995,25,17,20,-408,-664,256,536
,828,2023-10-20 13:44:33.42,307,-381,-2012,18,15,20,-268,-736,468,502
,829,2023-10-20 13:44:33.43,294,-380,-2009,15,8,24,-404,-633,229,518
,830,2023-10-20 13:44:33.44,302,-383,-2004,9,12,23,-271,-756,485,513
,831,2023-10-20 13:44:33.45,304,-385,-2020,1,13,31,-395,-660,265,527
,832,2023-10-20 13:44:33.46,294,-366,-2018,-6,23,30,-274,-756,482,515
,833,2023-10-20 13:44:33.47,296,-341,-2016,7,29,19,-398,-647,249,522
,834,2023-10-20 13:44:33.48,289,-306,-1999,35,26,-22,-290,-747,457,518
,835,2023-10-20 13:44:33.49,290,-326,-1992,47,27,-99,-394,-644,250,519
,836,2023-10-20 13:44:33.50,313,-354,-1985,22,21,-108,-283,-730,447,506
,837,2023-10-20 13:44:33.51,323,-389,-2003,-3,18,-104,-379,-629,250,504
,838,2023-10-20 13:44:33.52,318,-416,-2009,-33,13,-86,-287,-726,439,506
,839,2023-10-20 13:44:33.53,329,-426,-2019,-56,23,-45,-382,-646,264,514
,840,2023-10-20 13:44:33.54,333,-398,-2027,-55,49,6,-297,-768,471,532
,841,2023-10-20 13:44:33.55,329,-367,-2028,-34,55,42,-376,-675,299,525
,842,2023-10-20 13:44:33.56,334,-351,-2026,-21,46,50,-286,-757,471,521
,843,2023-10-20 13:44:33.57,340,-320,-2025,-13,25,44,-359,-657,298,508
,844,2023-10-20 13:44:33.58,326,-299,-2019,-4,0,27,-287,-749,462,518
,845,2023-10-20 13:44:33.59,333,-302,-2015,7,-23,0,-346,-639,293,492
,846,2023-10-20 13:44:33.60,329,-319,-2017,11,-39,-12,-295,-725,430,510
,847,2023-10-20 13:44:33.61,322,-334,-2005,21,-52,-28,-357,-649,292,503
,848,2023-10-20 13:44:33.62,332,-358,-2003,32,-58,-35,-308,-767,459,537
,849,2023-10-20 13:44:33.63,322,-369,-2011,36,-58,-30,-350,-675,325,512
,850,2023-10-20 13:44:33.64,312,-379,-2008,37,-56,-22,-304,-759,455,531
,851,2023-10-20 13:44:33.65,291,-362,-2015,36,-43,-10,-338,-671,333,504
,852,2023-10-20 13:44:33.66,306,-349,-2011,38,-35,-5,-311,-772,461,541
,853,2023-10-20 13:44:33.67,295,-342,-2007,35,-27,-9,-335,-672,337,503
,854,2023-10-20 13:44:33.68,304,-356,-1991,28,-29,-17,-320,-734,414,527
,855,2023-10-20 13:44:33.69,310,-380,-1994,20,-18,-9,-336,-651,315,493
,856,2023-10-20 13:44:33.70,313,-376,-1988,19,-9,-7,-330,-740,410,535
,857,2023-10-20 13:44:33.71,299,-384,-2004,16,3,6,-331,-674,343,502
,858,2023-10-20 13:44:33.72,295,-374,-2012,17,8,14,-327,-765,438,546
,859,2023-10-20 13:44:33.73,314,-353,-2016,25,11,14,-317,-679,362,498
,860,2023-10-20 13:44:33.74,310,-347,-2019,32,5,0,-328,-737,409,532
,861,2023-10-20 13:44:33.75,310,-349,-2006,32,-3,-12,-317,-645,328,481
,862,2023-10-20 13:44:33.76,317,-360,-1999,30,-2,-14,-339,-703,364,521
,863,2023-10-20 13:44:33.77,313,-387,-2000,26,0,-8,-312,-649,337,480
,864,2023-10-20 13:44:33.78,322,-393,-2005,22,3,1,-343,-741,398,542
,865,2023-10-20 13:44:33.79,326,-390,-1999,13,6,13,-308,-683,375,495
,866,2023-10-20 13:44:33.80,314,-396,-2009,6,13,30,-350,-750,400,550
,867,2023-10-20 13:44:33.81,327,-383,-2006,7,21,47,-305,-687,382,496
,868,2023-10-20 13:44:33.82,324,-372,-2001,7,20,58,-354,-746,392,550
,869,2023-10-20 13:44:33.83,319,-353,-2015,-9,12,62,-296,-690,394,493
,870,2023-10-20 13:44:33.84,321,-339,-2007,-11,5,55,-355,-746,391,550
,871,2023-10-20 13:44:33.85,309,-342,-2016,-14,-8,43,-292,-690,398,491
,872,2023-10-20 13:44:33.86,315,-342,-2018,-13,-12,32,-360,-742,382,551
,873,2023-10-20 13:44:33.87,309,-349,-2008,-14,-20,21,-283,-671,388,477
,874,2023-10-20 13:44:33.88,311,-341,-2011,-11,-25,6,-366,-703,337,534
,875,2023-10-20 13:44:33.89,301,-353,-2010,-11,-26,-13,-280,-654,374,467
,876,2023-10-20 13:44:33.90,299,-361,-1992,-15,-25,-16,-368,-706,338,537
,877,2023-10-20 13:44:33.91,303,-381,-2000,-21,-17,-11,-282,-687,405,484
,878,2023-10-20 13:44:33.92,305,-371,-2005,-26,-4,3,-384,-744,360,564
,879,2023-10-20 13:44:33.93,298,-364,-1999,-24,7,10,-277,-704,427,490
,880,2023-10-20 13:44:33.94,311,-349,-1992,-19,10,11,-383,-736,353,559
,881,2023-10-20 13:44:33.95,301,-359,-2006,-18,18,19,-273,-681,408,477
,882,2023-10-20 13:44:33.96,294,-346,-2023,-18,22,30,-390,-703,313,546
,883,2023-10-20 13:44:33.97,325,-329,-1993,1,19,17,-270,-677,407,473
,884,2023-10-20 13:44:33.98,328,-348,-1989,13,13,5,-398,-717,319,557
,885,2023-10-20 13:44:33.99,326,-370,-2003,9,30,4,-268,-693,425,480
,886,2023-10-20 13:44:34.00,329,-369,-2008,13,43,8,-392,-716,324,554
,887,2023-10-20 13:44:34.01,324,-372,-2010,17,45,27,-260,-698,438,479
,888,2023-10-20 13:44:34.02,334,-366,-2026,5,44,55,-403,-719,316,561
,889,2023-10-20 13:44:34.03,331,-360,-2001,11,35,54,-260,-693,433,476
,890,2023-10-20 13:44:34.04,328,-368,-2002,8,30,50,-412,-702,290,557
,891,2023-10-20 13:44:34.05,333,-356,-2014,11,27,59,-259,-714,455,486
,892,2023-10-20 13:44:34.06,335,-369,-2014,14,23,71,-415,-742,327,578
,893,2023-10-20 13:44:34.07,339,-371,-2014,18,20,67,-253,-710,457,481
,894,2023-10-20 13:44:34.08,337,-363,-2015,21,16,56,-419,-705,286,562
,895,2023-10-20 13:44:34.09,335,-358,-2017,18,17,53,-251,-702,451,476
,896,2023-10-20 13:44:34.10,334,-360,-2021,7,20,63,-427,-720,293,573
,897,2023-10-20 13:44:34.11,335,-355,-2020,-9,14,68,-250,-696,446,473
,898,2023-10-20 13:44:34.12,326,-358,-2019,-26,1,70,-423,-689,266,556
,899,2023-10-20 13:44:34.13,331,-350,-2010,-31,-18,72,-240,-697,457,468
,900,2023-10-20 13:44:34.14,318,-342,-2016,-31,-26,67,-427,-710,283,568
,901,2023-10-20 13:44:34.15,316,-346,-2021,-38,-28,73,-240,-690,450,465
,902,2023-10-20 13:44:34.16,317,-346,-2004,-40,-36,75,-434,-674,240,554
,903,2023-10-20 13:44:34.17,309,-340,-2007,-36,-40,60,-243,-683,440,463
,904,2023-10-20 13:44:34.18,311,-358,-2009,-46,-47,68,-440,-686,246,563
,905,2023-10-20 13:44:34.19,307,-350,-2008,-41,-33,75,-236,-721,485,478
,906,2023-10-20 13:44:34.20,303,-339,-2005,-38,-28,80,-439,-712,273,575
,907,2023-10-20 13:44:34.21,310,-333,-2010,-37,-23,88,-239,-706,467,472
,908,2023-10-20 13:44:34.22,313,-316,-2012,-27,-23,80,-450,-677,227,563
,909,2023-10-20 13:44:34.23,294,-326,-2012,-15,-18,65,-242,-705,463,473
,910,2023-10-20 13:44:34.24,295,-317,-2015,-12,-19,50,-454,-694,240,574
,911,2023-10-20 13:44:34.25,300,-311,-2011,-2,-5,35,-235,-713,478,474
,912,2023-10-20 13:44:34.26,299,-321,-2010,16,3,24,-446,-680,234,563
,913,2023-10-20 13:44:34.27,302,-330,-2014,26,7,16,-229,-734,505,481
,914,2023-10-20 13:44:34.28,293,-339,-2018,28,13,14,-451,-712,261,581
,915,2023-10-20 13:44:34.29,296,-314,-2015,39,17,13,-236,-738,502,487
,916,2023-10-20 13:44:34.30,288,-336,-2001,38,14,15,-459,-694,235,576
,917,2023-10-20 13:44:34.31,293,-359,-2012,25,10,24,-234,-730,496,482
,918,2023-10-20 13:44:34.32,288,-363,-2002,14,6,29,-461,-696,235,578
,919,2023-10-20 13:44:34.33,296,-344,-2007,15,2,37,-227,-743,516,485
,920,2023-10-20 13:44:34.34,311,-331,-2002,26,3,37,-452,-698,246,575
,921,2023-10-20 13:44:34.35,323,-324,-2009,31,12,34,-223,-723,500,473
,922,2023-10-20 13:44:34.36,308,-327,-2006,38,12,18,-458,-672,214,565
,923,2023-10-20 13:44:34.37,318,-336,-2012,49,6,5,-233,-713,480,473
,924,2023-10-20 13:44:34.38,317,-335,-2010,50,7,2,-463,-673,210,568
,925,2023-10-20 13:44:34.39,320,-342,-2011,51,4,3,-232,-766,534,499
,926,2023-10-20 13:44:34.40,310,-356,-2009,56,8,-2,-462,-724,262,593
,927,2023-10-20 13:44:34.41,319,-372,-2001,48,-1,12,-230,-772,542,501
,928,2023-10-20 13:44:34.42,314,-373,-2007,40,-14,24,-468,-702,234,585
,929,2023-10-20 13:44:34.43,306,-356,-2028,31,-14,35,-240,-721,481,480
,930,2023-10-20 13:44:34.44,303,-350,-2040,23,-18,39,-471,-653,182,562
,931,2023-10-20 13:44:34.45,297,-333,-2042,6,-23,34,-237,-719,482,478
,932,2023-10-20 13:44:34.46,301,-331,-2048,-14,-37,36,-469,-673,204,571
,933,2023-10-20 13:44:34.47,294,-317,-2044,-18,-47,22,-225,-769,544,497
,934,2023-10-20 13:44:34.48,288,-329,-2032,-18,-60,-6,-454,-709,255,581
,935,2023-10-20 13:44:34.49,288,-327,-2010,-32,-66,-20,-217,-789,572,503
,936,2023-10-20 13:44:34.50,299,-333,-2002,-49,-57,-22,-454,-707,253,580
,937,2023-10-20 13:44:34.51,284,-304,-2035,-51,-45,-34,-232,-762,530,497
,938,2023-10-20 13:44:34.52,256,-323,-2035,-51,-49,-32,-467,-678,211,572
,939,2023-10-20 13:44:34.53,273,-280,-1996,-17,-49,-72,-246,-756,510,501
,940,2023-10-20 13:44:34.54,282,-278,-1958,30,-48,-137,-472,-680,208,576
,941,2023-10-20 13:44:34.55,298,-306,-1946,43,-35,-176,-241,-757,516,499
,942,2023-10-20 13:44:34.56,276,-352,-1953,29,-10,-184,-460,-683,223,571
,943,2023-10-20 13:44:34.57,298,-410,-2008,9,17,-147,-217,-813,596,515
,944,2023-10-20 13:44:34.58,285,-431,-2025,-6,27,-105,-432,-719,287,575
,945,2023-10-20 13:44:34.59,299,-453,-2013,-14,28,-62,-228,-724,496,476
,946,2023-10-20 13:44:34.60,296,-414,-2020,-14,27,-14,-458,-603,145,530
,947,2023-10-20 13:44:34.61,296,-407,-2047,-24,25,40,-243,-653,410,448
,948,2023-10-20 13:44:34.62,297,-373,-2041,-28,21,73,-452,-582,130,517
,949,2023-10-20 13:44:34.63,292,-359,-2017,-31,12,84,-233,-656,423,444
,950,2023-10-20 13:44:34.64,302,-363,-2017,-43,13,96,-442,-590,148,516
,951,2023-10-20 13:44:34.65,284,-344,-2014,-50,16,111,-238,-673,435,455
,952,2023-10-20 13:44:34.66,297,-340,-2003,-43,13,117,-443,-599,156,521
,953,2023-10-20 13:44:34.67,287,-351,-2004,-37,8,118,-240,-683,443,461
,954,2023-10-20 13:44:34.68,301,-349,-2013,-42,11,126,-438,-605,167,521
,955,2023-10-20 13:44:34.69,288,-322,-2013,-34,18,121,-239,-695,456,467
,956,2023-10-20 13:44:34.70,299,-305,-2015,-24,20,103,-436,-608,172,522
,957,2023-10-20 13:44:34.71,308,-305,-2029,-26,25,88,-247,-669,422,458
,958,2023-10-20 13:44:34.72,287,-306,-2023,-35,28,73,-437,-577,140,507
,959,2023-10-20 13:44:34.73,296,-314,-2020,-37,29,55,-248,-654,406,451
,960,2023-10-20 13:44:34.74,291,-314,-2008,-36,23,43,-432,-576,144,504
,961,2023-10-20 13:44:34.75,305,-332,-2007,-39,25,41,-248,-664,416,456
,962,2023-10-20 13:44:34.76,307,-324,-2017,-36,26,36,-424,-586,162,505
,963,2023-10-20 13:44:34.77,303,-312,-1996,-37,31,32,-248,-680,432,464
,964,2023-10-20 13:44:34.78,311,-321,-2004,-39,34,33,-421,-593,172,507
,965,2023-10-20 13:44:34.79,310,-327,-2016,-39,30,40,-255,-680,425,467
,966,2023-10-20 13:44:34.80,308,-314,-2016,-32,24,40,-416,-585,169,500
,967,2023-10-20 13:44:34.81,318,-316,-2011,-29,22,40,-254,-659,405,456
,968,2023-10-20 13:44:34.82,313,-314,-2020,-33,21,45,-406,-561,155,483
,969,2023-10-20 13:44:34.83,315,-309,-2025,-23,20,50,-263,-655,392,459
,970,2023-10-20 13:44:34.84,315,-309,-2019,-5,10,51,-408,-574,166,491
,971,2023-10-20 13:44:34.85,320,-319,-2030,0,-2,48,-260,-685,425,472
,972,2023-10-20 13:44:34.86,310,-319,-2023,3,-11,50,-396,-588,192,492
,973,2023-10-20 13:44:34.87,307,-324,-2030,12,-11,53,-264,-667,403,465
,974,2023-10-20 13:44:34.88,304,-329,-2023,21,-16,58,-403,-575,172,489
,975,2023-10-20 13:44:34.89,300,-334,-2012,24,-16,66,-276,-665,389,470
,976,2023-10-20 13:44:34.90,305,-340,-2027,20,-13,76,-392,-583,191,487
,977,2023-10-20 13:44:34.91,291,-342,-2023,21,-18,80,-275,-698,423,486
,978,2023-10-20 13:44:34.92,281,-341,-2017,14,-16,90,-383,-602,219,492
,979,2023-10-20 13:44:34.93,281,-321,-2023,11,-10,100,-272,-677,405,474
,980,2023-10-20 13:44:34.94,291,-319,-2021,13,-11,100,-378,-574,196,476
,981,2023-10-20 13:44:34.95,290,-312,-2012,14,-14,90,-282,-666,384,474
,982,2023-10-20 13:44:34.96,290,-295,-1999,14,-12,77,-377,-579,202,478
,983,2023-10-20 13:44:34.97,287,-302,-2007,8,-6,61,-289,-680,391,484
,984,2023-10-20 13:44:34.98,285,-307,-2017,5,2,52,-371,-590,219,480
,985,2023-10-20 13:44:34.99,277,-312,-2017,7,7,52,-291,-684,393,487
,986,2023-10-20 13:44:35.00,282,-312,-2019,18,7,54,-364,-578,214,471
,987,2023-10-20 13:44:35.01,280,-301,-2001,25,8,48,-296,-657,361,476
,988,2023-10-20 13:44:35.02,282,-296,-1998,28,8,41,-363,-566,203,464
,989,2023-10-20 13:44:35.03,279,-306,-2002,32,15,33,-297,-664,367,480
,990,2023-10-20 13:44:35.04,271,-313,-2001,37,25,26,-351,-580,229,465
,991,2023-10-20 13:44:35.05,281,-320,-2003,37,34,23,-300,-668,368,484
,992,2023-10-20 13:44:35.06,275,-329,-2018,39,44,23,-348,-578,230,463
,993,2023-10-20 13:44:35.07,279,-336,-2026,35,52,29,-306,-674,368,490
,994,2023-10-20 13:44:35.08,282,-324,-2025,29,64,36,-344,-584,240,464
,995,2023-10-20 13:44:35.09,281,-325,-2029,23,68,35,-308,-666,358,487
,996,2023-10-20 13:44:35.10,292,-317,-2027,14,68,34,-332,-571,239,451
,997,2023-10-20 13:44:35.11,292,-314,-2026,5,79,30,-312,-647,335,479
,998,2023-10-20 13:44:35.12,297,-304,-2017,-2,75,25,-330,-566,236,448
,999,2023-10-20 13:44:35.13,306,-305,-2021,-10,74,24,-320,-654,334,487
,1000,2023-10-20 13:44:35.14,314,-305,-2016,-16,72,23,-328,-583,255,455
,1001,2023-10-20 13:44:35.15,316,-303,-2018,-16,70,21,-324,-671,347,497
