// Data mode  : Full
// Data quality  : High
// Acceleration sensor's range  : 16g
// Gyroscope sensor's range  : 2000dps
//
//ARTIFACT,NUM,DATE,ACC_X,ACC_Y,ACC_Z,GYRO_X,GYRO_Y,GYRO_Z,EOG_L,EOG_R,EOG_H,EOG_V
,1,2023-10-27 11:00:40.97,194,-229,-2042,-1,5,30,46,223,-177,-134
,2,2023-10-27 11:00:40.98,184,-226,-2040,3,-2,30,-126,60,-186,33
,3,2023-10-27 11:00:40.99,184,-222,-2033,2,-1,29,44,214,-170,-129
,4,2023-10-27 11:00:41.00,190,-221,-2034,5,0,29,-131,53,-184,39
,5,2023-10-27 11:00:41.01,188,-224,-2035,6,3,28,36,208,-172,-122
,6,2023-10-27 11:00:41.02,182,-227,-2035,8,3,27,-138,48,-186,45
,7,2023-10-27 11:00:41.03,181,-223,-2045,7,3,30,28,202,-174,-115
,8,2023-10-27 11:00:41.04,193,-225,-2053,5,-1,29,-143,42,-185,50
,9,2023-10-27 11:00:41.05,179,-218,-2047,8,-7,28,15,186,-171,-100
,10,2023-10-27 11:00:41.06,188,-219,-2038,12,-7,28,-148,36,-184,56
,11,2023-10-27 11:00:41.07,185,-223,-2039,11,-6,27,13,188,-175,-100
,12,2023-10-27 11:00:41.08,182,-225,-2041,6,-4,23,-155,37,-192,59
,13,2023-10-27 11:00:41.09,174,-227,-2046,5,-6,24,-2,169,-171,-83
,14,2023-10-27 11:00:41.10,179,-234,-2054,8,-10,26,-163,25,-188,69
,15,2023-10-27 11:00:41.11,175,-229,-2040,10,-16,32,-2,165,-167,-81
,16,2023-10-27 11:00:41.12,186,-231,-2035,8,-14,30,-160,37,-197,61
,17,2023-10-27 11:00:41.13,183,-228,-2024,6,-6,31,-12,161,-173,-74
,18,2023-10-27 11:00:41.14,186,-226,-2029,3,-3,29,-173,26,-199,73
,19,2023-10-27 11:00:41.15,184,-231,-2040,5,-3,29,-24,147,-171,-61
,20,2023-10-27 11:00:41.16,183,-227,-2036,6,-1,29,-187,13,-200,87
,21,2023-10-27 11:00:41.17,170,-233,-2047,7,-1,31,-31,144,-175,-56
,22,2023-10-27 11:00:41.18,180,-232,-2049,4,-3,28,-170,36,-206,67
,23,2023-10-27 11:00:41.19,169,-240,-2045,7,-5,32,-29,147,-176,-59
,24,2023-10-27 11:00:41.20,176,-235,-2038,9,-3,30,-163,44,-207,59
,25,2023-10-27 11:00:41.21,176,-234,-2028,13,-3,30,-21,149,-170,-64
,26,2023-10-27 11:00:41.22,191,-241,-2030,18,5,28,-153,56,-209,48
,27,2023-10-27 11:00:41.23,181,-238,-2030,19,9,27,-15,158,-173,-71
,28,2023-10-27 11:00:41.24,188,-242,-2032,20,12,26,-147,64,-211,41
,29,2023-10-27 11:00:41.25,183,-238,-2029,25,14,26,-17,156,-173,-69
,30,2023-10-27 11:00:41.26,191,-222,-2028,24,22,22,-146,62,-208,42
,31,2023-10-27 11:00:41.27,191,-226,-2019,13,43,22,-24,149,-173,-62
,32,2023-10-27 11:00:41.28,192,-227,-2032,17,24,19,-133,78,-211,27
,33,2023-10-27 11:00:41.29,202,-226,-2041,22,23,17,-14,156,-170,-71
,34,2023-10-27 11:00:41.30,199,-228,-2031,25,23,20,-131,85,-216,23
,35,2023-10-27 11:00:41.31,189,-246,-2047,22,30,16,-16,154,-170,-69
,36,2023-10-27 11:00:41.32,189,-231,-2055,18,31,16,-132,90,-222,21
,37,2023-10-27 11:00:41.33,195,-230,-2062,14,26,16,-19,157,-176,-69
,38,2023-10-27 11:00:41.34,190,-224,-2059,18,23,14,-118,100,-218,9
,39,2023-10-27 11:00:41.35,186,-214,-2053,16,13,15,-4,164,-168,-80
,40,2023-10-27 11:00:41.36,189,-224,-2049,10,8,15,-87,120,-207,-16
,41,2023-10-27 11:00:41.37,197,-222,-2058,6,4,14,13,174,-161,-93
,42,2023-10-27 11:00:41.38,183,-230,-2061,6,-9,12,-76,138,-214,-31
,43,2023-10-27 11:00:41.39,192,-225,-2059,8,-19,15,14,173,-159,-93
,44,2023-10-27 11:00:41.40,183,-224,-2052,9,-23,15,-76,139,-215,-31
,45,2023-10-27 11:00:41.41,186,-225,-2045,4,-28,16,5,165,-160,-85
,46,2023-10-27 11:00:41.42,186,-223,-2041,0,-33,18,-88,128,-216,-20
,47,2023-10-27 11:00:41.43,194,-207,-2040,-2,-32,17,-11,151,-162,-70
,48,2023-10-27 11:00:41.44,182,-221,-2044,-10,-22,15,-98,118,-216,-10
,49,2023-10-27 11:00:41.45,183,-225,-2044,-15,-21,14,-30,137,-167,-53
,50,2023-10-27 11:00:41.46,179,-228,-2036,-20,-20,14,-111,114,-225,-1
,51,2023-10-27 11:00:41.47,182,-226,-2026,-17,-22,16,-49,122,-171,-36
,52,2023-10-27 11:00:41.48,180,-231,-2033,-16,-21,16,-116,116,-232,0
,53,2023-10-27 11:00:41.49,181,-229,-2040,-17,-9,17,-58,111,-169,-26
,54,2023-10-27 11:00:41.50,174,-233,-2044,-18,-16,22,-128,104,-232,12
,55,2023-10-27 11:00:41.51,173,-227,-2037,-16,-19,25,-66,103,-169,-18
,56,2023-10-27 11:00:41.52,179,-227,-2045,-10,-29,30,-123,106,-229,8
,57,2023-10-27 11:00:41.53,176,-223,-2048,-18,-12,29,-75,103,-178,-14
,58,2023-10-27 11:00:41.54,162,-228,-2041,-22,-17,34,-132,102,-234,15
,59,2023-10-27 11:00:41.55,177,-229,-2043,-20,-21,35,-83,91,-174,-4
,60,2023-10-27 11:00:41.56,172,-222,-2031,-22,-3,37,-131,103,-234,14
,61,2023-10-27 11:00:41.57,169,-216,-2036,-19,-17,37,-98,75,-173,11
,62,2023-10-27 11:00:41.58,168,-223,-2039,-23,-12,37,-128,106,-234,11
,63,2023-10-27 11:00:41.59,172,-215,-2044,-23,-11,39,-82,84,-166,-1
,64,2023-10-27 11:00:41.60,171,-215,-2048,-25,-7,35,-121,115,-236,3
,65,2023-10-27 11:00:41.61,182,-211,-2046,-24,-6,35,-88,86,-174,1
,66,2023-10-27 11:00:41.62,164,-209,-2047,-25,-4,32,-115,120,-235,-2
,67,2023-10-27 11:00:41.63,173,-212,-2048,-27,-8,31,-81,89,-170,-4
,68,2023-10-27 11:00:41.64,172,-215,-2056,-25,-13,31,-100,134,-234,-17
,69,2023-10-27 11:00:41.65,166,-207,-2045,-18,-20,30,-80,86,-166,-3
,70,2023-10-27 11:00:41.66,175,-201,-2046,-18,-15,28,-93,140,-233,-23
,71,2023-10-27 11:00:41.67,155,-210,-2041,-21,-6,24,-73,91,-164,-9
,72,2023-10-27 11:00:41.68,172,-204,-2043,-15,-24,20,-82,144,-226,-31
,73,2023-10-27 11:00:41.69,178,-205,-2034,-12,-12,18,-69,88,-157,-9
,74,2023-10-27 11:00:41.70,172,-203,-2036,-7,-9,14,-65,151,-216,-43
,75,2023-10-27 11:00:41.71,187,-206,-2039,-1,-21,11,-65,90,-155,-12
,76,2023-10-27 11:00:41.72,166,-207,-2056,2,-14,7,-57,165,-222,-54
,77,2023-10-27 11:00:41.73,166,-214,-2046,5,-13,9,-60,89,-149,-14
,78,2023-10-27 11:00:41.74,179,-212,-2045,9,-12,9,-50,168,-218,-59
,79,2023-10-27 11:00:41.75,159,-217,-2055,8,-14,9,-60,94,-154,-17
,80,2023-10-27 11:00:41.76,171,-210,-2036,12,-25,9,-43,181,-224,-69
,81,2023-10-27 11:00:41.77,189,-198,-2031,18,-24,12,-58,97,-155,-19
,82,2023-10-27 11:00:41.78,184,-204,-2033,21,-15,10,-23,190,-213,-83
,83,2023-10-27 11:00:41.79,171,-218,-2030,14,-1,5,-37,99,-136,-31
,84,2023-10-27 11:00:41.80,173,-218,-2058,12,-3,6,16,209,-193,-112
,85,2023-10-27 11:00:41.81,169,-223,-2069,17,-12,10,2,111,-109,-56
,86,2023-10-27 11:00:41.82,140,-216,-2065,25,-25,18,88,249,-161,-168
,87,2023-10-27 11:00:41.83,161,-205,-2050,31,-41,22,34,131,-97,-82
,88,2023-10-27 11:00:41.84,158,-208,-2045,24,-44,30,41,214,-173,-127
,89,2023-10-27 11:00:41.85,167,-203,-2041,15,-40,28,-35,81,-116,-23
,90,2023-10-27 11:00:41.86,153,-213,-2042,8,-31,27,0,182,-182,-91
,91,2023-10-27 11:00:41.87,164,-210,-2041,3,-29,25,-63,64,-127,0
,92,2023-10-27 11:00:41.88,160,-218,-2046,1,-29,30,-14,177,-191,-81
,93,2023-10-27 11:00:41.89,139,-224,-2046,2,-27,32,-78,59,-137,9
,94,2023-10-27 11:00:41.90,160,-224,-2047,7,-31,36,-31,171,-202,-70
,95,2023-10-27 11:00:41.91,147,-225,-2032,9,-28,39,-100,37,-137,31
,96,2023-10-27 11:00:41.92,151,-218,-2029,13,-29,42,-51,153,-204,-51
,97,2023-10-27 11:00:41.93,156,-221,-2020,15,-17,41,-124,26,-150,49
,98,2023-10-27 11:00:41.94,151,-230,-2025,19,-1,38,-68,150,-218,-41
,99,2023-10-27 11:00:41.95,173,-231,-2030,19,13,36,-154,11,-165,71
,100,2023-10-27 11:00:41.96,177,-239,-2026,25,30,34,-113,130,-243,-8
,101,2023-10-27 11:00:41.97,171,-228,-2026,27,49,32,-192,-12,-180,102
,102,2023-10-27 11:00:41.98,170,-224,-2028,29,68,26,-103,129,-232,-13
,103,2023-10-27 11:00:41.99,184,-210,-2029,27,82,24,-172,-14,-158,93
,104,2023-10-27 11:00:42.00,186,-204,-2026,23,88,16,-102,120,-222,-9
,105,2023-10-27 11:00:42.01,168,-201,-2028,14,93,10,-187,-24,-163,105
,106,2023-10-27 11:00:42.02,135,-190,-2033,19,70,7,-106,118,-224,-6
,107,2023-10-27 11:00:42.03,171,-224,-2032,38,15,10,-179,-18,-161,98
,108,2023-10-27 11:00:42.04,172,-197,-2075,47,10,9,-70,147,-217,-38
,109,2023-10-27 11:00:42.05,173,-189,-2063,38,-4,5,-152,4,-156,74
,110,2023-10-27 11:00:42.06,191,-204,-2051,17,-3,0,-31,178,-209,-73
,111,2023-10-27 11:00:42.07,166,-207,-2058,4,3,-7,-126,20,-146,53
,112,2023-10-27 11:00:42.08,185,-212,-2060,4,-4,-11,-12,196,-208,-92
,113,2023-10-27 11:00:42.09,161,-216,-2067,10,-22,-10,-119,28,-147,45
,114,2023-10-27 11:00:42.10,164,-223,-2067,7,-35,-11,-7,201,-208,-97
,115,2023-10-27 11:00:42.11,153,-225,-2071,10,-59,-8,-118,26,-144,46
,116,2023-10-27 11:00:42.12,133,-230,-2069,16,-88,-1,6,204,-198,-105
,117,2023-10-27 11:00:42.13,136,-243,-2072,28,-113,13,-112,29,-141,41
,118,2023-10-27 11:00:42.14,137,-236,-2053,35,-133,25,11,214,-203,-112
,119,2023-10-27 11:00:42.15,134,-231,-2046,36,-132,34,-120,25,-145,47
,120,2023-10-27 11:00:42.16,142,-236,-2046,27,-125,43,7,210,-203,-108
,121,2023-10-27 11:00:42.17,151,-227,-2044,4,-88,44,-124,26,-150,49
,122,2023-10-27 11:00:42.18,129,-239,-2047,-14,-74,51,14,218,-204,-116
,123,2023-10-27 11:00:42.19,131,-234,-2032,-34,-38,57,-112,37,-149,37
,124,2023-10-27 11:00:42.20,109,-224,-2026,-41,-41,67,37,238,-201,-137
,125,2023-10-27 11:00:42.21,123,-222,-2024,-37,-69,81,-96,48,-144,24
,126,2023-10-27 11:00:42.22,130,-207,-2033,-44,-65,86,66,262,-196,-164
,127,2023-10-27 11:00:42.23,116,-201,-2033,-53,-44,88,-76,61,-137,7
,128,2023-10-27 11:00:42.24,133,-197,-2026,-65,-30,83,78,273,-195,-175
,129,2023-10-27 11:00:42.25,131,-195,-2023,-73,-25,83,-68,70,-138,-1
,130,2023-10-27 11:00:42.26,145,-189,-2032,-75,-21,77,82,273,-191,-177
,131,2023-10-27 11:00:42.27,124,-188,-2034,-68,-17,70,-77,65,-142,6
,132,2023-10-27 11:00:42.28,124,-196,-2038,-58,-22,63,76,267,-191,-171
,133,2023-10-27 11:00:42.29,121,-200,-2046,-46,-25,54,-92,55,-147,18
,134,2023-10-27 11:00:42.30,125,-196,-2051,-28,-28,48,73,271,-198,-172
,135,2023-10-27 11:00:42.31,129,-220,-2057,-17,-34,56,-98,47,-145,25
,136,2023-10-27 11:00:42.32,153,-208,-2057,-11,-23,49,54,249,-195,-151
,137,2023-10-27 11:00:42.33,117,-212,-2051,-11,3,47,-124,31,-155,46
,138,2023-10-27 11:00:42.34,136,-198,-2037,-7,3,39,27,232,-205,-129
,139,2023-10-27 11:00:42.35,137,-202,-2032,8,-15,37,-112,40,-152,36
,140,2023-10-27 11:00:42.36,142,-197,-2027,21,-17,34,97,268,-171,-182
,141,2023-10-27 11:00:42.37,125,-199,-2023,27,-7,28,-74,50,-124,12
,142,2023-10-27 11:00:42.38,136,-205,-2027,26,4,16,71,242,-171,-156
,143,2023-10-27 11:00:42.39,123,-197,-2041,24,9,13,-120,19,-139,50
,144,2023-10-27 11:00:42.40,122,-194,-2055,22,8,6,39,223,-184,-131
,145,2023-10-27 11:00:42.41,117,-197,-2059,22,5,3,-140,12,-152,64
,146,2023-10-27 11:00:42.42,123,-195,-2060,15,1,1,30,215,-185,-122
,147,2023-10-27 11:00:42.43,126,-199,-2068,2,-5,1,-150,4,-154,73
,148,2023-10-27 11:00:42.44,112,-193,-2055,-6,-7,0,23,205,-182,-114
,149,2023-10-27 11:00:42.45,118,-192,-2047,-11,-12,-2,-157,0,-157,78
,150,2023-10-27 11:00:42.46,118,-204,-2045,-20,-11,1,24,212,-188,-118
,151,2023-10-27 11:00:42.47,117,-199,-2029,-27,-3,-1,-156,6,-162,75
,152,2023-10-27 11:00:42.48,138,-203,-2023,-37,13,0,29,218,-189,-123
,153,2023-10-27 11:00:42.49,121,-197,-2034,-43,27,-2,-140,23,-163,58
,154,2023-10-27 11:00:42.50,140,-201,-2038,-50,42,-4,38,222,-184,-130
,155,2023-10-27 11:00:42.51,136,-186,-2052,-53,58,-11,-157,17,-174,70
,156,2023-10-27 11:00:42.52,131,-177,-2053,-54,73,-21,39,232,-193,-135
,157,2023-10-27 11:00:42.53,140,-158,-2052,-53,71,-33,-113,45,-158,34
,158,2023-10-27 11:00:42.54,153,-147,-2051,-51,67,-48,91,261,-170,-176
,159,2023-10-27 11:00:42.55,151,-127,-2048,-40,51,-63,-103,52,-155,25
,160,2023-10-27 11:00:42.56,150,-130,-2048,-32,36,-85,64,245,-181,-154
,161,2023-10-27 11:00:42.57,137,-155,-2043,-23,15,-96,-122,44,-166,39
,162,2023-10-27 11:00:42.58,145,-179,-2032,-17,1,-100,58,233,-175,-145
,163,2023-10-27 11:00:42.59,142,-184,-2036,-11,11,-107,-134,32,-166,51
,164,2023-10-27 11:00:42.60,118,-207,-2042,-5,8,-107,38,212,-174,-125
,165,2023-10-27 11:00:42.61,135,-204,-2055,8,-14,-99,-155,15,-170,70
,166,2023-10-27 11:00:42.62,148,-220,-2055,20,-13,-91,26,206,-180,-116
,167,2023-10-27 11:00:42.63,132,-221,-2060,31,-14,-82,-169,5,-174,82
,168,2023-10-27 11:00:42.64,127,-235,-2056,41,-26,-68,-8,174,-182,-83
,169,2023-10-27 11:00:42.65,126,-234,-2057,46,-40,-50,-188,-17,-171,102
,170,2023-10-27 11:00:42.66,118,-229,-2059,52,-46,-32,-8,172,-180,-82
,171,2023-10-27 11:00:42.67,127,-226,-2054,55,-55,-15,-187,-4,-183,95
,172,2023-10-27 11:00:42.68,106,-223,-2057,40,-48,15,-2,182,-184,-90
,173,2023-10-27 11:00:42.69,123,-221,-2054,28,-35,29,-182,4,-186,89
,174,2023-10-27 11:00:42.70,121,-213,-2029,19,-21,38,0,186,-186,-93
,175,2023-10-27 11:00:42.71,141,-211,-2018,7,-2,45,-172,14,-186,79
,176,2023-10-27 11:00:42.72,150,-189,-2013,-8,19,43,4,191,-187,-97
,177,2023-10-27 11:00:42.73,156,-188,-2014,-27,48,41,-170,15,-185,77
,178,2023-10-27 11:00:42.74,128,-195,-1995,-34,61,33,5,185,-180,-95
,179,2023-10-27 11:00:42.75,119,-196,-2030,-8,11,36,-169,20,-189,74
,180,2023-10-27 11:00:42.76,170,-175,-2054,9,-9,32,10,188,-178,-99
,181,2023-10-27 11:00:42.77,133,-189,-2039,8,12,25,-171,19,-190,76
,182,2023-10-27 11:00:42.78,141,-193,-2044,-10,35,17,1,185,-184,-93
,183,2023-10-27 11:00:42.79,138,-197,-2063,-24,38,13,-180,9,-189,85
,184,2023-10-27 11:00:42.80,142,-188,-2068,-13,20,11,-22,153,-175,-65
,185,2023-10-27 11:00:42.81,164,-182,-2062,3,19,9,-181,8,-189,86
,186,2023-10-27 11:00:42.82,148,-185,-2053,12,3,2,-9,172,-181,-81
,187,2023-10-27 11:00:42.83,158,-183,-2037,5,15,-6,-168,20,-188,74
,188,2023-10-27 11:00:42.84,154,-182,-2055,-4,24,-10,3,174,-171,-88
,189,2023-10-27 11:00:42.85,147,-194,-2063,-1,22,-13,-156,28,-184,64
,190,2023-10-27 11:00:42.86,145,-196,-2063,8,-2,-13,6,178,-172,-92
,191,2023-10-27 11:00:42.87,128,-201,-2058,16,-17,-7,-152,34,-186,59
,192,2023-10-27 11:00:42.88,136,-204,-2046,18,-26,1,8,180,-172,-94
,193,2023-10-27 11:00:42.89,135,-200,-2039,13,-25,5,-147,38,-185,54
,194,2023-10-27 11:00:42.90,145,-207,-2049,10,-20,8,7,178,-171,-92
,195,2023-10-27 11:00:42.91,145,-211,-2044,8,-16,14,-145,45,-190,50
,196,2023-10-27 11:00:42.92,148,-206,-2035,7,-10,19,13,177,-164,-95
,197,2023-10-27 11:00:42.93,148,-193,-2022,4,8,19,-138,52,-190,43
,198,2023-10-27 11:00:42.94,137,-191,-2029,-8,30,17,17,182,-165,-99
,199,2023-10-27 11:00:42.95,136,-190,-2043,-26,50,15,-130,60,-190,35
,200,2023-10-27 11:00:42.96,146,-181,-2059,-35,56,15,14,180,-166,-97
,201,2023-10-27 11:00:42.97,135,-172,-2058,-37,52,15,-127,58,-185,34
,202,2023-10-27 11:00:42.98,146,-171,-2052,-39,40,13,18,176,-158,-97
,203,2023-10-27 11:00:42.99,131,-168,-2050,-38,29,13,-120,67,-187,26
,204,2023-10-27 11:00:43.00,122,-173,-2037,-39,10,10,14,171,-157,-92
,205,2023-10-27 11:00:43.01,169,-153,-2076,-17,-49,15,-133,59,-192,37
,206,2023-10-27 11:00:43.02,152,-176,-2051,-20,-20,8,-4,161,-165,-78
,207,2023-10-27 11:00:43.03,137,-175,-2052,-11,-27,8,-135,61,-196,37
,208,2023-10-27 11:00:43.04,159,-182,-2042,-6,-40,7,-5,158,-163,-76
,209,2023-10-27 11:00:43.05,162,-182,-2047,2,-38,8,-138,62,-200,38
,210,2023-10-27 11:00:43.06,174,-184,-2043,14,-37,13,-11,153,-164,-71
,211,2023-10-27 11:00:43.07,162,-190,-2039,27,-35,13,-144,61,-205,41
,212,2023-10-27 11:00:43.08,146,-193,-2036,34,-31,14,-23,145,-168,-61
,213,2023-10-27 11:00:43.09,134,-210,-2039,44,-32,24,-150,57,-207,46
,214,2023-10-27 11:00:43.10,149,-222,-2043,58,-32,33,-35,131,-166,-48
,215,2023-10-27 11:00:43.11,134,-233,-2061,70,-29,46,-164,46,-210,59
,216,2023-10-27 11:00:43.12,131,-234,-2058,74,-30,60,-42,128,-170,-43
,217,2023-10-27 11:00:43.13,136,-212,-2049,74,-22,76,-176,38,-214,69
,218,2023-10-27 11:00:43.14,148,-204,-2034,69,-18,85,-64,107,-171,-21
,219,2023-10-27 11:00:43.15,134,-189,-2041,60,-11,95,-173,30,-203,71
,220,2023-10-27 11:00:43.16,137,-192,-2046,49,-7,99,-66,102,-168,-18
,221,2023-10-27 11:00:43.17,137,-190,-2039,40,-2,102,-164,53,-217,55
,222,2023-10-27 11:00:43.18,131,-191,-2033,31,1,103,-55,110,-165,-27
,223,2023-10-27 11:00:43.19,133,-199,-2044,31,1,103,-147,71,-218,38
,224,2023-10-27 11:00:43.20,135,-201,-2055,34,0,99,-45,124,-169,-39
,225,2023-10-27 11:00:43.21,117,-197,-2049,39,3,94,-139,74,-213,32
,226,2023-10-27 11:00:43.22,139,-197,-2042,44,3,89,-44,126,-170,-41
,227,2023-10-27 11:00:43.23,144,-192,-2032,51,-1,83,-126,98,-224,14
,228,2023-10-27 11:00:43.24,141,-194,-2047,58,-2,72,-47,125,-172,-39
,229,2023-10-27 11:00:43.25,152,-198,-2045,64,-4,63,-128,106,-234,11
,230,2023-10-27 11:00:43.26,139,-182,-2051,68,5,61,-42,130,-172,-44
,231,2023-10-27 11:00:43.27,132,-187,-2055,70,1,51,-109,119,-228,-5
,232,2023-10-27 11:00:43.28,115,-186,-2072,62,-5,52,-30,139,-169,-54
,233,2023-10-27 11:00:43.29,115,-192,-2090,57,-23,49,-104,126,-230,-11
,234,2023-10-27 11:00:43.30,107,-200,-2074,55,-39,56,-48,132,-180,-42
,235,2023-10-27 11:00:43.31,105,-204,-2076,56,-60,60,-107,131,-238,-12
,236,2023-10-27 11:00:43.32,107,-211,-2065,40,-59,62,-42,132,-174,-45
,237,2023-10-27 11:00:43.33,108,-208,-2050,30,-75,70,-85,145,-230,-30
,238,2023-10-27 11:00:43.34,110,-203,-2024,19,-59,75,-19,138,-157,-59
,239,2023-10-27 11:00:43.35,101,-208,-2014,15,-72,79,-72,149,-221,-38
,240,2023-10-27 11:00:43.36,99,-208,-2034,3,-63,82,-28,134,-162,-53
,241,2023-10-27 11:00:43.37,94,-226,-2040,-8,-58,87,-80,144,-224,-32
,242,2023-10-27 11:00:43.38,100,-222,-2036,-17,-47,92,-21,128,-149,-53
,243,2023-10-27 11:00:43.39,112,-205,-2047,-17,-49,99,-45,155,-200,-55
,244,2023-10-27 11:00:43.40,103,-203,-2036,-20,-46,102,-13,121,-134,-54
,245,2023-10-27 11:00:43.41,105,-197,-2047,-26,-47,103,-83,124,-207,-20
,246,2023-10-27 11:00:43.42,95,-200,-2052,-30,-39,104,-61,90,-151,-14
,247,2023-10-27 11:00:43.43,96,-205,-2055,-31,-37,101,-69,142,-211,-36
,248,2023-10-27 11:00:43.44,98,-204,-2058,-28,-36,103,-40,108,-148,-34
,249,2023-10-27 11:00:43.45,103,-200,-2048,-23,-32,103,-65,148,-213,-41
,250,2023-10-27 11:00:43.46,104,-201,-2047,-22,-26,97,-52,99,-151,-23
,251,2023-10-27 11:00:43.47,115,-197,-2038,-21,-9,95,-71,142,-213,-35
,252,2023-10-27 11:00:43.48,117,-197,-2037,-18,6,85,-56,95,-151,-19
,253,2023-10-27 11:00:43.49,114,-198,-2039,-8,17,80,-69,151,-220,-41
,254,2023-10-27 11:00:43.50,117,-188,-2045,-2,23,71,-72,87,-159,-7
,255,2023-10-27 11:00:43.51,117,-182,-2039,7,28,59,-78,143,-221,-32
,256,2023-10-27 11:00:43.52,118,-179,-2041,13,32,49,-80,73,-153,3
,257,2023-10-27 11:00:43.53,110,-181,-2051,16,34,39,-84,141,-225,-28
,258,2023-10-27 11:00:43.54,137,-194,-2034,19,29,40,-92,68,-160,12
,259,2023-10-27 11:00:43.55,138,-188,-2030,24,36,29,-87,133,-220,-23
,260,2023-10-27 11:00:43.56,126,-188,-2035,31,37,25,-105,50,-155,27
,261,2023-10-27 11:00:43.57,119,-199,-2034,36,29,20,-102,124,-226,-11
,262,2023-10-27 11:00:43.58,115,-213,-2061,45,14,22,-120,37,-157,41
,263,2023-10-27 11:00:43.59,117,-220,-2050,57,4,23,-111,118,-229,-3
,264,2023-10-27 11:00:43.60,122,-223,-2057,72,-11,26,-128,37,-165,45
,265,2023-10-27 11:00:43.61,112,-222,-2041,78,-11,30,-108,126,-234,-9
,266,2023-10-27 11:00:43.62,108,-220,-2044,76,-20,29,-136,31,-167,52
,267,2023-10-27 11:00:43.63,110,-227,-2053,85,-44,31,-96,134,-230,-19
,268,2023-10-27 11:00:43.64,102,-234,-2058,102,-79,40,-128,36,-164,46
,269,2023-10-27 11:00:43.65,86,-234,-2036,122,-108,53,-92,136,-228,-22
,270,2023-10-27 11:00:43.66,85,-240,-2023,134,-124,59,-127,29,-156,49
,271,2023-10-27 11:00:43.67,93,-257,-2027,133,-115,66,-98,130,-228,-16
,272,2023-10-27 11:00:43.68,133,-284,-1918,131,-110,69,-143,19,-162,62
,273,2023-10-27 11:00:43.69,84,-253,-1990,158,-51,67,-100,123,-223,-11
,274,2023-10-27 11:00:43.70,69,-258,-2133,142,-40,71,-150,10,-160,70
,275,2023-10-27 11:00:43.71,80,-281,-2141,83,-27,81,-100,129,-229,-14
,276,2023-10-27 11:00:43.72,98,-256,-2025,57,-9,85,-148,13,-161,67
,277,2023-10-27 11:00:43.73,59,-272,-2043,67,-9,94,-83,144,-227,-30
,278,2023-10-27 11:00:43.74,79,-271,-2023,69,-27,97,-134,24,-158,55
,279,2023-10-27 11:00:43.75,91,-265,-2030,67,-25,100,-70,155,-225,-42
,280,2023-10-27 11:00:43.76,85,-259,-2046,59,-5,94,-136,22,-158,57
,281,2023-10-27 11:00:43.77,73,-246,-2044,47,8,91,-63,161,-224,-49
,282,2023-10-27 11:00:43.78,78,-244,-2048,36,12,86,-131,21,-152,55
,283,2023-10-27 11:00:43.79,68,-246,-2053,25,7,82,-55,165,-220,-55
,284,2023-10-27 11:00:43.80,78,-255,-2052,21,-4,77,-134,22,-156,56
,285,2023-10-27 11:00:43.81,81,-257,-2046,16,-13,77,-56,161,-217,-52
,286,2023-10-27 11:00:43.82,81,-261,-2032,10,-19,77,-140,13,-153,63
,287,2023-10-27 11:00:43.83,68,-243,-2026,-4,-11,72,-56,162,-218,-53
,288,2023-10-27 11:00:43.84,77,-230,-2033,-17,-9,66,-151,4,-155,73
,289,2023-10-27 11:00:43.85,49,-237,-2051,-34,1,61,-61,156,-217,-47
,290,2023-10-27 11:00:43.86,77,-236,-2055,-39,-14,59,-160,-4,-156,82
,291,2023-10-27 11:00:43.87,61,-238,-2053,-41,-32,60,-69,149,-218,-40
,292,2023-10-27 11:00:43.88,73,-229,-2050,-45,-38,56,-163,-8,-155,85
,293,2023-10-27 11:00:43.89,62,-233,-2055,-52,-31,52,-57,156,-213,-49
,294,2023-10-27 11:00:43.90,67,-232,-2032,-65,-21,48,-165,-11,-154,88
,295,2023-10-27 11:00:43.91,67,-226,-2026,-61,-31,47,-61,151,-212,-45
,296,2023-10-27 11:00:43.92,71,-234,-2029,-54,-36,44,-172,-17,-155,94
,297,2023-10-27 11:00:43.93,80,-221,-2039,-53,-35,43,-62,145,-207,-41
,298,2023-10-27 11:00:43.94,67,-219,-2046,-53,-19,38,-175,-17,-158,96
,299,2023-10-27 11:00:43.95,72,-231,-2045,-56,-7,32,-59,150,-209,-45
,300,2023-10-27 11:00:43.96,78,-224,-2054,-53,-10,29,-177,-26,-151,101
,301,2023-10-27 11:00:43.97,65,-228,-2059,-45,-15,28,-51,158,-209,-53
,302,2023-10-27 11:00:43.98,87,-221,-2058,-37,-10,26,-172,-17,-155,94
,303,2023-10-27 11:00:43.99,69,-220,-2042,-33,0,24,-44,167,-211,-61
,304,2023-10-27 11:00:44.00,86,-218,-2043,-30,-1,22,-173,-18,-155,95
,305,2023-10-27 11:00:44.01,57,-218,-2044,-30,11,20,-30,172,-202,-71
,306,2023-10-27 11:00:44.02,80,-228,-2037,-30,21,22,-166,-12,-154,89
,307,2023-10-27 11:00:44.03,76,-223,-2033,-22,14,28,-22,184,-206,-81
,308,2023-10-27 11:00:44.04,71,-220,-2023,-17,12,32,-158,-8,-150,83
,309,2023-10-27 11:00:44.05,77,-210,-2025,-16,18,34,-19,188,-207,-84
,310,2023-10-27 11:00:44.06,70,-203,-2028,-18,27,33,-162,-4,-158,83
,311,2023-10-27 11:00:44.07,82,-208,-2034,-24,34,34,-11,190,-201,-89
,312,2023-10-27 11:00:44.08,77,-204,-2036,-23,35,35,-157,-1,-156,79
,313,2023-10-27 11:00:44.09,77,-205,-2041,-19,34,32,0,202,-202,-101
,314,2023-10-27 11:00:44.10,88,-212,-2050,-17,32,31,-148,4,-152,72
,315,2023-10-27 11:00:44.11,93,-216,-2055,-15,35,31,5,203,-198,-104
,316,2023-10-27 11:00:44.12,81,-202,-2063,-14,34,29,-149,5,-154,72
,317,2023-10-27 11:00:44.13,78,-194,-2054,-8,36,27,12,208,-196,-110
,318,2023-10-27 11:00:44.14,79,-193,-2057,-3,31,22,-140,11,-151,64
,319,2023-10-27 11:00:44.15,80,-198,-2060,1,27,18,27,219,-192,-123
,320,2023-10-27 11:00:44.16,70,-197,-2060,6,22,15,-138,11,-149,63
,321,2023-10-27 11:00:44.17,87,-201,-2054,14,16,13,24,219,-195,-121
,322,2023-10-27 11:00:44.18,87,-204,-2045,21,11,9,-149,7,-156,71
,323,2023-10-27 11:00:44.19,90,-202,-2042,24,12,6,14,204,-190,-109
,324,2023-10-27 11:00:44.20,90,-216,-2036,25,15,6,-160,-2,-158,81
,325,2023-10-27 11:00:44.21,97,-214,-2047,30,20,5,4,199,-195,-101
,326,2023-10-27 11:00:44.22,93,-218,-2046,32,20,6,-169,-11,-158,90
,327,2023-10-27 11:00:44.23,75,-217,-2039,34,22,6,-4,190,-194,-93
,328,2023-10-27 11:00:44.24,92,-229,-2045,32,29,8,-176,-14,-162,95
,329,2023-10-27 11:00:44.25,87,-221,-2052,33,35,8,-5,187,-192,-91
,330,2023-10-27 11:00:44.26,81,-222,-2039,35,30,12,-177,-12,-165,94
,331,2023-10-27 11:00:44.27,87,-220,-2045,36,30,14,0,194,-194,-97
,332,2023-10-27 11:00:44.28,90,-217,-2042,35,32,12,-177,-13,-164,95
,333,2023-10-27 11:00:44.29,86,-223,-2045,33,38,12,-5,186,-191,-90
,334,2023-10-27 11:00:44.30,77,-217,-2051,37,34,6,-183,-16,-167,99
,335,2023-10-27 11:00:44.31,76,-229,-2042,39,30,7,-10,181,-191,-85
,336,2023-10-27 11:00:44.32,73,-227,-2050,48,23,4,-187,-16,-171,101
,337,2023-10-27 11:00:44.33,76,-227,-2038,55,17,1,-11,185,-196,-87
,338,2023-10-27 11:00:44.34,80,-234,-2043,56,22,-4,-191,-15,-176,103
,339,2023-10-27 11:00:44.35,69,-237,-2062,57,22,-9,-12,188,-200,-88
,340,2023-10-27 11:00:44.36,86,-235,-2056,59,16,-10,-190,-12,-178,101
,341,2023-10-27 11:00:44.37,88,-239,-2058,58,17,-9,-8,185,-193,-88
,342,2023-10-27 11:00:44.38,74,-227,-2051,53,14,-9,-175,-1,-174,88
,343,2023-10-27 11:00:44.39,69,-229,-2056,29,7,-5,11,205,-194,-108
,344,2023-10-27 11:00:44.40,114,-254,-1999,15,22,-5,-161,16,-177,72
,345,2023-10-27 11:00:44.41,49,-254,-1985,33,28,-2,21,208,-187,-114
,346,2023-10-27 11:00:44.42,89,-230,-2048,38,7,3,-148,28,-176,60
,347,2023-10-27 11:00:44.43,96,-249,-2034,33,17,9,37,217,-180,-127
,348,2023-10-27 11:00:44.44,99,-229,-2052,27,26,13,-137,38,-175,49
,349,2023-10-27 11:00:44.45,92,-255,-2043,10,46,14,41,223,-182,-132
,350,2023-10-27 11:00:44.46,87,-251,-2051,-5,63,19,-143,28,-171,57
,351,2023-10-27 11:00:44.47,86,-242,-2039,0,55,26,28,210,-182,-119
,352,2023-10-27 11:00:44.48,95,-253,-2042,7,45,31,-158,16,-174,71
,353,2023-10-27 11:00:44.49,108,-236,-2037,9,45,36,2,178,-176,-90
,354,2023-10-27 11:00:44.50,96,-224,-2036,8,42,39,-196,-22,-174,109
,355,2023-10-27 11:00:44.51,112,-217,-2040,4,43,37,-35,141,-176,-53
,356,2023-10-27 11:00:44.52,103,-214,-2049,-5,48,30,-228,-54,-174,141
,357,2023-10-27 11:00:44.53,104,-226,-2047,-2,23,31,-62,109,-171,-23
,358,2023-10-27 11:00:44.54,125,-195,-2070,-11,50,23,-236,-65,-171,150
,359,2023-10-27 11:00:44.55,107,-207,-2047,-18,42,12,-62,103,-165,-20
,360,2023-10-27 11:00:44.56,122,-196,-2065,-19,24,7,-224,-50,-174,137
,361,2023-10-27 11:00:44.57,117,-193,-2060,-26,36,-1,-45,125,-170,-40
,362,2023-10-27 11:00:44.58,103,-210,-2054,-31,33,-7,-210,-31,-179,120
,363,2023-10-27 11:00:44.59,123,-199,-2060,-29,10,-12,-32,139,-171,-53
,364,2023-10-27 11:00:44.60,112,-197,-2055,-27,4,-20,-197,-17,-180,107
,365,2023-10-27 11:00:44.61,124,-188,-2049,-28,3,-25,-29,140,-169,-55
,366,2023-10-27 11:00:44.62,122,-196,-2030,-36,4,-33,-188,-4,-184,96
,367,2023-10-27 11:00:44.63,117,-200,-2034,-42,12,-38,-12,155,-167,-71
,368,2023-10-27 11:00:44.64,122,-220,-2041,-44,16,-40,-171,12,-183,79
,369,2023-10-27 11:00:44.65,126,-218,-2044,-39,12,-35,-5,164,-169,-79
,370,2023-10-27 11:00:44.66,121,-223,-2031,-30,16,-34,-165,13,-178,76
,371,2023-10-27 11:00:44.67,107,-231,-2038,-18,17,-32,-4,157,-161,-76
,372,2023-10-27 11:00:44.68,119,-235,-2045,-12,21,-28,-156,26,-182,65
,373,2023-10-27 11:00:44.69,107,-241,-2037,-3,22,-22,5,165,-160,-85
,374,2023-10-27 11:00:44.70,127,-219,-2032,11,26,-18,-153,32,-185,60
,375,2023-10-27 11:00:44.71,116,-222,-2036,23,23,-19,4,167,-163,-85
,376,2023-10-27 11:00:44.72,129,-214,-2052,26,31,-22,-140,39,-179,50
,377,2023-10-27 11:00:44.73,85,-212,-2059,18,24,-28,12,171,-159,-91
,378,2023-10-27 11:00:44.74,84,-221,-2066,35,-19,-25,-133,56,-189,38
,379,2023-10-27 11:00:44.75,84,-232,-2064,56,-62,-16,22,181,-159,-101
,380,2023-10-27 11:00:44.76,89,-244,-2049,74,-95,-6,-120,74,-194,23
,381,2023-10-27 11:00:44.77,85,-241,-2050,79,-110,1,26,189,-163,-107
,382,2023-10-27 11:00:44.78,106,-239,-2048,67,-98,8,-107,79,-186,14
,383,2023-10-27 11:00:44.79,93,-252,-2024,58,-85,12,33,188,-155,-110
,384,2023-10-27 11:00:44.80,102,-290,-1988,52,-78,14,-107,80,-187,13
,385,2023-10-27 11:00:44.81,88,-265,-2029,67,-49,22,29,179,-150,-104
,386,2023-10-27 11:00:44.82,68,-237,-2097,51,-40,34,-107,81,-188,13
,387,2023-10-27 11:00:44.83,74,-258,-2095,25,-41,44,25,181,-156,-103
,388,2023-10-27 11:00:44.84,83,-254,-2048,1,-23,53,-114,78,-192,18
,389,2023-10-27 11:00:44.85,71,-239,-2036,-7,-6,57,-2,156,-158,-77
,390,2023-10-27 11:00:44.86,64,-237,-2038,-13,-18,58,-108,86,-194,11
,391,2023-10-27 11:00:44.87,63,-233,-2046,-26,-8,55,22,170,-148,-96
,392,2023-10-27 11:00:44.88,83,-251,-2041,-24,-20,58,-102,87,-189,7
,393,2023-10-27 11:00:44.89,83,-257,-2028,-30,15,58,12,164,-152,-88
,394,2023-10-27 11:00:44.90,79,-264,-2021,-12,-12,61,-120,80,-200,20
,395,2023-10-27 11:00:44.91,60,-257,-2013,5,-15,59,-11,154,-165,-71
,396,2023-10-27 11:00:44.92,93,-247,-2023,23,-6,50,-116,88,-204,14
,397,2023-10-27 11:00:44.93,87,-248,-2032,32,13,44,-2,151,-153,-74
,398,2023-10-27 11:00:44.94,91,-232,-2016,28,23,33,-120,74,-194,23
,399,2023-10-27 11:00:44.95,96,-224,-2027,30,30,23,-24,130,-154,-53
,400,2023-10-27 11:00:44.96,89,-233,-2030,30,44,11,-132,67,-199,32
,401,2023-10-27 11:00:44.97,90,-231,-2026,33,40,3,-15,124,-139,-54
,402,2023-10-27 11:00:44.98,103,-229,-2032,31,40,-4,-92,80,-172,6
,403,2023-10-27 11:00:44.99,99,-236,-2047,24,46,-13,2,126,-124,-64
,404,2023-10-27 11:00:45.00,106,-226,-2046,14,52,-22,-112,66,-178,23
,405,2023-10-27 11:00:45.01,123,-231,-2043,2,63,-29,-34,102,-136,-34
,406,2023-10-27 11:00:45.02,116,-244,-2055,-8,79,-32,-134,56,-190,39
,407,2023-10-27 11:00:45.03,125,-246,-2046,-27,98,-35,-54,85,-139,-15
,408,2023-10-27 11:00:45.04,130,-244,-2045,-50,124,-36,-144,48,-192,48
,409,2023-10-27 11:00:45.05,132,-239,-2038,-74,148,-37,-68,78,-146,-5
,410,2023-10-27 11:00:45.06,118,-235,-2047,-92,159,-31,-163,39,-202,62
,411,2023-10-27 11:00:45.07,103,-167,-2115,-105,167,-24,-88,64,-152,12
,412,2023-10-27 11:00:45.08,138,-234,-2089,-133,132,-15,-168,36,-204,66
,413,2023-10-27 11:00:45.09,169,-236,-2025,-145,140,-4,-100,51,-151,24
,414,2023-10-27 11:00:45.10,127,-205,-1965,-128,118,-4,-190,23,-213,83
,415,2023-10-27 11:00:45.11,145,-200,-1996,-102,97,-4,-119,40,-159,39
,416,2023-10-27 11:00:45.12,167,-180,-2065,-94,67,-3,-149,59,-208,45
,417,2023-10-27 11:00:45.13,171,-178,-2046,-106,89,-12,-64,82,-146,-9
,418,2023-10-27 11:00:45.14,153,-166,-2056,-114,98,-19,-95,100,-195,-2
,419,2023-10-27 11:00:45.15,159,-168,-2059,-124,89,-24,-44,90,-134,-23
,420,2023-10-27 11:00:45.16,153,-169,-2074,-124,72,-31,-95,101,-196,-3
,421,2023-10-27 11:00:45.17,152,-180,-2079,-120,59,-31,-56,94,-150,-19
,422,2023-10-27 11:00:45.18,145,-184,-2055,-114,42,-27,-84,116,-200,-16
,423,2023-10-27 11:00:45.19,163,-188,-2061,-108,27,-25,-45,95,-140,-25
,424,2023-10-27 11:00:45.20,162,-187,-2050,-114,35,-25,-69,125,-194,-28
,425,2023-10-27 11:00:45.21,143,-182,-2056,-112,23,-17,-44,89,-133,-22
,426,2023-10-27 11:00:45.22,149,-189,-2062,-102,10,-16,-82,120,-202,-19
,427,2023-10-27 11:00:45.23,160,-180,-2072,-93,-7,-9,-63,81,-144,-9
,428,2023-10-27 11:00:45.24,148,-183,-2058,-88,-13,-6,-87,116,-203,-14
,429,2023-10-27 11:00:45.25,147,-171,-2055,-88,-7,-1,-74,74,-148,0
,430,2023-10-27 11:00:45.26,149,-176,-2053,-88,-15,3,-105,110,-215,-2
,431,2023-10-27 11:00:45.27,139,-175,-2064,-87,-18,9,-84,64,-148,10
,432,2023-10-27 11:00:45.28,141,-172,-2065,-81,-24,12,-95,120,-215,-12
,433,2023-10-27 11:00:45.29,133,-169,-2059,-75,-28,13,-79,70,-149,4
,434,2023-10-27 11:00:45.30,145,-157,-2051,-73,-45,19,-82,128,-210,-23
,435,2023-10-27 11:00:45.31,132,-162,-2054,-66,-50,23,-83,63,-146,10
,436,2023-10-27 11:00:45.32,134,-176,-2049,-53,-59,26,-84,130,-214,-23
,437,2023-10-27 11:00:45.33,131,-179,-2046,-42,-59,27,-86,62,-148,12
,438,2023-10-27 11:00:45.34,113,-174,-2040,-33,-59,30,-79,137,-216,-29
,439,2023-10-27 11:00:45.35,126,-178,-2045,-26,-51,32,-90,61,-151,14
,440,2023-10-27 11:00:45.36,128,-187,-2042,-21,-38,33,-70,141,-211,-35
,441,2023-10-27 11:00:45.37,140,-178,-2028,-14,-23,34,-88,58,-146,15
,442,2023-10-27 11:00:45.38,139,-166,-2010,-12,-1,31,-71,144,-215,-36
,443,2023-10-27 11:00:45.39,138,-160,-2024,-10,4,31,-98,53,-151,22
,444,2023-10-27 11:00:45.40,114,-161,-2052,-19,19,28,-80,137,-217,-28
,445,2023-10-27 11:00:45.41,105,-167,-2084,-26,18,35,-105,42,-147,31
,446,2023-10-27 11:00:45.42,88,-167,-2104,-28,1,45,-70,141,-211,-35
,447,2023-10-27 11:00:45.43,101,-163,-2101,-27,-23,63,-108,34,-142,37
,448,2023-10-27 11:00:45.44,104,-168,-2080,-34,-41,81,-82,130,-212,-24
,449,2023-10-27 11:00:45.45,105,-155,-2065,-48,-46,92,-124,25,-149,49
,450,2023-10-27 11:00:45.46,108,-144,-2045,-69,-36,100,-84,125,-209,-20
,451,2023-10-27 11:00:45.47,112,-137,-2037,-89,-25,109,-140,12,-152,64
,452,2023-10-27 11:00:45.48,107,-147,-2046,-104,-17,120,-106,112,-218,-3
,453,2023-10-27 11:00:45.49,117,-148,-2046,-114,-18,125,-157,-5,-152,81
,454,2023-10-27 11:00:45.50,109,-125,-2037,-122,-14,130,-112,104,-216,4
,455,2023-10-27 11:00:45.51,105,-117,-2023,-126,-7,126,-163,-9,-154,86
,456,2023-10-27 11:00:45.52,108,-122,-2030,-114,-30,129,-90,129,-219,-19
,457,2023-10-27 11:00:45.53,147,-105,-2037,-103,-29,121,-147,9,-156,69
,458,2023-10-27 11:00:45.54,141,-92,-2025,-100,-6,110,-72,148,-220,-38
,459,2023-10-27 11:00:45.55,136,-102,-2030,-102,1,97,-134,20,-154,57
,460,2023-10-27 11:00:45.56,119,-98,-2044,-100,5,82,-64,153,-217,-44
,461,2023-10-27 11:00:45.57,153,-85,-2057,-85,8,72,-139,15,-154,62
,462,2023-10-27 11:00:45.58,113,-98,-2049,-66,6,55,-62,161,-223,-49
,463,2023-10-27 11:00:45.59,144,-91,-2055,-55,0,43,-134,18,-152,58
,464,2023-10-27 11:00:45.60,140,-92,-2053,-50,11,30,-47,170,-217,-61
,465,2023-10-27 11:00:45.61,135,-93,-2073,-41,11,14,-123,27,-150,48
,466,2023-10-27 11:00:45.62,147,-101,-2071,-29,7,1,-25,185,-210,-80
,467,2023-10-27 11:00:45.63,119,-111,-2067,-16,6,-10,-114,33,-147,40
,468,2023-10-27 11:00:45.64,132,-112,-2071,7,-8,-19,-14,196,-210,-91
,469,2023-10-27 11:00:45.65,132,-113,-2076,18,-15,-31,-117,32,-149,42
,470,2023-10-27 11:00:45.66,125,-103,-2071,30,-19,-41,-8,199,-207,-95
,471,2023-10-27 11:00:45.67,129,-112,-2053,42,-28,-49,-121,24,-145,48
,472,2023-10-27 11:00:45.68,127,-124,-2043,59,-37,-59,-1,200,-201,-99
,473,2023-10-27 11:00:45.69,122,-136,-2043,81,-51,-64,-118,30,-148,44
,474,2023-10-27 11:00:45.70,133,-125,-2043,96,-61,-65,-3,204,-207,-100
,475,2023-10-27 11:00:45.71,129,-136,-2038,106,-59,-67,-124,24,-148,50
,476,2023-10-27 11:00:45.72,123,-138,-2039,105,-56,-66,-18,190,-208,-86
,477,2023-10-27 11:00:45.73,120,-145,-2046,99,-49,-61,-146,8,-154,69
,478,2023-10-27 11:00:45.74,126,-144,-2048,93,-33,-55,-34,179,-213,-72
,479,2023-10-27 11:00:45.75,103,-156,-2040,81,-24,-48,-152,1,-153,75
,480,2023-10-27 11:00:45.76,123,-146,-2039,69,-19,-33,-14,191,-205,-88
,481,2023-10-27 11:00:45.77,97,-150,-2041,60,-18,-21,-138,12,-150,63
,482,2023-10-27 11:00:45.78,99,-159,-2046,49,-16,-7,-2,194,-196,-96
,483,2023-10-27 11:00:45.79,113,-186,-2005,58,-27,3,-142,7,-149,67
,484,2023-10-27 11:00:45.80,72,-181,-2052,70,-26,22,-2,198,-200,-98
,485,2023-10-27 11:00:45.81,85,-172,-2091,66,-31,41,-144,8,-152,68
,486,2023-10-27 11:00:45.82,95,-179,-2083,58,-38,59,-10,190,-200,-90
,487,2023-10-27 11:00:45.83,94,-162,-2080,41,-24,73,-159,-6,-153,82
,488,2023-10-27 11:00:45.84,101,-161,-2041,32,-19,81,-13,186,-199,-86
,489,2023-10-27 11:00:45.85,108,-151,-2038,15,17,86,-166,-15,-151,90
,490,2023-10-27 11:00:45.86,95,-137,-2032,12,15,88,-23,176,-199,-76
,491,2023-10-27 11:00:45.87,112,-132,-2040,7,23,85,-174,-16,-158,95
,492,2023-10-27 11:00:45.88,112,-113,-2054,-1,34,79,-25,173,-198,-74
,493,2023-10-27 11:00:45.89,111,-112,-2056,-14,42,70,-185,-23,-162,104
,494,2023-10-27 11:00:45.90,103,-99,-2057,-31,49,57,-32,175,-207,-71
,495,2023-10-27 11:00:45.91,112,-99,-2058,-42,53,44,-182,-21,-161,101
,496,2023-10-27 11:00:45.92,101,-118,-2055,-39,45,34,-21,184,-205,-81
,497,2023-10-27 11:00:45.93,95,-122,-2050,-38,37,20,-176,-13,-163,94
,498,2023-10-27 11:00:45.94,109,-122,-2051,-41,35,13,-11,186,-197,-87
,499,2023-10-27 11:00:45.95,114,-119,-2052,-37,34,1,-178,-14,-164,96
,500,2023-10-27 11:00:45.96,117,-117,-2057,-34,34,-9,-5,196,-201,-95
,501,2023-10-27 11:00:45.97,114,-115,-2063,-28,23,-17,-170,-9,-161,89
,502,2023-10-27 11:00:45.98,115,-102,-2063,-20,12,-23,-1,198,-199,-98
,503,2023-10-27 11:00:45.99,111,-109,-2063,-15,3,-29,-172,-4,-168,88
,504,2023-10-27 11:00:46.00,108,-114,-2062,-8,-6,-30,14,210,-196,-112
,505,2023-10-27 11:00:46.01,121,-118,-2055,-6,-14,-34,-156,2,-158,77
,506,2023-10-27 11:00:46.02,120,-118,-2050,-4,-20,-33,25,214,-189,-119
,507,2023-10-27 11:00:46.03,114,-117,-2055,-6,-21,-33,-152,4,-156,74
,508,2023-10-27 11:00:46.04,108,-126,-2067,-3,-24,-27,20,207,-187,-113
,509,2023-10-27 11:00:46.05,114,-124,-2063,-3,-25,-23,-157,0,-157,78
,510,2023-10-27 11:00:46.06,112,-131,-2057,3,-23,-16,25,211,-186,-118
,511,2023-10-27 11:00:46.07,126,-126,-2059,9,-23,-9,-154,2,-156,76
,512,2023-10-27 11:00:46.08,113,-130,-2031,5,-7,-2,16,201,-185,-108
,513,2023-10-27 11:00:46.09,121,-138,-2023,11,2,5,-161,-1,-160,81
,514,2023-10-27 11:00:46.10,138,-137,-2004,22,11,9,11,192,-181,-101
,515,2023-10-27 11:00:46.11,109,-156,-2012,36,26,10,-167,-4,-163,85
,516,2023-10-27 11:00:46.12,107,-168,-2019,43,28,15,21,204,-183,-112
,517,2023-10-27 11:00:46.13,120,-143,-2037,57,36,22,-159,-1,-158,80
,518,2023-10-27 11:00:46.14,115,-141,-2051,71,39,20,19,201,-182,-110
,519,2023-10-27 11:00:46.15,129,-154,-2044,86,30,24,-158,7,-165,75
,520,2023-10-27 11:00:46.16,127,-140,-2067,90,34,21,24,202,-178,-113
,521,2023-10-27 11:00:46.17,114,-157,-2051,88,34,18,-170,-4,-166,87
,522,2023-10-27 11:00:46.18,115,-137,-2051,90,43,14,-6,179,-185,-86
,523,2023-10-27 11:00:46.19,117,-139,-2063,94,39,7,-184,-13,-171,98
,524,2023-10-27 11:00:46.20,97,-157,-2062,97,39,-2,2,183,-181,-92
,525,2023-10-27 11:00:46.21,110,-157,-2079,99,41,-7,-185,-9,-176,97
,526,2023-10-27 11:00:46.22,102,-167,-2066,104,27,-11,-6,186,-192,-90
,527,2023-10-27 11:00:46.23,117,-156,-2069,105,19,-17,-197,-9,-188,103
,528,2023-10-27 11:00:46.24,107,-151,-2054,102,16,-19,-24,176,-200,-76
,529,2023-10-27 11:00:46.25,113,-173,-2051,93,16,-22,-206,-9,-197,107
,530,2023-10-27 11:00:46.26,111,-176,-2044,87,12,-21,-10,182,-192,-86
,531,2023-10-27 11:00:46.27,115,-185,-2030,84,15,-18,-181,-2,-179,91
,532,2023-10-27 11:00:46.28,105,-185,-2028,85,4,-14,5,189,-184,-97
,533,2023-10-27 11:00:46.29,109,-176,-2028,71,24,-10,-169,10,-179,79
,534,2023-10-27 11:00:46.30,114,-170,-2042,61,20,-3,17,190,-173,-103
,535,2023-10-27 11:00:46.31,102,-181,-2060,47,27,0,-164,12,-176,76
,536,2023-10-27 11:00:46.32,112,-183,-2068,32,41,8,14,193,-179,-103
,537,2023-10-27 11:00:46.33,115,-172,-2062,13,46,15,-166,16,-182,75
,538,2023-10-27 11:00:46.34,133,-162,-2066,-12,58,18,17,196,-179,-106
,539,2023-10-27 11:00:46.35,114,-152,-2054,-34,71,19,-136,36,-172,50
,540,2023-10-27 11:00:46.36,134,-150,-2058,-56,74,22,60,213,-153,-136
,541,2023-10-27 11:00:46.37,120,-138,-2062,-76,77,23,-102,55,-157,23
,542,2023-10-27 11:00:46.38,135,-140,-2061,-86,68,25,75,224,-149,-149
,543,2023-10-27 11:00:46.39,134,-143,-2054,-92,62,25,-88,64,-152,12
,544,2023-10-27 11:00:46.40,142,-130,-2058,-99,56,25,76,220,-144,-148
,545,2023-10-27 11:00:46.41,141,-124,-2049,-100,51,21,-81,61,-142,10
,546,2023-10-27 11:00:46.42,152,-109,-2039,-101,47,13,86,216,-130,-151
,547,2023-10-27 11:00:46.43,159,-103,-2033,-97,43,3,-69,68,-137,0
,548,2023-10-27 11:00:46.44,153,-122,-2041,-85,32,-8,86,213,-127,-149
,549,2023-10-27 11:00:46.45,139,-128,-2060,-69,14,-13,-67,69,-136,-1
,550,2023-10-27 11:00:46.46,148,-127,-2055,-49,-9,-19,93,210,-117,-151
,551,2023-10-27 11:00:46.47,152,-124,-2057,-29,-21,-24,-64,70,-134,-3
,552,2023-10-27 11:00:46.48,144,-123,-2053,-11,-31,-30,89,207,-118,-148
,553,2023-10-27 11:00:46.49,140,-121,-2049,3,-39,-35,-56,78,-134,-11
,554,2023-10-27 11:00:46.50,148,-133,-2051,22,-41,-38,99,209,-110,-154
,555,2023-10-27 11:00:46.51,152,-139,-2058,35,-46,-40,-40,83,-123,-21
,556,2023-10-27 11:00:46.52,142,-147,-2059,46,-51,-41,121,218,-97,-169
,557,2023-10-27 11:00:46.53,136,-148,-2065,54,-50,-37,-16,91,-107,-37
,558,2023-10-27 11:00:46.54,132,-151,-2067,46,-35,-37,111,204,-93,-157
,559,2023-10-27 11:00:46.55,119,-150,-2047,42,-25,-37,-63,66,-129,-1
,560,2023-10-27 11:00:46.56,152,-138,-2060,40,-14,-31,60,173,-113,-116
,561,2023-10-27 11:00:46.57,123,-155,-2052,33,-13,-29,-103,43,-146,30
,562,2023-10-27 11:00:46.58,138,-151,-2048,38,-23,-19,12,148,-136,-80
,563,2023-10-27 11:00:46.59,150,-142,-2053,31,-12,-16,-146,33,-179,56
,564,2023-10-27 11:00:46.60,121,-168,-2024,24,0,-14,-1,141,-142,-70
,565,2023-10-27 11:00:46.61,117,-165,-2037,20,6,-10,-122,42,-164,40
,566,2023-10-27 11:00:46.62,110,-184,-2051,26,1,-9,10,143,-133,-76
,567,2023-10-27 11:00:46.63,115,-166,-2051,41,-12,-3,-140,22,-162,59
,568,2023-10-27 11:00:46.64,125,-161,-2044,49,-15,-1,-23,106,-129,-41
,569,2023-10-27 11:00:46.65,104,-161,-2043,61,-29,-6,-145,19,-164,63
,570,2023-10-27 11:00:46.66,127,-163,-2051,59,-20,-11,-14,115,-129,-50
,571,2023-10-27 11:00:46.67,113,-153,-2054,52,-3,-17,-134,32,-166,51
,572,2023-10-27 11:00:46.68,107,-170,-2057,54,-14,-22,-23,115,-138,-46
,573,2023-10-27 11:00:46.69,103,-168,-2056,49,-13,-24,-142,34,-176,54
,574,2023-10-27 11:00:46.70,109,-176,-2059,52,-17,-20,-33,98,-131,-32
,575,2023-10-27 11:00:46.71,91,-184,-2056,49,-20,-18,-148,32,-180,58
,576,2023-10-27 11:00:46.72,117,-175,-2052,47,-25,-12,-32,112,-144,-40
,577,2023-10-27 11:00:46.73,101,-170,-2039,33,-17,-7,-147,41,-188,53
,578,2023-10-27 11:00:46.74,118,-166,-2057,20,-2,-4,-54,89,-143,-17
,579,2023-10-27 11:00:46.75,80,-203,-2026,10,7,-2,-160,38,-198,61
,580,2023-10-27 11:00:46.76,103,-174,-2033,-10,9,15,-54,100,-154,-23
,581,2023-10-27 11:00:46.77,127,-163,-2045,-9,0,21,-140,53,-193,43
,582,2023-10-27 11:00:46.78,116,-162,-2039,-18,15,22,-40,108,-148,-34
,583,2023-10-27 11:00:46.79,147,-159,-2037,-31,35,25,-134,64,-198,35
,584,2023-10-27 11:00:46.80,152,-143,-2046,-63,84,20,-41,103,-144,-31
,585,2023-10-27 11:00:46.81,161,-140,-2043,-93,117,9,-131,68,-199,31
,586,2023-10-27 11:00:46.82,176,-125,-2033,-113,152,1,-40,104,-144,-32
,587,2023-10-27 11:00:46.83,168,-132,-2040,-127,169,-11,-116,81,-197,17
,588,2023-10-27 11:00:46.84,130,-52,-2112,-131,169,-17,-36,107,-143,-35
,589,2023-10-27 11:00:46.85,150,-112,-2100,-148,121,-22,-108,88,-196,10
,590,2023-10-27 11:00:46.86,163,-152,-1972,-130,89,-25,-34,110,-144,-38
,591,2023-10-27 11:00:46.87,137,-112,-2027,-59,62,-31,-102,96,-198,3
,592,2023-10-27 11:00:46.88,172,-113,-2104,-35,3,-38,-33,110,-143,-38
,593,2023-10-27 11:00:46.89,182,-102,-2069,-50,37,-47,-92,103,-195,-5
,594,2023-10-27 11:00:46.90,146,-108,-2070,-52,46,-59,-32,102,-134,-35
,595,2023-10-27 11:00:46.91,168,-122,-2072,-46,25,-66,-97,99,-196,-1
,596,2023-10-27 11:00:46.92,137,-126,-2080,-28,-13,-66,-46,96,-142,-25
,597,2023-10-27 11:00:46.93,126,-142,-2076,1,-52,-62,-101,95,-196,3
,598,2023-10-27 11:00:46.94,139,-144,-2060,22,-80,-52,-60,79,-139,-9
,599,2023-10-27 11:00:46.95,146,-138,-2051,28,-95,-41,-112,88,-200,12
,600,2023-10-27 11:00:46.96,137,-134,-2046,21,-95,-30,-76,69,-145,3
,601,2023-10-27 11:00:46.97,133,-143,-2045,16,-92,-20,-112,84,-196,14
,602,2023-10-27 11:00:46.98,143,-140,-2052,6,-83,-7,-79,62,-141,8
,603,2023-10-27 11:00:46.99,141,-140,-2048,-2,-72,6,-122,78,-200,22
,604,2023-10-27 11:00:47.00,134,-137,-2047,-11,-59,19,-89,49,-138,20
,605,2023-10-27 11:00:47.01,127,-156,-2043,-18,-43,32,-114,78,-192,18
,606,2023-10-27 11:00:47.02,117,-154,-2052,-29,-25,45,-84,47,-131,18
,607,2023-10-27 11:00:47.03,129,-156,-2062,-32,-17,59,-83,107,-190,-12
,608,2023-10-27 11:00:47.04,133,-145,-2046,-35,-11,71,-60,70,-130,-5
,609,2023-10-27 11:00:47.05,129,-128,-2040,-33,-4,76,-73,118,-191,-22
,610,2023-10-27 11:00:47.06,130,-126,-2049,-31,5,73,-62,72,-134,-5
,611,2023-10-27 11:00:47.07,129,-116,-2052,-28,5,70,-64,132,-196,-34
,612,2023-10-27 11:00:47.08,141,-108,-2052,-21,-1,64,-60,69,-129,-4
,613,2023-10-27 11:00:47.09,131,-108,-2053,-9,-8,59,-60,138,-198,-39
,614,2023-10-27 11:00:47.10,128,-105,-2043,0,-17,47,-69,72,-141,-1
,615,2023-10-27 11:00:47.11,119,-103,-2039,13,-23,37,-66,142,-208,-38
,616,2023-10-27 11:00:47.12,123,-109,-2048,19,-19,23,-82,65,-147,8
,617,2023-10-27 11:00:47.13,137,-111,-2058,18,-8,11,-66,147,-213,-40
,618,2023-10-27 11:00:47.14,114,-122,-2042,14,-6,-5,-79,70,-149,4
,619,2023-10-27 11:00:47.15,133,-133,-2062,23,-12,-15,-68,145,-213,-38
,620,2023-10-27 11:00:47.16,113,-129,-2049,26,-6,-25,-92,57,-149,17
,621,2023-10-27 11:00:47.17,126,-129,-2052,38,-30,-27,-73,139,-212,-33
,622,2023-10-27 11:00:47.18,136,-136,-2065,33,-18,-29,-101,45,-146,28
,623,2023-10-27 11:00:47.19,99,-149,-2048,27,-19,-33,-71,140,-211,-34
,624,2023-10-27 11:00:47.20,129,-143,-2058,21,-26,-31,-103,41,-144,31
,625,2023-10-27 11:00:47.21,121,-129,-2060,11,-13,-27,-72,140,-212,-34
,626,2023-10-27 11:00:47.22,126,-122,-2045,0,-6,-28,-120,24,-144,48
,627,2023-10-27 11:00:47.23,122,-131,-2049,-21,11,-26,-75,131,-206,-28
,628,2023-10-27 11:00:47.24,123,-137,-2047,-34,17,-24,-119,23,-142,48
,629,2023-10-27 11:00:47.25,120,-146,-2050,-41,21,-16,-61,142,-203,-40
,630,2023-10-27 11:00:47.26,127,-142,-2046,-44,20,-10,-116,27,-143,44
,631,2023-10-27 11:00:47.27,126,-134,-2044,-45,22,-1,-61,143,-204,-41
,632,2023-10-27 11:00:47.28,125,-128,-2035,-50,27,2,-120,15,-135,52
,633,2023-10-27 11:00:47.29,131,-120,-2031,-55,29,7,-69,134,-203,-32
,634,2023-10-27 11:00:47.30,133,-123,-2037,-54,33,10,-136,9,-145,63
,635,2023-10-27 11:00:47.31,141,-113,-2044,-51,30,13,-71,135,-206,-32
,636,2023-10-27 11:00:47.32,142,-121,-2043,-48,30,13,-143,-3,-140,73
,637,2023-10-27 11:00:47.33,131,-117,-2057,-48,28,14,-91,119,-210,-14
,638,2023-10-27 11:00:47.34,126,-105,-2066,-49,22,14,-160,-10,-150,85
,639,2023-10-27 11:00:47.35,134,-100,-2068,-47,16,11,-83,127,-210,-22
,640,2023-10-27 11:00:47.36,133,-92,-2068,-48,8,8,-159,-14,-145,86
,641,2023-10-27 11:00:47.37,125,-91,-2052,-52,6,4,-82,130,-212,-24
,642,2023-10-27 11:00:47.38,127,-85,-2060,-58,8,0,-160,-7,-153,83
,643,2023-10-27 11:00:47.39,137,-83,-2059,-64,12,-4,-70,141,-211,-35
,644,2023-10-27 11:00:47.40,146,-91,-2054,-67,13,-8,-158,-8,-150,83
,645,2023-10-27 11:00:47.41,142,-85,-2057,-69,19,-10,-59,148,-207,-44
,646,2023-10-27 11:00:47.42,144,-89,-2053,-68,18,-10,-147,3,-150,72
,647,2023-10-27 11:00:47.43,142,-91,-2042,-65,17,-10,-44,163,-207,-59
,648,2023-10-27 11:00:47.44,135,-95,-2049,-60,20,-7,-142,5,-147,68
,649,2023-10-27 11:00:47.45,136,-88,-2048,-53,16,-7,-32,174,-206,-71
,650,2023-10-27 11:00:47.46,127,-91,-2051,-43,11,-5,-134,9,-143,62
,651,2023-10-27 11:00:47.47,135,-89,-2055,-35,2,-2,-28,176,-204,-74
,652,2023-10-27 11:00:47.48,137,-89,-2063,-25,-12,2,-141,4,-145,68
,653,2023-10-27 11:00:47.49,136,-88,-2064,-16,-29,7,-21,179,-200,-79
,654,2023-10-27 11:00:47.50,126,-90,-2065,-8,-40,15,-134,5,-139,64
,655,2023-10-27 11:00:47.51,124,-93,-2055,-2,-50,20,-16,185,-201,-84
,656,2023-10-27 11:00:47.52,136,-90,-2058,-1,-53,27,-142,1,-143,70
,657,2023-10-27 11:00:47.53,136,-90,-2043,2,-53,32,-18,171,-189,-76
,658,2023-10-27 11:00:47.54,133,-89,-2038,1,-42,33,-144,-7,-137,75
,659,2023-10-27 11:00:47.55,129,-93,-2051,2,-34,39,-8,184,-192,-88
,660,2023-10-27 11:00:47.56,120,-99,-2057,-1,-25,40,-136,1,-137,67
,661,2023-10-27 11:00:47.57,130,-103,-2052,2,-18,47,-2,187,-189,-92
,662,2023-10-27 11:00:47.58,130,-106,-2051,10,-11,51,-143,1,-144,71
,663,2023-10-27 11:00:47.59,126,-95,-2053,12,-8,54,-4,191,-195,-93
,664,2023-10-27 11:00:47.60,135,-91,-2057,17,-5,55,-145,-5,-140,75
,665,2023-10-27 11:00:47.61,127,-82,-2057,20,0,55,-12,181,-193,-84
,666,2023-10-27 11:00:47.62,129,-77,-2053,25,-3,54,-156,-7,-149,81
,667,2023-10-27 11:00:47.63,122,-78,-2051,26,-10,49,-21,174,-195,-76
,668,2023-10-27 11:00:47.64,112,-84,-2059,28,-17,44,-166,-12,-154,89
,669,2023-10-27 11:00:47.65,109,-88,-2063,31,-21,39,-16,184,-200,-84
,670,2023-10-27 11:00:47.66,121,-89,-2061,38,-25,34,-162,-11,-151,86
,671,2023-10-27 11:00:47.67,129,-85,-2061,33,-23,31,-17,181,-198,-82
,672,2023-10-27 11:00:47.68,121,-94,-2046,26,-8,25,-176,-17,-159,96
,673,2023-10-27 11:00:47.69,124,-93,-2044,25,-13,22,-18,180,-198,-81
,674,2023-10-27 11:00:47.70,111,-91,-2046,28,-21,21,-175,-20,-155,97
,675,2023-10-27 11:00:47.71,119,-92,-2045,27,-20,18,-23,174,-197,-75
,676,2023-10-27 11:00:47.72,115,-108,-2035,22,-13,21,-184,-23,-161,103
,677,2023-10-27 11:00:47.73,106,-111,-2044,22,-20,24,-24,170,-194,-73
,678,2023-10-27 11:00:47.74,104,-118,-2059,21,-11,26,-191,-29,-162,110
,679,2023-10-27 11:00:47.75,107,-114,-2074,13,-7,32,-28,171,-199,-71
,680,2023-10-27 11:00:47.76,87,-102,-2085,10,-12,38,-187,-27,-160,107
,681,2023-10-27 11:00:47.77,111,-105,-2076,7,-11,42,-17,174,-191,-78
,682,2023-10-27 11:00:47.78,115,-113,-2060,-1,2,46,-186,-25,-161,105
,683,2023-10-27 11:00:47.79,105,-97,-2046,-7,0,53,-16,178,-194,-81
,684,2023-10-27 11:00:47.80,119,-93,-2036,-14,-1,55,-180,-20,-160,100
,685,2023-10-27 11:00:47.81,128,-91,-2044,-26,14,57,-3,189,-192,-93
,686,2023-10-27 11:00:47.82,129,-83,-2047,-36,30,53,-171,-5,-166,88
,687,2023-10-27 11:00:47.83,117,-82,-2046,-44,43,53,1,191,-190,-96
,688,2023-10-27 11:00:47.84,121,-75,-2047,-50,55,46,-173,-13,-160,93
,689,2023-10-27 11:00:47.85,122,-65,-2052,-55,56,45,12,198,-186,-105
,690,2023-10-27 11:00:47.86,110,-58,-2047,-62,52,42,-156,1,-157,77
,691,2023-10-27 11:00:47.87,113,-57,-2050,-68,39,37,19,196,-177,-107
,692,2023-10-27 11:00:47.88,99,-52,-2064,-68,20,35,-166,-1,-165,83
,693,2023-10-27 11:00:47.89,90,-38,-2063,-66,-6,34,7,200,-193,-103
,694,2023-10-27 11:00:47.90,100,-59,-2064,-64,-45,34,-172,1,-173,85
,695,2023-10-27 11:00:47.91,114,-77,-2059,-56,-77,36,6,198,-192,-102
,696,2023-10-27 11:00:47.92,127,-85,-2028,-28,-77,33,-175,-5,-170,90
,697,2023-10-27 11:00:47.93,125,-92,-2006,-1,-53,21,-3,180,-183,-88
,698,2023-10-27 11:00:47.94,123,-93,-2022,6,-30,13,-173,-4,-169,88
,699,2023-10-27 11:00:47.95,129,-88,-2040,5,-15,11,18,201,-183,-109
,700,2023-10-27 11:00:47.96,112,-91,-2072,16,-3,13,-149,16,-165,66
,701,2023-10-27 11:00:47.97,125,-104,-2084,34,-6,14,28,205,-177,-116
,702,2023-10-27 11:00:47.98,98,-64,-2064,50,2,11,-154,12,-166,71
,703,2023-10-27 11:00:47.99,93,-64,-2071,44,-8,10,25,199,-174,-112
,704,2023-10-27 11:00:48.00,90,-57,-2074,17,-19,13,-154,7,-161,73
,705,2023-10-27 11:00:48.01,104,-53,-2066,10,-23,13,27,198,-171,-112
,706,2023-10-27 11:00:48.02,114,-70,-2051,19,-23,11,-161,10,-171,75
,707,2023-10-27 11:00:48.03,126,-85,-2029,17,-16,5,18,188,-170,-103
,708,2023-10-27 11:00:48.04,116,-93,-2035,6,0,3,-172,-2,-170,87
,709,2023-10-27 11:00:48.05,124,-83,-2044,-2,8,-2,17,191,-174,-104
,710,2023-10-27 11:00:48.06,111,-83,-2052,2,15,0,-159,9,-168,75
,711,2023-10-27 11:00:48.07,118,-77,-2044,13,13,-3,13,193,-180,-103
,712,2023-10-27 11:00:48.08,113,-79,-2034,20,12,-3,-168,9,-177,79
,713,2023-10-27 11:00:48.09,112,-76,-2037,20,12,-5,10,176,-166,-93
,714,2023-10-27 11:00:48.10,103,-74,-2051,21,12,-12,-165,1,-166,82
,715,2023-10-27 11:00:48.11,120,-84,-2070,23,10,-13,15,178,-163,-96
,716,2023-10-27 11:00:48.12,130,-81,-2060,19,16,-10,-160,9,-169,75
,717,2023-10-27 11:00:48.13,103,-91,-2058,14,13,-11,11,173,-162,-92
,718,2023-10-27 11:00:48.14,120,-91,-2071,16,-1,-5,-167,6,-173,80
,719,2023-10-27 11:00:48.15,109,-102,-2062,15,4,-2,2,168,-166,-85
,720,2023-10-27 11:00:48.16,125,-89,-2054,19,-12,5,-167,5,-172,81
,721,2023-10-27 11:00:48.17,116,-100,-2052,16,-3,11,-3,160,-163,-78
,722,2023-10-27 11:00:48.18,117,-93,-2053,11,3,12,-175,4,-179,85
,723,2023-10-27 11:00:48.19,121,-92,-2066,3,10,16,-8,160,-168,-76
,724,2023-10-27 11:00:48.20,113,-90,-2049,-2,27,19,-175,1,-176,87
,725,2023-10-27 11:00:48.21,117,-75,-2055,-4,43,17,-10,154,-164,-72
,726,2023-10-27 11:00:48.22,113,-73,-2049,-11,47,15,-167,11,-178,78
,727,2023-10-27 11:00:48.23,129,-70,-2059,-19,49,16,-5,155,-160,-75
,728,2023-10-27 11:00:48.24,125,-64,-2054,-17,46,10,-170,10,-180,80
,729,2023-10-27 11:00:48.25,126,-66,-2058,-13,43,5,-8,151,-159,-71
,730,2023-10-27 11:00:48.26,121,-74,-2046,-11,41,3,-164,16,-180,74
,731,2023-10-27 11:00:48.27,115,-65,-2047,-6,36,-2,-7,148,-155,-70
,732,2023-10-27 11:00:48.28,133,-65,-2050,-2,35,-3,-164,18,-182,73
,733,2023-10-27 11:00:48.29,125,-65,-2046,4,31,-9,-11,148,-159,-68
,734,2023-10-27 11:00:48.30,113,-73,-2061,12,20,-10,-165,16,-181,74
,735,2023-10-27 11:00:48.31,124,-69,-2052,16,13,-10,-22,139,-161,-58
,736,2023-10-27 11:00:48.32,119,-75,-2052,21,10,-10,-172,16,-188,78
,737,2023-10-27 11:00:48.33,118,-83,-2048,26,7,-12,-23,136,-159,-56
,738,2023-10-27 11:00:48.34,117,-86,-2057,31,2,-7,-175,15,-190,80
,739,2023-10-27 11:00:48.35,129,-80,-2060,30,-1,-3,-39,124,-163,-42
,740,2023-10-27 11:00:48.36,115,-89,-2061,33,-3,-1,-176,13,-189,81
,741,2023-10-27 11:00:48.37,122,-87,-2051,33,-3,-2,-39,115,-154,-38
,742,2023-10-27 11:00:48.38,114,-91,-2064,34,1,3,-170,13,-183,78
,743,2023-10-27 11:00:48.39,120,-95,-2060,34,-1,5,-36,116,-152,-40
,744,2023-10-27 11:00:48.40,115,-100,-2055,37,-7,9,-164,17,-181,73
,745,2023-10-27 11:00:48.41,119,-106,-2052,43,-9,14,-41,109,-150,-34
,746,2023-10-27 11:00:48.42,120,-106,-2042,43,-3,20,-161,20,-181,70
,747,2023-10-27 11:00:48.43,115,-111,-2040,40,12,24,-42,100,-142,-29
,748,2023-10-27 11:00:48.44,122,-100,-2041,30,24,28,-161,19,-180,71
,749,2023-10-27 11:00:48.45,119,-87,-2053,17,38,28,-49,94,-143,-22
,750,2023-10-27 11:00:48.46,121,-85,-2051,6,47,30,-151,34,-185,58
,751,2023-10-27 11:00:48.47,120,-72,-2051,-1,52,28,-31,108,-139,-38
,752,2023-10-27 11:00:48.48,111,-76,-2052,-8,52,25,-147,38,-185,54
,753,2023-10-27 11:00:48.49,119,-74,-2061,-13,48,21,-36,104,-140,-34
,754,2023-10-27 11:00:48.50,122,-82,-2058,-15,44,19,-141,42,-183,49
,755,2023-10-27 11:00:48.51,133,-81,-2054,-13,38,17,-36,98,-134,-31
,756,2023-10-27 11:00:48.52,128,-81,-2055,-7,34,12,-138,45,-183,46
,757,2023-10-27 11:00:48.53,122,-80,-2059,-2,30,11,-36,104,-140,-34
,758,2023-10-27 11:00:48.54,132,-92,-2052,2,28,6,-132,54,-186,39
,759,2023-10-27 11:00:48.55,124,-89,-2055,12,24,-1,-37,97,-134,-30
,760,2023-10-27 11:00:48.56,138,-84,-2056,21,22,-3,-131,57,-188,37
,761,2023-10-27 11:00:48.57,129,-86,-2056,23,18,0,-35,105,-140,-35
,762,2023-10-27 11:00:48.58,122,-87,-2058,25,18,-5,-114,72,-186,21
,763,2023-10-27 11:00:48.59,137,-87,-2055,27,16,-3,-33,101,-134,-34
,764,2023-10-27 11:00:48.60,134,-82,-2055,26,16,-5,-114,73,-187,20
,765,2023-10-27 11:00:48.61,132,-76,-2063,20,14,-4,-36,101,-137,-32
,766,2023-10-27 11:00:48.62,126,-92,-2053,17,11,-5,-108,72,-180,18
,767,2023-10-27 11:00:48.63,133,-109,-2061,18,11,1,-36,92,-128,-28
,768,2023-10-27 11:00:48.64,138,-88,-2045,19,14,6,-104,81,-185,11
,769,2023-10-27 11:00:48.65,142,-99,-2051,16,17,8,-36,95,-131,-29
,770,2023-10-27 11:00:48.66,140,-92,-2051,12,19,13,-104,80,-184,12
,771,2023-10-27 11:00:48.67,139,-88,-2048,12,20,13,-50,85,-135,-17
,772,2023-10-27 11:00:48.68,134,-86,-2057,13,20,15,-112,75,-187,18
,773,2023-10-27 11:00:48.69,133,-100,-2050,17,20,16,-62,66,-128,-2
,774,2023-10-27 11:00:48.70,144,-88,-2046,20,20,16,-125,64,-189,30
,775,2023-10-27 11:00:48.71,130,-93,-2052,18,20,14,-77,58,-135,9
,776,2023-10-27 11:00:48.72,137,-88,-2061,15,22,13,-121,69,-190,26
,777,2023-10-27 11:00:48.73,141,-86,-2062,15,22,13,-75,53,-128,11
,778,2023-10-27 11:00:48.74,145,-84,-2060,17,19,11,-123,68,-191,27
,779,2023-10-27 11:00:48.75,148,-82,-2046,15,18,11,-86,50,-136,18
,780,2023-10-27 11:00:48.76,147,-86,-2046,14,20,8,-124,65,-189,29
,781,2023-10-27 11:00:48.77,143,-81,-2049,10,26,6,-97,36,-133,30
,782,2023-10-27 11:00:48.78,141,-88,-2052,6,31,4,-122,70,-192,26
,783,2023-10-27 11:00:48.79,152,-90,-2052,5,34,2,-88,46,-134,21
,784,2023-10-27 11:00:48.80,124,-91,-2046,16,17,6,-117,76,-193,20
,785,2023-10-27 11:00:48.81,155,-84,-2059,27,-7,8,-99,38,-137,30
,786,2023-10-27 11:00:48.82,148,-92,-2059,15,26,7,-119,78,-197,20
,787,2023-10-27 11:00:48.83,132,-88,-2056,10,34,4,-96,36,-132,30
,788,2023-10-27 11:00:48.84,139,-85,-2056,5,35,5,-122,78,-200,22
,789,2023-10-27 11:00:48.85,132,-92,-2062,12,12,8,-106,31,-137,37
,790,2023-10-27 11:00:48.86,163,-91,-2059,23,-3,14,-111,82,-193,14
,791,2023-10-27 11:00:48.87,137,-90,-2056,20,3,15,-96,36,-132,30
,792,2023-10-27 11:00:48.88,145,-88,-2055,13,12,13,-88,107,-195,-9
,793,2023-10-27 11:00:48.89,133,-86,-2056,9,16,13,-88,47,-135,20
,794,2023-10-27 11:00:48.90,143,-88,-2049,8,16,14,-85,111,-196,-13
,795,2023-10-27 11:00:48.91,142,-87,-2049,12,13,13,-92,40,-132,26
,796,2023-10-27 11:00:48.92,135,-84,-2056,11,16,13,-78,117,-195,-19
,797,2023-10-27 11:00:48.93,152,-87,-2065,8,18,14,-91,40,-131,25
,798,2023-10-27 11:00:48.94,142,-84,-2059,6,13,15,-70,126,-196,-28
,799,2023-10-27 11:00:48.95,141,-86,-2056,12,3,16,-92,43,-135,24
,800,2023-10-27 11:00:48.96,149,-90,-2053,18,-7,16,-58,139,-197,-40
,801,2023-10-27 11:00:48.97,157,-85,-2047,13,2,15,-88,44,-132,22
,802,2023-10-27 11:00:48.98,141,-88,-2054,7,11,15,-54,141,-195,-43
,803,2023-10-27 11:00:48.99,148,-88,-2058,9,9,16,-91,40,-131,25
,804,2023-10-27 11:00:49.00,147,-94,-2059,13,4,15,-49,141,-190,-46
,805,2023-10-27 11:00:49.01,151,-93,-2058,15,4,17,-97,36,-133,30
,806,2023-10-27 11:00:49.02,145,-93,-2047,18,4,17,-49,149,-198,-50
,807,2023-10-27 11:00:49.03,162,-92,-2043,18,8,15,-95,37,-132,29
,808,2023-10-27 11:00:49.04,150,-86,-2054,15,13,14,-43,148,-191,-52
,809,2023-10-27 11:00:49.05,135,-105,-2063,16,7,16,-104,27,-131,38
,810,2023-10-27 11:00:49.06,152,-90,-2061,21,3,19,-53,143,-196,-45
,811,2023-10-27 11:00:49.07,146,-101,-2046,26,6,22,-118,11,-129,53
,812,2023-10-27 11:00:49.08,149,-106,-2054,26,8,25,-63,133,-196,-35
,813,2023-10-27 11:00:49.09,158,-104,-2054,23,6,30,-130,7,-137,61
,814,2023-10-27 11:00:49.10,144,-93,-2062,26,11,27,-66,134,-200,-34
,815,2023-10-27 11:00:49.11,157,-92,-2054,29,8,30,-136,-2,-134,69
,816,2023-10-27 11:00:49.12,155,-94,-2053,30,9,31,-67,133,-200,-33
,817,2023-10-27 11:00:49.13,159,-97,-2054,30,6,27,-142,-3,-139,72
,818,2023-10-27 11:00:49.14,156,-101,-2063,29,2,23,-70,130,-200,-30
,819,2023-10-27 11:00:49.15,142,-100,-2063,31,-3,25,-157,-15,-142,86
,820,2023-10-27 11:00:49.16,146,-100,-2060,35,-11,26,-81,122,-203,-20
,821,2023-10-27 11:00:49.17,141,-101,-2052,35,-16,27,-166,-23,-143,94
,822,2023-10-27 11:00:49.18,143,-97,-2045,33,-17,28,-79,125,-204,-23
,823,2023-10-27 11:00:49.19,142,-93,-2047,31,-15,27,-170,-23,-147,96
,824,2023-10-27 11:00:49.20,139,-92,-2048,26,-21,27,-76,130,-206,-27
,825,2023-10-27 11:00:49.21,143,-89,-2049,24,-24,24,-171,-23,-148,97
,826,2023-10-27 11:00:49.22,155,-96,-2047,23,-23,24,-71,138,-209,-33
,827,2023-10-27 11:00:49.23,148,-97,-2047,23,-23,25,-168,-18,-150,93
,828,2023-10-27 11:00:49.24,136,-105,-2055,24,-25,25,-52,158,-210,-53
,829,2023-10-27 11:00:49.25,147,-106,-2059,23,-26,27,-161,-15,-146,88
,830,2023-10-27 11:00:49.26,134,-98,-2059,23,-26,25,-49,154,-203,-52
,831,2023-10-27 11:00:49.27,136,-99,-2053,22,-24,25,-165,-25,-140,95
,832,2023-10-27 11:00:49.28,143,-98,-2052,23,-26,25,-42,162,-204,-60
,833,2023-10-27 11:00:49.29,146,-98,-2058,24,-22,25,-161,-12,-149,86
,834,2023-10-27 11:00:49.30,146,-108,-2057,27,-21,20,-37,170,-207,-66
,835,2023-10-27 11:00:49.31,150,-93,-2049,29,-19,19,-161,-9,-152,85
,836,2023-10-27 11:00:49.32,146,-104,-2054,29,-12,19,-30,172,-202,-71
,837,2023-10-27 11:00:49.33,146,-96,-2053,29,-9,16,-157,-8,-149,82
,838,2023-10-27 11:00:49.34,145,-103,-2049,26,-7,13,-16,184,-200,-84
,839,2023-10-27 11:00:49.35,128,-102,-2051,26,-9,13,-144,3,-147,70
,840,2023-10-27 11:00:49.36,126,-102,-2049,25,-12,14,-10,195,-205,-92
,841,2023-10-27 11:00:49.37,134,-119,-2056,28,-12,15,-146,3,-149,71
,842,2023-10-27 11:00:49.38,123,-117,-2058,30,-14,17,-2,197,-199,-97
,843,2023-10-27 11:00:49.39,134,-113,-2051,31,-18,20,-144,6,-150,69
,844,2023-10-27 11:00:49.40,135,-120,-2053,30,-17,20,2,200,-198,-101
,845,2023-10-27 11:00:49.41,127,-101,-2057,27,-17,24,-146,4,-150,71
,846,2023-10-27 11:00:49.42,130,-108,-2053,25,-18,25,-6,190,-196,-92
,847,2023-10-27 11:00:49.43,128,-107,-2061,22,-17,25,-160,-9,-151,84
,848,2023-10-27 11:00:49.44,120,-115,-2055,22,-18,24,-12,186,-198,-87
,849,2023-10-27 11:00:49.45,123,-112,-2055,20,-18,29,-168,-14,-154,91
,850,2023-10-27 11:00:49.46,126,-117,-2052,15,-17,28,-16,183,-199,-83
,851,2023-10-27 11:00:49.47,131,-112,-2058,13,-14,29,-176,-17,-159,96
,852,2023-10-27 11:00:49.48,127,-106,-2059,9,-13,30,-20,180,-200,-80
,853,2023-10-27 11:00:49.49,140,-105,-2041,8,-13,28,-182,-21,-161,101
,854,2023-10-27 11:00:49.50,127,-97,-2054,11,-13,25,-28,175,-203,-73
,855,2023-10-27 11:00:49.51,134,-90,-2047,7,-19,22,-198,-30,-168,114
,856,2023-10-27 11:00:49.52,135,-110,-2034,9,-22,23,-38,164,-202,-63
,857,2023-10-27 11:00:49.53,123,-113,-2045,18,-20,22,-197,-33,-164,115
,858,2023-10-27 11:00:49.54,151,-109,-2074,21,-11,20,-31,175,-206,-72
,859,2023-10-27 11:00:49.55,123,-145,-2038,13,8,16,-205,-30,-175,117
,860,2023-10-27 11:00:49.56,112,-144,-2051,20,5,21,-44,165,-209,-60
,861,2023-10-27 11:00:49.57,129,-132,-2055,31,10,28,-216,-41,-175,128
,862,2023-10-27 11:00:49.58,110,-158,-2034,48,5,33,-47,160,-207,-56
,863,2023-10-27 11:00:49.59,130,-141,-2045,64,-20,47,-216,-42,-174,129
,864,2023-10-27 11:00:49.60,122,-156,-2050,48,15,53,-48,160,-208,-56
,865,2023-10-27 11:00:49.61,95,-142,-2059,43,8,61,-224,-44,-180,134
,866,2023-10-27 11:00:49.62,116,-139,-2062,36,5,74,-55,157,-212,-51
,867,2023-10-27 11:00:49.63,105,-136,-2063,33,0,85,-228,-43,-185,135
,868,2023-10-27 11:00:49.64,117,-116,-2065,22,-1,91,-49,160,-209,-55
,869,2023-10-27 11:00:49.65,111,-108,-2081,1,13,95,-211,-30,-181,120
,870,2023-10-27 11:00:49.66,122,-91,-2090,-31,38,89,-34,178,-212,-72
,871,2023-10-27 11:00:49.67,122,-92,-2088,-57,48,84,-203,-15,-188,109
,872,2023-10-27 11:00:49.68,108,-80,-2096,-77,46,77,-28,176,-204,-74
,873,2023-10-27 11:00:49.69,94,-85,-2098,-84,31,72,-191,-4,-187,97
,874,2023-10-27 11:00:49.70,121,-89,-2081,-85,16,69,-5,198,-203,-96
,875,2023-10-27 11:00:49.71,134,-86,-2037,-81,4,71,-168,16,-184,76
,876,2023-10-27 11:00:49.72,143,-65,-2002,-76,-4,61,13,213,-200,-113
,877,2023-10-27 11:00:49.73,131,-54,-1982,-76,3,49,-166,20,-186,73
,878,2023-10-27 11:00:49.74,125,-56,-2008,-74,17,33,15,213,-198,-114
,879,2023-10-27 11:00:49.75,129,-68,-2033,-63,14,18,-167,18,-185,74
,880,2023-10-27 11:00:49.76,120,-77,-2046,-43,1,13,6,206,-200,-106
,881,2023-10-27 11:00:49.77,122,-79,-2058,-20,-16,8,-180,7,-187,86
,882,2023-10-27 11:00:49.78,111,-92,-2064,-4,-28,5,-15,187,-202,-86
,883,2023-10-27 11:00:49.79,97,-83,-2070,6,-35,1,-202,-7,-195,104
,884,2023-10-27 11:00:49.80,104,-87,-2062,14,-43,1,-32,169,-201,-68
,885,2023-10-27 11:00:49.81,122,-88,-2060,24,-44,4,-221,-24,-197,122
,886,2023-10-27 11:00:49.82,120,-80,-2028,24,-32,5,-56,145,-201,-44
,887,2023-10-27 11:00:49.83,132,-89,-2026,17,-12,5,-233,-39,-194,136
,888,2023-10-27 11:00:49.84,139,-90,-2034,0,30,2,-64,128,-192,-32
,889,2023-10-27 11:00:49.85,131,-99,-2050,-13,57,5,-247,-50,-197,148
,890,2023-10-27 11:00:49.86,123,-119,-2043,-10,55,13,-77,120,-197,-21
,891,2023-10-27 11:00:49.87,117,-118,-2052,20,8,29,-253,-52,-201,152
,892,2023-10-27 11:00:49.88,145,-107,-2065,46,-18,41,-78,122,-200,-22
,893,2023-10-27 11:00:49.89,154,-88,-2047,45,19,41,-250,-46,-204,148
,894,2023-10-27 11:00:49.90,141,-82,-2050,29,65,34,-82,120,-202,-19
,895,2023-10-27 11:00:49.91,127,-92,-2055,21,66,28,-258,-51,-207,154
,896,2023-10-27 11:00:49.92,144,-98,-2090,42,25,29,-90,109,-199,-9
,897,2023-10-27 11:00:49.93,137,-104,-2069,59,29,27,-273,-65,-208,169
,898,2023-10-27 11:00:49.94,124,-98,-2064,73,6,22,-116,85,-201,15
,899,2023-10-27 11:00:49.95,141,-94,-2055,73,-3,15,-293,-79,-214,186
,900,2023-10-27 11:00:49.96,126,-89,-2059,71,-5,13,-132,71,-203,30
,901,2023-10-27 11:00:49.97,125,-89,-2066,75,-15,4,-300,-80,-220,190
,902,2023-10-27 11:00:49.98,140,-93,-2056,79,-23,-1,-134,74,-208,30
,903,2023-10-27 11:00:49.99,128,-92,-2045,78,-16,-3,-289,-68,-221,178
,904,2023-10-27 11:00:50.00,140,-78,-2037,68,-9,-17,-120,88,-208,16
,905,2023-10-27 11:00:50.01,125,-93,-2064,51,0,-25,-275,-49,-226,162
,906,2023-10-27 11:00:50.02,120,-93,-2076,45,0,-27,-108,97,-205,5
,907,2023-10-27 11:00:50.03,131,-101,-2067,46,-7,-29,-255,-33,-222,144
,908,2023-10-27 11:00:50.04,129,-113,-2051,48,-5,-30,-89,112,-201,-11
,909,2023-10-27 11:00:50.05,141,-110,-2043,44,1,-29,-235,-13,-222,124
,910,2023-10-27 11:00:50.06,123,-116,-2043,39,9,-29,-58,139,-197,-40
,911,2023-10-27 11:00:50.07,132,-118,-2062,33,13,-29,-196,26,-222,85
,912,2023-10-27 11:00:50.08,118,-141,-2069,32,18,-22,-34,160,-194,-63
,913,2023-10-27 11:00:50.09,113,-141,-2075,34,10,-10,-174,39,-213,67
,914,2023-10-27 11:00:50.10,107,-133,-2062,35,7,5,-4,177,-181,-86
,915,2023-10-27 11:00:50.11,115,-150,-2050,34,6,16,-137,67,-204,35
,916,2023-10-27 11:00:50.12,118,-142,-2055,30,9,29,2,177,-175,-89
,917,2023-10-27 11:00:50.13,120,-134,-2039,28,12,43,-129,77,-206,26
,918,2023-10-27 11:00:50.14,121,-149,-2039,27,22,52,9,183,-174,-96
,919,2023-10-27 11:00:50.15,120,-146,-2053,22,30,62,-121,85,-206,18
,920,2023-10-27 11:00:50.16,119,-138,-2036,23,36,70,14,184,-170,-99
,921,2023-10-27 11:00:50.17,118,-132,-2042,27,35,75,-101,102,-203,0
,922,2023-10-27 11:00:50.18,136,-112,-2032,28,35,77,34,199,-165,-116
,923,2023-10-27 11:00:50.19,133,-113,-2029,27,39,72,-78,119,-197,-20
,924,2023-10-27 11:00:50.20,135,-114,-2034,25,41,66,46,200,-154,-123
,925,2023-10-27 11:00:50.21,134,-127,-2040,27,40,60,-76,116,-192,-20
,926,2023-10-27 11:00:50.22,143,-119,-2041,28,41,54,35,186,-151,-110
,927,2023-10-27 11:00:50.23,135,-117,-2039,32,39,46,-84,104,-188,-10
,928,2023-10-27 11:00:50.24,151,-113,-2042,32,40,38,22,170,-148,-96
,929,2023-10-27 11:00:50.25,144,-115,-2052,26,47,30,-101,92,-193,4
,930,2023-10-27 11:00:50.26,159,-106,-2057,20,56,18,-1,149,-150,-74
,931,2023-10-27 11:00:50.27,146,-108,-2061,15,62,9,-111,83,-194,14
,932,2023-10-27 11:00:50.28,144,-104,-2064,7,65,2,-5,145,-150,-70
,933,2023-10-27 11:00:50.29,151,-105,-2062,1,65,-2,-105,91,-196,7
,934,2023-10-27 11:00:50.30,163,-116,-2067,-5,65,-8,-10,142,-152,-66
,935,2023-10-27 11:00:50.31,146,-113,-2064,-10,66,-13,-117,84,-201,16
,936,2023-10-27 11:00:50.32,145,-122,-2055,-6,56,-15,-26,127,-153,-50
,937,2023-10-27 11:00:50.33,151,-126,-2066,-4,58,-12,-126,76,-202,25
,938,2023-10-27 11:00:50.34,156,-131,-2058,4,47,-11,-39,116,-155,-38
,939,2023-10-27 11:00:50.35,160,-117,-2055,13,42,-11,-131,76,-207,27
,940,2023-10-27 11:00:50.36,159,-125,-2047,22,34,-11,-45,112,-157,-33
,941,2023-10-27 11:00:50.37,135,-130,-2053,32,26,-7,-131,76,-207,27
,942,2023-10-27 11:00:50.38,143,-130,-2055,38,18,-4,-54,102,-156,-24
,943,2023-10-27 11:00:50.39,157,-138,-2052,48,4,4,-141,67,-208,37
,944,2023-10-27 11:00:50.40,151,-134,-2040,55,1,7,-67,90,-157,-11
,945,2023-10-27 11:00:50.41,164,-141,-2034,58,5,11,-137,73,-210,32
,946,2023-10-27 11:00:50.42,161,-137,-2042,57,10,11,-64,92,-156,-14
,947,2023-10-27 11:00:50.43,146,-140,-2042,57,8,16,-131,80,-211,25
,948,2023-10-27 11:00:50.44,155,-137,-2057,61,9,19,-68,89,-157,-10
,949,2023-10-27 11:00:50.45,151,-141,-2064,64,1,22,-130,81,-211,24
,950,2023-10-27 11:00:50.46,139,-149,-2065,66,-3,27,-70,88,-158,-9
,951,2023-10-27 11:00:50.47,152,-145,-2063,62,-10,31,-112,101,-213,5
,952,2023-10-27 11:00:50.48,136,-136,-2054,60,-13,37,-66,87,-153,-10
,953,2023-10-27 11:00:50.49,146,-137,-2060,57,-16,39,-119,94,-213,12
,954,2023-10-27 11:00:50.50,151,-144,-2051,54,-18,40,-84,67,-151,8
,955,2023-10-27 11:00:50.51,149,-142,-2045,52,-11,42,-115,103,-218,6
,956,2023-10-27 11:00:50.52,142,-151,-2048,45,-5,42,-68,86,-154,-9
,957,2023-10-27 11:00:50.53,168,-140,-2048,39,1,41,-104,112,-216,-4
,958,2023-10-27 11:00:50.54,148,-144,-2050,33,9,41,-62,89,-151,-13
,959,2023-10-27 11:00:50.55,152,-139,-2049,28,10,39,-85,125,-210,-20
,960,2023-10-27 11:00:50.56,142,-142,-2052,28,10,38,-54,91,-145,-18
,961,2023-10-27 11:00:50.57,148,-147,-2057,25,4,41,-74,138,-212,-32
,962,2023-10-27 11:00:50.58,138,-152,-2048,25,-2,44,-51,95,-146,-22
,963,2023-10-27 11:00:50.59,145,-153,-2039,27,0,43,-70,142,-212,-36
,964,2023-10-27 11:00:50.60,140,-151,-2045,24,3,43,-60,86,-146,-13
,965,2023-10-27 11:00:50.61,151,-142,-2039,21,7,40,-73,138,-211,-32
,966,2023-10-27 11:00:50.62,154,-132,-2042,22,11,39,-65,79,-144,-7
,967,2023-10-27 11:00:50.63,148,-133,-2048,23,15,38,-76,134,-210,-29
,968,2023-10-27 11:00:50.64,159,-130,-2044,23,13,33,-80,67,-147,6
,969,2023-10-27 11:00:50.65,152,-132,-2053,21,15,24,-88,125,-213,-18
,970,2023-10-27 11:00:50.66,158,-130,-2054,20,12,19,-84,57,-141,13
,971,2023-10-27 11:00:50.67,146,-135,-2046,21,8,17,-75,132,-207,-28
,972,2023-10-27 11:00:50.68,149,-138,-2060,23,6,15,-87,58,-145,14
,973,2023-10-27 11:00:50.69,148,-145,-2046,25,0,13,-81,130,-211,-24
,974,2023-10-27 11:00:50.70,150,-146,-2055,25,3,13,-98,48,-146,25
,975,2023-10-27 11:00:50.71,157,-142,-2045,21,3,10,-84,123,-207,-19
,976,2023-10-27 11:00:50.72,174,-135,-2039,15,17,10,-105,36,-141,34
,977,2023-10-27 11:00:50.73,146,-154,-2042,11,21,7,-88,124,-212,-18
,978,2023-10-27 11:00:50.74,158,-161,-2039,15,18,9,-117,31,-148,43
,979,2023-10-27 11:00:50.75,155,-167,-2055,21,22,12,-92,123,-215,-15
,980,2023-10-27 11:00:50.76,155,-162,-2046,26,17,16,-119,32,-151,43
,981,2023-10-27 11:00:50.77,161,-164,-2052,24,26,15,-79,137,-216,-29
,982,2023-10-27 11:00:50.78,166,-164,-2043,25,40,17,-113,34,-147,39
,983,2023-10-27 11:00:50.79,153,-157,-2054,22,44,19,-67,149,-216,-41
,984,2023-10-27 11:00:50.80,169,-150,-2060,17,49,20,-109,40,-149,34
,985,2023-10-27 11:00:50.81,163,-142,-2064,15,48,19,-57,158,-215,-50
,986,2023-10-27 11:00:50.82,148,-146,-2072,12,43,17,-106,43,-149,31
,987,2023-10-27 11:00:50.83,148,-133,-2067,7,34,18,-48,172,-220,-62
,988,2023-10-27 11:00:50.84,168,-132,-2053,3,28,13,-105,52,-157,26
,989,2023-10-27 11:00:50.85,179,-134,-2037,-9,23,2,-43,181,-224,-69
,990,2023-10-27 11:00:50.86,176,-133,-2042,-10,24,-3,-107,50,-157,28
,991,2023-10-27 11:00:50.87,175,-134,-2045,-7,20,-11,-40,182,-222,-71
,992,2023-10-27 11:00:50.88,173,-143,-2050,0,17,-16,-104,52,-156,26
,993,2023-10-27 11:00:50.89,178,-142,-2048,5,9,-15,-31,190,-221,-79
,994,2023-10-27 11:00:50.90,184,-146,-2047,12,7,-20,-102,48,-150,27
,995,2023-10-27 11:00:50.91,173,-145,-2063,15,3,-20,-28,182,-210,-77
,996,2023-10-27 11:00:50.92,160,-154,-2059,21,-8,-19,-104,45,-149,29
,997,2023-10-27 11:00:50.93,160,-157,-2068,30,-20,-14,-11,196,-207,-92
,998,2023-10-27 11:00:50.94,141,-159,-2068,34,-36,-4,-96,45,-141,25
,999,2023-10-27 11:00:50.95,165,-164,-2058,40,-46,5,-6,201,-207,-97
,1000,2023-10-27 11:00:50.96,157,-166,-2051,38,-47,16,-107,37,-144,35
,1001,2023-10-27 11:00:50.97,198,-140,-2082,18,-4,16,-10,190,-200,-90
,1002,2023-10-27 11:00:50.98,133,-177,-2038,-1,7,18,-113,27,-140,43
,1003,2023-10-27 11:00:50.99,163,-185,-2050,1,14,28,-8,191,-199,-91
,1004,2023-10-27 11:00:51.00,145,-186,-2040,22,-14,38,-112,26,-138,43
,1005,2023-10-27 11:00:51.01,171,-177,-2027,40,-19,51,-8,192,-200,-92
,1006,2023-10-27 11:00:51.02,151,-163,-2026,40,-2,57,-126,17,-143,54
,1007,2023-10-27 11:00:51.03,154,-154,-2036,24,14,57,-19,182,-201,-81
,1008,2023-10-27 11:00:51.04,147,-155,-2052,15,22,57,-136,12,-148,62
,1009,2023-10-27 11:00:51.05,154,-146,-2054,20,14,58,-17,182,-199,-82
,1010,2023-10-27 11:00:51.06,141,-143,-2051,23,1,59,-137,10,-147,63
,1011,2023-10-27 11:00:51.07,147,-135,-2050,20,-8,51,-22,180,-202,-79
,1012,2023-10-27 11:00:51.08,145,-137,-2045,11,-12,45,-153,-3,-150,78
,1013,2023-10-27 11:00:51.09,153,-145,-2059,11,-16,40,-33,171,-204,-69
,1014,2023-10-27 11:00:51.10,145,-141,-2047,16,-23,33,-166,-14,-152,90
,1015,2023-10-27 11:00:51.11,164,-145,-2042,16,-20,24,-38,164,-202,-63
,1016,2023-10-27 11:00:51.12,153,-141,-2047,13,-10,13,-168,-15,-153,91
,1017,2023-10-27 11:00:51.13,164,-146,-2050,2,9,6,-36,169,-205,-66
,1018,2023-10-27 11:00:51.14,158,-146,-2058,1,5,1,-170,-13,-157,91
,1019,2023-10-27 11:00:51.15,150,-148,-2051,6,1,-4,-28,180,-208,-76
,1020,2023-10-27 11:00:51.16,155,-147,-2049,11,-15,-5,-161,-5,-156,83
,1021,2023-10-27 11:00:51.17,168,-145,-2055,8,-11,-4,-24,184,-208,-80
,1022,2023-10-27 11:00:51.18,139,-145,-2059,-1,-2,-6,-171,-9,-162,90
,1023,2023-10-27 11:00:51.19,149,-150,-2047,-8,-1,-5,-22,186,-208,-82
,1024,2023-10-27 11:00:51.20,160,-150,-2058,-9,-10,1,-166,-6,-160,86
,1025,2023-10-27 11:00:51.21,161,-154,-2052,-11,-11,4,-11,188,-199,-88
,1026,2023-10-27 11:00:51.22,161,-157,-2047,-13,-8,7,-163,-7,-156,85
,1027,2023-10-27 11:00:51.23,138,-165,-2043,-12,-9,8,-8,195,-203,-93
,1028,2023-10-27 11:00:51.24,165,-155,-2052,-6,-13,16,-161,0,-161,80
,1029,2023-10-27 11:00:51.25,146,-169,-2038,2,-9,17,0,204,-204,-102
,1030,2023-10-27 11:00:51.26,162,-166,-2055,9,-11,24,-154,8,-162,73
,1031,2023-10-27 11:00:51.27,160,-167,-2048,19,-12,28,15,211,-196,-113
,1032,2023-10-27 11:00:51.28,158,-162,-2044,30,-12,33,-148,11,-159,68
,1033,2023-10-27 11:00:51.29,163,-164,-2042,39,-9,34,19,224,-205,-121
,1034,2023-10-27 11:00:51.30,151,-159,-2039,44,-6,36,-153,9,-162,72
,1035,2023-10-27 11:00:51.31,167,-162,-2054,47,-6,34,22,217,-195,-119
,1036,2023-10-27 11:00:51.32,150,-151,-2047,54,-4,32,-150,5,-155,72
,1037,2023-10-27 11:00:51.33,177,-140,-2044,60,-6,32,29,220,-191,-124
,1038,2023-10-27 11:00:51.34,159,-160,-2048,61,-6,27,-152,12,-164,70
,1039,2023-10-27 11:00:51.35,169,-156,-2055,48,11,23,13,218,-205,-115
,1040,2023-10-27 11:00:51.36,144,-157,-2053,37,15,16,-168,8,-176,80
,1041,2023-10-27 11:00:51.37,148,-161,-2062,34,10,14,0,206,-206,-103
,1042,2023-10-27 11:00:51.38,157,-165,-2055,37,-17,17,-174,-2,-172,88
,1043,2023-10-27 11:00:51.39,135,-171,-2052,39,-30,17,1,206,-205,-103
,1044,2023-10-27 11:00:51.40,128,-166,-2061,35,-41,19,-180,-2,-178,91
,1045,2023-10-27 11:00:51.41,138,-160,-2078,28,-45,14,-14,190,-204,-88
,1046,2023-10-27 11:00:51.42,155,-147,-2070,17,-41,10,-195,-18,-177,106
,1047,2023-10-27 11:00:51.43,136,-157,-2070,8,-44,3,-25,181,-206,-78
,1048,2023-10-27 11:00:51.44,137,-135,-2071,4,-57,-2,-206,-21,-185,113
,1049,2023-10-27 11:00:51.45,121,-152,-2071,-2,-56,-13,-33,174,-207,-70
,1050,2023-10-27 11:00:51.46,130,-156,-2095,-7,-58,-13,-216,-23,-193,119
,1051,2023-10-27 11:00:51.47,112,-149,-2097,-20,-56,-17,-31,180,-211,-74
,1052,2023-10-27 11:00:51.48,101,-165,-2084,-29,-54,-22,-213,-20,-193,116
,1053,2023-10-27 11:00:51.49,109,-172,-2064,-27,-55,-18,-39,167,-206,-64
,1054,2023-10-27 11:00:51.50,133,-176,-2024,-14,-58,-17,-217,-29,-188,123
,1055,2023-10-27 11:00:51.51,126,-185,-1983,11,-57,-18,-28,177,-205,-74
,1056,2023-10-27 11:00:51.52,154,-183,-1974,29,-48,-17,-221,-25,-196,123
,1057,2023-10-27 11:00:51.53,142,-182,-1973,46,-31,-18,-52,162,-214,-55
,1058,2023-10-27 11:00:51.54,160,-168,-1961,61,-11,-21,-241,-34,-207,137
,1059,2023-10-27 11:00:51.55,154,-166,-1990,74,3,-23,-48,163,-211,-57
,1060,2023-10-27 11:00:51.56,164,-172,-2017,73,16,-24,-226,-32,-194,129
,1061,2023-10-27 11:00:51.57,149,-170,-2040,68,31,-18,-36,158,-194,-61
,1062,2023-10-27 11:00:51.58,162,-168,-2041,57,42,-11,-217,-33,-184,125
,1063,2023-10-27 11:00:51.59,156,-187,-2057,42,54,-2,-38,150,-188,-56
,1064,2023-10-27 11:00:51.60,167,-187,-2061,26,60,8,-223,-36,-187,129
,1065,2023-10-27 11:00:51.61,172,-180,-2052,8,69,19,-40,153,-193,-56
,1066,2023-10-27 11:00:51.62,171,-176,-2050,-6,82,30,-214,-22,-192,118
,1067,2023-10-27 11:00:51.63,190,-159,-2061,-22,83,38,-25,171,-196,-73
,1068,2023-10-27 11:00:51.64,181,-152,-2073,-40,84,45,-196,2,-198,97
,1069,2023-10-27 11:00:51.65,167,-151,-2077,-50,74,52,-9,187,-196,-89
,1070,2023-10-27 11:00:51.66,152,-145,-2077,-48,29,62,-170,23,-193,73
,1071,2023-10-27 11:00:51.67,174,-122,-2082,-43,-8,68,23,204,-181,-113
,1072,2023-10-27 11:00:51.68,165,-120,-2067,-48,-19,69,-140,49,-189,45
,1073,2023-10-27 11:00:51.69,175,-106,-2087,-61,-30,65,46,227,-181,-136
,1074,2023-10-27 11:00:51.70,153,-114,-2083,-79,-22,56,-112,81,-193,15
,1075,2023-10-27 11:00:51.71,143,-119,-2096,-78,-49,47,58,240,-182,-149
,1076,2023-10-27 11:00:51.72,139,-130,-2087,-61,-94,44,-109,79,-188,15
,1077,2023-10-27 11:00:51.73,113,-136,-2070,-33,-139,39,58,222,-164,-140
,1078,2023-10-27 11:00:51.74,107,-143,-2070,-7,-174,38,-112,77,-189,17
,1079,2023-10-27 11:00:51.75,106,-159,-2058,15,-198,35,45,223,-178,-134
,1080,2023-10-27 11:00:51.76,94,-162,-2074,40,-217,38,-137,59,-196,39
,1081,2023-10-27 11:00:51.77,128,-132,-2117,24,-175,29,18,195,-177,-106
,1082,2023-10-27 11:00:51.78,66,-179,-2037,1,-130,12,-158,38,-196,60
,1083,2023-10-27 11:00:51.79,75,-167,-2054,-7,-110,15,-2,179,-181,-88
,1084,2023-10-27 11:00:51.80,59,-180,-2033,2,-113,18,-173,32,-205,70
,1085,2023-10-27 11:00:51.81,46,-182,-2041,37,-156,27,-15,170,-185,-77
,1086,2023-10-27 11:00:51.82,71,-182,-2028,56,-168,34,-182,25,-207,78
,1087,2023-10-27 11:00:51.83,62,-172,-2023,53,-142,40,-23,157,-180,-67
,1088,2023-10-27 11:00:51.84,58,-189,-2018,45,-122,47,-189,15,-204,87
,1089,2023-10-27 11:00:51.85,41,-195,-2029,34,-95,53,-41,144,-185,-51
,1090,2023-10-27 11:00:51.86,41,-202,-2033,42,-92,64,-204,8,-212,98
,1091,2023-10-27 11:00:51.87,58,-191,-2028,56,-97,77,-55,132,-187,-38
,1092,2023-10-27 11:00:51.88,67,-193,-2009,64,-79,90,-209,3,-212,103
,1093,2023-10-27 11:00:51.89,63,-184,-2014,65,-66,97,-57,122,-179,-32
,1094,2023-10-27 11:00:51.90,90,-176,-2010,49,-23,103,-202,10,-212,96
,1095,2023-10-27 11:00:51.91,70,-158,-2036,27,17,102,-50,133,-183,-41
,1096,2023-10-27 11:00:51.92,78,-153,-2043,14,36,98,-183,28,-211,77
,1097,2023-10-27 11:00:51.93,64,-148,-2049,4,44,96,-40,138,-178,-49
,1098,2023-10-27 11:00:51.94,65,-137,-2051,0,39,90,-175,35,-210,70
,1099,2023-10-27 11:00:51.95,72,-133,-2051,-2,33,84,-30,142,-172,-56
,1100,2023-10-27 11:00:51.96,71,-138,-2054,-7,26,74,-162,44,-206,59
,1101,2023-10-27 11:00:51.97,79,-125,-2050,-11,16,62,-26,143,-169,-58
,1102,2023-10-27 11:00:51.98,69,-131,-2054,-7,4,49,-158,47,-205,55
,1103,2023-10-27 11:00:51.99,98,-128,-2056,1,-8,37,-32,135,-167,-51
,1104,2023-10-27 11:00:52.00,90,-139,-2050,13,-23,25,-158,47,-205,55
,1105,2023-10-27 11:00:52.01,76,-152,-2044,22,-26,15,-29,138,-167,-54
,1106,2023-10-27 11:00:52.02,77,-166,-2041,25,-21,11,-146,60,-206,43
,1107,2023-10-27 11:00:52.03,86,-165,-2055,30,-18,5,-26,135,-161,-54
,1108,2023-10-27 11:00:52.04,81,-167,-2047,37,-11,2,-147,58,-205,44
,1109,2023-10-27 11:00:52.05,88,-170,-2046,41,-7,-1,-27,128,-155,-50
,1110,2023-10-27 11:00:52.06,79,-177,-2047,46,-5,-4,-138,62,-200,38
,1111,2023-10-27 11:00:52.07,77,-176,-2044,45,3,-1,-32,130,-162,-49
,1112,2023-10-27 11:00:52.08,92,-171,-2055,48,7,-2,-143,64,-207,39
,1113,2023-10-27 11:00:52.09,91,-158,-2041,48,8,1,-38,118,-156,-40
,1114,2023-10-27 11:00:52.10,89,-165,-2043,45,12,0,-142,60,-202,41
,1115,2023-10-27 11:00:52.11,84,-161,-2055,39,12,3,-34,123,-157,-44
,1116,2023-10-27 11:00:52.12,77,-169,-2060,30,13,6,-142,61,-203,40
,1117,2023-10-27 11:00:52.13,88,-176,-2055,28,11,11,-53,102,-155,-24
,1118,2023-10-27 11:00:52.14,96,-176,-2047,22,15,17,-150,48,-198,51
,1119,2023-10-27 11:00:52.15,87,-172,-2042,12,20,23,-53,98,-151,-22
,1120,2023-10-27 11:00:52.16,85,-168,-2053,3,21,27,-139,62,-201,38
,1121,2023-10-27 11:00:52.17,85,-175,-2056,0,13,31,-64,88,-152,-12
,1122,2023-10-27 11:00:52.18,91,-170,-2051,0,7,36,-145,59,-204,43
,1123,2023-10-27 11:00:52.19,84,-166,-2044,-3,6,39,-65,84,-149,-9
,1124,2023-10-27 11:00:52.20,76,-159,-2049,-7,7,38,-139,62,-201,38
,1125,2023-10-27 11:00:52.21,78,-164,-2057,-12,8,38,-65,81,-146,-8
,1126,2023-10-27 11:00:52.22,64,-165,-2066,-11,0,39,-135,70,-205,32
,1127,2023-10-27 11:00:52.23,84,-155,-2055,-7,-6,39,-72,82,-154,-5
,1128,2023-10-27 11:00:52.24,81,-158,-2052,-4,-9,36,-136,71,-207,32
,1129,2023-10-27 11:00:52.25,75,-157,-2039,-4,-8,35,-74,75,-149,0
,1130,2023-10-27 11:00:52.26,85,-168,-2036,-5,2,31,-134,72,-206,31
,1131,2023-10-27 11:00:52.27,89,-163,-2042,-9,14,28,-79,71,-150,4
,1132,2023-10-27 11:00:52.28,83,-165,-2038,-11,25,24,-134,81,-215,26
,1133,2023-10-27 11:00:52.29,88,-168,-2037,-14,36,19,-83,72,-155,5
,1134,2023-10-27 11:00:52.30,87,-163,-2034,-19,50,12,-126,87,-213,19
,1135,2023-10-27 11:00:52.31,43,-181,-2015,-5,23,15,-80,71,-151,4
,1136,2023-10-27 11:00:52.32,110,-154,-2074,7,3,21,-117,90,-207,13
,1137,2023-10-27 11:00:52.33,58,-166,-2043,-6,40,16,-88,65,-153,11
,1138,2023-10-27 11:00:52.34,87,-164,-2042,-8,27,17,-128,91,-219,18
,1139,2023-10-27 11:00:52.35,94,-176,-2052,-13,32,20,-95,62,-157,16
,1140,2023-10-27 11:00:52.36,86,-165,-2051,-13,45,20,-113,99,-212,7
,1141,2023-10-27 11:00:52.37,92,-155,-2050,-9,38,18,-87,59,-146,14
,1142,2023-10-27 11:00:52.38,116,-149,-2067,-4,33,16,-106,105,-211,0
,1143,2023-10-27 11:00:52.39,105,-153,-2069,1,32,11,-102,56,-158,23
,1144,2023-10-27 11:00:52.40,122,-153,-2075,-3,55,4,-128,99,-227,14
,1145,2023-10-27 11:00:52.41,90,-160,-2062,-6,63,0,-116,44,-160,36
,1146,2023-10-27 11:00:52.42,87,-158,-2070,5,30,-4,-106,104,-210,1
