// Data mode  : Full
// Data quality  : High
// Acceleration sensor's range  : 16g
// Gyroscope sensor's range  : 2000dps
//
//ARTIFACT,NUM,DATE,ACC_X,ACC_Y,ACC_Z,GYRO_X,GYRO_Y,GYRO_Z,EOG_L,EOG_R,EOG_H,EOG_V
,1,2023-10-27 11:15:28.41,219,-191,-2043,27,18,21,-357,-337,-20,347
,2,2023-10-27 11:15:28.42,217,-186,-2048,33,22,20,-319,-236,-83,277
,3,2023-10-27 11:15:28.43,224,-187,-2050,40,17,20,-371,-339,-32,355
,4,2023-10-27 11:15:28.44,224,-188,-2054,41,26,23,-314,-235,-79,274
,5,2023-10-27 11:15:28.45,212,-174,-2054,43,26,19,-367,-344,-23,355
,6,2023-10-27 11:15:28.46,223,-183,-2051,43,23,21,-310,-233,-77,271
,7,2023-10-27 11:15:28.47,199,-185,-2059,43,23,18,-378,-344,-34,361
,8,2023-10-27 11:15:28.48,207,-174,-2060,39,14,23,-309,-233,-76,271
,9,2023-10-27 11:15:28.49,207,-167,-2056,34,10,20,-376,-349,-27,362
,10,2023-10-27 11:15:28.50,207,-169,-2051,31,2,19,-300,-230,-70,265
,11,2023-10-27 11:15:28.51,218,-169,-2042,23,1,15,-379,-349,-30,364
,12,2023-10-27 11:15:28.52,216,-174,-2039,18,4,11,-300,-224,-76,262
,13,2023-10-27 11:15:28.53,208,-170,-2036,11,-1,7,-384,-350,-34,367
,14,2023-10-27 11:15:28.54,223,-170,-2043,11,-6,2,-298,-221,-77,259
,15,2023-10-27 11:15:28.55,214,-170,-2046,8,-3,0,-388,-352,-36,370
,16,2023-10-27 11:15:28.56,216,-163,-2050,0,-2,-6,-295,-221,-74,258
,17,2023-10-27 11:15:28.57,215,-167,-2041,-5,-5,-11,-384,-348,-36,366
,18,2023-10-27 11:15:28.58,215,-169,-2044,-8,-14,-13,-290,-220,-70,255
,19,2023-10-27 11:15:28.59,232,-165,-2052,-14,-12,-15,-394,-363,-31,378
,20,2023-10-27 11:15:28.60,220,-164,-2056,-22,-5,-17,-295,-239,-56,267
,21,2023-10-27 11:15:28.61,205,-172,-2041,-23,-16,-14,-404,-383,-21,393
,22,2023-10-27 11:15:28.62,240,-169,-2052,-24,-17,-11,-293,-243,-50,268
,23,2023-10-27 11:15:28.63,233,-180,-2044,-26,-4,-14,-407,-380,-27,393
,24,2023-10-27 11:15:28.64,224,-185,-2034,-28,5,-8,-289,-236,-53,262
,25,2023-10-27 11:15:28.65,222,-197,-2029,-24,7,-4,-404,-374,-30,389
,26,2023-10-27 11:15:28.66,227,-204,-2036,-14,7,4,-270,-222,-48,246
,27,2023-10-27 11:15:28.67,223,-192,-2037,-1,6,9,-392,-369,-23,380
,28,2023-10-27 11:15:28.68,230,-203,-2034,16,7,17,-264,-224,-40,244
,29,2023-10-27 11:15:28.69,199,-209,-2054,26,3,21,-394,-374,-20,384
,30,2023-10-27 11:15:28.70,217,-198,-2048,35,-1,26,-260,-219,-41,239
,31,2023-10-27 11:15:28.71,217,-188,-2058,46,-6,28,-396,-368,-28,382
,32,2023-10-27 11:15:28.72,211,-174,-2052,52,-8,27,-258,-210,-48,234
,33,2023-10-27 11:15:28.73,220,-169,-2044,52,-7,21,-397,-362,-35,379
,34,2023-10-27 11:15:28.74,213,-169,-2054,44,2,12,-256,-206,-50,231
,35,2023-10-27 11:15:28.75,205,-160,-2053,34,4,3,-401,-364,-37,382
,36,2023-10-27 11:15:28.76,218,-170,-2062,27,3,-3,-256,-208,-48,232
,37,2023-10-27 11:15:28.77,203,-181,-2061,22,2,-6,-405,-369,-36,387
,38,2023-10-27 11:15:28.78,205,-176,-2051,14,0,-9,-261,-217,-44,239
,39,2023-10-27 11:15:28.79,210,-179,-2035,2,5,-14,-413,-381,-32,397
,40,2023-10-27 11:15:28.80,219,-176,-2031,-10,11,-19,-258,-218,-40,238
,41,2023-10-27 11:15:28.81,217,-170,-2024,-24,14,-22,-411,-378,-33,394
,42,2023-10-27 11:15:28.82,233,-175,-2025,-31,25,-25,-244,-212,-32,228
,43,2023-10-27 11:15:28.83,237,-170,-2013,-45,38,-28,-402,-372,-30,387
,44,2023-10-27 11:15:28.84,224,-172,-2030,-56,46,-33,-238,-198,-40,218
,45,2023-10-27 11:15:28.85,211,-175,-2038,-62,50,-34,-406,-366,-40,386
,46,2023-10-27 11:15:28.86,213,-176,-2051,-54,32,-29,-242,-198,-44,220
,47,2023-10-27 11:15:28.87,231,-172,-2054,-44,21,-27,-411,-371,-40,391
,48,2023-10-27 11:15:28.88,226,-170,-2066,-45,22,-27,-242,-202,-40,222
,49,2023-10-27 11:15:28.89,217,-173,-2074,-42,17,-27,-412,-371,-41,391
,50,2023-10-27 11:15:28.90,218,-183,-2081,-37,9,-22,-233,-197,-36,215
,51,2023-10-27 11:15:28.91,232,-172,-2080,-30,6,-20,-410,-369,-41,389
,52,2023-10-27 11:15:28.92,218,-169,-2064,-26,12,-13,-228,-192,-36,210
,53,2023-10-27 11:15:28.93,210,-172,-2056,-24,13,-13,-410,-364,-46,387
,54,2023-10-27 11:15:28.94,227,-169,-2043,-21,13,-8,-227,-187,-40,207
,55,2023-10-27 11:15:28.95,226,-172,-2036,-16,17,-1,-412,-361,-51,386
,56,2023-10-27 11:15:28.96,230,-175,-2026,-7,20,-1,-232,-188,-44,210
,57,2023-10-27 11:15:28.97,229,-167,-2015,-2,30,2,-420,-363,-57,391
,58,2023-10-27 11:15:28.98,221,-171,-2015,1,43,4,-227,-182,-45,204
,59,2023-10-27 11:15:28.99,224,-177,-2029,5,51,7,-421,-362,-59,391
,60,2023-10-27 11:15:29.00,218,-163,-2022,7,53,7,-231,-190,-41,210
,61,2023-10-27 11:15:29.01,223,-146,-2037,12,53,9,-418,-369,-49,393
,62,2023-10-27 11:15:29.02,232,-143,-2043,11,49,5,-227,-201,-26,214
,63,2023-10-27 11:15:29.03,224,-145,-2053,7,46,-2,-424,-374,-50,399
,64,2023-10-27 11:15:29.04,225,-150,-2060,4,38,-5,-238,-203,-35,220
,65,2023-10-27 11:15:29.05,218,-146,-2065,5,27,-6,-432,-368,-64,400
,66,2023-10-27 11:15:29.06,226,-145,-2059,4,13,-10,-230,-197,-33,213
,67,2023-10-27 11:15:29.07,221,-151,-2058,2,4,-15,-417,-365,-52,391
,68,2023-10-27 11:15:29.08,236,-162,-2060,-2,2,-15,-217,-202,-15,209
,69,2023-10-27 11:15:29.09,238,-166,-2052,-2,6,-17,-425,-364,-61,394
,70,2023-10-27 11:15:29.10,231,-160,-2039,5,4,-19,-244,-198,-46,221
,71,2023-10-27 11:15:29.11,225,-164,-2035,9,7,-20,-442,-363,-79,402
,72,2023-10-27 11:15:29.12,236,-165,-2045,11,15,-20,-240,-202,-38,221
,73,2023-10-27 11:15:29.13,224,-173,-2043,14,19,-19,-430,-361,-69,395
,74,2023-10-27 11:15:29.14,247,-166,-2045,19,18,-19,-226,-200,-26,213
,75,2023-10-27 11:15:29.15,228,-168,-2044,23,17,-17,-424,-361,-63,392
,76,2023-10-27 11:15:29.16,240,-165,-2052,21,22,-15,-226,-203,-23,214
,77,2023-10-27 11:15:29.17,241,-164,-2045,17,27,-13,-424,-363,-61,393
,78,2023-10-27 11:15:29.18,229,-167,-2047,15,25,-11,-225,-207,-18,216
,79,2023-10-27 11:15:29.19,235,-155,-2050,14,22,-9,-422,-361,-61,391
,80,2023-10-27 11:15:29.20,241,-162,-2049,8,21,-8,-223,-209,-14,216
,81,2023-10-27 11:15:29.21,231,-161,-2047,6,22,-7,-417,-363,-54,390
,82,2023-10-27 11:15:29.22,238,-159,-2036,3,18,-7,-218,-210,-8,214
,83,2023-10-27 11:15:29.23,236,-161,-2030,3,19,-8,-415,-357,-58,386
,84,2023-10-27 11:15:29.24,241,-158,-2030,0,22,-9,-216,-208,-8,212
,85,2023-10-27 11:15:29.25,239,-160,-2038,-4,30,-15,-415,-356,-59,385
,86,2023-10-27 11:15:29.26,240,-152,-2036,-8,30,-17,-227,-212,-15,219
,87,2023-10-27 11:15:29.27,248,-150,-2044,-3,24,-22,-421,-356,-65,388
,88,2023-10-27 11:15:29.28,239,-156,-2051,-5,26,-25,-223,-214,-9,218
,89,2023-10-27 11:15:29.29,240,-150,-2048,-6,28,-28,-422,-353,-69,387
,90,2023-10-27 11:15:29.30,259,-162,-2044,-4,26,-29,-237,-215,-22,226
,91,2023-10-27 11:15:29.31,240,-160,-2043,-3,29,-33,-437,-354,-83,395
,92,2023-10-27 11:15:29.32,239,-169,-2043,-3,27,-33,-254,-221,-33,237
,93,2023-10-27 11:15:29.33,234,-166,-2047,2,29,-35,-440,-351,-89,395
,94,2023-10-27 11:15:29.34,234,-169,-2047,1,26,-32,-251,-218,-33,234
,95,2023-10-27 11:15:29.35,249,-165,-2050,5,21,-33,-430,-349,-81,389
,96,2023-10-27 11:15:29.36,238,-164,-2046,4,24,-34,-238,-222,-16,230
,97,2023-10-27 11:15:29.37,241,-157,-2044,2,21,-33,-422,-348,-74,385
,98,2023-10-27 11:15:29.38,243,-151,-2046,1,19,-32,-240,-224,-16,232
,99,2023-10-27 11:15:29.39,253,-163,-2052,-5,17,-33,-424,-342,-82,383
,100,2023-10-27 11:15:29.40,257,-150,-2052,-6,15,-35,-247,-228,-19,237
,101,2023-10-27 11:15:29.41,244,-153,-2041,-8,12,-34,-424,-342,-82,383
,102,2023-10-27 11:15:29.42,252,-159,-2046,-10,9,-36,-238,-226,-12,232
,103,2023-10-27 11:15:29.43,244,-161,-2041,-11,11,-40,-414,-339,-75,376
,104,2023-10-27 11:15:29.44,253,-161,-2039,-12,17,-43,-238,-228,-10,233
,105,2023-10-27 11:15:29.45,231,-175,-2044,-7,20,-42,-421,-342,-79,381
,106,2023-10-27 11:15:29.46,246,-166,-2046,-6,19,-43,-248,-230,-18,239
,107,2023-10-27 11:15:29.47,236,-153,-2060,-7,21,-48,-429,-336,-93,382
,108,2023-10-27 11:15:29.48,254,-155,-2043,-6,17,-50,-261,-231,-30,246
,109,2023-10-27 11:15:29.49,241,-154,-2049,-6,25,-53,-436,-334,-102,385
,110,2023-10-27 11:15:29.50,258,-156,-2029,-8,24,-55,-267,-233,-34,250
,111,2023-10-27 11:15:29.51,257,-162,-2032,-13,32,-57,-425,-330,-95,377
,112,2023-10-27 11:15:29.52,247,-159,-2042,-20,34,-57,-256,-237,-19,246
,113,2023-10-27 11:15:29.53,256,-142,-2045,-23,34,-61,-422,-331,-91,376
,114,2023-10-27 11:15:29.54,256,-145,-2045,-25,34,-63,-265,-238,-27,251
,115,2023-10-27 11:15:29.55,256,-149,-2043,-25,42,-64,-424,-323,-101,373
,116,2023-10-27 11:15:29.56,238,-155,-2047,-27,39,-65,-264,-236,-28,250
,117,2023-10-27 11:15:29.57,245,-161,-2057,-32,38,-62,-416,-322,-94,369
,118,2023-10-27 11:15:29.58,248,-151,-2054,-30,31,-61,-261,-248,-13,254
,119,2023-10-27 11:15:29.59,257,-143,-2039,-31,28,-57,-418,-326,-92,372
,120,2023-10-27 11:15:29.60,251,-145,-2035,-35,28,-56,-274,-253,-21,263
,121,2023-10-27 11:15:29.61,258,-149,-2035,-37,31,-57,-416,-326,-90,371
,122,2023-10-27 11:15:29.62,256,-144,-2040,-39,27,-55,-271,-259,-12,265
,123,2023-10-27 11:15:29.63,253,-142,-2042,-36,25,-54,-422,-326,-96,374
,124,2023-10-27 11:15:29.64,270,-142,-2041,-37,28,-54,-291,-261,-30,276
,125,2023-10-27 11:15:29.65,266,-136,-2047,-40,30,-53,-429,-323,-106,376
,126,2023-10-27 11:15:29.66,259,-133,-2053,-45,29,-53,-292,-266,-26,279
,127,2023-10-27 11:15:29.67,255,-138,-2056,-48,30,-49,-419,-321,-98,370
,128,2023-10-27 11:15:29.68,255,-131,-2059,-46,26,-46,-289,-272,-17,280
,129,2023-10-27 11:15:29.69,257,-135,-2048,-48,25,-42,-412,-327,-85,369
,130,2023-10-27 11:15:29.70,267,-130,-2046,-50,27,-41,-287,-277,-10,282
,131,2023-10-27 11:15:29.71,263,-130,-2047,-52,32,-42,-402,-312,-90,357
,132,2023-10-27 11:15:29.72,281,-119,-2042,-54,33,-37,-284,-267,-17,275
,133,2023-10-27 11:15:29.73,269,-126,-2044,-52,39,-35,-392,-306,-86,349
,134,2023-10-27 11:15:29.74,265,-124,-2035,-50,40,-33,-282,-277,-5,279
,135,2023-10-27 11:15:29.75,286,-119,-2027,-49,40,-30,-384,-309,-75,346
,136,2023-10-27 11:15:29.76,280,-115,-2039,-52,46,-26,-275,-277,2,276
,137,2023-10-27 11:15:29.77,269,-112,-2042,-50,42,-22,-386,-302,-84,344
,138,2023-10-27 11:15:29.78,292,-111,-2037,-48,46,-23,-299,-283,-16,291
,139,2023-10-27 11:15:29.79,276,-111,-2027,-46,44,-21,-390,-307,-83,348
,140,2023-10-27 11:15:29.80,270,-122,-2040,-36,32,-18,-290,-286,-4,288
,141,2023-10-27 11:15:29.81,284,-108,-2051,-34,29,-13,-368,-298,-70,333
,142,2023-10-27 11:15:29.82,280,-106,-2044,-28,23,-12,-279,-282,3,280
,143,2023-10-27 11:15:29.83,295,-114,-2067,-25,16,-11,-362,-288,-74,325
,144,2023-10-27 11:15:29.84,288,-110,-2057,-26,23,-12,-292,-286,-6,289
,145,2023-10-27 11:15:29.85,281,-110,-2070,-22,19,-14,-363,-288,-75,325
,146,2023-10-27 11:15:29.86,286,-116,-2065,-17,9,-12,-288,-286,-2,287
,147,2023-10-27 11:15:29.87,282,-108,-2066,-7,2,-13,-353,-279,-74,316
,148,2023-10-27 11:15:29.88,269,-115,-2059,3,-11,-15,-289,-286,-3,287
,149,2023-10-27 11:15:29.89,275,-108,-2043,8,-15,-18,-358,-274,-84,316
,150,2023-10-27 11:15:29.90,283,-109,-2040,16,-16,-22,-304,-289,-15,296
,151,2023-10-27 11:15:29.91,283,-113,-2032,17,-20,-25,-383,-275,-108,329
,152,2023-10-27 11:15:29.92,280,-115,-2040,25,-22,-29,-341,-296,-45,318
,153,2023-10-27 11:15:29.93,275,-117,-2039,29,-23,-29,-387,-282,-105,334
,154,2023-10-27 11:15:29.94,267,-118,-2035,28,-22,-29,-334,-309,-25,321
,155,2023-10-27 11:15:29.95,271,-121,-2042,25,-15,-29,-373,-281,-92,327
,156,2023-10-27 11:15:29.96,282,-129,-2043,18,-7,-29,-329,-308,-21,318
,157,2023-10-27 11:15:29.97,260,-115,-2041,9,1,-25,-369,-275,-94,322
,158,2023-10-27 11:15:29.98,276,-120,-2039,0,8,-23,-337,-309,-28,323
,159,2023-10-27 11:15:29.99,268,-117,-2047,-12,15,-21,-365,-270,-95,317
,160,2023-10-27 11:15:30.00,272,-124,-2043,-23,28,-16,-333,-312,-21,322
,161,2023-10-27 11:15:30.01,283,-115,-2046,-31,35,-13,-370,-264,-106,317
,162,2023-10-27 11:15:30.02,282,-110,-2041,-43,43,-10,-354,-307,-47,330
,163,2023-10-27 11:15:30.03,280,-107,-2045,-49,50,-10,-366,-258,-108,312
,164,2023-10-27 11:15:30.04,279,-105,-2047,-55,52,-8,-344,-313,-31,328
,165,2023-10-27 11:15:30.05,266,-102,-2046,-57,51,-6,-350,-257,-93,303
,166,2023-10-27 11:15:30.06,268,-100,-2039,-53,42,-2,-343,-316,-27,329
,167,2023-10-27 11:15:30.07,271,-94,-2045,-46,30,1,-343,-255,-88,299
,168,2023-10-27 11:15:30.08,283,-96,-2043,-40,22,2,-342,-318,-24,330
,169,2023-10-27 11:15:30.09,284,-94,-2049,-39,20,1,-335,-249,-86,292
,170,2023-10-27 11:15:30.10,274,-90,-2048,-38,15,-2,-347,-320,-27,333
,171,2023-10-27 11:15:30.11,290,-92,-2050,-33,8,-1,-346,-250,-96,298
,172,2023-10-27 11:15:30.12,281,-85,-2048,-31,7,-4,-369,-323,-46,346
,173,2023-10-27 11:15:30.13,266,-92,-2058,-29,2,-7,-382,-238,-144,310
,174,2023-10-27 11:15:30.14,273,-90,-2065,-25,-9,-5,-408,-321,-87,364
,175,2023-10-27 11:15:30.15,275,-90,-2068,-23,-16,-7,-382,-240,-142,311
,176,2023-10-27 11:15:30.16,270,-86,-2062,-20,-25,-7,-398,-328,-70,363
,177,2023-10-27 11:15:30.17,268,-93,-2058,-11,-38,-4,-358,-242,-116,300
,178,2023-10-27 11:15:30.18,278,-94,-2066,-4,-47,-2,-384,-335,-49,359
,179,2023-10-27 11:15:30.19,282,-97,-2050,-2,-48,-4,-333,-240,-93,286
,180,2023-10-27 11:15:30.20,278,-100,-2052,1,-43,-7,-362,-330,-32,346
,181,2023-10-27 11:15:30.21,281,-106,-2047,7,-41,-10,-308,-224,-84,266
,182,2023-10-27 11:15:30.22,289,-94,-2034,10,-36,-16,-351,-323,-28,337
,183,2023-10-27 11:15:30.23,281,-86,-2021,17,-32,-21,-317,-226,-91,271
,184,2023-10-27 11:15:30.24,284,-86,-2013,20,-20,-28,-372,-334,-38,353
,185,2023-10-27 11:15:30.25,294,-86,-2010,15,-8,-39,-299,-226,-73,262
,186,2023-10-27 11:15:30.26,279,-75,-2018,15,-5,-47,-349,-330,-19,339
,187,2023-10-27 11:15:30.27,292,-83,-2022,16,-2,-56,-285,-222,-63,253
,188,2023-10-27 11:15:30.28,274,-88,-2032,20,-2,-60,-349,-330,-19,339
,189,2023-10-27 11:15:30.29,283,-85,-2042,18,-3,-63,-278,-201,-77,239
,190,2023-10-27 11:15:30.30,292,-89,-2051,17,-3,-67,-355,-315,-40,335
,191,2023-10-27 11:15:30.31,282,-79,-2053,16,-2,-68,-285,-199,-86,242
,192,2023-10-27 11:15:30.32,301,-75,-2056,11,-1,-70,-378,-335,-43,356
,193,2023-10-27 11:15:30.33,272,-97,-2071,-1,4,-72,-299,-238,-61,268
,194,2023-10-27 11:15:30.34,290,-96,-2077,-10,3,-67,-376,-362,-14,369
,195,2023-10-27 11:15:30.35,276,-98,-2071,-16,1,-62,-280,-216,-64,248
,196,2023-10-27 11:15:30.36,286,-105,-2067,-19,3,-54,-369,-329,-40,349
,197,2023-10-27 11:15:30.37,272,-104,-2058,-26,3,-47,-261,-180,-81,220
,198,2023-10-27 11:15:30.38,285,-88,-2046,-32,12,-44,-354,-309,-45,331
,199,2023-10-27 11:15:30.39,280,-89,-2047,-34,10,-44,-239,-165,-74,202
,200,2023-10-27 11:15:30.40,290,-79,-2040,-31,-5,-38,-343,-306,-37,324
,201,2023-10-27 11:15:30.41,257,-86,-2048,-20,-24,-34,-227,-163,-64,195
,202,2023-10-27 11:15:30.42,261,-96,-2056,-12,-41,-26,-348,-314,-34,331
,203,2023-10-27 11:15:30.43,251,-99,-2051,-3,-54,-18,-232,-176,-56,204
,204,2023-10-27 11:15:30.44,268,-122,-2032,5,-54,-7,-360,-322,-38,341
,205,2023-10-27 11:15:30.45,275,-107,-2023,13,-37,-8,-250,-183,-67,216
,206,2023-10-27 11:15:30.46,241,-84,-2063,17,-40,-2,-389,-328,-61,358
,207,2023-10-27 11:15:30.47,255,-94,-2057,16,-52,6,-302,-177,-125,239
,208,2023-10-27 11:15:30.48,265,-99,-2031,24,-55,10,-450,-319,-131,384
,209,2023-10-27 11:15:30.49,248,-90,-2038,31,-52,15,-384,-168,-216,276
,210,2023-10-27 11:15:30.50,260,-93,-2068,26,-42,19,-510,-337,-173,423
,211,2023-10-27 11:15:30.51,254,-77,-2096,-1,-21,20,-370,-200,-170,285
,212,2023-10-27 11:15:30.52,232,-107,-2022,-19,-11,18,-483,-348,-135,415
,213,2023-10-27 11:15:30.53,238,-98,-2037,-11,-11,27,-375,-184,-191,279
,214,2023-10-27 11:15:30.54,250,-102,-2055,7,-33,35,-510,-335,-175,422
,215,2023-10-27 11:15:30.55,248,-106,-2056,15,-35,38,-400,-179,-221,289
,216,2023-10-27 11:15:30.56,229,-98,-2051,17,-39,44,-535,-338,-197,436
,217,2023-10-27 11:15:30.57,249,-90,-2059,10,-28,46,-422,-184,-238,303
,218,2023-10-27 11:15:30.58,236,-92,-2056,6,-25,47,-559,-342,-217,450
,219,2023-10-27 11:15:30.59,252,-99,-2060,7,-22,46,-452,-188,-264,320
,220,2023-10-27 11:15:30.60,259,-79,-2044,7,-24,45,-589,-361,-228,475
,221,2023-10-27 11:15:30.61,264,-83,-2043,7,-13,38,-468,-211,-257,339
,222,2023-10-27 11:15:30.62,255,-76,-2042,6,-5,30,-580,-397,-183,488
,223,2023-10-27 11:15:30.63,258,-78,-2054,3,0,21,-370,-248,-122,309
,224,2023-10-27 11:15:30.64,268,-76,-2056,5,7,10,-488,-406,-82,447
,225,2023-10-27 11:15:30.65,245,-75,-2055,11,-7,2,-336,-225,-111,280
,226,2023-10-27 11:15:30.66,249,-70,-2046,23,-25,-4,-498,-384,-114,441
,227,2023-10-27 11:15:30.67,253,-82,-2055,29,-39,-10,-336,-213,-123,274
,228,2023-10-27 11:15:30.68,266,-79,-2039,30,-44,-18,-487,-387,-100,437
,229,2023-10-27 11:15:30.69,262,-87,-2037,32,-47,-22,-311,-219,-92,265
,230,2023-10-27 11:15:30.70,257,-86,-2031,36,-40,-27,-476,-392,-84,434
,231,2023-10-27 11:15:30.71,259,-97,-2040,32,-31,-32,-324,-228,-96,276
,232,2023-10-27 11:15:30.72,256,-100,-2031,28,-20,-36,-492,-403,-89,447
,233,2023-10-27 11:15:30.73,254,-91,-2036,22,-15,-34,-300,-236,-64,268
,234,2023-10-27 11:15:30.74,260,-93,-2039,18,-13,-33,-457,-403,-54,430
,235,2023-10-27 11:15:30.75,262,-104,-2041,12,-12,-30,-271,-235,-36,253
,236,2023-10-27 11:15:30.76,262,-99,-2045,5,-9,-25,-458,-400,-58,429
,237,2023-10-27 11:15:30.77,260,-97,-2053,-2,-5,-23,-293,-228,-65,260
,238,2023-10-27 11:15:30.78,256,-95,-2059,-13,2,-19,-476,-391,-85,433
,239,2023-10-27 11:15:30.79,260,-87,-2063,-17,-3,-17,-296,-219,-77,257
,240,2023-10-27 11:15:30.80,270,-89,-2060,-17,-11,-18,-477,-382,-95,429
,241,2023-10-27 11:15:30.81,244,-83,-2065,-16,-14,-17,-302,-208,-94,255
,242,2023-10-27 11:15:30.82,256,-83,-2067,-18,-15,-18,-480,-373,-107,426
,243,2023-10-27 11:15:30.83,244,-86,-2077,-22,-20,-20,-296,-201,-95,248
,244,2023-10-27 11:15:30.84,245,-82,-2077,-23,-29,-20,-466,-366,-100,416
,245,2023-10-27 11:15:30.85,233,-95,-2078,-18,-40,-18,-266,-198,-68,232
,246,2023-10-27 11:15:30.86,238,-89,-2074,-11,-56,-16,-446,-366,-80,406
,247,2023-10-27 11:15:30.87,237,-83,-2064,-5,-70,-15,-264,-200,-64,232
,248,2023-10-27 11:15:30.88,217,-82,-2072,-3,-82,-13,-461,-372,-89,416
,249,2023-10-27 11:15:30.89,219,-76,-2063,3,-99,-12,-276,-224,-52,250
,250,2023-10-27 11:15:30.90,252,-107,-2032,12,-109,-4,-468,-396,-72,432
,251,2023-10-27 11:15:30.91,255,-56,-2109,-13,-22,-19,-276,-236,-40,256
,252,2023-10-27 11:15:30.92,155,-91,-2053,-53,-39,-26,-458,-395,-63,426
,253,2023-10-27 11:15:30.93,238,-102,-2048,-50,-60,-10,-263,-237,-26,250
,254,2023-10-27 11:15:30.94,201,-107,-2027,-4,-95,1,-455,-395,-60,425
,255,2023-10-27 11:15:30.95,229,-95,-1991,9,-95,7,-259,-237,-22,248
,256,2023-10-27 11:15:30.96,232,-85,-1993,8,-66,4,-449,-392,-57,420
,257,2023-10-27 11:15:30.97,224,-89,-2003,-3,-33,-3,-256,-236,-20,246
,258,2023-10-27 11:15:30.98,195,-88,-2031,0,-38,-2,-439,-386,-53,412
,259,2023-10-27 11:15:30.99,229,-81,-2046,5,-42,3,-237,-228,-9,232
,260,2023-10-27 11:15:31.00,201,-75,-2028,0,-29,2,-429,-383,-46,406
,261,2023-10-27 11:15:31.01,195,-85,-2044,-14,-27,7,-240,-233,-7,236
,262,2023-10-27 11:15:31.02,185,-84,-2056,-34,-31,14,-434,-382,-52,408
,263,2023-10-27 11:15:31.03,205,-86,-2089,-41,-42,22,-245,-235,-10,240
,264,2023-10-27 11:15:31.04,201,-88,-2078,-46,-52,34,-434,-371,-63,402
,265,2023-10-27 11:15:31.05,201,-73,-2050,-57,-61,43,-250,-221,-29,235
,266,2023-10-27 11:15:31.06,214,-68,-2048,-73,-53,48,-444,-360,-84,402
,267,2023-10-27 11:15:31.07,207,-69,-2044,-87,-43,50,-253,-218,-35,235
,268,2023-10-27 11:15:31.08,227,-56,-2030,-97,-29,51,-437,-361,-76,399
,269,2023-10-27 11:15:31.09,239,-59,-2020,-101,-11,48,-241,-218,-23,229
,270,2023-10-27 11:15:31.10,203,-65,-2043,-101,3,43,-433,-352,-81,392
,271,2023-10-27 11:15:31.11,207,-57,-2052,-100,8,36,-239,-217,-22,228
,272,2023-10-27 11:15:31.12,232,-49,-2071,-88,13,31,-426,-350,-76,388
,273,2023-10-27 11:15:31.13,225,-44,-2068,-67,7,22,-228,-207,-21,217
,274,2023-10-27 11:15:31.14,243,-31,-2047,-50,5,7,-416,-339,-77,377
,275,2023-10-27 11:15:31.15,239,-31,-2034,-39,5,-12,-227,-207,-20,217
,276,2023-10-27 11:15:31.16,241,-41,-2049,-23,22,-28,-413,-338,-75,375
,277,2023-10-27 11:15:31.17,234,-49,-2064,-5,29,-44,-227,-214,-13,220
,278,2023-10-27 11:15:31.18,250,-66,-2044,19,32,-57,-419,-344,-75,381
,279,2023-10-27 11:15:31.19,245,-66,-2047,42,37,-72,-237,-225,-12,231
,280,2023-10-27 11:15:31.20,233,-74,-2048,59,42,-81,-411,-342,-69,376
,281,2023-10-27 11:15:31.21,252,-64,-2044,75,47,-90,-219,-214,-5,216
,282,2023-10-27 11:15:31.22,226,-66,-2031,98,41,-98,-408,-332,-76,370
,283,2023-10-27 11:15:31.23,248,-66,-2038,127,1,-98,-239,-223,-16,231
,284,2023-10-27 11:15:31.24,273,-63,-2043,133,11,-103,-427,-343,-84,385
,285,2023-10-27 11:15:31.25,213,-62,-2046,112,46,-111,-254,-239,-15,246
,286,2023-10-27 11:15:31.26,221,-74,-2053,93,43,-109,-420,-346,-74,383
,287,2023-10-27 11:15:31.27,221,-82,-2071,72,32,-101,-241,-235,-6,238
,288,2023-10-27 11:15:31.28,218,-87,-2091,59,14,-88,-405,-339,-66,372
,289,2023-10-27 11:15:31.29,185,-78,-2082,48,-18,-71,-230,-234,4,232
,290,2023-10-27 11:15:31.30,193,-82,-2082,32,-46,-54,-399,-335,-64,367
,291,2023-10-27 11:15:31.31,187,-76,-2082,10,-67,-31,-236,-238,2,237
,292,2023-10-27 11:15:31.32,190,-72,-2075,-12,-90,-13,-402,-334,-68,368
,293,2023-10-27 11:15:31.33,178,-79,-2072,-27,-112,5,-240,-243,3,241
,294,2023-10-27 11:15:31.34,191,-73,-2062,-40,-127,23,-404,-332,-72,368
,295,2023-10-27 11:15:31.35,190,-77,-2054,-52,-133,38,-250,-243,-7,246
,296,2023-10-27 11:15:31.36,188,-70,-2051,-64,-133,50,-400,-330,-70,365
,297,2023-10-27 11:15:31.37,198,-60,-2049,-68,-130,56,-245,-251,6,248
,298,2023-10-27 11:15:31.38,189,-66,-2050,-74,-118,56,-391,-333,-58,362
,299,2023-10-27 11:15:31.39,210,-78,-2006,-71,-107,51,-238,-255,17,246
,300,2023-10-27 11:15:31.40,188,-47,-2046,-66,-71,50,-387,-327,-60,357
,301,2023-10-27 11:15:31.41,159,-43,-2088,-74,-62,46,-242,-252,10,247
,302,2023-10-27 11:15:31.42,182,-62,-2054,-78,-65,45,-389,-325,-64,357
,303,2023-10-27 11:15:31.43,191,-46,-2043,-60,-57,44,-248,-254,6,251
,304,2023-10-27 11:15:31.44,187,-54,-2048,-40,-58,39,-398,-336,-62,367
,305,2023-10-27 11:15:31.45,187,-50,-2047,-32,-52,33,-260,-272,12,266
,306,2023-10-27 11:15:31.46,202,-39,-2041,-25,-28,24,-392,-329,-63,360
,307,2023-10-27 11:15:31.47,195,-42,-2036,-12,-15,12,-258,-268,10,263
,308,2023-10-27 11:15:31.48,189,-48,-2034,3,-8,4,-401,-326,-75,363
,309,2023-10-27 11:15:31.49,190,-50,-2042,16,-5,-3,-290,-274,-16,282
,310,2023-10-27 11:15:31.50,190,-51,-2044,25,2,-11,-409,-319,-90,364
,311,2023-10-27 11:15:31.51,177,-47,-2051,34,7,-17,-283,-268,-15,275
,312,2023-10-27 11:15:31.52,177,-45,-2049,39,10,-22,-396,-314,-82,355
,313,2023-10-27 11:15:31.53,190,-43,-2042,36,14,-26,-283,-277,-6,280
,314,2023-10-27 11:15:31.54,187,-46,-2038,27,23,-34,-392,-316,-76,354
,315,2023-10-27 11:15:31.55,181,-38,-2042,17,35,-40,-287,-287,0,287
,316,2023-10-27 11:15:31.56,187,-33,-2045,7,40,-47,-393,-317,-76,355
,317,2023-10-27 11:15:31.57,184,-33,-2050,-3,47,-52,-291,-282,-9,286
,318,2023-10-27 11:15:31.58,177,-41,-2055,-10,47,-57,-388,-302,-86,345
,319,2023-10-27 11:15:31.59,197,-34,-2054,-21,48,-58,-291,-280,-11,285
,320,2023-10-27 11:15:31.60,202,-31,-2055,-32,53,-60,-373,-295,-78,334
,321,2023-10-27 11:15:31.61,200,-39,-2054,-41,59,-65,-277,-279,2,278
,322,2023-10-27 11:15:31.62,197,-40,-2049,-48,62,-68,-363,-288,-75,325
,323,2023-10-27 11:15:31.63,191,-41,-2067,-49,63,-67,-280,-275,-5,277
,324,2023-10-27 11:15:31.64,187,-45,-2076,-50,57,-64,-364,-284,-80,324
,325,2023-10-27 11:15:31.65,197,-55,-2076,-44,47,-56,-290,-284,-6,287
,326,2023-10-27 11:15:31.66,205,-47,-2064,-35,32,-48,-361,-288,-73,324
,327,2023-10-27 11:15:31.67,197,-41,-2055,-27,20,-39,-295,-291,-4,293
,328,2023-10-27 11:15:31.68,203,-40,-2048,-23,15,-34,-374,-295,-79,334
,329,2023-10-27 11:15:31.69,198,-45,-2050,-20,11,-26,-321,-309,-12,315
,330,2023-10-27 11:15:31.70,202,-63,-2043,-6,6,-19,-376,-299,-77,337
,331,2023-10-27 11:15:31.71,214,-53,-2056,5,4,-11,-314,-310,-4,312
,332,2023-10-27 11:15:31.72,215,-45,-2040,8,16,-6,-363,-287,-76,325
,333,2023-10-27 11:15:31.73,198,-39,-2047,12,19,-1,-306,-301,-5,303
,334,2023-10-27 11:15:31.74,204,-42,-2047,15,16,5,-355,-280,-75,317
,335,2023-10-27 11:15:31.75,204,-46,-2055,17,13,10,-311,-309,-2,310
,336,2023-10-27 11:15:31.76,191,-55,-2061,23,12,18,-352,-282,-70,317
,337,2023-10-27 11:15:31.77,203,-50,-2061,28,12,21,-314,-313,-1,313
,338,2023-10-27 11:15:31.78,206,-46,-2058,27,10,26,-348,-284,-64,316
,339,2023-10-27 11:15:31.79,212,-41,-2058,30,5,28,-313,-326,13,319
,340,2023-10-27 11:15:31.80,208,-39,-2058,32,4,28,-337,-292,-45,314
,341,2023-10-27 11:15:31.81,198,-31,-2051,31,1,31,-311,-332,21,321
,342,2023-10-27 11:15:31.82,206,-36,-2061,30,-1,29,-328,-282,-46,305
,343,2023-10-27 11:15:31.83,212,-42,-2056,32,-3,31,-315,-329,14,322
,344,2023-10-27 11:15:31.84,208,-41,-2057,38,-8,32,-332,-276,-56,304
,345,2023-10-27 11:15:31.85,209,-55,-2058,42,-11,33,-340,-339,-1,339
,346,2023-10-27 11:15:31.86,189,-66,-2073,46,-16,36,-342,-271,-71,306
,347,2023-10-27 11:15:31.87,200,-48,-2049,47,-20,42,-339,-329,-10,334
,348,2023-10-27 11:15:31.88,194,-55,-2057,55,-18,40,-333,-265,-68,299
,349,2023-10-27 11:15:31.89,210,-47,-2058,54,-21,43,-337,-333,-4,335
,350,2023-10-27 11:15:31.90,197,-37,-2040,46,-20,42,-329,-265,-64,297
,351,2023-10-27 11:15:31.91,199,-45,-2057,45,-15,38,-343,-338,-5,340
,352,2023-10-27 11:15:31.92,191,-50,-2058,41,-17,39,-327,-260,-67,293
,353,2023-10-27 11:15:31.93,189,-48,-2056,43,-20,40,-343,-338,-5,340
,354,2023-10-27 11:15:31.94,206,-52,-2061,45,-19,39,-320,-256,-64,288
,355,2023-10-27 11:15:31.95,195,-46,-2055,46,-22,33,-345,-337,-8,341
,356,2023-10-27 11:15:31.96,185,-50,-2061,45,-25,32,-315,-252,-63,283
,357,2023-10-27 11:15:31.97,194,-55,-2066,46,-31,30,-348,-341,-7,344
,358,2023-10-27 11:15:31.98,191,-58,-2057,49,-35,29,-310,-252,-58,281
,359,2023-10-27 11:15:31.99,192,-54,-2052,49,-38,27,-351,-344,-7,347
,360,2023-10-27 11:15:32.00,184,-54,-2046,46,-42,27,-296,-250,-46,273
,361,2023-10-27 11:15:32.01,194,-62,-2048,42,-39,27,-346,-342,-4,344
,362,2023-10-27 11:15:32.02,188,-63,-2052,39,-33,28,-292,-241,-51,266
,363,2023-10-27 11:15:32.03,204,-73,-2029,40,-34,27,-352,-345,-7,348
,364,2023-10-27 11:15:32.04,185,-63,-2037,43,-19,25,-289,-240,-49,264
,365,2023-10-27 11:15:32.05,179,-50,-2068,37,-16,30,-352,-344,-8,348
,366,2023-10-27 11:15:32.06,178,-66,-2061,26,-22,37,-282,-233,-49,257
,367,2023-10-27 11:15:32.07,191,-67,-2040,28,-19,40,-356,-348,-8,352
,368,2023-10-27 11:15:32.08,185,-72,-2052,32,-14,45,-277,-231,-46,254
,369,2023-10-27 11:15:32.09,176,-75,-2057,24,-12,52,-356,-351,-5,353
,370,2023-10-27 11:15:32.10,190,-65,-2045,20,-7,57,-278,-228,-50,253
,371,2023-10-27 11:15:32.11,186,-69,-2051,20,3,60,-364,-354,-10,359
,372,2023-10-27 11:15:32.12,181,-73,-2057,27,4,66,-272,-225,-47,248
,373,2023-10-27 11:15:32.13,186,-79,-2051,27,8,72,-365,-356,-9,360
,374,2023-10-27 11:15:32.14,198,-78,-2038,28,20,76,-274,-229,-45,251
,375,2023-10-27 11:15:32.15,205,-76,-2038,34,32,77,-372,-364,-8,368
,376,2023-10-27 11:15:32.16,206,-74,-2034,36,42,80,-274,-229,-45,251
,377,2023-10-27 11:15:32.17,202,-69,-2038,39,50,82,-380,-362,-18,371
,378,2023-10-27 11:15:32.18,200,-63,-2037,42,53,81,-272,-223,-49,247
,379,2023-10-27 11:15:32.19,209,-70,-2057,47,53,80,-378,-362,-16,370
,380,2023-10-27 11:15:32.20,195,-64,-2059,53,46,79,-265,-221,-44,243
,381,2023-10-27 11:15:32.21,195,-67,-2054,58,34,75,-382,-362,-20,372
,382,2023-10-27 11:15:32.22,191,-86,-2078,62,24,74,-272,-218,-54,245
,383,2023-10-27 11:15:32.23,188,-77,-2073,64,5,75,-390,-362,-28,376
,384,2023-10-27 11:15:32.24,194,-70,-2068,70,-11,72,-270,-213,-57,241
,385,2023-10-27 11:15:32.25,205,-67,-2084,72,-19,72,-396,-360,-36,378
,386,2023-10-27 11:15:32.26,185,-66,-2070,54,-5,56,-290,-214,-76,252
,387,2023-10-27 11:15:32.27,155,-77,-2066,45,-19,52,-418,-359,-59,388
,388,2023-10-27 11:15:32.28,195,-76,-2079,51,-36,51,-298,-206,-92,252
,389,2023-10-27 11:15:32.29,213,-69,-2050,45,-13,42,-425,-355,-70,390
,390,2023-10-27 11:15:32.30,159,-104,-2039,43,-33,42,-281,-200,-81,240
,391,2023-10-27 11:15:32.31,196,-88,-2058,42,-49,49,-412,-361,-51,386
,392,2023-10-27 11:15:32.32,209,-92,-2065,32,-25,47,-270,-206,-64,238
,393,2023-10-27 11:15:32.33,173,-87,-2071,25,-22,47,-409,-363,-46,386
,394,2023-10-27 11:15:32.34,205,-85,-2044,18,-25,52,-257,-199,-58,228
,395,2023-10-27 11:15:32.35,171,-89,-2048,8,-5,48,-403,-363,-40,383
,396,2023-10-27 11:15:32.36,159,-98,-2060,17,-37,57,-255,-202,-53,228
,397,2023-10-27 11:15:32.37,197,-94,-2066,28,-50,61,-410,-368,-42,389
,398,2023-10-27 11:15:32.38,163,-87,-2052,33,-41,59,-262,-203,-59,232
,399,2023-10-27 11:15:32.39,172,-89,-2044,28,-43,57,-421,-369,-52,395
,400,2023-10-27 11:15:32.40,180,-82,-2048,16,-34,51,-258,-205,-53,231
,401,2023-10-27 11:15:32.41,160,-83,-2050,11,-28,47,-414,-376,-38,395
,402,2023-10-27 11:15:32.42,178,-71,-2062,21,-46,48,-247,-207,-40,227
,403,2023-10-27 11:15:32.43,165,-79,-2057,27,-47,44,-412,-375,-37,393
,404,2023-10-27 11:15:32.44,155,-87,-2056,26,-48,39,-245,-205,-40,225
,405,2023-10-27 11:15:32.45,161,-95,-2046,20,-43,35,-419,-373,-46,396
,406,2023-10-27 11:15:32.46,176,-98,-2055,20,-42,33,-256,-204,-52,230
,407,2023-10-27 11:15:32.47,163,-100,-2060,22,-32,31,-427,-376,-51,401
,408,2023-10-27 11:15:32.48,156,-102,-2061,27,-41,32,-245,-202,-43,223
,409,2023-10-27 11:15:32.49,161,-100,-2063,32,-41,35,-416,-374,-42,395
,410,2023-10-27 11:15:32.50,152,-93,-2050,32,-36,32,-234,-201,-33,217
,411,2023-10-27 11:15:32.51,156,-96,-2053,36,-43,31,-413,-375,-38,394
,412,2023-10-27 11:15:32.52,165,-92,-2040,34,-30,27,-231,-202,-29,216
,413,2023-10-27 11:15:32.53,160,-89,-2044,35,-27,23,-412,-375,-37,393
,414,2023-10-27 11:15:32.54,163,-98,-2042,31,-26,21,-230,-199,-31,214
,415,2023-10-27 11:15:32.55,172,-86,-2040,33,-24,19,-414,-374,-40,394
,416,2023-10-27 11:15:32.56,154,-102,-2052,34,-16,16,-228,-203,-25,215
,417,2023-10-27 11:15:32.57,165,-96,-2050,32,-12,12,-413,-376,-37,394
,418,2023-10-27 11:15:32.58,143,-89,-2046,28,-8,11,-223,-203,-20,213
,419,2023-10-27 11:15:32.59,156,-93,-2058,26,-5,8,-409,-374,-35,391
,420,2023-10-27 11:15:32.60,164,-96,-2057,26,-6,5,-218,-200,-18,209
,421,2023-10-27 11:15:32.61,173,-86,-2032,14,21,-1,-415,-375,-40,395
,422,2023-10-27 11:15:32.62,132,-91,-2048,13,7,-6,-230,-202,-28,216
,423,2023-10-27 11:15:32.63,173,-104,-2052,17,2,-7,-426,-375,-51,400
,424,2023-10-27 11:15:32.64,160,-93,-2039,19,13,-12,-233,-201,-32,217
,425,2023-10-27 11:15:32.65,169,-100,-2039,19,26,-16,-437,-379,-58,408
,426,2023-10-27 11:15:32.66,175,-102,-2039,11,38,-18,-250,-214,-36,232
,427,2023-10-27 11:15:32.67,168,-104,-2053,9,48,-20,-451,-392,-59,421
,428,2023-10-27 11:15:32.68,169,-109,-2057,9,52,-19,-239,-216,-23,227
,429,2023-10-27 11:15:32.69,164,-108,-2053,12,53,-15,-437,-381,-56,409
,430,2023-10-27 11:15:32.70,172,-110,-2056,13,56,-15,-254,-207,-47,230
,431,2023-10-27 11:15:32.71,167,-103,-2063,9,60,-14,-454,-379,-75,416
,432,2023-10-27 11:15:32.72,164,-92,-2053,8,61,-13,-253,-216,-37,234
,433,2023-10-27 11:15:32.73,184,-99,-2054,12,63,-11,-442,-384,-58,413
,434,2023-10-27 11:15:32.74,179,-99,-2057,15,62,-12,-234,-216,-18,225
,435,2023-10-27 11:15:32.75,167,-107,-2061,14,65,-9,-426,-378,-48,402
,436,2023-10-27 11:15:32.76,167,-107,-2066,14,58,-7,-224,-215,-9,219
,437,2023-10-27 11:15:32.77,180,-117,-2060,17,46,-2,-422,-376,-46,399
,438,2023-10-27 11:15:32.78,161,-98,-2051,20,38,7,-219,-215,-4,217
,439,2023-10-27 11:15:32.79,166,-103,-2045,18,37,8,-416,-371,-45,393
,440,2023-10-27 11:15:32.80,181,-103,-2043,10,39,10,-216,-214,-2,215
,441,2023-10-27 11:15:32.81,179,-95,-2043,6,40,10,-421,-370,-51,395
,442,2023-10-27 11:15:32.82,187,-93,-2044,2,44,11,-227,-222,-5,224
,443,2023-10-27 11:15:32.83,191,-92,-2044,-1,44,11,-424,-371,-53,397
,444,2023-10-27 11:15:32.84,179,-93,-2043,-7,49,10,-220,-216,-4,218
,445,2023-10-27 11:15:32.85,190,-99,-2052,-11,58,11,-412,-366,-46,389
,446,2023-10-27 11:15:32.86,191,-99,-2062,-13,59,10,-214,-220,6,217
,447,2023-10-27 11:15:32.87,187,-75,-2078,-15,59,10,-413,-364,-49,388
,448,2023-10-27 11:15:32.88,187,-95,-2058,-16,49,13,-219,-220,1,219
,449,2023-10-27 11:15:32.89,197,-114,-2032,-12,52,11,-414,-362,-52,388
,450,2023-10-27 11:15:32.90,203,-100,-2035,0,66,8,-222,-225,3,223
,451,2023-10-27 11:15:32.91,189,-96,-2066,-2,73,4,-417,-362,-55,389
,452,2023-10-27 11:15:32.92,192,-102,-2065,-3,70,4,-222,-227,5,224
,453,2023-10-27 11:15:32.93,189,-122,-2023,13,56,5,-416,-360,-56,388
,454,2023-10-27 11:15:32.94,190,-109,-2056,44,29,12,-230,-226,-4,228
,455,2023-10-27 11:15:32.95,215,-108,-2054,49,37,12,-435,-357,-78,396
,456,2023-10-27 11:15:32.96,180,-96,-2041,44,45,12,-259,-231,-28,245
,457,2023-10-27 11:15:32.97,223,-96,-2034,35,57,13,-442,-357,-85,399
,458,2023-10-27 11:15:32.98,197,-110,-2063,28,69,11,-248,-235,-13,241
,459,2023-10-27 11:15:32.99,195,-104,-2078,25,54,17,-427,-360,-67,393
,460,2023-10-27 11:15:33.00,192,-101,-2072,26,39,25,-249,-244,-5,246
,461,2023-10-27 11:15:33.01,190,-125,-2067,27,35,36,-431,-364,-67,397
,462,2023-10-27 11:15:33.02,207,-146,-2038,24,26,65,-251,-250,-1,250
,463,2023-10-27 11:15:33.03,198,-139,-2026,18,52,81,-427,-362,-65,394
,464,2023-10-27 11:15:33.04,216,-141,-2027,7,76,94,-246,-249,3,247
,465,2023-10-27 11:15:33.05,192,-149,-2021,2,85,109,-417,-356,-61,386
,466,2023-10-27 11:15:33.06,200,-153,-2032,25,43,135,-257,-255,-2,256
,467,2023-10-27 11:15:33.07,235,-130,-2066,46,37,153,-433,-374,-59,403
,468,2023-10-27 11:15:33.08,199,-104,-2055,39,62,160,-279,-289,10,284
,469,2023-10-27 11:15:33.09,212,-95,-2041,20,73,162,-439,-392,-47,415
,470,2023-10-27 11:15:33.10,215,-86,-2064,-1,81,162,-269,-296,27,282
,471,2023-10-27 11:15:33.11,213,-84,-2061,-6,69,159,-429,-412,-17,420
,472,2023-10-27 11:15:33.12,202,-78,-2063,6,45,154,-276,-332,56,304
,473,2023-10-27 11:15:33.13,220,-78,-2063,18,20,151,-436,-433,-3,434
,474,2023-10-27 11:15:33.14,216,-87,-2055,22,14,138,-270,-347,77,308
,475,2023-10-27 11:15:33.15,229,-87,-2051,18,31,122,-421,-443,22,432
,476,2023-10-27 11:15:33.16,235,-87,-2046,15,39,110,-265,-362,97,313
,477,2023-10-27 11:15:33.17,228,-83,-2046,21,39,96,-414,-444,30,429
,478,2023-10-27 11:15:33.18,229,-89,-2050,30,38,83,-263,-360,97,311
,479,2023-10-27 11:15:33.19,228,-78,-2051,32,37,72,-402,-421,19,411
,480,2023-10-27 11:15:33.20,231,-80,-2051,29,42,60,-249,-334,85,291
,481,2023-10-27 11:15:33.21,235,-90,-2049,29,39,52,-386,-398,12,392
,482,2023-10-27 11:15:33.22,234,-87,-2050,29,39,47,-242,-319,77,280
,483,2023-10-27 11:15:33.23,235,-91,-2035,35,36,43,-382,-385,3,383
,484,2023-10-27 11:15:33.24,236,-96,-2032,35,41,40,-247,-320,73,283
,485,2023-10-27 11:15:33.25,237,-99,-2034,33,40,40,-378,-383,5,380
,486,2023-10-27 11:15:33.26,255,-96,-2037,32,43,42,-241,-320,79,280
,487,2023-10-27 11:15:33.27,241,-116,-2041,36,45,43,-366,-366,0,366
,488,2023-10-27 11:15:33.28,254,-122,-2049,38,56,47,-241,-303,62,272
,489,2023-10-27 11:15:33.29,257,-115,-2059,36,67,50,-371,-363,-8,367
,490,2023-10-27 11:15:33.30,242,-100,-2062,28,72,58,-260,-319,59,289
,491,2023-10-27 11:15:33.31,256,-105,-2072,30,68,60,-378,-367,-11,372
,492,2023-10-27 11:15:33.32,259,-103,-2066,31,56,66,-262,-325,63,293
,493,2023-10-27 11:15:33.33,249,-97,-2063,37,40,68,-368,-372,4,370
,494,2023-10-27 11:15:33.34,243,-111,-2062,39,24,70,-260,-336,76,298
,495,2023-10-27 11:15:33.35,246,-116,-2073,40,13,71,-372,-381,9,376
,496,2023-10-27 11:15:33.36,230,-111,-2075,44,-2,76,-273,-354,81,313
,497,2023-10-27 11:15:33.37,248,-115,-2071,54,-20,79,-378,-397,19,387
,498,2023-10-27 11:15:33.38,236,-119,-2066,62,-42,84,-290,-374,84,332
,499,2023-10-27 11:15:33.39,237,-116,-2056,69,-55,88,-387,-410,23,398
,500,2023-10-27 11:15:33.40,253,-121,-2044,73,-62,92,-294,-391,97,342
,501,2023-10-27 11:15:33.41,236,-126,-2038,77,-64,94,-372,-407,35,389
,502,2023-10-27 11:15:33.42,245,-136,-2031,81,-64,97,-288,-390,102,339
,503,2023-10-27 11:15:33.43,230,-153,-2038,83,-55,97,-373,-427,54,400
,504,2023-10-27 11:15:33.44,215,-164,-2052,82,-49,102,-296,-430,134,363
,505,2023-10-27 11:15:33.45,232,-165,-2059,83,-43,111,-372,-443,71,407
,506,2023-10-27 11:15:33.46,229,-156,-2051,88,-39,115,-294,-418,124,356
,507,2023-10-27 11:15:33.47,235,-138,-2052,89,-32,122,-371,-422,51,396
,508,2023-10-27 11:15:33.48,235,-133,-2050,86,-28,124,-307,-416,109,361
,509,2023-10-27 11:15:33.49,213,-134,-2051,81,-35,127,-364,-429,65,396
,510,2023-10-27 11:15:33.50,226,-139,-2067,76,-33,131,-282,-420,138,351
,511,2023-10-27 11:15:33.51,212,-148,-2070,72,-29,129,-321,-416,95,368
,512,2023-10-27 11:15:33.52,195,-155,-2062,64,-36,132,-255,-417,162,336
,513,2023-10-27 11:15:33.53,210,-154,-2064,63,-47,138,-290,-402,112,346
,514,2023-10-27 11:15:33.54,207,-158,-2075,66,-61,142,-248,-407,159,327
,515,2023-10-27 11:15:33.55,211,-160,-2057,68,-63,138,-288,-385,97,336
,516,2023-10-27 11:15:33.56,212,-148,-2060,69,-62,136,-259,-394,135,326
,517,2023-10-27 11:15:33.57,185,-154,-2050,70,-74,131,-283,-339,56,311
,518,2023-10-27 11:15:33.58,213,-143,-2056,71,-73,127,-247,-344,97,295
,519,2023-10-27 11:15:33.59,190,-150,-2047,70,-70,117,-286,-294,8,290
,520,2023-10-27 11:15:33.60,197,-150,-2049,69,-67,111,-270,-323,53,296
,521,2023-10-27 11:15:33.61,190,-155,-2058,66,-73,108,-296,-272,-24,284
,522,2023-10-27 11:15:33.62,201,-163,-2068,65,-69,99,-276,-304,28,290
,523,2023-10-27 11:15:33.63,178,-163,-2048,57,-68,94,-288,-250,-38,269
,524,2023-10-27 11:15:33.64,181,-159,-2052,57,-77,91,-286,-282,-4,284
,525,2023-10-27 11:15:33.65,191,-166,-2048,46,-64,87,-350,-214,-136,282
,526,2023-10-27 11:15:33.66,170,-165,-2042,40,-61,84,-364,-269,-95,316
,527,2023-10-27 11:15:33.67,181,-174,-2048,33,-52,81,-379,-225,-154,302
,528,2023-10-27 11:15:33.68,167,-181,-2039,29,-46,80,-372,-286,-86,329
,529,2023-10-27 11:15:33.69,183,-171,-2034,28,-40,77,-420,-192,-228,306
,530,2023-10-27 11:15:33.70,189,-182,-2026,24,-31,76,-433,-251,-182,342
,531,2023-10-27 11:15:33.71,177,-175,-2027,19,-17,71,-429,-172,-257,300
,532,2023-10-27 11:15:33.72,179,-176,-2036,20,-22,72,-411,-258,-153,334
,533,2023-10-27 11:15:33.73,189,-173,-2039,18,-17,75,-386,-179,-207,282
,534,2023-10-27 11:15:33.74,176,-176,-2033,17,-14,71,-388,-259,-129,323
,535,2023-10-27 11:15:33.75,176,-184,-2060,18,-22,74,-365,-162,-203,263
,536,2023-10-27 11:15:33.76,187,-167,-2053,10,-17,71,-380,-250,-130,315
,537,2023-10-27 11:15:33.77,174,-172,-2033,2,-13,70,-356,-157,-199,256
,538,2023-10-27 11:15:33.78,185,-171,-2037,2,-19,71,-395,-248,-147,321
,539,2023-10-27 11:15:33.79,180,-161,-2039,3,-28,68,-407,-166,-241,286
,540,2023-10-27 11:15:33.80,193,-155,-2043,2,-33,67,-442,-285,-157,363
,541,2023-10-27 11:15:33.81,196,-152,-2039,-3,-27,59,-375,-185,-190,280
,542,2023-10-27 11:15:33.82,190,-143,-2036,-13,-16,50,-391,-284,-107,337
,543,2023-10-27 11:15:33.83,193,-145,-2033,-24,-3,42,-328,-166,-162,247
,544,2023-10-27 11:15:33.84,182,-157,-2049,-32,2,39,-381,-270,-111,325
,545,2023-10-27 11:15:33.85,183,-151,-2053,-34,1,30,-355,-163,-192,259
,546,2023-10-27 11:15:33.86,195,-142,-2053,-35,-8,27,-424,-292,-132,358
,547,2023-10-27 11:15:33.87,203,-146,-2049,-39,-6,21,-347,-168,-179,257
,548,2023-10-27 11:15:33.88,192,-141,-2048,-48,9,12,-409,-292,-117,350
,549,2023-10-27 11:15:33.89,185,-142,-2060,-64,23,4,-339,-166,-173,252
,550,2023-10-27 11:15:33.90,197,-150,-2058,-67,24,-1,-416,-298,-118,357
,551,2023-10-27 11:15:33.91,193,-157,-2058,-63,21,0,-322,-158,-164,240
,552,2023-10-27 11:15:33.92,184,-150,-2058,-60,19,-4,-396,-289,-107,342
,553,2023-10-27 11:15:33.93,183,-149,-2043,-57,19,-6,-312,-157,-155,234
,554,2023-10-27 11:15:33.94,191,-145,-2048,-61,30,-5,-406,-299,-107,352
,555,2023-10-27 11:15:33.95,177,-153,-2049,-60,28,-10,-335,-166,-169,250
,556,2023-10-27 11:15:33.96,189,-146,-2046,-51,24,-10,-429,-304,-125,366
,557,2023-10-27 11:15:33.97,171,-150,-2043,-41,17,-7,-330,-168,-162,249
,558,2023-10-27 11:15:33.98,192,-149,-2051,-37,18,-7,-423,-312,-111,367
,559,2023-10-27 11:15:33.99,186,-157,-2054,-31,15,-4,-323,-174,-149,248
,560,2023-10-27 11:15:34.00,180,-156,-2057,-21,9,-2,-425,-321,-104,373
,561,2023-10-27 11:15:34.01,178,-158,-2058,-10,4,0,-315,-179,-136,247
,562,2023-10-27 11:15:34.02,169,-154,-2050,-7,2,5,-418,-328,-90,373
,563,2023-10-27 11:15:34.03,190,-157,-2044,-2,7,10,-297,-182,-115,239
,564,2023-10-27 11:15:34.04,185,-155,-2038,0,13,11,-410,-337,-73,373
,565,2023-10-27 11:15:34.05,182,-153,-2039,-2,24,17,-294,-192,-102,243
,566,2023-10-27 11:15:34.06,189,-154,-2039,-6,31,19,-418,-345,-73,381
,567,2023-10-27 11:15:34.07,172,-158,-2057,-9,36,24,-288,-198,-90,243
,568,2023-10-27 11:15:34.08,175,-155,-2061,-10,36,31,-421,-355,-66,388
,569,2023-10-27 11:15:34.09,185,-163,-2052,-10,36,39,-315,-202,-113,258
,570,2023-10-27 11:15:34.10,173,-158,-2056,-9,37,46,-449,-359,-90,404
,571,2023-10-27 11:15:34.11,173,-151,-2052,-13,37,49,-301,-210,-91,255
,572,2023-10-27 11:15:34.12,167,-154,-2055,-14,37,58,-427,-373,-54,400
,573,2023-10-27 11:15:34.13,168,-156,-2058,-12,33,61,-283,-224,-59,253
,574,2023-10-27 11:15:34.14,170,-153,-2053,-12,22,66,-427,-383,-44,405
,575,2023-10-27 11:15:34.15,174,-140,-2055,-13,23,71,-284,-234,-50,259
,576,2023-10-27 11:15:34.16,184,-144,-2034,-11,18,69,-439,-405,-34,422
,577,2023-10-27 11:15:34.17,175,-143,-2045,0,11,68,-300,-267,-33,283
,578,2023-10-27 11:15:34.18,193,-126,-2038,5,9,63,-447,-433,-14,440
,579,2023-10-27 11:15:34.19,190,-137,-2040,4,14,54,-281,-282,1,281
,580,2023-10-27 11:15:34.20,192,-139,-2051,-1,27,45,-429,-432,3,430
,581,2023-10-27 11:15:34.21,183,-124,-2047,-8,38,39,-270,-263,-7,266
,582,2023-10-27 11:15:34.22,180,-145,-2064,-5,29,33,-431,-433,2,432
,583,2023-10-27 11:15:34.23,184,-169,-2063,-2,14,34,-269,-311,42,290
,584,2023-10-27 11:15:34.24,189,-154,-2068,-3,25,33,-429,-483,54,456
,585,2023-10-27 11:15:34.25,182,-161,-2062,-6,23,43,-257,-333,76,295
,586,2023-10-27 11:15:34.26,197,-161,-2040,-5,21,42,-430,-476,46,453
,587,2023-10-27 11:15:34.27,184,-157,-2050,-5,22,45,-273,-303,30,288
,588,2023-10-27 11:15:34.28,184,-160,-2054,-7,21,48,-448,-444,-4,446
,589,2023-10-27 11:15:34.29,201,-154,-2042,-10,25,50,-298,-288,-10,293
,590,2023-10-27 11:15:34.30,197,-152,-2041,-18,44,50,-467,-454,-13,460
,591,2023-10-27 11:15:34.31,178,-158,-2032,-17,29,52,-289,-316,27,302
,592,2023-10-27 11:15:34.32,187,-150,-2032,-10,23,58,-452,-471,19,461
,593,2023-10-27 11:15:34.33,208,-146,-2030,-1,21,59,-276,-314,38,295
,594,2023-10-27 11:15:34.34,204,-131,-2027,-5,34,54,-471,-485,14,478
,595,2023-10-27 11:15:34.35,207,-124,-2021,-10,40,50,-309,-343,34,326
,596,2023-10-27 11:15:34.36,214,-124,-2021,-20,54,41,-499,-512,13,505
,597,2023-10-27 11:15:34.37,215,-120,-2035,-19,66,37,-331,-363,32,347
,598,2023-10-27 11:15:34.38,210,-128,-2039,-16,67,28,-497,-509,12,503
,599,2023-10-27 11:15:34.39,211,-128,-2057,-21,67,20,-291,-343,52,317
,600,2023-10-27 11:15:34.40,223,-127,-2068,-23,73,17,-461,-489,28,475
,601,2023-10-27 11:15:34.41,206,-123,-2060,-28,82,8,-267,-327,60,297
,602,2023-10-27 11:15:34.42,209,-127,-2064,-28,69,3,-450,-489,39,469
,603,2023-10-27 11:15:34.43,218,-122,-2056,-29,63,1,-252,-344,92,298
,604,2023-10-27 11:15:34.44,217,-114,-2068,-30,68,-3,-443,-509,66,476
,605,2023-10-27 11:15:34.45,210,-114,-2062,-41,70,-10,-256,-368,112,312
,606,2023-10-27 11:15:34.46,220,-108,-2059,-48,68,-13,-472,-520,48,496
,607,2023-10-27 11:15:34.47,217,-119,-2047,-50,59,-17,-324,-360,36,342
,608,2023-10-27 11:15:34.48,222,-117,-2051,-51,56,-22,-525,-509,-16,517
,609,2023-10-27 11:15:34.49,227,-116,-2048,-57,59,-24,-346,-355,9,350
,610,2023-10-27 11:15:34.50,219,-112,-2057,-55,51,-26,-518,-516,-2,517
,611,2023-10-27 11:15:34.51,241,-106,-2054,-58,49,-29,-314,-376,62,345
,612,2023-10-27 11:15:34.52,221,-108,-2058,-62,58,-29,-488,-542,54,515
,613,2023-10-27 11:15:34.53,206,-127,-2063,-55,40,-29,-290,-408,118,349
,614,2023-10-27 11:15:34.54,242,-121,-2081,-55,38,-23,-473,-564,91,518
,615,2023-10-27 11:15:34.55,223,-111,-2053,-52,36,-16,-277,-425,148,351
,616,2023-10-27 11:15:34.56,240,-108,-2050,-45,23,-9,-457,-568,111,512
,617,2023-10-27 11:15:34.57,242,-99,-2057,-45,20,-7,-255,-421,166,338
,618,2023-10-27 11:15:34.58,236,-105,-2049,-46,17,-6,-443,-556,113,499
,619,2023-10-27 11:15:34.59,230,-111,-2061,-42,15,1,-248,-406,158,327
,620,2023-10-27 11:15:34.60,234,-117,-2062,-35,8,7,-438,-536,98,487
,621,2023-10-27 11:15:34.61,239,-109,-2052,-24,3,11,-240,-383,143,311
,622,2023-10-27 11:15:34.62,241,-113,-2053,-15,0,16,-430,-532,102,481
,623,2023-10-27 11:15:34.63,222,-123,-2060,-11,0,21,-234,-403,169,318
,624,2023-10-27 11:15:34.64,229,-122,-2063,-2,-7,27,-433,-586,153,509
,625,2023-10-27 11:15:34.65,224,-108,-2069,12,-19,34,-254,-492,238,373
,626,2023-10-27 11:15:34.66,213,-103,-2053,26,-32,38,-443,-634,191,538
,627,2023-10-27 11:15:34.67,224,-99,-2055,34,-37,41,-247,-493,246,370
,628,2023-10-27 11:15:34.68,222,-98,-2049,37,-39,39,-433,-615,182,524
,629,2023-10-27 11:15:34.69,240,-99,-2043,42,-39,30,-238,-471,233,354
,630,2023-10-27 11:15:34.70,222,-110,-2054,46,-32,29,-431,-614,183,522
,631,2023-10-27 11:15:34.71,245,-99,-2033,29,6,15,-240,-488,248,364
,632,2023-10-27 11:15:34.72,220,-106,-2006,26,13,10,-427,-622,195,524
,633,2023-10-27 11:15:34.73,244,-107,-2015,34,16,8,-233,-487,254,360
,634,2023-10-27 11:15:34.74,238,-95,-2021,42,27,3,-424,-638,214,531
,635,2023-10-27 11:15:34.75,242,-110,-2044,43,35,-1,-246,-547,301,396
,636,2023-10-27 11:15:34.76,227,-118,-2065,38,40,-4,-442,-734,292,588
,637,2023-10-27 11:15:34.77,216,-117,-2062,38,27,-2,-276,-688,412,482
,638,2023-10-27 11:15:34.78,223,-113,-2067,42,16,3,-468,-833,365,650
,639,2023-10-27 11:15:34.79,221,-99,-2064,39,7,7,-300,-734,434,517
,640,2023-10-27 11:15:34.80,214,-114,-2069,29,1,16,-483,-897,414,690
,641,2023-10-27 11:15:34.81,251,-100,-2068,7,19,16,-300,-862,562,581
,642,2023-10-27 11:15:34.82,211,-111,-2040,-2,9,17,-472,-988,516,730
,643,2023-10-27 11:15:34.83,237,-107,-2052,5,-13,23,-293,-893,600,593
,644,2023-10-27 11:15:34.84,226,-115,-2068,2,-5,23,-449,-896,447,672
,645,2023-10-27 11:15:34.85,218,-119,-2083,-8,-8,23,-262,-696,434,479
,646,2023-10-27 11:15:34.86,213,-118,-2087,-12,-24,34,-412,-692,280,552
,647,2023-10-27 11:15:34.87,219,-109,-2120,-14,-41,43,-225,-535,310,380
,648,2023-10-27 11:15:34.88,224,-112,-2096,-25,-41,44,-394,-596,202,495
,649,2023-10-27 11:15:34.89,196,-115,-2078,-37,-36,46,-243,-478,235,360
,650,2023-10-27 11:15:34.90,219,-107,-2057,-34,-55,49,-408,-550,142,479
,651,2023-10-27 11:15:34.91,220,-108,-2038,-25,-69,50,-239,-440,201,339
,652,2023-10-27 11:15:34.92,246,-98,-1980,-10,-70,48,-421,-641,220,531
,653,2023-10-27 11:15:34.93,236,-89,-1964,5,-61,38,-289,-648,359,468
,654,2023-10-27 11:15:34.94,254,-98,-1984,10,-33,26,-482,-841,359,661
,655,2023-10-27 11:15:34.95,237,-95,-2007,7,3,13,-350,-805,455,577
,656,2023-10-27 11:15:34.96,226,-103,-2040,17,8,8,-473,-838,365,655
,657,2023-10-27 11:15:34.97,252,-93,-2034,34,4,6,-298,-681,383,489
,658,2023-10-27 11:15:34.98,252,-75,-2011,42,19,-2,-430,-696,266,563
,659,2023-10-27 11:15:34.99,258,-84,-2028,28,49,-16,-287,-587,300,437
,660,2023-10-27 11:15:35.00,244,-89,-2038,9,76,-28,-436,-711,275,573
,661,2023-10-27 11:15:35.01,254,-97,-2070,5,87,-33,-304,-673,369,488
,662,2023-10-27 11:15:35.02,265,-100,-2076,22,65,-34,-451,-803,352,627
,663,2023-10-27 11:15:35.03,247,-95,-2056,40,41,-37,-325,-748,423,536
,664,2023-10-27 11:15:35.04,245,-106,-2067,46,27,-36,-452,-804,352,628
,665,2023-10-27 11:15:35.05,223,-122,-2108,45,9,-31,-315,-701,386,508
,666,2023-10-27 11:15:35.06,195,-134,-2121,56,-26,-27,-428,-734,306,581
,667,2023-10-27 11:15:35.07,198,-123,-2123,84,-80,-10,-300,-641,341,470
,668,2023-10-27 11:15:35.08,205,-124,-2113,106,-128,6,-426,-700,274,563
,669,2023-10-27 11:15:35.09,223,-130,-2130,110,-143,17,-313,-633,320,473
,670,2023-10-27 11:15:35.10,144,-121,-2147,11,-48,-1,-411,-671,260,541
,671,2023-10-27 11:15:35.11,177,-164,-2062,-11,-65,6,-297,-597,300,447
,672,2023-10-27 11:15:35.12,153,-155,-2060,8,-90,22,-404,-667,263,535
,673,2023-10-27 11:15:35.13,148,-169,-2034,34,-137,39,-306,-633,327,469
,674,2023-10-27 11:15:35.14,167,-168,-2012,51,-160,54,-434,-731,297,582
,675,2023-10-27 11:15:35.15,162,-163,-1977,56,-146,59,-353,-696,343,524
,676,2023-10-27 11:15:35.16,182,-158,-1976,50,-106,65,-434,-693,259,563
,677,2023-10-27 11:15:35.17,163,-155,-1983,51,-88,67,-327,-592,265,459
,678,2023-10-27 11:15:35.18,158,-161,-1988,53,-81,72,-403,-593,190,498
,679,2023-10-27 11:15:35.19,162,-167,-2024,64,-80,82,-314,-542,228,428
,680,2023-10-27 11:15:35.20,165,-160,-2043,66,-68,88,-390,-569,179,479
,681,2023-10-27 11:15:35.21,148,-145,-2027,54,-53,96,-308,-538,230,423
,682,2023-10-27 11:15:35.22,171,-140,-2033,33,-43,100,-375,-619,244,497
,683,2023-10-27 11:15:35.23,178,-127,-2052,9,-19,100,-301,-616,315,458
,684,2023-10-27 11:15:35.24,176,-117,-2054,-10,-9,101,-355,-620,265,487
,685,2023-10-27 11:15:35.25,165,-118,-2059,-28,-4,99,-291,-567,276,429
,686,2023-10-27 11:15:35.26,170,-118,-2060,-40,-9,98,-369,-598,229,483
,687,2023-10-27 11:15:35.27,183,-126,-2060,-47,-6,92,-324,-589,265,456
,688,2023-10-27 11:15:35.28,186,-115,-2060,-53,-9,86,-370,-590,220,480
,689,2023-10-27 11:15:35.29,185,-112,-2055,-53,-10,81,-309,-561,252,435
,690,2023-10-27 11:15:35.30,171,-110,-2056,-52,-13,73,-353,-566,213,459
,691,2023-10-27 11:15:35.31,177,-115,-2040,-48,-18,64,-315,-564,249,439
,692,2023-10-27 11:15:35.32,181,-102,-2046,-43,-16,54,-364,-593,229,478
,693,2023-10-27 11:15:35.33,187,-114,-2039,-36,-15,47,-333,-599,266,466
,694,2023-10-27 11:15:35.34,165,-122,-2053,-28,-9,38,-362,-600,238,481
,695,2023-10-27 11:15:35.35,187,-116,-2048,-22,-8,34,-324,-598,274,461
,696,2023-10-27 11:15:35.36,190,-124,-2042,-12,-3,28,-356,-602,246,479
,697,2023-10-27 11:15:35.37,191,-119,-2041,-4,3,23,-337,-614,277,475
,698,2023-10-27 11:15:35.38,186,-119,-2047,-4,13,19,-371,-614,243,492
,699,2023-10-27 11:15:35.39,187,-122,-2051,-3,23,12,-357,-620,263,488
,700,2023-10-27 11:15:35.40,179,-123,-2044,2,26,11,-363,-588,225,475
,701,2023-10-27 11:15:35.41,173,-128,-2049,4,27,13,-343,-602,259,472
,702,2023-10-27 11:15:35.42,185,-129,-2046,5,32,15,-364,-646,282,505
,703,2023-10-27 11:15:35.43,180,-127,-2056,1,40,15,-360,-687,327,523
,704,2023-10-27 11:15:35.44,181,-125,-2063,-1,38,17,-353,-629,276,491
,705,2023-10-27 11:15:35.45,174,-122,-2060,-6,35,23,-340,-621,281,480
,706,2023-10-27 11:15:35.46,163,-120,-2070,-8,30,29,-341,-598,257,469
,707,2023-10-27 11:15:35.47,174,-119,-2063,-10,19,36,-356,-643,287,499
,708,2023-10-27 11:15:35.48,169,-120,-2053,-13,15,41,-369,-715,346,542
,709,2023-10-27 11:15:35.49,172,-110,-2054,-14,12,42,-386,-771,385,578
,710,2023-10-27 11:15:35.50,180,-117,-2049,-16,11,42,-352,-694,342,523
,711,2023-10-27 11:15:35.51,184,-128,-2047,-16,15,45,-344,-669,325,506
,712,2023-10-27 11:15:35.52,195,-123,-2037,-13,18,47,-320,-582,262,451
,713,2023-10-27 11:15:35.53,204,-104,-2025,-14,29,42,-347,-605,258,476
,714,2023-10-27 11:15:35.54,194,-101,-2016,-19,40,35,-321,-538,217,429
,715,2023-10-27 11:15:35.55,179,-109,-2005,-13,32,33,-346,-577,231,461
,716,2023-10-27 11:15:35.56,212,-91,-2057,3,25,34,-308,-510,202,409
,717,2023-10-27 11:15:35.57,220,-100,-2041,-2,47,24,-350,-569,219,459
,718,2023-10-27 11:15:35.58,196,-96,-2035,-5,49,15,-319,-526,207,422
,719,2023-10-27 11:15:35.59,213,-92,-2043,-2,47,9,-376,-604,228,490
,720,2023-10-27 11:15:35.60,199,-100,-2058,4,52,-1,-348,-565,217,456
,721,2023-10-27 11:15:35.61,216,-104,-2082,15,38,-4,-405,-637,232,521
,722,2023-10-27 11:15:35.62,204,-111,-2070,20,46,-11,-352,-572,220,462
,723,2023-10-27 11:15:35.63,206,-115,-2092,23,37,-11,-408,-642,234,525
,724,2023-10-27 11:15:35.64,202,-116,-2081,23,30,-10,-356,-606,250,481
,725,2023-10-27 11:15:35.65,195,-128,-2089,35,12,-6,-421,-677,256,549
,726,2023-10-27 11:15:35.66,201,-135,-2098,40,5,0,-347,-582,235,464
,727,2023-10-27 11:15:35.67,188,-133,-2090,39,7,3,-413,-642,229,527
,728,2023-10-27 11:15:35.68,187,-134,-2080,38,0,7,-343,-594,251,468
,729,2023-10-27 11:15:35.69,184,-133,-2085,44,-15,14,-416,-679,263,547
,730,2023-10-27 11:15:35.70,188,-144,-2080,56,-33,25,-313,-592,279,452
,731,2023-10-27 11:15:35.71,193,-155,-2059,66,-43,33,-395,-656,261,525
,732,2023-10-27 11:15:35.72,184,-142,-2041,71,-42,38,-305,-579,274,442
,733,2023-10-27 11:15:35.73,194,-147,-2030,68,-35,38,-397,-667,270,532
,734,2023-10-27 11:15:35.74,194,-147,-2021,61,-18,36,-283,-581,298,432
,735,2023-10-27 11:15:35.75,204,-127,-2020,53,-1,35,-379,-656,277,517
,736,2023-10-27 11:15:35.76,192,-138,-2016,52,16,28,-268,-532,264,400
,737,2023-10-27 11:15:35.77,196,-135,-2030,49,30,20,-376,-615,239,495
,738,2023-10-27 11:15:35.78,195,-127,-2018,41,40,11,-254,-505,251,379
,739,2023-10-27 11:15:35.79,211,-123,-2034,39,50,3,-373,-610,237,491
,740,2023-10-27 11:15:35.80,191,-135,-2039,32,56,-5,-260,-505,245,382
,741,2023-10-27 11:15:35.81,196,-130,-2041,27,58,-12,-389,-610,221,499
,742,2023-10-27 11:15:35.82,150,-148,-2033,42,17,-10,-269,-476,207,372
,743,2023-10-27 11:15:35.83,233,-118,-2064,47,7,-6,-396,-591,195,493
,744,2023-10-27 11:15:35.84,201,-112,-2044,32,41,-20,-278,-497,219,387
,745,2023-10-27 11:15:35.85,188,-131,-2049,20,29,-22,-416,-625,209,520
,746,2023-10-27 11:15:35.86,199,-128,-2078,10,25,-24,-277,-501,224,389
,747,2023-10-27 11:15:35.87,197,-135,-2074,3,33,-26,-407,-613,206,510
,748,2023-10-27 11:15:35.88,187,-138,-2074,5,12,-23,-267,-463,196,365
,749,2023-10-27 11:15:35.89,211,-130,-2088,-1,2,-18,-410,-586,176,498
,750,2023-10-27 11:15:35.90,199,-119,-2100,-17,13,-21,-268,-465,197,366
,751,2023-10-27 11:15:35.91,207,-116,-2116,-34,24,-23,-417,-635,218,526
,752,2023-10-27 11:15:35.92,196,-122,-2121,-43,24,-25,-269,-595,326,432
,753,2023-10-27 11:15:35.93,207,-119,-2099,-41,11,-20,-427,-743,316,585
,754,2023-10-27 11:15:35.94,220,-113,-2065,-33,10,-22,-264,-590,326,427
,755,2023-10-27 11:15:35.95,202,-132,-2041,-33,13,-26,-422,-706,284,564
,756,2023-10-27 11:15:35.96,209,-138,-2043,-33,20,-27,-276,-613,337,444
,757,2023-10-27 11:15:35.97,199,-124,-2045,-26,19,-25,-435,-748,313,591
,758,2023-10-27 11:15:35.98,193,-122,-2036,-15,6,-24,-268,-608,340,438
,759,2023-10-27 11:15:35.99,181,-121,-2018,-2,-9,-19,-429,-739,310,584
,760,2023-10-27 11:15:36.00,183,-120,-2002,3,-18,-12,-284,-686,402,485
,761,2023-10-27 11:15:36.01,170,-123,-2001,-1,-28,-5,-446,-804,358,625
,762,2023-10-27 11:15:36.02,162,-131,-2005,-8,-38,6,-262,-621,359,441
,763,2023-10-27 11:15:36.03,165,-130,-2017,-8,-52,18,-420,-695,275,557
,764,2023-10-27 11:15:36.04,177,-127,-2006,-10,-58,31,-253,-521,268,387
,765,2023-10-27 11:15:36.05,179,-131,-2004,-18,-47,43,-422,-659,237,540
,766,2023-10-27 11:15:36.06,163,-140,-2009,-35,-25,55,-224,-548,324,386
,767,2023-10-27 11:15:36.07,167,-131,-2027,-50,-9,61,-390,-702,312,546
,768,2023-10-27 11:15:36.08,174,-125,-2041,-59,-1,70,-198,-587,389,392
,769,2023-10-27 11:15:36.09,167,-118,-2047,-61,3,76,-385,-728,343,556
,770,2023-10-27 11:15:36.10,170,-109,-2065,-63,5,77,-211,-608,397,409
,771,2023-10-27 11:15:36.11,117,-137,-2054,-54,-23,82,-412,-769,357,590
,772,2023-10-27 11:15:36.12,184,-107,-2091,-25,-61,95,-253,-710,457,481
,773,2023-10-27 11:15:36.13,203,-110,-2094,-19,-40,87,-459,-935,476,697
,774,2023-10-27 11:15:36.14,174,-87,-2054,-30,-11,74,-308,-1028,720,668
,775,2023-10-27 11:15:36.15,204,-84,-2069,-46,18,58,-483,-1129,646,806
