// Data mode  : Full
// Data quality  : Standard
// Acceleration sensor's range  : 2g
// Gyroscope sensor's range  : 250dps
//
//ARTIFACT,NUM,DATE,ACC_X,ACC_Y,ACC_Z,GYRO_X,GYRO_Y,GYRO_Z,EOG_L,EOG_R,EOG_H,EOG_V
,1,2023-10-27 10:24:35.74,-771,-1864,-16309,185,495,-553,108,-11,119,-48
,2,2023-10-27 10:24:35.76,-563,-1973,-16388,112,267,-539,94,2,92,-48
,3,2023-10-27 10:24:35.78,-600,-1913,-16421,108,391,-383,70,1,69,-35
,4,2023-10-27 10:24:35.80,-583,-1920,-16333,28,244,-353,49,4,45,-26
,5,2023-10-27 10:24:35.82,-523,-1779,-16367,28,284,-230,51,14,37,-32
,6,2023-10-27 10:24:35.84,-600,-1790,-16414,45,390,-161,47,29,18,-38
,7,2023-10-27 10:24:35.86,-511,-1855,-16345,43,53,-206,67,40,27,-53
,8,2023-10-27 10:24:35.88,-581,-1852,-16384,119,187,-77,45,40,5,-42
,9,2023-10-27 10:24:35.90,-465,-1791,-16394,150,139,-130,43,52,-9,-47
,10,2023-10-27 10:24:35.92,-449,-1689,-16288,246,229,-158,41,57,-16,-49
,11,2023-10-27 10:24:35.94,-467,-1702,-16205,250,123,-247,19,72,-53,-45
,12,2023-10-27 10:24:35.96,-451,-1780,-16382,240,299,-303,-1,76,-77,-37
,13,2023-10-27 10:24:35.98,-467,-1752,-16358,249,131,-397,-10,81,-91,-35
,14,2023-10-27 10:24:36.00,-555,-1790,-16375,245,261,-416,-10,93,-103,-41
,15,2023-10-27 10:24:36.02,-522,-1832,-16398,202,186,-480,-23,105,-128,-41
,16,2023-10-27 10:24:36.04,-427,-1885,-16281,218,89,-492,-36,114,-150,-39
,17,2023-10-27 10:24:36.06,-333,-1812,-16174,227,18,-521,-33,116,-149,-41
,18,2023-10-27 10:24:36.08,-538,-1895,-16338,223,181,-503,-41,123,-164,-41
,19,2023-10-27 10:24:36.10,-536,-1873,-16411,191,124,-487,-45,132,-177,-43
,20,2023-10-27 10:24:36.12,-451,-1795,-16353,203,94,-440,-63,144,-207,-40
,21,2023-10-27 10:24:36.14,-582,-2185,-16563,111,262,-541,-74,144,-218,-35
,22,2023-10-27 10:24:36.16,-369,-1821,-16386,3,107,-484,-101,140,-241,-19
,23,2023-10-27 10:24:36.18,-497,-1786,-16290,40,43,-533,-107,155,-262,-24
,24,2023-10-27 10:24:36.20,-471,-1792,-16412,25,43,-573,-85,159,-244,-37
,25,2023-10-27 10:24:36.22,-428,-1871,-16385,-100,119,-498,-78,163,-241,-42
,26,2023-10-27 10:24:36.24,-376,-1782,-16341,19,196,-517,-92,179,-271,-43
,27,2023-10-27 10:24:36.26,-348,-1747,-16339,-50,188,-576,-84,195,-279,-55
,28,2023-10-27 10:24:36.28,-420,-1741,-16324,19,234,-549,-100,189,-289,-44
,29,2023-10-27 10:24:36.30,-411,-1759,-16359,51,13,-663,-121,209,-330,-44
,30,2023-10-27 10:24:36.32,-293,-1864,-16405,90,55,-573,-127,209,-336,-41
,31,2023-10-27 10:24:36.34,-286,-1860,-16262,94,-202,-534,-118,196,-314,-39
,32,2023-10-27 10:24:36.36,-414,-1868,-16379,43,-224,-431,-116,212,-328,-48
,33,2023-10-27 10:24:36.38,-432,-1829,-16392,63,-197,-392,-129,211,-340,-41
,34,2023-10-27 10:24:36.40,-378,-1850,-16317,101,-320,-326,-140,211,-351,-35
,35,2023-10-27 10:24:36.42,-561,-1875,-16364,81,-170,-293,-127,227,-354,-50
,36,2023-10-27 10:24:36.44,-529,-1982,-16337,98,-341,-218,-132,193,-325,-30
,37,2023-10-27 10:24:36.46,-496,-1835,-16239,94,-112,-155,-139,225,-364,-43
,38,2023-10-27 10:24:36.48,-433,-1750,-16263,124,-107,-178,-138,232,-370,-47
,39,2023-10-27 10:24:36.50,-423,-1668,-16305,108,-100,-271,-138,238,-376,-50
,40,2023-10-27 10:24:36.52,-537,-1761,-16340,137,-15,-307,-133,251,-384,-59
,41,2023-10-27 10:24:36.54,-414,-1889,-16166,92,-97,-234,-134,256,-390,-61
,42,2023-10-27 10:24:36.56,-558,-1922,-16264,157,32,-173,-130,251,-381,-60
,43,2023-10-27 10:24:36.58,-568,-1812,-16339,98,-137,-89,-142,249,-391,-53
,44,2023-10-27 10:24:36.60,-423,-1887,-16371,139,-22,-81,-148,250,-398,-51
,45,2023-10-27 10:24:36.62,-531,-1857,-16327,132,-147,-54,-126,257,-383,-65
,46,2023-10-27 10:24:36.64,-488,-1877,-16282,138,-67,-97,-157,260,-417,-51
,47,2023-10-27 10:24:36.66,-537,-1948,-16256,136,78,28,-141,264,-405,-61
,48,2023-10-27 10:24:36.68,-534,-1880,-16368,106,111,-67,-145,268,-413,-61
,49,2023-10-27 10:24:36.70,-538,-1866,-16401,117,81,51,-142,268,-410,-63
,50,2023-10-27 10:24:36.72,-386,-1863,-16322,101,48,-97,192,260,-68,-226
,51,2023-10-27 10:24:36.74,-400,-1937,-16275,120,-5,48,134,243,-109,-188
,52,2023-10-27 10:24:36.76,-430,-1990,-16268,139,-4,91,129,240,-111,-184
,53,2023-10-27 10:24:36.78,-420,-1944,-16272,146,10,150,133,252,-119,-192
,54,2023-10-27 10:24:36.80,-488,-1928,-16319,159,143,218,135,247,-112,-191
,55,2023-10-27 10:24:36.82,-436,-1880,-16320,114,-38,231,136,249,-113,-192
,56,2023-10-27 10:24:36.84,-486,-1856,-16301,69,137,287,123,260,-137,-191
,57,2023-10-27 10:24:36.86,-448,-1841,-16246,7,53,354,126,258,-132,-192
,58,2023-10-27 10:24:36.88,-395,-1778,-16245,-61,144,351,134,251,-117,-192
,59,2023-10-27 10:24:36.90,-501,-1786,-16409,-66,86,363,131,249,-118,-190
,60,2023-10-27 10:24:36.92,-416,-1797,-16449,-121,123,345,137,234,-97,-185
,61,2023-10-27 10:24:36.94,-384,-1646,-16450,-9,228,316,134,242,-108,-188
,62,2023-10-27 10:24:36.96,-426,-1724,-16383,40,270,339,133,237,-104,-185
,63,2023-10-27 10:24:36.98,-413,-1746,-16348,42,223,356,146,225,-79,-185
,64,2023-10-27 10:24:37.00,-374,-1731,-16222,136,236,529,138,226,-88,-182
,65,2023-10-27 10:24:37.02,-341,-1724,-16299,211,145,598,154,219,-65,-186
,66,2023-10-27 10:24:37.04,-495,-1576,-16443,270,5,617,164,215,-51,-189
,67,2023-10-27 10:24:37.06,-589,-1893,-16445,195,-62,668,153,212,-59,-182
,68,2023-10-27 10:24:37.08,-458,-1727,-16520,116,-234,663,152,205,-53,-178
,69,2023-10-27 10:24:37.10,-432,-1679,-16414,37,-89,583,150,208,-58,-179
,70,2023-10-27 10:24:37.12,-394,-1597,-16307,52,72,559,154,189,-35,-171
,71,2023-10-27 10:24:37.14,-498,-1695,-16385,145,180,445,159,192,-33,-175
,72,2023-10-27 10:24:37.16,-473,-1811,-16341,276,182,443,156,194,-38,-175
,73,2023-10-27 10:24:37.18,-363,-1777,-16245,369,229,454,168,189,-21,-178
,74,2023-10-27 10:24:37.20,-461,-1739,-16233,475,189,458,176,183,-7,-179
,75,2023-10-27 10:24:37.22,-356,-1781,-16276,545,74,391,155,187,-32,-171
,76,2023-10-27 10:24:37.24,-390,-1794,-16302,563,157,417,170,164,6,-167
,77,2023-10-27 10:24:37.26,-385,-1791,-16362,546,8,310,195,160,35,-177
,78,2023-10-27 10:24:37.28,-297,-1810,-16437,525,107,252,192,151,41,-171
,79,2023-10-27 10:24:37.30,-422,-1875,-16464,486,6,179,201,147,54,-174
,80,2023-10-27 10:24:37.32,-423,-1944,-16372,439,-47,127,220,137,83,-178
,81,2023-10-27 10:24:37.34,-375,-1984,-16370,394,-72,63,207,123,84,-165
,82,2023-10-27 10:24:37.36,-410,-1948,-16251,357,49,55,210,134,76,-172
,83,2023-10-27 10:24:37.38,-389,-1942,-16268,305,47,162,226,119,107,-172
,84,2023-10-27 10:24:37.40,-479,-2014,-16344,262,-101,78,222,110,112,-166
,85,2023-10-27 10:24:37.42,-527,-1973,-16357,190,-78,100,230,100,130,-165
,86,2023-10-27 10:24:37.44,-461,-2045,-16247,145,-97,137,232,104,128,-168
,87,2023-10-27 10:24:37.46,-389,-2024,-16248,148,29,192,251,95,156,-173
,88,2023-10-27 10:24:37.48,-337,-2012,-16292,214,106,219,263,84,179,-173
,89,2023-10-27 10:24:37.50,-534,-1985,-16349,239,-121,242,264,78,186,-171
,90,2023-10-27 10:24:37.52,-455,-2013,-16349,241,-84,189,272,81,191,-176
,91,2023-10-27 10:24:37.54,-344,-2052,-16272,238,-47,301,275,74,201,-174
,92,2023-10-27 10:24:37.56,-479,-1950,-16287,244,-93,241,281,62,219,-171
,93,2023-10-27 10:24:37.58,-489,-2058,-16137,240,-145,209,291,54,237,-172
,94,2023-10-27 10:24:37.60,-511,-2061,-16383,240,-135,108,296,41,255,-168
,95,2023-10-27 10:24:37.62,-416,-1992,-16353,190,10,143,310,43,267,-176
,96,2023-10-27 10:24:37.64,-408,-1999,-16287,179,-1,79,320,32,288,-176
,97,2023-10-27 10:24:37.66,-556,-2046,-16275,105,31,9,324,26,298,-175
,98,2023-10-27 10:24:37.68,-508,-2170,-16355,83,173,75,332,18,314,-175
,99,2023-10-27 10:24:37.70,-471,-2040,-16288,125,88,147,343,11,332,-177
,100,2023-10-27 10:24:37.72,-443,-2014,-16309,27,103,150,337,5,332,-171
,101,2023-10-27 10:24:37.74,-362,-2013,-16331,-60,86,196,361,7,354,-184
,102,2023-10-27 10:24:37.76,-436,-1933,-16336,-210,27,235,369,-8,377,-180
,103,2023-10-27 10:24:37.78,-486,-1912,-16268,-279,-83,223,378,-12,390,-183
,104,2023-10-27 10:24:37.80,-439,-1840,-16277,-273,-24,198,388,-18,406,-185
,105,2023-10-27 10:24:37.82,-458,-1758,-16403,-252,-42,257,381,-24,405,-178
,106,2023-10-27 10:24:37.84,-420,-1698,-16383,-208,-62,252,382,-37,419,-172
,107,2023-10-27 10:24:37.86,-564,-1649,-16479,-209,-142,235,396,-42,438,-177
,108,2023-10-27 10:24:37.88,-595,-1691,-16453,-314,-244,249,404,-38,442,-183
,109,2023-10-27 10:24:37.90,-562,-1712,-16426,-265,-107,228,401,-41,442,-180
,110,2023-10-27 10:24:37.92,-508,-1676,-16311,-188,-61,285,406,-43,449,-181
,111,2023-10-27 10:24:37.94,-620,-1647,-16312,-57,-98,283,415,-55,470,-180
,112,2023-10-27 10:24:37.96,-766,-1670,-16356,36,-129,298,422,-54,476,-184
,113,2023-10-27 10:24:37.98,-677,-1647,-16272,118,-142,222,410,-46,456,-182
,114,2023-10-27 10:24:38.00,-657,-1565,-16296,209,29,150,404,-43,447,-180
,115,2023-10-27 10:24:38.02,-622,-1696,-16212,282,118,75,426,-42,468,-192
,116,2023-10-27 10:24:38.04,-582,-1701,-16196,315,196,58,436,-42,478,-197
,117,2023-10-27 10:24:38.06,-631,-1766,-16297,334,197,11,439,-61,500,-189
,118,2023-10-27 10:24:38.08,-544,-1773,-16270,361,251,41,442,-64,506,-189
,119,2023-10-27 10:24:38.10,-500,-1879,-16295,349,254,105,445,-59,504,-193
,120,2023-10-27 10:24:38.12,-540,-1957,-16289,340,190,207,460,-68,528,-196
,121,2023-10-27 10:24:38.14,-464,-1869,-16385,291,317,299,465,-78,543,-193
,122,2023-10-27 10:24:38.16,-418,-1817,-16391,207,312,344,460,-66,526,-197
,123,2023-10-27 10:24:38.18,-431,-1862,-16357,243,296,328,462,-62,524,-200
,124,2023-10-27 10:24:38.20,-407,-2001,-16351,345,266,340,464,-75,539,-194
,125,2023-10-27 10:24:38.22,-380,-2014,-16307,535,165,368,462,-69,531,-196
,126,2023-10-27 10:24:38.24,-320,-1964,-16343,630,159,352,458,-76,534,-191
,127,2023-10-27 10:24:38.26,-296,-1928,-16376,612,187,409,464,-75,539,-194
,128,2023-10-27 10:24:38.28,-362,-2089,-16356,548,49,482,464,-79,543,-192
,129,2023-10-27 10:24:38.30,-392,-2112,-16440,493,28,513,474,-69,543,-202
,130,2023-10-27 10:24:38.32,-354,-2351,-16052,584,48,605,472,-67,539,-202
,131,2023-10-27 10:24:38.34,-288,-2089,-16248,695,8,672,474,-69,543,-202
,132,2023-10-27 10:24:38.36,-344,-2059,-16350,512,62,654,462,-72,534,-195
,133,2023-10-27 10:24:38.38,-308,-2126,-16245,473,123,748,473,-80,553,-196
,134,2023-10-27 10:24:38.40,-403,-2247,-16317,352,34,685,471,-70,541,-200
,135,2023-10-27 10:24:38.42,-311,-2154,-16264,351,-132,793,459,-72,531,-193
,136,2023-10-27 10:24:38.44,-476,-2131,-16275,244,1,903,454,-73,527,-190
,137,2023-10-27 10:24:38.46,-443,-2044,-16311,106,-25,925,455,-74,529,-190
,138,2023-10-27 10:24:38.48,-460,-2067,-16303,51,-13,938,459,-69,528,-195
,139,2023-10-27 10:24:38.50,-581,-2176,-16508,36,-44,962,456,-60,516,-198
,140,2023-10-27 10:24:38.52,-299,-2144,-16364,103,-124,1082,446,-52,498,-197
,141,2023-10-27 10:24:38.54,-471,-2028,-16427,97,19,1129,431,-58,489,-186
,142,2023-10-27 10:24:38.56,-476,-1944,-16366,118,-49,1122,444,-58,502,-193
,143,2023-10-27 10:24:38.58,-474,-2015,-16394,235,-190,1024,452,-48,500,-202
,144,2023-10-27 10:24:38.60,-453,-2068,-16253,342,-275,910,440,-46,486,-197
,145,2023-10-27 10:24:38.62,-526,-2105,-16147,478,-125,855,443,-42,485,-200
,146,2023-10-27 10:24:38.64,-636,-2093,-16180,618,-80,786,437,-33,470,-202
,147,2023-10-27 10:24:38.66,-561,-2216,-16212,662,-90,739,441,-36,477,-202
,148,2023-10-27 10:24:38.68,-611,-2227,-16204,640,-11,645,428,-18,446,-205
,149,2023-10-27 10:24:38.70,-548,-2146,-16324,601,34,534,418,-7,425,-205
,150,2023-10-27 10:24:38.72,-500,-2153,-16244,457,-4,452,409,-12,421,-198
,151,2023-10-27 10:24:38.74,-537,-2222,-16310,323,83,374,424,-17,441,-203
,152,2023-10-27 10:24:38.76,-497,-2215,-16407,235,202,331,416,-11,427,-202
,153,2023-10-27 10:24:38.78,-494,-2246,-16366,174,87,303,405,-4,409,-200
,154,2023-10-27 10:24:38.80,-494,-2268,-16267,142,-31,271,400,4,396,-202
,155,2023-10-27 10:24:38.82,-494,-2296,-16246,168,-48,277,396,15,381,-205
,156,2023-10-27 10:24:38.84,-547,-2249,-16278,196,0,285,389,22,367,-205
,157,2023-10-27 10:24:38.86,-545,-2249,-16262,197,-51,300,383,30,353,-206
,158,2023-10-27 10:24:38.88,-496,-2263,-16169,128,-129,271,378,36,342,-207
,159,2023-10-27 10:24:38.90,-605,-2353,-16278,112,-39,379,374,39,335,-206
,160,2023-10-27 10:24:38.92,-624,-2269,-16312,62,-14,374,367,59,308,-213
,161,2023-10-27 10:24:38.94,-698,-2251,-16284,8,-117,352,346,61,285,-203
,162,2023-10-27 10:24:38.96,-698,-2193,-16285,6,-29,339,345,69,276,-207
,163,2023-10-27 10:24:38.98,-608,-2267,-16179,13,-35,292,345,76,269,-210
,164,2023-10-27 10:24:39.00,-665,-2148,-16183,63,1,306,332,85,247,-208
,165,2023-10-27 10:24:39.02,-653,-2258,-16140,66,18,289,310,91,219,-200
,166,2023-10-27 10:24:39.04,-632,-2120,-16357,62,46,266,316,99,217,-207
,167,2023-10-27 10:24:39.06,-572,-2055,-16354,-1,246,182,307,100,207,-203
,168,2023-10-27 10:24:39.08,-582,-2003,-16328,83,216,87,300,110,190,-205
,169,2023-10-27 10:24:39.10,-579,-2162,-16277,55,176,62,291,123,168,-207
,170,2023-10-27 10:24:39.12,-567,-2250,-16238,76,89,104,290,131,159,-210
,171,2023-10-27 10:24:39.14,-614,-2256,-16180,125,145,200,276,129,147,-202
,172,2023-10-27 10:24:39.16,-443,-2354,-16226,133,112,242,277,129,148,-203
,173,2023-10-27 10:24:39.18,-479,-2308,-16306,120,50,347,273,142,131,-207
,174,2023-10-27 10:24:39.20,-546,-2198,-16330,137,161,409,262,146,116,-204
,175,2023-10-27 10:24:39.22,-603,-2196,-16359,104,114,423,243,156,87,-199
,176,2023-10-27 10:24:39.24,-577,-2305,-16257,50,31,466,231,159,72,-195
,177,2023-10-27 10:24:39.26,-643,-2299,-16329,47,-103,492,224,170,54,-197
,178,2023-10-27 10:24:39.28,-674,-2274,-16369,23,-112,539,213,170,43,-191
,179,2023-10-27 10:24:39.30,-497,-2110,-16259,-4,-109,538,194,178,16,-186
,180,2023-10-27 10:24:39.32,-649,-2021,-16239,-133,36,574,198,188,10,-193
,181,2023-10-27 10:24:39.34,-754,-2081,-16420,-179,2,535,177,202,-25,-189
,182,2023-10-27 10:24:39.36,-643,-2130,-16468,-127,-116,583,158,212,-54,-185
,183,2023-10-27 10:24:39.38,-705,-2078,-16491,-112,-252,621,167,193,-26,-180
,184,2023-10-27 10:24:39.40,-633,-2005,-16327,-114,-236,780,177,193,-16,-185
,185,2023-10-27 10:24:39.42,-651,-1972,-16304,-76,-274,746,169,208,-39,-188
,186,2023-10-27 10:24:39.44,-695,-2030,-16162,57,-216,787,-55,-848,793,451
,187,2023-10-27 10:24:39.46,-672,-2122,-16130,121,8,803,20,-1433,1453,706
,188,2023-10-27 10:24:39.48,-730,-2039,-16153,230,104,896,-25,-1306,1281,665
,189,2023-10-27 10:24:39.50,-771,-2026,-16427,95,517,892,-49,-1258,1209,653
,190,2023-10-27 10:24:39.52,-631,-2071,-16405,87,838,953,-72,-1238,1166,655
,191,2023-10-27 10:24:39.54,-432,-1892,-16451,46,642,1022,-30,-884,854,457
,192,2023-10-27 10:24:39.56,-372,-2039,-16332,123,211,1049,20,-689,709,334
,193,2023-10-27 10:24:39.58,-404,-1917,-16444,70,217,1198,20,-730,750,355
,194,2023-10-27 10:24:39.60,-504,-2036,-16487,136,116,1244,-67,-722,655,394
,195,2023-10-27 10:24:39.62,-497,-1952,-16409,190,-113,1215,-48,-527,479,287
,196,2023-10-27 10:24:39.64,-554,-1966,-16384,214,-66,1207,-45,-328,283,186
,197,2023-10-27 10:24:39.66,-459,-2078,-16034,258,-161,1297,-12,-409,397,210
,198,2023-10-27 10:24:39.68,-567,-2227,-16064,302,-46,1258,-22,-455,433,238
,199,2023-10-27 10:24:39.70,-554,-2197,-16167,427,49,1252,-18,-473,455,245
,200,2023-10-27 10:24:39.72,-679,-2117,-16221,506,113,1121,-10,-468,458,239
,201,2023-10-27 10:24:39.74,-680,-2032,-16464,460,18,1054,-30,-474,444,252
,202,2023-10-27 10:24:39.76,-588,-1849,-16364,270,53,888,-19,-498,479,258
,203,2023-10-27 10:24:39.78,-596,-1909,-16381,129,-16,697,-4,-509,505,256
,204,2023-10-27 10:24:39.80,-623,-1932,-16428,-87,-166,490,-31,-490,459,260
,205,2023-10-27 10:24:39.82,-717,-2007,-16420,-83,-97,374,-19,-501,482,260
,206,2023-10-27 10:24:39.84,-864,-2017,-16533,-46,-251,276,-9,-505,496,257
,207,2023-10-27 10:24:39.86,-788,-2048,-16526,27,-353,302,-40,-496,456,268
,208,2023-10-27 10:24:39.88,-675,-1946,-16305,67,-516,307,-39,-493,454,266
,209,2023-10-27 10:24:39.90,-786,-2060,-16163,63,-509,424,-5,-451,446,228
,210,2023-10-27 10:24:39.92,-656,-1879,-16206,28,-271,369,8,-466,474,229
,211,2023-10-27 10:24:39.94,-628,-1935,-16077,100,-251,388,6,-492,498,243
,212,2023-10-27 10:24:39.96,-724,-1964,-16254,180,-264,219,2,-507,509,252
,213,2023-10-27 10:24:39.98,-751,-2018,-16256,242,-295,162,12,-509,521,248
,214,2023-10-27 10:24:40.00,-823,-2042,-16185,314,-244,107,15,-510,525,247
,215,2023-10-27 10:24:40.02,-737,-2288,-16120,337,-207,45,25,-535,560,255
,216,2023-10-27 10:24:40.04,-728,-2337,-16152,379,-142,101,13,-546,559,266
,217,2023-10-27 10:24:40.06,-719,-2392,-16298,458,-45,247,27,-571,598,272
,218,2023-10-27 10:24:40.08,-819,-2306,-16202,422,23,362,29,-579,608,275
,219,2023-10-27 10:24:40.10,-829,-2271,-16346,314,-23,330,28,-595,623,283
,220,2023-10-27 10:24:40.12,-898,-2138,-16387,212,-133,300,32,-583,615,275
,221,2023-10-27 10:24:40.14,-1005,-2143,-16351,119,-128,185,68,-588,656,260
,222,2023-10-27 10:24:40.16,-946,-2044,-16215,-6,-264,26,112,-596,708,242
,223,2023-10-27 10:24:40.18,-830,-2185,-16101,-114,-27,-81,44,-588,632,272
,224,2023-10-27 10:24:40.20,-905,-2171,-16207,-35,-173,-126,73,-593,666,260
,225,2023-10-27 10:24:40.22,-861,-2098,-16154,-94,3,-103,78,-589,667,255
,226,2023-10-27 10:24:40.24,-940,-1932,-16268,-81,65,-127,58,-572,630,257
,227,2023-10-27 10:24:40.26,-860,-1990,-16370,-173,76,-123,88,-585,673,248
,228,2023-10-27 10:24:40.28,-938,-1955,-16386,-169,-42,-99,83,-617,700,267
,229,2023-10-27 10:24:40.30,-857,-1980,-16419,-139,-217,-127,97,-613,710,258
,230,2023-10-27 10:24:40.32,-873,-1988,-16382,-68,-287,-114,101,-609,710,254
,231,2023-10-27 10:24:40.34,-935,-2043,-16346,12,-285,-85,105,-602,707,248
,232,2023-10-27 10:24:40.36,-980,-2037,-16365,116,-361,-80,94,-597,691,251
,233,2023-10-27 10:24:40.38,-1034,-2093,-16345,203,-459,-43,113,-604,717,245
,234,2023-10-27 10:24:40.40,-1104,-2063,-16260,272,-533,-21,122,-603,725,240
,235,2023-10-27 10:24:40.42,-1193,-2013,-16152,248,-458,-80,133,-612,745,239
,236,2023-10-27 10:24:40.44,-1257,-2096,-16042,288,-351,-118,122,-608,730,243
,237,2023-10-27 10:24:40.46,-1214,-2185,-16199,314,-314,-163,132,-618,750,243
,238,2023-10-27 10:24:40.48,-1138,-2120,-16040,311,-153,-252,151,-615,766,232
,239,2023-10-27 10:24:40.50,-1066,-2141,-15649,223,176,-344,167,-613,780,223
,240,2023-10-27 10:24:40.52,-1158,-2254,-16324,199,243,-436,193,-616,809,211
,241,2023-10-27 10:24:40.54,-1073,-2290,-16304,145,324,-360,183,-630,813,223
,242,2023-10-27 10:24:40.56,-990,-2268,-16367,195,248,-256,176,-641,817,232
,243,2023-10-27 10:24:40.58,-1010,-2249,-16227,80,125,-129,174,-604,778,215
,244,2023-10-27 10:24:40.60,-971,-2220,-16228,-2,-59,-52,184,-603,787,209
,245,2023-10-27 10:24:40.62,-1006,-2238,-16272,16,-25,56,212,-623,835,205
,246,2023-10-27 10:24:40.64,-1024,-2316,-16280,24,-68,130,208,-621,829,206
,247,2023-10-27 10:24:40.66,-993,-2185,-16188,25,-5,181,212,-619,831,203
,248,2023-10-27 10:24:40.68,-1074,-2092,-16230,78,72,140,215,-633,848,209
,249,2023-10-27 10:24:40.70,-1020,-2071,-16189,85,87,170,226,-639,865,206
,250,2023-10-27 10:24:40.72,-1043,-2042,-16193,112,160,84,231,-632,863,200
,251,2023-10-27 10:24:40.74,-1015,-2055,-16209,92,139,-67,234,-629,863,197
,252,2023-10-27 10:24:40.76,-962,-1981,-16254,104,271,-199,241,-631,872,195
,253,2023-10-27 10:24:40.78,-894,-1997,-16315,142,239,-324,249,-638,887,194
,254,2023-10-27 10:24:40.80,-901,-2108,-16346,157,275,-377,259,-629,888,185
,255,2023-10-27 10:24:40.82,-922,-2196,-16268,116,183,-382,261,-630,891,184
,256,2023-10-27 10:24:40.84,-840,-2200,-16236,26,62,-327,288,-664,952,188
,257,2023-10-27 10:24:40.86,-892,-2203,-16084,104,79,-232,282,-675,957,196
,258,2023-10-27 10:24:40.88,-982,-2264,-16256,88,53,-213,281,-660,941,189
,259,2023-10-27 10:24:40.90,-1002,-2249,-16313,89,-5,-62,310,-661,971,175
,260,2023-10-27 10:24:40.92,-1085,-2303,-16240,103,-60,-2,312,-677,989,182
,261,2023-10-27 10:24:40.94,-1079,-2300,-16147,84,-102,23,309,-675,984,183
,262,2023-10-27 10:24:40.96,-1126,-2198,-16254,63,-92,41,306,-645,951,169
,263,2023-10-27 10:24:40.98,-1079,-2123,-16235,12,-38,24,308,-647,955,169
,264,2023-10-27 10:24:41.00,-1143,-2110,-16365,-8,31,31,327,-654,981,163
,265,2023-10-27 10:24:41.02,-1182,-2180,-16354,-79,6,28,341,-657,998,158
,266,2023-10-27 10:24:41.04,-1083,-2060,-16192,-103,-16,-16,335,-689,1024,177
,267,2023-10-27 10:24:41.06,-1127,-1965,-16200,-115,99,-24,339,-702,1041,181
,268,2023-10-27 10:24:41.08,-1035,-1973,-16252,-190,90,-84,342,-685,1027,171
,269,2023-10-27 10:24:41.10,-1033,-1998,-16249,-168,193,-113,336,-682,1018,173
,270,2023-10-27 10:24:41.12,-1017,-1933,-16212,-89,258,-128,332,-689,1021,178
,271,2023-10-27 10:24:41.14,-911,-1943,-16232,-77,218,-233,334,-675,1009,170
,272,2023-10-27 10:24:41.16,-870,-1953,-16211,1,196,-222,336,-671,1007,167
,273,2023-10-27 10:24:41.18,-964,-2082,-16392,-23,179,-150,367,-696,1063,164
,274,2023-10-27 10:24:41.20,-841,-1955,-16300,-40,233,-210,357,-711,1068,177
,275,2023-10-27 10:24:41.22,-755,-1940,-16375,2,376,-159,340,-698,1038,179
,276,2023-10-27 10:24:41.24,-838,-1992,-16322,42,287,-184,355,-691,1046,168
,277,2023-10-27 10:24:41.26,-893,-2034,-16376,15,162,-167,353,-708,1061,177
,278,2023-10-27 10:24:41.28,-915,-1957,-16278,34,131,-158,332,-699,1031,183
,279,2023-10-27 10:24:41.30,-922,-1955,-16154,-13,108,-112,346,-705,1051,179
,280,2023-10-27 10:24:41.32,-908,-1947,-16278,-49,120,-115,347,-714,1061,183
,281,2023-10-27 10:24:41.34,-889,-1945,-16289,-59,18,-147,339,-713,1052,187
,282,2023-10-27 10:24:41.36,-903,-1989,-16305,-50,48,-132,336,-704,1040,184
,283,2023-10-27 10:24:41.38,-868,-1980,-16257,-10,104,-159,330,-697,1027,183
,284,2023-10-27 10:24:41.40,-842,-1921,-16278,6,284,-163,344,-688,1032,172
,285,2023-10-27 10:24:41.42,-887,-1939,-16322,25,272,-228,326,-699,1025,186
,286,2023-10-27 10:24:41.44,-808,-1857,-16394,25,244,-290,314,-669,983,177
,287,2023-10-27 10:24:41.46,-854,-1884,-16373,-36,315,-360,302,-684,986,191
,288,2023-10-27 10:24:41.48,-761,-1948,-16240,-19,236,-455,320,-694,1014,187
,289,2023-10-27 10:24:41.50,-835,-1963,-16338,12,244,-451,319,-687,1006,184
,290,2023-10-27 10:24:41.52,-847,-1935,-16387,49,325,-492,307,-659,966,176
,291,2023-10-27 10:24:41.54,-798,-1758,-15946,36,434,-470,297,-644,941,173
,292,2023-10-27 10:24:41.56,-847,-1961,-16360,40,274,-513,282,-648,930,183
,293,2023-10-27 10:24:41.58,-806,-1836,-16278,48,392,-452,296,-632,928,168
,294,2023-10-27 10:24:41.60,-681,-1798,-16299,-16,256,-625,290,-623,913,166
,295,2023-10-27 10:24:41.62,-659,-1805,-16393,-107,342,-673,300,-627,927,163
,296,2023-10-27 10:24:41.64,-702,-1792,-16328,-175,304,-792,313,-633,946,160
,297,2023-10-27 10:24:41.66,-450,-1490,-15704,-153,220,-817,287,-616,903,164
,298,2023-10-27 10:24:41.68,-696,-1962,-16302,-198,379,-784,272,-623,895,175
,299,2023-10-27 10:24:41.70,-636,-1896,-16338,-104,356,-811,276,-624,900,174
,300,2023-10-27 10:24:41.72,-767,-2074,-16511,147,349,-914,262,-575,837,156
,301,2023-10-27 10:24:41.74,-389,-1715,-16317,-168,445,-883,257,-582,839,162
,302,2023-10-27 10:24:41.76,-443,-1821,-16128,-89,335,-829,243,-582,825,169
,303,2023-10-27 10:24:41.78,-502,-1935,-16459,-140,370,-847,238,-602,840,182
,304,2023-10-27 10:24:41.80,-525,-1902,-16569,-83,293,-853,228,-574,802,173
,305,2023-10-27 10:24:41.82,-474,-1823,-16583,-133,382,-747,204,-535,739,165
,306,2023-10-27 10:24:41.84,-257,-979,-15862,34,149,-927,200,-610,810,205
,307,2023-10-27 10:24:41.86,-385,-1599,-16576,-298,319,-925,218,-635,853,208
,308,2023-10-27 10:24:41.88,-323,-1409,-15996,-364,394,-1029,217,-555,772,169
,309,2023-10-27 10:24:41.90,-292,-2063,-15984,-226,495,-1180,206,-550,756,172
,310,2023-10-27 10:24:41.92,-471,-2059,-16416,182,219,-1128,200,-557,757,178
,311,2023-10-27 10:24:41.94,-507,-2176,-16565,407,139,-970,136,-597,733,230
,312,2023-10-27 10:24:41.96,-388,-2077,-16387,448,-10,-610,122,-648,770,263
,313,2023-10-27 10:24:41.98,-317,-1675,-16094,344,-98,-581,124,-563,687,219
,314,2023-10-27 10:24:42.00,-442,-1707,-16302,332,-212,-627,158,-605,763,223
,315,2023-10-27 10:24:42.02,-663,-1851,-16568,320,-453,-702,169,-623,792,227
,316,2023-10-27 10:24:42.04,-641,-1979,-16522,176,-614,-803,159,-633,792,237
,317,2023-10-27 10:24:42.06,-633,-1862,-16428,102,-578,-895,151,-661,812,255
,318,2023-10-27 10:24:42.08,-630,-1708,-16256,-80,-507,-1014,115,-619,734,252
,319,2023-10-27 10:24:42.10,-603,-1793,-16261,-219,-304,-1134,120,-577,697,228
,320,2023-10-27 10:24:42.12,-644,-1917,-16391,-419,-170,-1217,119,-570,689,225
,321,2023-10-27 10:24:42.14,-278,-1832,-16294,-568,54,-1164,77,-600,677,261
,322,2023-10-27 10:24:42.16,-337,-1820,-16140,-663,401,-1068,93,-612,705,259
,323,2023-10-27 10:24:42.18,-308,-1664,-16120,-574,336,-1074,109,-586,695,238
,324,2023-10-27 10:24:42.20,-146,-1801,-16428,-371,309,-1033,70,-566,636,248
,325,2023-10-27 10:24:42.22,-328,-1955,-16463,-131,282,-900,82,-566,648,242
,326,2023-10-27 10:24:42.24,-313,-1856,-16448,22,70,-754,75,-601,676,263
,327,2023-10-27 10:24:42.26,-264,-1866,-16346,30,23,-643,46,-581,627,267
,328,2023-10-27 10:24:42.28,-328,-1798,-16189,128,-81,-527,53,-568,621,257
,329,2023-10-27 10:24:42.30,-416,-1911,-16330,237,-92,-409,66,-565,631,249
,330,2023-10-27 10:24:42.32,-319,-1887,-16218,272,-45,-367,65,-577,642,256
,331,2023-10-27 10:24:42.34,-371,-1795,-16195,355,-24,-216,34,-593,627,279
,332,2023-10-27 10:24:42.36,-403,-1674,-16252,195,-55,-257,20,-575,595,277
,333,2023-10-27 10:24:42.38,-582,-1705,-16269,-71,25,-265,27,-547,574,260
,334,2023-10-27 10:24:42.40,-446,-1761,-16354,-226,67,-274,24,-554,578,265
,335,2023-10-27 10:24:42.42,-406,-1791,-16452,-342,209,-150,69,-580,649,255
,336,2023-10-27 10:24:42.44,-414,-1689,-16467,-340,227,-70,15,-583,598,284
,337,2023-10-27 10:24:42.46,-316,-1643,-16351,-368,393,37,19,-592,611,286
,338,2023-10-27 10:24:42.48,-200,-1765,-16373,-228,331,128,52,-615,667,281
,339,2023-10-27 10:24:42.50,-377,-1699,-16334,-92,211,152,37,-604,641,283
,340,2023-10-27 10:24:42.52,-251,-1786,-16403,215,101,287,19,-588,607,284
,341,2023-10-27 10:24:42.54,-336,-1731,-16356,333,-64,271,0,-565,565,282
,342,2023-10-27 10:24:42.56,-337,-1572,-16225,413,-64,338,21,-584,605,281
,343,2023-10-27 10:24:42.58,-494,-1601,-16270,336,-231,230,26,-608,634,291
,344,2023-10-27 10:24:42.60,-499,-1631,-16194,213,-338,65,-3,-590,587,296
,345,2023-10-27 10:24:42.62,-502,-1662,-16355,80,-192,2,-19,-541,522,280
,346,2023-10-27 10:24:42.64,-443,-1714,-16410,17,-117,-58,-6,-505,499,255
,347,2023-10-27 10:24:42.66,-572,-1849,-16522,-116,-131,-5,13,-511,524,249
,348,2023-10-27 10:24:42.68,-502,-1771,-16639,-225,-216,127,9,-538,547,264
,349,2023-10-27 10:24:42.70,-480,-1689,-16506,-349,-185,346,-13,-562,549,287
,350,2023-10-27 10:24:42.72,-418,-1609,-16403,-397,-62,517,-13,-526,513,269
,351,2023-10-27 10:24:42.74,-301,-1508,-16345,-337,-11,653,-38,-455,417,246
,352,2023-10-27 10:24:42.76,-373,-1463,-16409,-174,23,786,-34,-460,426,247
,353,2023-10-27 10:24:42.78,-478,-1434,-16389,-21,-127,720,-11,-461,450,236
,354,2023-10-27 10:24:42.80,-565,-1387,-16310,70,-224,646,-12,-444,432,228
,355,2023-10-27 10:24:42.82,-497,-1335,-16139,187,-359,517,-14,-453,439,233
,356,2023-10-27 10:24:42.84,-581,-1440,-16085,289,-209,395,0,-489,489,244
,357,2023-10-27 10:24:42.86,-586,-1550,-16149,371,-53,206,-5,-495,490,250
,358,2023-10-27 10:24:42.88,-599,-1537,-16274,363,79,67,-14,-496,482,255
,359,2023-10-27 10:24:42.90,-428,-1557,-16294,243,226,-11,-18,-493,475,255
,360,2023-10-27 10:24:42.92,-449,-1584,-16323,162,308,-94,8,-499,507,245
,361,2023-10-27 10:24:42.94,-394,-1675,-16401,73,299,-129,-15,-512,497,263
,362,2023-10-27 10:24:42.96,-444,-1726,-16510,50,301,-36,-8,-492,484,250
,363,2023-10-27 10:24:42.98,-381,-1682,-16462,90,192,86,2,-489,491,243
,364,2023-10-27 10:24:43.00,-330,-1636,-16419,125,208,244,7,-525,532,259
,365,2023-10-27 10:24:43.02,-333,-1692,-16414,155,-26,346,21,-539,560,259
,366,2023-10-27 10:24:43.04,-552,-1625,-16375,152,-34,485,29,-562,591,266
,367,2023-10-27 10:24:43.06,-517,-1604,-16399,124,-94,512,26,-566,592,270
,368,2023-10-27 10:24:43.08,-480,-1523,-16335,94,-32,454,17,-532,549,257
,369,2023-10-27 10:24:43.10,-440,-1512,-16397,96,-80,374,32,-544,576,256
,370,2023-10-27 10:24:43.12,-468,-1487,-16442,75,-107,251,45,-519,564,237
,371,2023-10-27 10:24:43.14,-557,-1505,-16362,75,-100,192,18,-488,506,235
,372,2023-10-27 10:24:43.16,-447,-1509,-16331,93,-45,141,48,-489,537,220
,373,2023-10-27 10:24:43.18,-517,-1507,-16332,144,14,84,52,-507,559,227
,374,2023-10-27 10:24:43.20,-387,-1581,-16382,175,-25,96,42,-507,549,232
,375,2023-10-27 10:24:43.22,-497,-1560,-16417,205,-95,63,76,-521,597,222
,376,2023-10-27 10:24:43.24,-424,-1589,-16339,232,-5,120,65,-517,582,226
,377,2023-10-27 10:24:43.26,-534,-1619,-16345,250,38,168,87,-515,602,214
,378,2023-10-27 10:24:43.28,-547,-1601,-16284,224,-17,145,77,-515,592,219
,379,2023-10-27 10:24:43.30,-571,-1692,-16286,156,83,204,98,-523,621,212
,380,2023-10-27 10:24:43.32,-433,-1514,-16408,129,74,96,89,-518,607,214
,381,2023-10-27 10:24:43.34,-398,-1597,-16337,-9,342,86,101,-530,631,214
,382,2023-10-27 10:24:43.36,-389,-1515,-16380,21,382,71,110,-530,640,210
,383,2023-10-27 10:24:43.38,-472,-1680,-16293,-50,383,148,118,-535,653,208
,384,2023-10-27 10:24:43.40,-375,-1663,-16408,79,218,212,134,-555,689,210
,385,2023-10-27 10:24:43.42,-426,-1584,-16339,186,189,310,151,-575,726,212
,386,2023-10-27 10:24:43.44,-418,-1567,-16295,286,84,279,161,-592,753,215
,387,2023-10-27 10:24:43.46,-457,-1562,-16401,256,-40,225,156,-634,790,239
,388,2023-10-27 10:24:43.48,-503,-1534,-16362,159,-113,136,183,-665,848,241
,389,2023-10-27 10:24:43.50,-439,-1512,-16335,-9,-98,65,176,-669,845,246
,390,2023-10-27 10:24:43.52,-565,-1527,-16339,-167,-62,-28,175,-649,824,237
,391,2023-10-27 10:24:43.54,-581,-1595,-16323,-237,-16,-43,181,-642,823,230
,392,2023-10-27 10:24:43.56,-573,-1711,-16463,-253,34,66,212,-612,824,200
,393,2023-10-27 10:24:43.58,-392,-1510,-16341,-275,265,58,209,-594,803,192
,394,2023-10-27 10:24:43.60,-359,-1414,-16339,-214,439,106,194,-575,769,190
,395,2023-10-27 10:24:43.62,-398,-1395,-16366,-83,367,12,239,-611,850,186
,396,2023-10-27 10:24:43.64,-408,-1477,-16462,124,247,-32,234,-619,853,192
,397,2023-10-27 10:24:43.66,-500,-1566,-16360,322,83,-33,233,-627,860,197
,398,2023-10-27 10:24:43.68,-366,-1483,-16179,408,74,-71,248,-629,877,190
,399,2023-10-27 10:24:43.70,-524,-1424,-16260,371,22,-165,251,-637,888,193
,400,2023-10-27 10:24:43.72,-411,-1496,-16323,265,127,-193,267,-671,938,202
,401,2023-10-27 10:24:43.74,-447,-1605,-16337,123,132,-299,261,-668,929,203
,402,2023-10-27 10:24:43.76,-398,-1717,-16255,7,322,-190,278,-669,947,195
,403,2023-10-27 10:24:43.78,-362,-1695,-16390,-34,467,-46,294,-680,974,193
,404,2023-10-27 10:24:43.80,-291,-1641,-16433,-74,581,126,282,-656,938,187
,405,2023-10-27 10:24:43.82,-170,-1807,-16466,-14,337,308,282,-644,926,181
,406,2023-10-27 10:24:43.84,-247,-1574,-16460,57,410,321,288,-634,922,173
,407,2023-10-27 10:24:43.86,-276,-1553,-16406,185,210,322,278,-627,905,174
,408,2023-10-27 10:24:43.88,-162,-1591,-16228,295,68,378,284,-627,911,171
,409,2023-10-27 10:24:43.90,-230,-1561,-16385,349,-46,336,302,-650,952,174
,410,2023-10-27 10:24:43.92,-301,-1417,-16377,298,33,294,302,-674,976,186
,411,2023-10-27 10:24:43.94,-392,-1366,-16329,106,-104,195,320,-678,998,179
,412,2023-10-27 10:24:43.96,-342,-1453,-16299,-108,-79,107,316,-661,977,172
,413,2023-10-27 10:24:43.98,-249,-1629,-16222,-138,12,105,330,-670,1000,170
,414,2023-10-27 10:24:44.00,-377,-1586,-16429,-80,-70,188,340,-674,1014,167
,415,2023-10-27 10:24:44.02,-342,-1609,-16421,-28,24,219,354,-685,1039,165
,416,2023-10-27 10:24:44.04,-409,-1462,-16535,31,162,334,338,-668,1006,165
,417,2023-10-27 10:24:44.06,-330,-1467,-16644,-14,166,323,347,-644,991,148
,418,2023-10-27 10:24:44.08,-339,-1461,-16499,10,62,362,355,-651,1006,148
,419,2023-10-27 10:24:44.10,-393,-1350,-16402,66,21,347,352,-653,1005,150
,420,2023-10-27 10:24:44.12,-336,-1296,-16265,89,-1,192,346,-660,1006,157
,421,2023-10-27 10:24:44.14,-225,-1309,-16242,114,37,102,345,-650,995,152
,422,2023-10-27 10:24:44.16,-359,-1449,-16353,164,44,-7,380,-664,1044,142
,423,2023-10-27 10:24:44.18,-327,-1513,-16314,193,8,33,378,-694,1072,158
,424,2023-10-27 10:24:44.20,-370,-1536,-16383,187,24,102,357,-661,1018,152
,425,2023-10-27 10:24:44.22,-311,-1479,-16364,220,66,157,356,-645,1001,144
,426,2023-10-27 10:24:44.24,-249,-1551,-16386,233,81,210,358,-642,1000,142
,427,2023-10-27 10:24:44.26,-211,-1538,-16388,298,69,257,368,-649,1017,140
,428,2023-10-27 10:24:44.28,-237,-1495,-16267,315,102,310,357,-641,998,142
,429,2023-10-27 10:24:44.30,-301,-1489,-16277,245,137,234,366,-616,982,125
,430,2023-10-27 10:24:44.32,-241,-1561,-16318,279,138,219,384,-623,1007,119
,431,2023-10-27 10:24:44.34,-255,-1617,-16359,282,99,205,373,-647,1020,137
,432,2023-10-27 10:24:44.36,-307,-1491,-16367,245,90,221,349,-651,1000,151
,433,2023-10-27 10:24:44.38,-279,-1611,-16353,219,51,236,371,-658,1029,143
,434,2023-10-27 10:24:44.40,-306,-1584,-16354,239,-48,238,366,-673,1039,153
,435,2023-10-27 10:24:44.42,-288,-1698,-16386,245,-54,274,349,-680,1029,165
,436,2023-10-27 10:24:44.44,-187,-1687,-16516,179,-81,364,355,-670,1025,157
,437,2023-10-27 10:24:44.46,-263,-1534,-16476,54,-16,413,341,-665,1006,162
,438,2023-10-27 10:24:44.48,-172,-1532,-16416,13,0,407,334,-640,974,153
,439,2023-10-27 10:24:44.50,-279,-1585,-16421,2,-54,395,351,-647,998,148
,440,2023-10-27 10:24:44.52,-190,-1613,-16401,-10,22,455,331,-650,981,159
,441,2023-10-27 10:24:44.54,-247,-1489,-16307,19,8,539,306,-621,927,157
,442,2023-10-27 10:24:44.56,-216,-1608,-16282,35,41,645,330,-656,986,163
,443,2023-10-27 10:24:44.58,-254,-1598,-16566,95,-108,761,310,-682,992,186
,444,2023-10-27 10:24:44.60,-260,-1656,-16335,178,-114,844,288,-664,952,188
,445,2023-10-27 10:24:44.62,-291,-1553,-16273,285,-142,977,280,-652,932,186
,446,2023-10-27 10:24:44.64,-488,-1604,-16370,358,-167,1029,270,-658,928,194
,447,2023-10-27 10:24:44.66,-540,-1521,-16349,364,-143,1011,268,-609,877,170
,448,2023-10-27 10:24:44.68,-431,-1534,-16180,396,-127,1045,293,-593,886,150
,449,2023-10-27 10:24:44.70,-498,-1644,-16304,393,-161,1040,306,-623,929,158
,450,2023-10-27 10:24:44.72,-477,-1485,-16365,345,36,1028,286,-640,926,177
,451,2023-10-27 10:24:44.74,-476,-1561,-16368,403,271,1090,266,-649,915,191
,452,2023-10-27 10:24:44.76,-330,-1504,-15981,536,56,1099,250,-623,873,186
,453,2023-10-27 10:24:44.78,-369,-1462,-16108,343,443,1061,238,-587,825,174
,454,2023-10-27 10:24:44.80,-307,-1467,-16261,209,614,963,233,-571,804,169
,455,2023-10-27 10:24:44.82,-232,-1501,-16343,132,554,888,227,-572,799,172
,456,2023-10-27 10:24:44.84,-107,-1500,-16463,142,504,850,215,-554,769,169
,457,2023-10-27 10:24:44.86,-102,-1477,-16421,188,377,858,219,-586,805,183
,458,2023-10-27 10:24:44.88,-164,-1518,-16456,154,260,859,221,-606,827,192
,459,2023-10-27 10:24:44.90,-153,-1464,-16521,100,68,786,208,-597,805,194
,460,2023-10-27 10:24:44.92,-253,-1417,-16498,-18,-71,747,190,-586,776,198
,461,2023-10-27 10:24:44.94,-246,-1487,-16418,-139,-183,617,183,-595,778,206
,462,2023-10-27 10:24:44.96,-352,-1515,-16426,-250,-287,483,186,-596,782,205
,463,2023-10-27 10:24:44.98,-389,-1491,-16297,-405,-237,334,171,-592,763,210
,464,2023-10-27 10:24:45.00,-435,-1490,-16323,-621,-113,316,152,-584,736,216
,465,2023-10-27 10:24:45.02,-440,-1646,-16375,-898,-53,239,152,-586,738,217
,466,2023-10-27 10:24:45.04,-411,-1578,-16345,-1043,-60,232,159,-611,770,226
,467,2023-10-27 10:24:45.06,-396,-1579,-16327,-1068,-30,238,126,-596,722,235
,468,2023-10-27 10:24:45.08,-249,-1425,-16319,-1022,15,201,114,-583,697,234
,469,2023-10-27 10:24:45.10,-358,-1372,-16352,-908,-14,174,132,-605,737,236
,470,2023-10-27 10:24:45.12,-286,-1268,-16416,-818,28,120,129,-600,729,235
,471,2023-10-27 10:24:45.14,-281,-1216,-16430,-745,-2,94,98,-605,703,253
,472,2023-10-27 10:24:45.16,-296,-1214,-16388,-665,-46,57,107,-606,713,249
,473,2023-10-27 10:24:45.18,-299,-1113,-16485,-555,-143,100,69,-602,671,266
,474,2023-10-27 10:24:45.20,-349,-1129,-16445,-522,-193,165,52,-601,653,274
,475,2023-10-27 10:24:45.22,-369,-1139,-16406,-406,-232,285,95,-614,709,259
,476,2023-10-27 10:24:45.24,-460,-1120,-16322,-313,-289,342,94,-611,705,258
,477,2023-10-27 10:24:45.26,-605,-1148,-16330,-241,-311,454,62,-595,657,266
,478,2023-10-27 10:24:45.28,-521,-1123,-16410,-132,-283,509,80,-597,677,258
,479,2023-10-27 10:24:45.30,-635,-956,-16402,-42,-270,566,55,-587,642,266
,480,2023-10-27 10:24:45.32,-591,-1001,-16376,31,-253,575,39,-562,601,261
,481,2023-10-27 10:24:45.34,-606,-901,-16377,81,-272,550,30,-560,590,265
,482,2023-10-27 10:24:45.36,-576,-922,-16352,112,-221,469,47,-558,605,255
,483,2023-10-27 10:24:45.38,-583,-889,-16280,129,-116,389,30,-540,570,255
,484,2023-10-27 10:24:45.40,-609,-991,-16240,165,-54,326,41,-530,571,244
,485,2023-10-27 10:24:45.42,-606,-1029,-16430,165,-54,308,34,-502,536,234
,486,2023-10-27 10:24:45.44,-671,-1084,-16282,263,-83,281,8,-508,516,250
,487,2023-10-27 10:24:45.46,-587,-1037,-16372,188,179,299,20,-515,535,247
,488,2023-10-27 10:24:45.48,-547,-1029,-16568,283,-3,306,24,-494,518,235
,489,2023-10-27 10:24:45.50,-448,-1085,-16201,219,215,358,-5,-470,465,237
,490,2023-10-27 10:24:45.52,-378,-973,-16333,260,242,372,7,-477,484,235
,491,2023-10-27 10:24:45.54,-403,-925,-16598,209,245,324,44,-476,520,216
,492,2023-10-27 10:24:45.56,-300,-979,-16284,258,228,284,-29,-426,397,227
,493,2023-10-27 10:24:45.58,-381,-1021,-16519,202,237,268,-17,-406,389,211
,494,2023-10-27 10:24:45.60,-426,-1032,-16522,198,105,293,-6,-482,476,244
,495,2023-10-27 10:24:45.62,-493,-776,-15987,241,-191,353,-10,-484,474,247
,496,2023-10-27 10:24:45.64,-390,-1040,-16554,290,-249,434,-20,-430,410,225
,497,2023-10-27 10:24:45.66,-463,-1059,-16500,405,-378,578,-30,-345,315,187
,498,2023-10-27 10:24:45.68,-500,-1157,-16457,649,-798,784,33,-306,339,136
,499,2023-10-27 10:24:45.70,-585,-1345,-16407,837,-887,998,-70,-292,222,181
,500,2023-10-27 10:24:45.72,-769,-1372,-16537,1176,-1005,1245,-42,-309,267,175
,501,2023-10-27 10:24:45.74,-795,-1436,-16445,1614,-1395,1668,-6,-336,330,171
,502,2023-10-27 10:24:45.76,-870,-1380,-16059,1805,-1550,2004,-20,-330,310,175
,503,2023-10-27 10:24:45.78,-977,-1424,-16283,2015,-1600,2264,-37,-321,284,179
,504,2023-10-27 10:24:45.80,-941,-1694,-16082,2168,-1568,2486,-55,-251,196,153
,505,2023-10-27 10:24:45.82,-1089,-1572,-16150,2084,-1310,2617,-23,-239,216,131
,506,2023-10-27 10:24:45.84,-975,-1456,-15981,1837,-854,2736,-5,-215,210,110
,507,2023-10-27 10:24:45.86,-959,-1498,-15962,1462,-399,2725,-14,-239,225,126
,508,2023-10-27 10:24:45.88,-1110,-1348,-16180,1025,90,2443,-34,-228,194,131
,509,2023-10-27 10:24:45.90,-1062,-1631,-16516,796,326,2178,-65,-59,-6,62
,510,2023-10-27 10:24:45.92,-1138,-1383,-16687,433,863,1898,22,-158,180,68
,511,2023-10-27 10:24:45.94,-1002,-1462,-16421,77,983,1476,55,-335,390,140
,512,2023-10-27 10:24:45.96,-893,-1433,-16289,-139,1039,1177,48,-460,508,206
,513,2023-10-27 10:24:45.98,-1012,-1426,-16369,-360,1023,730,-20,-500,480,260
,514,2023-10-27 10:24:46.00,-773,-1524,-16293,-463,930,409,-56,-301,245,178
,515,2023-10-27 10:24:46.02,-753,-1550,-16275,-456,761,117,2,-311,313,154
,516,2023-10-27 10:24:46.04,-720,-1512,-16432,-451,630,-109,17,-363,380,173
,517,2023-10-27 10:24:46.06,-711,-1495,-16505,-427,440,-252,-18,-299,281,158
,518,2023-10-27 10:24:46.08,-738,-1583,-16464,-430,300,-395,3,-311,314,154
,519,2023-10-27 10:24:46.10,-752,-1501,-16375,-344,63,-479,10,-320,330,155
,520,2023-10-27 10:24:46.12,-880,-1614,-16513,-268,-171,-452,17,-288,305,135
,521,2023-10-27 10:24:46.14,-835,-1613,-16434,-220,-297,-386,44,-278,322,117
,522,2023-10-27 10:24:46.16,-893,-1645,-16378,-59,-262,-278,36,-265,301,114
,523,2023-10-27 10:24:46.18,-999,-1617,-16245,111,-301,-78,45,-256,301,105
,524,2023-10-27 10:24:46.20,-988,-1559,-16158,137,-358,93,55,-284,339,114
,525,2023-10-27 10:24:46.22,-1004,-1532,-16227,108,-289,184,47,-297,344,125
,526,2023-10-27 10:24:46.24,-945,-1444,-16138,159,-206,234,68,-320,388,126
,527,2023-10-27 10:24:46.26,-965,-1371,-16211,125,-30,160,86,-324,410,119
,528,2023-10-27 10:24:46.28,-896,-1389,-16359,140,70,94,92,-281,373,94
,529,2023-10-27 10:24:46.30,-930,-1392,-16336,111,176,-3,107,-317,424,105
,530,2023-10-27 10:24:46.32,-912,-1474,-16376,142,200,-49,76,-315,391,119
,531,2023-10-27 10:24:46.34,-875,-1538,-16368,118,185,-45,117,-336,453,109
,532,2023-10-27 10:24:46.36,-797,-1541,-16402,193,144,3,144,-376,520,116
,533,2023-10-27 10:24:46.38,-910,-1535,-16314,248,98,47,115,-386,501,135
,534,2023-10-27 10:24:46.40,-869,-1611,-16336,307,105,143,114,-373,487,129
,535,2023-10-27 10:24:46.42,-769,-1525,-16377,376,121,187,126,-361,487,117
,536,2023-10-27 10:24:46.44,-869,-1500,-16397,312,62,229,132,-365,497,116
,537,2023-10-27 10:24:46.46,-908,-1483,-16378,250,8,241,138,-360,498,111
,538,2023-10-27 10:24:46.48,-924,-1505,-16355,198,-25,155,149,-366,515,108
,539,2023-10-27 10:24:46.50,-776,-1544,-16353,196,17,125,169,-393,562,112
,540,2023-10-27 10:24:46.52,-840,-1553,-16268,248,102,69,167,-429,596,131
,541,2023-10-27 10:24:46.54,-904,-1591,-16347,242,97,89,154,-330,484,88
,542,2023-10-27 10:24:46.56,-869,-1570,-16370,226,136,46,101,-96,197,-2
,543,2023-10-27 10:24:46.58,-813,-1591,-16354,233,137,38,136,108,28,-122
,544,2023-10-27 10:24:46.60,-857,-1627,-16365,157,144,-14,151,245,-94,-198
,545,2023-10-27 10:24:46.62,-861,-1661,-16390,107,144,-16,127,340,-213,-233
,546,2023-10-27 10:24:46.64,-688,-1607,-16410,94,138,-19,160,404,-244,-282
,547,2023-10-27 10:24:46.66,-756,-1658,-16400,68,117,2,157,456,-299,-306
,548,2023-10-27 10:24:46.68,-718,-1661,-16337,110,91,58,144,498,-354,-321
,549,2023-10-27 10:24:46.70,-709,-1618,-16362,160,62,121,167,528,-361,-347
,550,2023-10-27 10:24:46.72,-763,-1654,-16313,162,-6,210,166,542,-376,-354
,551,2023-10-27 10:24:46.74,-837,-1553,-16341,157,-45,270,173,550,-377,-361
,552,2023-10-27 10:24:46.76,-841,-1538,-16358,128,-94,301,194,569,-375,-381
,553,2023-10-27 10:24:46.78,-820,-1510,-16361,115,-98,275,196,579,-383,-387
,554,2023-10-27 10:24:46.80,-924,-1538,-16294,121,-56,256,206,566,-360,-386
,555,2023-10-27 10:24:46.82,-869,-1585,-16370,148,-53,234,193,560,-367,-376
,556,2023-10-27 10:24:46.84,-862,-1551,-16303,165,10,190,210,581,-371,-395
,557,2023-10-27 10:24:46.86,-877,-1554,-16339,219,122,160,199,586,-387,-392
,558,2023-10-27 10:24:46.88,-820,-1503,-16411,160,116,127,203,604,-401,-403
,559,2023-10-27 10:24:46.90,-829,-1667,-16325,166,64,169,224,620,-396,-422
,560,2023-10-27 10:24:46.92,-914,-1572,-16276,163,39,199,222,611,-389,-416
,561,2023-10-27 10:24:46.94,-849,-1496,-16281,134,11,189,222,606,-384,-414
,562,2023-10-27 10:24:46.96,-832,-1531,-16278,82,-9,173,229,609,-380,-419
,563,2023-10-27 10:24:46.98,-805,-1539,-16355,69,-53,155,217,608,-391,-412
,564,2023-10-27 10:24:47.00,-898,-1525,-16382,25,-123,156,247,625,-378,-436
,565,2023-10-27 10:24:47.02,-851,-1488,-16361,15,-129,158,262,631,-369,-446
,566,2023-10-27 10:24:47.04,-906,-1523,-16365,-19,-88,138,242,639,-397,-440
,567,2023-10-27 10:24:47.06,-925,-1555,-16276,-2,-91,162,252,636,-384,-444
,568,2023-10-27 10:24:47.08,-865,-1608,-16312,66,-84,185,264,621,-357,-442
,569,2023-10-27 10:24:47.10,-987,-1599,-16214,143,-11,205,256,620,-364,-438
,570,2023-10-27 10:24:47.12,-874,-1501,-16268,192,76,243,258,639,-381,-448
,571,2023-10-27 10:24:47.14,-925,-1539,-16318,200,111,192,254,691,-437,-472
,572,2023-10-27 10:24:47.16,-900,-1575,-16432,228,83,207,242,695,-453,-468
,573,2023-10-27 10:24:47.18,-936,-1627,-16359,204,76,208,257,691,-434,-474
,574,2023-10-27 10:24:47.20,-883,-1594,-16316,206,32,198,264,690,-426,-477
,575,2023-10-27 10:24:47.22,-854,-1580,-16315,182,74,188,256,692,-436,-474
,576,2023-10-27 10:24:47.24,-901,-1594,-16306,183,92,218,263,679,-416,-471
,577,2023-10-27 10:24:47.26,-917,-1586,-16347,150,51,210,255,680,-425,-467
,578,2023-10-27 10:24:47.28,-872,-1631,-16393,114,16,199,238,682,-444,-460
,579,2023-10-27 10:24:47.30,-885,-1514,-16308,101,14,170,248,684,-436,-466
,580,2023-10-27 10:24:47.32,-871,-1566,-16356,39,-7,125,249,681,-432,-465
,581,2023-10-27 10:24:47.34,-894,-1511,-16381,13,6,103,245,669,-424,-457
,582,2023-10-27 10:24:47.36,-854,-1566,-16370,26,7,67,249,667,-418,-458
,583,2023-10-27 10:24:47.38,-846,-1530,-16379,52,-10,59,261,668,-407,-464
,584,2023-10-27 10:24:47.40,-897,-1613,-16325,122,-2,90,241,656,-415,-448
,585,2023-10-27 10:24:47.42,-932,-1617,-16306,222,6,128,239,642,-403,-440
,586,2023-10-27 10:24:47.44,-826,-1667,-16251,284,-8,207,247,641,-394,-444
,587,2023-10-27 10:24:47.46,-912,-1731,-16254,305,39,278,244,618,-374,-431
,588,2023-10-27 10:24:47.48,-879,-1672,-16279,269,83,319,233,610,-377,-421
,589,2023-10-27 10:24:47.50,-918,-1634,-16284,148,121,339,236,618,-382,-427
,590,2023-10-27 10:24:47.52,-1008,-1535,-16412,56,100,327,231,600,-369,-415
,591,2023-10-27 10:24:47.54,-991,-1600,-16289,23,102,214,212,593,-381,-402
,592,2023-10-27 10:24:47.56,-896,-1616,-16251,61,102,184,202,605,-403,-403
,593,2023-10-27 10:24:47.58,-932,-1608,-16296,53,97,114,216,608,-392,-412
,594,2023-10-27 10:24:47.60,-842,-1488,-16311,70,110,62,235,505,-270,-370
,595,2023-10-27 10:24:47.62,-833,-1490,-16376,-42,208,-15,247,373,-126,-310
,596,2023-10-27 10:24:47.64,-930,-1536,-16386,-81,126,-103,220,299,-79,-259
,597,2023-10-27 10:24:47.66,-906,-1668,-16412,-114,20,-72,205,256,-51,-230
