// Data mode  : Full
// Data quality  : High
// Acceleration sensor's range  : 16g
// Gyroscope sensor's range  : 2000dps
//
//ARTIFACT,NUM,DATE,ACC_X,ACC_Y,ACC_Z,GYRO_X,GYRO_Y,GYRO_Z,EOG_L,EOG_R,EOG_H,EOG_V
,1,2023-10-20 13:25:02.04,-83,50,-2066,28,28,27,598,529,69,-563
,2,2023-10-20 13:25:02.05,-87,43,-2066,30,21,30,748,730,18,-739
,3,2023-10-20 13:25:02.06,-89,32,-2055,25,18,32,601,540,61,-570
,4,2023-10-20 13:25:02.07,-87,31,-2047,31,5,36,749,737,12,-743
,5,2023-10-20 13:25:02.08,-95,33,-2034,35,-6,44,593,535,58,-564
,6,2023-10-20 13:25:02.09,-92,26,-2020,29,-12,50,756,738,18,-747
,7,2023-10-20 13:25:02.10,-102,48,-2018,24,-9,50,587,533,54,-560
,8,2023-10-20 13:25:02.11,-111,47,-2018,16,-8,50,757,746,11,-751
,9,2023-10-20 13:25:02.12,-112,39,-2023,3,-9,53,587,540,47,-563
,10,2023-10-20 13:25:02.13,-105,57,-2021,-11,-7,55,760,751,9,-755
,11,2023-10-20 13:25:02.14,-105,66,-2029,-29,11,59,584,538,46,-561
,12,2023-10-20 13:25:02.15,-118,65,-2038,-48,31,61,769,742,27,-755
,13,2023-10-20 13:25:02.16,-117,80,-2056,-54,39,63,580,527,53,-553
,14,2023-10-20 13:25:02.17,-105,61,-2061,-57,44,65,768,739,29,-753
,15,2023-10-20 13:25:02.18,-88,67,-2058,-58,63,65,575,516,59,-545
,16,2023-10-20 13:25:02.19,-78,82,-2052,-48,70,58,764,736,28,-750
,17,2023-10-20 13:25:02.20,-73,103,-2043,-36,89,43,565,521,44,-543
,18,2023-10-20 13:25:02.21,-57,106,-2039,-17,107,21,769,742,27,-755
,19,2023-10-20 13:25:02.22,-45,114,-2027,6,125,-6,568,516,52,-542
,20,2023-10-20 13:25:02.23,-46,122,-2047,32,142,-44,777,732,45,-754
,21,2023-10-20 13:25:02.24,-55,114,-2049,68,144,-80,566,514,52,-540
,22,2023-10-20 13:25:02.25,-49,102,-2058,96,133,-116,776,737,39,-756
,23,2023-10-20 13:25:02.26,-39,86,-2053,119,123,-147,568,515,53,-541
,24,2023-10-20 13:25:02.27,-33,73,-2041,141,123,-180,775,734,41,-754
,25,2023-10-20 13:25:02.28,-8,91,-2036,161,117,-215,558,522,36,-540
,26,2023-10-20 13:25:02.29,-12,104,-2037,181,116,-273,772,728,44,-750
,27,2023-10-20 13:25:02.30,-14,107,-2037,210,114,-329,547,504,43,-525
,28,2023-10-20 13:25:02.31,0,117,-2033,231,113,-399,770,728,42,-749
,29,2023-10-20 13:25:02.32,-11,113,-2055,268,108,-475,553,522,31,-537
,30,2023-10-20 13:25:02.33,6,109,-2046,299,76,-542,777,749,28,-763
,31,2023-10-20 13:25:02.34,16,81,-2018,322,65,-623,560,539,21,-549
,32,2023-10-20 13:25:02.35,29,66,-2025,338,76,-701,797,769,28,-783
,33,2023-10-20 13:25:02.36,36,46,-2025,355,88,-779,566,558,8,-562
,34,2023-10-20 13:25:02.37,34,27,-2000,389,90,-842,801,784,17,-792
,35,2023-10-20 13:25:02.38,36,-16,-2021,405,104,-908,559,553,6,-556
,36,2023-10-20 13:25:02.39,43,-18,-2037,400,126,-967,792,762,30,-777
,37,2023-10-20 13:25:02.40,43,-63,-2029,409,146,-1019,552,529,23,-540
,38,2023-10-20 13:25:02.41,48,-95,-2033,420,149,-1062,772,733,39,-752
,39,2023-10-20 13:25:02.42,71,-93,-1989,422,166,-1096,530,514,16,-522
,40,2023-10-20 13:25:02.43,91,-132,-1997,413,191,-1118,759,728,31,-743
,41,2023-10-20 13:25:02.44,108,-141,-1973,393,210,-1133,510,512,-2,-511
,42,2023-10-20 13:25:02.45,96,-128,-1971,380,221,-1152,740,717,23,-728
,43,2023-10-20 13:25:02.46,120,-121,-1990,346,248,-1173,493,489,4,-491
,44,2023-10-20 13:25:02.47,133,-141,-1990,320,254,-1187,711,691,20,-701
,45,2023-10-20 13:25:02.48,153,-135,-1993,292,238,-1180,466,483,-17,-474
,46,2023-10-20 13:25:02.49,145,-118,-2020,230,242,-1170,694,684,10,-689
,47,2023-10-20 13:25:02.50,146,-128,-2035,178,253,-1173,453,479,-26,-466
,48,2023-10-20 13:25:02.51,160,-112,-2067,130,242,-1177,703,690,13,-696
,49,2023-10-20 13:25:02.52,190,-148,-2032,68,242,-1182,469,492,-23,-480
,50,2023-10-20 13:25:02.53,192,-146,-2032,1,243,-1171,714,710,4,-712
,51,2023-10-20 13:25:02.54,198,-140,-2029,-62,238,-1153,478,510,-32,-494
,52,2023-10-20 13:25:02.55,213,-131,-2004,-109,234,-1131,720,723,-3,-721
,53,2023-10-20 13:25:02.56,215,-128,-2005,-149,243,-1123,488,529,-41,-508
,54,2023-10-20 13:25:02.57,241,-124,-2022,-167,237,-1104,737,740,-3,-738
,55,2023-10-20 13:25:02.58,245,-122,-2000,-187,239,-1082,509,552,-43,-530
,56,2023-10-20 13:25:02.59,255,-133,-2021,-206,251,-1063,764,765,-1,-764
,57,2023-10-20 13:25:02.60,243,-133,-2050,-216,248,-1037,525,570,-45,-547
,58,2023-10-20 13:25:02.61,246,-148,-2068,-203,226,-1006,1169,1236,-67,-1202
,59,2023-10-20 13:25:02.62,229,-115,-2079,-219,223,-975,2047,1996,51,-2021
,60,2023-10-20 13:25:02.63,236,-86,-2101,-258,228,-940,2047,1996,51,-2021
,61,2023-10-20 13:25:02.64,217,-54,-2136,-268,196,-911,2047,2003,44,-2025
,62,2023-10-20 13:25:02.65,214,-41,-2169,-305,146,-872,2047,2006,41,-2026
,63,2023-10-20 13:25:02.66,226,-19,-2174,-349,100,-836,2047,2012,35,-2029
,64,2023-10-20 13:25:02.67,226,13,-2165,-409,67,-806,2047,2008,39,-2027
,65,2023-10-20 13:25:02.68,197,35,-2139,-456,19,-775,2047,2006,41,-2026
,66,2023-10-20 13:25:02.69,186,26,-2204,-495,-34,-744,2047,2002,45,-2024
,67,2023-10-20 13:25:02.70,160,-5,-2243,-537,-89,-700,2047,2008,39,-2027
,68,2023-10-20 13:25:02.71,152,-13,-2232,-544,-170,-649,2047,2014,33,-2030
,69,2023-10-20 13:25:02.72,128,-1,-2228,-512,-268,-588,2047,1998,49,-2022
,70,2023-10-20 13:25:02.73,106,22,-2232,-478,-355,-544,2047,2008,39,-2027
,71,2023-10-20 13:25:02.74,84,49,-2251,-445,-429,-505,2047,2013,34,-2030
,72,2023-10-20 13:25:02.75,22,228,-2360,-426,-507,-461,2047,2016,31,-2031
,73,2023-10-20 13:25:02.76,94,-13,-1983,-381,-633,-421,2047,2005,42,-2026
,74,2023-10-20 13:25:02.77,-65,18,-2286,-276,-708,-357,2047,2008,39,-2027
,75,2023-10-20 13:25:02.78,-28,79,-2253,-192,-785,-275,2047,2010,37,-2028
,76,2023-10-20 13:25:02.79,-63,173,-2220,-155,-835,-213,2047,2012,35,-2029
,77,2023-10-20 13:25:02.80,-81,49,-2174,-114,-901,-144,2047,2010,37,-2028
,78,2023-10-20 13:25:02.81,-120,102,-2158,-106,-950,-72,2047,2014,33,-2030
,79,2023-10-20 13:25:02.82,-151,91,-2119,-125,-985,3,2047,2011,36,-2029
,80,2023-10-20 13:25:02.83,-134,70,-2038,-130,-1014,74,2047,2008,39,-2027
,81,2023-10-20 13:25:02.84,-221,110,-2032,-98,-1005,141,2047,2015,32,-2031
,82,2023-10-20 13:25:02.85,-266,85,-2022,-45,-1015,188,2047,2016,31,-2031
,83,2023-10-20 13:25:02.86,-335,83,-1982,-7,-1010,240,2047,2014,33,-2030
,84,2023-10-20 13:25:02.87,-359,47,-1960,7,-982,284,2047,2012,35,-2029
,85,2023-10-20 13:25:02.88,-418,58,-1971,41,-986,326,2047,2005,42,-2026
,86,2023-10-20 13:25:02.89,-402,81,-1950,72,-984,358,2047,2009,38,-2028
,87,2023-10-20 13:25:02.90,-458,108,-1896,45,-879,375,2047,2010,37,-2028
,88,2023-10-20 13:25:02.91,-414,111,-1865,8,-776,376,2047,2006,41,-2026
,89,2023-10-20 13:25:02.92,-478,147,-1825,-10,-663,366,2047,2008,39,-2027
,90,2023-10-20 13:25:02.93,-452,138,-1787,-18,-564,352,2047,2013,34,-2030
,91,2023-10-20 13:25:02.94,-483,137,-1761,-25,-434,327,2047,2010,37,-2028
,92,2023-10-20 13:25:02.95,-442,167,-1751,-13,-317,288,2047,2008,39,-2027
,93,2023-10-20 13:25:02.96,-477,214,-1783,-16,-175,239,2047,2012,35,-2029
,94,2023-10-20 13:25:02.97,-437,204,-1837,-32,-66,184,2047,2016,31,-2031
,95,2023-10-20 13:25:02.98,-433,197,-1876,-46,11,140,2047,2010,37,-2028
,96,2023-10-20 13:25:02.99,-414,189,-1937,-64,79,100,2047,2010,37,-2028
,97,2023-10-20 13:25:03.00,-388,185,-1963,-93,113,68,2047,2016,31,-2031
,98,2023-10-20 13:25:03.01,-336,212,-2001,-149,185,12,2047,2012,35,-2029
,99,2023-10-20 13:25:03.02,-291,194,-2033,-170,208,-9,2047,2011,36,-2029
,100,2023-10-20 13:25:03.03,-271,214,-2055,-196,217,-39,2047,2008,39,-2027
,101,2023-10-20 13:25:03.04,-213,237,-2046,-226,231,-69,2047,2006,41,-2026
,102,2023-10-20 13:25:03.05,-209,241,-2035,-245,242,-116,2047,1994,53,-2020
,103,2023-10-20 13:25:03.06,-156,226,-2037,-244,241,-147,2047,1981,66,-2014
,104,2023-10-20 13:25:03.07,-144,232,-2056,-228,227,-167,2047,1933,114,-1990
,105,2023-10-20 13:25:03.08,-129,201,-2045,-207,224,-190,2047,1757,290,-1902
,106,2023-10-20 13:25:03.09,-110,196,-2055,-175,227,-206,2047,1598,449,-1822
,107,2023-10-20 13:25:03.10,-90,192,-2054,-138,200,-218,2047,1498,549,-1772
,108,2023-10-20 13:25:03.11,-74,196,-2045,-108,199,-224,2047,1539,508,-1793
,109,2023-10-20 13:25:03.12,-57,212,-2046,-76,176,-222,2047,1672,375,-1859
,110,2023-10-20 13:25:03.13,-51,220,-2039,-56,161,-215,2047,1866,181,-1956
,111,2023-10-20 13:25:03.14,-64,226,-2052,-30,128,-205,2047,1961,86,-2004
,112,2023-10-20 13:25:03.15,-41,220,-2036,-19,118,-194,2047,1981,66,-2014
,113,2023-10-20 13:25:03.16,-56,174,-2018,6,102,-181,2047,1993,54,-2020
,114,2023-10-20 13:25:03.17,-48,124,-2013,28,90,-168,-702,2000,-2702,-649
,115,2023-10-20 13:25:03.18,-69,111,-2079,65,75,-141,-424,2005,-2429,-790
,116,2023-10-20 13:25:03.19,-81,90,-2095,117,31,-106,718,2000,-1282,-1359
,117,2023-10-20 13:25:03.20,-118,80,-2141,157,-1,-78,1297,2008,-711,-1652
,118,2023-10-20 13:25:03.21,-116,97,-2116,187,-54,-46,1130,2010,-880,-1570
,119,2023-10-20 13:25:03.22,-155,91,-2116,201,-72,-34,859,2005,-1146,-1432
,120,2023-10-20 13:25:03.23,-159,86,-2128,214,-105,-17,808,2013,-1205,-1410
,121,2023-10-20 13:25:03.24,-184,104,-2148,228,-159,-2,889,2005,-1116,-1447
,122,2023-10-20 13:25:03.25,-189,94,-2118,228,-236,19,961,2007,-1046,-1484
,123,2023-10-20 13:25:03.26,-227,53,-2097,197,-249,27,980,2013,-1033,-1496
,124,2023-10-20 13:25:03.27,-253,18,-2112,182,-266,31,969,1990,-1021,-1479
,125,2023-10-20 13:25:03.28,-264,18,-2104,183,-297,40,939,1935,-996,-1437
,126,2023-10-20 13:25:03.29,-291,3,-2079,197,-324,48,942,1622,-680,-1282
,127,2023-10-20 13:25:03.30,-303,-13,-2056,192,-353,58,944,1276,-332,-1110
,128,2023-10-20 13:25:03.31,-298,27,-2011,165,-356,70,950,1116,-166,-1033
,129,2023-10-20 13:25:03.32,-312,26,-1988,138,-353,72,954,1083,-129,-1018
,130,2023-10-20 13:25:03.33,-324,30,-1980,116,-345,76,948,1026,-78,-987
,131,2023-10-20 13:25:03.34,-349,33,-1976,101,-327,72,935,907,28,-921
,132,2023-10-20 13:25:03.35,-352,48,-1972,81,-310,75,928,771,157,-849
,133,2023-10-20 13:25:03.36,-351,52,-1983,68,-275,79,933,664,269,-798
,134,2023-10-20 13:25:03.37,-354,30,-1969,48,-245,72,985,177,808,-581
,135,2023-10-20 13:25:03.38,-386,18,-1987,44,-223,72,1150,-938,2088,-106
,136,2023-10-20 13:25:03.39,-390,27,-2008,45,-207,65,1257,-1734,2991,238
,137,2023-10-20 13:25:03.40,-398,34,-1985,47,-181,64,1249,-2048,3297,399
,138,2023-10-20 13:25:03.41,-397,33,-1993,51,-167,64,1194,-2048,3242,427
,139,2023-10-20 13:25:03.42,-406,40,-1977,33,-140,71,1147,-2048,3195,450
,140,2023-10-20 13:25:03.43,-382,43,-1943,24,-128,76,1118,-2048,3166,465
,141,2023-10-20 13:25:03.44,-357,59,-1922,11,-106,83,1075,-2040,3115,482
,142,2023-10-20 13:25:03.45,-338,70,-1925,2,-71,86,1024,-2010,3034,493
,143,2023-10-20 13:25:03.46,-336,81,-1926,-10,-29,90,974,-1955,2929,490
,144,2023-10-20 13:25:03.47,-342,55,-1937,-8,6,86,930,-1893,2823,481
,145,2023-10-20 13:25:03.48,-345,60,-1974,-6,39,84,896,-1825,2721,464
,146,2023-10-20 13:25:03.49,-344,55,-1991,8,50,85,861,-1756,2617,447
,147,2023-10-20 13:25:03.50,-345,54,-2013,16,60,90,813,-1669,2482,428
,148,2023-10-20 13:25:03.51,-320,50,-1996,16,66,99,770,-1568,2338,399
,149,2023-10-20 13:25:03.52,-303,89,-1997,11,80,109,724,-1446,2170,361
,150,2023-10-20 13:25:03.53,-299,87,-1991,7,82,120,686,-1312,1998,313
,151,2023-10-20 13:25:03.54,-285,88,-2003,-5,97,124,669,-1171,1840,251
,152,2023-10-20 13:25:03.55,-280,105,-2008,-18,106,130,657,-1061,1718,202
,153,2023-10-20 13:25:03.56,-265,126,-2018,-30,118,132,644,-982,1626,169
,154,2023-10-20 13:25:03.57,-265,125,-2017,-34,130,125,633,-948,1581,157
,155,2023-10-20 13:25:03.58,-253,128,-2029,-42,135,119,646,-918,1564,136
,156,2023-10-20 13:25:03.59,-238,135,-2035,-45,137,108,647,-901,1548,127
,157,2023-10-20 13:25:03.60,-236,143,-2044,-53,127,99,661,-860,1521,99
,158,2023-10-20 13:25:03.61,-242,137,-2054,-64,111,89,648,-819,1467,85
,159,2023-10-20 13:25:03.62,-244,145,-2054,-67,94,89,640,-761,1401,60
,160,2023-10-20 13:25:03.63,-235,151,-2034,-83,83,85,619,-717,1336,49
,161,2023-10-20 13:25:03.64,-237,142,-2032,-98,72,80,591,-660,1251,34
,162,2023-10-20 13:25:03.65,-236,139,-2029,-102,64,85,560,-622,1182,31
,163,2023-10-20 13:25:03.66,-221,143,-2031,-98,57,85,535,-594,1129,29
,164,2023-10-20 13:25:03.67,-228,153,-2031,-97,57,80,514,-592,1106,39
,165,2023-10-20 13:25:03.68,-227,161,-2026,-98,57,74,520,-582,1102,31
,166,2023-10-20 13:25:03.69,-229,165,-2020,-95,57,63,523,-584,1107,30
,167,2023-10-20 13:25:03.70,-233,173,-2030,-90,52,56,538,-555,1093,8
,168,2023-10-20 13:25:03.71,-234,191,-2037,-92,42,48,536,-518,1054,-9
,169,2023-10-20 13:25:03.72,-247,204,-2038,-101,38,42,538,-461,999,-38
,170,2023-10-20 13:25:03.73,-250,212,-2036,-104,27,35,527,-421,948,-53
,171,2023-10-20 13:25:03.74,-257,207,-2010,-105,8,33,531,-369,900,-81
,172,2023-10-20 13:25:03.75,-256,214,-2022,-104,-4,26,522,-340,862,-91
,173,2023-10-20 13:25:03.76,-258,194,-2024,-106,-2,26,510,-321,831,-94
,174,2023-10-20 13:25:03.77,-254,185,-2020,-82,-17,26,491,-337,828,-77
,175,2023-10-20 13:25:03.78,-252,172,-2006,-61,-15,33,486,-339,825,-73
,176,2023-10-20 13:25:03.79,-264,176,-2012,-45,-13,34,472,-342,814,-65
,177,2023-10-20 13:25:03.80,-259,184,-2018,-25,-5,29,476,-321,797,-77
,178,2023-10-20 13:25:03.81,-255,180,-2029,-5,-10,32,466,-314,780,-76
,179,2023-10-20 13:25:03.82,-256,188,-2041,6,-11,29,466,-279,745,-93
,180,2023-10-20 13:25:03.83,-282,184,-2054,16,-10,25,470,-273,743,-98
,181,2023-10-20 13:25:03.84,-273,180,-2054,28,-12,24,487,-277,764,-105
,182,2023-10-20 13:25:03.85,-279,189,-2034,41,-12,16,491,-298,789,-96
,183,2023-10-20 13:25:03.86,-278,173,-2036,46,-17,11,504,-289,793,-107
,184,2023-10-20 13:25:03.87,-269,149,-1994,48,-21,11,485,-295,780,-95
,185,2023-10-20 13:25:03.88,-276,130,-1995,54,-8,19,461,-282,743,-89
,186,2023-10-20 13:25:03.89,-271,119,-1983,55,3,29,421,-303,724,-59
,187,2023-10-20 13:25:03.90,-270,116,-1990,57,15,34,415,-339,754,-38
,188,2023-10-20 13:25:03.91,-273,113,-2040,60,26,42,409,-418,827,4
,189,2023-10-20 13:25:03.92,-304,149,-2043,67,20,38,444,-479,923,17
,190,2023-10-20 13:25:03.93,-318,170,-2054,54,2,31,468,-546,1014,39
,191,2023-10-20 13:25:03.94,-316,177,-2048,26,-9,8,516,-576,1092,30
,192,2023-10-20 13:25:03.95,-327,180,-2045,1,-28,-18,542,-605,1147,31
,193,2023-10-20 13:25:03.96,-330,175,-2051,-31,-42,-41,554,-596,1150,21
,194,2023-10-20 13:25:03.97,-326,192,-2030,-58,-46,-54,524,-586,1110,31
,195,2023-10-20 13:25:03.98,-303,173,-2033,-82,-55,-70,485,-551,1036,33
,196,2023-10-20 13:25:03.99,-318,177,-2021,-104,-51,-75,445,-511,956,33
,197,2023-10-20 13:25:04.00,-319,183,-1999,-112,-46,-77,441,-476,917,17
,198,2023-10-20 13:25:04.01,-314,185,-1996,-124,-32,-89,451,-496,947,22
,199,2023-10-20 13:25:04.02,-299,201,-1983,-140,-10,-118,477,-516,993,19
,200,2023-10-20 13:25:04.03,-297,176,-1976,-134,21,-150,454,-531,985,38
,201,2023-10-20 13:25:04.04,-277,191,-1969,-100,24,-158,385,-495,880,55
,202,2023-10-20 13:25:04.05,-256,184,-1968,-86,52,-158,258,-462,720,102
,203,2023-10-20 13:25:04.06,-251,184,-1980,-80,90,-151,147,-424,571,138
,204,2023-10-20 13:25:04.07,-254,181,-1980,-62,121,-148,55,-432,487,188
,205,2023-10-20 13:25:04.08,-242,187,-1994,-36,138,-138,1,-440,441,219
,206,2023-10-20 13:25:04.09,-249,166,-2013,5,142,-121,-40,-475,435,257
,207,2023-10-20 13:25:04.10,-238,149,-2021,45,142,-104,-64,-489,425,276
,208,2023-10-20 13:25:04.11,-253,124,-2041,76,147,-86,-98,-505,407,301
,209,2023-10-20 13:25:04.12,-238,130,-2044,106,136,-59,-118,-476,358,297
,210,2023-10-20 13:25:04.13,-238,124,-2041,132,129,-20,-254,-627,373,440
,211,2023-10-20 13:25:04.14,-247,110,-2041,146,116,18,-438,-872,434,655
,212,2023-10-20 13:25:04.15,-236,115,-2037,157,105,57,-636,-1180,544,908
,213,2023-10-20 13:25:04.16,-241,115,-2041,165,97,96,-721,-1387,666,1054
,214,2023-10-20 13:25:04.17,-237,131,-2037,151,94,125,-763,-1531,768,1147
,215,2023-10-20 13:25:04.18,-234,134,-2044,129,100,148,-733,-1616,883,1174
,216,2023-10-20 13:25:04.19,-252,133,-2031,112,89,171,-727,-1675,948,1201
,217,2023-10-20 13:25:04.20,-245,140,-2023,101,83,180,-676,-1725,1049,1200
,218,2023-10-20 13:25:04.21,-252,160,-2048,80,85,177,-664,-1752,1088,1208
,219,2023-10-20 13:25:04.22,-250,147,-2049,63,82,174,-629,-1777,1148,1203
,220,2023-10-20 13:25:04.23,-246,145,-2042,46,81,172,-639,-1783,1144,1211
,221,2023-10-20 13:25:04.24,-242,162,-2035,33,74,168,-612,-1798,1186,1205
,222,2023-10-20 13:25:04.25,-236,157,-2017,23,79,157,-628,-1804,1176,1216
,223,2023-10-20 13:25:04.26,-241,165,-2011,17,85,145,-605,-1820,1215,1212
,224,2023-10-20 13:25:04.27,-233,171,-2013,15,94,128,-619,-1829,1210,1224
,225,2023-10-20 13:25:04.28,-217,176,-2010,14,88,110,-603,-1845,1242,1224
,226,2023-10-20 13:25:04.29,-212,193,-1997,4,105,90,-621,-1848,1227,1234
,227,2023-10-20 13:25:04.30,-208,191,-1998,8,102,69,-608,-1860,1252,1234
,228,2023-10-20 13:25:04.31,-194,197,-1997,10,111,43,-628,-1860,1232,1244
,229,2023-10-20 13:25:04.32,-199,208,-2011,11,114,21,-611,-1862,1251,1236
,230,2023-10-20 13:25:04.33,-200,199,-2015,16,103,3,-625,-1852,1227,1238
,231,2023-10-20 13:25:04.34,-195,186,-2019,19,104,-14,-614,-1835,1221,1224
,232,2023-10-20 13:25:04.35,-201,172,-2026,23,97,-29,-632,-1815,1183,1223
,233,2023-10-20 13:25:04.36,-202,157,-2045,28,90,-34,-624,-1776,1152,1200
,234,2023-10-20 13:25:04.37,-190,136,-2050,37,76,-34,-643,-1744,1101,1193
,235,2023-10-20 13:25:04.38,-202,137,-2048,44,60,-30,-621,-1682,1061,1151
,236,2023-10-20 13:25:04.39,-184,137,-2046,48,48,-29,-630,-1647,1017,1138
,237,2023-10-20 13:25:04.40,-197,112,-2037,54,41,-27,-605,-1576,971,1090
,238,2023-10-20 13:25:04.41,-190,114,-2039,65,24,-15,-603,-1520,917,1061
,239,2023-10-20 13:25:04.42,-201,120,-2037,62,16,-6,-563,-1430,867,996
,240,2023-10-20 13:25:04.43,-198,112,-2046,60,11,0,-558,-1370,812,964
,241,2023-10-20 13:25:04.44,-203,117,-2040,61,5,5,-517,-1283,766,900
,242,2023-10-20 13:25:04.45,-201,111,-2051,61,1,13,-509,-1226,717,867
,243,2023-10-20 13:25:04.46,-203,103,-2052,54,-2,26,-469,-1140,671,804
,244,2023-10-20 13:25:04.47,-217,102,-2051,52,-17,39,-452,-1086,634,769
,245,2023-10-20 13:25:04.48,-223,100,-2056,48,-30,49,-407,-1013,606,710
,246,2023-10-20 13:25:04.49,-231,100,-2050,39,-33,58,-392,-981,589,686
,247,2023-10-20 13:25:04.50,-228,96,-2036,34,-37,64,-352,-929,577,640
,248,2023-10-20 13:25:04.51,-219,114,-2034,29,-41,70,-337,-901,564,619
,249,2023-10-20 13:25:04.52,-228,124,-2027,15,-37,72,-301,-846,545,573
,250,2023-10-20 13:25:04.53,-220,128,-2029,5,-35,70,-291,-818,527,554
,251,2023-10-20 13:25:04.54,-227,123,-2046,-12,-36,70,-252,-765,513,508
,252,2023-10-20 13:25:04.55,-233,120,-2043,-22,-38,72,-254,-743,489,498
,253,2023-10-20 13:25:04.56,-230,130,-2043,-25,-42,77,-245,-710,465,477
,254,2023-10-20 13:25:04.57,-245,121,-2039,-31,-42,82,-268,-711,443,489
,255,2023-10-20 13:25:04.58,-234,130,-2034,-35,-47,87,-259,-693,434,476
,256,2023-10-20 13:25:04.59,-238,137,-2037,-33,-47,88,-268,-695,427,481
,257,2023-10-20 13:25:04.60,-238,153,-2020,-37,-42,87,-239,-665,426,452
,258,2023-10-20 13:25:04.61,-213,148,-2031,-39,-45,86,-232,-642,410,437
,259,2023-10-20 13:25:04.62,-215,156,-2028,-42,-41,90,-192,-588,396,390
,260,2023-10-20 13:25:04.63,-228,160,-2033,-43,-45,93,-167,-566,399,366
,261,2023-10-20 13:25:04.64,-236,159,-2035,-43,-42,93,-108,-531,423,319
,262,2023-10-20 13:25:04.65,-245,176,-2044,-42,-45,87,-48,-516,468,282
,263,2023-10-20 13:25:04.66,-244,192,-2038,-37,-49,78,48,-478,526,215
,264,2023-10-20 13:25:04.67,-246,194,-2039,-34,-55,67,112,-458,570,173
,265,2023-10-20 13:25:04.68,-246,215,-2030,-33,-63,47,190,-417,607,113
,266,2023-10-20 13:25:04.69,-248,208,-2021,-35,-61,31,228,-391,619,81
,267,2023-10-20 13:25:04.70,-242,213,-2013,-34,-58,15,266,-350,616,42
,268,2023-10-20 13:25:04.71,-252,211,-2007,-30,-61,2,258,-330,588,36
,269,2023-10-20 13:25:04.72,-243,205,-2005,-24,-53,-9,276,-298,574,11
,270,2023-10-20 13:25:04.73,-249,198,-2009,-17,-48,-13,251,-303,554,26
,271,2023-10-20 13:25:04.74,-249,195,-2010,-8,-45,-20,234,-305,539,35
,272,2023-10-20 13:25:04.75,-243,174,-2009,8,-42,-19,191,-341,532,75
,273,2023-10-20 13:25:04.76,-235,163,-2008,20,-34,-11,174,-357,531,91
,274,2023-10-20 13:25:04.77,-249,169,-2016,35,-28,-6,130,-386,516,128
,275,2023-10-20 13:25:04.78,-256,165,-2025,43,-17,3,118,-390,508,136
,276,2023-10-20 13:25:04.79,-253,161,-2034,47,-10,13,96,-410,506,157
,277,2023-10-20 13:25:04.80,-260,160,-2030,56,-11,22,84,-416,500,166
,278,2023-10-20 13:25:04.81,-261,164,-2029,66,-16,31,66,-443,509,188
,279,2023-10-20 13:25:04.82,-259,168,-2032,64,-17,35,69,-461,530,196
,280,2023-10-20 13:25:04.83,-262,165,-2036,60,-16,35,57,-485,542,214
,281,2023-10-20 13:25:04.84,-267,165,-2025,58,-19,33,61,-500,561,219
,282,2023-10-20 13:25:04.85,-272,171,-2021,58,-23,34,54,-522,576,234
,283,2023-10-20 13:25:04.86,-248,160,-2033,54,-15,35,49,-535,584,243
,284,2023-10-20 13:25:04.87,-266,156,-2024,54,-10,33,40,-546,586,253
,285,2023-10-20 13:25:04.88,-264,154,-2030,56,-8,34,43,-552,595,254
,286,2023-10-20 13:25:04.89,-267,144,-2030,50,-7,35,34,-556,590,261
,287,2023-10-20 13:25:04.90,-265,132,-2020,48,0,35,27,-556,583,264
,288,2023-10-20 13:25:04.91,-268,132,-2025,53,4,41,19,-560,579,270
,289,2023-10-20 13:25:04.92,-267,127,-2016,61,4,47,16,-570,586,277
,290,2023-10-20 13:25:04.93,-252,146,-2006,66,8,51,15,-568,583,276
,291,2023-10-20 13:25:04.94,-274,149,-2004,59,15,55,27,-559,586,266
,292,2023-10-20 13:25:04.95,-251,161,-2012,49,24,49,22,-562,584,270
,293,2023-10-20 13:25:04.96,-264,158,-2015,45,27,45,10,-570,580,280
,294,2023-10-20 13:25:04.97,-262,147,-2019,45,27,42,7,-565,572,279
,295,2023-10-20 13:25:04.98,-255,142,-2028,40,23,43,17,-566,583,274
,296,2023-10-20 13:25:04.99,-259,138,-2035,41,18,42,32,-560,592,264
,297,2023-10-20 13:25:05.00,-252,129,-2038,40,12,40,38,-563,601,262
,298,2023-10-20 13:25:05.01,-256,120,-2033,43,12,39,42,-554,596,256
,299,2023-10-20 13:25:05.02,-244,134,-2027,37,9,50,35,-548,583,256
,300,2023-10-20 13:25:05.03,-246,131,-2025,28,13,48,45,-524,569,239
,301,2023-10-20 13:25:05.04,-253,140,-2036,16,16,47,52,-512,564,230
,302,2023-10-20 13:25:05.05,-243,142,-2038,11,14,47,64,-492,556,214
,303,2023-10-20 13:25:05.06,-252,146,-2035,10,10,42,67,-504,571,218
,304,2023-10-20 13:25:05.07,-245,164,-2032,10,9,33,86,-506,592,210
,305,2023-10-20 13:25:05.08,-246,154,-2016,9,10,22,95,-525,620,215
,306,2023-10-20 13:25:05.09,-241,135,-2015,12,19,15,116,-519,635,201
,307,2023-10-20 13:25:05.10,-235,130,-2014,18,27,18,113,-523,636,205
,308,2023-10-20 13:25:05.11,-225,131,-2010,23,29,22,123,-494,617,185
,309,2023-10-20 13:25:05.12,-231,115,-2011,24,35,30,109,-491,600,191
,310,2023-10-20 13:25:05.13,-204,121,-2020,30,39,41,132,-448,580,158
,311,2023-10-20 13:25:05.14,-227,107,-2021,32,49,54,121,-436,557,157
,312,2023-10-20 13:25:05.15,-213,113,-2029,35,52,62,128,-394,522,133
,313,2023-10-20 13:25:05.16,-205,126,-2040,46,50,69,112,-402,514,145
,314,2023-10-20 13:25:05.17,-202,132,-2049,51,45,60,118,-406,524,144
,315,2023-10-20 13:25:05.18,-221,131,-2058,56,45,47,92,-452,544,180
,316,2023-10-20 13:25:05.19,-220,119,-2063,54,39,41,99,-459,558,180
,317,2023-10-20 13:25:05.20,-225,126,-2056,54,21,38,80,-494,574,207
,318,2023-10-20 13:25:05.21,-215,132,-2051,52,7,28,78,-489,567,205
,319,2023-10-20 13:25:05.22,-220,125,-2047,45,-8,17,72,-502,574,215
,320,2023-10-20 13:25:05.23,-222,135,-2032,29,-19,7,87,-471,558,192
,321,2023-10-20 13:25:05.24,-208,132,-2041,11,-20,6,76,-461,537,192
,322,2023-10-20 13:25:05.25,-220,112,-2036,1,-28,11,81,-414,495,166
,323,2023-10-20 13:25:05.26,-210,110,-2025,-6,-29,16,67,-421,488,177
,324,2023-10-20 13:25:05.27,-216,110,-2005,-5,-25,22,75,-409,484,167
,325,2023-10-20 13:25:05.28,-215,104,-2011,-6,-16,33,59,-426,485,183
,326,2023-10-20 13:25:05.29,-218,118,-2009,5,-11,44,72,-408,480,168
,327,2023-10-20 13:25:05.30,-213,117,-2001,18,-9,53,56,-440,496,192
,328,2023-10-20 13:25:05.31,-209,122,-2009,24,8,54,67,-429,496,181
,329,2023-10-20 13:25:05.32,-193,110,-2008,39,14,60,58,-448,506,195
,330,2023-10-20 13:25:05.33,-213,90,-2006,56,11,71,78,-433,511,177
,331,2023-10-20 13:25:05.34,-209,88,-2016,77,15,77,70,-461,531,195
,332,2023-10-20 13:25:05.35,-202,89,-2034,87,22,76,86,-447,533,180
,333,2023-10-20 13:25:05.36,-212,103,-2054,92,21,79,68,-474,542,203
,334,2023-10-20 13:25:05.37,-219,109,-2056,95,18,75,90,-456,546,183
,335,2023-10-20 13:25:05.38,-245,88,-2050,93,5,68,88,-468,556,190
,336,2023-10-20 13:25:05.39,-242,103,-2042,88,-10,60,119,-433,552,157
,337,2023-10-20 13:25:05.40,-245,98,-2045,81,-16,52,106,-448,554,171
,338,2023-10-20 13:25:05.41,-239,92,-2015,66,-24,37,126,-401,527,137
,339,2023-10-20 13:25:05.42,-233,99,-2002,45,-23,28,115,-385,500,135
,340,2023-10-20 13:25:05.43,-225,99,-2005,31,-23,21,153,-310,463,78
,341,2023-10-20 13:25:05.44,-233,73,-2007,29,-32,19,151,-279,430,64
,342,2023-10-20 13:25:05.45,-229,83,-2010,16,-31,22,188,-211,399,11
,343,2023-10-20 13:25:05.46,-235,70,-2012,7,-22,26,188,-207,395,9
,344,2023-10-20 13:25:05.47,-242,86,-2039,-4,-11,21,227,-161,388,-33
,345,2023-10-20 13:25:05.48,-254,105,-2052,-18,-14,18,229,-169,398,-30
,346,2023-10-20 13:25:05.49,-266,122,-2075,-42,-15,18,275,-114,389,-80
,347,2023-10-20 13:25:05.50,-269,135,-2079,-67,-21,17,263,-124,387,-69
,348,2023-10-20 13:25:05.51,-276,157,-2057,-95,-23,17,269,-84,353,-92
,349,2023-10-20 13:25:05.52,-258,173,-2053,-131,-31,15,225,-105,330,-60
,350,2023-10-20 13:25:05.53,-243,192,-2036,-165,-25,18,209,-60,269,-74
,351,2023-10-20 13:25:05.54,-219,184,-2025,-181,-16,35,165,-57,222,-54
,352,2023-10-20 13:25:05.55,-199,196,-2008,-185,-1,52,164,-4,168,-80
,353,2023-10-20 13:25:05.56,-186,192,-1983,-176,18,61,142,-31,173,-55
,354,2023-10-20 13:25:05.57,-178,181,-1978,-152,46,62,160,-34,194,-63
,355,2023-10-20 13:25:05.58,-195,185,-1970,-118,65,64,135,-110,245,-12
,356,2023-10-20 13:25:05.59,-180,203,-1981,-73,90,68,143,-137,280,-3
,357,2023-10-20 13:25:05.60,-159,118,-1971,-8,92,70,111,-230,341,59
,358,2023-10-20 13:25:05.61,-160,76,-1956,82,98,79,118,-295,413,88
,359,2023-10-20 13:25:05.62,-170,73,-1996,164,97,91,84,-408,492,162
,360,2023-10-20 13:25:05.63,-152,65,-2030,217,76,110,110,-405,515,147
,361,2023-10-20 13:25:05.64,-196,87,-2063,233,66,138,105,-400,505,147
,362,2023-10-20 13:25:05.65,-180,86,-2075,219,61,155,147,-326,473,89
,363,2023-10-20 13:25:05.66,-190,57,-2069,204,59,169,140,-346,486,103
,364,2023-10-20 13:25:05.67,-211,42,-2054,212,51,181,159,-357,516,99
,365,2023-10-20 13:25:05.68,-205,58,-2045,243,36,187,138,-454,592,158
,366,2023-10-20 13:25:05.69,-221,60,-2033,270,34,184,168,-522,690,177
,367,2023-10-20 13:25:05.70,-222,78,-2043,263,24,175,161,-625,786,232
,368,2023-10-20 13:25:05.71,-237,99,-2053,241,24,174,193,-646,839,226
,369,2023-10-20 13:25:05.72,-227,86,-2047,210,13,175,187,-673,860,243
,370,2023-10-20 13:25:05.73,-272,96,-2057,182,-3,175,218,-649,867,215
,371,2023-10-20 13:25:05.74,-262,89,-2057,148,-19,174,200,-667,867,233
,372,2023-10-20 13:25:05.75,-265,105,-2059,110,-36,178,218,-638,856,210
,373,2023-10-20 13:25:05.76,-272,79,-2049,69,-45,186,194,-665,859,235
,374,2023-10-20 13:25:05.77,-265,92,-2029,37,-49,189,215,-859,1074,322
,375,2023-10-20 13:25:05.78,-269,90,-2029,7,-47,189,207,-1178,1385,485
,376,2023-10-20 13:25:05.79,-278,107,-2029,-21,-42,179,237,-1338,1575,550
,377,2023-10-20 13:25:05.80,-263,127,-2044,-43,-37,163,212,-1384,1596,586
,378,2023-10-20 13:25:05.81,-255,134,-2032,-62,-36,138,225,-1337,1562,556
,379,2023-10-20 13:25:05.82,-246,133,-2006,-76,-27,109,195,-1324,1519,564
,380,2023-10-20 13:25:05.83,-231,133,-1992,-88,-13,87,207,-1293,1500,543
,381,2023-10-20 13:25:05.84,-226,122,-1985,-106,13,76,176,-1282,1458,553
,382,2023-10-20 13:25:05.85,-225,106,-1995,-118,26,81,176,-1210,1386,517
,383,2023-10-20 13:25:05.86,-239,103,-2015,-132,25,92,141,-1149,1290,504
,384,2023-10-20 13:25:05.87,-224,120,-2035,-138,35,113,143,-1073,1216,465
,385,2023-10-20 13:25:05.88,-215,138,-2042,-125,36,128,108,-1052,1160,472
,386,2023-10-20 13:25:05.89,-215,148,-2038,-109,37,130,119,-1028,1147,454
,387,2023-10-20 13:25:05.90,-218,170,-2021,-97,35,121,100,-1045,1145,472
,388,2023-10-20 13:25:05.91,-211,189,-2012,-94,40,109,117,-1030,1147,456
,389,2023-10-20 13:25:05.92,-194,196,-2024,-82,37,98,96,-1041,1137,472
,390,2023-10-20 13:25:05.93,-211,189,-2015,-66,39,81,109,-1022,1131,456
,391,2023-10-20 13:25:05.94,-196,177,-2017,-49,44,69,74,-1030,1104,478
,392,2023-10-20 13:25:05.95,-210,154,-2037,-37,50,71,87,-992,1079,452
,393,2023-10-20 13:25:05.96,-210,139,-2057,-17,41,80,62,-974,1036,456
,394,2023-10-20 13:25:05.97,-199,137,-2051,7,37,87,80,-932,1012,426
,395,2023-10-20 13:25:05.98,-210,128,-2050,18,28,90,44,-940,984,448
,396,2023-10-20 13:25:05.99,-210,145,-2041,15,27,91,34,-932,966,449
,397,2023-10-20 13:25:06.00,-212,160,-2030,13,30,87,-8,-952,944,480
,398,2023-10-20 13:25:06.01,-209,149,-2029,19,30,86,-18,-941,923,479
,399,2023-10-20 13:25:06.02,-209,135,-2032,21,27,89,-48,-949,901,498
,400,2023-10-20 13:25:06.03,-230,130,-2038,30,25,90,-39,-927,888,483
,401,2023-10-20 13:25:06.04,-238,144,-2032,35,21,92,-50,-929,879,489
,402,2023-10-20 13:25:06.05,-239,140,-2049,38,14,83,-25,-906,881,465
,403,2023-10-20 13:25:06.06,-243,146,-2061,34,4,82,-26,-905,879,465
,404,2023-10-20 13:25:06.07,-264,171,-2057,23,2,72,-1,-885,884,443
,405,2023-10-20 13:25:06.08,-247,191,-2062,16,-1,62,7,-881,888,437
,406,2023-10-20 13:25:06.09,-274,196,-2067,-3,-10,45,42,-854,896,406
,407,2023-10-20 13:25:06.10,-264,218,-2080,-16,-21,31,47,-850,897,401
,408,2023-10-20 13:25:06.11,-271,235,-2066,-33,-23,13,67,-823,890,378
,409,2023-10-20 13:25:06.12,-258,245,-2069,-59,-27,-14,67,-808,875,370
,410,2023-10-20 13:25:06.13,-276,263,-2066,-79,-30,-33,93,-767,860,337
,411,2023-10-20 13:25:06.14,-243,275,-2037,-91,-45,-49,94,-726,820,316
,412,2023-10-20 13:25:06.15,-247,295,-2011,-110,-54,-72,115,-662,777,273
,413,2023-10-20 13:25:06.16,-243,287,-2004,-138,-45,-94,108,-618,726,255
,414,2023-10-20 13:25:06.17,-225,251,-1997,-129,-35,-109,109,-575,684,233
,415,2023-10-20 13:25:06.18,-231,236,-1997,-103,-30,-108,89,-558,647,234
,416,2023-10-20 13:25:06.19,-245,224,-1997,-74,-20,-101,92,-538,630,223
,417,2023-10-20 13:25:06.20,-235,215,-1998,-53,-10,-104,79,-536,615,228
,418,2023-10-20 13:25:06.21,-236,204,-1990,-28,-2,-103,83,-516,599,216
,419,2023-10-20 13:25:06.22,-223,197,-2015,-4,7,-97,70,-499,569,214
,420,2023-10-20 13:25:06.23,-222,185,-2005,32,9,-83,72,-473,545,200
,421,2023-10-20 13:25:06.24,-220,178,-1989,65,13,-67,69,-452,521,191
,422,2023-10-20 13:25:06.25,-225,175,-1980,91,24,-57,96,-405,501,154
,423,2023-10-20 13:25:06.26,-217,153,-1987,105,38,-44,120,-357,477,118
,424,2023-10-20 13:25:06.27,-208,113,-1990,133,42,-24,134,-319,453,92
,425,2023-10-20 13:25:06.28,-212,93,-1995,157,47,2,122,-297,419,87
,426,2023-10-20 13:25:06.29,-199,100,-2024,165,59,22,131,-286,417,77
,427,2023-10-20 13:25:06.30,-182,118,-2038,174,75,34,132,-299,431,83
,428,2023-10-20 13:25:06.31,-185,105,-2034,184,81,38,151,-302,453,75
,429,2023-10-20 13:25:06.32,-186,95,-2048,196,84,40,137,-318,455,90
,430,2023-10-20 13:25:06.33,-191,98,-2062,184,87,44,132,-318,450,93
,431,2023-10-20 13:25:06.34,-191,80,-2058,174,91,43,143,-295,438,76
,432,2023-10-20 13:25:06.35,-193,70,-2076,162,86,43,147,-270,417,61
,433,2023-10-20 13:25:06.36,-201,66,-2068,145,71,52,168,-235,403,33
,434,2023-10-20 13:25:06.37,-195,68,-2045,133,64,58,166,-224,390,29
,435,2023-10-20 13:25:06.38,-202,62,-2053,117,52,55,172,-217,389,22
,436,2023-10-20 13:25:06.39,-202,64,-2049,103,49,51,171,-231,402,30
,437,2023-10-20 13:25:06.40,-202,84,-2040,85,46,46,178,-236,414,29
,438,2023-10-20 13:25:06.41,-186,104,-2022,61,48,35,182,-246,428,32
,439,2023-10-20 13:25:06.42,-193,105,-2023,39,48,17,192,-239,431,23
,440,2023-10-20 13:25:06.43,-195,100,-2046,24,48,7,185,-246,431,30
,441,2023-10-20 13:25:06.44,-188,90,-2037,9,43,-1,180,-248,428,34
,442,2023-10-20 13:25:06.45,-187,86,-2031,-5,39,-8,167,-265,432,49
,443,2023-10-20 13:25:06.46,-189,95,-2023,-9,39,-20,162,-268,430,53
,444,2023-10-20 13:25:06.47,-181,96,-2026,-11,39,-28,148,-275,423,63
,445,2023-10-20 13:25:06.48,-180,96,-2025,-20,41,-33,145,-265,410,60
,446,2023-10-20 13:25:06.49,-188,107,-2023,-28,40,-30,133,-263,396,65
,447,2023-10-20 13:25:06.50,-169,89,-2023,-36,39,-25,131,-245,376,57
,448,2023-10-20 13:25:06.51,-179,81,-2025,-34,42,-18,118,-247,365,64
,449,2023-10-20 13:25:06.52,-151,86,-2031,-30,46,-3,114,-233,347,59
,450,2023-10-20 13:25:06.53,-169,72,-2031,-30,47,11,100,-238,338,69
,451,2023-10-20 13:25:06.54,-163,85,-2041,-22,47,27,101,-225,326,62
,452,2023-10-20 13:25:06.55,-176,85,-2042,-20,45,45,92,-243,335,75
,453,2023-10-20 13:25:06.56,-186,89,-2035,-13,45,60,101,-246,347,72
,454,2023-10-20 13:25:06.57,-173,91,-2046,-6,46,69,92,-276,368,92
,455,2023-10-20 13:25:06.58,-168,88,-2044,11,46,79,99,-284,383,92
,456,2023-10-20 13:25:06.59,-182,100,-2044,21,42,86,92,-312,404,110
,457,2023-10-20 13:25:06.60,-159,108,-2047,17,47,86,109,-316,425,103
,458,2023-10-20 13:25:06.61,-170,107,-2049,19,51,80,101,-337,438,118
,459,2023-10-20 13:25:06.62,-167,112,-2051,20,46,80,114,-334,448,110
,460,2023-10-20 13:25:06.63,-159,105,-2051,21,36,75,110,-352,462,121
,461,2023-10-20 13:25:06.64,-159,87,-2044,19,29,65,124,-344,468,110
,462,2023-10-20 13:25:06.65,-188,87,-2051,19,27,66,109,-363,472,127
,463,2023-10-20 13:25:06.66,-178,102,-2063,18,27,73,119,-344,463,112
,464,2023-10-20 13:25:06.67,-183,121,-2051,7,13,66,118,-347,465,114
,465,2023-10-20 13:25:06.68,-182,130,-2055,-11,0,58,139,-325,464,93
,466,2023-10-20 13:25:06.69,-176,134,-2047,-35,-3,56,127,-348,475,110
,467,2023-10-20 13:25:06.70,-173,130,-2029,-43,-1,46,143,-342,485,99
,468,2023-10-20 13:25:06.71,-179,126,-2025,-41,-4,34,133,-365,498,116
,469,2023-10-20 13:25:06.72,-172,122,-2028,-35,-3,25,144,-351,495,103
,470,2023-10-20 13:25:06.73,-182,121,-2034,-37,1,20,132,-358,490,113
,471,2023-10-20 13:25:06.74,-177,132,-2031,-35,2,19,137,-335,472,99
,472,2023-10-20 13:25:06.75,-173,132,-2034,-38,3,16,120,-349,469,114
,473,2023-10-20 13:25:06.76,-155,133,-2035,-40,2,15,121,-338,459,108
,474,2023-10-20 13:25:06.77,-160,131,-2046,-34,-2,13,119,-347,466,114
,475,2023-10-20 13:25:06.78,-163,137,-2044,-38,-2,12,132,-329,461,98
,476,2023-10-20 13:25:06.79,-169,138,-2048,-42,0,11,112,-342,454,115
,477,2023-10-20 13:25:06.80,-163,138,-2050,-38,-2,8,126,-331,457,102
,478,2023-10-20 13:25:06.81,-152,137,-2045,-36,-4,5,109,-352,461,121
,479,2023-10-20 13:25:06.82,-149,135,-2044,-31,-4,-2,119,-347,466,114
,480,2023-10-20 13:25:06.83,-157,137,-2043,-27,-4,-2,103,-367,470,132
,481,2023-10-20 13:25:06.84,-144,147,-2040,-26,3,-10,121,-347,468,113
,482,2023-10-20 13:25:06.85,-142,156,-2038,-25,9,-18,110,-355,465,122
,483,2023-10-20 13:25:06.86,-136,151,-2038,-18,9,-22,129,-326,455,98
,484,2023-10-20 13:25:06.87,-137,150,-2044,-16,10,-28,114,-326,440,106
,485,2023-10-20 13:25:06.88,-131,158,-2042,-17,4,-31,137,-280,417,71
,486,2023-10-20 13:25:06.89,-146,141,-2035,-20,7,-32,119,-278,397,79
,487,2023-10-20 13:25:06.90,-139,143,-2021,-18,-1,-26,135,-240,375,52
,488,2023-10-20 13:25:06.91,-146,138,-2028,-18,-9,-21,116,-253,369,68
,489,2023-10-20 13:25:06.92,-141,125,-2030,-15,-10,-16,144,-224,368,40
,490,2023-10-20 13:25:06.93,-153,115,-2025,-9,-19,-10,141,-238,379,48
,491,2023-10-20 13:25:06.94,-158,107,-2021,4,-27,4,182,-206,388,12
,492,2023-10-20 13:25:06.95,-161,112,-2037,7,-34,14,185,-213,398,14
,493,2023-10-20 13:25:06.96,-184,133,-2044,4,-44,23,231,-180,411,-25
,494,2023-10-20 13:25:06.97,-189,136,-2051,-1,-54,23,232,-206,438,-13
,495,2023-10-20 13:25:06.98,-186,169,-2058,-5,-74,11,271,-185,456,-43
,496,2023-10-20 13:25:06.99,-195,163,-2041,-14,-88,2,258,-216,474,-21
,497,2023-10-20 13:25:07.00,-218,161,-2062,-28,-97,-10,278,-196,474,-41
,498,2023-10-20 13:25:07.01,-216,156,-2073,-39,-109,-19,255,-230,485,-12
,499,2023-10-20 13:25:07.02,-228,129,-2051,-44,-114,-19,268,-225,493,-21
,500,2023-10-20 13:25:07.03,-238,110,-2051,-32,-111,-18,227,-290,517,31
,501,2023-10-20 13:25:07.04,-260,103,-2058,-18,-108,-15,225,-303,528,39
,502,2023-10-20 13:25:07.05,-264,124,-2039,-21,-104,-7,190,-357,547,83
,503,2023-10-20 13:25:07.06,-256,146,-2023,-31,-101,-3,208,-352,560,72
,504,2023-10-20 13:25:07.07,-271,177,-2008,-36,-103,-12,183,-396,579,106
,505,2023-10-20 13:25:07.08,-269,205,-2009,-56,-96,-23,212,-382,594,85
,506,2023-10-20 13:25:07.09,-261,197,-2017,-75,-92,-35,202,-412,614,105
,507,2023-10-20 13:25:07.10,-268,214,-2014,-94,-81,-56,239,-400,639,80
,508,2023-10-20 13:25:07.11,-270,228,-2020,-109,-70,-76,227,-433,660,103
,509,2023-10-20 13:25:07.12,-269,199,-2023,-111,-70,-90,256,-420,676,82
,510,2023-10-20 13:25:07.13,-266,194,-2024,-112,-65,-102,236,-458,694,111
,511,2023-10-20 13:25:07.14,-281,192,-2031,-111,-63,-107,266,-445,711,89
,512,2023-10-20 13:25:07.15,-284,179,-2028,-106,-66,-103,232,-478,710,123
,513,2023-10-20 13:25:07.16,-287,170,-2033,-100,-70,-93,245,-450,695,102
,514,2023-10-20 13:25:07.17,-266,192,-2026,-100,-89,-76,199,-473,672,137
,515,2023-10-20 13:25:07.18,-279,193,-2046,-107,-90,-55,226,-422,648,98
,516,2023-10-20 13:25:07.19,-282,205,-2033,-115,-111,-47,200,-429,629,114
,517,2023-10-20 13:25:07.20,-261,249,-2022,-131,-111,-50,233,-388,621,77
,518,2023-10-20 13:25:07.21,-274,264,-2003,-152,-100,-50,216,-405,621,94
,519,2023-10-20 13:25:07.22,-283,238,-2025,-159,-91,-60,247,-367,614,60
,520,2023-10-20 13:25:07.23,-257,210,-1998,-149,-88,-59,219,-386,605,83
,521,2023-10-20 13:25:07.24,-262,199,-1993,-122,-86,-52,231,-340,571,54
,522,2023-10-20 13:25:07.25,-249,200,-2010,-102,-77,-39,192,-330,522,69
,523,2023-10-20 13:25:07.26,-255,203,-2012,-88,-66,-20,201,-274,475,36
,524,2023-10-20 13:25:07.27,-245,194,-2022,-65,-56,-13,182,-273,455,45
,525,2023-10-20 13:25:07.28,-244,226,-2006,-41,-46,-13,205,-246,451,20
,526,2023-10-20 13:25:07.29,-230,215,-2026,-24,-25,-14,181,-266,447,42
,527,2023-10-20 13:25:07.30,-251,223,-2029,-13,-8,-10,203,-229,432,13
,528,2023-10-20 13:25:07.31,-249,240,-2043,-4,3,-5,190,-223,413,16
,529,2023-10-20 13:25:07.32,-258,252,-2026,-10,7,0,210,-160,370,-25
,530,2023-10-20 13:25:07.33,-244,224,-2008,-15,21,14,189,-133,322,-28
,531,2023-10-20 13:25:07.34,-229,216,-2005,-6,34,31,202,-68,270,-67
,532,2023-10-20 13:25:07.35,-222,240,-2009,1,36,53,185,-44,229,-70
,533,2023-10-20 13:25:07.36,-217,254,-2001,-4,43,69,219,13,206,-116
,534,2023-10-20 13:25:07.37,-210,209,-1978,2,64,71,229,16,213,-122
,535,2023-10-20 13:25:07.38,-194,275,-2006,2,73,74,271,51,220,-161
,536,2023-10-20 13:25:07.39,-183,243,-2005,7,73,70,277,48,229,-162
,537,2023-10-20 13:25:07.40,-185,209,-1965,16,82,65,307,88,219,-197
,538,2023-10-20 13:25:07.41,-189,187,-2011,53,83,67,288,74,214,-181
,539,2023-10-20 13:25:07.42,-179,192,-2023,95,88,75,299,99,200,-199
,540,2023-10-20 13:25:07.43,-186,197,-2036,129,84,74,286,89,197,-187
,541,2023-10-20 13:25:07.44,-187,181,-2028,131,90,69,314,114,200,-214
,542,2023-10-20 13:25:07.45,-173,192,-2032,136,101,63,292,81,211,-186
,543,2023-10-20 13:25:07.46,-195,194,-2055,151,81,57,296,77,219,-186
,544,2023-10-20 13:25:07.47,-201,190,-2052,149,70,48,264,28,236,-146
,545,2023-10-20 13:25:07.48,-190,216,-2056,143,60,35,259,15,244,-137
,546,2023-10-20 13:25:07.49,-209,239,-2056,142,37,20,232,-35,267,-98
,547,2023-10-20 13:25:07.50,-202,226,-2041,131,23,1,224,-64,288,-80
,548,2023-10-20 13:25:07.51,-198,221,-2034,122,21,-18,161,-152,313,-4
,549,2023-10-20 13:25:07.52,-201,202,-2032,130,17,-37,124,-215,339,45
,550,2023-10-20 13:25:07.53,-198,194,-2032,138,9,-58,75,-293,368,109
,551,2023-10-20 13:25:07.54,-207,196,-2031,137,15,-75,67,-328,395,130
,552,2023-10-20 13:25:07.55,-209,177,-2015,141,18,-89,52,-372,424,160
,553,2023-10-20 13:25:07.56,-204,144,-2001,142,18,-101,52,-385,437,166
,554,2023-10-20 13:25:07.57,-212,119,-1993,155,13,-108,33,-407,440,187
,555,2023-10-20 13:25:07.58,-214,108,-1986,164,23,-110,33,-406,439,186
,556,2023-10-20 13:25:07.59,-216,101,-2004,164,38,-109,34,-402,436,184
,557,2023-10-20 13:25:07.60,-219,64,-2001,172,44,-99,47,-378,425,165
,558,2023-10-20 13:25:07.61,-228,68,-2007,179,45,-87,45,-377,422,166
,559,2023-10-20 13:25:07.62,-226,53,-2012,177,51,-69,58,-369,427,155
,560,2023-10-20 13:25:07.63,-235,53,-2005,171,62,-56,56,-379,435,161
,561,2023-10-20 13:25:07.64,-246,55,-2018,166,58,-35,71,-377,448,153
,562,2023-10-20 13:25:07.65,-233,54,-1997,152,63,-24,66,-398,464,166
,563,2023-10-20 13:25:07.66,-230,81,-2020,138,73,-24,77,-409,486,166
,564,2023-10-20 13:25:07.67,-226,84,-2052,124,75,-23,67,-444,511,188
,565,2023-10-20 13:25:07.68,-235,86,-2060,107,73,-27,72,-460,532,194
,566,2023-10-20 13:25:07.69,-226,70,-2059,92,70,-29,50,-499,549,224
,567,2023-10-20 13:25:07.70,-225,97,-2065,77,63,-31,56,-517,573,230
,568,2023-10-20 13:25:07.71,-227,78,-2051,58,63,-38,49,-547,596,249
,569,2023-10-20 13:25:07.72,-227,86,-2052,45,55,-45,57,-563,620,253
,570,2023-10-20 13:25:07.73,-219,80,-2050,38,51,-50,37,-596,633,279
,571,2023-10-20 13:25:07.74,-214,80,-2038,37,43,-54,34,-607,641,286
,572,2023-10-20 13:25:07.75,-209,88,-2031,34,46,-56,24,-614,638,295
,573,2023-10-20 13:25:07.76,-206,95,-2023,34,45,-55,35,-601,636,283
,574,2023-10-20 13:25:07.77,-211,88,-2019,30,46,-59,41,-591,632,275
,575,2023-10-20 13:25:07.78,-214,82,-2019,25,40,-59,52,-577,629,262
,576,2023-10-20 13:25:07.79,-216,77,-2035,26,43,-56,43,-575,618,266
,577,2023-10-20 13:25:07.80,-210,68,-2029,22,38,-51,43,-575,618,266
,578,2023-10-20 13:25:07.81,-215,62,-2026,24,31,-44,36,-579,615,271
,579,2023-10-20 13:25:07.82,-222,81,-2044,22,21,-42,37,-583,620,273
,580,2023-10-20 13:25:07.83,-209,91,-2045,23,22,-38,24,-596,620,286
,581,2023-10-20 13:25:07.84,-214,101,-2045,18,21,-39,17,-607,624,295
,582,2023-10-20 13:25:07.85,-215,115,-2034,5,24,-41,16,-609,625,296
,583,2023-10-20 13:25:07.86,-209,124,-2046,-2,26,-42,20,-604,624,292
,584,2023-10-20 13:25:07.87,-236,120,-2035,-16,17,-37,20,-596,616,288
,585,2023-10-20 13:25:07.88,-225,110,-2031,-27,21,-30,20,-589,609,284
,586,2023-10-20 13:25:07.89,-226,124,-2030,-22,18,-19,22,-587,609,282
,587,2023-10-20 13:25:07.90,-215,101,-2015,-14,15,-11,24,-594,618,285
,588,2023-10-20 13:25:07.91,-223,108,-2003,-11,14,-7,32,-589,621,278
,589,2023-10-20 13:25:07.92,-209,123,-2012,-6,21,3,37,-588,625,275
,590,2023-10-20 13:25:07.93,-205,120,-2008,-7,27,8,39,-577,616,269
,591,2023-10-20 13:25:07.94,-216,122,-2025,-5,29,9,40,-576,616,268
,592,2023-10-20 13:25:07.95,-200,136,-2038,7,35,8,49,-566,615,258
,593,2023-10-20 13:25:07.96,-213,131,-2035,5,47,5,59,-561,620,251
,594,2023-10-20 13:25:07.97,-212,121,-2040,5,54,3,59,-550,609,245
,595,2023-10-20 13:25:07.98,-201,117,-2045,12,55,3,58,-532,590,237
,596,2023-10-20 13:25:07.99,-182,125,-2049,8,59,6,62,-498,560,218
,597,2023-10-20 13:25:08.00,-146,133,-2019,-8,80,6,75,-458,533,191
,598,2023-10-20 13:25:08.01,-155,133,-2030,-9,105,4,81,-417,498,168
,599,2023-10-20 13:25:08.02,-131,132,-2018,-11,125,8,79,-390,469,155
,600,2023-10-20 13:25:08.03,-129,127,-2005,-2,140,13,98,-344,442,123
,601,2023-10-20 13:25:08.04,-128,117,-2004,6,158,16,98,-319,417,110
,602,2023-10-20 13:25:08.05,-127,87,-2014,16,165,30,108,-278,386,85
,603,2023-10-20 13:25:08.06,-129,89,-2028,33,166,45,100,-260,360,80
,604,2023-10-20 13:25:08.07,-120,76,-2011,48,161,63,118,-229,347,55
,605,2023-10-20 13:25:08.08,-136,66,-2047,70,143,72,116,-230,346,57
,606,2023-10-20 13:25:08.09,-151,92,-2083,77,130,91,134,-214,348,40
,607,2023-10-20 13:25:08.10,-169,109,-2085,85,110,93,129,-236,365,53
,608,2023-10-20 13:25:08.11,-165,113,-2095,77,91,85,138,-250,388,56
,609,2023-10-20 13:25:08.12,-159,129,-2080,64,66,79,125,-298,423,86
,610,2023-10-20 13:25:08.13,-160,159,-2065,50,44,59,130,-324,454,97
,611,2023-10-20 13:25:08.14,-170,150,-2054,53,11,37,118,-369,487,125
,612,2023-10-20 13:25:08.15,-183,145,-2056,53,-24,14,128,-377,505,124
,613,2023-10-20 13:25:08.16,-168,137,-2046,48,-42,0,118,-405,523,143
,614,2023-10-20 13:25:08.17,-177,110,-2048,42,-51,-16,129,-399,528,135
,615,2023-10-20 13:25:08.18,-168,92,-2042,39,-55,-26,115,-413,528,149
,616,2023-10-20 13:25:08.19,-182,100,-2042,32,-53,-35,136,-381,517,122
,617,2023-10-20 13:25:08.20,-179,85,-2048,32,-45,-34,126,-374,500,124
,618,2023-10-20 13:25:08.21,-175,78,-2027,34,-35,-33,142,-336,478,97
,619,2023-10-20 13:25:08.22,-165,59,-2032,25,-12,-36,124,-327,451,101
,620,2023-10-20 13:25:08.23,-156,62,-2027,22,7,-17,133,-280,413,73
,621,2023-10-20 13:25:08.24,-150,62,-2015,34,20,0,114,-284,398,85
,622,2023-10-20 13:25:08.25,-154,59,-2009,47,39,14,127,-261,388,67
,623,2023-10-20 13:25:08.26,-150,64,-2015,65,51,28,117,-273,390,78
,624,2023-10-20 13:25:08.27,-153,75,-2042,56,60,42,147,-227,374,40
,625,2023-10-20 13:25:08.28,-148,64,-2026,48,61,59,147,-216,363,34
,626,2023-10-20 13:25:08.29,-146,78,-2025,47,69,76,171,-174,345,1
,627,2023-10-20 13:25:08.30,-140,62,-2044,49,69,87,159,-194,353,17
,628,2023-10-20 13:25:08.31,-156,71,-2050,50,62,100,176,-179,355,1
,629,2023-10-20 13:25:08.32,-151,81,-2052,44,57,103,158,-208,366,25
,630,2023-10-20 13:25:08.33,-144,84,-2041,33,54,106,180,-184,364,2
,631,2023-10-20 13:25:08.34,-160,100,-2057,26,43,103,170,-204,374,17
,632,2023-10-20 13:25:08.35,-146,85,-2056,17,45,98,193,-186,379,-3
,633,2023-10-20 13:25:08.36,-158,95,-2046,22,24,92,176,-213,389,18
,634,2023-10-20 13:25:08.37,-133,102,-2044,13,17,87,201,-195,396,-3
,635,2023-10-20 13:25:08.38,-145,97,-2049,-3,22,75,163,-245,408,41
,636,2023-10-20 13:25:08.39,-153,102,-2049,-8,19,66,170,-245,415,37
,637,2023-10-20 13:25:08.40,-148,94,-2057,-8,15,61,132,-303,435,85
,638,2023-10-20 13:25:08.41,-147,92,-2059,-12,15,52,153,-291,444,69
,639,2023-10-20 13:25:08.42,-153,97,-2051,-17,16,41,123,-342,465,109
,640,2023-10-20 13:25:08.43,-164,97,-2054,-13,14,33,128,-348,476,110
,641,2023-10-20 13:25:08.44,-154,107,-2039,-10,10,27,104,-392,496,144
,642,2023-10-20 13:25:08.45,-142,102,-2042,-10,6,15,112,-388,500,138
,643,2023-10-20 13:25:08.46,-159,102,-2042,-13,9,14,75,-430,505,177
,644,2023-10-20 13:25:08.47,-155,90,-2047,-11,6,13,85,-413,498,164
,645,2023-10-20 13:25:08.48,-148,87,-2040,-9,3,17,60,-440,500,190
,646,2023-10-20 13:25:08.49,-147,82,-2035,-16,7,20,81,-415,496,167
,647,2023-10-20 13:25:08.50,-143,78,-2002,-17,9,32,57,-441,498,192
,648,2023-10-20 13:25:08.51,-143,73,-2016,-12,21,42,76,-415,491,169
,649,2023-10-20 13:25:08.52,-131,86,-2033,-4,29,55,54,-445,499,195
,650,2023-10-20 13:25:08.53,-146,79,-2052,8,35,65,76,-430,506,177
,651,2023-10-20 13:25:08.54,-136,98,-2038,17,36,73,56,-463,519,203
,652,2023-10-20 13:25:08.55,-136,96,-2040,16,43,76,77,-442,519,182
,653,2023-10-20 13:25:08.56,-135,100,-2053,13,45,81,51,-469,520,209
,654,2023-10-20 13:25:08.57,-146,102,-2056,23,41,93,75,-449,524,187
,655,2023-10-20 13:25:08.58,-136,83,-2051,26,46,97,56,-481,537,212
,656,2023-10-20 13:25:08.59,-148,88,-2048,26,40,102,80,-456,536,188
,657,2023-10-20 13:25:08.60,-139,92,-2035,30,35,113,54,-482,536,214
,658,2023-10-20 13:25:08.61,-144,88,-2019,26,42,116,74,-449,523,187
,659,2023-10-20 13:25:08.62,-127,80,-2024,25,46,125,51,-465,516,207
,660,2023-10-20 13:25:08.63,-139,89,-2036,24,54,132,78,-430,508,176
,661,2023-10-20 13:25:08.64,-133,94,-2033,20,57,140,62,-447,509,192
,662,2023-10-20 13:25:08.65,-133,79,-2040,20,57,147,89,-411,500,161
,663,2023-10-20 13:25:08.66,-143,86,-2039,19,50,151,71,-433,504,181
,664,2023-10-20 13:25:08.67,-122,93,-2029,8,53,158,95,-410,505,157
,665,2023-10-20 13:25:08.68,-140,98,-2029,6,59,155,76,-441,517,182
,666,2023-10-20 13:25:08.69,-124,96,-2040,8,57,156,100,-422,522,161
,667,2023-10-20 13:25:08.70,-129,119,-2039,4,59,151,80,-454,534,187
,668,2023-10-20 13:25:08.71,-125,124,-2044,-7,61,145,101,-432,533,165
,669,2023-10-20 13:25:08.72,-123,136,-2039,-11,59,140,77,-463,540,193
,670,2023-10-20 13:25:08.73,-122,132,-2048,-17,59,132,102,-443,545,170
,671,2023-10-20 13:25:08.74,-121,130,-2060,-21,57,120,77,-477,554,200
,672,2023-10-20 13:25:08.75,-123,119,-2069,-23,45,112,93,-453,546,180
,673,2023-10-20 13:25:08.76,-111,117,-2051,-27,38,111,70,-471,541,200
,674,2023-10-20 13:25:08.77,-119,102,-2066,-25,32,108,88,-442,530,177
,675,2023-10-20 13:25:08.78,-116,78,-2057,-19,23,110,71,-459,530,194
,676,2023-10-20 13:25:08.79,-102,70,-2049,-8,19,115,78,-440,518,181
,677,2023-10-20 13:25:08.80,-98,94,-2028,0,23,126,57,-453,510,198
,678,2023-10-20 13:25:08.81,-113,98,-2031,2,35,135,73,-427,500,177
,679,2023-10-20 13:25:08.82,-111,85,-2031,1,45,140,66,-432,498,183
,680,2023-10-20 13:25:08.83,-114,83,-2019,13,43,145,93,-405,498,156
,681,2023-10-20 13:25:08.84,-119,90,-2046,20,53,152,71,-432,503,180
,682,2023-10-20 13:25:08.85,-128,78,-2048,25,51,157,95,-406,501,155
,683,2023-10-20 13:25:08.86,-135,60,-2041,34,42,167,79,-422,501,171
,684,2023-10-20 13:25:08.87,-133,53,-2036,43,37,181,102,-395,497,146
,685,2023-10-20 13:25:08.88,-126,61,-2037,48,39,195,91,-413,504,161
,686,2023-10-20 13:25:08.89,-119,46,-2037,55,45,208,111,-391,502,140
,687,2023-10-20 13:25:08.90,-127,58,-2068,64,41,223,97,-415,512,159
,688,2023-10-20 13:25:08.91,-131,52,-2088,69,39,239,119,-407,526,144
,689,2023-10-20 13:25:08.92,-144,78,-2080,64,42,250,103,-444,547,170
,690,2023-10-20 13:25:08.93,-137,74,-2071,63,37,260,128,-441,569,156
,691,2023-10-20 13:25:08.94,-149,69,-2056,67,35,263,115,-479,594,182
,692,2023-10-20 13:25:08.95,-142,93,-2061,77,18,263,138,-474,612,168
,693,2023-10-20 13:25:08.96,-155,110,-2071,75,8,263,124,-498,622,187
,694,2023-10-20 13:25:08.97,-144,103,-2052,62,-3,265,140,-479,619,169
,695,2023-10-20 13:25:08.98,-162,91,-2058,49,9,272,120,-494,614,187
,696,2023-10-20 13:25:08.99,-152,75,-2042,46,-1,296,128,-467,595,169
,697,2023-10-20 13:25:09.00,-151,15,-2041,43,10,329,104,-470,574,183
,698,2023-10-20 13:25:09.01,-158,13,-2038,50,22,379,119,-441,560,161
,699,2023-10-20 13:25:09.02,-140,30,-2035,63,23,419,105,-447,552,171
,700,2023-10-20 13:25:09.03,-139,62,-2026,65,39,468,123,-426,549,151
,701,2023-10-20 13:25:09.04,-119,88,-2017,61,47,492,108,-446,554,169
,702,2023-10-20 13:25:09.05,-86,116,-1997,49,98,528,116,-443,559,163
,703,2023-10-20 13:25:09.06,-135,56,-2034,68,114,547,85,-473,558,194
,704,2023-10-20 13:25:09.07,-76,114,-1998,81,111,591,77,-476,553,199
,705,2023-10-20 13:25:09.08,-68,40,-2029,97,159,613,28,-518,546,245
,706,2023-10-20 13:25:09.09,-91,12,-2064,142,155,668,2,-546,548,272
,707,2023-10-20 13:25:09.10,-60,-2,-2057,188,155,719,-38,-594,556,316
,708,2023-10-20 13:25:09.11,-33,27,-2054,224,153,769,-44,-603,559,323
,709,2023-10-20 13:25:09.12,-25,51,-2053,239,160,820,-69,-611,542,340
,710,2023-10-20 13:25:09.13,-26,60,-2049,240,177,853,-72,-594,522,333
,711,2023-10-20 13:25:09.14,3,71,-2040,238,173,890,-87,-599,512,343
,712,2023-10-20 13:25:09.15,-1,60,-2032,239,188,914,-68,-602,534,335
,713,2023-10-20 13:25:09.16,4,56,-2040,241,192,932,-64,-630,566,347
,714,2023-10-20 13:25:09.17,15,52,-2072,228,198,955,-40,-646,606,343
,715,2023-10-20 13:25:09.18,-1,49,-2058,251,182,970,-32,-686,654,359
,716,2023-10-20 13:25:09.19,26,14,-2033,263,159,987,0,-713,713,356
,717,2023-10-20 13:25:09.20,26,49,-2072,236,178,993,-6,-756,750,381
,718,2023-10-20 13:25:09.21,42,44,-2045,222,179,1007,15,-774,789,379
,719,2023-10-20 13:25:09.22,27,20,-2032,224,173,1013,19,-816,835,398
,720,2023-10-20 13:25:09.23,53,42,-2026,215,159,1015,54,-852,906,399
,721,2023-10-20 13:25:09.24,106,66,-2014,199,169,1013,66,-940,1006,437
,722,2023-10-20 13:25:09.25,48,36,-2020,212,125,999,97,-1031,1128,467
,723,2023-10-20 13:25:09.26,82,22,-2013,217,143,987,104,-1132,1236,514
,724,2023-10-20 13:25:09.27,80,39,-2041,221,142,962,127,-1235,1362,554
,725,2023-10-20 13:25:09.28,86,39,-2033,210,159,947,122,-1330,1452,604
,726,2023-10-20 13:25:09.29,76,45,-2036,198,166,919,148,-1383,1531,617
,727,2023-10-20 13:25:09.30,78,50,-2026,189,151,894,155,-1421,1576,633
,728,2023-10-20 13:25:09.31,72,42,-2043,173,163,864,170,-1423,1593,626
,729,2023-10-20 13:25:09.32,69,63,-2045,165,159,836,170,-1412,1582,621
,730,2023-10-20 13:25:09.33,74,50,-2070,162,152,810,170,-1390,1560,610
,731,2023-10-20 13:25:09.34,58,16,-2090,138,144,788,158,-1367,1525,604
,732,2023-10-20 13:25:09.35,38,13,-2094,121,126,759,144,-1346,1490,601
,733,2023-10-20 13:25:09.36,49,61,-2081,108,106,723,137,-1340,1477,601
,734,2023-10-20 13:25:09.37,52,43,-2084,84,96,685,139,-1323,1462,592
,735,2023-10-20 13:25:09.38,37,58,-2113,60,75,640,176,-1275,1451,549
,736,2023-10-20 13:25:09.39,45,91,-2107,54,50,594,189,-1225,1414,518
,737,2023-10-20 13:25:09.40,39,76,-2106,49,29,549,188,-1183,1371,497
,738,2023-10-20 13:25:09.41,55,30,-2116,27,19,516,165,-1155,1320,495
,739,2023-10-20 13:25:09.42,50,-5,-2060,15,5,496,163,-1119,1282,478
,740,2023-10-20 13:25:09.43,57,6,-2079,31,-9,473,162,-1078,1240,458
,741,2023-10-20 13:25:09.44,44,29,-2074,37,-21,449,184,-1020,1204,418
,742,2023-10-20 13:25:09.45,57,12,-2055,24,-27,422,192,-956,1148,382
,743,2023-10-20 13:25:09.46,58,40,-2043,18,-24,388,208,-883,1091,337
,744,2023-10-20 13:25:09.47,53,86,-2066,5,-20,352,184,-826,1010,321
,745,2023-10-20 13:25:09.48,57,73,-2064,-10,-17,311,195,-764,959,284
,746,2023-10-20 13:25:09.49,38,62,-2053,-18,-12,270,263,-669,932,203
,747,2023-10-20 13:25:09.50,26,53,-2064,-30,-12,240,370,-523,893,76
,748,2023-10-20 13:25:09.51,29,41,-2068,-33,-17,214,449,-364,813,-42
,749,2023-10-20 13:25:09.52,35,14,-2017,-48,-10,202,484,-229,713,-127
,750,2023-10-20 13:25:09.53,42,19,-2047,-49,-6,180,464,-153,617,-155
,751,2023-10-20 13:25:09.54,29,59,-2045,-53,-12,156,454,-101,555,-176
,752,2023-10-20 13:25:09.55,54,55,-2037,-59,-13,137,434,-83,517,-175
,753,2023-10-20 13:25:09.56,33,71,-2047,-66,8,115,424,-71,495,-176
,754,2023-10-20 13:25:09.57,39,81,-2045,-63,5,85,394,-83,477,-155
,755,2023-10-20 13:25:09.58,39,82,-2045,-61,8,50,381,-93,474,-144
,756,2023-10-20 13:25:09.59,28,74,-2063,-54,0,14,350,-121,471,-114
,757,2023-10-20 13:25:09.60,24,58,-2055,-45,-5,-11,350,-123,473,-113
,758,2023-10-20 13:25:09.61,35,36,-2074,-39,-2,-28,317,-149,466,-84
,759,2023-10-20 13:25:09.62,26,11,-2071,-28,-1,-30,320,-143,463,-88
,760,2023-10-20 13:25:09.63,28,13,-2069,-6,-16,-31,298,-161,459,-68
,761,2023-10-20 13:25:09.64,27,15,-2056,8,-23,-24,317,-135,452,-91
,762,2023-10-20 13:25:09.65,30,30,-2051,15,-23,-25,308,-135,443,-86
,763,2023-10-20 13:25:09.66,45,41,-2053,22,-21,-27,325,-120,445,-102
,764,2023-10-20 13:25:09.67,62,58,-2043,26,-20,-35,309,-135,444,-87
,765,2023-10-20 13:25:09.68,50,51,-2050,26,-9,-48,317,-137,454,-90
,766,2023-10-20 13:25:09.69,42,52,-2059,26,-3,-60,290,-170,460,-60
,767,2023-10-20 13:25:09.70,49,42,-2065,33,-11,-71,316,-174,490,-71
,768,2023-10-20 13:25:09.71,44,21,-2073,42,-10,-82,311,-192,503,-59
,769,2023-10-20 13:25:09.72,39,9,-2071,46,-19,-84,324,-184,508,-70
,770,2023-10-20 13:25:09.73,35,14,-2066,53,-27,-86,305,-192,497,-56
,771,2023-10-20 13:25:09.74,29,8,-2068,61,-41,-89,315,-177,492,-69
,772,2023-10-20 13:25:09.75,22,24,-2060,56,-40,-91,301,-183,484,-59
,773,2023-10-20 13:25:09.76,14,-2,-2068,49,-44,-94,310,-164,474,-73
,774,2023-10-20 13:25:09.77,18,-3,-2058,43,-50,-93,304,-160,464,-72
,775,2023-10-20 13:25:09.78,32,5,-2048,38,-50,-98,324,-135,459,-94
,776,2023-10-20 13:25:09.79,15,-12,-2051,25,-45,-100,319,-129,448,-95
,777,2023-10-20 13:25:09.80,20,-2,-2049,10,-36,-100,333,-108,441,-112
,778,2023-10-20 13:25:09.81,13,-2,-2047,8,-30,-100,321,-112,433,-104
,779,2023-10-20 13:25:09.82,17,12,-2037,2,-30,-100,337,-88,425,-124
,780,2023-10-20 13:25:09.83,14,-29,-2049,-7,-19,-101,327,-89,416,-119
,781,2023-10-20 13:25:09.84,5,-45,-2062,7,-25,-95,344,-67,411,-138
,782,2023-10-20 13:25:09.85,21,-52,-2060,32,-38,-82,335,-73,408,-131
,783,2023-10-20 13:25:09.86,11,-38,-2054,39,-36,-76,282,-100,382,-91
,784,2023-10-20 13:25:09.87,26,-41,-2045,40,-22,-64,-104,-300,196,202
,785,2023-10-20 13:25:09.88,19,-30,-2049,43,-15,-52,-537,-561,24,549
,786,2023-10-20 13:25:09.89,12,-34,-2045,46,-10,-41,-624,-589,-35,606
,787,2023-10-20 13:25:09.90,16,-36,-2056,43,-2,-36,-706,-680,-26,693
,788,2023-10-20 13:25:09.91,10,-24,-2047,39,-2,-29,-628,-624,-4,626
,789,2023-10-20 13:25:09.92,0,-19,-2046,33,0,-24,-728,-728,0,728
,790,2023-10-20 13:25:09.93,22,17,-2039,17,6,-29,-687,-690,3,688
,791,2023-10-20 13:25:09.94,5,0,-2047,1,13,-31,-806,-797,-9,801
,792,2023-10-20 13:25:09.95,2,-15,-2049,3,6,-27,-754,-746,-8,750
,793,2023-10-20 13:25:09.96,4,-11,-2058,8,-3,-23,-863,-849,-14,856
,794,2023-10-20 13:25:09.97,11,-22,-2053,2,-12,-23,-804,-794,-10,799
,795,2023-10-20 13:25:09.98,2,-1,-2057,-5,-10,-23,-904,-891,-13,897
,796,2023-10-20 13:25:09.99,3,-21,-2047,-9,-12,-19,-839,-832,-7,835
,797,2023-10-20 13:25:10.00,13,-11,-2052,-4,-11,-15,-941,-928,-13,934
,798,2023-10-20 13:25:10.01,10,-15,-2051,1,-17,-14,-874,-863,-11,868
,799,2023-10-20 13:25:10.02,16,-7,-2052,8,-11,-11,-978,-962,-16,970
,800,2023-10-20 13:25:10.03,2,-7,-2049,7,-12,-7,-915,-903,-12,909
,801,2023-10-20 13:25:10.04,1,-8,-2059,5,-8,-3,-1013,-998,-15,1005
,802,2023-10-20 13:25:10.05,7,-8,-2062,-1,-10,1,-943,-931,-12,937
,803,2023-10-20 13:25:10.06,-1,-7,-2060,1,-8,7,-1031,-1015,-16,1023
,804,2023-10-20 13:25:10.07,14,11,-2057,-2,-5,8,-972,-952,-20,962
,805,2023-10-20 13:25:10.08,12,5,-2059,-9,-2,5,-1054,-1020,-34,1037
,806,2023-10-20 13:25:10.09,13,0,-2063,-13,1,4,-993,-940,-53,966
,807,2023-10-20 13:25:10.10,3,-2,-2066,-10,-3,2,-1070,-976,-94,1023
,808,2023-10-20 13:25:10.11,6,-3,-2060,-4,-7,-3,-1011,-879,-132,945
,809,2023-10-20 13:25:10.12,15,-6,-2065,0,-5,0,-1083,-876,-207,979
,810,2023-10-20 13:25:10.13,4,-9,-2051,1,-5,-1,-1028,-793,-235,910
,811,2023-10-20 13:25:10.14,12,-5,-2048,3,1,2,-1095,-782,-313,938
,812,2023-10-20 13:25:10.15,25,-12,-2048,0,2,6,-1038,-704,-334,871
,813,2023-10-20 13:25:10.16,17,7,-2046,-6,8,7,-1087,-666,-421,876
,814,2023-10-20 13:25:10.17,15,7,-2045,-9,11,6,-977,-587,-390,782
,815,2023-10-20 13:25:10.18,22,16,-2043,-10,12,3,-893,-517,-376,705
,816,2023-10-20 13:25:10.19,6,16,-2052,-14,11,-3,-761,-445,-316,603
,817,2023-10-20 13:25:10.20,17,25,-2058,-16,12,-9,-624,-364,-260,494
,818,2023-10-20 13:25:10.21,9,16,-2057,-13,4,-8,-559,-314,-245,436
,819,2023-10-20 13:25:10.22,11,28,-2053,-17,0,-14,-456,-226,-230,341
,820,2023-10-20 13:25:10.23,1,-2,-2063,-18,1,-14,-435,-206,-229,320
,821,2023-10-20 13:25:10.24,17,0,-2045,-7,-6,-4,-307,-141,-166,224
,822,2023-10-20 13:25:10.25,12,-1,-2047,2,-7,2,-297,-132,-165,214
,823,2023-10-20 13:25:10.26,7,5,-2050,5,-14,5,-150,-40,-110,95
,824,2023-10-20 13:25:10.27,14,8,-2054,6,-8,6,-160,-25,-135,92
,825,2023-10-20 13:25:10.28,-4,13,-2060,9,-9,8,1,70,-69,-35
,826,2023-10-20 13:25:10.29,16,12,-2053,8,-9,8,-48,62,-110,-7
,827,2023-10-20 13:25:10.30,16,17,-2061,14,-12,7,73,142,-69,-107
,828,2023-10-20 13:25:10.31,6,9,-2057,13,-8,2,-10,127,-137,-58
,829,2023-10-20 13:25:10.32,-1,7,-2061,12,-5,3,116,211,-95,-163
,830,2023-10-20 13:25:10.33,-4,2,-2060,12,-5,9,45,181,-136,-113
,831,2023-10-20 13:25:10.34,8,-2,-2054,11,-4,17,210,230,-20,-220
,832,2023-10-20 13:25:10.35,-5,-8,-2050,9,1,20,157,197,-40,-177
,833,2023-10-20 13:25:10.36,9,1,-2051,4,5,26,298,260,38,-279
,834,2023-10-20 13:25:10.37,5,4,-2052,6,11,33,203,245,-42,-224
,835,2023-10-20 13:25:10.38,8,4,-2052,5,12,35,326,316,10,-321
,836,2023-10-20 13:25:10.39,10,4,-2043,3,13,35,252,299,-47,-275
,837,2023-10-20 13:25:10.40,17,8,-2048,5,14,35,384,348,36,-366
,838,2023-10-20 13:25:10.41,19,12,-2050,1,13,32,291,322,-31,-306
,839,2023-10-20 13:25:10.42,7,14,-2051,3,13,23,408,374,34,-391
,840,2023-10-20 13:25:10.43,9,18,-2053,2,12,18,317,345,-28,-331
,841,2023-10-20 13:25:10.44,7,17,-2058,4,10,15,428,366,62,-397
,842,2023-10-20 13:25:10.45,13,15,-2053,4,5,12,357,337,20,-347
,843,2023-10-20 13:25:10.46,8,15,-2064,6,1,15,461,385,76,-423
,844,2023-10-20 13:25:10.47,11,6,-2057,6,-5,16,376,394,-18,-385
,845,2023-10-20 13:25:10.48,12,9,-2052,5,-6,17,450,408,42,-429
,846,2023-10-20 13:25:10.49,5,11,-2040,6,-4,17,405,412,-7,-408
,847,2023-10-20 13:25:10.50,19,9,-2046,9,-4,17,487,412,75,-449
,848,2023-10-20 13:25:10.51,7,12,-2044,11,2,19,452,418,34,-435
,849,2023-10-20 13:25:10.52,5,4,-2049,13,3,20,512,417,95,-464
,850,2023-10-20 13:25:10.53,2,10,-2051,17,11,21,467,432,35,-449
,851,2023-10-20 13:25:10.54,11,-1,-2042,15,11,22,509,424,85,-466
,852,2023-10-20 13:25:10.55,6,7,-2049,16,13,23,484,445,39,-464
,853,2023-10-20 13:25:10.56,3,3,-2065,20,12,22,527,425,102,-476
,854,2023-10-20 13:25:10.57,15,3,-2060,25,13,23,510,448,62,-479
,855,2023-10-20 13:25:10.58,20,14,-2051,24,21,19,539,429,110,-484
,856,2023-10-20 13:25:10.59,24,11,-2053,20,25,16,509,457,52,-483
,857,2023-10-20 13:25:10.60,21,12,-2069,15,28,16,524,420,104,-472
,858,2023-10-20 13:25:10.61,10,12,-2076,18,27,13,538,455,83,-496
,859,2023-10-20 13:25:10.62,6,1,-2063,18,17,12,543,414,129,-478
,860,2023-10-20 13:25:10.63,14,6,-2067,20,11,13,553,466,87,-509
,861,2023-10-20 13:25:10.64,4,2,-2066,19,3,12,540,412,128,-476
,862,2023-10-20 13:25:10.65,14,5,-2057,18,-5,14,555,472,83,-513
,863,2023-10-20 13:25:10.66,18,4,-2043,16,-12,17,545,414,131,-479
,864,2023-10-20 13:25:10.67,19,13,-2035,7,-6,21,565,484,81,-524
,865,2023-10-20 13:25:10.68,7,12,-2030,3,-7,27,539,424,115,-481
,866,2023-10-20 13:25:10.69,18,15,-2041,-1,-5,24,588,492,96,-540
,867,2023-10-20 13:25:10.70,2,9,-2046,-4,-3,25,549,403,146,-476
,868,2023-10-20 13:25:10.71,5,10,-2055,-6,-4,24,577,468,109,-522
,869,2023-10-20 13:25:10.72,-2,13,-2054,-5,-6,25,533,376,157,-454
,870,2023-10-20 13:25:10.73,-5,9,-2060,-7,-5,26,602,457,145,-529
,871,2023-10-20 13:25:10.74,2,13,-2052,-4,-10,28,550,364,186,-457
,872,2023-10-20 13:25:10.75,-4,15,-2051,-2,-9,27,603,441,162,-522
,873,2023-10-20 13:25:10.76,6,19,-2051,-3,-3,24,543,339,204,-441
,874,2023-10-20 13:25:10.77,1,21,-2064,4,0,19,637,444,193,-540
,875,2023-10-20 13:25:10.78,9,17,-2063,10,2,17,554,374,180,-464
,876,2023-10-20 13:25:10.79,3,21,-2064,12,4,16,644,511,133,-577
,877,2023-10-20 13:25:10.80,-7,14,-2057,17,6,13,548,410,138,-479
,878,2023-10-20 13:25:10.81,-2,9,-2051,21,7,14,634,514,120,-574
,879,2023-10-20 13:25:10.82,2,7,-2053,28,5,16,538,379,159,-458
,880,2023-10-20 13:25:10.83,1,2,-2047,32,13,19,653,490,163,-571
,881,2023-10-20 13:25:10.84,10,-2,-2037,31,19,17,527,367,160,-447
,882,2023-10-20 13:25:10.85,14,1,-2042,29,25,20,643,502,141,-572
,883,2023-10-20 13:25:10.86,28,3,-2043,26,30,21,524,365,159,-444
,884,2023-10-20 13:25:10.87,34,6,-2043,27,32,19,660,519,141,-589
,885,2023-10-20 13:25:10.88,15,6,-2051,26,32,18,541,400,141,-470
,886,2023-10-20 13:25:10.89,13,5,-2055,26,31,18,649,539,110,-594
,887,2023-10-20 13:25:10.90,19,6,-2058,26,29,17,518,412,106,-465
,888,2023-10-20 13:25:10.91,23,4,-2050,27,24,19,666,577,89,-621
,889,2023-10-20 13:25:10.92,32,5,-2052,26,24,23,526,440,86,-483
,890,2023-10-20 13:25:10.93,30,0,-2055,21,23,23,670,602,68,-636
,891,2023-10-20 13:25:10.94,18,7,-2053,21,20,25,524,446,78,-485
,892,2023-10-20 13:25:10.95,27,15,-2054,19,16,22,668,565,103,-616
,893,2023-10-20 13:25:10.96,27,7,-2064,16,15,22,516,367,149,-441
,894,2023-10-20 13:25:10.97,22,4,-2060,20,11,19,686,518,168,-602
,895,2023-10-20 13:25:10.98,28,6,-2062,17,10,18,527,377,150,-452
,896,2023-10-20 13:25:10.99,19,2,-2057,17,7,15,686,565,121,-625
,897,2023-10-20 13:25:11.00,10,9,-2057,15,7,13,512,409,103,-460
,898,2023-10-20 13:25:11.01,16,5,-2057,16,7,14,689,567,122,-628
,899,2023-10-20 13:25:11.02,27,1,-2061,18,3,14,508,385,123,-446
,900,2023-10-20 13:25:11.03,20,0,-2057,16,3,18,689,560,129,-624
,901,2023-10-20 13:25:11.04,11,-10,-2056,18,1,21,514,398,116,-456
,902,2023-10-20 13:25:11.05,13,-1,-2052,16,1,26,695,594,101,-644
,903,2023-10-20 13:25:11.06,15,-6,-2056,13,1,36,504,427,77,-465
,904,2023-10-20 13:25:11.07,14,3,-2050,10,5,41,700,612,88,-656
,905,2023-10-20 13:25:11.08,8,4,-2042,6,6,44,502,429,73,-465
,906,2023-10-20 13:25:11.09,22,21,-2054,6,7,38,693,612,81,-652
,907,2023-10-20 13:25:11.10,26,20,-2059,9,5,32,493,419,74,-456
,908,2023-10-20 13:25:11.11,9,12,-2057,11,4,25,688,595,93,-641
,909,2023-10-20 13:25:11.12,6,23,-2061,13,0,20,493,396,97,-444
,910,2023-10-20 13:25:11.13,17,17,-2057,16,-2,17,714,569,145,-641
,911,2023-10-20 13:25:11.14,14,5,-2058,17,-2,16,502,373,129,-437
,912,2023-10-20 13:25:11.15,8,9,-2058,18,-4,18,709,560,149,-634
,913,2023-10-20 13:25:11.16,8,10,-2058,21,-3,22,499,370,129,-434
,914,2023-10-20 13:25:11.17,15,4,-2053,22,-4,27,705,560,145,-632
,915,2023-10-20 13:25:11.18,9,-5,-2045,21,-3,27,492,375,117,-433
,916,2023-10-20 13:25:11.19,10,6,-2049,24,4,29,703,554,149,-628
,917,2023-10-20 13:25:11.20,20,10,-2049,26,7,29,484,362,122,-423
,918,2023-10-20 13:25:11.21,15,8,-2054,28,11,27,706,532,174,-619
,919,2023-10-20 13:25:11.22,11,-4,-2053,34,13,23,492,328,164,-410
,920,2023-10-20 13:25:11.23,10,-9,-2054,33,9,24,711,510,201,-610
,921,2023-10-20 13:25:11.24,3,-10,-2055,35,12,26,499,344,155,-421
,922,2023-10-20 13:25:11.25,9,-21,-2052,37,11,27,717,535,182,-626
,923,2023-10-20 13:25:11.26,23,-10,-2055,35,11,30,486,354,132,-420
,924,2023-10-20 13:25:11.27,14,0,-2050,31,15,29,705,543,162,-624
,925,2023-10-20 13:25:11.28,22,-16,-2052,22,24,29,483,366,117,-424
,926,2023-10-20 13:25:11.29,18,-18,-2059,20,28,29,719,572,147,-645
,927,2023-10-20 13:25:11.30,24,-12,-2057,18,27,32,493,393,100,-443
,928,2023-10-20 13:25:11.31,17,-11,-2059,20,26,35,720,586,134,-653
,929,2023-10-20 13:25:11.32,6,-9,-2059,16,23,38,481,387,94,-434
,930,2023-10-20 13:25:11.33,34,13,-2048,17,23,35,697,545,152,-621
,931,2023-10-20 13:25:11.34,32,8,-2055,18,17,29,492,354,138,-423
,932,2023-10-20 13:25:11.35,15,23,-2057,17,11,24,730,531,199,-630
,933,2023-10-20 13:25:11.36,11,9,-2051,12,5,17,505,356,149,-430
,934,2023-10-20 13:25:11.37,13,1,-2051,9,4,18,736,541,195,-638
,935,2023-10-20 13:25:11.38,11,-7,-2052,7,3,22,499,355,144,-427
,936,2023-10-20 13:25:11.39,13,-18,-2053,2,5,31,732,534,198,-633
,937,2023-10-20 13:25:11.40,14,-12,-2051,-2,7,40,507,351,156,-429
,938,2023-10-20 13:25:11.41,18,-5,-2057,-4,8,45,736,550,186,-643
,939,2023-10-20 13:25:11.42,25,9,-2058,-2,7,43,506,388,118,-447
,940,2023-10-20 13:25:11.43,16,20,-2054,4,9,39,738,561,177,-649
,941,2023-10-20 13:25:11.44,14,19,-2054,11,7,31,506,374,132,-440
,942,2023-10-20 13:25:11.45,28,17,-2055,18,2,17,744,556,188,-650
,943,2023-10-20 13:25:11.46,12,-5,-2057,27,4,9,514,385,129,-449
,944,2023-10-20 13:25:11.47,30,-8,-2057,32,3,6,730,559,171,-644
,945,2023-10-20 13:25:11.48,27,-16,-2051,34,6,8,508,386,122,-447
,946,2023-10-20 13:25:11.49,26,-27,-2049,29,8,14,740,561,179,-650
,947,2023-10-20 13:25:11.50,18,-28,-2047,25,7,23,512,388,124,-450
,948,2023-10-20 13:25:11.51,6,-26,-2047,21,9,32,724,545,179,-634
,949,2023-10-20 13:25:11.52,18,-13,-2048,16,15,39,512,373,139,-442
,950,2023-10-20 13:25:11.53,23,-11,-2042,10,17,40,740,547,193,-643
,951,2023-10-20 13:25:11.54,25,-1,-2046,7,18,38,520,404,116,-462
,952,2023-10-20 13:25:11.55,21,-1,-2051,3,24,34,734,571,163,-652
,953,2023-10-20 13:25:11.56,35,-3,-2057,4,22,28,526,406,120,-466
,954,2023-10-20 13:25:11.57,17,7,-2045,7,24,21,734,555,179,-644
,955,2023-10-20 13:25:11.58,29,-9,-2055,9,18,17,522,401,121,-461
,956,2023-10-20 13:25:11.59,21,-9,-2054,10,16,21,729,533,196,-631
,957,2023-10-20 13:25:11.60,26,-11,-2049,8,16,23,526,375,151,-450
,958,2023-10-20 13:25:11.61,26,-8,-2046,6,16,27,732,524,208,-628
,959,2023-10-20 13:25:11.62,29,-4,-2053,2,17,30,535,398,137,-466
,960,2023-10-20 13:25:11.63,30,-2,-2050,0,18,33,730,533,197,-631
,961,2023-10-20 13:25:11.64,24,3,-2055,0,13,26,532,397,135,-464
,962,2023-10-20 13:25:11.65,20,3,-2054,2,13,24,730,537,193,-633
,963,2023-10-20 13:25:11.66,25,10,-2051,2,13,22,536,394,142,-465
,964,2023-10-20 13:25:11.67,28,0,-2054,6,14,17,728,523,205,-625
,965,2023-10-20 13:25:11.68,32,-1,-2059,10,14,18,549,400,149,-474
,966,2023-10-20 13:25:11.69,21,-4,-2052,11,15,17,732,537,195,-634
,967,2023-10-20 13:25:11.70,37,-3,-2058,11,17,18,547,426,121,-486
,968,2023-10-20 13:25:11.71,23,-5,-2058,13,18,14,715,558,157,-636
,969,2023-10-20 13:25:11.72,35,1,-2057,15,18,14,552,453,99,-502
,970,2023-10-20 13:25:11.73,28,6,-2052,14,18,12,718,570,148,-644
,971,2023-10-20 13:25:11.74,22,1,-2054,15,16,9,533,453,80,-493
,972,2023-10-20 13:25:11.75,25,0,-2060,18,17,8,698,556,142,-627
,973,2023-10-20 13:25:11.76,41,-9,-2055,16,12,10,557,444,113,-500
,974,2023-10-20 13:25:11.77,32,-12,-2059,14,12,12,721,545,176,-633
,975,2023-10-20 13:25:11.78,36,-17,-2058,13,10,17,577,463,114,-520
,976,2023-10-20 13:25:11.79,25,-20,-2052,9,11,23,714,568,146,-641
,977,2023-10-20 13:25:11.80,30,-6,-2046,6,14,26,565,489,76,-527
,978,2023-10-20 13:25:11.81,34,6,-2055,9,9,27,698,559,139,-628
,979,2023-10-20 13:25:11.82,25,2,-2065,13,6,20,580,473,107,-526
,980,2023-10-20 13:25:11.83,16,0,-2060,10,6,15,706,556,150,-631
,981,2023-10-20 13:25:11.84,28,0,-2061,12,3,12,582,494,88,-538
,982,2023-10-20 13:25:11.85,24,-13,-2058,15,1,13,692,553,139,-622
,983,2023-10-20 13:25:11.86,22,-6,-2050,14,1,17,577,483,94,-530
,984,2023-10-20 13:25:11.87,36,-4,-2044,12,-1,22,681,536,145,-608
,985,2023-10-20 13:25:11.88,30,-2,-2049,6,2,27,579,484,95,-531
,986,2023-10-20 13:25:11.89,19,3,-2052,6,1,26,676,510,166,-593
,987,2023-10-20 13:25:11.90,20,9,-2050,0,5,22,581,459,122,-520
,988,2023-10-20 13:25:11.91,19,5,-2053,-1,5,20,679,485,194,-582
,989,2023-10-20 13:25:11.92,30,6,-2058,2,4,17,605,444,161,-524
,990,2023-10-20 13:25:11.93,35,1,-2046,6,5,16,681,468,213,-574
,991,2023-10-20 13:25:11.94,39,1,-2058,12,7,10,608,451,157,-529
,992,2023-10-20 13:25:11.95,35,4,-2059,16,10,8,674,478,196,-576
,993,2023-10-20 13:25:11.96,26,-7,-2055,19,12,8,591,465,126,-528
,994,2023-10-20 13:25:11.97,27,-10,-2061,19,11,12,646,466,180,-556
,995,2023-10-20 13:25:11.98,9,-22,-2049,21,9,19,613,451,162,-532
,996,2023-10-20 13:25:11.99,38,-17,-2055,19,10,25,664,442,222,-553
,997,2023-10-20 13:25:12.00,27,-7,-2056,20,7,31,617,443,174,-530
,998,2023-10-20 13:25:12.01,27,1,-2047,17,9,32,657,440,217,-548
,999,2023-10-20 13:25:12.02,45,13,-2047,13,15,28,632,457,175,-544
,1000,2023-10-20 13:25:12.03,47,15,-2048,8,19,21,656,471,185,-563
,1001,2023-10-20 13:25:12.04,40,2,-2063,9,20,17,620,506,114,-563
,1002,2023-10-20 13:25:12.05,27,-5,-2062,11,21,19,633,469,164,-551
,1003,2023-10-20 13:25:12.06,20,-12,-2058,11,16,19,637,497,140,-567
,1004,2023-10-20 13:25:12.07,25,-6,-2060,13,12,20,643,472,171,-557
,1005,2023-10-20 13:25:12.08,40,-6,-2054,12,8,21,633,506,127,-569
,1006,2023-10-20 13:25:12.09,27,3,-2048,10,9,23,623,458,165,-540
,1007,2023-10-20 13:25:12.10,35,9,-2048,8,11,19,636,498,138,-567
,1008,2023-10-20 13:25:12.11,38,5,-2046,2,9,23,632,442,190,-537
,1009,2023-10-20 13:25:12.12,36,2,-2055,-2,10,22,646,486,160,-566
,1010,2023-10-20 13:25:12.13,33,7,-2050,-3,11,23,632,462,170,-547
,1011,2023-10-20 13:25:12.14,32,5,-2052,-1,6,25,647,527,120,-587
,1012,2023-10-20 13:25:12.15,36,8,-2056,2,6,18,607,448,159,-527
,1013,2023-10-20 13:25:12.16,31,8,-2058,7,1,20,651,505,146,-578
,1014,2023-10-20 13:25:12.17,28,9,-2061,13,1,19,617,439,178,-528
,1015,2023-10-20 13:25:12.18,34,16,-2046,17,2,21,669,518,151,-593
,1016,2023-10-20 13:25:12.19,39,-3,-2049,19,5,21,617,457,160,-537
,1017,2023-10-20 13:25:12.20,29,-1,-2055,22,6,29,676,549,127,-612
,1018,2023-10-20 13:25:12.21,46,3,-2053,25,8,32,610,465,145,-537
,1019,2023-10-20 13:25:12.22,33,12,-2044,22,12,33,671,561,110,-616
,1020,2023-10-20 13:25:12.23,37,-1,-2057,24,13,32,599,484,115,-541
,1021,2023-10-20 13:25:12.24,44,1,-2054,25,14,30,675,581,94,-628
,1022,2023-10-20 13:25:12.25,25,21,-2053,28,13,29,588,475,113,-531
,1023,2023-10-20 13:25:12.26,44,0,-2056,28,12,29,673,567,106,-620
,1024,2023-10-20 13:25:12.27,30,-15,-2055,32,14,33,586,437,149,-511
,1025,2023-10-20 13:25:12.28,33,-7,-2048,36,19,36,676,533,143,-604
,1026,2023-10-20 13:25:12.29,39,2,-2044,36,18,31,582,426,156,-504
,1027,2023-10-20 13:25:12.30,46,-5,-2055,33,17,27,688,519,169,-603
,1028,2023-10-20 13:25:12.31,35,-2,-2060,33,22,22,580,359,221,-469
,1029,2023-10-20 13:25:12.32,34,-4,-2054,36,21,23,693,457,236,-575
,1030,2023-10-20 13:25:12.33,31,-27,-2061,33,23,24,579,340,239,-459
,1031,2023-10-20 13:25:12.34,42,-24,-2057,33,20,28,694,475,219,-584
,1032,2023-10-20 13:25:12.35,35,-24,-2051,33,23,28,565,369,196,-467
,1033,2023-10-20 13:25:12.36,51,-11,-2050,31,24,32,697,499,198,-598
,1034,2023-10-20 13:25:12.37,45,1,-2051,28,21,31,562,354,208,-458
,1035,2023-10-20 13:25:12.38,40,-9,-2053,28,22,28,695,489,206,-592
,1036,2023-10-20 13:25:12.39,40,-9,-2067,31,19,25,558,362,196,-460
,1037,2023-10-20 13:25:12.40,43,-1,-2057,28,13,24,700,516,184,-608
,1038,2023-10-20 13:25:12.41,41,-10,-2058,24,9,22,555,376,179,-465
,1039,2023-10-20 13:25:12.42,55,-10,-2063,23,6,19,710,529,181,-619
,1040,2023-10-20 13:25:12.43,35,-10,-2053,24,1,16,553,387,166,-470
,1041,2023-10-20 13:25:12.44,41,-6,-2052,22,-2,13,710,547,163,-628
,1042,2023-10-20 13:25:12.45,41,-11,-2054,18,-1,13,549,392,157,-470
,1043,2023-10-20 13:25:12.46,44,-18,-2052,16,-3,15,718,553,165,-635
,1044,2023-10-20 13:25:12.47,36,-17,-2048,16,2,15,550,397,153,-473
,1045,2023-10-20 13:25:12.48,32,-16,-2051,14,3,16,722,555,167,-638
,1046,2023-10-20 13:25:12.49,41,-17,-2052,13,5,18,548,390,158,-469
,1047,2023-10-20 13:25:12.50,36,-12,-2053,9,10,15,732,553,179,-642
,1048,2023-10-20 13:25:12.51,39,-8,-2057,9,10,12,540,395,145,-467
,1049,2023-10-20 13:25:12.52,40,-6,-2061,11,10,5,723,564,159,-643
,1050,2023-10-20 13:25:12.53,35,-1,-2066,7,6,3,529,369,160,-449
,1051,2023-10-20 13:25:12.54,40,-9,-2062,8,1,1,728,548,180,-638
,1052,2023-10-20 13:25:12.55,39,-10,-2059,7,3,3,536,379,157,-457
,1053,2023-10-20 13:25:12.56,30,-17,-2047,7,-1,4,737,563,174,-650
,1054,2023-10-20 13:25:12.57,31,-12,-2046,9,1,7,528,388,140,-458
,1055,2023-10-20 13:25:12.58,47,-16,-2040,11,2,10,730,580,150,-655
,1056,2023-10-20 13:25:12.59,31,-13,-2041,14,8,17,528,405,123,-466
,1057,2023-10-20 13:25:12.60,35,-12,-2048,16,10,17,736,594,142,-665
,1058,2023-10-20 13:25:12.61,34,-12,-2047,17,17,18,532,406,126,-469
,1059,2023-10-20 13:25:12.62,35,3,-2043,19,15,20,744,610,134,-677
,1060,2023-10-20 13:25:12.63,27,-1,-2053,20,17,19,526,427,99,-476
,1061,2023-10-20 13:25:12.64,39,-3,-2062,21,13,21,744,632,112,-688
,1062,2023-10-20 13:25:12.65,38,-6,-2066,20,10,21,528,437,91,-482
,1063,2023-10-20 13:25:12.66,35,-3,-2058,20,11,24,743,626,117,-684
,1064,2023-10-20 13:25:12.67,34,-9,-2049,19,14,25,524,426,98,-475
,1065,2023-10-20 13:25:12.68,35,-15,-2052,19,13,24,750,640,110,-695
,1066,2023-10-20 13:25:12.69,35,-10,-2045,22,20,24,521,449,72,-485
,1067,2023-10-20 13:25:12.70,29,-13,-2048,22,23,27,745,650,95,-697
,1068,2023-10-20 13:25:12.71,27,-17,-2053,24,21,28,522,436,86,-479
,1069,2023-10-20 13:25:12.72,29,-9,-2050,25,21,27,755,637,118,-696
,1070,2023-10-20 13:25:12.73,30,-15,-2049,25,26,24,518,442,76,-480
,1071,2023-10-20 13:25:12.74,46,-8,-2053,29,25,22,744,652,92,-698
,1072,2023-10-20 13:25:12.75,47,-10,-2058,30,25,15,516,443,73,-479
,1073,2023-10-20 13:25:12.76,53,-2,-2054,31,31,9,748,634,114,-691
,1074,2023-10-20 13:25:12.77,51,-7,-2055,30,34,1,518,424,94,-471
,1075,2023-10-20 13:25:12.78,35,-22,-2066,30,36,2,755,627,128,-691
,1076,2023-10-20 13:25:12.79,43,-29,-2068,33,33,3,517,426,91,-471
,1077,2023-10-20 13:25:12.80,41,-29,-2063,36,28,9,753,635,118,-694
,1078,2023-10-20 13:25:12.81,44,-34,-2058,34,26,16,519,435,84,-477
,1079,2023-10-20 13:25:12.82,58,-31,-2041,31,25,24,748,635,113,-691
,1080,2023-10-20 13:25:12.83,48,-14,-2047,29,25,26,516,436,80,-476
,1081,2023-10-20 13:25:12.84,58,-3,-2046,30,27,24,761,654,107,-707
,1082,2023-10-20 13:25:12.85,52,-2,-2049,25,22,16,523,462,61,-492
,1083,2023-10-20 13:25:12.86,56,0,-2057,21,24,10,760,676,84,-718
,1084,2023-10-20 13:25:12.87,50,-12,-2052,18,19,9,520,475,45,-497
,1085,2023-10-20 13:25:12.88,46,-24,-2053,17,19,8,754,661,93,-707
,1086,2023-10-20 13:25:12.89,47,-33,-2055,16,18,11,516,436,80,-476
,1087,2023-10-20 13:25:12.90,44,-33,-2053,15,18,16,759,627,132,-693
,1088,2023-10-20 13:25:12.91,47,-30,-2047,15,17,23,521,426,95,-473
,1089,2023-10-20 13:25:12.92,51,-31,-2052,16,21,25,757,636,121,-696
,1090,2023-10-20 13:25:12.93,58,-33,-2048,15,21,30,525,450,75,-487
,1091,2023-10-20 13:25:12.94,62,-24,-2054,15,24,31,744,640,104,-692
,1092,2023-10-20 13:25:12.95,51,-23,-2061,20,24,29,520,462,58,-491
,1093,2023-10-20 13:25:12.96,59,-23,-2058,22,25,29,752,643,109,-697
,1094,2023-10-20 13:25:12.97,52,-15,-2057,24,27,26,528,450,78,-489
,1095,2023-10-20 13:25:12.98,58,-15,-2052,24,26,22,756,621,135,-688
,1096,2023-10-20 13:25:12.99,61,-18,-2053,19,25,22,530,438,92,-484
,1097,2023-10-20 13:25:13.00,47,-24,-2051,18,25,17,749,625,124,-687
,1098,2023-10-20 13:25:13.01,56,-24,-2060,23,23,14,528,457,71,-492
,1099,2023-10-20 13:25:13.02,51,-22,-2044,21,28,10,752,642,110,-697
,1100,2023-10-20 13:25:13.03,64,-30,-2047,20,28,8,528,464,64,-496
,1101,2023-10-20 13:25:13.04,58,-18,-2051,15,38,3,735,620,115,-677
,1102,2023-10-20 13:25:13.05,63,-35,-2053,12,40,1,531,440,91,-485
,1103,2023-10-20 13:25:13.06,62,-29,-2055,15,39,1,751,615,136,-683
,1104,2023-10-20 13:25:13.07,61,-29,-2055,14,29,0,541,471,70,-506
,1105,2023-10-20 13:25:13.08,66,-11,-2062,15,31,-5,748,648,100,-698
,1106,2023-10-20 13:25:13.09,58,-6,-2051,19,29,-13,543,478,65,-510
,1107,2023-10-20 13:25:13.10,57,-10,-2063,12,26,-22,738,624,114,-681
,1108,2023-10-20 13:25:13.11,65,-21,-2065,10,25,-20,545,464,81,-504
,1109,2023-10-20 13:25:13.12,70,-24,-2055,11,17,-16,747,589,158,-668
,1110,2023-10-20 13:25:13.13,71,-29,-2049,8,19,-11,552,437,115,-494
,1111,2023-10-20 13:25:13.14,60,-23,-2050,2,18,-5,746,588,158,-667
,1112,2023-10-20 13:25:13.15,69,-22,-2050,2,21,1,561,457,104,-509
,1113,2023-10-20 13:25:13.16,67,-25,-2056,2,20,4,741,609,132,-675
,1114,2023-10-20 13:25:13.17,68,-18,-2059,4,15,8,560,484,76,-522
,1115,2023-10-20 13:25:13.18,71,-14,-2052,5,20,9,739,609,130,-674
,1116,2023-10-20 13:25:13.19,62,-20,-2055,9,18,6,562,480,82,-521
,1117,2023-10-20 13:25:13.20,71,-22,-2049,14,22,8,736,593,143,-664
,1118,2023-10-20 13:25:13.21,64,-20,-2056,15,22,7,573,465,108,-519
,1119,2023-10-20 13:25:13.22,67,-22,-2052,15,22,10,735,592,143,-663
,1120,2023-10-20 13:25:13.23,61,-14,-2055,18,19,14,583,497,86,-540
,1121,2023-10-20 13:25:13.24,75,-21,-2058,17,15,17,736,599,137,-667
,1122,2023-10-20 13:25:13.25,74,-19,-2054,17,15,19,577,487,90,-532
,1123,2023-10-20 13:25:13.26,74,-19,-2060,17,12,22,726,572,154,-649
,1124,2023-10-20 13:25:13.27,67,-28,-2052,21,8,20,587,466,121,-526
,1125,2023-10-20 13:25:13.28,71,-19,-2054,23,9,19,721,572,149,-646
,1126,2023-10-20 13:25:13.29,72,-20,-2058,28,4,16,600,511,89,-555
,1127,2023-10-20 13:25:13.30,67,-22,-2054,30,5,21,719,589,130,-654
,1128,2023-10-20 13:25:13.31,52,-19,-2053,31,3,20,596,521,75,-558
,1129,2023-10-20 13:25:13.32,63,-26,-2060,30,-1,19,1426,1345,81,-1385
,1130,2023-10-20 13:25:13.33,59,-30,-2057,28,1,17,2047,1999,48,-2023
,1131,2023-10-20 13:25:13.34,64,-19,-2057,25,2,17,2047,2004,43,-2025
,1132,2023-10-20 13:25:13.35,53,-21,-2046,22,6,14,2047,2012,35,-2029
,1133,2023-10-20 13:25:13.36,64,-25,-2043,19,9,15,2047,2009,38,-2028
,1134,2023-10-20 13:25:13.37,63,-26,-2045,17,12,11,2047,2004,43,-2025
,1135,2023-10-20 13:25:13.38,71,-34,-2042,15,23,12,2047,1989,58,-2018
,1136,2023-10-20 13:25:13.39,67,-22,-2044,15,31,9,2047,2012,35,-2029
,1137,2023-10-20 13:25:13.40,65,-28,-2046,10,29,6,2047,1995,52,-2021
,1138,2023-10-20 13:25:13.41,67,-34,-2046,10,35,6,2047,1980,67,-2013
,1139,2023-10-20 13:25:13.42,80,-32,-2049,8,36,7,2047,1313,734,-1680
,1140,2023-10-20 13:25:13.43,69,-28,-2058,14,31,8,2047,448,1599,-1247
,1141,2023-10-20 13:25:13.44,87,-32,-2053,21,25,6,12,84,-72,-48
,1142,2023-10-20 13:25:13.45,89,-23,-2055,24,31,2,-1243,-214,-1029,728
,1143,2023-10-20 13:25:13.46,84,-18,-2061,26,34,-5,-554,-297,-257,425
,1144,2023-10-20 13:25:13.47,80,-28,-2077,27,38,-7,-78,-459,381,268
,1145,2023-10-20 13:25:13.48,93,-32,-2066,31,34,-2,-13,-501,488,257
,1146,2023-10-20 13:25:13.49,76,-40,-2059,33,28,3,-496,-606,110,551
,1147,2023-10-20 13:25:13.50,69,-30,-2048,27,24,10,-722,-598,-124,660
,1148,2023-10-20 13:25:13.51,91,-42,-2064,20,19,18,-928,-666,-262,797
,1149,2023-10-20 13:25:13.52,94,-30,-2055,16,10,22,-905,-637,-268,771
,1150,2023-10-20 13:25:13.53,69,-13,-2045,9,10,27,-992,-686,-306,839
,1151,2023-10-20 13:25:13.54,101,-10,-2040,1,8,27,-945,-650,-295,797
,1152,2023-10-20 13:25:13.55,89,-11,-2047,-3,7,27,-990,-652,-338,821
,1153,2023-10-20 13:25:13.56,75,-9,-2054,-4,5,24,-903,-593,-310,748
,1154,2023-10-20 13:25:13.57,78,-13,-2058,1,2,22,-934,-588,-346,761
,1155,2023-10-20 13:25:13.58,72,-16,-2052,3,-4,18,-860,-535,-325,697
,1156,2023-10-20 13:25:13.59,66,-16,-2057,7,-7,18,-896,-519,-377,707
,1157,2023-10-20 13:25:13.60,75,-19,-2059,8,-5,18,-814,-466,-348,640
,1158,2023-10-20 13:25:13.61,75,-14,-2048,11,-5,19,-862,-436,-426,649
,1159,2023-10-20 13:25:13.62,62,-24,-2050,14,3,22,-789,-381,-408,585
,1160,2023-10-20 13:25:13.63,80,-26,-2054,13,5,26,-804,-312,-492,558
,1161,2023-10-20 13:25:13.64,73,-25,-2044,16,12,29,-713,-260,-453,486
,1162,2023-10-20 13:25:13.65,62,-11,-2055,12,20,28,-706,-186,-520,446
,1163,2023-10-20 13:25:13.66,73,-12,-2069,15,21,27,-613,-158,-455,385
,1164,2023-10-20 13:25:13.67,77,-10,-2066,21,18,21,-588,-65,-523,326
,1165,2023-10-20 13:25:13.68,76,-6,-2066,26,18,14,-492,-45,-447,268
,1166,2023-10-20 13:25:13.69,73,-18,-2068,35,15,10,-442,60,-502,191
,1167,2023-10-20 13:25:13.70,86,-22,-2055,46,12,5,-349,64,-413,142
,1168,2023-10-20 13:25:13.71,91,-23,-2047,53,12,3,-291,166,-457,62
,1169,2023-10-20 13:25:13.72,96,-34,-2043,62,18,2,-224,128,-352,48
,1170,2023-10-20 13:25:13.73,92,-49,-2047,65,20,4,-139,236,-375,-48
,1171,2023-10-20 13:25:13.74,92,-70,-2055,69,17,12,-87,185,-272,-49
,1172,2023-10-20 13:25:13.75,90,-62,-2060,72,16,20,16,296,-280,-156
,1173,2023-10-20 13:25:13.76,90,-57,-2059,75,14,28,36,232,-196,-134
,1174,2023-10-20 13:25:13.77,80,-58,-2058,73,11,31,140,348,-208,-244
,1175,2023-10-20 13:25:13.78,83,-43,-2062,69,10,32,119,265,-146,-192
,1176,2023-10-20 13:25:13.79,92,-50,-2058,65,3,30,230,386,-156,-308
,1177,2023-10-20 13:25:13.80,93,-39,-2058,58,2,30,207,308,-101,-257
,1178,2023-10-20 13:25:13.81,77,-41,-2045,47,3,25,331,451,-120,-391
,1179,2023-10-20 13:25:13.82,82,-50,-2057,43,-2,23,270,356,-86,-313
,1180,2023-10-20 13:25:13.83,72,-57,-2051,39,-5,25,389,496,-107,-442
,1181,2023-10-20 13:25:13.84,75,-65,-2048,37,-2,29,311,379,-68,-345
,1182,2023-10-20 13:25:13.85,76,-71,-2041,31,-1,34,450,515,-65,-482
,1183,2023-10-20 13:25:13.86,73,-60,-2048,30,2,41,350,384,-34,-367
,1184,2023-10-20 13:25:13.87,64,-62,-2045,28,6,47,490,520,-30,-505
,1185,2023-10-20 13:25:13.88,61,-91,-2043,31,7,58,377,366,11,-371
,1186,2023-10-20 13:25:13.89,88,-23,-2042,40,0,59,498,476,22,-487
,1187,2023-10-20 13:25:13.90,64,-52,-2048,30,4,49,383,321,62,-352
,1188,2023-10-20 13:25:13.91,76,-33,-2052,31,17,38,553,463,90,-508
,1189,2023-10-20 13:25:13.92,73,-48,-2050,35,19,35,424,331,93,-377
,1190,2023-10-20 13:25:13.93,89,-45,-2041,38,18,34,582,480,102,-531
,1191,2023-10-20 13:25:13.94,69,-59,-2038,43,20,34,430,322,108,-376
,1192,2023-10-20 13:25:13.95,73,-63,-2043,37,29,37,599,475,124,-537
,1193,2023-10-20 13:25:13.96,74,-66,-2040,31,44,44,443,330,113,-386
,1194,2023-10-20 13:25:13.97,76,-64,-2046,35,49,52,621,497,124,-559
,1195,2023-10-20 13:25:13.98,51,-68,-2039,37,54,57,452,346,106,-399
,1196,2023-10-20 13:25:13.99,66,-61,-2041,38,60,61,632,520,112,-576
,1197,2023-10-20 13:25:14.00,58,-49,-2058,40,72,67,460,349,111,-404
,1198,2023-10-20 13:25:14.01,67,-42,-2047,40,68,65,651,503,148,-577
,1199,2023-10-20 13:25:14.02,71,-42,-2044,46,79,59,476,325,151,-400
,1200,2023-10-20 13:25:14.03,62,-59,-2032,55,87,63,667,493,174,-580
,1201,2023-10-20 13:25:14.04,75,-21,-2052,72,85,61,480,339,141,-409
,1202,2023-10-20 13:25:14.05,54,-78,-2046,84,100,60,686,532,154,-609
,1203,2023-10-20 13:25:14.06,65,-111,-2039,105,122,65,488,362,126,-425
,1204,2023-10-20 13:25:14.07,68,-118,-2045,128,139,78,699,554,145,-626
,1205,2023-10-20 13:25:14.08,69,-87,-2025,158,134,86,501,378,123,-439
,1206,2023-10-20 13:25:14.09,86,-112,-2032,178,152,96,757,575,182,-666
,1207,2023-10-20 13:25:14.10,73,-94,-2061,205,169,109,674,301,373,-487
,1208,2023-10-20 13:25:14.11,112,-120,-2027,237,175,109,1276,917,359,-1096
,1209,2023-10-20 13:25:14.12,88,-143,-2011,280,193,105,2047,1951,96,-1999
,1210,2023-10-20 13:25:14.13,113,-81,-2013,313,207,95,2047,2000,47,-2023
,1211,2023-10-20 13:25:14.14,112,-103,-2014,331,238,77,2047,2007,40,-2027
,1212,2023-10-20 13:25:14.15,146,-113,-2018,352,247,52,2047,2005,42,-2026
,1213,2023-10-20 13:25:14.16,172,-169,-1990,365,269,13,2047,2014,33,-2030
,1214,2023-10-20 13:25:14.17,159,-110,-1991,392,302,-21,2047,1991,56,-2019
,1215,2023-10-20 13:25:14.18,158,-183,-1929,421,326,-67,2047,2011,36,-2029
,1216,2023-10-20 13:25:14.19,208,-148,-1989,439,353,-109,2047,2010,37,-2028
,1217,2023-10-20 13:25:14.20,221,-177,-1963,474,358,-151,2047,2011,36,-2029
,1218,2023-10-20 13:25:14.21,218,-203,-1958,514,359,-186,2047,1995,52,-2021
,1219,2023-10-20 13:25:14.22,271,-162,-2024,541,362,-221,2047,1929,118,-1988
,1220,2023-10-20 13:25:14.23,234,-214,-1987,533,392,-249,2047,1945,102,-1996
,1221,2023-10-20 13:25:14.24,253,-219,-1952,550,396,-281,2047,1824,223,-1935
,1222,2023-10-20 13:25:14.25,272,-246,-1949,582,403,-316,2047,1304,743,-1675
,1223,2023-10-20 13:25:14.26,291,-220,-1970,619,393,-348,520,272,248,-396
,1224,2023-10-20 13:25:14.27,292,-256,-2000,629,404,-379,-949,-297,-652,623
,1225,2023-10-20 13:25:14.28,307,-222,-1964,603,423,-409,-730,-465,-265,597
,1226,2023-10-20 13:25:14.29,328,-238,-1973,594,408,-444,-170,-598,428,384
,1227,2023-10-20 13:25:14.30,330,-244,-2001,587,402,-479,-100,-583,483,341
,1228,2023-10-20 13:25:14.31,387,-212,-2008,569,377,-504,-553,-731,178,642
,1229,2023-10-20 13:25:14.32,392,-244,-2037,522,417,-542,-755,-724,-31,739
,1230,2023-10-20 13:25:14.33,394,-175,-2099,433,394,-569,-1004,-869,-135,936
,1231,2023-10-20 13:25:14.34,426,-222,-2090,349,393,-591,-931,-822,-109,876
,1232,2023-10-20 13:25:14.35,393,-234,-2130,321,366,-636,-1022,-930,-92,976
,1233,2023-10-20 13:25:14.36,402,-232,-2126,306,309,-676,-912,-855,-57,883
,1234,2023-10-20 13:25:14.37,389,-228,-2151,276,261,-718,-1035,-956,-79,995
,1235,2023-10-20 13:25:14.38,404,-252,-2159,235,193,-745,-956,-877,-79,916
,1236,2023-10-20 13:25:14.39,415,-245,-2136,175,135,-757,-1073,-950,-123,1011
,1237,2023-10-20 13:25:14.40,418,-243,-2131,123,78,-780,-989,-857,-132,923
,1238,2023-10-20 13:25:14.41,425,-275,-2131,95,14,-797,-1093,-897,-196,995
,1239,2023-10-20 13:25:14.42,433,-269,-2125,93,-70,-806,-1005,-810,-195,907
,1240,2023-10-20 13:25:14.43,429,-281,-2142,75,-153,-808,-1094,-823,-271,958
,1241,2023-10-20 13:25:14.44,421,-315,-2133,66,-229,-805,-996,-739,-257,867
,1242,2023-10-20 13:25:14.45,401,-345,-2128,75,-302,-793,-1052,-719,-333,885
,1243,2023-10-20 13:25:14.46,407,-333,-2127,72,-367,-780,-940,-642,-298,791
,1244,2023-10-20 13:25:14.47,387,-335,-2160,53,-424,-762,-946,-559,-387,752
,1245,2023-10-20 13:25:14.48,370,-338,-2193,44,-496,-728,-63,388,-451,-162
,1246,2023-10-20 13:25:14.49,356,-350,-2152,47,-575,-688,1685,1879,-194,-1782
,1247,2023-10-20 13:25:14.50,335,-332,-2127,62,-653,-665,2047,2021,26,-2034
,1248,2023-10-20 13:25:14.51,334,-307,-2156,84,-726,-646,2047,1881,166,-1964
,1249,2023-10-20 13:25:14.52,293,-301,-2143,81,-775,-636,2047,1034,1013,-1540
,1250,2023-10-20 13:25:14.53,277,-276,-2115,64,-811,-637,2047,550,1497,-1298
,1251,2023-10-20 13:25:14.54,272,-276,-2079,69,-855,-627,-29,96,-125,-33
,1252,2023-10-20 13:25:14.55,219,-326,-2084,93,-912,-623,-921,-9,-912,465
,1253,2023-10-20 13:25:14.56,191,-260,-2088,108,-963,-618,-460,-148,-312,304
,1254,2023-10-20 13:25:14.57,151,-271,-2126,95,-998,-639,336,-182,518,-77
,1255,2023-10-20 13:25:14.58,139,-252,-2107,63,-1021,-656,264,-289,553,12
,1256,2023-10-20 13:25:14.59,131,-260,-2072,32,-1045,-660,9,-319,328,155
,1257,2023-10-20 13:25:14.60,112,-243,-2041,-4,-1058,-677,-315,-364,49,339
,1258,2023-10-20 13:25:14.61,81,-236,-2030,-21,-1067,-706,-379,-353,-26,366
,1259,2023-10-20 13:25:14.62,62,-222,-2034,-35,-1084,-751,-446,-372,-74,409
,1260,2023-10-20 13:25:14.63,74,-159,-1996,-73,-1073,-805,-417,-341,-76,379
,1261,2023-10-20 13:25:14.64,40,-140,-1980,-110,-1053,-870,-470,-355,-115,412
,1262,2023-10-20 13:25:14.65,28,-137,-1967,-161,-1036,-951,-445,-303,-142,374
,1263,2023-10-20 13:25:14.66,30,-142,-1960,-227,-994,-1047,-473,-308,-165,390
,1264,2023-10-20 13:25:14.67,-5,-142,-1990,-281,-965,-1146,-404,-247,-157,325
,1265,2023-10-20 13:25:14.68,-1,-85,-2005,-349,-947,-1221,-411,-258,-153,334
,1266,2023-10-20 13:25:14.69,-26,-108,-2031,-409,-933,-1301,-323,-178,-145,250
,1267,2023-10-20 13:25:14.70,-52,-150,-2028,-468,-924,-1364,-330,-177,-153,253
,1268,2023-10-20 13:25:14.71,-15,-165,-1994,-534,-925,-1400,-229,-83,-146,156
,1269,2023-10-20 13:25:14.72,-72,-135,-1966,-572,-916,-1435,-244,-80,-164,162
,1270,2023-10-20 13:25:14.73,-75,-201,-1971,-599,-908,-1451,-127,29,-156,49
,1271,2023-10-20 13:25:14.74,-65,-238,-2021,-624,-904,-1457,-138,36,-174,51
,1272,2023-10-20 13:25:14.75,-82,-215,-2086,-649,-898,-1433,-6,151,-157,-72
,1273,2023-10-20 13:25:14.76,-115,-264,-2051,-667,-919,-1379,-16,159,-175,-71
,1274,2023-10-20 13:25:14.77,-92,-307,-2035,-667,-923,-1308,132,259,-127,-195
,1275,2023-10-20 13:25:14.78,-185,-350,-2037,-697,-864,-1250,119,256,-137,-187
,1276,2023-10-20 13:25:14.79,-136,-381,-2037,-629,-903,-1147,261,347,-86,-304
,1277,2023-10-20 13:25:14.80,-196,-442,-1992,-556,-890,-1042,218,330,-112,-274
,1278,2023-10-20 13:25:14.81,-285,-486,-2044,-513,-867,-917,344,400,-56,-372
,1279,2023-10-20 13:25:14.82,-261,-466,-1996,-504,-832,-790,296,369,-73,-332
,1280,2023-10-20 13:25:14.83,-298,-364,-2024,-465,-805,-681,418,437,-19,-427
,1281,2023-10-20 13:25:14.84,-307,-382,-2026,-450,-753,-562,355,406,-51,-380
,1282,2023-10-20 13:25:14.85,-379,-369,-2007,-417,-705,-475,451,431,20,-441
,1283,2023-10-20 13:25:14.86,-395,-333,-2016,-365,-699,-380,399,389,10,-394
,1284,2023-10-20 13:25:14.87,-414,-258,-2042,-340,-682,-302,479,406,73,-442
,1285,2023-10-20 13:25:14.88,-400,-222,-2019,-329,-652,-223,426,388,38,-407
,1286,2023-10-20 13:25:14.89,-474,-205,-2012,-296,-639,-163,499,398,101,-448
,1287,2023-10-20 13:25:14.90,-477,-174,-2011,-283,-624,-115,466,390,76,-428
,1288,2023-10-20 13:25:14.91,-487,-118,-1984,-277,-589,-86,527,411,116,-469
,1289,2023-10-20 13:25:14.92,-483,-104,-1945,-287,-560,-53,475,393,82,-434
,1290,2023-10-20 13:25:14.93,-498,-103,-1930,-303,-501,-28,512,372,140,-442
,1291,2023-10-20 13:25:14.94,-488,-99,-1948,-303,-463,-6,506,356,150,-431
,1292,2023-10-20 13:25:14.95,-461,-89,-1884,-294,-439,4,533,356,177,-444
,1293,2023-10-20 13:25:14.96,-526,-91,-1856,-287,-370,0,540,391,149,-465
,1294,2023-10-20 13:25:14.97,-469,-95,-1846,-270,-334,1,547,404,143,-475
,1295,2023-10-20 13:25:14.98,-474,-79,-1797,-248,-275,-8,546,422,124,-484
,1296,2023-10-20 13:25:14.99,-437,-67,-1806,-221,-194,-15,539,384,155,-461
,1297,2023-10-20 13:25:15.00,-444,-68,-1829,-195,-128,-20,568,382,186,-475
,1298,2023-10-20 13:25:15.01,-447,-66,-1855,-167,-81,-12,556,303,253,-429
,1299,2023-10-20 13:25:15.02,-446,-105,-1876,-131,-48,-13,585,289,296,-437
,1300,2023-10-20 13:25:15.03,-439,-78,-1917,-103,-14,-4,565,217,348,-391
,1301,2023-10-20 13:25:15.04,-438,-111,-1932,-109,21,22,600,244,356,-422
,1302,2023-10-20 13:25:15.05,-434,-113,-1940,-123,56,64,566,204,362,-385
,1303,2023-10-20 13:25:15.06,-427,-135,-1970,-106,66,106,617,216,401,-416
,1304,2023-10-20 13:25:15.07,-431,-117,-1956,-101,67,151,570,152,418,-361
,1305,2023-10-20 13:25:15.08,-417,-150,-2001,-100,64,198,623,206,417,-414
,1306,2023-10-20 13:25:15.09,-432,-144,-2017,-80,53,305,560,169,391,-364
,1307,2023-10-20 13:25:15.10,-413,-105,-2048,-95,45,344,638,256,382,-447
,1308,2023-10-20 13:25:15.11,-440,-93,-2028,-113,36,380,581,210,371,-395
,1309,2023-10-20 13:25:15.12,-457,-109,-2016,-117,28,404,664,284,380,-474
,1310,2023-10-20 13:25:15.13,-460,-59,-2033,-140,19,432,604,225,379,-414
,1311,2023-10-20 13:25:15.14,-470,12,-2013,-178,-6,450,707,325,382,-516
,1312,2023-10-20 13:25:15.15,-466,31,-2005,-226,-20,456,655,288,367,-471
,1313,2023-10-20 13:25:15.16,-496,72,-2014,-285,-30,452,782,384,398,-583
,1314,2023-10-20 13:25:15.17,-487,155,-2037,-341,-51,443,690,294,396,-492
,1315,2023-10-20 13:25:15.18,-516,144,-2024,-403,-80,429,800,394,406,-597
,1316,2023-10-20 13:25:15.19,-518,202,-2013,-459,-115,399,684,327,357,-505
,1317,2023-10-20 13:25:15.20,-512,222,-2008,-507,-147,373,798,453,345,-625
,1318,2023-10-20 13:25:15.21,-499,239,-2002,-562,-158,335,682,370,312,-526
,1319,2023-10-20 13:25:15.22,-509,249,-1997,-610,-166,299,829,457,372,-643
,1320,2023-10-20 13:25:15.23,-474,231,-1950,-630,-176,266,763,309,454,-536
,1321,2023-10-20 13:25:15.24,-499,281,-1960,-619,-185,231,944,408,536,-676
,1322,2023-10-20 13:25:15.25,-488,227,-1965,-582,-191,207,798,310,488,-554
,1323,2023-10-20 13:25:15.26,-493,257,-1997,-551,-195,187,927,456,471,-691
,1324,2023-10-20 13:25:15.27,-480,331,-2041,-517,-208,168,742,363,379,-552
,1325,2023-10-20 13:25:15.28,-488,353,-2006,-486,-212,156,876,498,378,-687
,1326,2023-10-20 13:25:15.29,-450,435,-2032,-472,-273,149,684,378,306,-531
,1327,2023-10-20 13:25:15.30,-492,309,-1959,-474,-183,123,848,513,335,-680
,1328,2023-10-20 13:25:15.31,-483,393,-1926,-436,-215,114,696,372,324,-534
,1329,2023-10-20 13:25:15.32,-480,398,-1912,-399,-202,104,875,518,357,-696
,1330,2023-10-20 13:25:15.33,-487,423,-1916,-334,-195,91,705,374,331,-539
,1331,2023-10-20 13:25:15.34,-521,404,-1936,-293,-164,80,872,500,372,-686
,1332,2023-10-20 13:25:15.35,-525,402,-1889,-248,-153,67,709,350,359,-529
,1333,2023-10-20 13:25:15.36,-554,386,-1941,-201,-143,53,907,486,421,-696
,1334,2023-10-20 13:25:15.37,-577,335,-1950,-170,-130,55,740,327,413,-533
,1335,2023-10-20 13:25:15.38,-560,302,-1926,-107,-154,66,920,478,442,-699
,1336,2023-10-20 13:25:15.39,-595,288,-1923,-47,-162,80,668,330,338,-499
,1337,2023-10-20 13:25:15.40,-597,285,-1909,-8,-158,91,820,504,316,-662
,1338,2023-10-20 13:25:15.41,-574,274,-1901,28,-154,99,585,362,223,-473
,1339,2023-10-20 13:25:15.42,-590,286,-1895,51,-131,108,773,524,249,-648
,1340,2023-10-20 13:25:15.43,-598,291,-1919,80,-117,108,539,349,190,-444
,1341,2023-10-20 13:25:15.44,-606,306,-1910,106,-102,107,773,528,245,-650
,1342,2023-10-20 13:25:15.45,-596,301,-1908,118,-81,92,587,345,242,-466
,1343,2023-10-20 13:25:15.46,-593,295,-1904,118,-56,71,824,510,314,-667
,1344,2023-10-20 13:25:15.47,-592,287,-1902,119,-34,48,605,337,268,-471
,1345,2023-10-20 13:25:15.48,-570,266,-1912,121,-13,30,821,518,303,-669
,1346,2023-10-20 13:25:15.49,-561,246,-1921,109,5,23,568,348,220,-458
,1347,2023-10-20 13:25:15.50,-558,233,-1897,97,44,20,787,536,251,-661
,1348,2023-10-20 13:25:15.51,-588,203,-1865,95,68,21,543,355,188,-449
,1349,2023-10-20 13:25:15.52,-613,146,-1906,107,76,29,798,538,260,-668
,1350,2023-10-20 13:25:15.53,-647,105,-1939,153,75,51,590,345,245,-467
,1351,2023-10-20 13:25:15.54,-667,146,-2002,184,43,62,817,540,277,-678
,1352,2023-10-20 13:25:15.55,-670,198,-2004,179,14,66,551,363,188,-457
,1353,2023-10-20 13:25:15.56,-671,238,-2005,127,-9,42,780,534,246,-657
,1354,2023-10-20 13:25:15.57,-660,277,-1975,53,-38,11,554,334,220,-444
,1355,2023-10-20 13:25:15.58,-658,302,-1968,2,-66,-17,818,482,336,-650
,1356,2023-10-20 13:25:15.59,-624,323,-1935,-64,-72,-41,586,284,302,-435
,1357,2023-10-20 13:25:15.60,-640,305,-1923,-142,-42,-61,832,462,370,-647
,1358,2023-10-20 13:25:15.61,-615,318,-1920,-185,-4,-78,564,281,283,-422
,1359,2023-10-20 13:25:15.62,-622,295,-1944,-209,-8,-82,781,482,299,-631
,1360,2023-10-20 13:25:15.63,-640,268,-1932,-228,2,-98,520,319,201,-419
,1361,2023-10-20 13:25:15.64,-585,252,-1929,-224,22,-121,747,535,212,-641
,1362,2023-10-20 13:25:15.65,-566,251,-1869,-218,62,-138,508,363,145,-435
,1363,2023-10-20 13:25:15.66,-571,246,-1884,-199,99,-138,742,565,177,-653
,1364,2023-10-20 13:25:15.67,-541,247,-1899,-149,132,-145,482,369,113,-425
,1365,2023-10-20 13:25:15.68,-525,254,-1883,-98,177,-149,736,549,187,-642
,1366,2023-10-20 13:25:15.69,-492,241,-1896,-45,204,-147,527,341,186,-434
,1367,2023-10-20 13:25:15.70,-486,276,-1897,-12,246,-145,790,505,285,-647
,1368,2023-10-20 13:25:15.71,-470,281,-1923,4,284,-131,567,308,259,-437
,1369,2023-10-20 13:25:15.72,-493,262,-1930,26,307,-114,822,487,335,-654
,1370,2023-10-20 13:25:15.73,-490,233,-1952,74,297,-83,572,302,270,-437
,1371,2023-10-20 13:25:15.74,-481,210,-1920,112,273,-46,803,511,292,-657
,1372,2023-10-20 13:25:15.75,-497,222,-1975,145,246,-8,534,336,198,-435
,1373,2023-10-20 13:25:15.76,-487,211,-1994,163,223,28,752,552,200,-652
,1374,2023-10-20 13:25:15.77,-471,221,-1970,169,195,67,505,377,128,-441
,1375,2023-10-20 13:25:15.78,-456,264,-1975,161,182,94,766,542,224,-654
,1376,2023-10-20 13:25:15.79,-479,244,-1987,160,182,110,560,331,229,-445
,1377,2023-10-20 13:25:15.80,-465,266,-1967,155,161,125,790,518,272,-654
,1378,2023-10-20 13:25:15.81,-459,259,-1978,157,179,138,536,339,197,-437
,1379,2023-10-20 13:25:15.82,-473,222,-2017,162,165,156,761,543,218,-652
,1380,2023-10-20 13:25:15.83,-495,238,-2014,165,158,168,550,359,191,-454
,1381,2023-10-20 13:25:15.84,-465,238,-2008,165,161,170,765,519,246,-642
,1382,2023-10-20 13:25:15.85,-471,255,-1998,156,166,168,547,346,201,-446
,1383,2023-10-20 13:25:15.86,-439,270,-1976,146,170,166,775,499,276,-637
,1384,2023-10-20 13:25:15.87,-427,253,-1958,133,199,158,564,316,248,-440
,1385,2023-10-20 13:25:15.88,-398,283,-1955,129,210,159,771,514,257,-642
,1386,2023-10-20 13:25:15.89,-401,280,-1937,127,243,155,533,360,173,-446
,1387,2023-10-20 13:25:15.90,-403,239,-1930,122,260,156,737,535,202,-636
,1388,2023-10-20 13:25:15.91,-377,260,-1918,125,288,161,543,356,187,-449
,1389,2023-10-20 13:25:15.92,-386,231,-1949,149,314,163,764,502,262,-633
,1390,2023-10-20 13:25:15.93,-369,224,-1924,155,327,181,585,337,248,-461
,1391,2023-10-20 13:25:15.94,-358,185,-1952,169,340,197,794,496,298,-645
,1392,2023-10-20 13:25:15.95,-353,185,-1961,187,342,216,592,346,246,-469
,1393,2023-10-20 13:25:15.96,-350,158,-1963,201,347,238,788,493,295,-640
,1394,2023-10-20 13:25:15.97,-375,155,-1985,237,342,270,610,342,268,-476
,1395,2023-10-20 13:25:15.98,-365,171,-1993,260,319,302,818,478,340,-648
,1396,2023-10-20 13:25:15.99,-377,161,-2020,256,316,319,660,335,325,-497
,1397,2023-10-20 13:25:16.00,-403,137,-2035,252,299,333,822,485,337,-653
,1398,2023-10-20 13:25:16.01,-406,136,-2064,265,277,339,612,356,256,-484
,1399,2023-10-20 13:25:16.02,-423,117,-2081,283,235,352,777,500,277,-638
,1400,2023-10-20 13:25:16.03,-448,131,-2108,289,188,362,617,361,256,-489
,1401,2023-10-20 13:25:16.04,-434,168,-2105,292,143,358,788,490,298,-639
,1402,2023-10-20 13:25:16.05,-451,212,-2103,286,96,341,635,360,275,-497
,1403,2023-10-20 13:25:16.06,-466,216,-2086,268,54,320,767,513,254,-640
,1404,2023-10-20 13:25:16.07,-438,227,-2071,232,2,307,598,401,197,-499
,1405,2023-10-20 13:25:16.08,-440,215,-2072,186,-26,288,726,521,205,-623
,1406,2023-10-20 13:25:16.09,-426,215,-2025,133,-43,269,588,391,197,-489
,1407,2023-10-20 13:25:16.10,-387,213,-1988,75,-26,242,758,480,278,-619
,1408,2023-10-20 13:25:16.11,-359,181,-1964,32,-8,222,653,359,294,-506
,1409,2023-10-20 13:25:16.12,-352,174,-1945,4,30,205,776,474,302,-625
,1410,2023-10-20 13:25:16.13,-332,169,-1918,-15,72,194,642,378,264,-510
,1411,2023-10-20 13:25:16.14,-332,130,-1931,-11,114,186,730,504,226,-617
,1412,2023-10-20 13:25:16.15,-330,128,-1944,4,134,176,603,416,187,-509
,1413,2023-10-20 13:25:16.16,-306,134,-1923,3,168,168,717,515,202,-616
,1414,2023-10-20 13:25:16.17,-306,133,-1934,-15,185,180,634,417,217,-525
,1415,2023-10-20 13:25:16.18,-280,136,-1925,-30,216,197,750,510,240,-630
,1416,2023-10-20 13:25:16.19,-280,114,-1947,-28,233,223,663,422,241,-542
,1417,2023-10-20 13:25:16.20,-250,113,-1957,-18,243,249,743,494,249,-618
,1418,2023-10-20 13:25:16.21,-261,106,-1975,4,241,279,642,415,227,-528
,1419,2023-10-20 13:25:16.22,-258,127,-2001,14,236,307,701,487,214,-594
,1420,2023-10-20 13:25:16.23,-245,128,-2017,15,230,335,619,443,176,-531
,1421,2023-10-20 13:25:16.24,-247,118,-2042,12,220,356,696,511,185,-603
,1422,2023-10-20 13:25:16.25,-246,118,-2054,13,203,379,626,456,170,-541
,1423,2023-10-20 13:25:16.26,-256,127,-2091,25,180,400,696,512,184,-604
,1424,2023-10-20 13:25:16.27,-267,126,-2093,28,150,421,628,455,173,-541
,1425,2023-10-20 13:25:16.28,-272,137,-2126,23,126,436,701,509,192,-605
,1426,2023-10-20 13:25:16.29,-284,147,-2131,21,80,458,678,475,203,-576
,1427,2023-10-20 13:25:16.30,-298,151,-2129,3,45,476,739,517,222,-628
,1428,2023-10-20 13:25:16.31,-280,171,-2100,-10,17,480,705,480,225,-592
,1429,2023-10-20 13:25:16.32,-290,196,-2082,-7,-14,474,742,493,249,-617
,1430,2023-10-20 13:25:16.33,-262,231,-2059,-18,-49,458,708,461,247,-584
,1431,2023-10-20 13:25:16.34,-275,276,-2025,-41,-54,424,727,494,233,-610
,1432,2023-10-20 13:25:16.35,-281,304,-2000,-66,-45,381,709,481,228,-595
,1433,2023-10-20 13:25:16.36,-275,307,-1977,-84,-26,322,741,485,256,-613
,1434,2023-10-20 13:25:16.37,-288,320,-1962,-100,3,262,754,476,278,-615
,1435,2023-10-20 13:25:16.38,-279,322,-1970,-104,25,199,725,492,233,-608
,1436,2023-10-20 13:25:16.39,-277,335,-1981,-105,32,141,705,504,201,-604
,1437,2023-10-20 13:25:16.40,-281,318,-1992,-105,39,89,690,497,193,-593
,1438,2023-10-20 13:25:16.41,-279,309,-1993,-92,27,40,708,498,210,-603
,1439,2023-10-20 13:25:16.42,-276,312,-2003,-91,30,3,673,486,187,-579
,1440,2023-10-20 13:25:16.43,-253,317,-1997,-95,28,-34,692,509,183,-600
,1441,2023-10-20 13:25:16.44,-263,328,-2002,-102,25,-64,682,471,211,-576
,1442,2023-10-20 13:25:16.45,-268,315,-2017,-112,41,-94,745,491,254,-618
,1443,2023-10-20 13:25:16.46,-259,304,-2034,-108,30,-117,709,445,264,-577
,1444,2023-10-20 13:25:16.47,-263,303,-2050,-92,19,-139,756,474,282,-615
,1445,2023-10-20 13:25:16.48,-265,284,-2045,-66,-3,-143,700,424,276,-562
,1446,2023-10-20 13:25:16.49,-260,285,-2052,-47,-21,-143,762,481,281,-621
,1447,2023-10-20 13:25:16.50,-259,282,-2045,-33,-34,-143,672,443,229,-557
,1448,2023-10-20 13:25:16.51,-274,283,-2042,-15,-47,-144,726,526,200,-626
,1449,2023-10-20 13:25:16.52,-266,282,-2016,2,-59,-139,635,476,159,-555
,1450,2023-10-20 13:25:16.53,-285,277,-2028,21,-77,-134,702,540,162,-621
,1451,2023-10-20 13:25:16.54,-292,279,-2034,25,-84,-131,640,458,182,-549
,1452,2023-10-20 13:25:16.55,-288,257,-2034,31,-91,-119,746,516,230,-631
,1453,2023-10-20 13:25:16.56,-296,243,-2019,41,-88,-112,679,421,258,-550
,1454,2023-10-20 13:25:16.57,-314,240,-2029,57,-91,-104,789,487,302,-638
,1455,2023-10-20 13:25:16.58,-309,227,-2021,62,-90,-97,708,371,337,-539
,1456,2023-10-20 13:25:16.59,-310,224,-2006,71,-91,-90,812,466,346,-639
,1457,2023-10-20 13:25:16.60,-296,228,-1994,81,-87,-86,658,404,254,-531
,1458,2023-10-20 13:25:16.61,-311,218,-1965,86,-73,-84,744,527,217,-635
,1459,2023-10-20 13:25:16.62,-298,229,-1976,87,-52,-87,610,438,172,-524
,1460,2023-10-20 13:25:16.63,-290,222,-1976,86,-35,-92,736,539,197,-637
,1461,2023-10-20 13:25:16.64,-298,227,-1990,87,-21,-97,613,426,187,-519
,1462,2023-10-20 13:25:16.65,-302,220,-2005,85,-6,-108,751,544,207,-647
,1463,2023-10-20 13:25:16.66,-310,197,-1999,78,-2,-121,606,431,175,-518
,1464,2023-10-20 13:25:16.67,-323,204,-2019,75,0,-132,733,560,173,-646
,1465,2023-10-20 13:25:16.68,-297,172,-2012,60,-4,-129,578,440,138,-509
,1466,2023-10-20 13:25:16.69,-327,171,-2007,51,2,-122,728,561,167,-644
,1467,2023-10-20 13:25:16.70,-319,165,-1984,62,7,-113,574,424,150,-499
,1468,2023-10-20 13:25:16.71,-339,186,-1984,76,2,-111,737,562,175,-649
,1469,2023-10-20 13:25:16.72,-353,162,-1985,68,6,-115,566,429,137,-497
,1470,2023-10-20 13:25:16.73,-320,178,-1971,46,-1,-120,722,568,154,-645
,1471,2023-10-20 13:25:16.74,-329,170,-1994,24,12,-117,556,416,140,-486
,1472,2023-10-20 13:25:16.75,-312,163,-1984,5,24,-111,738,557,181,-647
,1473,2023-10-20 13:25:16.76,-325,156,-2023,5,40,-113,562,395,167,-478
,1474,2023-10-20 13:25:16.77,-314,172,-2033,-1,46,-109,755,544,211,-649
,1475,2023-10-20 13:25:16.78,-327,162,-2043,-4,49,-112,596,383,213,-489
,1476,2023-10-20 13:25:16.79,-314,165,-2032,-6,45,-112,794,526,268,-660
,1477,2023-10-20 13:25:16.80,-295,167,-2028,-11,46,-111,597,354,243,-475
,1478,2023-10-20 13:25:16.81,-288,168,-2019,-9,54,-107,791,505,286,-648
,1479,2023-10-20 13:25:16.82,-283,161,-2017,2,55,-96,608,345,263,-476
,1480,2023-10-20 13:25:16.83,-271,175,-2019,8,56,-91,816,519,297,-667
,1481,2023-10-20 13:25:16.84,-268,184,-2022,10,52,-90,594,351,243,-472
,1482,2023-10-20 13:25:16.85,-272,200,-2019,5,56,-93,792,552,240,-672
,1483,2023-10-20 13:25:16.86,-267,197,-2017,7,51,-89,572,399,173,-485
,1484,2023-10-20 13:25:16.87,-272,191,-2012,8,39,-88,769,599,170,-684
,1485,2023-10-20 13:25:16.88,-271,185,-2012,15,27,-84,552,430,122,-491
,1486,2023-10-20 13:25:16.89,-263,176,-2020,27,10,-82,776,594,182,-685
,1487,2023-10-20 13:25:16.90,-262,172,-2014,40,0,-78,584,384,200,-484
,1488,2023-10-20 13:25:16.91,-264,170,-2013,52,-9,-76,827,565,262,-696
,1489,2023-10-20 13:25:16.92,-283,170,-2018,54,-11,-67,611,379,232,-495
,1490,2023-10-20 13:25:16.93,-275,152,-2022,57,-17,-52,833,563,270,-698
,1491,2023-10-20 13:25:16.94,-289,155,-2023,62,-26,-33,615,364,251,-489
,1492,2023-10-20 13:25:16.95,-281,151,-2014,56,-28,-20,839,539,300,-689
,1493,2023-10-20 13:25:16.96,-282,163,-2014,48,-29,-9,588,344,244,-466
,1494,2023-10-20 13:25:16.97,-284,166,-2003,43,-21,3,818,541,277,-679
,1495,2023-10-20 13:25:16.98,-277,178,-2007,37,-17,8,580,343,237,-461
,1496,2023-10-20 13:25:16.99,-281,185,-2006,31,-7,11,826,553,273,-689
,1497,2023-10-20 13:25:17.00,-294,179,-2015,29,-1,5,571,369,202,-470
,1498,2023-10-20 13:25:17.01,-299,184,-2019,27,3,4,796,571,225,-683
,1499,2023-10-20 13:25:17.02,-304,177,-2029,25,5,4,541,369,172,-455
,1500,2023-10-20 13:25:17.03,-291,180,-2025,18,1,6,783,566,217,-674
,1501,2023-10-20 13:25:17.04,-308,159,-2023,9,3,15,535,354,181,-444
,1502,2023-10-20 13:25:17.05,-300,165,-2015,5,-2,23,780,560,220,-670
,1503,2023-10-20 13:25:17.06,-293,160,-2020,-1,-4,34,534,364,170,-449
,1504,2023-10-20 13:25:17.07,-306,165,-2019,-7,-6,47,780,555,225,-667
,1505,2023-10-20 13:25:17.08,-297,177,-2008,-19,-1,58,558,351,207,-454
,1506,2023-10-20 13:25:17.09,-305,191,-2010,-28,-4,64,825,546,279,-685
,1507,2023-10-20 13:25:17.10,-297,201,-2009,-40,6,68,586,347,239,-466
,1508,2023-10-20 13:25:17.11,-299,226,-2012,-47,11,60,827,555,272,-691
,1509,2023-10-20 13:25:17.12,-296,227,-2014,-44,9,51,565,360,205,-462
,1510,2023-10-20 13:25:17.13,-301,235,-2026,-44,10,43,803,553,250,-678
,1511,2023-10-20 13:25:17.14,-299,213,-2019,-38,6,34,564,349,215,-456
,1512,2023-10-20 13:25:17.15,-298,207,-2005,-31,-4,29,825,516,309,-670
,1513,2023-10-20 13:25:17.16,-311,212,-2013,-26,-6,24,596,305,291,-450
,1514,2023-10-20 13:25:17.17,-301,212,-2016,-20,-14,22,863,484,379,-673
,1515,2023-10-20 13:25:17.18,-300,218,-2015,-16,-11,21,642,303,339,-472
,1516,2023-10-20 13:25:17.19,-302,214,-2014,-11,-13,23,892,512,380,-702
,1517,2023-10-20 13:25:17.20,-295,234,-2009,-13,-15,22,639,335,304,-487
,1518,2023-10-20 13:25:17.21,-303,237,-2007,-15,-15,17,859,523,336,-691
,1519,2023-10-20 13:25:17.22,-327,236,-2019,-14,-14,10,600,332,268,-466
,1520,2023-10-20 13:25:17.23,-317,243,-2024,-14,-20,3,834,513,321,-673
,1521,2023-10-20 13:25:17.24,-323,253,-2023,-17,-22,-6,579,330,249,-454
,1522,2023-10-20 13:25:17.25,-330,235,-2027,-20,-24,-14,831,491,340,-661
,1523,2023-10-20 13:25:17.26,-321,246,-2017,-22,-25,-19,611,296,315,-453
,1524,2023-10-20 13:25:17.27,-315,235,-2000,-24,-26,-20,872,460,412,-666
,1525,2023-10-20 13:25:17.28,-322,230,-2000,-27,-21,-20,665,293,372,-479
,1526,2023-10-20 13:25:17.29,-321,228,-1998,-17,-16,-14,878,508,370,-693
,1527,2023-10-20 13:25:17.30,-319,227,-1990,-11,-9,-8,599,365,234,-482
,1528,2023-10-20 13:25:17.31,-312,222,-1993,-2,-3,-1,805,574,231,-689
,1529,2023-10-20 13:25:17.32,-301,220,-1999,11,6,5,560,396,164,-478
,1530,2023-10-20 13:25:17.33,-304,211,-1999,21,11,15,788,582,206,-685
,1531,2023-10-20 13:25:17.34,-304,191,-1994,35,18,28,564,405,159,-484
,1532,2023-10-20 13:25:17.35,-288,196,-1975,49,27,38,794,570,224,-682
,1533,2023-10-20 13:25:17.36,-282,195,-1981,61,32,43,585,394,191,-489
,1534,2023-10-20 13:25:17.37,-282,184,-1979,64,49,47,796,582,214,-689
,1535,2023-10-20 13:25:17.38,-259,177,-1974,76,53,54,556,417,139,-486
,1536,2023-10-20 13:25:17.39,-282,179,-1999,91,59,54,765,572,193,-668
,1537,2023-10-20 13:25:17.40,-271,176,-2000,98,60,49,584,408,176,-496
,1538,2023-10-20 13:25:17.41,-263,172,-1995,109,65,46,793,561,232,-677
,1539,2023-10-20 13:25:17.42,-273,137,-2029,117,67,43,582,410,172,-496
,1540,2023-10-20 13:25:17.43,-287,145,-2050,123,58,41,792,554,238,-673
,1541,2023-10-20 13:25:17.44,-283,147,-2064,122,45,43,601,392,209,-496
,1542,2023-10-20 13:25:17.45,-286,146,-2089,119,28,49,796,560,236,-678
,1543,2023-10-20 13:25:17.46,-286,159,-2097,104,8,52,584,423,161,-503
,1544,2023-10-20 13:25:17.47,-282,171,-2077,82,-3,54,804,545,259,-674
,1545,2023-10-20 13:25:17.48,-272,176,-2060,70,-17,54,659,393,266,-526
,1546,2023-10-20 13:25:17.49,-258,182,-2033,57,-26,45,840,503,337,-671
,1547,2023-10-20 13:25:17.50,-235,191,-2010,39,-18,33,629,374,255,-501
,1548,2023-10-20 13:25:17.51,-216,188,-1978,23,-3,29,789,538,251,-663
,1549,2023-10-20 13:25:17.52,-227,206,-1982,19,15,27,600,423,177,-511
,1550,2023-10-20 13:25:17.53,-226,199,-1977,30,27,23,776,546,230,-661
,1551,2023-10-20 13:25:17.54,-231,191,-1976,47,40,14,616,418,198,-517
,1552,2023-10-20 13:25:17.55,-220,173,-1976,69,31,6,789,514,275,-651
,1553,2023-10-20 13:25:17.56,-235,173,-1993,89,37,2,624,398,226,-511
,1554,2023-10-20 13:25:17.57,-239,167,-2008,110,31,-4,776,533,243,-654
,1555,2023-10-20 13:25:17.58,-235,169,-2001,113,28,-10,600,433,167,-516
,1556,2023-10-20 13:25:17.59,-237,168,-2009,111,13,-7,758,527,231,-642
,1557,2023-10-20 13:25:17.60,-240,159,-2016,112,0,-3,623,422,201,-522
,1558,2023-10-20 13:25:17.61,-265,178,-2036,120,-9,-10,771,528,243,-649
,1559,2023-10-20 13:25:17.62,-274,169,-2029,146,-23,-25,632,444,188,-538
,1560,2023-10-20 13:25:17.63,-275,172,-2027,176,-35,-42,787,526,261,-656
,1561,2023-10-20 13:25:17.64,-283,172,-2037,219,-51,-67,662,432,230,-547
,1562,2023-10-20 13:25:17.65,-303,175,-2064,231,-61,-83,797,507,290,-652
,1563,2023-10-20 13:25:17.66,-330,160,-2077,234,-81,-94,678,430,248,-554
,1564,2023-10-20 13:25:17.67,-365,134,-2101,236,-119,-96,784,521,263,-652
,1565,2023-10-20 13:25:17.68,-369,125,-2094,216,-151,-88,668,461,207,-564
,1566,2023-10-20 13:25:17.69,-365,102,-2072,184,-166,-73,784,501,283,-642
,1567,2023-10-20 13:25:17.70,-382,73,-2043,172,-191,-52,688,428,260,-558
,1568,2023-10-20 13:25:17.71,-384,74,-2031,172,-209,-26,796,483,313,-639
,1569,2023-10-20 13:25:17.72,-372,86,-1992,160,-216,-7,706,440,266,-573
,1570,2023-10-20 13:25:17.73,-370,110,-1982,119,-199,3,808,473,335,-640
,1571,2023-10-20 13:25:17.74,-362,124,-1966,80,-177,10,738,426,312,-582
,1572,2023-10-20 13:25:17.75,-350,115,-1951,56,-151,16,822,448,374,-635
,1573,2023-10-20 13:25:17.76,-348,130,-1946,41,-118,16,750,420,330,-585
,1574,2023-10-20 13:25:17.77,-350,121,-1963,26,-90,10,809,469,340,-639
,1575,2023-10-20 13:25:17.78,-344,104,-1975,20,-70,5,725,446,279,-585
,1576,2023-10-20 13:25:17.79,-351,76,-1997,16,-48,10,802,450,352,-626
,1577,2023-10-20 13:25:17.80,-345,64,-1992,2,-31,32,759,416,343,-587
,1578,2023-10-20 13:25:17.81,-333,60,-1995,6,-7,45,809,448,361,-628
,1579,2023-10-20 13:25:17.82,-330,67,-1993,18,0,61,757,463,294,-610
,1580,2023-10-20 13:25:17.83,-332,78,-2012,20,16,85,769,490,279,-629
,1581,2023-10-20 13:25:17.84,-330,100,-2007,22,16,107,704,497,207,-600
,1582,2023-10-20 13:25:17.85,-320,98,-2009,24,26,125,734,487,247,-610
,1583,2023-10-20 13:25:17.86,-324,92,-2006,28,27,142,712,478,234,-595
,1584,2023-10-20 13:25:17.87,-321,114,-2013,27,32,158,731,463,268,-597
,1585,2023-10-20 13:25:17.88,-326,107,-1997,28,39,176,712,486,226,-599
,1586,2023-10-20 13:25:17.89,-315,110,-1999,31,41,192,715,469,246,-592
,1587,2023-10-20 13:25:17.90,-333,119,-1995,26,44,207,712,503,209,-607
,1588,2023-10-20 13:25:17.91,-350,107,-1998,30,42,224,710,475,235,-592
,1589,2023-10-20 13:25:17.92,-340,121,-1998,28,43,238,707,504,203,-605
,1590,2023-10-20 13:25:17.93,-340,130,-1995,19,45,244,702,460,242,-581
,1591,2023-10-20 13:25:17.94,-346,132,-2019,18,41,246,728,497,231,-612
,1592,2023-10-20 13:25:17.95,-361,143,-2009,7,26,251,702,442,260,-572
,1593,2023-10-20 13:25:17.96,-367,161,-2002,-5,22,238,730,495,235,-612
,1594,2023-10-20 13:25:17.97,-371,169,-2010,-16,21,216,686,441,245,-563
,1595,2023-10-20 13:25:17.98,-383,191,-2026,-30,21,189,710,502,208,-606
,1596,2023-10-20 13:25:17.99,-371,175,-2030,-39,22,163,653,452,201,-552
,1597,2023-10-20 13:25:18.00,-370,187,-2024,-47,23,138,702,531,171,-616
,1598,2023-10-20 13:25:18.01,-362,197,-2024,-63,32,109,660,464,196,-562
,1599,2023-10-20 13:25:18.02,-349,192,-2019,-73,40,85,733,547,186,-640
,1600,2023-10-20 13:25:18.03,-350,196,-2022,-80,42,59,660,479,181,-569
,1601,2023-10-20 13:25:18.04,-354,204,-2040,-78,43,36,718,560,158,-639
,1602,2023-10-20 13:25:18.05,-359,207,-2043,-78,44,9,647,461,186,-554
,1603,2023-10-20 13:25:18.06,-318,201,-2008,-85,45,-32,736,535,201,-635
,1604,2023-10-20 13:25:18.07,-307,171,-1986,-92,42,-58,660,426,234,-543
,1605,2023-10-20 13:25:18.08,-330,145,-2011,-94,46,-59,757,530,227,-643
,1606,2023-10-20 13:25:18.09,-338,165,-2052,-87,36,-44,656,440,216,-548
,1607,2023-10-20 13:25:18.10,-349,174,-2059,-71,12,-40,747,539,208,-643
,1608,2023-10-20 13:25:18.11,-355,180,-2058,-69,-8,-48,673,412,261,-542
,1609,2023-10-20 13:25:18.12,-334,174,-2016,-65,-22,-48,800,522,278,-661
,1610,2023-10-20 13:25:18.13,-331,165,-1986,-43,-23,-36,660,423,237,-541
,1611,2023-10-20 13:25:18.14,-331,183,-1998,-27,-20,-29,760,563,197,-661
,1612,2023-10-20 13:25:18.15,-353,188,-2024,-22,-31,-18,624,446,178,-535
,1613,2023-10-20 13:25:18.16,-354,176,-2041,-19,-43,-10,746,577,169,-661
,1614,2023-10-20 13:25:18.17,-360,179,-2021,-11,-43,-6,640,443,197,-541
,1615,2023-10-20 13:25:18.18,-355,180,-2013,0,-44,-1,808,562,246,-685
,1616,2023-10-20 13:25:18.19,-360,181,-1998,19,-43,-4,704,403,301,-553
,1617,2023-10-20 13:25:18.20,-355,164,-1989,42,-49,-5,864,523,341,-693
,1618,2023-10-20 13:25:18.21,-365,161,-1991,55,-40,2,693,354,339,-523
,1619,2023-10-20 13:25:18.22,-357,160,-1991,58,-24,11,843,513,330,-678
,1620,2023-10-20 13:25:18.23,-369,144,-1987,53,-10,26,663,381,282,-522
,1621,2023-10-20 13:25:18.24,-363,140,-1979,48,3,42,813,535,278,-674
,1622,2023-10-20 13:25:18.25,-364,135,-1990,45,17,53,664,382,282,-523
,1623,2023-10-20 13:25:18.26,-361,136,-1995,42,32,65,840,549,291,-694
,1624,2023-10-20 13:25:18.27,-357,131,-1998,42,48,71,651,394,257,-522
,1625,2023-10-20 13:25:18.28,-350,143,-1995,37,63,72,813,568,245,-690
,1626,2023-10-20 13:25:18.29,-343,144,-1996,29,77,76,628,407,221,-517
,1627,2023-10-20 13:25:18.30,-345,136,-2005,16,87,80,812,559,253,-685
,1628,2023-10-20 13:25:18.31,-340,130,-2002,11,98,83,647,369,278,-508
,1629,2023-10-20 13:25:18.32,-353,127,-2013,2,107,82,834,534,300,-684
,1630,2023-10-20 13:25:18.33,-323,133,-2018,-12,114,80,628,377,251,-502
,1631,2023-10-20 13:25:18.34,-326,144,-2013,-18,118,83,809,564,245,-686
,1632,2023-10-20 13:25:18.35,-318,149,-2020,-21,118,83,610,385,225,-497
,1633,2023-10-20 13:25:18.36,-311,164,-2025,-22,115,75,809,567,242,-688
,1634,2023-10-20 13:25:18.37,-304,176,-2007,-26,113,60,606,393,213,-499
,1635,2023-10-20 13:25:18.38,-293,188,-1998,-28,111,44,810,570,240,-690
,1636,2023-10-20 13:25:18.39,-293,179,-2009,-29,111,28,606,378,228,-492
,1637,2023-10-20 13:25:18.40,-291,180,-2015,-19,114,14,826,547,279,-686
,1638,2023-10-20 13:25:18.41,-295,178,-2032,-4,101,1,641,344,297,-492
,1639,2023-10-20 13:25:18.42,-302,195,-2065,-5,97,-18,862,537,325,-699
,1640,2023-10-20 13:25:18.43,-302,195,-2080,-10,76,-34,625,366,259,-495
,1641,2023-10-20 13:25:18.44,-315,199,-2080,-12,50,-48,821,560,261,-690
,1642,2023-10-20 13:25:18.45,-306,208,-2042,-23,36,-61,590,366,224,-478
,1643,2023-10-20 13:25:18.46,-290,200,-2021,-25,21,-66,826,547,279,-686
,1644,2023-10-20 13:25:18.47,-277,196,-2012,-32,14,-65,625,340,285,-482
,1645,2023-10-20 13:25:18.48,-288,181,-2014,-41,9,-52,862,537,325,-699
,1646,2023-10-20 13:25:18.49,-274,179,-2006,-59,11,-33,634,353,281,-493
,1647,2023-10-20 13:25:18.50,-289,164,-1998,-61,9,-9,879,520,359,-699
,1648,2023-10-20 13:25:18.51,-298,178,-1997,-69,21,12,714,310,404,-512
,1649,2023-10-20 13:25:18.52,-296,177,-2019,-57,24,32,970,478,492,-724
,1650,2023-10-20 13:25:18.53,-289,178,-2018,-39,31,39,723,280,443,-501
,1651,2023-10-20 13:25:18.54,-285,178,-1996,-15,37,43,928,502,426,-715
,1652,2023-10-20 13:25:18.55,-279,169,-1991,3,49,48,653,339,314,-496
,1653,2023-10-20 13:25:18.56,-281,165,-2005,12,62,59,888,529,359,-708
,1654,2023-10-20 13:25:18.57,-270,148,-2007,27,68,71,692,324,368,-508
,1655,2023-10-20 13:25:18.58,-257,155,-2008,51,77,84,955,496,459,-725
,1656,2023-10-20 13:25:18.59,-264,154,-2015,72,88,93,735,301,434,-518
,1657,2023-10-20 13:25:18.60,-260,152,-2026,94,90,94,963,482,481,-722
,1658,2023-10-20 13:25:18.61,-257,157,-2031,110,88,100,731,296,435,-513
,1659,2023-10-20 13:25:18.62,-265,139,-2034,112,91,99,947,457,490,-702
,1660,2023-10-20 13:25:18.63,-267,125,-2043,115,87,106,708,284,424,-496
,1661,2023-10-20 13:25:18.64,-269,124,-2038,122,76,113,937,484,453,-710
,1662,2023-10-20 13:25:18.65,-254,130,-2035,116,71,118,676,308,368,-492
,1663,2023-10-20 13:25:18.66,-271,134,-2030,91,73,122,904,514,390,-709
,1664,2023-10-20 13:25:18.67,-252,143,-2022,67,73,121,647,332,315,-489
,1665,2023-10-20 13:25:18.68,-247,150,-2011,53,67,117,889,509,380,-699
,1666,2023-10-20 13:25:18.69,-257,146,-2018,35,66,116,656,316,340,-486
,1667,2023-10-20 13:25:18.70,-256,168,-2027,9,65,108,910,492,418,-701
,1668,2023-10-20 13:25:18.71,-259,164,-2031,-4,56,96,672,307,365,-489
,1669,2023-10-20 13:25:18.72,-251,180,-2007,-17,48,81,896,492,404,-694
,1670,2023-10-20 13:25:18.73,-250,173,-2024,-35,45,60,624,314,310,-469
,1671,2023-10-20 13:25:18.74,-244,180,-2024,-47,35,48,840,512,328,-676
,1672,2023-10-20 13:25:18.75,-246,169,-2039,-56,24,39,587,341,246,-464
,1673,2023-10-20 13:25:18.76,-242,179,-2020,-68,14,33,821,536,285,-678
,1674,2023-10-20 13:25:18.77,-235,173,-2016,-69,10,26,572,363,209,-467
,1675,2023-10-20 13:25:18.78,-236,187,-2019,-69,19,17,814,556,258,-685
,1676,2023-10-20 13:25:18.79,-241,191,-2030,-63,14,14,583,375,208,-479
,1677,2023-10-20 13:25:18.80,-230,182,-2024,-48,9,12,812,538,274,-675
,1678,2023-10-20 13:25:18.81,-240,173,-2036,-34,6,11,578,358,220,-468
,1679,2023-10-20 13:25:18.82,-240,180,-2036,-20,11,11,813,539,274,-676
,1680,2023-10-20 13:25:18.83,-239,167,-2059,2,14,7,579,370,209,-474
,1681,2023-10-20 13:25:18.84,-245,171,-2056,26,13,4,800,553,247,-676
,1682,2023-10-20 13:25:18.85,-236,188,-2037,36,10,1,570,389,181,-479
,1683,2023-10-20 13:25:18.86,-221,188,-2032,38,10,-4,806,557,249,-681
,1684,2023-10-20 13:25:18.87,-231,175,-2043,41,14,0,596,388,208,-492
,1685,2023-10-20 13:25:18.88,-223,160,-2034,45,13,4,821,562,259,-691
,1686,2023-10-20 13:25:18.89,-219,146,-2029,48,12,7,592,408,184,-500
,1687,2023-10-20 13:25:18.90,-215,134,-2015,46,15,14,797,569,228,-683
,1688,2023-10-20 13:25:18.91,-220,130,-2022,47,12,27,592,410,182,-501
,1689,2023-10-20 13:25:18.92,-214,138,-2007,44,14,39,843,534,309,-688
,1690,2023-10-20 13:25:18.93,-207,147,-2001,34,17,46,662,365,297,-513
,1691,2023-10-20 13:25:18.94,-200,154,-2011,28,24,48,874,496,378,-685
,1692,2023-10-20 13:25:18.95,-205,150,-2015,23,20,54,664,358,306,-511
,1693,2023-10-20 13:25:18.96,-215,154,-2028,23,13,57,849,510,339,-679
,1694,2023-10-20 13:25:18.97,-209,130,-2026,27,4,63,638,392,246,-515
,1695,2023-10-20 13:25:18.98,-218,127,-2030,29,-13,69,829,528,301,-678
,1696,2023-10-20 13:25:18.99,-224,121,-2029,34,-19,74,639,393,246,-516
,1697,2023-10-20 13:25:19.00,-236,120,-2038,34,-24,79,868,503,365,-685
,1698,2023-10-20 13:25:19.01,-241,118,-2036,37,-35,87,708,371,337,-539
,1699,2023-10-20 13:25:19.02,-252,129,-2039,51,-44,91,924,483,441,-703
,1700,2023-10-20 13:25:19.03,-270,147,-2048,59,-68,85,763,355,408,-559
,1701,2023-10-20 13:25:19.04,-287,166,-2068,50,-91,76,942,473,469,-707
,1702,2023-10-20 13:25:19.05,-299,182,-2070,34,-108,63,770,369,401,-569
,1703,2023-10-20 13:25:19.06,-290,212,-2072,9,-129,53,910,457,453,-683
,1704,2023-10-20 13:25:19.07,-322,208,-2064,-15,-141,37,732,358,374,-545
,1705,2023-10-20 13:25:19.08,-329,189,-2040,-39,-152,17,864,476,388,-670
,1706,2023-10-20 13:25:19.09,-331,196,-2034,-50,-157,-5,694,407,287,-550
,1707,2023-10-20 13:25:19.10,-332,197,-2011,-59,-154,-30,830,515,315,-672
,1708,2023-10-20 13:25:19.11,-315,207,-1975,-73,-138,-54,684,429,255,-556
,1709,2023-10-20 13:25:19.12,-331,228,-1989,-102,-115,-85,835,487,348,-661
,1710,2023-10-20 13:25:19.13,-335,242,-1991,-108,-109,-105,712,391,321,-551
,1711,2023-10-20 13:25:19.14,-347,249,-2011,-120,-101,-129,816,460,356,-638
,1712,2023-10-20 13:25:19.15,-341,256,-2012,-139,-86,-150,668,401,267,-534
,1713,2023-10-20 13:25:19.16,-360,251,-2003,-138,-95,-163,801,467,334,-634
,1714,2023-10-20 13:25:19.17,-351,249,-2004,-142,-95,-176,695,392,303,-543
,1715,2023-10-20 13:25:19.18,-342,231,-1987,-148,-95,-185,829,409,420,-619
,1716,2023-10-20 13:25:19.19,-355,250,-1978,-148,-93,-190,754,348,406,-551
