// Data mode  : Full
// Data quality  : High
// Acceleration sensor's range  : 16g
// Gyroscope sensor's range  : 2000dps
//
//ARTIFACT,NUM,DATE,ACC_X,ACC_Y,ACC_Z,GYRO_X,GYRO_Y,GYRO_Z,EOG_L,EOG_R,EOG_H,EOG_V
,1,2023-10-27 10:38:33.86,-81,360,-2025,24,0,29,-469,56,-525,206
,2,2023-10-27 10:38:33.87,-74,356,-2019,23,0,30,-280,-77,-203,178
,3,2023-10-27 10:38:33.88,-87,359,-2017,23,-2,27,-477,107,-584,185
,4,2023-10-27 10:38:33.89,-88,365,-2013,22,-4,28,-288,-21,-267,154
,5,2023-10-27 10:38:33.90,-90,359,-2010,21,-5,26,-477,55,-532,211
,6,2023-10-27 10:38:33.91,-90,352,-2006,18,-1,23,-281,-104,-177,192
,7,2023-10-27 10:38:33.92,-97,353,-2010,16,5,24,-472,-20,-452,246
,8,2023-10-27 10:38:33.93,-104,352,-2004,12,8,24,-286,-122,-164,204
,9,2023-10-27 10:38:33.94,-105,352,-2005,12,8,22,-493,35,-528,229
,10,2023-10-27 10:38:33.95,-112,356,-2009,11,9,19,-307,-58,-249,182
,11,2023-10-27 10:38:33.96,-121,364,-2013,7,5,9,-490,121,-611,184
,12,2023-10-27 10:38:33.97,-103,359,-2017,-1,8,3,-298,11,-309,143
,13,2023-10-27 10:38:33.98,-111,355,-2018,-5,16,-3,-488,251,-739,118
,14,2023-10-27 10:38:33.99,-92,364,-2023,-5,25,-3,-296,146,-442,75
,15,2023-10-27 10:38:34.00,-96,354,-2042,-6,30,-4,-483,362,-845,60
,16,2023-10-27 10:38:34.01,-85,360,-2030,-11,28,-8,-300,184,-484,58
,17,2023-10-27 10:38:34.02,-87,363,-2028,-9,33,-7,-482,347,-829,67
,18,2023-10-27 10:38:34.03,-77,366,-2022,-5,31,-10,-302,168,-470,67
,19,2023-10-27 10:38:34.04,-65,363,-2041,-2,39,-9,-487,347,-834,70
,20,2023-10-27 10:38:34.05,-47,371,-2034,3,36,-8,-305,185,-490,60
,21,2023-10-27 10:38:34.06,-54,392,-2018,2,45,-4,-485,354,-839,65
,22,2023-10-27 10:38:34.07,-47,351,-2036,10,47,3,-311,186,-497,62
,23,2023-10-27 10:38:34.08,-73,352,-2021,18,49,13,-486,326,-812,80
,24,2023-10-27 10:38:34.09,-57,349,-1995,31,45,20,-309,156,-465,76
,25,2023-10-27 10:38:34.10,-54,335,-2021,41,31,28,-481,312,-793,84
,26,2023-10-27 10:38:34.11,-64,338,-2022,41,30,35,-307,175,-482,66
,27,2023-10-27 10:38:34.12,-66,350,-2018,50,25,42,-485,332,-817,76
,28,2023-10-27 10:38:34.13,-57,365,-2018,49,29,38,-325,163,-488,81
,29,2023-10-27 10:38:34.14,-68,365,-2016,46,32,35,-490,294,-784,98
,30,2023-10-27 10:38:34.15,-71,365,-2024,46,27,34,-326,171,-497,77
,31,2023-10-27 10:38:34.16,-81,361,-2024,36,27,23,-485,327,-812,79
,32,2023-10-27 10:38:34.17,-88,362,-2029,29,19,11,-319,176,-495,71
,33,2023-10-27 10:38:34.18,-78,374,-2026,17,18,2,-478,306,-784,86
,34,2023-10-27 10:38:34.19,-77,368,-2023,5,13,-7,-324,177,-501,73
,35,2023-10-27 10:38:34.20,-75,374,-2029,1,13,-13,-481,285,-766,98
,36,2023-10-27 10:38:34.21,-70,375,-2027,-1,12,-22,-334,133,-467,100
,37,2023-10-27 10:38:34.22,-83,370,-2019,-3,12,-29,-483,229,-712,127
,38,2023-10-27 10:38:34.23,-62,364,-2026,-4,10,-31,-333,98,-431,117
,39,2023-10-27 10:38:34.24,-60,356,-2023,-7,23,-26,-469,119,-588,175
,40,2023-10-27 10:38:34.25,-65,349,-2017,-5,23,-19,-338,-16,-322,177
,41,2023-10-27 10:38:34.26,-54,352,-2009,-4,25,-10,-481,75,-556,203
,42,2023-10-27 10:38:34.27,-49,360,-2017,6,29,2,-347,27,-374,160
,43,2023-10-27 10:38:34.28,-78,347,-2031,17,29,8,-475,129,-604,173
,44,2023-10-27 10:38:34.29,-56,360,-2019,24,37,16,-347,48,-395,149
,45,2023-10-27 10:38:34.30,-51,369,-2031,27,33,25,-469,142,-611,163
,46,2023-10-27 10:38:34.31,-47,361,-2042,30,31,31,-356,70,-426,143
,47,2023-10-27 10:38:34.32,-49,356,-2029,42,30,37,-472,148,-620,162
,48,2023-10-27 10:38:34.33,-50,359,-2029,51,24,36,-346,71,-417,137
,49,2023-10-27 10:38:34.34,-51,368,-2019,65,18,39,-446,84,-530,181
,50,2023-10-27 10:38:34.35,-63,342,-2029,69,17,47,-348,2,-350,173
,51,2023-10-27 10:38:34.36,-62,321,-2044,76,19,51,-455,85,-540,185
,52,2023-10-27 10:38:34.37,-83,317,-2040,88,20,50,-357,56,-413,150
,53,2023-10-27 10:38:34.38,-67,317,-2036,94,3,58,-455,138,-593,158
,54,2023-10-27 10:38:34.39,-70,324,-2015,94,4,64,-360,93,-453,133
,55,2023-10-27 10:38:34.40,-85,337,-2015,86,-4,60,-450,124,-574,163
,56,2023-10-27 10:38:34.41,-78,336,-2024,75,-1,53,-361,95,-456,133
,57,2023-10-27 10:38:34.42,-87,334,-2013,66,2,54,-441,162,-603,139
,58,2023-10-27 10:38:34.43,-89,335,-2023,57,-1,43,-366,159,-525,103
,59,2023-10-27 10:38:34.44,-88,345,-2017,39,6,36,-438,205,-643,116
,60,2023-10-27 10:38:34.45,-88,342,-2018,27,9,29,-365,180,-545,92
,61,2023-10-27 10:38:34.46,-82,328,-2016,15,7,23,-430,191,-621,119
,62,2023-10-27 10:38:34.47,-79,340,-2008,11,14,18,-371,151,-522,110
,63,2023-10-27 10:38:34.48,-63,336,-2006,10,19,10,-424,169,-593,127
,64,2023-10-27 10:38:34.49,-68,330,-2002,7,41,7,-371,148,-519,111
,65,2023-10-27 10:38:34.50,-70,327,-2009,10,47,-2,-420,151,-571,134
,66,2023-10-27 10:38:34.51,-57,324,-2010,17,53,-2,-375,140,-515,117
,67,2023-10-27 10:38:34.52,-68,323,-2023,24,53,-2,-416,144,-560,136
,68,2023-10-27 10:38:34.53,-48,320,-2027,26,60,1,-381,145,-526,118
,69,2023-10-27 10:38:34.54,-55,322,-2040,29,59,11,-411,153,-564,129
,70,2023-10-27 10:38:34.55,-65,308,-2042,29,54,21,-386,172,-558,107
,71,2023-10-27 10:38:34.56,-44,313,-2038,28,56,32,-405,169,-574,118
,72,2023-10-27 10:38:34.57,-57,326,-2033,32,49,42,-387,192,-579,97
,73,2023-10-27 10:38:34.58,-38,331,-2026,34,48,51,-403,173,-576,115
,74,2023-10-27 10:38:34.59,-26,342,-2025,38,52,57,-396,192,-588,102
,75,2023-10-27 10:38:34.60,-22,352,-2039,40,50,59,-404,162,-566,121
,76,2023-10-27 10:38:34.61,-16,348,-2039,47,51,57,-407,193,-600,107
,77,2023-10-27 10:38:34.62,-14,340,-2037,56,49,58,-399,165,-564,117
,78,2023-10-27 10:38:34.63,-29,335,-2042,62,47,61,-405,200,-605,102
,79,2023-10-27 10:38:34.64,-10,342,-2047,70,39,61,-391,147,-538,122
,80,2023-10-27 10:38:34.65,-28,325,-2044,82,36,62,-407,208,-615,99
,81,2023-10-27 10:38:34.66,-36,336,-2045,86,30,62,-386,164,-550,111
,82,2023-10-27 10:38:34.67,-28,333,-2036,80,23,61,-409,187,-596,111
,83,2023-10-27 10:38:34.68,-37,322,-2017,85,14,63,-379,97,-476,141
,84,2023-10-27 10:38:34.69,-31,331,-2014,94,7,59,-416,139,-555,138
,85,2023-10-27 10:38:34.70,-33,335,-1998,96,-7,56,-381,92,-473,144
,86,2023-10-27 10:38:34.71,-50,315,-2036,100,-12,53,-416,183,-599,116
,87,2023-10-27 10:38:34.72,-38,321,-2032,97,-11,49,-371,115,-486,128
,88,2023-10-27 10:38:34.73,-45,315,-2025,88,-11,52,-422,167,-589,127
,89,2023-10-27 10:38:34.74,-49,325,-2007,76,-6,49,-368,92,-460,138
,90,2023-10-27 10:38:34.75,-55,328,-2012,68,1,48,-418,179,-597,119
,91,2023-10-27 10:38:34.76,-50,325,-2029,57,1,42,-360,95,-455,132
,92,2023-10-27 10:38:34.77,-47,314,-2030,49,11,44,-424,183,-607,120
,93,2023-10-27 10:38:34.78,-52,314,-2031,47,6,38,-359,92,-451,133
,94,2023-10-27 10:38:34.79,-41,326,-2026,41,15,32,-426,210,-636,108
,95,2023-10-27 10:38:34.80,-46,322,-2026,31,17,31,-352,127,-479,112
,96,2023-10-27 10:38:34.81,-40,318,-2030,26,26,26,-438,206,-644,116
,97,2023-10-27 10:38:34.82,-37,318,-2044,28,31,25,-350,100,-450,125
,98,2023-10-27 10:38:34.83,-33,310,-2035,27,37,25,-436,207,-643,114
,99,2023-10-27 10:38:34.84,-30,310,-2040,33,40,26,-345,90,-435,127
,100,2023-10-27 10:38:34.85,-41,301,-2058,36,38,29,-440,201,-641,119
,101,2023-10-27 10:38:34.86,-32,305,-2050,35,39,37,-345,90,-435,127
,102,2023-10-27 10:38:34.87,-20,288,-2046,38,34,41,-446,217,-663,114
,103,2023-10-27 10:38:34.88,-33,282,-2057,44,25,44,-342,100,-442,121
,104,2023-10-27 10:38:34.89,-29,281,-2050,52,14,57,-454,212,-666,121
,105,2023-10-27 10:38:34.90,-21,294,-2056,65,2,70,-342,68,-410,137
,106,2023-10-27 10:38:34.91,-17,293,-2047,74,0,78,-458,181,-639,138
,107,2023-10-27 10:38:34.92,-11,282,-2046,83,-8,87,-344,66,-410,139
,108,2023-10-27 10:38:34.93,-11,303,-2031,89,-10,94,-458,204,-662,127
,109,2023-10-27 10:38:34.94,-9,293,-2036,90,-7,90,-331,71,-402,130
,110,2023-10-27 10:38:34.95,-25,300,-2036,86,-10,90,-457,211,-668,123
,111,2023-10-27 10:38:34.96,-26,287,-2050,86,-17,99,-330,90,-420,120
,112,2023-10-27 10:38:34.97,-52,279,-2049,87,-25,104,-462,242,-704,110
,113,2023-10-27 10:38:34.98,-40,280,-2020,89,-40,115,-328,86,-414,121
,114,2023-10-27 10:38:34.99,-27,259,-2012,94,-48,124,-461,218,-679,121
,115,2023-10-27 10:38:35.00,-33,285,-2011,91,-48,127,-325,62,-387,131
,116,2023-10-27 10:38:35.01,-52,271,-2031,82,-52,134,-467,189,-656,139
,117,2023-10-27 10:38:35.02,-46,294,-2031,75,-45,141,-318,40,-358,139
,118,2023-10-27 10:38:35.03,-56,278,-2030,71,-41,148,-466,185,-651,140
,119,2023-10-27 10:38:35.04,-57,285,-2037,62,-42,152,-319,26,-345,146
,120,2023-10-27 10:38:35.05,-60,294,-2056,52,-35,157,-472,177,-649,147
,121,2023-10-27 10:38:35.06,-58,286,-2051,50,-38,161,-319,37,-356,141
,122,2023-10-27 10:38:35.07,-64,275,-2044,49,-41,168,-476,193,-669,141
,123,2023-10-27 10:38:35.08,-53,294,-2037,51,-49,172,-313,29,-342,142
,124,2023-10-27 10:38:35.09,-52,256,-2032,68,-53,181,-476,165,-641,155
,125,2023-10-27 10:38:35.10,-56,263,-2034,85,-55,185,-309,12,-321,148
,126,2023-10-27 10:38:35.11,-46,249,-2042,99,-52,189,-470,188,-658,141
,127,2023-10-27 10:38:35.12,-44,225,-2085,124,-64,203,-301,28,-329,136
,128,2023-10-27 10:38:35.13,-59,267,-2051,127,-67,212,-470,178,-648,146
,129,2023-10-27 10:38:35.14,-59,261,-2068,130,-73,224,-298,3,-301,147
,130,2023-10-27 10:38:35.15,-50,258,-2070,127,-84,232,-476,136,-612,170
,131,2023-10-27 10:38:35.16,-50,272,-2071,115,-76,244,-295,-15,-280,155
,132,2023-10-27 10:38:35.17,-47,280,-2047,110,-82,253,-477,141,-618,168
,133,2023-10-27 10:38:35.18,-29,282,-2059,95,-81,253,-296,-5,-291,150
,134,2023-10-27 10:38:35.19,-47,296,-2018,79,-76,249,-472,174,-646,149
,135,2023-10-27 10:38:35.20,-38,244,-2039,79,-50,253,-296,27,-323,134
,136,2023-10-27 10:38:35.21,-42,251,-2031,96,-53,247,-482,212,-694,135
,137,2023-10-27 10:38:35.22,-46,250,-2066,128,-68,240,-289,51,-340,119
,138,2023-10-27 10:38:35.23,-41,266,-2044,135,-72,233,-472,254,-726,109
,139,2023-10-27 10:38:35.24,-48,272,-2053,134,-53,224,-282,72,-354,105
,140,2023-10-27 10:38:35.25,-59,251,-2052,124,-54,212,-462,227,-689,117
,141,2023-10-27 10:38:35.26,-52,244,-2046,122,-49,200,-271,53,-324,109
,142,2023-10-27 10:38:35.27,-51,256,-2026,123,-60,195,-468,246,-714,111
,143,2023-10-27 10:38:35.28,-58,262,-2023,116,-51,189,-278,70,-348,104
,144,2023-10-27 10:38:35.29,-72,271,-2039,102,-56,178,-471,248,-719,111
,145,2023-10-27 10:38:35.30,-75,234,-2040,95,-65,181,-278,51,-329,113
,146,2023-10-27 10:38:35.31,-93,214,-2094,99,-79,178,-470,229,-699,120
,147,2023-10-27 10:38:35.32,-80,238,-2028,96,-101,175,-280,60,-340,110
,148,2023-10-27 10:38:35.33,-83,236,-2044,99,-105,183,-474,246,-720,114
,149,2023-10-27 10:38:35.34,-68,240,-2030,93,-100,184,-277,67,-344,105
,150,2023-10-27 10:38:35.35,-74,191,-2035,93,-96,184,-474,248,-722,113
,151,2023-10-27 10:38:35.36,-81,192,-2090,96,-94,180,-279,69,-348,105
,152,2023-10-27 10:38:35.37,-84,225,-1998,93,-91,181,-475,250,-725,112
,153,2023-10-27 10:38:35.38,-91,249,-2029,88,-77,185,-281,72,-353,104
,154,2023-10-27 10:38:35.39,-81,225,-2017,72,-60,181,-477,246,-723,115
,155,2023-10-27 10:38:35.40,-98,223,-2051,66,-54,177,-288,76,-364,106
,156,2023-10-27 10:38:35.41,-99,225,-2055,63,-47,181,-481,249,-730,116
,157,2023-10-27 10:38:35.42,-110,170,-2073,82,-57,183,-285,77,-362,104
,158,2023-10-27 10:38:35.43,-89,180,-2064,89,-69,196,-480,228,-708,126
,159,2023-10-27 10:38:35.44,-89,207,-2021,98,-87,197,-291,45,-336,123
,160,2023-10-27 10:38:35.45,-77,193,-2037,114,-83,190,-479,172,-651,153
,161,2023-10-27 10:38:35.46,-76,211,-2013,109,-73,184,-289,4,-293,142
,162,2023-10-27 10:38:35.47,-74,230,-2011,108,-55,171,-480,114,-594,183
,163,2023-10-27 10:38:35.48,-54,233,-2011,111,-31,157,-290,-42,-248,166
,164,2023-10-27 10:38:35.49,-71,206,-2019,106,-11,130,-481,69,-550,206
,165,2023-10-27 10:38:35.50,-89,192,-2093,110,-8,100,-293,-52,-241,172
,166,2023-10-27 10:38:35.51,-69,242,-2044,107,-3,73,-480,119,-599,180
,167,2023-10-27 10:38:35.52,-70,211,-2060,108,-10,43,-301,-1,-300,151
,168,2023-10-27 10:38:35.53,-67,244,-2061,102,-11,22,-486,103,-589,191
,169,2023-10-27 10:38:35.54,-58,241,-2058,76,-4,-4,-301,-42,-259,171
,170,2023-10-27 10:38:35.55,-60,233,-2048,58,-4,-14,-480,41,-521,219
,171,2023-10-27 10:38:35.56,-74,231,-2042,48,-18,-32,-296,-60,-236,178
,172,2023-10-27 10:38:35.57,-65,245,-2055,40,-25,-46,-473,67,-540,203
,173,2023-10-27 10:38:35.58,-58,250,-2059,24,-35,-51,-303,-54,-249,178
,174,2023-10-27 10:38:35.59,-63,227,-2065,13,-39,-58,-476,85,-561,195
,175,2023-10-27 10:38:35.60,-63,223,-2060,23,-53,-57,-298,-7,-291,152
,176,2023-10-27 10:38:35.61,-59,213,-2040,41,-67,-57,-473,146,-619,163
,177,2023-10-27 10:38:35.62,-84,199,-2031,52,-78,-50,-305,44,-349,130
,178,2023-10-27 10:38:35.63,-80,202,-2045,66,-77,-47,-474,190,-664,142
,179,2023-10-27 10:38:35.64,-82,209,-2043,72,-72,-46,-305,72,-377,116
,180,2023-10-27 10:38:35.65,-79,224,-2036,79,-66,-52,-466,220,-686,123
,181,2023-10-27 10:38:35.66,-89,215,-2033,86,-64,-58,-304,100,-404,102
,182,2023-10-27 10:38:35.67,-98,186,-2031,91,-61,-66,-467,227,-694,120
,183,2023-10-27 10:38:35.68,-110,183,-2025,89,-49,-70,-308,110,-418,99
,184,2023-10-27 10:38:35.69,-116,165,-2031,87,-40,-71,-463,244,-707,109
,185,2023-10-27 10:38:35.70,-115,138,-2032,89,-30,-71,-307,144,-451,81
,186,2023-10-27 10:38:35.71,-119,133,-2034,92,-22,-68,-456,274,-730,91
,187,2023-10-27 10:38:35.72,-117,129,-2038,102,-21,-65,-311,146,-457,82
,188,2023-10-27 10:38:35.73,-113,142,-2037,107,-9,-63,-456,263,-719,96
,189,2023-10-27 10:38:35.74,-112,143,-2041,104,6,-62,-318,168,-486,75
,190,2023-10-27 10:38:35.75,-104,147,-2039,96,17,-65,-454,264,-718,95
,191,2023-10-27 10:38:35.76,-110,158,-2030,84,30,-65,-315,150,-465,82
,192,2023-10-27 10:38:35.77,-105,166,-2040,64,45,-71,-447,251,-698,98
,193,2023-10-27 10:38:35.78,-110,173,-2057,55,45,-74,-323,161,-484,81
,194,2023-10-27 10:38:35.79,-96,166,-2054,43,41,-77,-446,254,-700,96
,195,2023-10-27 10:38:35.80,-97,162,-2062,40,34,-80,-327,162,-489,82
,196,2023-10-27 10:38:35.81,-101,169,-2076,31,31,-85,-445,214,-659,115
,197,2023-10-27 10:38:35.82,-96,185,-2052,11,24,-95,-333,121,-454,106
,198,2023-10-27 10:38:35.83,-98,174,-2049,-4,36,-97,-441,181,-622,130
,199,2023-10-27 10:38:35.84,-89,164,-2071,-6,34,-92,-330,112,-442,109
,200,2023-10-27 10:38:35.85,-100,171,-2063,-4,21,-85,-432,186,-618,123
,201,2023-10-27 10:38:35.86,-90,160,-2068,6,19,-78,-338,123,-461,107
,202,2023-10-27 10:38:35.87,-91,159,-2058,15,6,-68,-432,161,-593,135
,203,2023-10-27 10:38:35.88,-94,145,-2055,27,-5,-60,-345,95,-440,125
,204,2023-10-27 10:38:35.89,-116,138,-2062,40,-18,-46,-434,114,-548,160
,205,2023-10-27 10:38:35.90,-116,141,-2052,58,-25,-36,-348,68,-416,140
,206,2023-10-27 10:38:35.91,-99,130,-2030,74,-33,-29,-425,95,-520,165
,207,2023-10-27 10:38:35.92,-111,139,-2035,82,-33,-21,-351,48,-399,151
,208,2023-10-27 10:38:35.93,-122,138,-2031,80,-34,-15,-417,68,-485,174
,209,2023-10-27 10:38:35.94,-121,131,-2041,80,-27,-8,-351,58,-409,146
,210,2023-10-27 10:38:35.95,-131,141,-2035,75,-19,-4,-414,106,-520,154
,211,2023-10-27 10:38:35.96,-142,134,-2038,70,-19,0,-354,96,-450,129
,212,2023-10-27 10:38:35.97,-141,127,-2038,69,-15,5,-414,95,-509,159
,213,2023-10-27 10:38:35.98,-136,137,-2039,57,-14,6,-365,91,-456,137
,214,2023-10-27 10:38:35.99,-140,126,-2037,51,-16,7,-415,125,-540,145
,215,2023-10-27 10:38:36.00,-149,125,-2032,45,-12,8,-373,130,-503,121
,216,2023-10-27 10:38:36.01,-144,136,-2037,44,-7,9,-415,120,-535,147
,217,2023-10-27 10:38:36.02,-141,121,-2037,43,-3,5,-380,132,-512,124
,218,2023-10-27 10:38:36.03,-133,137,-2034,43,-3,1,-415,135,-550,140
,219,2023-10-27 10:38:36.04,-144,135,-2039,44,1,-1,-390,131,-521,129
,220,2023-10-27 10:38:36.05,-130,142,-2046,46,-5,-11,-408,94,-502,157
,221,2023-10-27 10:38:36.06,-127,140,-2053,40,2,-18,-392,115,-507,138
,222,2023-10-27 10:38:36.07,-135,140,-2038,36,6,-26,-401,106,-507,147
,223,2023-10-27 10:38:36.08,-132,137,-2039,31,4,-29,-390,154,-544,118
,224,2023-10-27 10:38:36.09,-130,130,-2041,29,4,-32,-395,114,-509,140
,225,2023-10-27 10:38:36.10,-134,122,-2054,32,-5,-31,-392,141,-533,125
,226,2023-10-27 10:38:36.11,-122,125,-2055,33,-11,-29,-389,80,-469,154
,227,2023-10-27 10:38:36.12,-140,111,-2067,36,-23,-22,-400,89,-489,155
,228,2023-10-27 10:38:36.13,-125,113,-2068,38,-29,-15,-387,20,-407,183
,229,2023-10-27 10:38:36.14,-134,118,-2060,45,-34,-8,-402,69,-471,166
,230,2023-10-27 10:38:36.15,-116,114,-2054,41,-34,-2,-382,15,-397,183
,231,2023-10-27 10:38:36.16,-136,109,-2056,37,-34,9,-399,69,-468,165
,232,2023-10-27 10:38:36.17,-129,103,-2049,36,-35,13,-371,-23,-348,197
,233,2023-10-27 10:38:36.18,-144,103,-2049,34,-35,26,-406,10,-416,198
,234,2023-10-27 10:38:36.19,-136,106,-2037,29,-32,37,-364,-66,-298,215
,235,2023-10-27 10:38:36.20,-133,101,-2039,30,-35,44,-407,-35,-372,221
,236,2023-10-27 10:38:36.21,-138,105,-2032,24,-37,54,-363,-146,-217,254
,237,2023-10-27 10:38:36.22,-149,97,-2036,26,-35,62,-410,-113,-297,261
,238,2023-10-27 10:38:36.23,-151,104,-2049,26,-36,63,-357,-190,-167,273
,239,2023-10-27 10:38:36.24,-166,112,-2050,24,-33,72,-412,-165,-247,288
,240,2023-10-27 10:38:36.25,-153,105,-2052,14,-33,73,-349,-245,-104,297
,241,2023-10-27 10:38:36.26,-149,115,-2039,13,-34,73,-409,-220,-189,314
,242,2023-10-27 10:38:36.27,-146,118,-2037,9,-31,75,-343,-293,-50,318
,243,2023-10-27 10:38:36.28,-150,118,-2032,8,-29,73,-413,-268,-145,340
,244,2023-10-27 10:38:36.29,-138,133,-2040,11,-23,68,-343,-322,-21,332
,245,2023-10-27 10:38:36.30,-150,121,-2048,10,-24,68,-420,-227,-193,323
,246,2023-10-27 10:38:36.31,-148,128,-2054,14,-19,69,-340,-256,-84,298
,247,2023-10-27 10:38:36.32,-145,126,-2068,12,-27,65,-424,-198,-226,311
,248,2023-10-27 10:38:36.33,-153,130,-2064,7,-32,67,-332,-276,-56,304
,249,2023-10-27 10:38:36.34,-141,128,-2062,11,-43,71,-428,-256,-172,342
,250,2023-10-27 10:38:36.35,-146,144,-2052,12,-49,69,-336,-324,-12,330
,251,2023-10-27 10:38:36.36,-144,152,-2033,12,-46,71,-433,-211,-222,322
,252,2023-10-27 10:38:36.37,-158,153,-2044,14,-43,68,-332,-241,-91,286
,253,2023-10-27 10:38:36.38,-154,157,-2035,16,-42,65,-435,-148,-287,291
,254,2023-10-27 10:38:36.39,-148,148,-2031,17,-36,63,-330,-218,-112,274
,255,2023-10-27 10:38:36.40,-170,149,-2043,13,-35,67,-440,-47,-393,243
,256,2023-10-27 10:38:36.41,-164,145,-2063,16,-41,65,-326,-113,-213,219
,257,2023-10-27 10:38:36.42,-167,150,-2059,19,-44,66,-434,-17,-417,225
,258,2023-10-27 10:38:36.43,-159,163,-2057,23,-42,56,-318,-131,-187,224
,259,2023-10-27 10:38:36.44,-166,170,-2052,20,-40,43,-440,-46,-394,243
,260,2023-10-27 10:38:36.45,-153,182,-2054,15,-38,25,-317,-163,-154,240
,261,2023-10-27 10:38:36.46,-154,167,-2052,13,-32,13,-447,-72,-375,259
,262,2023-10-27 10:38:36.47,-154,160,-2032,17,-25,-1,-315,-181,-134,248
,263,2023-10-27 10:38:36.48,-148,143,-2025,21,-23,-14,-439,-161,-278,300
,264,2023-10-27 10:38:36.49,-149,137,-2021,24,-11,-23,-304,-268,-36,286
,265,2023-10-27 10:38:36.50,-139,128,-2029,31,-10,-29,-447,-132,-315,289
,266,2023-10-27 10:38:36.51,-146,119,-2028,39,-12,-36,-305,-184,-121,244
,267,2023-10-27 10:38:36.52,-148,116,-2037,43,-9,-36,-442,-140,-302,291
,268,2023-10-27 10:38:36.53,-136,120,-2050,46,-13,-37,-292,-256,-36,274
,269,2023-10-27 10:38:36.54,-142,122,-2046,44,-16,-35,-432,-241,-191,336
,270,2023-10-27 10:38:36.55,-146,113,-2052,37,-15,-29,-284,-333,49,308
,271,2023-10-27 10:38:36.56,-152,113,-2051,28,-18,-20,-434,-357,-77,395
,272,2023-10-27 10:38:36.57,-147,109,-2047,20,-21,-12,-283,-408,125,345
,273,2023-10-27 10:38:36.58,-133,101,-2049,15,-21,-5,-442,-362,-80,402
,274,2023-10-27 10:38:36.59,-145,104,-2039,12,-22,1,-281,-387,106,334
,275,2023-10-27 10:38:36.60,-144,108,-2043,12,-25,7,-437,-382,-55,409
,276,2023-10-27 10:38:36.61,-139,112,-2050,12,-29,13,-274,-408,134,341
,277,2023-10-27 10:38:36.62,-161,122,-2052,18,-32,18,-426,-334,-92,380
,278,2023-10-27 10:38:36.63,-145,127,-2053,17,-40,24,-259,-352,93,305
,279,2023-10-27 10:38:36.64,-146,128,-2045,14,-43,28,-426,-329,-97,377
,280,2023-10-27 10:38:36.65,-158,147,-2045,14,-51,25,-259,-384,125,321
,281,2023-10-27 10:38:36.66,-153,147,-2067,9,-54,27,-428,-485,57,456
,282,2023-10-27 10:38:36.67,-162,130,-2069,2,-64,25,-261,-543,282,402
,283,2023-10-27 10:38:36.68,-167,147,-2065,2,-68,24,-418,-636,218,527
,284,2023-10-27 10:38:36.69,-153,158,-2039,-7,-73,20,-243,-605,362,424
,285,2023-10-27 10:38:36.70,-161,156,-2032,-26,-70,13,-410,-549,139,479
,286,2023-10-27 10:38:36.71,-168,146,-2027,-46,-54,8,-241,-482,241,361
,287,2023-10-27 10:38:36.72,-179,154,-2023,-59,-34,7,-420,-436,16,428
,288,2023-10-27 10:38:36.73,-165,143,-2026,-63,-31,4,-252,-422,170,337
,289,2023-10-27 10:38:36.74,-171,149,-2033,-60,-26,3,-431,-378,-53,404
,290,2023-10-27 10:38:36.75,-173,135,-2038,-56,-33,-1,-256,-412,156,334
,291,2023-10-27 10:38:36.76,-181,140,-2023,-52,-29,0,-426,-527,101,476
,292,2023-10-27 10:38:36.77,-179,143,-2018,-53,-28,3,-239,-575,336,407
,293,2023-10-27 10:38:36.78,-166,138,-2022,-59,-21,3,-408,-687,279,547
,294,2023-10-27 10:38:36.79,-177,146,-2038,-55,-17,10,-223,-620,397,421
,295,2023-10-27 10:38:36.80,-154,151,-2032,-51,-14,15,-408,-509,101,458
,296,2023-10-27 10:38:36.81,-159,151,-2015,-51,-18,17,-228,-424,196,326
,297,2023-10-27 10:38:36.82,-153,148,-2011,-59,-8,23,-414,-406,-8,410
,298,2023-10-27 10:38:36.83,-154,135,-2017,-63,-1,32,-236,-443,207,339
,299,2023-10-27 10:38:36.84,-146,128,-2025,-59,3,41,-423,-549,126,486
,300,2023-10-27 10:38:36.85,-141,123,-2036,-51,2,47,-240,-504,264,372
,301,2023-10-27 10:38:36.86,-142,140,-2052,-41,0,51,-422,-395,-27,408
,302,2023-10-27 10:38:36.87,-156,157,-2054,-32,-6,56,-237,-309,72,273
,303,2023-10-27 10:38:36.88,-149,161,-2062,-30,-22,54,-414,-214,-200,314
,304,2023-10-27 10:38:36.89,-147,164,-2063,-28,-27,53,-236,-250,14,243
,305,2023-10-27 10:38:36.90,-152,166,-2064,-27,-36,49,-418,-288,-130,353
,306,2023-10-27 10:38:36.91,-158,172,-2077,-29,-31,43,-251,-374,123,312
,307,2023-10-27 10:38:36.92,-156,179,-2069,-30,-40,38,-433,-480,47,456
,308,2023-10-27 10:38:36.93,-163,177,-2063,-31,-53,25,-253,-462,209,357
,309,2023-10-27 10:38:36.94,-155,165,-2072,-26,-52,20,-430,-398,-32,414
,310,2023-10-27 10:38:36.95,-179,166,-2062,-23,-46,9,-253,-364,111,308
,311,2023-10-27 10:38:36.96,-172,175,-2046,-14,-46,1,-435,-358,-77,396
,312,2023-10-27 10:38:36.97,-179,167,-2036,-1,-43,-12,-265,-425,160,345
,313,2023-10-27 10:38:36.98,-183,168,-2036,3,-42,-21,-440,-548,108,494
,314,2023-10-27 10:38:36.99,-188,152,-2039,5,-38,-26,-262,-567,305,414
,315,2023-10-27 10:38:37.00,-187,150,-2037,12,-36,-24,-431,-606,175,518
,316,2023-10-27 10:38:37.01,-187,148,-2036,22,-39,-26,-247,-540,293,393
,317,2023-10-27 10:38:37.02,-194,159,-2031,28,-40,-24,-415,-504,89,459
,318,2023-10-27 10:38:37.03,-206,161,-2041,35,-48,-23,-248,-456,208,352
,319,2023-10-27 10:38:37.04,-201,169,-2037,33,-48,-23,-421,-449,28,435
,320,2023-10-27 10:38:37.05,-201,176,-2043,29,-49,-29,-261,-420,159,340
,321,2023-10-27 10:38:37.06,-198,170,-2033,22,-48,-34,-428,-410,-18,419
,322,2023-10-27 10:38:37.07,-210,172,-2026,20,-41,-39,-253,-432,179,342
,323,2023-10-27 10:38:37.08,-205,149,-2033,11,-34,-40,-415,-496,81,455
,324,2023-10-27 10:38:37.09,-196,161,-2024,15,-33,-42,-241,-464,223,352
,325,2023-10-27 10:38:37.10,-197,139,-2041,23,-33,-44,-399,-412,13,405
,326,2023-10-27 10:38:37.11,-211,138,-2025,25,-32,-45,-248,-407,159,327
,327,2023-10-27 10:38:37.12,-216,139,-2007,31,-33,-44,-407,-466,59,436
,328,2023-10-27 10:38:37.13,-215,135,-2028,31,-24,-45,-251,-430,179,340
,329,2023-10-27 10:38:37.14,-208,143,-2027,35,-30,-44,-407,-383,-24,395
,330,2023-10-27 10:38:37.15,-220,139,-2041,34,-24,-47,-262,-363,101,312
,331,2023-10-27 10:38:37.16,-216,139,-2026,32,-17,-46,-418,-379,-39,398
,332,2023-10-27 10:38:37.17,-228,138,-2030,32,-13,-50,-261,-361,100,311
,333,2023-10-27 10:38:37.18,-231,145,-2038,28,-8,-54,-389,-342,-47,365
,334,2023-10-27 10:38:37.19,-231,130,-2028,26,-7,-56,-251,-392,141,321
,335,2023-10-27 10:38:37.20,-228,130,-2036,24,-4,-54,-397,-469,72,433
,336,2023-10-27 10:38:37.21,-228,126,-2038,21,-6,-46,-276,-528,252,402
,337,2023-10-27 10:38:37.22,-225,131,-2026,17,-3,-39,-405,-572,167,488
,338,2023-10-27 10:38:37.23,-226,134,-2021,13,-2,-31,-273,-464,191,368
,339,2023-10-27 10:38:37.24,-221,128,-2015,2,2,-15,-395,-354,-41,374
,340,2023-10-27 10:38:37.25,-216,137,-2037,-1,10,-10,-270,-268,-2,269
,341,2023-10-27 10:38:37.26,-214,146,-2037,-4,12,-4,-396,-252,-144,324
,342,2023-10-27 10:38:37.27,-224,158,-2039,-8,14,-5,-271,-380,109,325
,343,2023-10-27 10:38:37.28,-222,168,-2047,-10,14,-5,-386,-520,134,453
,344,2023-10-27 10:38:37.29,-222,172,-2046,-10,11,-11,-276,-424,148,350
,345,2023-10-27 10:38:37.30,-220,158,-2042,-10,4,-17,-390,-304,-86,347
,346,2023-10-27 10:38:37.31,-219,171,-2039,-5,1,-27,-283,-215,-68,249
,347,2023-10-27 10:38:37.32,-206,170,-2031,0,-3,-42,-382,-259,-123,320
,348,2023-10-27 10:38:37.33,-201,178,-2032,4,-3,-56,-278,-380,102,329
,349,2023-10-27 10:38:37.34,-204,176,-2033,12,-1,-74,-375,-491,116,433
,350,2023-10-27 10:38:37.35,-205,161,-2040,19,-1,-90,-273,-472,199,372
,351,2023-10-27 10:38:37.36,-211,159,-2037,26,1,-102,-363,-454,91,408
,352,2023-10-27 10:38:37.37,-216,142,-2046,29,-1,-107,-284,-364,80,324
,353,2023-10-27 10:38:37.38,-222,154,-2041,27,-4,-109,-374,-368,-6,371
,354,2023-10-27 10:38:37.39,-215,123,-2046,21,4,-108,-292,-318,26,305
,355,2023-10-27 10:38:37.40,-221,129,-2038,25,13,-110,-368,-343,-25,355
,356,2023-10-27 10:38:37.41,-211,139,-2011,30,23,-108,-285,-318,33,301
,357,2023-10-27 10:38:37.42,-207,128,-2017,36,35,-119,-352,-351,-1,351
,358,2023-10-27 10:38:37.43,-209,141,-2010,38,49,-121,-291,-292,1,291
,359,2023-10-27 10:38:37.44,-209,131,-2015,44,69,-131,-358,-304,-54,331
,360,2023-10-27 10:38:37.45,-207,131,-2040,54,82,-139,-279,-273,-6,276
,361,2023-10-27 10:38:37.46,-202,141,-2055,59,81,-149,-333,-336,3,334
,362,2023-10-27 10:38:37.47,-199,135,-2045,65,72,-155,-274,-365,91,319
,363,2023-10-27 10:38:37.48,-190,141,-2038,68,69,-169,-327,-431,104,379
,364,2023-10-27 10:38:37.49,-202,153,-2039,71,70,-181,-277,-390,113,333
,365,2023-10-27 10:38:37.50,-208,155,-2040,78,74,-195,-325,-395,70,360
,366,2023-10-27 10:38:37.51,-196,162,-2039,83,63,-211,-272,-353,81,312
,367,2023-10-27 10:38:37.52,-190,175,-2043,85,64,-227,-303,-400,97,351
,368,2023-10-27 10:38:37.53,-194,175,-2045,89,55,-244,-256,-452,196,354
,369,2023-10-27 10:38:37.54,-184,153,-2038,86,59,-257,-293,-520,227,406
,370,2023-10-27 10:38:37.55,-184,164,-2042,89,65,-276,-270,-441,171,355
,371,2023-10-27 10:38:37.56,-191,152,-2020,96,76,-299,-302,-415,113,358
,372,2023-10-27 10:38:37.57,-172,141,-2021,103,88,-315,-288,-349,61,318
,373,2023-10-27 10:38:37.58,-183,138,-2031,114,99,-336,-303,-376,73,339
,374,2023-10-27 10:38:37.59,-168,131,-2054,120,114,-357,-297,-306,9,301
,375,2023-10-27 10:38:37.60,-181,141,-2030,129,131,-369,-313,-351,38,332
,376,2023-10-27 10:38:37.61,-164,103,-2054,129,139,-375,-323,-343,20,333
,377,2023-10-27 10:38:37.62,-187,105,-2075,119,138,-385,-329,-397,68,363
,378,2023-10-27 10:38:37.63,-168,147,-2075,105,148,-393,-324,-378,54,351
,379,2023-10-27 10:38:37.64,-185,92,-2032,105,149,-400,-308,-418,110,363
,380,2023-10-27 10:38:37.65,-191,80,-2046,102,127,-395,-320,-376,56,348
,381,2023-10-27 10:38:37.66,-211,68,-2046,93,111,-389,-305,-405,100,355
,382,2023-10-27 10:38:37.67,-212,68,-2054,88,92,-377,-323,-392,69,357
,383,2023-10-27 10:38:37.68,-206,78,-2047,81,75,-360,-298,-433,135,365
,384,2023-10-27 10:38:37.69,-210,87,-2035,76,49,-355,-329,-371,42,350
,385,2023-10-27 10:38:37.70,-200,89,-2032,62,37,-349,-291,-379,88,335
,386,2023-10-27 10:38:37.71,-211,100,-2033,50,30,-349,-312,-455,143,383
,387,2023-10-27 10:38:37.72,-202,114,-2036,37,38,-348,-273,-525,252,399
,388,2023-10-27 10:38:37.73,-198,124,-2024,23,42,-348,-320,-437,117,378
,389,2023-10-27 10:38:37.74,-208,115,-2034,9,47,-349,-277,-391,114,334
,390,2023-10-27 10:38:37.75,-198,111,-2050,-3,58,-349,-337,-289,-48,313
,391,2023-10-27 10:38:37.76,-194,84,-2056,-18,63,-345,-281,-332,51,306
,392,2023-10-27 10:38:37.77,-206,60,-2065,-17,64,-345,-312,-370,58,341
,393,2023-10-27 10:38:37.78,-180,56,-2045,-9,63,-344,-245,-428,183,336
,394,2023-10-27 10:38:37.79,-197,45,-2059,1,67,-344,-315,-443,128,379
,395,2023-10-27 10:38:37.80,-193,59,-2062,11,77,-343,-253,-458,205,355
,396,2023-10-27 10:38:37.81,-176,61,-2047,21,74,-341,-330,-522,192,426
,397,2023-10-27 10:38:37.82,-194,61,-2034,14,87,-336,-261,-550,289,405
,398,2023-10-27 10:38:37.83,-177,48,-2046,19,79,-331,-334,-589,255,461
,399,2023-10-27 10:38:37.84,-176,59,-2048,16,85,-327,-252,-583,331,417
,400,2023-10-27 10:38:37.85,-181,68,-2042,16,73,-322,-323,-658,335,490
,401,2023-10-27 10:38:37.86,-178,91,-2052,1,74,-324,-238,-632,394,435
,402,2023-10-27 10:38:37.87,-159,83,-2047,-30,82,-320,-343,-666,323,504
,403,2023-10-27 10:38:37.88,-153,80,-2033,-35,99,-313,-258,-626,368,442
,404,2023-10-27 10:38:37.89,-146,105,-2027,-38,123,-310,-370,-626,256,498
,405,2023-10-27 10:38:37.90,-126,67,-2015,-48,139,-314,-260,-587,327,423
,406,2023-10-27 10:38:37.91,-139,61,-2014,-50,166,-311,-335,-687,352,511
,407,2023-10-27 10:38:37.92,-150,66,-2024,-32,151,-306,-231,-679,448,455
,408,2023-10-27 10:38:37.93,-134,44,-2025,-22,145,-298,-350,-764,414,557
,409,2023-10-27 10:38:37.94,-135,31,-2031,-4,123,-286,-250,-696,446,473
,410,2023-10-27 10:38:37.95,-109,55,-2071,17,107,-280,-368,-703,335,535
,411,2023-10-27 10:38:37.96,-112,6,-2042,-2,99,-266,-252,-647,395,449
,412,2023-10-27 10:38:37.97,-101,-18,-2002,-2,127,-250,-393,-757,364,575
,413,2023-10-27 10:38:37.98,-127,-9,-2028,30,133,-239,-281,-737,456,509
,414,2023-10-27 10:38:37.99,-123,-2,-2059,68,124,-230,-431,-843,412,637
,415,2023-10-27 10:38:38.00,-126,14,-2067,92,109,-220,-297,-788,491,542
,416,2023-10-27 10:38:38.01,-147,29,-2092,93,77,-205,-448,-726,278,587
,417,2023-10-27 10:38:38.02,-147,51,-2115,79,65,-198,-308,-633,325,470
,418,2023-10-27 10:38:38.03,-160,70,-2127,67,33,-195,-477,-539,62,508
,419,2023-10-27 10:38:38.04,-164,76,-2127,37,16,-195,-320,-507,187,413
,420,2023-10-27 10:38:38.05,-154,72,-2115,9,0,-204,-484,-324,-160,404
,421,2023-10-27 10:38:38.06,-139,50,-2092,-17,2,-211,-327,-300,-27,313
,422,2023-10-27 10:38:38.07,-136,52,-2065,-37,11,-220,-500,-19,-481,259
,423,2023-10-27 10:38:38.08,-123,56,-2045,-56,13,-231,-353,-32,-321,192
,424,2023-10-27 10:38:38.09,-113,41,-2061,-64,26,-236,-524,214,-738,155
,425,2023-10-27 10:38:38.10,-92,22,-2047,-46,32,-232,-369,120,-489,124
,426,2023-10-27 10:38:38.11,-88,39,-2044,-27,20,-218,-532,362,-894,85
,427,2023-10-27 10:38:38.12,-83,34,-2043,-25,20,-202,-372,235,-607,68
,428,2023-10-27 10:38:38.13,-63,14,-2012,-32,40,-194,-542,452,-994,45
,429,2023-10-27 10:38:38.14,-56,6,-1999,-26,78,-174,-374,276,-650,49
,430,2023-10-27 10:38:38.15,-68,-3,-2006,-9,90,-153,-547,476,-1023,35
,431,2023-10-27 10:38:38.16,-51,28,-2041,21,102,-134,-377,285,-662,46
,432,2023-10-27 10:38:38.17,-43,30,-2026,39,101,-120,-554,496,-1050,29
,433,2023-10-27 10:38:38.18,-70,15,-2052,39,121,-108,-383,301,-684,41
,434,2023-10-27 10:38:38.19,-64,12,-2059,49,107,-81,-557,508,-1065,24
,435,2023-10-27 10:38:38.20,-79,16,-2064,54,90,-64,-376,294,-670,41
,436,2023-10-27 10:38:38.21,-109,17,-2080,55,76,-39,-557,507,-1064,25
,437,2023-10-27 10:38:38.22,-126,27,-2080,57,67,-12,-377,323,-700,27
,438,2023-10-27 10:38:38.23,-134,27,-2083,42,53,8,-558,550,-1108,4
,439,2023-10-27 10:38:38.24,-126,49,-2105,11,38,23,-370,330,-700,20
,440,2023-10-27 10:38:38.25,-118,75,-2102,-22,25,42,-556,535,-1091,10
,441,2023-10-27 10:38:38.26,-103,92,-2065,-47,16,39,-376,322,-698,27
,442,2023-10-27 10:38:38.27,-96,82,-2026,-55,18,37,-558,539,-1097,9
,443,2023-10-27 10:38:38.28,-89,133,-2010,-55,19,30,-368,331,-699,18
,444,2023-10-27 10:38:38.29,-89,122,-2033,-83,41,18,-560,540,-1100,10
,445,2023-10-27 10:38:38.30,-123,62,-2003,-106,142,9,-371,320,-691,25
,446,2023-10-27 10:38:38.31,-110,48,-2021,-59,106,3,-562,524,-1086,19
,447,2023-10-27 10:38:38.32,-128,50,-2053,-42,92,6,-366,310,-676,28
,448,2023-10-27 10:38:38.33,-111,26,-2028,-16,82,13,-552,535,-1087,8
,449,2023-10-27 10:38:38.34,-121,23,-2031,25,70,18,-362,330,-692,16
,450,2023-10-27 10:38:38.35,-101,43,-2020,57,56,23,-557,546,-1103,5
,451,2023-10-27 10:38:38.36,-116,41,-1991,77,43,24,-362,332,-694,15
,452,2023-10-27 10:38:38.37,-90,26,-1998,85,57,29,-559,549,-1108,5
,453,2023-10-27 10:38:38.38,-84,31,-2003,88,76,39,-362,344,-706,9
,454,2023-10-27 10:38:38.39,-107,28,-2025,106,76,44,-554,562,-1116,-4
,455,2023-10-27 10:38:38.40,-107,30,-2044,114,66,46,-365,343,-708,11
,456,2023-10-27 10:38:38.41,-107,37,-2070,99,75,48,-560,557,-1117,1
,457,2023-10-27 10:38:38.42,-105,39,-2068,81,70,50,-368,345,-713,11
,458,2023-10-27 10:38:38.43,-110,65,-2088,56,55,50,-562,547,-1109,7
,459,2023-10-27 10:38:38.44,-129,55,-2084,28,47,49,-373,323,-696,25
,460,2023-10-27 10:38:38.45,-114,74,-2067,-1,32,46,-559,548,-1107,5
,461,2023-10-27 10:38:38.46,-97,73,-2036,-33,44,33,-367,351,-718,8
,462,2023-10-27 10:38:38.47,-97,69,-2029,-63,55,27,-558,567,-1125,-4
,463,2023-10-27 10:38:38.48,-98,64,-2037,-89,81,17,-374,351,-725,11
,464,2023-10-27 10:38:38.49,-85,55,-2038,-105,113,2,-562,549,-1111,6
,465,2023-10-27 10:38:38.50,-89,40,-2041,-107,120,-1,-374,353,-727,10
,466,2023-10-27 10:38:38.51,-76,29,-2047,-95,122,-7,-568,554,-1122,7
,467,2023-10-27 10:38:38.52,-74,12,-2056,-78,125,-3,-385,364,-749,10
,468,2023-10-27 10:38:38.53,-73,7,-2068,-62,122,3,-572,557,-1129,7
,469,2023-10-27 10:38:38.54,-60,23,-2060,-47,114,9,-384,360,-744,12
,470,2023-10-27 10:38:38.55,-60,33,-2088,-29,103,10,-572,560,-1132,6
,471,2023-10-27 10:38:38.56,-50,49,-2074,-17,98,20,-396,372,-768,12
,472,2023-10-27 10:38:38.57,-38,53,-2073,-8,93,14,-583,563,-1146,10
,473,2023-10-27 10:38:38.58,-40,60,-2092,-4,91,3,-404,387,-791,8
,474,2023-10-27 10:38:38.59,-27,67,-2106,-8,78,1,-587,566,-1153,10
,475,2023-10-27 10:38:38.60,-24,64,-2093,-17,82,2,-410,383,-793,13
,476,2023-10-27 10:38:38.61,-31,69,-2101,-23,77,8,-591,566,-1157,12
,477,2023-10-27 10:38:38.62,-23,68,-2088,-27,65,8,-421,397,-818,12
,478,2023-10-27 10:38:38.63,-20,62,-2080,-31,53,20,-592,581,-1173,5
,479,2023-10-27 10:38:38.64,-16,56,-2061,-25,35,33,-429,412,-841,8
,480,2023-10-27 10:38:38.65,-26,60,-2049,-11,18,50,-591,592,-1183,0
,481,2023-10-27 10:38:38.66,-22,58,-2048,1,15,65,-428,435,-863,-3
,482,2023-10-27 10:38:38.67,-14,47,-2052,17,8,83,-593,600,-1193,-3
,483,2023-10-27 10:38:38.68,-22,39,-2053,27,3,104,-434,451,-885,-8
,484,2023-10-27 10:38:38.69,-27,77,-2052,27,6,111,-597,619,-1216,-11
,485,2023-10-27 10:38:38.70,-35,61,-2044,19,25,120,-445,471,-916,-13
,486,2023-10-27 10:38:38.71,-45,70,-2040,29,24,136,-587,617,-1204,-15
,487,2023-10-27 10:38:38.72,-33,74,-2044,28,28,142,-435,464,-899,-14
,488,2023-10-27 10:38:38.73,-46,70,-2048,24,33,150,-585,610,-1195,-12
,489,2023-10-27 10:38:38.74,-27,71,-2063,22,51,154,-448,474,-922,-13
,490,2023-10-27 10:38:38.75,-26,70,-2056,25,60,157,-588,597,-1185,-4
,491,2023-10-27 10:38:38.76,-5,54,-2071,22,66,163,-444,467,-911,-11
,492,2023-10-27 10:38:38.77,-13,68,-2062,25,68,173,-580,599,-1179,-9
,493,2023-10-27 10:38:38.78,-7,57,-2096,30,63,173,-447,482,-929,-17
,494,2023-10-27 10:38:38.79,4,57,-2102,42,56,179,-580,584,-1164,-2
,495,2023-10-27 10:38:38.80,13,13,-2161,70,32,191,-461,452,-913,4
,496,2023-10-27 10:38:38.81,-9,62,-2087,90,7,207,-604,533,-1137,35
,497,2023-10-27 10:38:38.82,18,43,-2104,98,-10,223,-512,405,-917,53
,498,2023-10-27 10:38:38.83,12,32,-2062,88,-11,243,-683,443,-1126,120
,499,2023-10-27 10:38:38.84,56,-12,-2099,92,-30,260,-635,300,-935,167
,500,2023-10-27 10:38:38.85,17,58,-2095,99,-37,266,-814,304,-1118,255
,501,2023-10-27 10:38:38.86,14,83,-2010,103,-41,265,-805,161,-966,322
,502,2023-10-27 10:38:38.87,69,24,-2089,113,-49,256,-935,135,-1070,400
,503,2023-10-27 10:38:38.88,55,81,-2039,117,-55,248,-964,-2,-962,483
,504,2023-10-27 10:38:38.89,21,83,-2020,141,-50,229,-1073,-17,-1056,545
,505,2023-10-27 10:38:38.90,59,12,-2127,163,-47,207,-1185,-135,-1050,660
,506,2023-10-27 10:38:38.91,15,68,-2038,132,-18,198,-1231,-122,-1109,676
,507,2023-10-27 10:38:38.92,36,-6,-2064,125,3,200,-1243,-106,-1137,674
,508,2023-10-27 10:38:38.93,34,-6,-1984,141,20,211,-1209,30,-1239,589
,509,2023-10-27 10:38:38.94,12,24,-2016,193,18,224,-1203,100,-1303,551
,510,2023-10-27 10:38:38.95,11,-16,-2061,204,8,228,-1103,282,-1385,410
,511,2023-10-27 10:38:38.96,10,-1,-2059,181,-2,236,-1051,286,-1337,382
,512,2023-10-27 10:38:38.97,7,-2,-2034,142,12,245,-1036,300,-1336,368
,513,2023-10-27 10:38:38.98,42,41,-2059,142,-5,254,-1077,275,-1352,401
,514,2023-10-27 10:38:38.99,13,-7,-2133,122,-18,257,-1060,309,-1369,375
,515,2023-10-27 10:38:39.00,8,-7,-2133,81,-36,258,-1044,330,-1374,357
,516,2023-10-27 10:38:39.01,-11,-22,-2146,41,-59,272,-895,365,-1260,265
,517,2023-10-27 10:38:39.02,-10,-12,-2089,17,-73,289,-824,390,-1214,217
,518,2023-10-27 10:38:39.03,-22,-58,-1991,1,-66,290,-724,383,-1107,170
,519,2023-10-27 10:38:39.04,21,-11,-2003,28,-72,294,-755,395,-1150,180
,520,2023-10-27 10:38:39.05,53,3,-2081,39,-73,280,-702,363,-1065,169
,521,2023-10-27 10:38:39.06,10,73,-1969,18,-58,275,-728,386,-1114,171
,522,2023-10-27 10:38:39.07,46,27,-2016,26,-50,269,-635,351,-986,142
,523,2023-10-27 10:38:39.08,21,28,-2048,28,-42,264,-642,389,-1031,126
,524,2023-10-27 10:38:39.09,25,12,-2081,32,-55,259,-564,349,-913,107
,525,2023-10-27 10:38:39.10,12,32,-2042,11,-73,250,-605,396,-1001,104
,526,2023-10-27 10:38:39.11,23,27,-2055,1,-42,240,-556,347,-903,104
,527,2023-10-27 10:38:39.12,32,29,-2024,-11,-22,233,-608,395,-1003,106
,528,2023-10-27 10:38:39.13,18,38,-2063,-6,-14,234,-525,343,-868,91
,529,2023-10-27 10:38:39.14,32,18,-2054,2,-15,236,-562,415,-977,73
,530,2023-10-27 10:38:39.15,28,11,-2067,-3,-17,252,-476,342,-818,67
,531,2023-10-27 10:38:39.16,8,7,-2063,-7,-18,268,-529,416,-945,56
,532,2023-10-27 10:38:39.17,-9,-2,-2080,0,-39,294,-446,338,-784,54
,533,2023-10-27 10:38:39.18,-12,16,-2087,0,-58,315,-512,439,-951,36
,534,2023-10-27 10:38:39.19,-14,14,-2090,2,-81,336,-450,358,-808,46
,535,2023-10-27 10:38:39.20,-9,18,-2093,-5,-94,352,-532,443,-975,44
,536,2023-10-27 10:38:39.21,-41,29,-2067,-1,-114,370,-465,345,-810,60
,537,2023-10-27 10:38:39.22,-48,33,-2074,8,-112,373,-550,435,-985,57
,538,2023-10-27 10:38:39.23,-50,33,-2058,10,-129,375,-458,343,-801,57
,539,2023-10-27 10:38:39.24,-72,53,-2022,8,-109,375,-549,444,-993,52
,540,2023-10-27 10:38:39.25,-83,36,-2022,37,-137,383,-457,342,-799,57
,541,2023-10-27 10:38:39.26,-109,30,-2101,53,-136,383,-550,447,-997,51
,542,2023-10-27 10:38:39.27,-99,-11,-2097,39,-121,381,-452,339,-791,56
,543,2023-10-27 10:38:39.28,-126,50,-2026,29,-120,380,-541,455,-996,43
,544,2023-10-27 10:38:39.29,-124,27,-2071,37,-118,377,-444,322,-766,61
,545,2023-10-27 10:38:39.30,-171,30,-2062,20,-84,367,-533,441,-974,46
,546,2023-10-27 10:38:39.31,-146,40,-2057,2,-98,355,-425,312,-737,56
,547,2023-10-27 10:38:39.32,-149,96,-2047,-24,-74,333,-526,450,-976,38
,548,2023-10-27 10:38:39.33,-162,94,-2024,-48,-50,309,-408,318,-726,45
,549,2023-10-27 10:38:39.34,-178,84,-2039,-72,-29,295,-512,479,-991,16
,550,2023-10-27 10:38:39.35,-182,103,-2019,-92,-6,244,-396,339,-735,28
,551,2023-10-27 10:38:39.36,-173,50,-2011,-82,13,226,-506,502,-1008,2
,552,2023-10-27 10:38:39.37,-179,123,-2030,-90,49,208,-389,344,-733,22
,553,2023-10-27 10:38:39.38,-149,122,-2035,-91,22,178,-503,502,-1005,0
,554,2023-10-27 10:38:39.39,-161,114,-2096,-93,30,157,-374,342,-716,16
,555,2023-10-27 10:38:39.40,-125,90,-2075,-85,17,142,-495,501,-996,-3
,556,2023-10-27 10:38:39.41,-114,103,-2051,-79,16,124,-365,323,-688,21
,557,2023-10-27 10:38:39.42,-99,96,-2039,-68,11,101,-498,491,-989,3
,558,2023-10-27 10:38:39.43,-96,110,-2033,-55,15,83,-364,324,-688,20
,559,2023-10-27 10:38:39.44,-77,115,-2041,-53,31,68,-496,512,-1008,-8
,560,2023-10-27 10:38:39.45,-82,116,-2047,-29,35,52,-360,329,-689,15
,561,2023-10-27 10:38:39.46,-62,100,-2058,3,37,43,-495,516,-1011,-10
,562,2023-10-27 10:38:39.47,-59,92,-2044,48,19,39,-354,327,-681,13
,563,2023-10-27 10:38:39.48,-47,83,-2031,103,-3,35,-491,510,-1001,-9
,564,2023-10-27 10:38:39.49,-56,104,-2040,145,-7,25,-345,316,-661,14
,565,2023-10-27 10:38:39.50,-48,94,-2048,173,-8,13,-490,510,-1000,-10
,566,2023-10-27 10:38:39.51,-56,76,-2046,198,-14,8,-337,322,-659,7
,567,2023-10-27 10:38:39.52,-61,79,-2076,217,-20,7,-490,521,-1011,-15
,568,2023-10-27 10:38:39.53,-84,74,-2087,233,-32,1,-341,315,-656,13
,569,2023-10-27 10:38:39.54,-77,84,-2081,224,-51,-6,-500,516,-1016,-8
,570,2023-10-27 10:38:39.55,-84,75,-2105,193,-55,-14,-348,315,-663,16
,571,2023-10-27 10:38:39.56,-85,77,-2095,150,-60,-21,-510,529,-1039,-9
,572,2023-10-27 10:38:39.57,-93,46,-2086,111,-70,-29,-350,325,-675,12
,573,2023-10-27 10:38:39.58,-81,39,-2100,75,-84,-33,-512,543,-1055,-15
,574,2023-10-27 10:38:39.59,-82,35,-2083,43,-96,-39,-353,332,-685,10
,575,2023-10-27 10:38:39.60,-90,40,-2075,-1,-102,-48,-522,535,-1057,-6
,576,2023-10-27 10:38:39.61,-87,23,-2064,-40,-109,-64,-361,310,-671,25
,577,2023-10-27 10:38:39.62,-108,15,-2060,-68,-116,-72,-533,504,-1037,14
,578,2023-10-27 10:38:39.63,-108,7,-2046,-74,-132,-73,-364,276,-640,44
,579,2023-10-27 10:38:39.64,-119,24,-2056,-91,-165,-79,-532,495,-1027,18
,580,2023-10-27 10:38:39.65,-120,29,-2058,-114,-189,-91,-363,285,-648,39
,581,2023-10-27 10:38:39.66,-133,38,-2069,-138,-217,-102,-540,510,-1050,15
,582,2023-10-27 10:38:39.67,-146,65,-2091,-161,-237,-119,-372,273,-645,49
,583,2023-10-27 10:38:39.68,-153,70,-2076,-182,-258,-138,-540,505,-1045,17
,584,2023-10-27 10:38:39.69,-155,51,-2086,-188,-278,-160,-366,276,-642,45
,585,2023-10-27 10:38:39.70,-186,55,-2082,-193,-284,-181,-548,489,-1037,29
,586,2023-10-27 10:38:39.71,-160,52,-2014,-199,-272,-202,-374,267,-641,53
,587,2023-10-27 10:38:39.72,-181,98,-1964,-197,-238,-215,-559,481,-1040,39
,588,2023-10-27 10:38:39.73,-166,60,-1949,-176,-205,-234,-378,260,-638,59
,589,2023-10-27 10:38:39.74,-159,113,-1892,-148,-151,-247,-567,471,-1038,48
,590,2023-10-27 10:38:39.75,-178,146,-1926,-105,-94,-263,-387,245,-632,71
,591,2023-10-27 10:38:39.76,-176,87,-1961,-73,-27,-283,-576,463,-1039,56
,592,2023-10-27 10:38:39.77,-177,79,-1990,-42,38,-282,-382,260,-642,61
,593,2023-10-27 10:38:39.78,-180,83,-1993,-13,104,-277,-555,497,-1052,29
,594,2023-10-27 10:38:39.79,-156,76,-1995,6,150,-258,-365,283,-648,41
,595,2023-10-27 10:38:39.80,-154,86,-2009,17,186,-230,-547,507,-1054,20
,596,2023-10-27 10:38:39.81,-125,100,-2021,34,211,-199,-343,291,-634,26
,597,2023-10-27 10:38:39.82,-111,91,-2032,33,228,-168,-520,525,-1045,-2
,598,2023-10-27 10:38:39.83,-84,25,-2034,30,246,-131,-320,313,-633,3
,599,2023-10-27 10:38:39.84,-64,73,-2049,26,236,-91,-508,524,-1032,-8
,600,2023-10-27 10:38:39.85,-59,53,-2048,16,239,-42,-310,294,-604,8
,601,2023-10-27 10:38:39.86,-58,30,-2055,7,233,-4,-511,510,-1021,0
,602,2023-10-27 10:38:39.87,-46,17,-2066,4,221,41,-326,285,-611,20
,603,2023-10-27 10:38:39.88,-48,-33,-2100,4,201,87,-526,493,-1019,16
,604,2023-10-27 10:38:39.89,-48,-48,-2143,22,153,132,-331,266,-597,32
,605,2023-10-27 10:38:39.90,-63,-27,-2193,47,93,170,-527,475,-1002,26
,606,2023-10-27 10:38:39.91,-60,-31,-2198,69,32,197,-341,277,-618,32
,607,2023-10-27 10:38:39.92,-55,-4,-2175,62,-23,210,-543,503,-1046,20
,608,2023-10-27 10:38:39.93,-54,29,-2109,35,-72,216,-346,310,-656,18
,609,2023-10-27 10:38:39.94,-68,65,-2066,13,-113,217,-543,531,-1074,6
,610,2023-10-27 10:38:39.95,-78,36,-2068,-8,-136,206,-350,331,-681,9
,611,2023-10-27 10:38:39.96,-88,30,-2063,7,-165,187,-550,544,-1094,3
,612,2023-10-27 10:38:39.97,-130,50,-2048,27,-175,163,-368,336,-704,16
,613,2023-10-27 10:38:39.98,-141,55,-2022,49,-164,127,-557,533,-1090,12
,614,2023-10-27 10:38:39.99,-145,53,-1992,84,-148,89,-372,323,-695,24
,615,2023-10-27 10:38:40.00,-177,99,-1969,132,-113,45,-561,511,-1072,25
,616,2023-10-27 10:38:40.01,-210,110,-1963,170,-58,-1,-378,307,-685,35
,617,2023-10-27 10:38:40.02,-219,132,-2001,182,-16,-49,-569,492,-1061,38
,618,2023-10-27 10:38:40.03,-227,130,-2013,174,17,-93,-385,301,-686,42
,619,2023-10-27 10:38:40.04,-231,117,-2037,162,29,-133,-575,504,-1079,35
,620,2023-10-27 10:38:40.05,-224,118,-2042,145,48,-165,-393,329,-722,32
,621,2023-10-27 10:38:40.06,-223,95,-2061,101,73,-191,-575,515,-1090,30
,622,2023-10-27 10:38:40.07,-216,58,-2090,54,72,-198,-393,336,-729,28
,623,2023-10-27 10:38:40.08,-199,76,-2092,9,57,-194,-569,501,-1070,34
,624,2023-10-27 10:38:40.09,-172,79,-2104,-57,32,-188,-390,335,-725,27
,625,2023-10-27 10:38:40.10,-143,62,-2125,-159,32,-192,-567,517,-1084,25
,626,2023-10-27 10:38:40.11,-124,30,-2121,-210,24,-181,-397,363,-760,17
,627,2023-10-27 10:38:40.12,-100,2,-2070,-219,40,-171,-570,535,-1105,17
,628,2023-10-27 10:38:40.13,-68,2,-2036,-193,18,-167,-404,368,-772,18
,629,2023-10-27 10:38:40.14,-70,46,-2036,-151,25,-168,-567,538,-1105,14
,630,2023-10-27 10:38:40.15,-66,80,-2050,-109,35,-173,-409,377,-786,16
,631,2023-10-27 10:38:40.16,-55,101,-2033,-59,34,-174,-570,527,-1097,21
,632,2023-10-27 10:38:40.17,-53,83,-2056,-11,48,-175,-422,361,-783,30
,633,2023-10-27 10:38:40.18,-49,107,-2076,45,56,-170,-575,503,-1078,36
,634,2023-10-27 10:38:40.19,-42,75,-2099,93,45,-155,-428,356,-784,36
,635,2023-10-27 10:38:40.20,-49,92,-2073,121,38,-138,-574,502,-1076,36
,636,2023-10-27 10:38:40.21,-59,80,-2071,136,35,-124,-430,376,-806,27
,637,2023-10-27 10:38:40.22,-63,51,-2072,155,34,-101,-573,503,-1076,35
,638,2023-10-27 10:38:40.23,-49,41,-2051,183,14,-77,-436,361,-797,37
,639,2023-10-27 10:38:40.24,-67,9,-2066,214,-10,-47,-572,494,-1066,39
,640,2023-10-27 10:38:40.25,-70,-17,-2074,248,-47,-15,-440,372,-812,34
,641,2023-10-27 10:38:40.26,-82,7,-2076,259,-86,8,-561,488,-1049,36
,642,2023-10-27 10:38:40.27,-85,-12,-2046,261,-108,28,-434,378,-812,28
,643,2023-10-27 10:38:40.28,-95,-21,-2032,263,-132,54,-551,483,-1034,34
,644,2023-10-27 10:38:40.29,-103,-33,-2053,254,-152,71,-428,381,-809,23
,645,2023-10-27 10:38:40.30,-127,-50,-2032,250,-169,87,-543,492,-1035,25
,646,2023-10-27 10:38:40.31,-139,-44,-2043,259,-189,98,-432,413,-845,9
,647,2023-10-27 10:38:40.32,-164,-43,-2023,258,-213,106,-538,498,-1036,20
,648,2023-10-27 10:38:40.33,-168,-33,-2031,252,-214,103,-438,392,-830,23
,649,2023-10-27 10:38:40.34,-185,-34,-2047,235,-226,101,-536,473,-1009,31
,650,2023-10-27 10:38:40.35,-205,-39,-2047,217,-236,100,-446,399,-845,23
,651,2023-10-27 10:38:40.36,-209,-36,-2029,195,-256,97,-540,481,-1021,29
,652,2023-10-27 10:38:40.37,-219,-26,-2012,160,-262,92,-452,425,-877,13
,653,2023-10-27 10:38:40.38,-240,-18,-2039,126,-250,87,-537,488,-1025,24
,654,2023-10-27 10:38:40.39,-238,-40,-2037,101,-251,78,-461,419,-880,21
,655,2023-10-27 10:38:40.40,-240,-56,-2031,76,-240,69,-536,470,-1006,33
,656,2023-10-27 10:38:40.41,-244,-64,-2034,46,-221,60,-465,413,-878,26
,657,2023-10-27 10:38:40.42,-234,-56,-2025,30,-205,40,-533,466,-999,33
,658,2023-10-27 10:38:40.43,-233,-45,-2022,21,-176,22,-473,426,-899,23
,659,2023-10-27 10:38:40.44,-251,-55,-2035,14,-150,2,-534,479,-1013,27
,660,2023-10-27 10:38:40.45,-252,-72,-2023,15,-128,-12,-477,451,-928,13
,661,2023-10-27 10:38:40.46,-251,-80,-2031,19,-113,-22,-522,484,-1006,19
,662,2023-10-27 10:38:40.47,-233,-93,-2050,24,-103,-16,-480,437,-917,21
,663,2023-10-27 10:38:40.48,-228,-82,-2035,12,-93,-14,-524,462,-986,31
,664,2023-10-27 10:38:40.49,-231,-87,-2028,-1,-67,-9,-489,425,-914,32
,665,2023-10-27 10:38:40.50,-208,-82,-2014,-11,-39,0,-516,473,-989,21
,666,2023-10-27 10:38:40.51,-219,-67,-1991,-21,-7,9,-485,468,-953,8
,667,2023-10-27 10:38:40.52,-213,-84,-1996,-29,28,23,-512,471,-983,20
,668,2023-10-27 10:38:40.53,-201,-77,-1992,-29,55,29,-487,473,-960,7
,669,2023-10-27 10:38:40.54,-217,-73,-2008,-22,67,38,-506,467,-973,19
,670,2023-10-27 10:38:40.55,-228,-72,-2011,-26,70,47,-493,475,-968,9
,671,2023-10-27 10:38:40.56,-213,-71,-2015,-29,69,57,-504,459,-963,22
,672,2023-10-27 10:38:40.57,-230,-73,-2045,-34,51,74,-496,478,-974,9
,673,2023-10-27 10:38:40.58,-239,-72,-2043,-51,35,85,-497,474,-971,11
,674,2023-10-27 10:38:40.59,-244,-51,-2026,-72,18,101,-497,499,-996,-1
,675,2023-10-27 10:38:40.60,-239,-44,-2055,-75,1,114,-490,463,-953,13
,676,2023-10-27 10:38:40.61,-242,-27,-2064,-79,-20,121,-502,481,-983,10
,677,2023-10-27 10:38:40.62,-248,-7,-2076,-80,-43,119,-483,428,-911,27
,678,2023-10-27 10:38:40.63,-249,-7,-2074,-102,-65,112,-494,448,-942,23
,679,2023-10-27 10:38:40.64,-257,-13,-2052,-130,-80,102,-462,395,-857,33
,680,2023-10-27 10:38:40.65,-258,15,-2062,-157,-91,101,-496,444,-940,26
,681,2023-10-27 10:38:40.66,-249,21,-2060,-175,-95,95,-488,401,-889,43
,682,2023-10-27 10:38:40.67,-248,46,-2055,-190,-96,80,-555,493,-1048,31
,683,2023-10-27 10:38:40.68,-255,52,-2044,-205,-81,63,-535,465,-1000,35
,684,2023-10-27 10:38:40.69,-265,59,-2055,-217,-68,58,-581,546,-1127,17
,685,2023-10-27 10:38:40.70,-275,79,-2035,-228,-54,45,-526,471,-997,27
,686,2023-10-27 10:38:40.71,-257,31,-2043,-238,-40,36,-571,546,-1117,12
,687,2023-10-27 10:38:40.72,-267,23,-2050,-256,-9,46,-510,457,-967,26
,688,2023-10-27 10:38:40.73,-264,15,-2031,-250,14,59,-563,545,-1108,9
,689,2023-10-27 10:38:40.74,-238,0,-1999,-231,29,76,-489,456,-945,16
,690,2023-10-27 10:38:40.75,-223,-13,-1973,-218,56,97,-549,555,-1104,-3
,691,2023-10-27 10:38:40.76,-220,16,-1984,-188,80,120,-470,461,-931,4
,692,2023-10-27 10:38:40.77,-202,5,-1984,-154,107,141,-546,562,-1108,-8
,693,2023-10-27 10:38:40.78,-215,-6,-1999,-126,128,164,-464,451,-915,6
,694,2023-10-27 10:38:40.79,-204,17,-2009,-97,146,180,-542,567,-1109,-12
,695,2023-10-27 10:38:40.80,-206,27,-2014,-62,152,200,-450,460,-910,-5
,696,2023-10-27 10:38:40.81,-202,29,-2025,-34,160,208,-532,587,-1119,-27
,697,2023-10-27 10:38:40.82,-206,29,-2044,-15,154,216,-426,472,-898,-23
,698,2023-10-27 10:38:40.83,-196,30,-2070,5,143,225,-513,598,-1111,-42
,699,2023-10-27 10:38:40.84,-191,40,-2056,29,114,232,-405,447,-852,-21
,700,2023-10-27 10:38:40.85,-208,62,-2055,39,93,229,-507,571,-1078,-32
,701,2023-10-27 10:38:40.86,-184,59,-2057,41,77,222,-395,450,-845,-27
,702,2023-10-27 10:38:40.87,-188,55,-2060,45,63,214,-500,614,-1114,-57
,703,2023-10-27 10:38:40.88,-170,61,-2062,45,48,206,-387,453,-840,-33
,704,2023-10-27 10:38:40.89,-174,60,-2057,47,33,195,-502,598,-1100,-48
,705,2023-10-27 10:38:40.90,-166,57,-2042,39,22,184,-383,415,-798,-16
,706,2023-10-27 10:38:40.91,-176,46,-2053,32,5,178,-504,576,-1080,-36
,707,2023-10-27 10:38:40.92,-183,44,-2062,27,-13,169,-384,403,-787,-9
,708,2023-10-27 10:38:40.93,-189,47,-2057,25,-27,161,-516,556,-1072,-20
,709,2023-10-27 10:38:40.94,-206,44,-2073,15,-50,156,-380,392,-772,-6
,710,2023-10-27 10:38:40.95,-223,39,-2084,4,-82,157,-513,554,-1067,-20
,711,2023-10-27 10:38:40.96,-225,44,-2104,-17,-107,167,-381,376,-757,2
,712,2023-10-27 10:38:40.97,-222,91,-2087,-41,-129,166,-528,542,-1070,-7
,713,2023-10-27 10:38:40.98,-227,71,-2090,-67,-141,159,-384,364,-748,10
,714,2023-10-27 10:38:40.99,-235,68,-2094,-101,-146,155,-529,541,-1070,-6
,715,2023-10-27 10:38:41.00,-252,103,-2064,-141,-141,149,-385,352,-737,16
,716,2023-10-27 10:38:41.01,-221,96,-2064,-186,-138,141,-536,524,-1060,6
,717,2023-10-27 10:38:41.02,-242,130,-2048,-216,-120,126,-397,321,-718,38
,718,2023-10-27 10:38:41.03,-259,115,-2016,-225,-121,116,-554,505,-1059,24
,719,2023-10-27 10:38:41.04,-255,122,-2020,-239,-106,99,-399,323,-722,38
,720,2023-10-27 10:38:41.05,-241,151,-2036,-253,-80,86,-554,521,-1075,16
,721,2023-10-27 10:38:41.06,-246,132,-2019,-254,-63,87,-398,344,-742,27
,722,2023-10-27 10:38:41.07,-221,133,-2008,-237,-49,71,-561,536,-1097,12
,723,2023-10-27 10:38:41.08,-223,165,-2006,-243,-23,61,-387,320,-707,33
,724,2023-10-27 10:38:41.09,-203,151,-1999,-254,10,57,-556,524,-1080,16
,725,2023-10-27 10:38:41.10,-194,140,-2001,-228,40,59,-394,352,-746,21
,726,2023-10-27 10:38:41.11,-170,139,-1998,-206,64,63,-565,581,-1146,-8
,727,2023-10-27 10:38:41.12,-175,146,-1990,-193,95,68,-390,369,-759,10
,728,2023-10-27 10:38:41.13,-161,155,-2000,-164,118,69,-564,560,-1124,2
,729,2023-10-27 10:38:41.14,-169,183,-2001,-137,134,83,-384,343,-727,20
,730,2023-10-27 10:38:41.15,-156,185,-1990,-109,155,87,-569,554,-1123,7
,731,2023-10-27 10:38:41.16,-123,144,-2027,-83,179,94,-390,361,-751,14
,732,2023-10-27 10:38:41.17,-136,165,-2021,-58,181,108,-576,580,-1156,-2
,733,2023-10-27 10:38:41.18,-130,192,-2021,-28,168,120,-395,359,-754,18
,734,2023-10-27 10:38:41.19,-121,158,-2025,-10,169,132,-580,569,-1149,5
,735,2023-10-27 10:38:41.20,-117,153,-2013,1,165,142,-397,350,-747,23
,736,2023-10-27 10:38:41.21,-110,139,-2037,18,161,157,-580,567,-1147,6
,737,2023-10-27 10:38:41.22,-114,129,-2066,41,140,170,-393,360,-753,16
,738,2023-10-27 10:38:41.23,-132,119,-2062,67,99,185,-581,568,-1149,6
,739,2023-10-27 10:38:41.24,-138,148,-2073,79,76,197,-390,347,-737,21
,740,2023-10-27 10:38:41.25,-144,127,-2069,86,45,203,-579,564,-1143,7
,741,2023-10-27 10:38:41.26,-145,140,-2077,86,30,211,-392,351,-743,20
,742,2023-10-27 10:38:41.27,-155,157,-2062,74,6,210,-578,562,-1140,8
,743,2023-10-27 10:38:41.28,-153,154,-2070,60,-8,214,-380,334,-714,23
,744,2023-10-27 10:38:41.29,-163,171,-2075,58,-41,212,-576,529,-1105,23
,745,2023-10-27 10:38:41.30,-181,198,-2083,50,-73,201,-386,321,-707,32
,746,2023-10-27 10:38:41.31,-195,200,-2076,35,-94,183,-577,536,-1113,20
,747,2023-10-27 10:38:41.32,-204,188,-2078,23,-107,170,-386,336,-722,25
,748,2023-10-27 10:38:41.33,-200,185,-2084,-1,-122,150,-580,544,-1124,18
,749,2023-10-27 10:38:41.34,-212,185,-2061,-31,-135,136,-389,300,-689,44
,750,2023-10-27 10:38:41.35,-229,201,-2068,-55,-139,120,-578,522,-1100,28
,751,2023-10-27 10:38:41.36,-232,211,-2057,-70,-141,95,-390,313,-703,38
,752,2023-10-27 10:38:41.37,-226,215,-2043,-89,-130,66,-578,534,-1112,22
,753,2023-10-27 10:38:41.38,-231,216,-2045,-111,-113,42,-390,312,-702,39
,754,2023-10-27 10:38:41.39,-228,232,-2031,-109,-110,10,-583,516,-1099,33
,755,2023-10-27 10:38:41.40,-232,227,-2026,-103,-94,-21,-392,306,-698,43
,756,2023-10-27 10:38:41.41,-235,222,-2004,-102,-72,-43,-582,523,-1105,29
,757,2023-10-27 10:38:41.42,-235,189,-2009,-84,-56,-55,-390,323,-713,33
,758,2023-10-27 10:38:41.43,-223,177,-2024,-54,-45,-58,-579,542,-1121,18
,759,2023-10-27 10:38:41.44,-222,177,-2012,-39,-28,-59,-396,328,-724,34
,760,2023-10-27 10:38:41.45,-216,178,-1994,-23,-15,-57,-583,529,-1112,27
,761,2023-10-27 10:38:41.46,-218,175,-2005,12,8,-44,-401,325,-726,38
,762,2023-10-27 10:38:41.47,-213,172,-2017,25,21,-33,-588,530,-1118,29
,763,2023-10-27 10:38:41.48,-197,175,-2020,40,24,-22,-406,331,-737,37
,764,2023-10-27 10:38:41.49,-192,165,-2034,55,28,-11,-591,529,-1120,31
,765,2023-10-27 10:38:41.50,-184,162,-2028,62,27,0,-404,332,-736,36
,766,2023-10-27 10:38:41.51,-173,152,-2012,76,41,8,-585,534,-1119,25
,767,2023-10-27 10:38:41.52,-156,125,-2004,91,54,12,-409,332,-741,38
,768,2023-10-27 10:38:41.53,-142,89,-1969,125,71,13,-586,526,-1112,30
,769,2023-10-27 10:38:41.54,-123,86,-1985,168,102,19,-410,321,-731,44
,770,2023-10-27 10:38:41.55,-142,87,-2017,198,120,21,-575,500,-1075,37
,771,2023-10-27 10:38:41.56,-146,80,-2034,215,120,24,-404,307,-711,48
,772,2023-10-27 10:38:41.57,-158,64,-2038,229,109,28,-582,494,-1076,44
,773,2023-10-27 10:38:41.58,-163,76,-2059,227,100,36,-426,322,-748,52
,774,2023-10-27 10:38:41.59,-183,54,-2061,218,104,43,-596,500,-1096,48
,775,2023-10-27 10:38:41.60,-191,66,-2068,213,110,53,-424,320,-744,52
,776,2023-10-27 10:38:41.61,-198,81,-2062,190,90,58,-581,506,-1087,37
,777,2023-10-27 10:38:41.62,-200,90,-2069,150,71,62,-418,344,-762,37
,778,2023-10-27 10:38:41.63,-202,98,-2072,117,32,66,-574,526,-1100,24
,779,2023-10-27 10:38:41.64,-199,108,-2071,82,-2,62,-422,360,-782,31
,780,2023-10-27 10:38:41.65,-200,110,-2064,43,-26,59,-572,527,-1099,22
,781,2023-10-27 10:38:41.66,-199,112,-2036,4,-34,56,-413,356,-769,28
,782,2023-10-27 10:38:41.67,-196,122,-2025,-39,-31,51,-560,520,-1080,20
,783,2023-10-27 10:38:41.68,-181,141,-2037,-73,-25,48,-413,380,-793,16
,784,2023-10-27 10:38:41.69,-185,131,-2043,-101,-19,47,-552,567,-1119,-7
,785,2023-10-27 10:38:41.70,-158,154,-2015,-116,-14,40,-417,418,-835,0
,786,2023-10-27 10:38:41.71,-138,139,-2042,-141,7,32,-562,580,-1142,-9
,787,2023-10-27 10:38:41.72,-143,161,-2038,-156,37,29,-433,427,-860,3
,788,2023-10-27 10:38:41.73,-101,187,-2041,-166,62,25,-559,594,-1153,-17
,789,2023-10-27 10:38:41.74,-140,214,-2019,-161,81,17,-431,456,-887,-12
,790,2023-10-27 10:38:41.75,-120,201,-2013,-163,96,8,-562,592,-1154,-15
,791,2023-10-27 10:38:41.76,-131,202,-2018,-162,100,1,-433,474,-907,-20
,792,2023-10-27 10:38:41.77,-134,202,-2038,-139,91,-7,-554,605,-1159,-25
,793,2023-10-27 10:38:41.78,-140,209,-2062,-114,61,-17,-433,482,-915,-24
,794,2023-10-27 10:38:41.79,-151,225,-2071,-101,52,-21,-550,612,-1162,-31
,795,2023-10-27 10:38:41.80,-140,210,-2089,-86,23,-28,-441,497,-938,-28
,796,2023-10-27 10:38:41.81,-169,232,-2087,-77,6,-41,-547,615,-1162,-34
,797,2023-10-27 10:38:41.82,-159,222,-2094,-69,-28,-41,-446,507,-953,-30
,798,2023-10-27 10:38:41.83,-165,212,-2118,-50,-73,-44,-542,612,-1154,-35
,799,2023-10-27 10:38:41.84,-172,223,-2124,-43,-107,-52,-448,514,-962,-33
,800,2023-10-27 10:38:41.85,-195,224,-2113,-42,-142,-56,-540,610,-1150,-35
,801,2023-10-27 10:38:41.86,-214,213,-2096,-37,-182,-56,-450,525,-975,-37
,802,2023-10-27 10:38:41.87,-218,225,-2095,-31,-211,-57,-534,613,-1147,-39
,803,2023-10-27 10:38:41.88,-215,214,-2082,-24,-233,-61,-454,533,-987,-39
,804,2023-10-27 10:38:41.89,-217,222,-2066,-11,-253,-66,-534,617,-1151,-41
,805,2023-10-27 10:38:41.90,-238,225,-2069,-7,-244,-72,-462,540,-1002,-39
,806,2023-10-27 10:38:41.91,-247,212,-2032,-17,-232,-72,-531,615,-1146,-42
,807,2023-10-27 10:38:41.92,-261,200,-1997,-19,-207,-75,-465,545,-1010,-40
,808,2023-10-27 10:38:41.93,-269,195,-1985,-21,-185,-75,-515,595,-1110,-40
,809,2023-10-27 10:38:41.94,-252,154,-1968,-19,-144,-67,-458,536,-994,-39
,810,2023-10-27 10:38:41.95,-259,147,-1936,8,-108,-53,-518,586,-1104,-34
,811,2023-10-27 10:38:41.96,-241,143,-1908,50,-82,-44,-408,194,-602,107
,812,2023-10-27 10:38:41.97,-261,128,-1927,94,-38,-28,-456,-286,-170,371
,813,2023-10-27 10:38:41.98,-242,146,-1912,128,-3,-23,-447,-410,-37,428
,814,2023-10-27 10:38:41.99,-242,113,-1933,167,31,-9,-483,-254,-229,368
,815,2023-10-27 10:38:42.00,-259,99,-1956,205,58,8,-437,-20,-417,228
,816,2023-10-27 10:38:42.01,-260,96,-1994,245,81,21,-459,159,-618,150
,817,2023-10-27 10:38:42.02,-277,101,-2041,274,94,37,-443,222,-665,110
,818,2023-10-27 10:38:42.03,-275,57,-2041,301,98,58,-472,256,-728,108
,819,2023-10-27 10:38:42.04,-290,55,-2045,316,87,74,-465,283,-748,91
,820,2023-10-27 10:38:42.05,-290,45,-2077,318,95,97,-481,311,-792,85
,821,2023-10-27 10:38:42.06,-278,81,-2039,329,84,106,-476,350,-826,63
,822,2023-10-27 10:38:42.07,-242,116,-2040,339,83,114,-481,363,-844,59
,823,2023-10-27 10:38:42.08,-248,122,-2010,342,84,112,-483,396,-879,43
,824,2023-10-27 10:38:42.09,-229,116,-2005,349,85,98,-480,400,-880,40
,825,2023-10-27 10:38:42.10,-240,114,-2040,336,92,89,-490,448,-938,21
,826,2023-10-27 10:38:42.11,-243,96,-2029,300,156,91,-483,410,-893,36
,827,2023-10-27 10:38:42.12,-205,42,-2010,301,145,84,-506,451,-957,27
,828,2023-10-27 10:38:42.13,-265,13,-2005,340,136,89,-488,407,-895,40
,829,2023-10-27 10:38:42.14,-215,75,-2053,331,136,96,-508,466,-974,21
,830,2023-10-27 10:38:42.15,-213,61,-2013,313,140,94,-480,415,-895,32
,831,2023-10-27 10:38:42.16,-225,43,-2007,316,162,93,-518,461,-979,28
,832,2023-10-27 10:38:42.17,-229,33,-2036,333,150,91,-477,423,-900,27
,833,2023-10-27 10:38:42.18,-248,8,-2021,350,135,91,-520,491,-1011,14
,834,2023-10-27 10:38:42.19,-263,-55,-2036,366,109,109,-472,427,-899,22
,835,2023-10-27 10:38:42.20,-254,-23,-2043,364,105,110,-524,498,-1022,13
,836,2023-10-27 10:38:42.21,-256,-46,-2047,378,100,127,-468,420,-888,24
,837,2023-10-27 10:38:42.22,-245,-71,-2012,400,95,139,-529,509,-1038,10
,838,2023-10-27 10:38:42.23,-224,-50,-1981,416,93,151,-472,420,-892,26
,839,2023-10-27 10:38:42.24,-228,-35,-1989,415,114,169,-537,516,-1053,10
,840,2023-10-27 10:38:42.25,-226,-25,-2003,413,135,176,-468,432,-900,18
,841,2023-10-27 10:38:42.26,-207,-67,-2004,412,165,187,-536,533,-1069,1
,842,2023-10-27 10:38:42.27,-225,-53,-1972,418,186,195,-460,439,-899,10
,843,2023-10-27 10:38:42.28,-198,-63,-1937,411,220,195,-536,539,-1075,-1
,844,2023-10-27 10:38:42.29,-153,-29,-1939,401,253,190,-454,437,-891,8
,845,2023-10-27 10:38:42.30,-177,-39,-1898,411,294,197,-543,549,-1092,-3
,846,2023-10-27 10:38:42.31,-118,-6,-1915,434,335,172,-452,437,-889,7
,847,2023-10-27 10:38:42.32,-109,-37,-1880,457,365,155,-545,558,-1103,-6
,848,2023-10-27 10:38:42.33,-92,-42,-1896,514,396,117,-448,449,-897,0
,849,2023-10-27 10:38:42.34,-88,-81,-1920,557,440,92,-548,581,-1129,-16
,850,2023-10-27 10:38:42.35,-63,-87,-1958,580,477,54,-444,449,-893,-2
,851,2023-10-27 10:38:42.36,-57,-104,-2030,606,500,30,-548,574,-1122,-13
,852,2023-10-27 10:38:42.37,-71,-117,-2064,639,517,3,-436,423,-859,6
,853,2023-10-27 10:38:42.38,-24,-125,-2111,692,494,-18,-549,559,-1108,-5
,854,2023-10-27 10:38:42.39,-80,-143,-2105,721,466,-40,-430,426,-856,2
,855,2023-10-27 10:38:42.40,-79,-47,-2247,675,466,-62,-549,575,-1124,-13
,856,2023-10-27 10:38:42.41,-32,-64,-2263,603,468,-85,-426,429,-855,-1
,857,2023-10-27 10:38:42.42,-55,-94,-2260,532,454,-96,-557,578,-1135,-10
,858,2023-10-27 10:38:42.43,-60,-128,-2218,455,435,-112,-427,428,-855,0
,859,2023-10-27 10:38:42.44,-29,-124,-2186,383,393,-116,-555,588,-1143,-16
,860,2023-10-27 10:38:42.45,-22,-115,-2179,326,359,-98,-414,423,-837,-4
,861,2023-10-27 10:38:42.46,-11,-116,-2211,271,321,-97,-551,583,-1134,-16
,862,2023-10-27 10:38:42.47,-31,-183,-2172,233,259,-83,-405,406,-811,0
,863,2023-10-27 10:38:42.48,-26,-194,-2142,211,203,-87,-552,577,-1129,-12
,864,2023-10-27 10:38:42.49,-26,-192,-2126,176,152,-76,-408,399,-807,4
,865,2023-10-27 10:38:42.50,-29,-216,-2156,140,112,-75,-558,570,-1128,-6
,866,2023-10-27 10:38:42.51,-47,-244,-2154,116,46,-56,-396,396,-792,0
,867,2023-10-27 10:38:42.52,-57,-288,-2162,103,16,-37,-559,572,-1131,-6
,868,2023-10-27 10:38:42.53,-29,-294,-2126,99,-47,-5,-407,396,-803,5
,869,2023-10-27 10:38:42.54,-34,-321,-2084,97,-81,36,-573,579,-1152,-3
,870,2023-10-27 10:38:42.55,-69,-319,-2033,89,-97,61,-413,389,-802,12
,871,2023-10-27 10:38:42.56,-27,-273,-2057,89,-116,91,-580,577,-1157,1
,872,2023-10-27 10:38:42.57,12,-264,-2006,73,-125,115,-415,372,-787,21
,873,2023-10-27 10:38:42.58,-37,-278,-1895,50,-122,140,-580,575,-1155,2
,874,2023-10-27 10:38:42.59,-41,-208,-1946,12,-78,140,-408,371,-779,18
,875,2023-10-27 10:38:42.60,-1,-214,-1918,-33,-50,127,-578,572,-1150,3
,876,2023-10-27 10:38:42.61,-17,-203,-1959,-69,-15,129,-407,379,-786,14
,877,2023-10-27 10:38:42.62,-19,-216,-1982,-89,6,116,-584,586,-1170,-1
,878,2023-10-27 10:38:42.63,-10,-214,-2006,-105,30,102,-408,385,-793,11
,879,2023-10-27 10:38:42.64,-18,-227,-2049,-128,56,94,-583,585,-1168,-1
,880,2023-10-27 10:38:42.65,-31,-255,-2061,-135,57,92,-398,373,-771,12
,881,2023-10-27 10:38:42.66,0,-236,-2088,-140,82,102,-579,580,-1159,0
,882,2023-10-27 10:38:42.67,-29,-259,-2104,-142,74,111,-395,364,-759,15
,883,2023-10-27 10:38:42.68,-7,-225,-2131,-132,65,117,-578,570,-1148,4
,884,2023-10-27 10:38:42.69,17,-217,-2116,-130,74,125,-393,359,-752,17
,885,2023-10-27 10:38:42.70,7,-218,-2094,-136,88,123,-581,577,-1158,2
,886,2023-10-27 10:38:42.71,29,-191,-2064,-147,97,120,-394,369,-763,12
,887,2023-10-27 10:38:42.72,42,-180,-2054,-133,112,115,-583,604,-1187,-10
,888,2023-10-27 10:38:42.73,41,-189,-2061,-123,135,106,-388,393,-781,-2
,889,2023-10-27 10:38:42.74,45,-205,-2076,-97,138,87,-577,618,-1195,-20
,890,2023-10-27 10:38:42.75,71,-202,-2042,-67,151,82,-385,407,-792,-11
,891,2023-10-27 10:38:42.76,63,-228,-2027,-34,166,75,-574,611,-1185,-18
,892,2023-10-27 10:38:42.77,51,-250,-2002,11,167,82,-380,361,-741,9
,893,2023-10-27 10:38:42.78,48,-279,-2002,56,185,94,-572,574,-1146,-1
,894,2023-10-27 10:38:42.79,30,-278,-1995,109,179,107,-379,365,-744,7
,895,2023-10-27 10:38:42.80,47,-287,-2019,141,173,124,-568,598,-1166,-15
,896,2023-10-27 10:38:42.81,46,-285,-2016,171,158,153,-378,386,-764,-4
,897,2023-10-27 10:38:42.82,59,-291,-2012,193,155,180,-576,609,-1185,-16
,898,2023-10-27 10:38:42.83,65,-290,-2002,214,149,195,-381,398,-779,-8
,899,2023-10-27 10:38:42.84,85,-298,-1957,212,167,197,-578,614,-1192,-18
,900,2023-10-27 10:38:42.85,99,-293,-1938,220,202,202,-384,391,-775,-3
,901,2023-10-27 10:38:42.86,96,-305,-1926,229,227,205,-582,607,-1189,-12
,902,2023-10-27 10:38:42.87,101,-332,-1919,241,241,202,-393,394,-787,0
,903,2023-10-27 10:38:42.88,119,-357,-1951,253,259,200,-589,623,-1212,-17
,904,2023-10-27 10:38:42.89,98,-418,-1975,281,285,210,-396,410,-806,-7
,905,2023-10-27 10:38:42.90,122,-415,-1987,334,279,219,-592,631,-1223,-19
,906,2023-10-27 10:38:42.91,108,-426,-1964,351,287,227,-403,408,-811,-2
,907,2023-10-27 10:38:42.92,112,-447,-1947,376,288,239,-589,632,-1221,-21
,908,2023-10-27 10:38:42.93,124,-471,-1940,399,313,255,-410,417,-827,-3
,909,2023-10-27 10:38:42.94,164,-444,-1934,430,342,271,-599,636,-1235,-18
,910,2023-10-27 10:38:42.95,159,-433,-1951,443,365,269,-408,418,-826,-5
,911,2023-10-27 10:38:42.96,165,-439,-1952,447,389,265,-595,639,-1234,-22
,912,2023-10-27 10:38:42.97,200,-374,-1957,454,413,261,-405,422,-827,-8
,913,2023-10-27 10:38:42.98,219,-421,-1937,439,453,251,-600,640,-1240,-20
,914,2023-10-27 10:38:42.99,245,-486,-1962,438,521,235,-412,431,-843,-9
,915,2023-10-27 10:38:43.00,273,-457,-1968,462,545,237,-595,638,-1233,-21
,916,2023-10-27 10:38:43.01,220,-476,-1966,483,580,234,-406,426,-832,-10
,917,2023-10-27 10:38:43.02,257,-512,-1964,494,619,236,-588,645,-1233,-28
,918,2023-10-27 10:38:43.03,285,-479,-1949,492,665,234,-409,445,-854,-18
,919,2023-10-27 10:38:43.04,328,-493,-1973,480,692,237,-596,644,-1240,-24
,920,2023-10-27 10:38:43.05,329,-509,-1948,459,729,219,-420,432,-852,-6
,921,2023-10-27 10:38:43.06,416,-261,-2075,489,766,250,-606,618,-1224,-6
,922,2023-10-27 10:38:43.07,368,-335,-2006,424,732,209,-438,413,-851,12
,923,2023-10-27 10:38:43.08,397,-460,-1921,344,812,192,-608,616,-1224,-4
,924,2023-10-27 10:38:43.09,410,-476,-1883,287,847,177,-443,421,-864,11
,925,2023-10-27 10:38:43.10,435,-422,-1883,239,896,146,-612,612,-1224,0
,926,2023-10-27 10:38:43.11,425,-464,-1911,186,925,121,-445,416,-861,14
,927,2023-10-27 10:38:43.12,458,-449,-1933,146,918,107,-610,603,-1213,3
,928,2023-10-27 10:38:43.13,444,-483,-1952,90,923,73,-453,421,-874,16
,929,2023-10-27 10:38:43.14,488,-464,-1963,35,909,57,-611,607,-1218,2
,930,2023-10-27 10:38:43.15,516,-417,-2017,-13,873,49,-454,425,-879,14
,931,2023-10-27 10:38:43.16,488,-425,-2065,-77,827,20,-607,603,-1210,2
,932,2023-10-27 10:38:43.17,521,-389,-2085,-136,754,-14,-455,428,-883,13
,933,2023-10-27 10:38:43.18,541,-416,-2082,-203,697,-41,-605,610,-1215,-2
,934,2023-10-27 10:38:43.19,548,-412,-2101,-305,659,-67,-460,445,-905,7
,935,2023-10-27 10:38:43.20,581,-397,-2138,-413,597,-102,-604,602,-1206,1
,936,2023-10-27 10:38:43.21,578,-389,-2134,-483,515,-128,-467,436,-903,15
,937,2023-10-27 10:38:43.22,522,-371,-2152,-564,419,-161,-599,577,-1176,11
,938,2023-10-27 10:38:43.23,373,-300,-2324,-630,295,-202,-457,418,-875,19
,939,2023-10-27 10:38:43.24,422,-11,-2714,-585,33,-370,-567,559,-1126,4
,940,2023-10-27 10:38:43.25,588,-87,-2397,-736,-185,-418,-426,415,-841,5
,941,2023-10-27 10:38:43.26,451,-224,-2120,-972,-256,-464,-543,538,-1081,2
