// Data mode  : Full
// Data quality  : High
// Acceleration sensor's range  : 16g
// Gyroscope sensor's range  : 2000dps
//
//ARTIFACT,NUM,DATE,ACC_X,ACC_Y,ACC_Z,GYRO_X,GYRO_Y,GYRO_Z,EOG_L,EOG_R,EOG_H,EOG_V
,1,2023-10-20 13:05:47.97,-5,-383,-2038,135,-18,24,1244,176,1068,-710
,2,2023-10-20 13:05:47.98,-7,-392,-2042,168,-43,33,1050,223,827,-636
,3,2023-10-20 13:05:47.99,-23,-399,-2046,186,-49,43,1249,175,1074,-712
,4,2023-10-20 13:05:48.00,-15,-390,-2054,186,-58,52,1050,238,812,-644
,5,2023-10-20 13:05:48.01,-26,-370,-2066,169,-57,58,1253,187,1066,-720
,6,2023-10-20 13:05:48.02,-36,-371,-2025,129,-27,64,1054,231,823,-642
,7,2023-10-20 13:05:48.03,-33,-391,-2004,105,-10,70,1260,178,1082,-719
,8,2023-10-20 13:05:48.04,-45,-398,-2042,86,-3,78,1046,209,837,-627
,9,2023-10-20 13:05:48.05,-55,-413,-2043,75,-10,92,1256,167,1089,-711
,10,2023-10-20 13:05:48.06,-44,-414,-2018,78,-22,109,1036,198,838,-617
,11,2023-10-20 13:05:48.07,-48,-398,-1974,76,-17,124,1251,171,1080,-711
,12,2023-10-20 13:05:48.08,-19,-363,-1978,54,8,129,1035,193,842,-614
,13,2023-10-20 13:05:48.09,-15,-331,-1982,28,27,131,1262,169,1093,-715
,14,2023-10-20 13:05:48.10,10,-279,-2000,-9,66,128,1040,186,854,-613
,15,2023-10-20 13:05:48.11,16,-273,-1984,-65,119,122,1270,175,1095,-722
,16,2023-10-20 13:05:48.12,48,-245,-2001,-114,157,105,1043,199,844,-621
,17,2023-10-20 13:05:48.13,49,-227,-2013,-141,158,88,1282,192,1090,-737
,18,2023-10-20 13:05:48.14,78,-233,-2010,-141,138,69,1041,193,848,-617
,19,2023-10-20 13:05:48.15,72,-213,-2039,-125,97,54,1274,186,1088,-730
,20,2023-10-20 13:05:48.16,99,-204,-2050,-121,65,41,1026,180,846,-603
,21,2023-10-20 13:05:48.17,96,-217,-2059,-129,55,28,1277,192,1085,-734
,22,2023-10-20 13:05:48.18,104,-212,-2076,-139,55,27,1041,187,854,-614
,23,2023-10-20 13:05:48.19,114,-231,-2070,-137,52,26,1278,204,1074,-741
,24,2023-10-20 13:05:48.20,99,-235,-2083,-121,45,31,1032,184,848,-608
,25,2023-10-20 13:05:48.21,94,-240,-2081,-94,16,37,1263,200,1063,-731
,26,2023-10-20 13:05:48.22,100,-240,-2091,-63,-1,47,1017,184,833,-600
,27,2023-10-20 13:05:48.23,112,-230,-2081,-35,-20,53,1262,206,1056,-734
,28,2023-10-20 13:05:48.24,102,-218,-2060,-11,-24,58,1026,182,844,-604
,29,2023-10-20 13:05:48.25,116,-204,-2055,5,-22,55,1262,208,1054,-735
,30,2023-10-20 13:05:48.26,91,-222,-2040,19,-14,48,1026,177,849,-601
,31,2023-10-20 13:05:48.27,107,-229,-2045,38,-17,42,1266,212,1054,-739
,32,2023-10-20 13:05:48.28,88,-240,-2046,56,-17,33,1030,178,852,-604
,33,2023-10-20 13:05:48.29,83,-267,-2046,76,-24,26,1266,219,1047,-742
,34,2023-10-20 13:05:48.30,82,-282,-2055,99,-37,28,1033,179,854,-606
,35,2023-10-20 13:05:48.31,57,-309,-2056,116,-42,31,1269,216,1053,-742
,36,2023-10-20 13:05:48.32,53,-325,-2054,123,-41,36,1033,174,859,-603
,37,2023-10-20 13:05:48.33,52,-339,-2044,132,-41,46,1269,228,1041,-748
,38,2023-10-20 13:05:48.34,44,-336,-2025,141,-44,56,1040,170,870,-605
,39,2023-10-20 13:05:48.35,20,-340,-2027,143,-50,61,1273,226,1047,-749
,40,2023-10-20 13:05:48.36,17,-348,-2022,145,-50,71,1033,160,873,-596
,41,2023-10-20 13:05:48.37,30,-350,-2015,139,-44,81,1275,218,1057,-746
,42,2023-10-20 13:05:48.38,17,-343,-2004,130,-31,85,1046,153,893,-599
,43,2023-10-20 13:05:48.39,8,-344,-2012,110,-15,89,1280,224,1056,-752
,44,2023-10-20 13:05:48.40,1,-334,-2027,90,-8,93,1041,153,888,-597
,45,2023-10-20 13:05:48.41,5,-332,-2028,70,-8,100,1276,223,1053,-749
,46,2023-10-20 13:05:48.42,11,-325,-2035,47,-5,104,1043,146,897,-594
,47,2023-10-20 13:05:48.43,-2,-330,-2045,21,2,104,1276,216,1060,-746
,48,2023-10-20 13:05:48.44,9,-335,-2038,10,5,106,1040,140,900,-590
,49,2023-10-20 13:05:48.45,18,-333,-2027,17,-3,103,1264,228,1036,-746
,50,2023-10-20 13:05:48.46,18,-313,-2015,21,5,104,1037,138,899,-587
,51,2023-10-20 13:05:48.47,24,-303,-2031,22,8,96,1258,217,1041,-737
,52,2023-10-20 13:05:48.48,28,-303,-2040,18,14,92,1040,130,910,-585
,53,2023-10-20 13:05:48.49,24,-295,-2051,22,10,87,1272,224,1048,-748
,54,2023-10-20 13:05:48.50,9,-301,-2054,28,-22,84,1050,136,914,-593
,55,2023-10-20 13:05:48.51,23,-300,-2067,27,-28,89,1273,226,1047,-749
,56,2023-10-20 13:05:48.52,5,-304,-2059,22,-29,93,1049,130,919,-589
,57,2023-10-20 13:05:48.53,14,-312,-2042,14,-25,98,1261,230,1031,-745
,58,2023-10-20 13:05:48.54,10,-302,-2039,9,-15,106,1051,133,918,-592
,59,2023-10-20 13:05:48.55,30,-300,-2002,5,-2,116,1252,240,1012,-746
,60,2023-10-20 13:05:48.56,43,-290,-1969,7,5,119,1042,137,905,-589
,61,2023-10-20 13:05:48.57,44,-289,-1988,8,23,115,1229,228,1001,-728
,62,2023-10-20 13:05:48.58,45,-276,-2004,4,41,113,1044,126,918,-585
,63,2023-10-20 13:05:48.59,37,-290,-2037,10,43,117,1250,238,1012,-744
,64,2023-10-20 13:05:48.60,25,-282,-2065,15,19,120,1059,134,925,-596
,65,2023-10-20 13:05:48.61,20,-274,-2103,15,-5,129,1252,243,1009,-747
,66,2023-10-20 13:05:48.62,26,-299,-2098,9,-17,137,1059,123,936,-591
,67,2023-10-20 13:05:48.63,34,-314,-2040,19,-27,145,1245,246,999,-745
,68,2023-10-20 13:05:48.64,38,-299,-2004,35,-8,144,1067,129,938,-598
,69,2023-10-20 13:05:48.65,43,-278,-1996,52,3,136,1253,249,1004,-751
,70,2023-10-20 13:05:48.66,53,-260,-2012,91,16,120,1071,124,947,-597
,71,2023-10-20 13:05:48.67,50,-260,-2030,91,33,107,1245,246,999,-745
,72,2023-10-20 13:05:48.68,49,-266,-2068,89,33,93,1068,118,950,-593
,73,2023-10-20 13:05:48.69,24,-288,-2100,86,29,83,1236,254,982,-745
,74,2023-10-20 13:05:48.70,19,-310,-2097,89,14,82,1072,124,948,-598
,75,2023-10-20 13:05:48.71,5,-321,-2096,91,-21,85,1245,262,983,-753
,76,2023-10-20 13:05:48.72,18,-335,-2043,89,-34,90,1087,119,968,-603
,77,2023-10-20 13:05:48.73,30,-337,-1986,89,-20,93,1242,248,994,-745
,78,2023-10-20 13:05:48.74,26,-337,-1965,94,1,88,1086,104,982,-595
,79,2023-10-20 13:05:48.75,33,-328,-1990,99,17,81,1236,254,982,-745
,80,2023-10-20 13:05:48.76,26,-318,-2003,114,6,79,1089,118,971,-603
,81,2023-10-20 13:05:48.77,17,-331,-2016,121,-5,76,1227,266,961,-746
,82,2023-10-20 13:05:48.78,12,-356,-2035,115,-4,71,1084,108,976,-596
,83,2023-10-20 13:05:48.79,12,-382,-2040,105,-16,75,1222,253,969,-737
,84,2023-10-20 13:05:48.80,9,-415,-2021,112,-28,85,1089,108,981,-598
,85,2023-10-20 13:05:48.81,12,-406,-2003,119,-33,97,1219,271,948,-745
,86,2023-10-20 13:05:48.82,4,-385,-2009,122,-44,107,1088,116,972,-602
,87,2023-10-20 13:05:48.83,-3,-387,-2019,120,-41,114,1217,273,944,-745
,88,2023-10-20 13:05:48.84,-7,-383,-2043,118,-35,124,1099,115,984,-607
,89,2023-10-20 13:05:48.85,-18,-389,-2049,108,-24,126,1218,273,945,-745
,90,2023-10-20 13:05:48.86,-22,-375,-2053,94,-8,127,1101,117,984,-609
,91,2023-10-20 13:05:48.87,-21,-382,-2034,75,3,124,1208,274,934,-741
,92,2023-10-20 13:05:48.88,-16,-384,-2032,74,-4,123,1104,111,993,-607
,93,2023-10-20 13:05:48.89,-17,-372,-2027,75,-3,121,1207,271,936,-739
,94,2023-10-20 13:05:48.90,-12,-373,-2014,78,-10,118,1104,116,988,-610
,95,2023-10-20 13:05:48.91,-12,-369,-2003,82,-20,115,1198,280,918,-739
,96,2023-10-20 13:05:48.92,-18,-367,-1994,83,-24,111,1110,112,998,-611
,97,2023-10-20 13:05:48.93,-10,-371,-1981,82,-19,107,1200,267,933,-733
,98,2023-10-20 13:05:48.94,-19,-360,-1981,77,-10,101,1117,105,1012,-611
,99,2023-10-20 13:05:48.95,-10,-371,-1988,68,6,94,1200,280,920,-740
,100,2023-10-20 13:05:48.96,-11,-373,-2005,56,25,89,1118,110,1008,-614
,101,2023-10-20 13:05:48.97,2,-376,-2005,42,38,87,1181,272,909,-726
,102,2023-10-20 13:05:48.98,5,-369,-2012,26,54,85,1109,94,1015,-601
,103,2023-10-20 13:05:48.99,-3,-372,-2021,5,73,76,1187,272,915,-729
,104,2023-10-20 13:05:49.00,-11,-375,-2025,-9,73,77,1136,104,1032,-620
,105,2023-10-20 13:05:49.01,-5,-393,-2030,6,33,73,1186,268,918,-727
,106,2023-10-20 13:05:49.02,4,-371,-2034,21,22,74,1142,103,1039,-622
,107,2023-10-20 13:05:49.03,29,-353,-2009,19,32,69,1174,275,899,-724
,108,2023-10-20 13:05:49.04,22,-360,-2019,-4,63,58,1144,124,1020,-634
,109,2023-10-20 13:05:49.05,11,-370,-2044,-11,73,54,1167,297,870,-732
,110,2023-10-20 13:05:49.06,14,-360,-2054,0,63,54,1148,134,1014,-641
,111,2023-10-20 13:05:49.07,21,-363,-2027,7,45,57,1174,302,872,-738
,112,2023-10-20 13:05:49.08,30,-362,-2020,3,44,57,1158,134,1024,-646
,113,2023-10-20 13:05:49.09,25,-383,-2009,12,29,58,1164,297,867,-730
,114,2023-10-20 13:05:49.10,27,-385,-2007,40,2,58,1151,128,1023,-639
,115,2023-10-20 13:05:49.11,55,-372,-1981,58,-3,61,1148,287,861,-717
,116,2023-10-20 13:05:49.12,54,-370,-1991,59,26,58,1157,124,1033,-640
,117,2023-10-20 13:05:49.13,53,-364,-2020,41,65,50,1154,287,867,-720
,118,2023-10-20 13:05:49.14,38,-366,-2048,22,91,49,1168,130,1038,-649
,119,2023-10-20 13:05:49.15,37,-372,-2058,11,88,47,1143,289,854,-716
,120,2023-10-20 13:05:49.16,36,-391,-2055,7,67,50,1164,136,1028,-650
,121,2023-10-20 13:05:49.17,27,-402,-2072,19,13,58,1137,300,837,-718
,122,2023-10-20 13:05:49.18,16,-391,-2077,33,-24,64,1170,146,1024,-658
,123,2023-10-20 13:05:49.19,34,-381,-2062,31,-27,75,1133,297,836,-715
,124,2023-10-20 13:05:49.20,38,-359,-2036,6,-1,78,1173,146,1027,-659
,125,2023-10-20 13:05:49.21,11,-366,-2053,-32,39,78,1122,300,822,-711
,126,2023-10-20 13:05:49.22,3,-375,-2040,-37,30,85,1176,151,1025,-663
,127,2023-10-20 13:05:49.23,6,-364,-2023,-28,8,92,1119,304,815,-711
,128,2023-10-20 13:05:49.24,7,-361,-2021,-24,-4,94,1186,144,1042,-665
,129,2023-10-20 13:05:49.25,2,-359,-2008,-24,-1,94,1120,290,830,-705
,130,2023-10-20 13:05:49.26,0,-354,-2006,-20,12,89,1195,139,1056,-667
,131,2023-10-20 13:05:49.27,2,-357,-1993,-11,2,87,1117,293,824,-705
,132,2023-10-20 13:05:49.28,2,-346,-2004,5,-9,79,1193,151,1042,-672
,133,2023-10-20 13:05:49.29,7,-337,-2000,14,-17,68,1101,299,802,-700
,134,2023-10-20 13:05:49.30,1,-346,-2004,22,-12,57,1186,161,1025,-673
,135,2023-10-20 13:05:49.31,8,-335,-2004,19,1,45,1103,309,794,-706
,136,2023-10-20 13:05:49.32,7,-340,-2022,18,5,31,1198,170,1028,-684
,137,2023-10-20 13:05:49.33,9,-359,-2030,17,8,25,1093,305,788,-699
,138,2023-10-20 13:05:49.34,-8,-354,-2052,8,10,18,1194,163,1031,-678
,139,2023-10-20 13:05:49.35,-3,-364,-2059,7,3,18,1087,297,790,-692
,140,2023-10-20 13:05:49.36,15,-369,-2033,9,-2,11,1209,180,1029,-694
,141,2023-10-20 13:05:49.37,21,-384,-2018,12,1,15,1081,312,769,-696
,142,2023-10-20 13:05:49.38,14,-391,-2022,19,10,23,1204,187,1017,-695
,143,2023-10-20 13:05:49.39,26,-392,-2001,26,17,33,1066,305,761,-685
,144,2023-10-20 13:05:49.40,11,-407,-2005,34,36,43,1204,190,1014,-697
,145,2023-10-20 13:05:49.41,26,-399,-2030,41,50,52,1072,312,760,-692
,146,2023-10-20 13:05:49.42,30,-378,-2032,37,50,62,1215,196,1019,-705
,147,2023-10-20 13:05:49.43,20,-370,-2034,35,57,67,1070,305,765,-687
,148,2023-10-20 13:05:49.44,41,-360,-2026,23,57,64,1211,191,1020,-701
,149,2023-10-20 13:05:49.45,44,-364,-2033,3,59,68,1057,299,758,-678
,150,2023-10-20 13:05:49.46,29,-355,-2050,-11,58,66,1214,202,1012,-708
,151,2023-10-20 13:05:49.47,30,-352,-2057,-27,47,69,1061,313,748,-687
,152,2023-10-20 13:05:49.48,48,-348,-2049,-33,39,68,1217,213,1004,-715
,153,2023-10-20 13:05:49.49,41,-351,-2039,-40,29,68,1064,309,755,-686
,154,2023-10-20 13:05:49.50,33,-357,-2040,-46,14,70,1224,212,1012,-718
,155,2023-10-20 13:05:49.51,28,-363,-2037,-48,4,74,1064,310,754,-687
,156,2023-10-20 13:05:49.52,19,-364,-2049,-36,-22,76,1233,215,1018,-724
,157,2023-10-20 13:05:49.53,26,-325,-2037,-31,-51,76,1064,298,766,-681
,158,2023-10-20 13:05:49.54,40,-330,-2031,-24,-68,74,1233,209,1024,-721
,159,2023-10-20 13:05:49.55,22,-345,-2016,-26,-68,69,1064,292,772,-678
,160,2023-10-20 13:05:49.56,13,-345,-2031,-33,-52,64,1239,216,1023,-727
,161,2023-10-20 13:05:49.57,18,-338,-2023,-35,-47,67,1058,293,765,-675
,162,2023-10-20 13:05:49.58,29,-344,-2046,-40,-38,63,1240,220,1020,-730
,163,2023-10-20 13:05:49.59,22,-346,-2039,-39,-45,63,1053,289,764,-671
,164,2023-10-20 13:05:49.60,15,-352,-2011,-38,-54,69,1241,260,981,-750
,165,2023-10-20 13:05:49.61,20,-385,-1990,-11,-75,77,1066,362,704,-714
,166,2023-10-20 13:05:49.62,39,-383,-1964,14,-81,89,1260,314,946,-787
,167,2023-10-20 13:05:49.63,24,-366,-1964,40,-61,94,1062,347,715,-704
,168,2023-10-20 13:05:49.64,40,-351,-1986,46,-44,92,1256,270,986,-763
,169,2023-10-20 13:05:49.65,56,-350,-1997,45,-25,89,1053,304,749,-678
,170,2023-10-20 13:05:49.66,48,-359,-2021,35,5,92,1248,256,992,-752
,171,2023-10-20 13:05:49.67,46,-364,-2043,18,24,88,1026,294,732,-660
,172,2023-10-20 13:05:49.68,35,-371,-2075,2,33,91,1206,244,962,-725
,173,2023-10-20 13:05:49.69,33,-377,-2074,-9,30,99,964,272,692,-618
,174,2023-10-20 13:05:49.70,23,-380,-2094,-25,38,108,1099,224,875,-661
,175,2023-10-20 13:05:49.71,17,-384,-2090,-45,27,114,885,257,628,-571
,176,2023-10-20 13:05:49.72,5,-379,-2098,-52,2,119,987,222,765,-604
,177,2023-10-20 13:05:49.73,-31,-375,-2095,-58,-34,127,796,247,549,-521
,178,2023-10-20 13:05:49.74,-12,-362,-2065,-58,-71,134,874,215,659,-544
,179,2023-10-20 13:05:49.75,-21,-372,-2033,-52,-106,134,694,236,458,-465
,180,2023-10-20 13:05:49.76,-29,-342,-2011,-36,-133,130,742,205,537,-473
,181,2023-10-20 13:05:49.77,-52,-348,-2004,-25,-147,128,598,224,374,-411
,182,2023-10-20 13:05:49.78,-55,-341,-1996,-8,-152,122,637,195,442,-416
,183,2023-10-20 13:05:49.79,-49,-325,-1972,3,-136,113,510,210,300,-360
,184,2023-10-20 13:05:49.80,-54,-323,-1964,9,-107,105,559,183,376,-371
,185,2023-10-20 13:05:49.81,-54,-334,-1976,3,-68,98,446,198,248,-322
,186,2023-10-20 13:05:49.82,-60,-341,-1977,4,-31,97,503,188,315,-345
,187,2023-10-20 13:05:49.83,-66,-344,-1993,9,-8,98,402,191,211,-296
,188,2023-10-20 13:05:49.84,-65,-340,-2017,27,-4,100,465,191,274,-328
,189,2023-10-20 13:05:49.85,-58,-331,-2031,41,-14,102,377,193,184,-285
,190,2023-10-20 13:05:49.86,-53,-333,-2033,47,-20,99,467,202,265,-334
,191,2023-10-20 13:05:49.87,-43,-311,-2046,48,-16,87,402,198,204,-300
,192,2023-10-20 13:05:49.88,-45,-301,-2057,41,-20,73,686,271,415,-478
,193,2023-10-20 13:05:49.89,-50,-312,-2041,42,-36,57,697,269,428,-483
,194,2023-10-20 13:05:49.90,-31,-325,-2034,60,-57,42,903,311,592,-607
,195,2023-10-20 13:05:49.91,-16,-342,-2020,80,-66,25,721,264,457,-492
,196,2023-10-20 13:05:49.92,-8,-339,-2003,86,-47,10,810,295,515,-552
,197,2023-10-20 13:05:49.93,-10,-348,-2003,84,-18,1,630,239,391,-434
,198,2023-10-20 13:05:49.94,-16,-366,-2006,74,32,-9,780,278,502,-529
,199,2023-10-20 13:05:49.95,-17,-374,-2007,66,54,-12,635,222,413,-428
,200,2023-10-20 13:05:49.96,-53,-414,-2021,61,66,-7,749,277,472,-513
,201,2023-10-20 13:05:49.97,-38,-411,-2032,74,35,7,587,221,366,-404
,202,2023-10-20 13:05:49.98,-22,-390,-2030,78,9,21,699,268,431,-483
,203,2023-10-20 13:05:49.99,-28,-387,-2026,62,10,30,537,206,331,-371
,204,2023-10-20 13:05:50.00,-19,-392,-2032,34,24,43,625,256,369,-440
,205,2023-10-20 13:05:50.01,-13,-380,-2033,13,37,49,475,187,288,-331
,206,2023-10-20 13:05:50.02,-13,-368,-2010,1,42,55,571,240,331,-405
,207,2023-10-20 13:05:50.03,-9,-370,-2014,-11,40,57,447,169,278,-308
,208,2023-10-20 13:05:50.04,1,-361,-2022,-21,49,53,562,234,328,-398
,209,2023-10-20 13:05:50.05,-4,-349,-2021,-17,48,51,443,166,277,-304
,210,2023-10-20 13:05:50.06,7,-342,-2027,-14,41,43,543,231,312,-387
,211,2023-10-20 13:05:50.07,-3,-343,-2033,-15,37,37,415,157,258,-286
,212,2023-10-20 13:05:50.08,-6,-353,-2043,-9,21,35,543,239,304,-391
,213,2023-10-20 13:05:50.09,-5,-349,-2053,3,0,35,429,162,267,-295
,214,2023-10-20 13:05:50.10,-4,-339,-2041,17,-28,34,546,243,303,-394
,215,2023-10-20 13:05:50.11,-1,-352,-2038,23,-45,43,414,155,259,-284
,216,2023-10-20 13:05:50.12,-4,-344,-2056,18,-45,43,535,242,293,-388
,217,2023-10-20 13:05:50.13,-14,-333,-2036,-10,-5,45,416,154,262,-285
,218,2023-10-20 13:05:50.14,-20,-338,-2001,-24,21,40,537,246,291,-391
,219,2023-10-20 13:05:50.15,-5,-341,-2013,-9,-27,37,417,145,272,-281
,220,2023-10-20 13:05:50.16,-28,-327,-2037,1,-41,35,565,268,297,-416
,221,2023-10-20 13:05:50.17,-17,-334,-2010,-4,-39,34,476,198,278,-337
,222,2023-10-20 13:05:50.18,-5,-336,-2011,-15,-23,26,604,266,338,-435
,223,2023-10-20 13:05:50.19,-18,-351,-2019,-18,0,23,459,146,313,-302
,224,2023-10-20 13:05:50.20,-34,-359,-2017,-9,16,20,557,227,330,-392
,225,2023-10-20 13:05:50.21,-23,-370,-2008,11,9,18,423,126,297,-274
,226,2023-10-20 13:05:50.22,-33,-372,-2017,32,-6,18,548,234,314,-391
,227,2023-10-20 13:05:50.23,-14,-355,-2027,46,-12,21,428,138,290,-283
,228,2023-10-20 13:05:50.24,-31,-362,-2027,51,-16,23,520,225,295,-372
,229,2023-10-20 13:05:50.25,-34,-358,-2053,35,-13,17,402,127,275,-264
,230,2023-10-20 13:05:50.26,-20,-356,-2059,21,-12,21,498,220,278,-359
,231,2023-10-20 13:05:50.27,-36,-387,-2037,10,-16,23,386,113,273,-249
,232,2023-10-20 13:05:50.28,-42,-391,-2015,18,-26,29,491,218,273,-354
,233,2023-10-20 13:05:50.29,-31,-382,-2018,29,-33,38,380,113,267,-246
,234,2023-10-20 13:05:50.30,-52,-391,-2012,32,-29,46,477,212,265,-344
,235,2023-10-20 13:05:50.31,-37,-377,-2012,30,-22,48,370,112,258,-241
,236,2023-10-20 13:05:50.32,-46,-375,-2012,28,-20,61,470,219,251,-344
,237,2023-10-20 13:05:50.33,-54,-379,-2035,29,-30,66,362,108,254,-235
,238,2023-10-20 13:05:50.34,-59,-347,-2044,11,-1,70,456,217,239,-336
,239,2023-10-20 13:05:50.35,-53,-348,-2037,-20,29,70,350,100,250,-225
,240,2023-10-20 13:05:50.36,-61,-342,-2037,-54,46,67,449,216,233,-332
,241,2023-10-20 13:05:50.37,-65,-346,-2037,-69,58,66,346,97,249,-221
,242,2023-10-20 13:05:50.38,-63,-339,-2023,-71,47,66,442,211,231,-326
,243,2023-10-20 13:05:50.39,-56,-330,-2014,-71,42,60,344,89,255,-216
,244,2023-10-20 13:05:50.40,-47,-321,-2000,-70,48,52,446,212,234,-329
,245,2023-10-20 13:05:50.41,-43,-320,-2005,-66,55,48,349,89,260,-219
,246,2023-10-20 13:05:50.42,-29,-325,-2010,-60,61,34,458,220,238,-339
,247,2023-10-20 13:05:50.43,-27,-314,-2011,-51,64,27,359,94,265,-226
,248,2023-10-20 13:05:50.44,-29,-337,-2014,-37,65,24,468,234,234,-351
,249,2023-10-20 13:05:50.45,-21,-344,-2014,-12,50,19,366,100,266,-233
,250,2023-10-20 13:05:50.46,-9,-335,-2010,14,18,19,459,231,228,-345
,251,2023-10-20 13:05:50.47,-14,-320,-2007,39,-1,20,352,91,261,-221
,252,2023-10-20 13:05:50.48,-8,-316,-2011,32,12,18,455,241,214,-348
,253,2023-10-20 13:05:50.49,5,-317,-2034,16,21,20,358,97,261,-227
,254,2023-10-20 13:05:50.50,8,-298,-2064,2,34,15,460,243,217,-351
,255,2023-10-20 13:05:50.51,4,-306,-2055,-8,33,16,356,94,262,-225
,256,2023-10-20 13:05:50.52,30,-339,-2057,-5,18,14,451,241,210,-346
,257,2023-10-20 13:05:50.53,21,-351,-2043,5,4,18,349,93,256,-221
,258,2023-10-20 13:05:50.54,36,-362,-2044,20,-7,25,445,248,197,-346
,259,2023-10-20 13:05:50.55,23,-360,-2048,33,-6,33,349,92,257,-220
,260,2023-10-20 13:05:50.56,8,-355,-2049,38,2,41,446,245,201,-345
,261,2023-10-20 13:05:50.57,-9,-376,-2038,55,-21,46,347,87,260,-217
,262,2023-10-20 13:05:50.58,-11,-364,-2036,87,-62,51,440,249,191,-344
,263,2023-10-20 13:05:50.59,-18,-365,-2028,112,-102,60,354,96,258,-225
,264,2023-10-20 13:05:50.60,-34,-359,-2033,123,-112,60,431,248,183,-339
,265,2023-10-20 13:05:50.61,-37,-367,-2030,115,-103,60,341,85,256,-213
,266,2023-10-20 13:05:50.62,-51,-365,-2021,103,-91,64,416,233,183,-324
,267,2023-10-20 13:05:50.63,-56,-378,-2023,83,-62,66,340,86,254,-213
,268,2023-10-20 13:05:50.64,-61,-412,-1987,72,-46,68,421,248,173,-334
,269,2023-10-20 13:05:50.65,-80,-410,-2009,76,-44,70,337,82,255,-209
,270,2023-10-20 13:05:50.66,-80,-389,-1999,91,-59,77,419,246,173,-332
,271,2023-10-20 13:05:50.67,-61,-366,-1992,86,-50,78,341,85,256,-213
,272,2023-10-20 13:05:50.68,-74,-372,-1998,56,-21,70,419,243,176,-331
,273,2023-10-20 13:05:50.69,-72,-378,-1997,37,3,65,341,82,259,-211
,274,2023-10-20 13:05:50.70,-52,-360,-2000,29,20,57,420,246,174,-333
,275,2023-10-20 13:05:50.71,-46,-353,-2003,13,33,51,344,83,261,-213
,276,2023-10-20 13:05:50.72,-46,-358,-2016,1,51,51,421,250,171,-335
,277,2023-10-20 13:05:50.73,-47,-351,-2027,-6,53,45,348,83,265,-215
,278,2023-10-20 13:05:50.74,-26,-348,-2027,-12,53,46,419,246,173,-332
,279,2023-10-20 13:05:50.75,-15,-363,-2029,-16,54,43,350,84,266,-217
,280,2023-10-20 13:05:50.76,-25,-358,-2044,-14,51,41,421,253,168,-337
,281,2023-10-20 13:05:50.77,-21,-343,-2038,-9,44,40,359,89,270,-224
,282,2023-10-20 13:05:50.78,-23,-350,-2034,-5,35,35,408,232,176,-320
,283,2023-10-20 13:05:50.79,-13,-340,-2022,1,39,28,371,71,300,-221
,284,2023-10-20 13:05:50.80,-21,-346,-2029,1,49,16,544,249,295,-396
,285,2023-10-20 13:05:50.81,-10,-354,-2022,-1,57,12,648,97,551,-372
,286,2023-10-20 13:05:50.82,-31,-346,-2036,2,59,8,857,261,596,-559
,287,2023-10-20 13:05:50.83,-36,-355,-2032,2,53,7,831,104,727,-467
,288,2023-10-20 13:05:50.84,-33,-362,-2031,4,50,8,836,259,577,-547
,289,2023-10-20 13:05:50.85,-41,-375,-2031,2,48,11,734,106,628,-420
,290,2023-10-20 13:05:50.86,-44,-374,-2031,5,33,15,748,264,484,-506
,291,2023-10-20 13:05:50.87,-30,-383,-2030,11,28,22,653,110,543,-381
,292,2023-10-20 13:05:50.88,-32,-371,-2024,13,30,28,668,262,406,-465
,293,2023-10-20 13:05:50.89,-14,-355,-2021,2,40,30,647,109,538,-378
,294,2023-10-20 13:05:50.90,-36,-363,-2014,-3,41,31,733,252,481,-492
,295,2023-10-20 13:05:50.91,-23,-366,-2020,2,32,32,774,114,660,-444
,296,2023-10-20 13:05:50.92,-12,-348,-2015,6,20,32,806,257,549,-531
,297,2023-10-20 13:05:50.93,-12,-348,-2009,-4,34,26,746,120,626,-433
,298,2023-10-20 13:05:50.94,-19,-352,-1999,-4,40,19,727,259,468,-493
,299,2023-10-20 13:05:50.95,-13,-341,-2013,-7,46,18,754,124,630,-439
,300,2023-10-20 13:05:50.96,-14,-346,-2003,-4,51,14,817,258,559,-537
,301,2023-10-20 13:05:50.97,-5,-347,-1990,3,54,7,874,132,742,-503
,302,2023-10-20 13:05:50.98,6,-347,-1997,20,36,5,875,266,609,-570
,303,2023-10-20 13:05:50.99,-1,-327,-2041,30,38,1,862,145,717,-503
,304,2023-10-20 13:05:51.00,2,-336,-2053,26,44,-1,848,288,560,-568
,305,2023-10-20 13:05:51.01,6,-336,-2053,26,38,-7,806,153,653,-479
,306,2023-10-20 13:05:51.02,-5,-347,-2074,21,35,-7,768,275,493,-521
,307,2023-10-20 13:05:51.03,4,-364,-2071,27,12,-5,730,140,590,-435
,308,2023-10-20 13:05:51.04,-1,-367,-2061,34,2,-1,717,279,438,-498
,309,2023-10-20 13:05:51.05,-8,-380,-2048,35,-15,7,744,152,592,-448
,310,2023-10-20 13:05:51.06,-18,-392,-2038,38,-20,19,763,273,490,-518
,311,2023-10-20 13:05:51.07,-23,-404,-2021,46,-29,38,762,149,613,-455
,312,2023-10-20 13:05:51.08,-32,-401,-2013,50,-26,47,722,268,454,-495
,313,2023-10-20 13:05:51.09,-33,-378,-2005,49,-20,59,718,153,565,-435
,314,2023-10-20 13:05:51.10,-50,-395,-2014,44,-13,72,689,260,429,-474
,315,2023-10-20 13:05:51.11,-33,-399,-2026,43,-13,77,762,148,614,-455
,316,2023-10-20 13:05:51.12,-51,-382,-2015,40,-9,86,760,251,509,-505
,317,2023-10-20 13:05:51.13,-35,-373,-1997,39,-2,85,810,153,657,-481
,318,2023-10-20 13:05:51.14,-29,-375,-1998,42,8,84,740,252,488,-496
,319,2023-10-20 13:05:51.15,-31,-377,-1996,36,22,81,752,158,594,-455
,320,2023-10-20 13:05:51.16,-41,-354,-2008,23,31,74,685,246,439,-465
,321,2023-10-20 13:05:51.17,-22,-347,-2018,12,36,65,737,153,584,-445
,322,2023-10-20 13:05:51.18,-13,-331,-2029,-4,33,55,699,231,468,-465
,323,2023-10-20 13:05:51.19,-21,-344,-2038,-22,22,41,807,145,662,-476
,324,2023-10-20 13:05:51.20,-15,-362,-2032,-22,11,33,782,230,552,-506
,325,2023-10-20 13:05:51.21,-20,-369,-2043,-18,0,30,860,157,703,-508
,326,2023-10-20 13:05:51.22,-23,-385,-2062,-21,2,42,750,230,520,-490
,327,2023-10-20 13:05:51.23,-25,-388,-2057,-28,10,53,790,152,638,-471
,328,2023-10-20 13:05:51.24,-27,-385,-2028,-33,24,65,705,220,485,-462
,329,2023-10-20 13:05:51.25,-35,-369,-2025,-32,30,80,748,147,601,-447
,330,2023-10-20 13:05:51.26,-15,-349,-2022,-26,19,83,647,213,434,-430
,331,2023-10-20 13:05:51.27,-27,-334,-2024,-22,11,84,784,150,634,-467
,332,2023-10-20 13:05:51.28,0,-327,-2011,-21,15,78,725,209,516,-467
,333,2023-10-20 13:05:51.29,7,-331,-2013,-29,15,73,807,156,651,-481
,334,2023-10-20 13:05:51.30,9,-333,-2010,-35,26,68,661,203,458,-432
,335,2023-10-20 13:05:51.31,-2,-336,-2019,-33,27,59,712,170,542,-441
,336,2023-10-20 13:05:51.32,6,-339,-2015,-27,15,52,592,216,376,-404
,337,2023-10-20 13:05:51.33,5,-350,-1999,-19,5,46,650,180,470,-415
,338,2023-10-20 13:05:51.34,8,-350,-2012,-6,-3,41,561,218,343,-389
,339,2023-10-20 13:05:51.35,6,-355,-2023,-2,9,41,624,189,435,-406
,340,2023-10-20 13:05:51.36,1,-352,-2046,-7,27,36,524,221,303,-372
,341,2023-10-20 13:05:51.37,0,-350,-2033,-11,28,31,578,188,390,-383
,342,2023-10-20 13:05:51.38,-3,-349,-2036,-11,42,19,502,208,294,-355
,343,2023-10-20 13:05:51.39,4,-363,-2026,-7,31,15,604,181,423,-392
,344,2023-10-20 13:05:51.40,-4,-370,-2040,1,27,13,540,206,334,-373
,345,2023-10-20 13:05:51.41,1,-366,-2029,13,13,17,699,208,491,-453
,346,2023-10-20 13:05:51.42,12,-386,-2050,22,19,27,601,213,388,-407
,347,2023-10-20 13:05:51.43,6,-384,-2054,26,19,37,748,198,550,-473
,348,2023-10-20 13:05:51.44,6,-383,-2041,25,21,42,650,196,454,-423
,349,2023-10-20 13:05:51.45,-9,-385,-2035,35,13,46,796,205,591,-500
,350,2023-10-20 13:05:51.46,-6,-370,-2023,51,-9,49,657,202,455,-429
,351,2023-10-20 13:05:51.47,7,-369,-2031,53,-12,52,753,196,557,-474
,352,2023-10-20 13:05:51.48,3,-370,-2027,45,-11,50,583,176,407,-379
,353,2023-10-20 13:05:51.49,-11,-380,-2032,35,-7,52,770,181,589,-475
,354,2023-10-20 13:05:51.50,-22,-378,-2033,27,-22,55,672,163,509,-417
,355,2023-10-20 13:05:51.51,-18,-390,-2022,25,-32,59,836,181,655,-508
,356,2023-10-20 13:05:51.52,-31,-375,-2017,19,-32,64,669,162,507,-415
,357,2023-10-20 13:05:51.53,-40,-377,-2006,10,-28,70,776,186,590,-481
,358,2023-10-20 13:05:51.54,-34,-373,-1996,-5,-12,72,614,164,450,-389
,359,2023-10-20 13:05:51.55,-31,-369,-1994,-17,6,72,751,188,563,-469
,360,2023-10-20 13:05:51.56,-37,-364,-1992,-29,26,69,594,167,427,-380
,361,2023-10-20 13:05:51.57,-28,-359,-1998,-37,46,65,727,194,533,-460
,362,2023-10-20 13:05:51.58,-34,-367,-1990,-43,51,57,602,163,439,-382
,363,2023-10-20 13:05:51.59,-38,-357,-2012,-28,30,50,743,204,539,-473
,364,2023-10-20 13:05:51.60,-24,-333,-2031,-16,8,44,570,169,401,-369
,365,2023-10-20 13:05:51.61,-22,-334,-2040,-20,11,36,676,219,457,-447
,366,2023-10-20 13:05:51.62,-17,-341,-2047,-26,23,26,524,168,356,-346
,367,2023-10-20 13:05:51.63,-1,-313,-2029,-25,46,11,688,216,472,-452
,368,2023-10-20 13:05:51.64,-7,-331,-2015,-23,42,3,564,159,405,-361
,369,2023-10-20 13:05:51.65,9,-405,-1966,-14,35,13,736,220,516,-478
,370,2023-10-20 13:05:51.66,-22,-418,-2036,1,29,37,602,166,436,-384
,371,2023-10-20 13:05:51.67,-3,-380,-2070,1,11,59,788,220,568,-504
,372,2023-10-20 13:05:51.68,12,-348,-2057,2,0,72,638,155,483,-396
,373,2023-10-20 13:05:51.69,-14,-348,-2048,-8,13,75,782,217,565,-499
,374,2023-10-20 13:05:51.70,-18,-349,-2045,-14,23,74,584,149,435,-366
,375,2023-10-20 13:05:51.71,-12,-353,-2044,2,-1,68,702,224,478,-463
,376,2023-10-20 13:05:51.72,-20,-329,-2044,30,-36,67,539,150,389,-344
,377,2023-10-20 13:05:51.73,-14,-326,-2043,40,-55,68,683,233,450,-458
,378,2023-10-20 13:05:51.74,-37,-319,-2024,39,-39,64,534,151,383,-342
,379,2023-10-20 13:05:51.75,-28,-315,-2044,15,-8,49,679,235,444,-457
,380,2023-10-20 13:05:51.76,-8,-316,-2034,-10,17,41,525,148,377,-336
,381,2023-10-20 13:05:51.77,-27,-324,-2015,-4,11,35,688,234,454,-461
,382,2023-10-20 13:05:51.78,-28,-327,-2012,12,0,25,555,144,411,-349
,383,2023-10-20 13:05:51.79,-35,-342,-2002,23,-3,21,767,242,525,-504
,384,2023-10-20 13:05:51.80,-23,-347,-2014,25,1,23,627,149,478,-388
,385,2023-10-20 13:05:51.81,-29,-361,-2029,25,1,27,797,250,547,-523
,386,2023-10-20 13:05:51.82,-28,-362,-2021,30,-1,34,618,156,462,-387
,387,2023-10-20 13:05:51.83,-16,-360,-2022,36,-2,36,736,247,489,-491
,388,2023-10-20 13:05:51.84,-18,-356,-2010,44,-6,34,549,137,412,-343
,389,2023-10-20 13:05:51.85,-13,-374,-2020,53,-12,34,688,240,448,-464
,390,2023-10-20 13:05:51.86,-36,-381,-2029,62,-17,33,551,144,407,-347
,391,2023-10-20 13:05:51.87,-24,-387,-2030,67,-25,38,692,261,431,-476
,392,2023-10-20 13:05:51.88,-38,-379,-2038,66,-33,40,517,144,373,-330
,393,2023-10-20 13:05:51.89,-35,-373,-2045,43,-41,55,640,267,373,-453
,394,2023-10-20 13:05:51.90,-40,-363,-2063,18,-41,61,493,150,343,-321
,395,2023-10-20 13:05:51.91,-27,-310,-2030,1,-45,55,622,267,355,-444
,396,2023-10-20 13:05:51.92,-7,-295,-1996,-10,-40,39,472,140,332,-306
,397,2023-10-20 13:05:51.93,-14,-339,-2021,-13,-27,23,604,270,334,-437
,398,2023-10-20 13:05:51.94,-6,-332,-2036,-3,-17,5,458,141,317,-299
,399,2023-10-20 13:05:51.95,1,-343,-2050,2,-15,2,608,270,338,-439
,400,2023-10-20 13:05:51.96,-25,-362,-2065,15,-16,-4,480,131,349,-305
,401,2023-10-20 13:05:51.97,-25,-356,-2055,22,-35,-1,649,262,387,-455
,402,2023-10-20 13:05:51.98,-25,-357,-2064,16,-53,1,539,128,411,-333
,403,2023-10-20 13:05:51.99,-31,-367,-2026,9,-62,6,658,254,404,-456
,404,2023-10-20 13:05:52.00,-30,-379,-1987,-4,-51,12,489,118,371,-303
,405,2023-10-20 13:05:52.01,-25,-385,-1976,0,-39,24,584,246,338,-415
,406,2023-10-20 13:05:52.02,-24,-370,-2003,0,-20,20,463,117,346,-290
,407,2023-10-20 13:05:52.03,-22,-383,-1998,2,5,25,648,270,378,-459
,408,2023-10-20 13:05:52.04,-19,-313,-1952,29,17,-7,531,133,398,-332
,409,2023-10-20 13:05:52.05,-54,-346,-2012,8,6,1,638,285,353,-461
,410,2023-10-20 13:05:52.06,-29,-384,-2030,17,17,9,477,136,341,-306
,411,2023-10-20 13:05:52.07,-44,-363,-2028,11,0,18,613,293,320,-453
,412,2023-10-20 13:05:52.08,-23,-366,-2037,6,0,21,516,138,378,-327
,413,2023-10-20 13:05:52.09,-27,-359,-2014,0,2,22,743,289,454,-516
,414,2023-10-20 13:05:52.10,-35,-369,-2008,0,-6,20,638,136,502,-387
,415,2023-10-20 13:05:52.11,-19,-359,-2030,3,-7,14,745,283,462,-514
,416,2023-10-20 13:05:52.12,-23,-339,-2036,-3,0,3,566,128,438,-347
,417,2023-10-20 13:05:52.13,-24,-356,-2021,-6,-5,-8,645,273,372,-459
,418,2023-10-20 13:05:52.14,-30,-357,-2045,-11,-11,-15,520,118,402,-319
,419,2023-10-20 13:05:52.15,-39,-356,-2051,-10,-8,-17,616,259,357,-437
,420,2023-10-20 13:05:52.16,-43,-359,-2044,-20,-3,-19,510,108,402,-309
,421,2023-10-20 13:05:52.17,-38,-366,-2030,-34,14,-15,629,269,360,-449
,422,2023-10-20 13:05:52.18,-36,-362,-2023,-34,21,-10,504,113,391,-308
,423,2023-10-20 13:05:52.19,-52,-365,-2018,-35,31,-9,602,263,339,-432
,424,2023-10-20 13:05:52.20,-38,-363,-2020,-23,8,-2,483,104,379,-293
,425,2023-10-20 13:05:52.21,-32,-351,-2021,-18,7,2,582,270,312,-426
,426,2023-10-20 13:05:52.22,-25,-333,-2027,-27,17,4,472,114,358,-293
,427,2023-10-20 13:05:52.23,-41,-327,-2017,-50,51,0,603,286,317,-444
,428,2023-10-20 13:05:52.24,-33,-335,-2010,-61,50,-4,479,110,369,-294
,429,2023-10-20 13:05:52.25,-35,-340,-2014,-53,27,-3,558,265,293,-411
,430,2023-10-20 13:05:52.26,-36,-315,-2012,-42,16,-7,446,90,356,-268
,431,2023-10-20 13:05:52.27,-33,-306,-2014,-40,22,-10,556,258,298,-407
,432,2023-10-20 13:05:52.28,-49,-310,-2040,-36,21,-17,474,99,375,-286
,433,2023-10-20 13:05:52.29,-44,-284,-2036,-18,32,-31,575,262,313,-418
,434,2023-10-20 13:05:52.30,-3,-259,-2022,-10,27,-48,506,107,399,-306
,435,2023-10-20 13:05:52.31,5,-368,-1967,-14,35,-39,635,268,367,-451
,436,2023-10-20 13:05:52.32,-24,-399,-2021,4,45,-18,558,111,447,-334
,437,2023-10-20 13:05:52.33,-13,-348,-2112,8,24,-2,624,270,354,-447
,438,2023-10-20 13:05:52.34,-33,-311,-2111,35,11,-2,575,108,467,-341
,439,2023-10-20 13:05:52.35,0,-327,-2038,31,-24,9,719,259,460,-489
,440,2023-10-20 13:05:52.36,8,-318,-2041,33,-19,2,655,101,554,-378
,441,2023-10-20 13:05:52.37,6,-304,-2060,26,-4,1,729,267,462,-498
,442,2023-10-20 13:05:52.38,-10,-293,-2027,17,24,-11,628,115,513,-371
,443,2023-10-20 13:05:52.39,3,-291,-2001,39,17,-27,667,273,394,-470
,444,2023-10-20 13:05:52.40,12,-276,-2010,61,2,-48,564,120,444,-342
,445,2023-10-20 13:05:52.41,-4,-282,-2025,57,18,-68,624,283,341,-453
,446,2023-10-20 13:05:52.42,-17,-310,-2014,39,30,-89,555,130,425,-342
,447,2023-10-20 13:05:52.43,-21,-333,-2018,44,24,-97,597,281,316,-439
,448,2023-10-20 13:05:52.44,-7,-341,-2024,51,15,-103,514,124,390,-319
,449,2023-10-20 13:05:52.45,-19,-351,-2014,46,27,-103,561,274,287,-417
,450,2023-10-20 13:05:52.46,-14,-356,-2024,46,20,-99,512,122,390,-317
,451,2023-10-20 13:05:52.47,-40,-335,-2041,45,13,-98,587,276,311,-431
,452,2023-10-20 13:05:52.48,-40,-353,-2030,45,14,-98,545,127,418,-336
,453,2023-10-20 13:05:52.49,-33,-386,-2005,52,16,-91,595,284,311,-439
,454,2023-10-20 13:05:52.50,-32,-382,-1990,54,22,-92,535,133,402,-334
,455,2023-10-20 13:05:52.51,-29,-360,-1981,62,10,-95,584,282,302,-433
,456,2023-10-20 13:05:52.52,-31,-348,-2001,64,21,-101,517,132,385,-324
,457,2023-10-20 13:05:52.53,-53,-332,-2020,50,29,-111,562,289,273,-425
,458,2023-10-20 13:05:52.54,-42,-318,-2037,18,42,-128,592,144,448,-368
,459,2023-10-20 13:05:52.55,-33,-320,-2049,-21,38,-149,702,289,413,-495
,460,2023-10-20 13:05:52.56,-36,-350,-2046,-55,29,-161,700,155,545,-427
,461,2023-10-20 13:05:52.57,-53,-387,-2063,-68,26,-167,751,308,443,-529
,462,2023-10-20 13:05:52.58,-54,-359,-2047,-59,21,-172,740,173,567,-456
,463,2023-10-20 13:05:52.59,-54,-344,-2072,-56,16,-182,826,313,513,-569
,464,2023-10-20 13:05:52.60,-58,-373,-2070,-60,14,-186,897,170,727,-533
,465,2023-10-20 13:05:52.61,-42,-372,-2036,-51,7,-195,917,288,629,-602
,466,2023-10-20 13:05:52.62,-50,-360,-2022,-51,24,-194,965,152,813,-558
,467,2023-10-20 13:05:52.63,-42,-336,-2010,-55,46,-201,914,278,636,-596
,468,2023-10-20 13:05:52.64,-43,-344,-2004,-75,65,-201,859,162,697,-510
,469,2023-10-20 13:05:52.65,-9,-382,-1995,-91,91,-195,787,275,512,-531
,470,2023-10-20 13:05:52.66,-82,-382,-2011,-91,134,-183,831,150,681,-490
,471,2023-10-20 13:05:52.67,-57,-347,-2076,-85,106,-177,844,256,588,-550
,472,2023-10-20 13:05:52.68,-44,-364,-2034,-82,77,-165,903,148,755,-525
,473,2023-10-20 13:05:52.69,-1,-403,-1935,-75,79,-152,832,263,569,-547
,474,2023-10-20 13:05:52.70,-19,-405,-1933,-59,141,-162,800,160,640,-480
,475,2023-10-20 13:05:52.71,26,-330,-1920,-55,159,-157,728,255,473,-491
,476,2023-10-20 13:05:52.72,33,-349,-1953,-52,179,-160,798,149,649,-473
,477,2023-10-20 13:05:52.73,18,-348,-1976,-24,176,-151,814,269,545,-541
,478,2023-10-20 13:05:52.74,47,-311,-2000,-23,167,-157,845,192,653,-518
,479,2023-10-20 13:05:52.75,18,-323,-2064,-58,195,-171,782,289,493,-535
,480,2023-10-20 13:05:52.76,35,-319,-2068,-69,177,-168,848,173,675,-510
,481,2023-10-20 13:05:52.77,63,-289,-2069,-88,174,-164,757,247,510,-502
,482,2023-10-20 13:05:52.78,59,-268,-2077,-120,192,-161,724,153,571,-438
,483,2023-10-20 13:05:52.79,83,-262,-2094,-161,203,-163,649,250,399,-449
,484,2023-10-20 13:05:52.80,79,-253,-2096,-188,212,-162,796,158,638,-477
,485,2023-10-20 13:05:52.81,115,-261,-2088,-192,210,-151,839,233,606,-536
,486,2023-10-20 13:05:52.82,106,-267,-2089,-181,198,-143,1017,158,859,-587
,487,2023-10-20 13:05:52.83,123,-263,-2075,-165,188,-138,889,241,648,-565
,488,2023-10-20 13:05:52.84,141,-244,-2071,-138,176,-138,916,163,753,-539
,489,2023-10-20 13:05:52.85,133,-231,-2053,-107,150,-141,781,222,559,-501
,490,2023-10-20 13:05:52.86,156,-228,-2036,-72,129,-146,896,151,745,-523
,491,2023-10-20 13:05:52.87,148,-225,-2055,-42,105,-153,835,226,609,-530
,492,2023-10-20 13:05:52.88,131,-235,-2074,-28,81,-158,989,159,830,-574
,493,2023-10-20 13:05:52.89,138,-261,-2084,-20,67,-158,856,214,642,-535
,494,2023-10-20 13:05:52.90,123,-266,-2077,-21,62,-153,938,164,774,-551
,495,2023-10-20 13:05:52.91,128,-280,-2050,-27,51,-151,791,224,567,-507
,496,2023-10-20 13:05:52.92,140,-273,-2028,-23,48,-148,867,175,692,-521
,497,2023-10-20 13:05:52.93,126,-251,-2029,-15,47,-150,721,216,505,-468
,498,2023-10-20 13:05:52.94,110,-258,-2040,-4,55,-154,760,151,609,-455
,499,2023-10-20 13:05:52.95,147,-215,-1995,10,47,-172,628,179,449,-403
,500,2023-10-20 13:05:52.96,136,-294,-2017,-9,45,-167,791,115,676,-453
,501,2023-10-20 13:05:52.97,134,-398,-2029,2,56,-146,751,154,597,-452
,502,2023-10-20 13:05:52.98,91,-399,-2049,30,60,-114,927,121,806,-524
,503,2023-10-20 13:05:52.99,47,-331,-2082,61,40,-98,777,165,612,-471
,504,2023-10-20 13:05:53.00,94,-352,-2057,73,-16,-79,859,138,721,-498
,505,2023-10-20 13:05:53.01,88,-343,-2000,62,-10,-56,692,170,522,-431
,506,2023-10-20 13:05:53.02,93,-376,-2026,61,4,-45,845,147,698,-496
,507,2023-10-20 13:05:53.03,100,-342,-2020,63,13,-38,722,165,557,-443
,508,2023-10-20 13:05:53.04,95,-334,-2008,75,31,-37,878,150,728,-514
,509,2023-10-20 13:05:53.05,90,-324,-2012,80,35,-49,757,178,579,-467
,510,2023-10-20 13:05:53.06,109,-313,-2013,80,29,-67,886,168,718,-527
,511,2023-10-20 13:05:53.07,118,-299,-2030,79,46,-87,718,181,537,-449
,512,2023-10-20 13:05:53.08,122,-299,-2040,79,51,-113,808,166,642,-487
,513,2023-10-20 13:05:53.09,110,-314,-2056,83,53,-135,636,174,462,-405
,514,2023-10-20 13:05:53.10,105,-300,-2066,89,40,-152,721,166,555,-443
,515,2023-10-20 13:05:53.11,114,-315,-2067,90,24,-166,600,164,436,-382
,516,2023-10-20 13:05:53.12,145,-332,-2043,88,24,-172,713,167,546,-440
,517,2023-10-20 13:05:53.13,126,-340,-2022,85,27,-176,572,158,414,-365
,518,2023-10-20 13:05:53.14,151,-358,-1991,88,43,-178,705,159,546,-432
,519,2023-10-20 13:05:53.15,145,-364,-1977,98,43,-173,576,148,428,-362
,520,2023-10-20 13:05:53.16,159,-354,-1985,103,55,-169,674,167,507,-420
,521,2023-10-20 13:05:53.17,151,-332,-2018,98,55,-166,530,145,385,-337
,522,2023-10-20 13:05:53.18,161,-321,-2058,69,40,-165,627,173,454,-400
,523,2023-10-20 13:05:53.19,144,-312,-2074,29,27,-155,496,145,351,-320
,524,2023-10-20 13:05:53.20,156,-312,-2055,-6,12,-149,646,172,474,-409
,525,2023-10-20 13:05:53.21,152,-310,-2015,-12,-13,-140,555,139,416,-347
,526,2023-10-20 13:05:53.22,139,-294,-2027,-24,-23,-126,842,188,654,-515
,527,2023-10-20 13:05:53.23,143,-313,-2045,-33,-34,-107,743,162,581,-452
,528,2023-10-20 13:05:53.24,136,-302,-2044,-36,-45,-90,959,227,732,-593
,529,2023-10-20 13:05:53.25,138,-318,-2020,-44,-39,-69,768,190,578,-479
,530,2023-10-20 13:05:53.26,144,-306,-2014,-43,-23,-46,970,258,712,-614
,531,2023-10-20 13:05:53.27,160,-315,-2023,-60,-13,-13,827,212,615,-519
,532,2023-10-20 13:05:53.28,127,-320,-2066,-64,10,17,1073,279,794,-676
,533,2023-10-20 13:05:53.29,144,-281,-2087,-69,-7,36,874,212,662,-543
,534,2023-10-20 13:05:53.30,156,-269,-2041,-59,-19,53,1095,286,809,-690
,535,2023-10-20 13:05:53.31,185,-243,-2015,-47,-7,55,835,211,624,-523
,536,2023-10-20 13:05:53.32,186,-239,-1996,-51,20,35,1004,292,712,-648
,537,2023-10-20 13:05:53.33,198,-234,-2031,-34,62,1,810,210,600,-510
,538,2023-10-20 13:05:53.34,209,-181,-2025,-15,80,-48,1049,304,745,-676
,539,2023-10-20 13:05:53.35,193,-226,-2062,-26,78,-65,846,219,627,-532
,540,2023-10-20 13:05:53.36,161,-292,-2119,-13,58,-69,1045,312,733,-678
,541,2023-10-20 13:05:53.37,140,-285,-2141,-6,21,-58,808,216,592,-512
,542,2023-10-20 13:05:53.38,135,-300,-2099,-6,-24,-26,978,313,665,-645
,543,2023-10-20 13:05:53.39,156,-306,-2037,-1,-54,6,741,206,535,-473
,544,2023-10-20 13:05:53.40,174,-295,-1986,-12,-53,32,930,303,627,-616
,545,2023-10-20 13:05:53.41,193,-262,-1945,-6,-35,48,754,202,552,-478
,546,2023-10-20 13:05:53.42,209,-252,-1940,16,-16,52,972,300,672,-636
,547,2023-10-20 13:05:53.43,200,-246,-1984,37,16,48,791,194,597,-492
,548,2023-10-20 13:05:53.44,193,-246,-2043,45,27,41,1007,294,713,-650
,549,2023-10-20 13:05:53.45,176,-270,-2086,58,19,45,790,184,606,-487
,550,2023-10-20 13:05:53.46,150,-292,-2139,60,-7,60,1009,302,707,-655
,551,2023-10-20 13:05:53.47,129,-299,-2145,59,-47,88,790,174,616,-482
,552,2023-10-20 13:05:53.48,120,-325,-2143,59,-90,118,984,280,704,-632
,553,2023-10-20 13:05:53.49,152,-319,-2053,58,-140,145,787,159,628,-473
,554,2023-10-20 13:05:53.50,169,-292,-1970,62,-112,154,1000,278,722,-639
,555,2023-10-20 13:05:53.51,194,-252,-1931,55,-69,144,790,159,631,-474
,556,2023-10-20 13:05:53.52,180,-261,-1956,42,-16,124,965,273,692,-619
,557,2023-10-20 13:05:53.53,172,-261,-2007,44,15,113,736,144,592,-440
,558,2023-10-20 13:05:53.54,156,-275,-2066,41,20,105,917,256,661,-586
,559,2023-10-20 13:05:53.55,129,-297,-2107,36,-3,110,720,138,582,-429
,560,2023-10-20 13:05:53.56,109,-304,-2113,27,-36,114,885,259,626,-572
,561,2023-10-20 13:05:53.57,112,-335,-2101,24,-65,125,669,133,536,-401
,562,2023-10-20 13:05:53.58,101,-351,-2059,31,-83,139,840,259,581,-549
,563,2023-10-20 13:05:53.59,148,-268,-1974,63,-86,120,657,131,526,-394
,564,2023-10-20 13:05:53.60,170,-269,-1936,47,-58,126,813,260,553,-536
,565,2023-10-20 13:05:53.61,190,-355,-1954,37,1,125,622,121,501,-371
,566,2023-10-20 13:05:53.62,117,-361,-2047,26,55,142,759,250,509,-504
,567,2023-10-20 13:05:53.63,114,-324,-2120,25,25,158,595,117,478,-356
,568,2023-10-20 13:05:53.64,89,-316,-2132,36,-14,172,748,248,500,-498
,569,2023-10-20 13:05:53.65,79,-305,-2127,25,-62,175,594,113,481,-353
,570,2023-10-20 13:05:53.66,77,-327,-2118,25,-112,173,751,244,507,-497
,571,2023-10-20 13:05:53.67,66,-380,-2042,28,-143,189,584,108,476,-346
,572,2023-10-20 13:05:53.68,90,-364,-1992,46,-143,195,696,251,445,-473
,573,2023-10-20 13:05:53.69,85,-342,-1959,70,-130,193,552,104,448,-328
,574,2023-10-20 13:05:53.70,77,-304,-1960,83,-106,175,785,241,544,-513
,575,2023-10-20 13:05:53.71,61,-307,-1980,92,-99,157,708,100,608,-404
,576,2023-10-20 13:05:53.72,47,-316,-2017,86,-75,136,944,248,696,-596
,577,2023-10-20 13:05:53.73,40,-328,-2032,79,-69,122,816,109,707,-462
,578,2023-10-20 13:05:53.74,29,-342,-2042,82,-71,104,994,266,728,-630
,579,2023-10-20 13:05:53.75,27,-348,-2026,86,-92,94,804,123,681,-463
,580,2023-10-20 13:05:53.76,35,-355,-2009,92,-89,87,947,278,669,-612
,581,2023-10-20 13:05:53.77,38,-358,-1969,98,-84,87,744,123,621,-433
,582,2023-10-20 13:05:53.78,46,-344,-1951,96,-63,80,864,281,583,-572
,583,2023-10-20 13:05:53.79,47,-339,-1987,97,-48,72,673,122,551,-397
,584,2023-10-20 13:05:53.80,35,-336,-2020,92,-41,64,791,276,515,-533
,585,2023-10-20 13:05:53.81,30,-336,-2043,86,-43,57,640,117,523,-378
,586,2023-10-20 13:05:53.82,30,-339,-2046,71,-51,48,756,277,479,-516
,587,2023-10-20 13:05:53.83,24,-344,-2036,55,-54,45,592,117,475,-354
,588,2023-10-20 13:05:53.84,21,-357,-2041,44,-58,38,708,278,430,-493
,589,2023-10-20 13:05:53.85,32,-343,-2030,43,-58,32,586,122,464,-354
,590,2023-10-20 13:05:53.86,26,-350,-2024,40,-64,27,706,284,422,-495
,591,2023-10-20 13:05:53.87,44,-348,-2018,34,-55,28,585,132,453,-358
,592,2023-10-20 13:05:53.88,47,-337,-2035,22,-44,28,695,284,411,-489
,593,2023-10-20 13:05:53.89,54,-332,-2042,-6,-37,32,582,117,465,-349
,594,2023-10-20 13:05:53.90,38,-359,-2059,-32,-28,43,683,269,414,-476
,595,2023-10-20 13:05:53.91,51,-325,-2043,-26,-25,40,567,115,452,-341
,596,2023-10-20 13:05:53.92,56,-302,-2012,-18,-25,32,694,285,409,-489
,597,2023-10-20 13:05:53.93,60,-296,-2003,-9,-13,18,629,120,509,-374
,598,2023-10-20 13:05:53.94,63,-294,-2047,-22,-7,4,812,287,525,-549
,599,2023-10-20 13:05:53.95,32,-320,-2082,-36,-13,-1,730,125,605,-427
,600,2023-10-20 13:05:53.96,43,-333,-2049,-28,-29,5,834,284,550,-559
,601,2023-10-20 13:05:53.97,33,-352,-2010,-21,-30,10,704,124,580,-414
,602,2023-10-20 13:05:53.98,30,-321,-2043,-28,-27,0,792,291,501,-541
,603,2023-10-20 13:05:53.99,45,-310,-2022,-39,-30,4,682,130,552,-406
,604,2023-10-20 13:05:54.00,58,-316,-1975,-31,-21,2,802,296,506,-549
,605,2023-10-20 13:05:54.01,49,-329,-1972,-36,9,1,720,125,595,-422
,606,2023-10-20 13:05:54.02,56,-345,-2008,-38,51,-15,794,288,506,-541
,607,2023-10-20 13:05:54.03,77,-302,-1999,-22,80,-41,740,150,590,-445
,608,2023-10-20 13:05:54.04,74,-339,-1998,-43,105,-27,853,328,525,-590
,609,2023-10-20 13:05:54.05,64,-370,-2054,-41,125,-21,812,176,636,-494
,610,2023-10-20 13:05:54.06,84,-341,-2063,-55,118,-4,922,348,574,-635
,611,2023-10-20 13:05:54.07,93,-333,-2035,-48,107,10,825,208,617,-516
,612,2023-10-20 13:05:54.08,81,-327,-2023,-33,89,17,922,413,509,-667
,613,2023-10-20 13:05:54.09,89,-303,-2062,-25,64,15,1060,277,783,-668
,614,2023-10-20 13:05:54.10,109,-278,-2058,-11,34,10,1122,440,682,-781
,615,2023-10-20 13:05:54.11,123,-265,-2026,-11,29,-3,1024,246,778,-635
,616,2023-10-20 13:05:54.12,118,-275,-2033,-21,30,-23,1002,386,616,-694
,617,2023-10-20 13:05:54.13,117,-288,-2053,-22,29,-36,904,213,691,-558
,618,2023-10-20 13:05:54.14,110,-300,-2047,-7,19,-41,890,353,537,-621
,619,2023-10-20 13:05:54.15,110,-306,-2041,4,7,-43,800,190,610,-495
,620,2023-10-20 13:05:54.16,119,-313,-2050,7,6,-39,794,339,455,-566
,621,2023-10-20 13:05:54.17,102,-307,-2035,10,5,-36,717,181,536,-449
,622,2023-10-20 13:05:54.18,120,-332,-2049,11,7,-26,720,330,390,-525
,623,2023-10-20 13:05:54.19,104,-329,-2033,14,-4,-15,671,224,447,-447
,624,2023-10-20 13:05:54.20,108,-317,-2028,25,-17,-6,824,431,393,-627
,625,2023-10-20 13:05:54.21,108,-315,-2033,29,-10,2,1095,375,720,-735
,626,2023-10-20 13:05:54.22,88,-311,-2041,24,0,1,1156,564,592,-860
,627,2023-10-20 13:05:54.23,82,-307,-2049,33,-8,-6,1264,459,805,-861
,628,2023-10-20 13:05:54.24,68,-286,-2051,49,-18,-11,1139,581,558,-860
,629,2023-10-20 13:05:54.25,57,-263,-2060,72,-16,-38,1204,448,756,-826
,630,2023-10-20 13:05:54.26,97,-268,-1989,71,-22,-32,1113,556,557,-834
,631,2023-10-20 13:05:54.27,108,-378,-1976,68,-9,-32,1211,400,811,-805
,632,2023-10-20 13:05:54.28,47,-394,-2033,85,17,3,1125,517,608,-821
,633,2023-10-20 13:05:54.29,19,-310,-2095,81,-11,17,1218,357,861,-787
,634,2023-10-20 13:05:54.30,55,-337,-2118,98,-67,23,1106,464,642,-785
,635,2023-10-20 13:05:54.31,51,-322,-2015,84,-112,49,1220,349,871,-784
,636,2023-10-20 13:05:54.32,52,-336,-2015,88,-107,40,1094,484,610,-789
,637,2023-10-20 13:05:54.33,49,-321,-2038,84,-94,42,1218,419,799,-818
,638,2023-10-20 13:05:54.34,50,-303,-2021,97,-105,37,1082,534,548,-808
,639,2023-10-20 13:05:54.35,41,-328,-1994,116,-94,35,1216,483,733,-849
,640,2023-10-20 13:05:54.36,28,-333,-2006,120,-73,30,1083,586,497,-834
,641,2023-10-20 13:05:54.37,28,-337,-2035,121,-52,24,1217,538,679,-877
,642,2023-10-20 13:05:54.38,29,-337,-2039,128,-43,26,1072,623,449,-847
,643,2023-10-20 13:05:54.39,26,-349,-2023,131,-37,21,1222,599,623,-910
,644,2023-10-20 13:05:54.40,31,-348,-2026,128,-29,17,1065,664,401,-864
,645,2023-10-20 13:05:54.41,22,-354,-2019,122,-8,11,1224,634,590,-929
,646,2023-10-20 13:05:54.42,26,-359,-2018,116,-1,4,1072,657,415,-864
,647,2023-10-20 13:05:54.43,24,-360,-2016,111,5,1,1228,563,665,-895
,648,2023-10-20 13:05:54.44,27,-362,-2027,102,10,-6,1070,585,485,-827
,649,2023-10-20 13:05:54.45,41,-367,-2024,93,8,-10,1231,485,746,-858
,650,2023-10-20 13:05:54.46,31,-374,-2024,77,17,-15,1056,527,529,-791
,651,2023-10-20 13:05:54.47,51,-373,-2020,66,23,-18,1223,429,794,-826
,652,2023-10-20 13:05:54.48,44,-381,-2027,54,35,-22,1027,459,568,-743
,653,2023-10-20 13:05:54.49,44,-381,-2010,50,34,-22,1165,368,797,-766
,654,2023-10-20 13:05:54.50,52,-382,-2016,46,35,-19,972,405,567,-688
,655,2023-10-20 13:05:54.51,59,-374,-2017,42,33,-16,1074,324,750,-699
,656,2023-10-20 13:05:54.52,62,-371,-2013,33,35,-15,902,368,534,-635
,657,2023-10-20 13:05:54.53,62,-368,-2025,18,40,-13,913,289,624,-601
,658,2023-10-20 13:05:54.54,51,-374,-2058,-12,37,-14,739,332,407,-535
,659,2023-10-20 13:05:54.55,55,-368,-2076,-32,19,-14,748,260,488,-504
,660,2023-10-20 13:05:54.56,62,-349,-2056,-26,-5,-26,616,309,307,-462
,661,2023-10-20 13:05:54.57,70,-326,-2020,-25,-19,-39,630,248,382,-439
,662,2023-10-20 13:05:54.58,76,-355,-2016,-34,-14,-50,512,285,227,-398
,663,2023-10-20 13:05:54.59,71,-355,-2037,-41,-7,-61,530,231,299,-380
,664,2023-10-20 13:05:54.60,62,-347,-2050,-50,-17,-63,437,265,172,-351
,665,2023-10-20 13:05:54.61,82,-364,-2031,-44,-34,-58,460,218,242,-339
,666,2023-10-20 13:05:54.62,72,-382,-2006,-34,-42,-48,382,252,130,-317
,667,2023-10-20 13:05:54.63,71,-367,-2045,-23,-46,-39,413,209,204,-311
,668,2023-10-20 13:05:54.64,63,-340,-2069,-21,-64,-31,340,236,104,-288
,669,2023-10-20 13:05:54.65,68,-330,-2045,-27,-67,-17,383,205,178,-294
,670,2023-10-20 13:05:54.66,76,-353,-2003,-44,-60,-16,312,242,70,-277
,671,2023-10-20 13:05:54.67,70,-373,-2008,-54,-30,-6,590,266,324,-428
,672,2023-10-20 13:05:54.68,41,-381,-2018,-41,-9,-3,750,313,437,-531
,673,2023-10-20 13:05:54.69,57,-352,-2026,-18,-19,-5,1080,375,705,-727
,674,2023-10-20 13:05:54.70,72,-319,-2009,6,-33,-22,918,379,539,-648
,675,2023-10-20 13:05:54.71,58,-345,-2002,-17,0,-19,1019,356,663,-687
,676,2023-10-20 13:05:54.72,58,-360,-2019,-25,26,-19,827,321,506,-574
,677,2023-10-20 13:05:54.73,60,-372,-2040,-32,11,-11,1001,329,672,-665
,678,2023-10-20 13:05:54.74,38,-367,-2029,-21,10,-5,804,309,495,-556
,679,2023-10-20 13:05:54.75,68,-354,-2013,-2,-13,0,897,312,585,-604
,680,2023-10-20 13:05:54.76,51,-356,-2011,-6,2,-1,734,291,443,-512
,681,2023-10-20 13:05:54.77,51,-360,-2025,-6,10,-4,888,286,602,-587
,682,2023-10-20 13:05:54.78,47,-352,-2033,3,5,-7,742,250,492,-496
,683,2023-10-20 13:05:54.79,60,-344,-2035,3,10,-17,926,262,664,-594
,684,2023-10-20 13:05:54.80,52,-337,-2044,-14,26,-20,768,241,527,-504
,685,2023-10-20 13:05:54.81,54,-352,-2037,-25,32,-25,962,261,701,-611
,686,2023-10-20 13:05:54.82,62,-347,-2034,-27,28,-23,837,232,605,-534
,687,2023-10-20 13:05:54.83,48,-363,-2032,-26,29,-25,1089,261,828,-675
,688,2023-10-20 13:05:54.84,44,-366,-2025,-16,15,-23,908,226,682,-567
,689,2023-10-20 13:05:54.85,56,-363,-2030,-6,-7,-19,1116,262,854,-689
,690,2023-10-20 13:05:54.86,61,-350,-2028,-12,6,-14,897,221,676,-559
,691,2023-10-20 13:05:54.87,53,-346,-2028,-26,20,-15,1079,258,821,-668
,692,2023-10-20 13:05:54.88,34,-346,-2028,-42,34,-14,842,208,634,-525
,693,2023-10-20 13:05:54.89,50,-351,-2025,-43,18,-18,1018,246,772,-632
,694,2023-10-20 13:05:54.90,43,-338,-2018,-27,2,-20,808,198,610,-503
,695,2023-10-20 13:05:54.91,49,-313,-2023,-18,10,-29,989,250,739,-619
,696,2023-10-20 13:05:54.92,28,-306,-2040,-18,28,-43,756,186,570,-471
,697,2023-10-20 13:05:54.93,63,-283,-2009,-2,46,-74,869,244,625,-556
,698,2023-10-20 13:05:54.94,79,-321,-1987,-6,67,-75,668,180,488,-424
,699,2023-10-20 13:05:54.95,74,-402,-1957,9,107,-58,792,242,550,-517
,700,2023-10-20 13:05:54.96,58,-395,-2037,17,141,-46,615,178,437,-396
,701,2023-10-20 13:05:54.97,53,-346,-2101,20,120,-20,786,235,551,-510
,702,2023-10-20 13:05:54.98,62,-322,-2093,10,65,-11,630,164,466,-397
,703,2023-10-20 13:05:54.99,85,-291,-2022,1,33,-8,791,230,561,-510
,704,2023-10-20 13:05:55.00,86,-319,-2024,-5,41,-20,621,157,464,-389
,705,2023-10-20 13:05:55.01,89,-324,-2006,-11,49,-24,829,230,599,-529
,706,2023-10-20 13:05:55.02,85,-311,-2034,1,56,-28,674,148,526,-411
,707,2023-10-20 13:05:55.03,85,-302,-2052,10,50,-39,936,226,710,-581
,708,2023-10-20 13:05:55.04,92,-303,-2062,10,42,-49,843,145,698,-494
,709,2023-10-20 13:05:55.05,87,-319,-2034,9,41,-54,1099,230,869,-664
,710,2023-10-20 13:05:55.06,80,-319,-2039,6,40,-57,847,143,704,-495
,711,2023-10-20 13:05:55.07,91,-314,-2035,6,38,-61,1011,236,775,-623
,712,2023-10-20 13:05:55.08,83,-311,-2020,4,40,-61,770,148,622,-459
,713,2023-10-20 13:05:55.09,89,-311,-2014,2,50,-59,931,242,689,-586
,714,2023-10-20 13:05:55.10,82,-319,-2019,0,58,-61,694,147,547,-420
,715,2023-10-20 13:05:55.11,82,-326,-2033,8,54,-60,810,238,572,-524
,716,2023-10-20 13:05:55.12,85,-325,-2034,23,48,-53,599,134,465,-366
,717,2023-10-20 13:05:55.13,72,-329,-2041,38,33,-51,735,237,498,-486
,718,2023-10-20 13:05:55.14,66,-321,-2042,49,26,-53,578,137,441,-357
,719,2023-10-20 13:05:55.15,76,-314,-2029,57,20,-49,728,239,489,-483
,720,2023-10-20 13:05:55.16,89,-322,-2017,63,20,-53,548,125,423,-336
,721,2023-10-20 13:05:55.17,108,-329,-2015,66,29,-53,696,255,441,-475
,722,2023-10-20 13:05:55.18,99,-329,-2014,72,28,-54,530,140,390,-335
,723,2023-10-20 13:05:55.19,94,-338,-2012,79,34,-56,664,266,398,-465
,724,2023-10-20 13:05:55.20,103,-354,-2014,91,36,-59,507,139,368,-323
,725,2023-10-20 13:05:55.21,98,-346,-2018,96,45,-63,626,259,367,-442
,726,2023-10-20 13:05:55.22,79,-356,-2039,83,61,-70,486,136,350,-311
,727,2023-10-20 13:05:55.23,101,-368,-2029,77,57,-70,606,256,350,-431
,728,2023-10-20 13:05:55.24,105,-356,-2037,75,54,-68,447,129,318,-288
,729,2023-10-20 13:05:55.25,86,-345,-2052,51,50,-71,555,247,308,-401
,730,2023-10-20 13:05:55.26,98,-333,-2045,16,37,-76,442,118,324,-280
,731,2023-10-20 13:05:55.27,121,-344,-2031,-13,46,-83,614,253,361,-433
,732,2023-10-20 13:05:55.28,128,-358,-2008,-27,61,-88,506,124,382,-315
,733,2023-10-20 13:05:55.29,126,-347,-2030,-35,82,-92,650,272,378,-461
,734,2023-10-20 13:05:55.30,125,-345,-2023,-46,92,-91,506,133,373,-319
,735,2023-10-20 13:05:55.31,138,-326,-2025,-53,96,-94,633,275,358,-454
,736,2023-10-20 13:05:55.32,125,-323,-2051,-60,97,-85,488,134,354,-311
,737,2023-10-20 13:05:55.33,122,-326,-2061,-67,83,-74,604,280,324,-442
,738,2023-10-20 13:05:55.34,124,-327,-2048,-70,54,-56,466,139,327,-302
,739,2023-10-20 13:05:55.35,142,-334,-2038,-78,35,-38,597,278,319,-437
,740,2023-10-20 13:05:55.36,118,-315,-2052,-75,41,-25,480,129,351,-304
,741,2023-10-20 13:05:55.37,124,-229,-2129,-78,18,-43,660,283,377,-471
,742,2023-10-20 13:05:55.38,125,-225,-2103,-87,-9,-43,548,127,421,-337
,743,2023-10-20 13:05:55.39,143,-289,-2043,-67,-18,-49,720,268,452,-494
,744,2023-10-20 13:05:55.40,129,-340,-2059,-59,3,-64,595,111,484,-353
,745,2023-10-20 13:05:55.41,144,-279,-1999,-8,-6,-93,702,260,442,-481
,746,2023-10-20 13:05:55.42,100,-328,-2007,6,-23,-87,524,104,420,-314
,747,2023-10-20 13:05:55.43,91,-367,-2005,56,-25,-76,633,254,379,-443
,748,2023-10-20 13:05:55.44,106,-360,-2014,62,-28,-61,514,109,405,-311
,749,2023-10-20 13:05:55.45,96,-362,-2008,65,-12,-44,652,270,382,-461
,750,2023-10-20 13:05:55.46,90,-361,-1991,61,3,-29,548,118,430,-333
,751,2023-10-20 13:05:55.47,100,-349,-1994,50,22,-21,658,275,383,-466
,752,2023-10-20 13:05:55.48,107,-343,-2012,48,17,-21,513,109,404,-311
,753,2023-10-20 13:05:55.49,96,-336,-2013,39,22,-25,602,274,328,-438
,754,2023-10-20 13:05:55.50,107,-340,-2012,29,26,-30,467,121,346,-294
,755,2023-10-20 13:05:55.51,108,-358,-2010,20,31,-38,566,290,276,-428
,756,2023-10-20 13:05:55.52,110,-366,-2004,19,40,-39,496,128,368,-312
,757,2023-10-20 13:05:55.53,117,-384,-1998,23,55,-38,591,271,320,-431
,758,2023-10-20 13:05:55.54,127,-379,-2001,30,69,-34,456,111,345,-283
,759,2023-10-20 13:05:55.55,123,-387,-2008,32,76,-31,532,283,249,-407
,760,2023-10-20 13:05:55.56,121,-382,-2013,31,87,-26,459,121,338,-290
,761,2023-10-20 13:05:55.57,136,-373,-2028,21,103,-18,607,271,336,-439
,762,2023-10-20 13:05:55.58,133,-359,-2056,10,120,-13,557,112,445,-334
,763,2023-10-20 13:05:55.59,133,-352,-2058,-11,122,-11,633,267,366,-450
,764,2023-10-20 13:05:55.60,150,-356,-2058,-27,116,-9,521,110,411,-315
,765,2023-10-20 13:05:55.61,140,-335,-2058,-35,109,-12,580,266,314,-423
,766,2023-10-20 13:05:55.62,153,-313,-2046,-43,115,-26,478,109,369,-293
,767,2023-10-20 13:05:55.63,144,-307,-2042,-53,116,-39,570,279,291,-424
,768,2023-10-20 13:05:55.64,176,-298,-2017,-24,116,-70,483,122,361,-302
,769,2023-10-20 13:05:55.65,217,-295,-1921,9,109,-75,572,278,294,-425
,770,2023-10-20 13:05:55.66,187,-377,-1957,12,135,-59,496,115,381,-305
,771,2023-10-20 13:05:55.67,179,-389,-2068,20,131,-51,554,258,296,-406
,772,2023-10-20 13:05:55.68,170,-336,-2093,36,96,-31,490,106,384,-298
,773,2023-10-20 13:05:55.69,166,-335,-2066,54,58,-17,555,260,295,-407
,774,2023-10-20 13:05:55.70,154,-300,-2045,56,44,-14,493,107,386,-300
,775,2023-10-20 13:05:55.71,173,-340,-2058,44,35,-11,560,268,292,-414
,776,2023-10-20 13:05:55.72,182,-340,-2008,42,21,-1,507,117,390,-312
,777,2023-10-20 13:05:55.73,176,-329,-2016,48,34,3,566,274,292,-420
,778,2023-10-20 13:05:55.74,184,-310,-2028,40,35,-1,515,123,392,-319
,779,2023-10-20 13:05:55.75,196,-319,-2018,32,41,-8,569,276,293,-422
,780,2023-10-20 13:05:55.76,206,-326,-2005,28,62,-14,514,130,384,-322
,781,2023-10-20 13:05:55.77,190,-323,-2016,25,84,-16,560,282,278,-421
,782,2023-10-20 13:05:55.78,191,-329,-2043,18,89,-14,514,141,373,-327
,783,2023-10-20 13:05:55.79,198,-330,-2052,12,91,-2,565,294,271,-429
,784,2023-10-20 13:05:55.80,197,-320,-2068,12,79,6,496,151,345,-323
,785,2023-10-20 13:05:55.81,201,-321,-2072,3,64,19,541,293,248,-417
,786,2023-10-20 13:05:55.82,204,-329,-2079,-3,48,29,502,144,358,-323
,787,2023-10-20 13:05:55.83,198,-325,-2065,-1,25,40,559,291,268,-425
,788,2023-10-20 13:05:55.84,204,-325,-2048,3,6,50,522,147,375,-334
,789,2023-10-20 13:05:55.85,208,-318,-2038,0,0,56,555,288,267,-421
,790,2023-10-20 13:05:55.86,206,-321,-2056,-7,-16,69,536,145,391,-340
,791,2023-10-20 13:05:55.87,208,-338,-2047,-11,-30,83,566,264,302,-415
,792,2023-10-20 13:05:55.88,195,-338,-2047,-5,-40,96,547,136,411,-341
,793,2023-10-20 13:05:55.89,193,-329,-2048,5,-45,101,558,269,289,-413
,794,2023-10-20 13:05:55.90,199,-329,-2037,21,-53,107,562,143,419,-352
,795,2023-10-20 13:05:55.91,192,-338,-2037,40,-65,103,573,271,302,-422
,796,2023-10-20 13:05:55.92,183,-336,-2033,52,-57,98,525,146,379,-335
,797,2023-10-20 13:05:55.93,200,-320,-2024,57,-57,89,548,277,271,-412
,798,2023-10-20 13:05:55.94,209,-345,-2024,58,-66,90,547,147,400,-347
,799,2023-10-20 13:05:55.95,192,-376,-2006,49,-41,102,532,258,274,-395
,800,2023-10-20 13:05:55.96,178,-347,-2045,41,-22,98,504,142,362,-323
,801,2023-10-20 13:05:55.97,175,-320,-2074,14,-28,103,494,259,235,-376
,802,2023-10-20 13:05:55.98,202,-345,-2039,-1,-43,109,475,144,331,-309
,803,2023-10-20 13:05:55.99,198,-410,-2006,-9,-20,126,487,258,229,-372
,804,2023-10-20 13:05:56.00,190,-388,-2021,5,-3,120,504,148,356,-326
,805,2023-10-20 13:05:56.01,192,-327,-2019,36,-21,103,485,250,235,-367
,806,2023-10-20 13:05:56.02,199,-337,-1970,28,-22,115,482,131,351,-306
,807,2023-10-20 13:05:56.03,204,-352,-1993,28,6,105,493,238,255,-365
,808,2023-10-20 13:05:56.04,200,-341,-2013,15,16,113,659,155,504,-407
,809,2023-10-20 13:05:56.05,202,-339,-2023,19,6,110,746,258,488,-502
,810,2023-10-20 13:05:56.06,206,-330,-2023,35,-11,112,838,163,675,-500
,811,2023-10-20 13:05:56.07,200,-321,-2046,34,-28,105,729,247,482,-488
,812,2023-10-20 13:05:56.08,186,-325,-2078,33,-63,102,694,158,536,-426
,813,2023-10-20 13:05:56.09,188,-317,-2095,33,-88,104,610,247,363,-428
,814,2023-10-20 13:05:56.10,179,-327,-2081,29,-118,102,622,160,462,-391
,815,2023-10-20 13:05:56.11,147,-341,-2066,19,-130,102,575,247,328,-411
,816,2023-10-20 13:05:56.12,171,-336,-2046,22,-140,104,616,158,458,-387
,817,2023-10-20 13:05:56.13,162,-336,-2013,27,-140,109,577,234,343,-405
,818,2023-10-20 13:05:56.14,148,-343,-1995,30,-128,109,628,155,473,-391
,819,2023-10-20 13:05:56.15,158,-337,-1988,37,-119,107,565,224,341,-394
,820,2023-10-20 13:05:56.16,132,-345,-2001,43,-105,112,620,155,465,-387
,821,2023-10-20 13:05:56.17,125,-365,-2032,50,-104,120,566,223,343,-394
,822,2023-10-20 13:05:56.18,119,-360,-2036,56,-112,130,740,160,580,-450
,823,2023-10-20 13:05:56.19,119,-370,-2051,57,-107,147,718,224,494,-471
,824,2023-10-20 13:05:56.20,114,-375,-2037,61,-112,162,784,166,618,-475
,825,2023-10-20 13:05:56.21,108,-358,-2031,68,-107,170,660,227,433,-443
,826,2023-10-20 13:05:56.22,107,-347,-2025,76,-107,176,665,73,592,-369
,827,2023-10-20 13:05:56.23,71,-368,-2046,94,-105,175,594,127,467,-360
,828,2023-10-20 13:05:56.24,154,-355,-1974,158,-115,146,640,82,558,-361
,829,2023-10-20 13:05:56.25,126,-406,-1872,194,-78,202,568,182,386,-375
,830,2023-10-20 13:05:56.26,90,-418,-1998,206,-56,216,599,124,475,-361
,831,2023-10-20 13:05:56.27,66,-387,-2135,181,-79,234,527,193,334,-360
,832,2023-10-20 13:05:56.28,81,-356,-2123,156,-140,255,574,131,443,-352
,833,2023-10-20 13:05:56.29,72,-376,-2043,141,-164,266,509,197,312,-353
,834,2023-10-20 13:05:56.30,82,-445,-1998,118,-164,274,551,142,409,-346
,835,2023-10-20 13:05:56.31,80,-401,-1981,111,-132,282,479,201,278,-340
,836,2023-10-20 13:05:56.32,62,-381,-2026,110,-109,272,525,151,374,-338
,837,2023-10-20 13:05:56.33,45,-364,-2010,111,-88,265,460,207,253,-333
,838,2023-10-20 13:05:56.34,64,-366,-1992,115,-62,252,507,151,356,-329
,839,2023-10-20 13:05:56.35,50,-355,-2019,111,-34,230,435,194,241,-314
,840,2023-10-20 13:05:56.36,50,-342,-2019,108,-28,210,499,158,341,-328
,841,2023-10-20 13:05:56.37,35,-349,-2019,106,-34,191,426,198,228,-312
,842,2023-10-20 13:05:56.38,51,-355,-2020,104,-49,168,484,160,324,-322
,843,2023-10-20 13:05:56.39,49,-360,-2019,89,-51,152,409,180,229,-294
,844,2023-10-20 13:05:56.40,52,-361,-2019,76,-56,136,476,153,323,-314
,845,2023-10-20 13:05:56.41,41,-375,-2029,63,-63,116,396,174,222,-285
,846,2023-10-20 13:05:56.42,56,-365,-2013,54,-61,99,466,186,280,-326
,847,2023-10-20 13:05:56.43,66,-376,-2004,45,-69,77,412,209,203,-310
,848,2023-10-20 13:05:56.44,53,-402,-2012,34,-59,67,626,237,389,-431
,849,2023-10-20 13:05:56.45,65,-389,-2026,22,-53,52,564,211,353,-387
,850,2023-10-20 13:05:56.46,50,-374,-2037,3,-44,45,682,225,457,-453
,851,2023-10-20 13:05:56.47,48,-381,-2047,-20,-47,39,530,196,334,-363
,852,2023-10-20 13:05:56.48,41,-391,-2047,-43,-64,38,613,221,392,-417
,853,2023-10-20 13:05:56.49,39,-410,-2032,-51,-74,43,477,187,290,-332
,854,2023-10-20 13:05:56.50,36,-439,-2018,-51,-77,48,580,218,362,-399
,855,2023-10-20 13:05:56.51,51,-424,-2004,-31,-79,54,465,183,282,-324
,856,2023-10-20 13:05:56.52,35,-420,-2013,-27,-84,64,762,216,546,-489
,857,2023-10-20 13:05:56.53,25,-436,-2027,-14,-86,72,723,173,550,-448
,858,2023-10-20 13:05:56.54,25,-407,-2025,-7,-92,73,983,215,768,-599
,859,2023-10-20 13:05:56.55,31,-400,-2019,0,-89,62,790,169,621,-479
,860,2023-10-20 13:05:56.56,17,-398,-2001,8,-86,60,972,217,755,-594
,861,2023-10-20 13:05:56.57,31,-401,-2006,-3,-77,57,763,163,600,-463
,862,2023-10-20 13:05:56.58,34,-432,-1998,-14,-65,66,940,216,724,-578
,863,2023-10-20 13:05:56.59,8,-428,-1996,-13,-44,78,735,159,576,-447
,864,2023-10-20 13:05:56.60,-1,-401,-2046,-22,-42,79,894,228,666,-561
,865,2023-10-20 13:05:56.61,20,-390,-2034,-33,-52,90,679,169,510,-424
,866,2023-10-20 13:05:56.62,1,-400,-1999,-42,-56,95,803,234,569,-518
,867,2023-10-20 13:05:56.63,35,-416,-1983,-48,-37,91,600,162,438,-381
,868,2023-10-20 13:05:56.64,15,-402,-1986,-38,3,86,698,227,471,-462
,869,2023-10-20 13:05:56.65,13,-383,-2025,-21,21,63,529,152,377,-340
,870,2023-10-20 13:05:56.66,21,-361,-2004,-15,22,60,631,214,417,-422
,871,2023-10-20 13:05:56.67,13,-389,-2023,-30,29,52,492,138,354,-315
,872,2023-10-20 13:05:56.68,18,-420,-2042,-41,22,71,706,234,472,-470
,873,2023-10-20 13:05:56.69,26,-413,-2026,-33,12,72,583,158,425,-370
,874,2023-10-20 13:05:56.70,7,-391,-2001,-20,8,84,711,242,469,-476
,875,2023-10-20 13:05:56.71,29,-383,-2009,-18,10,81,533,148,385,-340
,876,2023-10-20 13:05:56.72,41,-377,-2032,-22,13,76,658,236,422,-447
,877,2023-10-20 13:05:56.73,41,-366,-2026,-24,7,72,508,140,368,-324
,878,2023-10-20 13:05:56.74,47,-370,-2020,-29,3,61,625,237,388,-431
,879,2023-10-20 13:05:56.75,28,-382,-2015,-26,3,51,474,135,339,-304
,880,2023-10-20 13:05:56.76,33,-394,-2027,-21,3,42,590,231,359,-410
,881,2023-10-20 13:05:56.77,33,-386,-2017,-16,1,33,444,124,320,-284
,882,2023-10-20 13:05:56.78,39,-389,-2022,-12,-2,29,589,227,362,-408
,883,2023-10-20 13:05:56.79,21,-394,-2021,-1,-6,26,492,156,336,-324
,884,2023-10-20 13:05:56.80,24,-395,-2024,4,-10,27,606,225,381,-415
,885,2023-10-20 13:05:56.81,24,-406,-2024,4,-16,28,459,121,338,-290
,886,2023-10-20 13:05:56.82,33,-403,-2018,4,-16,32,544,199,345,-371
,887,2023-10-20 13:05:56.83,30,-402,-2017,0,-11,39,410,105,305,-257
,888,2023-10-20 13:05:56.84,21,-395,-2017,-10,-5,51,504,199,305,-351
,889,2023-10-20 13:05:56.85,30,-379,-2012,-13,1,49,382,98,284,-240
,890,2023-10-20 13:05:56.86,25,-372,-1995,-13,17,46,468,189,279,-328
,891,2023-10-20 13:05:56.87,28,-346,-1992,-13,29,34,360,97,263,-228
,892,2023-10-20 13:05:56.88,22,-353,-2020,-15,37,26,453,201,252,-327
,893,2023-10-20 13:05:56.89,40,-377,-1991,-3,43,22,340,94,246,-217
,894,2023-10-20 13:05:56.90,36,-400,-2000,6,53,36,432,201,231,-316
,895,2023-10-20 13:05:56.91,30,-403,-2058,5,56,37,325,89,236,-207
,896,2023-10-20 13:05:56.92,35,-385,-2054,8,42,47,429,204,225,-316
,897,2023-10-20 13:05:56.93,31,-364,-2044,7,28,50,327,93,234,-210
,898,2023-10-20 13:05:56.94,35,-370,-2037,7,18,46,426,214,212,-320
,899,2023-10-20 13:05:56.95,43,-366,-2049,2,7,44,318,87,231,-202
,900,2023-10-20 13:05:56.96,38,-349,-2038,4,0,39,413,211,202,-312
,901,2023-10-20 13:05:56.97,15,-320,-2031,1,-13,22,313,90,223,-201
,902,2023-10-20 13:05:56.98,31,-361,-2047,-8,-27,5,414,217,197,-315
,903,2023-10-20 13:05:56.99,21,-360,-2000,-20,-13,1,315,89,226,-202
,904,2023-10-20 13:05:57.00,21,-377,-2008,-19,1,-12,417,223,194,-320
,905,2023-10-20 13:05:57.01,23,-389,-2007,-21,9,-14,314,89,225,-201
,906,2023-10-20 13:05:57.02,19,-394,-2023,-11,16,-9,406,222,184,-314
,907,2023-10-20 13:05:57.03,20,-406,-2026,-2,20,8,310,87,223,-198
,908,2023-10-20 13:05:57.04,23,-412,-2032,-2,18,23,402,210,192,-306
,909,2023-10-20 13:05:57.05,17,-402,-2040,-1,21,44,329,76,253,-202
,910,2023-10-20 13:05:57.06,33,-392,-2030,-1,17,63,576,252,324,-414
,911,2023-10-20 13:05:57.07,14,-391,-2019,-7,18,79,587,109,478,-348
,912,2023-10-20 13:05:57.08,23,-373,-2027,-1,11,93,916,274,642,-595
,913,2023-10-20 13:05:57.09,38,-358,-2024,4,5,96,913,118,795,-515
,914,2023-10-20 13:05:57.10,43,-346,-2011,6,9,95,1074,287,787,-680
,915,2023-10-20 13:05:57.11,41,-340,-2020,5,16,86,848,129,719,-488
,916,2023-10-20 13:05:57.12,21,-332,-2036,-5,39,77,951,298,653,-624
,917,2023-10-20 13:05:57.13,29,-345,-2046,-3,16,64,762,133,629,-447
,918,2023-10-20 13:05:57.14,34,-347,-2055,7,0,57,886,302,584,-594
,919,2023-10-20 13:05:57.15,25,-346,-2054,4,1,49,723,138,585,-430
,920,2023-10-20 13:05:57.16,18,-358,-2028,-5,6,41,874,312,562,-593
,921,2023-10-20 13:05:57.17,14,-359,-2039,-9,8,39,760,152,608,-456
,922,2023-10-20 13:05:57.18,19,-350,-2036,-5,-1,39,927,340,587,-633
,923,2023-10-20 13:05:57.19,22,-363,-2023,5,-23,43,770,192,578,-481
,924,2023-10-20 13:05:57.20,10,-358,-2030,12,-8,42,925,420,505,-672
,925,2023-10-20 13:05:57.21,34,-336,-2025,20,-16,37,986,216,770,-601
,926,2023-10-20 13:05:57.22,30,-348,-2021,12,6,35,1245,385,860,-815
,927,2023-10-20 13:05:57.23,24,-358,-2017,12,14,28,1053,198,855,-625
,928,2023-10-20 13:05:57.24,33,-362,-2018,16,21,26,1092,363,729,-727
,929,2023-10-20 13:05:57.25,31,-360,-2027,26,10,18,886,183,703,-534
,930,2023-10-20 13:05:57.26,41,-354,-2022,32,4,16,961,355,606,-658
,931,2023-10-20 13:05:57.27,50,-363,-2018,28,18,12,796,172,624,-484
,932,2023-10-20 13:05:57.28,35,-365,-2012,26,16,4,865,339,526,-602
,933,2023-10-20 13:05:57.29,49,-371,-2020,24,10,2,716,159,557,-437
,934,2023-10-20 13:05:57.30,47,-359,-2031,21,6,-1,790,335,455,-562
,935,2023-10-20 13:05:57.31,38,-400,-2040,18,-9,5,659,154,505,-406
,936,2023-10-20 13:05:57.32,40,-412,-2051,17,-44,9,720,328,392,-524
,937,2023-10-20 13:05:57.33,37,-423,-2044,24,-70,18,598,149,449,-373
,938,2023-10-20 13:05:57.34,26,-416,-2014,30,-82,28,658,320,338,-489
,939,2023-10-20 13:05:57.35,21,-420,-2026,34,-69,24,552,145,407,-348
,940,2023-10-20 13:05:57.36,25,-416,-2005,34,-55,34,607,314,293,-460
,941,2023-10-20 13:05:57.37,17,-411,-2006,27,-32,45,503,132,371,-317
,942,2023-10-20 13:05:57.38,14,-399,-2019,14,-4,60,550,297,253,-423
,943,2023-10-20 13:05:57.39,8,-384,-2019,-8,17,75,452,117,335,-284
,944,2023-10-20 13:05:57.40,-11,-380,-2032,-21,33,85,495,274,221,-384
,945,2023-10-20 13:05:57.41,9,-372,-2024,-39,31,91,418,97,321,-257
,946,2023-10-20 13:05:57.42,20,-379,-1997,-46,42,93,464,261,203,-362
,947,2023-10-20 13:05:57.43,-12,-341,-2020,-36,58,86,385,88,297,-236
,948,2023-10-20 13:05:57.44,27,-295,-2047,-37,36,62,420,248,172,-334
,949,2023-10-20 13:05:57.45,17,-336,-2026,-31,20,65,344,80,264,-212
,950,2023-10-20 13:05:57.46,21,-335,-2024,-26,17,47,380,236,144,-308
,951,2023-10-20 13:05:57.47,17,-341,-2026,-35,7,22,318,70,248,-194
,952,2023-10-20 13:05:57.48,18,-346,-2037,-14,-7,10,345,218,127,-281
,953,2023-10-20 13:05:57.49,19,-342,-2050,-6,-9,1,302,58,244,-180
,954,2023-10-20 13:05:57.50,14,-346,-2046,-12,-16,7,376,211,165,-293
,955,2023-10-20 13:05:57.51,27,-379,-2032,-31,-7,17,516,167,349,-341
,956,2023-10-20 13:05:57.52,22,-395,-2034,-32,0,33,816,405,411,-610
,957,2023-10-20 13:05:57.53,21,-385,-2034,-20,-3,54,984,282,702,-633
,958,2023-10-20 13:05:57.54,38,-389,-2003,-2,-12,67,977,405,572,-691
,959,2023-10-20 13:05:57.55,42,-378,-2016,30,-25,72,886,248,638,-567
,960,2023-10-20 13:05:57.56,28,-349,-2036,45,-24,70,848,370,478,-609
,961,2023-10-20 13:05:57.57,29,-352,-2040,52,-26,62,880,244,636,-562
,962,2023-10-20 13:05:57.58,45,-343,-2026,50,-20,48,902,379,523,-640
,963,2023-10-20 13:05:57.59,63,-319,-2031,46,-27,31,988,274,714,-631
,964,2023-10-20 13:05:57.60,54,-333,-2002,40,-19,12,956,400,556,-678
,965,2023-10-20 13:05:57.61,54,-338,-2004,30,-8,-10,968,291,677,-629
,966,2023-10-20 13:05:57.62,54,-350,-2019,31,-11,-27,920,405,515,-662
,967,2023-10-20 13:05:57.63,41,-349,-2037,29,-12,-38,993,304,689,-648
,968,2023-10-20 13:05:57.64,21,-358,-2049,16,-15,-43,955,418,537,-686
,969,2023-10-20 13:05:57.65,23,-373,-2035,4,-21,-43,1037,317,720,-677
,970,2023-10-20 13:05:57.66,16,-393,-2037,4,-55,-38,971,427,544,-699
,971,2023-10-20 13:05:57.67,14,-394,-2036,14,-83,-24,1043,337,706,-690
,972,2023-10-20 13:05:57.68,6,-392,-2022,25,-99,-11,968,435,533,-701
,973,2023-10-20 13:05:57.69,-10,-386,-2007,27,-98,0,1057,342,715,-699
,974,2023-10-20 13:05:57.70,-11,-376,-1999,29,-85,6,965,424,541,-694
,975,2023-10-20 13:05:57.71,-27,-375,-2002,32,-70,15,1065,348,717,-706
,976,2023-10-20 13:05:57.72,-35,-372,-2005,46,-62,12,968,433,535,-700
,977,2023-10-20 13:05:57.73,-21,-392,-2016,57,-45,18,1103,354,749,-728
,978,2023-10-20 13:05:57.74,1,-403,-1928,94,-19,18,992,421,571,-706
,979,2023-10-20 13:05:57.75,-26,-401,-1964,95,26,31,1099,345,754,-722
,980,2023-10-20 13:05:57.76,-39,-403,-2059,79,33,43,976,411,565,-693
,981,2023-10-20 13:05:57.77,-38,-363,-2085,58,19,48,1188,412,776,-800
,982,2023-10-20 13:05:57.78,-34,-351,-2049,41,-13,52,1078,507,571,-792
,983,2023-10-20 13:05:57.79,-18,-362,-1996,38,-15,43,1282,532,750,-907
,984,2023-10-20 13:05:57.80,-21,-349,-1983,27,-6,33,1090,579,511,-834
,985,2023-10-20 13:05:57.81,-21,-348,-2023,11,-1,25,1266,599,667,-932
,986,2023-10-20 13:05:57.82,-16,-348,-2022,7,-2,14,1077,597,480,-837
,987,2023-10-20 13:05:57.83,-21,-346,-2011,4,-2,-3,1269,526,743,-897
,988,2023-10-20 13:05:57.84,-5,-341,-2016,-1,8,-20,1070,506,564,-788
,989,2023-10-20 13:05:57.85,-1,-353,-2023,-2,22,-39,1260,444,816,-852
,990,2023-10-20 13:05:57.86,-14,-371,-2044,2,26,-50,1052,448,604,-750
,991,2023-10-20 13:05:57.87,-13,-378,-2040,-3,30,-51,1245,391,854,-818
,992,2023-10-20 13:05:57.88,-12,-380,-2043,-3,31,-43,1012,390,622,-701
,993,2023-10-20 13:05:57.89,-10,-396,-2030,-6,34,-34,1180,334,846,-757
,994,2023-10-20 13:05:57.90,1,-386,-2021,-11,43,-23,960,345,615,-652
,995,2023-10-20 13:05:57.91,17,-371,-2006,-8,43,-18,1106,304,802,-705
,996,2023-10-20 13:05:57.92,29,-357,-2020,-18,60,-17,890,312,578,-601
,997,2023-10-20 13:05:57.93,24,-363,-2037,-28,84,-21,974,271,703,-622
,998,2023-10-20 13:05:57.94,31,-354,-2041,-33,94,-24,772,277,495,-524
,999,2023-10-20 13:05:57.95,43,-356,-2045,-38,93,-27,802,242,560,-522
,1000,2023-10-20 13:05:57.96,24,-375,-2049,-36,82,-20,626,252,374,-439
,1001,2023-10-20 13:05:57.97,33,-369,-2043,-28,65,-18,649,208,441,-428
,1002,2023-10-20 13:05:57.98,42,-353,-2029,-11,52,-15,523,220,303,-371
,1003,2023-10-20 13:05:57.99,49,-359,-2030,6,41,-12,600,212,388,-406
,1004,2023-10-20 13:05:58.00,43,-349,-2025,17,29,-11,501,230,271,-365
,1005,2023-10-20 13:05:58.01,49,-358,-2033,29,22,-5,576,230,346,-403
,1006,2023-10-20 13:05:58.02,37,-347,-2054,35,14,-4,472,233,239,-352
,1007,2023-10-20 13:05:58.03,35,-348,-2052,39,0,-3,547,231,316,-389
,1008,2023-10-20 13:05:58.04,35,-361,-2056,32,-28,4,445,231,214,-338
,1009,2023-10-20 13:05:58.05,38,-382,-2042,28,-55,13,524,237,287,-380
,1010,2023-10-20 13:05:58.06,32,-395,-2026,31,-66,19,416,224,192,-320
,1011,2023-10-20 13:05:58.07,48,-384,-2013,40,-66,19,493,231,262,-362
,1012,2023-10-20 13:05:58.08,40,-379,-2014,37,-55,21,395,215,180,-305
,1013,2023-10-20 13:05:58.09,26,-385,-2037,39,-45,23,472,229,243,-350
,1014,2023-10-20 13:05:58.10,25,-392,-2014,48,-33,27,382,212,170,-297
,1015,2023-10-20 13:05:58.11,19,-384,-2024,46,-28,26,459,235,224,-347
,1016,2023-10-20 13:05:58.12,-4,-388,-2032,45,-26,31,360,204,156,-282
,1017,2023-10-20 13:05:58.13,15,-404,-2036,32,-33,36,446,237,209,-341
,1018,2023-10-20 13:05:58.14,13,-406,-2026,27,-34,43,349,202,147,-275
,1019,2023-10-20 13:05:58.15,-14,-402,-2036,13,-25,44,434,232,202,-333
,1020,2023-10-20 13:05:58.16,-10,-370,-2054,4,-31,36,332,186,146,-259
,1021,2023-10-20 13:05:58.17,3,-359,-2016,0,-35,28,414,220,194,-317
,1022,2023-10-20 13:05:58.18,17,-364,-1981,-16,-30,15,311,176,135,-243
,1023,2023-10-20 13:05:58.19,10,-395,-1987,-31,0,-5,403,223,180,-313
,1024,2023-10-20 13:05:58.20,5,-387,-1997,-22,22,-20,316,168,148,-242
,1025,2023-10-20 13:05:58.21,1,-378,-2001,-27,30,-19,402,215,187,-308
,1026,2023-10-20 13:05:58.22,15,-390,-2017,-25,32,-8,296,156,140,-226
,1027,2023-10-20 13:05:58.23,17,-414,-2021,-31,33,13,401,216,185,-308
,1028,2023-10-20 13:05:58.24,20,-398,-2029,-21,30,22,318,158,160,-238
,1029,2023-10-20 13:05:58.25,7,-382,-2026,-15,32,31,422,214,208,-318
,1030,2023-10-20 13:05:58.26,17,-370,-2041,-6,22,35,314,147,167,-230
,1031,2023-10-20 13:05:58.27,9,-367,-2045,2,8,37,399,207,192,-303
,1032,2023-10-20 13:05:58.28,24,-365,-2034,12,1,33,295,137,158,-216
,1033,2023-10-20 13:05:58.29,12,-368,-2040,17,-8,26,383,202,181,-292
,1034,2023-10-20 13:05:58.30,20,-363,-2024,15,-13,19,287,129,158,-208
,1035,2023-10-20 13:05:58.31,8,-369,-2023,11,-10,16,375,192,183,-283
,1036,2023-10-20 13:05:58.32,19,-373,-2020,8,-6,14,276,111,165,-193
,1037,2023-10-20 13:05:58.33,13,-372,-2022,3,6,14,368,184,184,-276
,1038,2023-10-20 13:05:58.34,15,-366,-2018,-6,13,13,276,103,173,-189
,1039,2023-10-20 13:05:58.35,16,-383,-2014,-11,22,12,374,191,183,-282
,1040,2023-10-20 13:05:58.36,14,-378,-2023,-8,15,15,269,103,166,-186
,1041,2023-10-20 13:05:58.37,14,-371,-2018,-5,16,14,359,186,173,-272
,1042,2023-10-20 13:05:58.38,13,-371,-2030,-12,29,13,252,86,166,-169
,1043,2023-10-20 13:05:58.39,11,-364,-2029,-24,33,11,356,185,171,-270
,1044,2023-10-20 13:05:58.40,4,-362,-2037,-25,35,7,258,90,168,-174
,1045,2023-10-20 13:05:58.41,5,-358,-2033,-24,39,7,354,191,163,-272
,1046,2023-10-20 13:05:58.42,1,-357,-2040,-22,39,3,264,90,174,-177
,1047,2023-10-20 13:05:58.43,-2,-364,-2051,-19,45,-1,363,196,167,-279
,1048,2023-10-20 13:05:58.44,44,-352,-1953,6,66,-14,268,93,175,-180
,1049,2023-10-20 13:05:58.45,17,-375,-1942,4,113,2,379,212,167,-295
,1050,2023-10-20 13:05:58.46,7,-414,-2037,-11,138,11,291,110,181,-200
,1051,2023-10-20 13:05:58.47,12,-364,-2084,-28,122,19,405,233,172,-319
,1052,2023-10-20 13:05:58.48,30,-327,-2060,-36,80,22,336,141,195,-238
,1053,2023-10-20 13:05:58.49,44,-301,-2019,-35,56,3,768,370,398,-569
,1054,2023-10-20 13:05:58.50,50,-260,-2009,-39,57,-31,892,284,608,-588
,1055,2023-10-20 13:05:58.51,59,-201,-2016,-31,61,-91,1184,475,709,-829
,1056,2023-10-20 13:05:58.52,29,-172,-2041,-21,64,-167,957,302,655,-629
,1057,2023-10-20 13:05:58.53,31,-214,-2072,-9,38,-245,1103,442,661,-772
,1058,2023-10-20 13:05:58.54,51,-256,-2048,4,12,-302,901,271,630,-586
,1059,2023-10-20 13:05:58.55,49,-298,-2055,27,-9,-351,1103,434,669,-768
,1060,2023-10-20 13:05:58.56,38,-317,-2046,51,-39,-382,899,268,631,-583
,1061,2023-10-20 13:05:58.57,26,-321,-2019,66,-66,-405,1068,426,642,-747
,1062,2023-10-20 13:05:58.58,39,-342,-2023,70,-75,-422,855,254,601,-554
,1063,2023-10-20 13:05:58.59,37,-368,-2015,68,-77,-426,1026,409,617,-717
,1064,2023-10-20 13:05:58.60,34,-385,-2021,66,-80,-421,825,244,581,-534
,1065,2023-10-20 13:05:58.61,37,-407,-2033,63,-79,-407,998,411,587,-704
,1066,2023-10-20 13:05:58.62,23,-423,-2038,54,-78,-388,799,239,560,-519
,1067,2023-10-20 13:05:58.63,21,-423,-2034,48,-74,-366,950,399,551,-674
,1068,2023-10-20 13:05:58.64,36,-420,-2037,44,-82,-344,751,224,527,-487
,1069,2023-10-20 13:05:58.65,23,-418,-2022,39,-82,-319,911,383,528,-647
,1070,2023-10-20 13:05:58.66,17,-376,-2032,28,-79,-307,765,209,556,-487
,1071,2023-10-20 13:05:58.67,19,-366,-2030,4,-75,-302,921,374,547,-647
,1072,2023-10-20 13:05:58.68,20,-370,-2039,-23,-71,-301,731,203,528,-467
,1073,2023-10-20 13:05:58.69,24,-365,-2026,-57,-46,-298,857,372,485,-614
,1074,2023-10-20 13:05:58.70,14,-397,-2016,-84,-19,-290,687,196,491,-441
,1075,2023-10-20 13:05:58.71,21,-399,-2035,-90,-15,-288,826,370,456,-598
,1076,2023-10-20 13:05:58.72,11,-389,-2034,-75,-22,-283,656,196,460,-426
,1077,2023-10-20 13:05:58.73,23,-358,-2033,-47,-43,-282,764,345,419,-554
,1078,2023-10-20 13:05:58.74,27,-359,-2017,-49,-43,-281,623,162,461,-392
,1079,2023-10-20 13:05:58.75,37,-356,-2022,-52,-41,-289,775,327,448,-551
,1080,2023-10-20 13:05:58.76,40,-356,-2036,-50,-44,-296,655,158,497,-406
,1081,2023-10-20 13:05:58.77,33,-344,-2024,-40,-54,-301,779,324,455,-551
,1082,2023-10-20 13:05:58.78,28,-328,-2021,-42,-45,-314,662,160,502,-411
,1083,2023-10-20 13:05:58.79,62,-330,-2011,-54,-43,-326,852,330,522,-591
,1084,2023-10-20 13:05:58.80,59,-360,-2009,-68,-20,-333,813,215,598,-514
,1085,2023-10-20 13:05:58.81,37,-377,-2028,-68,-8,-341,982,455,527,-718
,1086,2023-10-20 13:05:58.82,30,-353,-2063,-46,-37,-340,958,339,619,-648
,1087,2023-10-20 13:05:58.83,37,-352,-2059,-40,-54,-337,1088,568,520,-828
,1088,2023-10-20 13:05:58.84,44,-362,-2031,-37,-65,-339,1114,371,743,-742
,1089,2023-10-20 13:05:58.85,48,-348,-2011,-52,-36,-352,1185,516,669,-850
,1090,2023-10-20 13:05:58.86,62,-321,-2018,-58,-13,-371,1070,299,771,-684
,1091,2023-10-20 13:05:58.87,60,-345,-1992,-52,1,-382,1108,465,643,-786
,1092,2023-10-20 13:05:58.88,63,-383,-2005,-47,1,-355,1002,275,727,-638
,1093,2023-10-20 13:05:58.89,61,-381,-2045,-50,11,-329,1063,440,623,-751
,1094,2023-10-20 13:05:58.90,56,-392,-2031,-51,21,-299,937,246,691,-591
,1095,2023-10-20 13:05:58.91,56,-391,-2048,-54,8,-272,984,406,578,-695
,1096,2023-10-20 13:05:58.92,60,-399,-2056,-47,-11,-239,830,212,618,-521
,1097,2023-10-20 13:05:58.93,53,-369,-2043,-38,-25,-214,857,375,482,-616
,1098,2023-10-20 13:05:58.94,57,-342,-2043,-44,-36,-192,727,195,532,-461
,1099,2023-10-20 13:05:58.95,60,-345,-2048,-59,-22,-174,758,354,404,-556
,1100,2023-10-20 13:05:58.96,67,-345,-2042,-58,-35,-155,658,182,476,-420
,1101,2023-10-20 13:05:58.97,55,-326,-2036,-72,-11,-141,699,347,352,-523
,1102,2023-10-20 13:05:58.98,68,-321,-2026,-78,-9,-126,604,175,429,-389
,1103,2023-10-20 13:05:58.99,58,-328,-2029,-75,-10,-115,629,328,301,-478
,1104,2023-10-20 13:05:59.00,49,-324,-2014,-59,-18,-99,554,158,396,-356
,1105,2023-10-20 13:05:59.01,59,-323,-2033,-49,-19,-84,586,322,264,-454
,1106,2023-10-20 13:05:59.02,47,-333,-2033,-48,-8,-70,524,160,364,-342
,1107,2023-10-20 13:05:59.03,52,-340,-2039,-44,-5,-48,553,313,240,-433
,1108,2023-10-20 13:05:59.04,54,-346,-2033,-35,-1,-25,500,153,347,-326
,1109,2023-10-20 13:05:59.05,44,-360,-2028,-22,-1,2,526,308,218,-417
,1110,2023-10-20 13:05:59.06,47,-347,-2029,-12,9,27,471,150,321,-310
,1111,2023-10-20 13:05:59.07,33,-361,-2043,-10,21,58,492,297,195,-394
,1112,2023-10-20 13:05:59.08,37,-374,-2054,-8,30,96,449,138,311,-293
,1113,2023-10-20 13:05:59.09,58,-369,-2028,2,39,138,469,277,192,-373
,1114,2023-10-20 13:05:59.10,61,-373,-2017,8,58,183,396,128,268,-262
,1115,2023-10-20 13:05:59.11,71,-360,-2012,8,78,219,378,266,112,-322
,1116,2023-10-20 13:05:59.12,63,-364,-2019,14,91,253,301,108,193,-204
,1117,2023-10-20 13:05:59.13,45,-344,-2029,25,101,281,289,237,52,-263
,1118,2023-10-20 13:05:59.14,58,-348,-2035,37,104,305,266,102,164,-184
,1119,2023-10-20 13:05:59.15,53,-339,-2033,51,104,327,292,247,45,-269
,1120,2023-10-20 13:05:59.16,54,-327,-2049,55,96,340,293,122,171,-207
,1121,2023-10-20 13:05:59.17,63,-333,-2043,54,87,353,328,267,61,-297
,1122,2023-10-20 13:05:59.18,49,-328,-2035,60,88,362,323,134,189,-228
,1123,2023-10-20 13:05:59.19,75,-317,-2006,62,80,370,341,267,74,-304
,1124,2023-10-20 13:05:59.20,62,-330,-2012,63,85,374,331,128,203,-229
,1125,2023-10-20 13:05:59.21,58,-316,-2028,67,80,376,358,268,90,-313
,1126,2023-10-20 13:05:59.22,66,-313,-2039,73,73,370,366,144,222,-255
,1127,2023-10-20 13:05:59.23,54,-320,-2036,75,68,363,381,271,110,-326
,1128,2023-10-20 13:05:59.24,53,-301,-2029,76,60,354,380,146,234,-263
,1129,2023-10-20 13:05:59.25,50,-304,-2036,76,53,343,378,264,114,-321
,1130,2023-10-20 13:05:59.26,59,-317,-2042,73,49,338,384,145,239,-264
,1131,2023-10-20 13:05:59.27,56,-336,-2038,71,56,328,384,263,121,-323
,1132,2023-10-20 13:05:59.28,50,-335,-2032,75,58,326,398,152,246,-275
,1133,2023-10-20 13:05:59.29,56,-342,-2028,74,63,325,385,257,128,-321
,1134,2023-10-20 13:05:59.30,64,-340,-2017,73,69,326,406,155,251,-280
,1135,2023-10-20 13:05:59.31,69,-333,-2015,72,73,320,392,259,133,-325
,1136,2023-10-20 13:05:59.32,76,-328,-2023,77,73,310,413,162,251,-287
,1137,2023-10-20 13:05:59.33,74,-321,-2015,76,80,299,389,256,133,-322
,1138,2023-10-20 13:05:59.34,71,-319,-2023,72,84,286,410,159,251,-284
,1139,2023-10-20 13:05:59.35,70,-313,-2038,64,92,268,382,248,134,-315
,1140,2023-10-20 13:05:59.36,58,-329,-2050,61,75,251,410,158,252,-284
,1141,2023-10-20 13:05:59.37,71,-338,-2064,66,55,239,379,243,136,-311
