// Data mode  : Full
// Data quality  : High
// Acceleration sensor's range  : 16g
// Gyroscope sensor's range  : 2000dps
//
//ARTIFACT,NUM,DATE,ACC_X,ACC_Y,ACC_Z,GYRO_X,GYRO_Y,GYRO_Z,EOG_L,EOG_R,EOG_H,EOG_V
,1,2023-10-27 11:49:47.99,116,-271,-2040,-8,-8,8,-698,-805,107,751
,2,2023-10-27 11:49:48.00,109,-273,-2041,-6,-48,-30,-603,-719,116,661
,3,2023-10-27 11:49:48.01,125,-283,-2044,4,-43,-34,-698,-806,108,752
,4,2023-10-27 11:49:48.02,105,-283,-2042,12,-12,-18,-603,-716,113,659
,5,2023-10-27 11:49:48.03,114,-290,-2044,26,-10,16,-705,-810,105,757
,6,2023-10-27 11:49:48.04,88,-296,-2036,33,-36,23,-599,-711,112,655
,7,2023-10-27 11:49:48.05,107,-298,-2038,31,-95,-8,-706,-808,102,757
,8,2023-10-27 11:49:48.06,92,-303,-2039,36,-70,-1,-595,-711,116,653
,9,2023-10-27 11:49:48.07,75,-298,-2036,42,-26,32,-707,-810,103,758
,10,2023-10-27 11:49:48.08,86,-300,-2042,37,-29,66,-596,-708,112,652
,11,2023-10-27 11:49:48.09,84,-288,-2028,25,-65,58,-704,-807,103,755
,12,2023-10-27 11:49:48.10,90,-282,-2021,11,-39,41,-592,-706,114,649
,13,2023-10-27 11:49:48.11,95,-265,-2028,7,-14,50,-714,-818,104,766
,14,2023-10-27 11:49:48.12,96,-270,-2030,7,9,80,-591,-710,119,650
,15,2023-10-27 11:49:48.13,103,-260,-2033,4,-26,68,-715,-819,104,767
,16,2023-10-27 11:49:48.14,107,-265,-2033,-2,-58,41,-586,-704,118,645
,17,2023-10-27 11:49:48.15,94,-263,-2038,0,-59,19,-717,-821,104,769
,18,2023-10-27 11:49:48.16,95,-257,-2044,6,-9,32,-584,-701,117,642
,19,2023-10-27 11:49:48.17,102,-269,-2048,14,-10,58,-712,-820,108,766
,20,2023-10-27 11:49:48.18,93,-275,-2047,9,-20,57,-576,-697,121,636
,21,2023-10-27 11:49:48.19,90,-282,-2042,7,-62,25,-711,-817,106,764
,22,2023-10-27 11:49:48.20,83,-295,-2043,18,-31,28,-579,-693,114,636
,23,2023-10-27 11:49:48.21,82,-287,-2027,34,-23,38,-724,-825,101,774
,24,2023-10-27 11:49:48.22,80,-289,-2028,46,-3,76,-584,-698,114,641
,25,2023-10-27 11:49:48.23,81,-282,-2012,43,-38,59,-728,-826,98,777
,26,2023-10-27 11:49:48.24,84,-281,-2015,37,-35,35,-587,-696,109,641
,27,2023-10-27 11:49:48.25,73,-293,-2017,41,-6,36,-735,-826,91,780
,28,2023-10-27 11:49:48.26,80,-288,-2012,56,52,67,-591,-693,102,642
,29,2023-10-27 11:49:48.27,73,-280,-2031,63,1,61,-735,-828,93,781
,30,2023-10-27 11:49:48.28,75,-293,-2043,57,-30,35,-585,-693,108,639
,31,2023-10-27 11:49:48.29,77,-292,-2050,56,-14,18,-734,-830,96,782
,32,2023-10-27 11:49:48.30,76,-294,-2040,55,43,40,-581,-691,110,636
,33,2023-10-27 11:49:48.31,68,-308,-2035,51,46,55,-734,-830,96,782
,34,2023-10-27 11:49:48.32,69,-311,-2044,55,-14,52,-580,-692,112,636
,35,2023-10-27 11:49:48.33,70,-292,-2052,44,-52,24,-731,-832,101,781
,36,2023-10-27 11:49:48.34,67,-281,-2050,26,4,21,-575,-692,117,633
,37,2023-10-27 11:49:48.35,68,-279,-2044,1,9,12,-728,-832,104,780
,38,2023-10-27 11:49:48.36,77,-281,-2030,-1,45,42,-573,-688,115,630
,39,2023-10-27 11:49:48.37,86,-280,-2020,-5,12,26,-732,-834,102,783
,40,2023-10-27 11:49:48.38,81,-269,-2012,-7,-5,1,-577,-691,114,634
,41,2023-10-27 11:49:48.39,84,-278,-2018,-5,-12,-27,-739,-839,100,789
,42,2023-10-27 11:49:48.40,81,-276,-2027,-3,17,-31,-577,-692,115,634
,43,2023-10-27 11:49:48.41,98,-277,-2029,9,78,-3,-739,-839,100,789
,44,2023-10-27 11:49:48.42,87,-275,-2042,5,65,5,-581,-697,116,639
,45,2023-10-27 11:49:48.43,81,-268,-2045,-6,44,-8,-743,-842,99,792
,46,2023-10-27 11:49:48.44,85,-272,-2036,-23,15,-42,-582,-698,116,640
,47,2023-10-27 11:49:48.45,81,-284,-2034,-31,22,-51,-740,-841,101,790
,48,2023-10-27 11:49:48.46,96,-283,-2045,-29,48,-38,-579,-694,115,636
,49,2023-10-27 11:49:48.47,87,-280,-2035,-21,67,-12,-739,-840,101,789
,50,2023-10-27 11:49:48.48,93,-287,-2035,-13,-7,-17,-578,-692,114,635
,51,2023-10-27 11:49:48.49,100,-291,-2040,-4,-31,-24,-744,-843,99,793
,52,2023-10-27 11:49:48.50,99,-296,-2038,10,-15,-32,-578,-690,112,634
,53,2023-10-27 11:49:48.51,102,-306,-2035,24,22,-7,-745,-844,99,794
,54,2023-10-27 11:49:48.52,100,-304,-2037,25,26,16,-583,-700,117,641
,55,2023-10-27 11:49:48.53,99,-308,-2044,23,6,28,-742,-843,101,792
,56,2023-10-27 11:49:48.54,96,-304,-2024,14,-23,9,-582,-695,113,638
,57,2023-10-27 11:49:48.55,91,-309,-2020,12,4,34,-741,-842,101,791
,58,2023-10-27 11:49:48.56,105,-306,-2012,1,1,14,-583,-698,115,640
,59,2023-10-27 11:49:48.57,104,-303,-2015,-2,37,13,-741,-845,104,793
,60,2023-10-27 11:49:48.58,99,-287,-2032,-7,33,13,-581,-696,115,638
,61,2023-10-27 11:49:48.59,107,-287,-2051,-15,43,4,-745,-849,104,797
,62,2023-10-27 11:49:48.60,89,-270,-2062,-17,80,19,-582,-696,114,639
,63,2023-10-27 11:49:48.61,103,-278,-2055,-21,72,34,-745,-844,99,794
,64,2023-10-27 11:49:48.62,101,-262,-2050,-25,70,20,-585,-699,114,642
,65,2023-10-27 11:49:48.63,119,-259,-2029,-27,20,15,-744,-843,99,793
,66,2023-10-27 11:49:48.64,98,-265,-2037,-37,-1,-16,-585,-702,117,643
,67,2023-10-27 11:49:48.65,109,-274,-2040,-37,-12,-27,-742,-841,99,791
,68,2023-10-27 11:49:48.66,106,-276,-2049,-34,-39,-47,-588,-701,113,644
,69,2023-10-27 11:49:48.67,102,-282,-2048,-25,-33,-56,-738,-839,101,788
,70,2023-10-27 11:49:48.68,109,-294,-2044,-15,15,-21,-589,-704,115,646
,71,2023-10-27 11:49:48.69,89,-294,-2035,-9,16,-17,-738,-839,101,788
,72,2023-10-27 11:49:48.70,97,-295,-2028,-4,-10,13,-593,-705,112,649
,73,2023-10-27 11:49:48.71,88,-295,-2026,-7,-43,5,-743,-841,98,792
,74,2023-10-27 11:49:48.72,90,-297,-2025,-10,-52,-3,-602,-708,106,655
,75,2023-10-27 11:49:48.73,98,-294,-2024,-6,-40,-2,-748,-842,94,795
,76,2023-10-27 11:49:48.74,79,-302,-2032,-3,-30,14,-603,-713,110,658
,77,2023-10-27 11:49:48.75,77,-302,-2031,10,27,58,-749,-843,94,796
,78,2023-10-27 11:49:48.76,79,-297,-2035,15,27,70,-613,-719,106,666
,79,2023-10-27 11:49:48.77,82,-294,-2035,18,-3,94,-748,-840,92,794
,80,2023-10-27 11:49:48.78,82,-275,-2027,14,-39,68,-610,-716,106,663
,81,2023-10-27 11:49:48.79,94,-274,-2028,13,-36,53,-740,-836,96,788
,82,2023-10-27 11:49:48.80,95,-266,-2022,12,-7,37,-610,-717,107,663
,83,2023-10-27 11:49:48.81,110,-264,-2032,15,43,44,-737,-836,99,786
,84,2023-10-27 11:49:48.82,97,-267,-2035,30,57,57,-610,-717,107,663
,85,2023-10-27 11:49:48.83,78,-264,-2042,37,56,51,-738,-834,96,786
,86,2023-10-27 11:49:48.84,100,-278,-2049,40,21,42,-615,-721,106,668
,87,2023-10-27 11:49:48.85,81,-275,-2046,40,-23,12,-738,-831,93,784
,88,2023-10-27 11:49:48.86,85,-271,-2041,40,-32,8,-617,-723,106,670
,89,2023-10-27 11:49:48.87,103,-273,-2040,28,-12,-14,-734,-826,92,780
,90,2023-10-27 11:49:48.88,93,-274,-2037,13,-16,-22,-620,-723,103,671
,91,2023-10-27 11:49:48.89,104,-284,-2038,7,64,4,-731,-824,93,777
,92,2023-10-27 11:49:48.90,107,-277,-2045,0,72,7,-626,-728,102,677
,93,2023-10-27 11:49:48.91,112,-277,-2038,-6,54,22,-727,-823,96,775
,94,2023-10-27 11:49:48.92,103,-284,-2041,-12,36,14,-628,-730,102,679
,95,2023-10-27 11:49:48.93,106,-284,-2046,-20,34,18,-728,-822,94,775
,96,2023-10-27 11:49:48.94,102,-285,-2042,-25,1,0,-629,-732,103,680
,97,2023-10-27 11:49:48.95,97,-278,-2030,-30,-16,-16,-723,-816,93,769
,98,2023-10-27 11:49:48.96,101,-277,-2035,-31,36,2,-626,-728,102,677
,99,2023-10-27 11:49:48.97,99,-278,-2031,-31,34,5,-715,-809,94,762
,100,2023-10-27 11:49:48.98,110,-270,-2029,-28,61,36,-622,-728,106,675
,101,2023-10-27 11:49:48.99,114,-268,-2029,-29,18,34,-708,-802,94,755
,102,2023-10-27 11:49:49.00,117,-269,-2034,-29,12,27,-634,-738,104,686
,103,2023-10-27 11:49:49.01,110,-262,-2023,-30,1,2,-707,-801,94,754
,104,2023-10-27 11:49:49.02,120,-263,-2036,-26,23,-7,-635,-735,100,685
,105,2023-10-27 11:49:49.03,108,-258,-2044,-15,77,31,-706,-798,92,752
,106,2023-10-27 11:49:49.04,114,-263,-2049,-7,75,26,-641,-740,99,690
,107,2023-10-27 11:49:49.05,112,-268,-2052,-3,20,28,-710,-801,91,755
,108,2023-10-27 11:49:49.06,110,-272,-2047,-5,-19,6,-646,-744,98,695
,109,2023-10-27 11:49:49.07,98,-269,-2046,-1,-31,6,-706,-797,91,751
,110,2023-10-27 11:49:49.08,92,-262,-2045,1,-35,-9,-646,-746,100,696
,111,2023-10-27 11:49:49.09,91,-275,-2036,3,-33,-4,-703,-793,90,748
,112,2023-10-27 11:49:49.10,97,-279,-2038,12,17,23,-656,-752,96,704
,113,2023-10-27 11:49:49.11,94,-283,-2035,12,11,21,-700,-793,93,746
,114,2023-10-27 11:49:49.12,93,-278,-2027,17,26,37,-657,-754,97,705
,115,2023-10-27 11:49:49.13,97,-279,-2022,15,37,46,-693,-786,93,739
,116,2023-10-27 11:49:49.14,103,-276,-2017,12,46,55,-660,-754,94,707
,117,2023-10-27 11:49:49.15,99,-264,-2017,5,49,59,-693,-784,91,738
,118,2023-10-27 11:49:49.16,113,-270,-2033,-1,22,48,-661,-756,95,708
,119,2023-10-27 11:49:49.17,106,-270,-2040,-8,-2,16,-689,-780,91,734
,120,2023-10-27 11:49:49.18,97,-266,-2047,-9,-4,16,-662,-755,93,708
,121,2023-10-27 11:49:49.19,105,-269,-2044,-11,7,14,-684,-777,93,730
,122,2023-10-27 11:49:49.20,118,-265,-2044,-7,18,15,-666,-762,96,714
,123,2023-10-27 11:49:49.21,114,-257,-2033,-1,19,16,-678,-773,95,725
,124,2023-10-27 11:49:49.22,111,-256,-2033,4,33,20,-661,-759,98,710
,125,2023-10-27 11:49:49.23,115,-263,-2041,14,56,31,-671,-765,94,718
,126,2023-10-27 11:49:49.24,115,-265,-2048,15,24,38,-670,-767,97,718
,127,2023-10-27 11:49:49.25,97,-270,-2056,12,30,37,-673,-768,95,720
,128,2023-10-27 11:49:49.26,100,-278,-2049,2,-19,2,-678,-771,93,724
,129,2023-10-27 11:49:49.27,99,-269,-2050,-1,-19,-12,-672,-765,93,718
,130,2023-10-27 11:49:49.28,93,-268,-2040,-4,-7,-13,-684,-774,90,729
,131,2023-10-27 11:49:49.29,93,-273,-2036,-6,18,-4,-667,-763,96,715
,132,2023-10-27 11:49:49.30,93,-283,-2039,-2,41,12,-675,-772,97,723
,133,2023-10-27 11:49:49.31,98,-277,-2020,2,11,30,-654,-754,100,704
,134,2023-10-27 11:49:49.32,97,-278,-1999,-1,54,27,-670,-769,99,719
,135,2023-10-27 11:49:49.33,116,-270,-2005,-5,39,25,-654,-754,100,704
,136,2023-10-27 11:49:49.34,108,-265,-2022,-6,83,27,-680,-778,98,729
,137,2023-10-27 11:49:49.35,106,-274,-2033,-11,43,5,-650,-752,102,701
,138,2023-10-27 11:49:49.36,104,-279,-2046,-4,44,9,-685,-782,97,733
,139,2023-10-27 11:49:49.37,116,-279,-2049,-5,23,-20,-648,-746,98,697
,140,2023-10-27 11:49:49.38,112,-271,-2045,-4,41,-16,-690,-785,95,737
,141,2023-10-27 11:49:49.39,121,-264,-2028,-8,45,-16,-643,-743,100,693
,142,2023-10-27 11:49:49.40,123,-259,-2022,-3,83,1,-692,-789,97,740
,143,2023-10-27 11:49:49.41,119,-262,-2033,-4,100,12,-650,-752,102,701
,144,2023-10-27 11:49:49.42,121,-267,-2050,7,52,19,-694,-790,96,742
,145,2023-10-27 11:49:49.43,134,-258,-2054,10,35,18,-634,-738,104,686
,146,2023-10-27 11:49:49.44,145,-251,-2050,-3,7,0,-690,-787,97,738
,147,2023-10-27 11:49:49.45,140,-265,-2046,-20,0,-27,-632,-736,104,684
,148,2023-10-27 11:49:49.46,148,-267,-2044,-15,11,-30,-696,-795,99,745
,149,2023-10-27 11:49:49.47,135,-271,-2035,-7,35,-14,-628,-733,105,680
,150,2023-10-27 11:49:49.48,128,-266,-2045,2,58,3,-700,-798,98,749
,151,2023-10-27 11:49:49.49,116,-267,-2059,5,10,23,-624,-729,105,676
,152,2023-10-27 11:49:49.50,130,-272,-2052,8,19,37,-703,-801,98,752
,153,2023-10-27 11:49:49.51,118,-275,-2051,3,-36,28,-621,-730,109,675
,154,2023-10-27 11:49:49.52,116,-272,-2047,2,-49,31,-706,-807,101,756
,155,2023-10-27 11:49:49.53,121,-270,-2032,1,-65,30,-621,-730,109,675
,156,2023-10-27 11:49:49.54,108,-268,-2021,1,-60,29,-708,-808,100,758
,157,2023-10-27 11:49:49.55,112,-268,-2013,9,-54,33,-619,-726,107,672
,158,2023-10-27 11:49:49.56,110,-275,-2013,26,13,80,-710,-807,97,758
,159,2023-10-27 11:49:49.57,122,-266,-2008,39,25,78,-614,-720,106,667
,160,2023-10-27 11:49:49.58,124,-260,-2019,47,2,90,-709,-809,100,759
,161,2023-10-27 11:49:49.59,127,-263,-2016,40,-3,71,-611,-718,107,664
,162,2023-10-27 11:49:49.60,130,-265,-2016,34,12,60,-714,-812,98,763
,163,2023-10-27 11:49:49.61,137,-277,-2040,30,34,45,-609,-714,105,661
,164,2023-10-27 11:49:49.62,136,-273,-2058,20,74,55,-719,-814,95,766
,165,2023-10-27 11:49:49.63,130,-283,-2071,26,105,96,-607,-716,109,661
,166,2023-10-27 11:49:49.64,124,-290,-2059,29,84,102,-720,-815,95,767
,167,2023-10-27 11:49:49.65,129,-301,-2063,36,70,106,-603,-713,110,658
,168,2023-10-27 11:49:49.66,133,-290,-2059,42,38,114,-720,-817,97,768
,169,2023-10-27 11:49:49.67,139,-281,-2054,35,39,120,-604,-712,108,658
,170,2023-10-27 11:49:49.68,142,-283,-2046,28,25,122,-725,-821,96,773
,171,2023-10-27 11:49:49.69,152,-280,-2048,29,43,128,-604,-710,106,657
,172,2023-10-27 11:49:49.70,151,-267,-2039,30,-2,110,-726,-820,94,773
,173,2023-10-27 11:49:49.71,151,-265,-2017,35,22,117,-602,-706,104,654
,174,2023-10-27 11:49:49.72,161,-272,-2005,34,22,93,-726,-822,96,774
,175,2023-10-27 11:49:49.73,153,-283,-2012,48,45,81,-590,-695,105,642
,176,2023-10-27 11:49:49.74,160,-292,-2022,69,39,84,-725,-822,97,773
,177,2023-10-27 11:49:49.75,157,-293,-2018,93,71,108,-593,-698,105,645
,178,2023-10-27 11:49:49.76,148,-306,-2026,111,83,133,-732,-826,94,779
,179,2023-10-27 11:49:49.77,155,-313,-2041,118,73,152,-597,-700,103,648
,180,2023-10-27 11:49:49.78,146,-316,-2047,117,69,166,-737,-830,93,783
,181,2023-10-27 11:49:49.79,149,-317,-2039,103,12,162,-598,-705,107,651
,182,2023-10-27 11:49:49.80,151,-317,-2054,89,-13,141,-735,-826,91,780
,183,2023-10-27 11:49:49.81,150,-309,-2051,78,-21,145,-598,-696,98,647
,184,2023-10-27 11:49:49.82,142,-312,-2052,64,20,170,-742,-830,88,786
,185,2023-10-27 11:49:49.83,135,-306,-2047,53,25,187,-600,-698,98,649
,186,2023-10-27 11:49:49.84,123,-313,-2056,40,27,204,-744,-832,88,788
,187,2023-10-27 11:49:49.85,107,-311,-2053,25,13,206,-596,-698,102,647
,188,2023-10-27 11:49:49.86,105,-304,-2044,16,-6,227,-746,-836,90,791
,189,2023-10-27 11:49:49.87,97,-293,-2054,-3,-81,210,-592,-698,106,645
,190,2023-10-27 11:49:49.88,89,-276,-2047,-20,-85,214,-749,-837,88,793
,191,2023-10-27 11:49:49.89,99,-255,-2035,-45,-103,190,-595,-698,103,646
,192,2023-10-27 11:49:49.90,70,-240,-2041,-69,-86,178,-746,-835,89,790
,193,2023-10-27 11:49:49.91,66,-227,-2035,-87,-66,180,-587,-693,106,640
,194,2023-10-27 11:49:49.92,70,-217,-2026,-91,-29,202,-744,-834,90,789
,195,2023-10-27 11:49:49.93,82,-195,-2017,-100,-22,202,-591,-695,104,643
,196,2023-10-27 11:49:49.94,89,-207,-2001,-104,-32,201,-750,-838,88,794
,197,2023-10-27 11:49:49.95,75,-215,-2009,-93,-32,194,-592,-694,102,643
,198,2023-10-27 11:49:49.96,96,-211,-2010,-74,-45,181,-744,-837,93,790
,199,2023-10-27 11:49:49.97,84,-247,-2011,-54,-61,158,-578,-686,108,632
,200,2023-10-27 11:49:49.98,101,-256,-2005,-27,-27,162,-738,-834,96,786
,201,2023-10-27 11:49:49.99,106,-276,-2007,8,-19,154,-579,-690,111,634
,202,2023-10-27 11:49:50.00,109,-289,-2012,50,-5,160,-742,-840,98,791
,203,2023-10-27 11:49:50.01,111,-275,-2012,83,4,171,-579,-687,108,633
,204,2023-10-27 11:49:50.02,134,-299,-1994,113,8,168,-743,-836,93,789
,205,2023-10-27 11:49:50.03,128,-306,-2014,151,31,171,-583,-687,104,635
,206,2023-10-27 11:49:50.04,142,-308,-2012,196,65,197,-750,-838,88,794
,207,2023-10-27 11:49:50.05,149,-315,-2024,218,45,186,-587,-693,106,640
,208,2023-10-27 11:49:50.06,135,-324,-2039,227,64,213,-746,-836,90,791
,209,2023-10-27 11:49:50.07,130,-339,-2054,224,23,216,-578,-684,106,631
,210,2023-10-27 11:49:50.08,116,-350,-2068,213,4,217,-735,-829,94,782
,211,2023-10-27 11:49:50.09,109,-360,-2078,191,-39,203,-571,-680,109,625
,212,2023-10-27 11:49:50.10,93,-371,-2094,166,-63,209,-730,-830,100,780
,213,2023-10-27 11:49:50.11,101,-359,-2084,139,-61,223,-567,-677,110,622
,214,2023-10-27 11:49:50.12,94,-349,-2068,100,-80,237,-717,-824,107,770
,215,2023-10-27 11:49:50.13,102,-342,-2039,68,-50,261,-544,-666,122,605
,216,2023-10-27 11:49:50.14,87,-328,-2022,38,-27,285,-705,-814,109,759
,217,2023-10-27 11:49:50.15,100,-319,-2007,3,-17,269,-556,-677,121,616
,218,2023-10-27 11:49:50.16,88,-321,-1999,-18,-4,282,-720,-828,108,774
,219,2023-10-27 11:49:50.17,111,-307,-2019,-34,-17,263,-554,-680,126,617
,220,2023-10-27 11:49:50.18,93,-315,-2024,-46,-11,246,-719,-824,105,771
,221,2023-10-27 11:49:50.19,98,-320,-2011,-54,-28,215,-561,-681,120,621
,222,2023-10-27 11:49:50.20,96,-322,-2019,-44,-25,192,-721,-827,106,774
,223,2023-10-27 11:49:50.21,106,-318,-2000,-34,30,189,-559,-679,120,619
,224,2023-10-27 11:49:50.22,102,-326,-1995,-24,31,175,-716,-822,106,769
,225,2023-10-27 11:49:50.23,109,-313,-2009,3,77,197,-572,-687,115,629
,226,2023-10-27 11:49:50.24,86,-324,-2021,15,36,196,-730,-833,103,781
,227,2023-10-27 11:49:50.25,88,-312,-2036,25,26,190,-582,-693,111,637
,228,2023-10-27 11:49:50.26,79,-311,-2056,22,-26,161,-730,-829,99,779
,229,2023-10-27 11:49:50.27,91,-295,-2066,22,-54,151,-575,-688,113,631
,230,2023-10-27 11:49:50.28,66,-284,-2076,6,-52,139,-723,-825,102,774
,231,2023-10-27 11:49:50.29,58,-298,-2075,-15,-61,132,-578,-694,116,636
,232,2023-10-27 11:49:50.30,56,-285,-2069,-31,-22,143,-729,-829,100,779
,233,2023-10-27 11:49:50.31,53,-286,-2045,-37,1,175,-585,-700,115,642
,234,2023-10-27 11:49:50.32,63,-273,-2035,-50,33,158,-729,-827,98,778
,235,2023-10-27 11:49:50.33,73,-263,-2010,-58,16,155,-591,-701,110,646
,236,2023-10-27 11:49:50.34,76,-268,-2013,-57,23,139,-728,-828,100,778
,237,2023-10-27 11:49:50.35,66,-269,-2033,-49,34,131,-594,-706,112,650
,238,2023-10-27 11:49:50.36,71,-273,-2042,-35,17,112,-728,-832,104,780
,239,2023-10-27 11:49:50.37,72,-277,-2035,-24,-17,78,-597,-709,112,653
,240,2023-10-27 11:49:50.38,79,-284,-2026,-7,-7,62,-729,-831,102,780
,241,2023-10-27 11:49:50.39,72,-286,-2031,15,-20,49,-601,-712,111,656
,242,2023-10-27 11:49:50.40,64,-290,-2029,25,4,52,-731,-832,101,781
,243,2023-10-27 11:49:50.41,66,-304,-2022,42,28,59,-604,-716,112,660
,244,2023-10-27 11:49:50.42,72,-305,-2020,46,-2,43,-727,-827,100,777
,245,2023-10-27 11:49:50.43,70,-305,-2008,53,50,64,-604,-718,114,661
,246,2023-10-27 11:49:50.44,76,-313,-2009,50,60,66,-724,-825,101,774
,247,2023-10-27 11:49:50.45,73,-317,-2017,46,50,77,-609,-720,111,664
,248,2023-10-27 11:49:50.46,78,-325,-2014,39,21,70,-721,-823,102,772
,249,2023-10-27 11:49:50.47,83,-321,-2010,26,-1,54,-612,-724,112,668
,250,2023-10-27 11:49:50.48,89,-329,-2025,17,1,25,-718,-822,104,770
,251,2023-10-27 11:49:50.49,93,-340,-2038,15,10,30,-617,-727,110,672
,252,2023-10-27 11:49:50.50,98,-344,-2043,22,49,56,-719,-823,104,771
,253,2023-10-27 11:49:50.51,96,-350,-2038,16,30,75,-622,-731,109,676
,254,2023-10-27 11:49:50.52,98,-346,-2038,8,5,67,-724,-822,98,773
,255,2023-10-27 11:49:50.53,87,-342,-2049,-9,-25,41,-629,-736,107,682
,256,2023-10-27 11:49:50.54,89,-340,-2033,-16,8,59,-720,-817,97,768
,257,2023-10-27 11:49:50.55,80,-327,-2025,-25,10,61,-625,-733,108,679
,258,2023-10-27 11:49:50.56,88,-317,-2036,-21,42,81,-710,-811,101,760
,259,2023-10-27 11:49:50.57,92,-318,-2018,-26,42,100,-623,-733,110,678
,260,2023-10-27 11:49:50.58,96,-325,-2020,-25,57,96,-697,-802,105,749
,261,2023-10-27 11:49:50.59,97,-314,-2016,-25,39,100,-623,-733,110,678
,262,2023-10-27 11:49:50.60,98,-314,-2004,-25,22,91,-692,-800,108,746
,263,2023-10-27 11:49:50.61,84,-330,-2032,-23,-7,76,-620,-732,112,676
,264,2023-10-27 11:49:50.62,80,-332,-2038,-16,-9,76,-692,-799,107,745
,265,2023-10-27 11:49:50.63,83,-319,-2035,-1,-31,78,-634,-741,107,687
,266,2023-10-27 11:49:50.64,89,-315,-2049,9,-50,66,-709,-809,100,759
,267,2023-10-27 11:49:50.65,88,-318,-2055,10,-61,72,-647,-748,101,697
,268,2023-10-27 11:49:50.66,67,-302,-2079,4,-57,63,-704,-798,94,751
,269,2023-10-27 11:49:50.67,80,-305,-2076,-9,-36,68,-640,-745,105,692
,270,2023-10-27 11:49:50.68,68,-295,-2061,-21,-31,67,-687,-788,101,737
,271,2023-10-27 11:49:50.69,74,-296,-2039,-22,-14,76,-637,-744,107,690
,272,2023-10-27 11:49:50.70,77,-296,-2012,-15,-15,68,-683,-784,101,733
,273,2023-10-27 11:49:50.71,74,-292,-2007,0,-4,91,-649,-753,104,701
,274,2023-10-27 11:49:50.72,61,-282,-2027,6,13,85,-683,-782,99,732
,275,2023-10-27 11:49:50.73,58,-293,-2026,14,-8,72,-650,-752,102,701
,276,2023-10-27 11:49:50.74,63,-286,-2036,14,-41,33,-678,-777,99,727
,277,2023-10-27 11:49:50.75,63,-282,-2036,23,-48,27,-655,-756,101,705
,278,2023-10-27 11:49:50.76,54,-286,-2034,27,-44,5,-676,-776,100,726
,279,2023-10-27 11:49:50.77,71,-291,-2027,27,-36,2,-651,-753,102,702
,280,2023-10-27 11:49:50.78,68,-297,-2032,32,-8,11,-665,-770,105,717
,281,2023-10-27 11:49:50.79,54,-307,-2025,41,-11,13,-652,-759,107,705
,282,2023-10-27 11:49:50.80,57,-320,-2019,62,-9,34,-665,-768,103,716
,283,2023-10-27 11:49:50.81,57,-310,-2012,74,-51,43,-656,-759,103,707
,284,2023-10-27 11:49:50.82,48,-313,-2020,71,-37,48,-659,-763,104,711
,285,2023-10-27 11:49:50.83,55,-322,-2014,66,-64,35,-659,-766,107,712
,286,2023-10-27 11:49:50.84,58,-327,-2012,63,-6,43,-656,-760,104,708
,287,2023-10-27 11:49:50.85,53,-343,-2021,61,-28,45,-665,-768,103,716
,288,2023-10-27 11:49:50.86,54,-343,-2016,57,-6,53,-655,-757,102,706
,289,2023-10-27 11:49:50.87,59,-349,-2027,40,-30,42,-672,-772,100,722
,290,2023-10-27 11:49:50.88,61,-350,-2031,30,-37,21,-657,-761,104,709
,291,2023-10-27 11:49:50.89,53,-349,-2035,17,-29,34,-679,-779,100,729
,292,2023-10-27 11:49:50.90,66,-352,-2037,10,3,37,-649,-757,108,703
,293,2023-10-27 11:49:50.91,62,-342,-2048,2,37,59,-672,-776,104,724
,294,2023-10-27 11:49:50.92,68,-334,-2050,-7,61,76,-638,-746,108,692
,295,2023-10-27 11:49:50.93,70,-331,-2055,-20,62,98,-667,-772,105,719
,296,2023-10-27 11:49:50.94,83,-327,-2048,-35,41,98,-635,-743,108,689
,297,2023-10-27 11:49:50.95,84,-319,-2040,-53,-8,56,-675,-781,106,728
,298,2023-10-27 11:49:50.96,86,-319,-2036,-64,-11,55,-636,-740,104,688
,299,2023-10-27 11:49:50.97,90,-318,-2036,-67,-10,39,-682,-787,105,734
,300,2023-10-27 11:49:50.98,73,-318,-2035,-72,16,51,-635,-740,105,687
,301,2023-10-27 11:49:50.99,64,-318,-2038,-75,-2,44,-690,-789,99,739
,302,2023-10-27 11:49:51.00,58,-313,-2039,-76,37,69,-637,-738,101,687
,303,2023-10-27 11:49:51.01,59,-303,-2035,-78,46,87,-693,-791,98,742
,304,2023-10-27 11:49:51.02,57,-294,-2034,-85,37,95,-628,-737,109,682
,305,2023-10-27 11:49:51.03,56,-296,-2022,-90,45,104,-694,-794,100,744
,306,2023-10-27 11:49:51.04,49,-284,-2008,-94,-4,96,-635,-738,103,686
,307,2023-10-27 11:49:51.05,46,-285,-2006,-82,-43,72,-709,-808,99,758
,308,2023-10-27 11:49:51.06,40,-271,-2017,-54,-46,83,-630,-738,108,684
,309,2023-10-27 11:49:51.07,51,-266,-2026,-35,-64,53,-702,-805,103,753
,310,2023-10-27 11:49:51.08,58,-273,-2020,-24,-24,47,-626,-730,104,678
,311,2023-10-27 11:49:51.09,69,-261,-2027,-13,-16,37,-709,-806,97,757
,312,2023-10-27 11:49:51.10,74,-272,-2028,-4,50,46,-628,-730,102,679
,313,2023-10-27 11:49:51.11,65,-284,-2018,11,80,48,-712,-808,96,760
,314,2023-10-27 11:49:51.12,80,-286,-2038,32,64,61,-620,-727,107,673
,315,2023-10-27 11:49:51.13,89,-285,-2035,54,58,51,-716,-814,98,765
,316,2023-10-27 11:49:51.14,88,-289,-2054,66,35,50,-629,-738,109,683
,317,2023-10-27 11:49:51.15,81,-281,-2061,63,8,38,-740,-835,95,787
,318,2023-10-27 11:49:51.16,76,-287,-2066,53,21,44,-648,-751,103,699
,319,2023-10-27 11:49:51.17,67,-320,-2066,38,-25,26,-743,-834,91,788
,320,2023-10-27 11:49:51.18,59,-330,-2057,55,-46,42,-629,-734,105,681
,321,2023-10-27 11:49:51.19,50,-333,-2029,62,-67,57,-730,-823,93,776
,322,2023-10-27 11:49:51.20,66,-328,-2025,63,-53,78,-616,-721,105,668
,323,2023-10-27 11:49:51.21,60,-317,-2014,48,-15,84,-719,-814,95,766
,324,2023-10-27 11:49:51.22,54,-314,-2006,32,-33,88,-599,-707,108,653
,325,2023-10-27 11:49:51.23,53,-317,-2022,13,13,94,-711,-807,96,759
,326,2023-10-27 11:49:51.24,39,-315,-2046,0,17,96,-595,-703,108,649
,327,2023-10-27 11:49:51.25,39,-326,-2043,-16,5,79,-713,-810,97,761
,328,2023-10-27 11:49:51.26,28,-330,-2048,-21,11,97,-593,-700,107,646
,329,2023-10-27 11:49:51.27,33,-324,-2036,-25,14,105,-713,-812,99,762
,330,2023-10-27 11:49:51.28,48,-313,-2038,-26,16,120,-589,-698,109,643
,331,2023-10-27 11:49:51.29,53,-306,-2015,-32,-25,117,-714,-815,101,764
,332,2023-10-27 11:49:51.30,46,-301,-2015,-32,48,120,-587,-695,108,641
,333,2023-10-27 11:49:51.31,44,-301,-2019,-32,51,129,-718,-817,99,767
,334,2023-10-27 11:49:51.32,42,-307,-2027,-23,38,128,-586,-693,107,639
,335,2023-10-27 11:49:51.33,48,-311,-2039,-19,6,109,-724,-819,95,771
,336,2023-10-27 11:49:51.34,49,-301,-2037,-10,8,113,-587,-697,110,642
,337,2023-10-27 11:49:51.35,55,-296,-2036,-8,-4,105,-730,-825,95,777
,338,2023-10-27 11:49:51.36,47,-291,-2030,-11,-10,82,-592,-701,109,646
,339,2023-10-27 11:49:51.37,53,-294,-2027,-10,-12,87,-737,-825,88,781
,340,2023-10-27 11:49:51.38,50,-292,-2026,-4,-7,71,-593,-697,104,645
,341,2023-10-27 11:49:51.39,59,-290,-2019,1,-8,66,-734,-826,92,780
,342,2023-10-27 11:49:51.40,80,-292,-2015,1,-20,61,-586,-694,108,640
,343,2023-10-27 11:49:51.41,58,-284,-2018,-3,9,63,-737,-829,92,783
,344,2023-10-27 11:49:51.42,80,-298,-2037,-6,39,72,-592,-698,106,645
,345,2023-10-27 11:49:51.43,71,-295,-2054,-1,55,100,-738,-832,94,785
,346,2023-10-27 11:49:51.44,66,-314,-2063,-2,47,88,-584,-694,110,639
,347,2023-10-27 11:49:51.45,65,-313,-2059,3,38,103,-736,-833,97,784
,348,2023-10-27 11:49:51.46,69,-300,-2053,4,16,117,-592,-700,108,646
,349,2023-10-27 11:49:51.47,78,-295,-2034,-1,25,104,-741,-837,96,789
,350,2023-10-27 11:49:51.48,62,-293,-2040,4,13,119,-588,-696,108,642
,351,2023-10-27 11:49:51.49,57,-283,-2045,5,-2,124,-743,-839,96,791
,352,2023-10-27 11:49:51.50,74,-272,-2044,1,-10,118,-591,-699,108,645
,353,2023-10-27 11:49:51.51,56,-268,-2040,-12,6,119,-751,-842,91,796
,354,2023-10-27 11:49:51.52,57,-274,-2027,-16,-14,113,-592,-696,104,644
,355,2023-10-27 11:49:51.53,59,-274,-2033,-18,-27,102,-752,-842,90,797
,356,2023-10-27 11:49:51.54,57,-281,-2026,-22,22,88,-588,-695,107,641
,357,2023-10-27 11:49:51.55,51,-285,-2032,-18,13,96,-742,-835,93,788
,358,2023-10-27 11:49:51.56,53,-274,-2026,-10,-13,92,-575,-685,110,630
,359,2023-10-27 11:49:51.57,55,-269,-2037,-6,5,88,-738,-833,95,785
,360,2023-10-27 11:49:51.58,55,-280,-2034,-2,-22,83,-581,-691,110,636
,361,2023-10-27 11:49:51.59,60,-280,-2036,7,-41,75,-744,-835,91,789
,362,2023-10-27 11:49:51.60,56,-277,-2034,3,-68,40,-581,-687,106,634
,363,2023-10-27 11:49:51.61,41,-279,-2039,17,-35,63,-744,-834,90,789
,364,2023-10-27 11:49:51.62,38,-282,-2052,17,-45,51,-587,-689,102,638
,365,2023-10-27 11:49:51.63,39,-291,-2055,17,-71,38,-750,-838,88,794
,366,2023-10-27 11:49:51.64,36,-288,-2065,30,-62,56,-590,-690,100,640
,367,2023-10-27 11:49:51.65,20,-279,-2049,16,-80,30,-750,-838,88,794
,368,2023-10-27 11:49:51.66,20,-302,-2032,19,-75,29,-589,-689,100,639
,369,2023-10-27 11:49:51.67,27,-295,-2021,19,-57,42,-751,-837,86,794
,370,2023-10-27 11:49:51.68,21,-304,-2021,20,-57,38,-586,-687,101,636
,371,2023-10-27 11:49:51.69,7,-304,-2032,26,-31,52,-748,-835,87,791
,372,2023-10-27 11:49:51.70,7,-304,-2036,39,3,75,-585,-687,102,636
,373,2023-10-27 11:49:51.71,5,-301,-2040,34,-3,68,-746,-837,91,791
,374,2023-10-27 11:49:51.72,14,-293,-2025,36,25,92,-581,-688,107,634
,375,2023-10-27 11:49:51.73,17,-296,-2022,31,33,98,-741,-834,93,787
,376,2023-10-27 11:49:51.74,8,-292,-2021,31,30,97,-581,-689,108,635
,377,2023-10-27 11:49:51.75,15,-293,-2029,32,9,96,-740,-833,93,786
,378,2023-10-27 11:49:51.76,15,-298,-2032,31,2,95,-584,-689,105,636
,379,2023-10-27 11:49:51.77,26,-295,-2029,24,-34,76,-739,-832,93,785
,380,2023-10-27 11:49:51.78,6,-292,-2026,20,-5,82,-589,-691,102,640
,381,2023-10-27 11:49:51.79,15,-301,-2033,10,-26,60,-737,-833,96,785
,382,2023-10-27 11:49:51.80,17,-296,-2031,5,-32,37,-585,-691,106,638
,383,2023-10-27 11:49:51.81,28,-294,-2024,0,-31,29,-735,-832,97,783
,384,2023-10-27 11:49:51.82,17,-299,-2022,6,-28,27,-587,-693,106,640
,385,2023-10-27 11:49:51.83,27,-300,-2034,11,-20,18,-742,-836,94,789
,386,2023-10-27 11:49:51.84,8,-284,-2040,10,0,16,-594,-698,104,646
,387,2023-10-27 11:49:51.85,18,-298,-2034,3,10,16,-740,-831,91,785
,388,2023-10-27 11:49:51.86,19,-286,-2034,4,16,12,-588,-692,104,640
,389,2023-10-27 11:49:51.87,11,-288,-2023,15,61,41,-734,-829,95,781
,390,2023-10-27 11:49:51.88,18,-287,-2028,12,60,24,-588,-700,112,644
,391,2023-10-27 11:49:51.89,14,-289,-2025,9,55,29,-732,-829,97,780
,392,2023-10-27 11:49:51.90,22,-291,-2027,0,32,1,-588,-698,110,643
,393,2023-10-27 11:49:51.91,16,-288,-2033,6,50,11,-729,-827,98,778
,394,2023-10-27 11:49:51.92,19,-285,-2038,0,44,2,-593,-704,111,648
,395,2023-10-27 11:49:51.93,25,-288,-2031,0,62,9,-729,-830,101,779
,396,2023-10-27 11:49:51.94,27,-292,-2031,-3,74,21,-594,-709,115,651
,397,2023-10-27 11:49:51.95,33,-289,-2036,-9,33,-15,-726,-825,99,775
,398,2023-10-27 11:49:51.96,27,-295,-2036,-3,54,-6,-594,-705,111,649
,399,2023-10-27 11:49:51.97,42,-290,-2044,5,49,-4,-720,-820,100,770
,400,2023-10-27 11:49:51.98,34,-289,-2042,5,57,-1,-595,-706,111,650
,401,2023-10-27 11:49:51.99,32,-282,-2051,6,61,-4,-719,-823,104,771
,402,2023-10-27 11:49:52.00,39,-285,-2058,10,68,1,-601,-715,114,658
,403,2023-10-27 11:49:52.01,32,-291,-2057,12,37,11,-717,-823,106,770
,404,2023-10-27 11:49:52.02,35,-292,-2055,7,8,-31,-600,-712,112,656
,405,2023-10-27 11:49:52.03,26,-294,-2039,21,33,-20,-713,-819,106,766
,406,2023-10-27 11:49:52.04,38,-303,-2038,28,36,-28,-602,-714,112,658
,407,2023-10-27 11:49:52.05,41,-313,-2028,33,51,-32,-718,-820,102,769
,408,2023-10-27 11:49:52.06,26,-306,-2040,38,47,-60,-611,-721,110,666
,409,2023-10-27 11:49:52.07,31,-287,-2032,43,45,-69,-720,-819,99,769
,410,2023-10-27 11:49:52.08,44,-270,-2024,50,36,-67,-619,-725,106,672
,411,2023-10-27 11:49:52.09,42,-286,-2015,45,23,-97,-719,-815,96,767
,412,2023-10-27 11:49:52.10,34,-304,-2013,46,15,-96,-613,-723,110,668
,413,2023-10-27 11:49:52.11,28,-315,-2000,55,-12,-106,-705,-807,102,756
,414,2023-10-27 11:49:52.12,20,-339,-1994,80,-34,-111,-616,-730,114,673
,415,2023-10-27 11:49:52.13,22,-336,-1990,93,-46,-112,-708,-810,102,759
,416,2023-10-27 11:49:52.14,27,-322,-1997,90,-45,-120,-621,-731,110,676
,417,2023-10-27 11:49:52.15,15,-336,-1985,65,-38,-148,-702,-802,100,752
,418,2023-10-27 11:49:52.16,11,-339,-2006,48,28,-135,-622,-730,108,676
,419,2023-10-27 11:49:52.17,9,-358,-2027,30,28,-160,-696,-801,105,748
,420,2023-10-27 11:49:52.18,16,-357,-2035,29,23,-166,-627,-736,109,681
,421,2023-10-27 11:49:52.19,15,-345,-2037,27,10,-170,-700,-802,102,751
,422,2023-10-27 11:49:52.20,16,-326,-2028,12,19,-182,-631,-741,110,686
,423,2023-10-27 11:49:52.21,21,-294,-2036,-8,28,-201,-689,-799,110,744
,424,2023-10-27 11:49:52.22,10,-301,-2039,-32,46,-218,-627,-738,111,682
,425,2023-10-27 11:49:52.23,17,-304,-2029,-41,31,-235,-687,-793,106,740
,426,2023-10-27 11:49:52.24,20,-302,-2032,-48,69,-242,-629,-738,109,683
,427,2023-10-27 11:49:52.25,10,-309,-2030,-55,127,-218,-685,-791,106,738
,428,2023-10-27 11:49:52.26,15,-325,-2043,-65,134,-224,-634,-744,110,689
,429,2023-10-27 11:49:52.27,22,-326,-2045,-60,130,-202,-679,-784,105,731
,430,2023-10-27 11:49:52.28,27,-329,-2033,-54,121,-192,-629,-745,116,687
,431,2023-10-27 11:49:52.29,41,-334,-2017,-44,74,-197,-659,-776,117,717
,432,2023-10-27 11:49:52.30,59,-322,-2039,-39,95,-190,-623,-741,118,682
,433,2023-10-27 11:49:52.31,72,-298,-2032,-61,103,-206,-652,-768,116,710
,434,2023-10-27 11:49:52.32,83,-306,-2021,-83,122,-228,-628,-746,118,687
,435,2023-10-27 11:49:52.33,69,-315,-2028,-89,124,-228,-656,-774,118,715
,436,2023-10-27 11:49:52.34,92,-309,-2021,-79,100,-232,-640,-758,118,699
,437,2023-10-27 11:49:52.35,78,-297,-2048,-77,106,-234,-655,-774,119,714
,438,2023-10-27 11:49:52.36,81,-286,-2063,-93,114,-220,-640,-757,117,698
,439,2023-10-27 11:49:52.37,59,-272,-2063,-129,115,-219,-652,-768,116,710
,440,2023-10-27 11:49:52.38,76,-289,-2019,-150,149,-185,-640,-756,116,698
,441,2023-10-27 11:49:52.39,66,-288,-2019,-149,124,-158,-647,-765,118,706
,442,2023-10-27 11:49:52.40,83,-269,-2008,-127,105,-153,-648,-765,117,706
,443,2023-10-27 11:49:52.41,83,-247,-2011,-101,51,-137,-644,-764,120,704
,444,2023-10-27 11:49:52.42,96,-224,-2025,-101,26,-149,-649,-770,121,709
,445,2023-10-27 11:49:52.43,88,-218,-2055,-125,58,-160,-645,-762,117,703
,446,2023-10-27 11:49:52.44,96,-204,-2056,-153,92,-158,-658,-776,118,717
,447,2023-10-27 11:49:52.45,102,-200,-2028,-160,81,-177,-640,-758,118,699
,448,2023-10-27 11:49:52.46,116,-187,-2023,-144,69,-198,-657,-776,119,716
,449,2023-10-27 11:49:52.47,112,-184,-2029,-120,39,-196,-631,-754,123,692
,450,2023-10-27 11:49:52.48,134,-183,-2057,-97,11,-211,-663,-779,116,721
,451,2023-10-27 11:49:52.49,145,-206,-2058,-82,-13,-217,-640,-753,113,696
,452,2023-10-27 11:49:52.50,168,-203,-2069,-84,-1,-203,-675,-785,110,730
,453,2023-10-27 11:49:52.51,162,-222,-2066,-98,40,-200,-632,-755,123,693
,454,2023-10-27 11:49:52.52,179,-229,-2074,-104,72,-191,-667,-786,119,726
,455,2023-10-27 11:49:52.53,201,-240,-2062,-97,97,-167,-625,-749,124,687
,456,2023-10-27 11:49:52.54,202,-226,-2024,-78,98,-132,-676,-788,112,732
,457,2023-10-27 11:49:52.55,200,-222,-2057,-36,81,-120,-631,-748,117,689
,458,2023-10-27 11:49:52.56,200,-221,-2094,-5,80,-85,-683,-793,110,738
,459,2023-10-27 11:49:52.57,207,-220,-2082,11,38,-76,-622,-741,119,681
,460,2023-10-27 11:49:52.58,205,-210,-2069,15,5,-71,-675,-786,111,730
,461,2023-10-27 11:49:52.59,195,-214,-2074,3,-21,-76,-615,-730,115,672
,462,2023-10-27 11:49:52.60,180,-207,-2062,-7,-26,-61,-687,-786,99,736
,463,2023-10-27 11:49:52.61,186,-212,-2047,-19,-59,-75,-633,-733,100,683
,464,2023-10-27 11:49:52.62,173,-238,-2025,-26,-66,-85,-698,-794,96,746
,465,2023-10-27 11:49:52.63,143,-288,-2016,-1,-114,-62,-616,-725,109,670
,466,2023-10-27 11:49:52.64,144,-294,-2022,54,-173,-66,-686,-790,104,738
,467,2023-10-27 11:49:52.65,129,-295,-2028,100,-199,-54,-609,-716,107,662
,468,2023-10-27 11:49:52.66,122,-288,-2023,115,-164,-39,-697,-793,96,745
,469,2023-10-27 11:49:52.67,105,-279,-2027,105,-162,-41,-620,-717,97,668
,470,2023-10-27 11:49:52.68,89,-293,-2041,91,-99,-27,-710,-799,89,754
,471,2023-10-27 11:49:52.69,86,-294,-2049,85,-35,3,-623,-721,98,672
,472,2023-10-27 11:49:52.70,80,-298,-2028,70,-43,-2,-708,-799,91,753
,473,2023-10-27 11:49:52.71,51,-297,-2018,64,-12,10,-609,-711,102,660
,474,2023-10-27 11:49:52.72,62,-298,-2034,50,-22,5,-704,-797,93,750
,475,2023-10-27 11:49:52.73,72,-283,-2035,42,-43,-1,-602,-707,105,654
,476,2023-10-27 11:49:52.74,79,-250,-2037,25,-31,-9,-710,-798,88,754
,477,2023-10-27 11:49:52.75,78,-225,-2038,-9,7,-26,-612,-709,97,660
,478,2023-10-27 11:49:52.76,85,-213,-2056,-48,78,-31,-717,-803,86,760
,479,2023-10-27 11:49:52.77,108,-205,-2042,-77,66,-65,-606,-705,99,655
,480,2023-10-27 11:49:52.78,100,-181,-2017,-89,112,-75,-710,-804,94,757
,481,2023-10-27 11:49:52.79,110,-166,-2024,-100,130,-98,-600,-709,109,654
,482,2023-10-27 11:49:52.80,110,-163,-2026,-113,109,-132,-715,-815,100,765
,483,2023-10-27 11:49:52.81,122,-166,-2025,-116,93,-156,-606,-715,109,660
,484,2023-10-27 11:49:52.82,117,-170,-2017,-106,84,-169,-726,-823,97,774
,485,2023-10-27 11:49:52.83,129,-179,-2047,-92,72,-175,-605,-710,105,657
,486,2023-10-27 11:49:52.84,124,-198,-2062,-79,-4,-193,-717,-818,101,767
,487,2023-10-27 11:49:52.85,125,-211,-2056,-58,-30,-185,-590,-707,117,648
,488,2023-10-27 11:49:52.86,136,-225,-2051,-44,-35,-173,-714,-823,109,768
,489,2023-10-27 11:49:52.87,145,-227,-2031,-32,-65,-161,-592,-707,115,649
,490,2023-10-27 11:49:52.88,127,-219,-2028,-17,-56,-148,-728,-828,100,778
,491,2023-10-27 11:49:52.89,152,-231,-2030,-5,-68,-133,-597,-708,111,652
,492,2023-10-27 11:49:52.90,154,-219,-2017,4,-50,-123,-730,-831,101,780
,493,2023-10-27 11:49:52.91,157,-214,-2008,6,-21,-106,-592,-704,112,648
,494,2023-10-27 11:49:52.92,154,-233,-2029,3,5,-112,-731,-830,99,780
,495,2023-10-27 11:49:52.93,152,-232,-2052,10,24,-118,-597,-707,110,652
,496,2023-10-27 11:49:52.94,154,-241,-2063,15,36,-114,-747,-838,91,792
,497,2023-10-27 11:49:52.95,141,-244,-2072,20,28,-111,-605,-708,103,656
,498,2023-10-27 11:49:52.96,149,-250,-2065,31,26,-108,-743,-834,91,788
,499,2023-10-27 11:49:52.97,154,-250,-2060,48,17,-101,-588,-698,110,643
,500,2023-10-27 11:49:52.98,137,-246,-2056,56,-1,-107,-728,-827,99,777
,501,2023-10-27 11:49:52.99,149,-238,-2048,53,-2,-106,-582,-694,112,638
,502,2023-10-27 11:49:53.00,134,-237,-2029,54,33,-91,-730,-826,96,778
,503,2023-10-27 11:49:53.01,145,-233,-2032,41,27,-110,-582,-690,108,636
,504,2023-10-27 11:49:53.02,126,-234,-2039,25,30,-114,-736,-830,94,783
,505,2023-10-27 11:49:53.03,138,-244,-2037,17,40,-109,-590,-697,107,643
,506,2023-10-27 11:49:53.04,149,-236,-2028,7,8,-101,-742,-839,97,790
,507,2023-10-27 11:49:53.05,157,-222,-2014,-2,65,-81,-588,-698,110,643
,508,2023-10-27 11:49:53.06,147,-215,-2019,-21,80,-73,-743,-835,92,789
,509,2023-10-27 11:49:53.07,146,-217,-2037,-38,61,-77,-588,-695,107,641
,510,2023-10-27 11:49:53.08,156,-217,-2054,-44,91,-65,-745,-833,88,789
,511,2023-10-27 11:49:53.09,145,-208,-2069,-50,61,-60,-585,-692,107,638
,512,2023-10-27 11:49:53.10,150,-209,-2079,-65,10,-75,-745,-837,92,791
,513,2023-10-27 11:49:53.11,138,-205,-2067,-60,46,-42,-582,-689,107,635
,514,2023-10-27 11:49:53.12,135,-202,-2064,-62,1,-58,-736,-832,96,784
,515,2023-10-27 11:49:53.13,147,-200,-2065,-58,-11,-61,-577,-687,110,632
,516,2023-10-27 11:49:53.14,156,-192,-2048,-48,-5,-65,-735,-833,98,784
,517,2023-10-27 11:49:53.15,158,-195,-2043,-34,-17,-58,-578,-690,112,634
,518,2023-10-27 11:49:53.16,159,-181,-2014,-18,-8,-73,-738,-837,99,787
,519,2023-10-27 11:49:53.17,180,-166,-1996,-5,16,-81,-576,-687,111,631
,520,2023-10-27 11:49:53.18,185,-175,-2008,4,17,-87,-734,-834,100,784
,521,2023-10-27 11:49:53.19,174,-190,-2030,15,40,-96,-576,-686,110,631
,522,2023-10-27 11:49:53.20,168,-216,-2055,20,43,-85,-737,-833,96,785
,523,2023-10-27 11:49:53.21,176,-222,-2057,28,36,-97,-576,-686,110,631
,524,2023-10-27 11:49:53.22,161,-222,-2067,32,29,-81,-737,-837,100,787
,525,2023-10-27 11:49:53.23,178,-232,-2059,32,20,-71,-576,-686,110,631
,526,2023-10-27 11:49:53.24,185,-243,-2054,35,14,-53,-740,-835,95,787
,527,2023-10-27 11:49:53.25,176,-239,-2043,38,28,-33,-580,-686,106,633
,528,2023-10-27 11:49:53.26,174,-246,-2047,36,12,-24,-742,-833,91,787
,529,2023-10-27 11:49:53.27,181,-245,-2052,32,36,-15,-579,-685,106,632
,530,2023-10-27 11:49:53.28,169,-265,-2047,29,1,-10,-741,-835,94,788
,531,2023-10-27 11:49:53.29,171,-250,-2058,33,20,7,-580,-690,110,635
,532,2023-10-27 11:49:53.30,179,-234,-2044,23,0,3,-741,-837,96,789
,533,2023-10-27 11:49:53.31,171,-244,-2021,31,31,9,-581,-692,111,636
,534,2023-10-27 11:49:53.32,170,-234,-2029,47,-4,11,-740,-837,97,788
,535,2023-10-27 11:49:53.33,180,-233,-2039,60,21,14,-578,-691,113,634
,536,2023-10-27 11:49:53.34,153,-225,-2042,59,14,18,-736,-830,94,783
,537,2023-10-27 11:49:53.35,164,-226,-2049,55,3,24,-582,-689,107,635
,538,2023-10-27 11:49:53.36,163,-221,-2040,53,25,13,-737,-833,96,785
,539,2023-10-27 11:49:53.37,151,-227,-2052,53,10,25,-584,-697,113,640
,540,2023-10-27 11:49:53.38,163,-233,-2052,47,3,33,-736,-833,97,784
,541,2023-10-27 11:49:53.39,156,-233,-2042,36,8,29,-583,-692,109,637
,542,2023-10-27 11:49:53.40,163,-233,-2036,26,24,42,-731,-827,96,779
,543,2023-10-27 11:49:53.41,154,-233,-2039,14,43,47,-580,-686,106,633
,544,2023-10-27 11:49:53.42,158,-236,-2048,5,13,57,-731,-826,95,778
,545,2023-10-27 11:49:53.43,157,-227,-2049,5,38,61,-580,-689,109,634
,546,2023-10-27 11:49:53.44,165,-218,-2030,1,33,73,-724,-824,100,774
,547,2023-10-27 11:49:53.45,172,-225,-2038,-2,11,74,-580,-689,109,634
,548,2023-10-27 11:49:53.46,160,-218,-2054,-3,45,84,-731,-827,96,779
,549,2023-10-27 11:49:53.47,168,-216,-2049,2,24,91,-595,-699,104,647
,550,2023-10-27 11:49:53.48,164,-211,-2052,1,47,99,-742,-831,89,786
,551,2023-10-27 11:49:53.49,158,-204,-2038,2,48,95,-601,-702,101,651
,552,2023-10-27 11:49:53.50,174,-205,-2024,8,49,102,-730,-827,97,778
,553,2023-10-27 11:49:53.51,178,-213,-2038,16,54,108,-592,-702,110,647
,554,2023-10-27 11:49:53.52,162,-221,-2057,15,34,101,-726,-820,94,773
,555,2023-10-27 11:49:53.53,160,-221,-2047,15,40,90,-600,-701,101,650
,556,2023-10-27 11:49:53.54,163,-240,-2070,18,45,107,-729,-822,93,775
,557,2023-10-27 11:49:53.55,170,-243,-2060,29,49,129,-596,-702,106,649
,558,2023-10-27 11:49:53.56,177,-244,-2059,24,5,117,-728,-818,90,773
,559,2023-10-27 11:49:53.57,164,-241,-2046,27,27,132,-605,-705,100,655
,560,2023-10-27 11:49:53.58,193,-245,-2039,23,30,135,-723,-815,92,769
,561,2023-10-27 11:49:53.59,191,-241,-2026,32,16,134,-604,-709,105,656
,562,2023-10-27 11:49:53.60,192,-231,-2027,36,30,147,-722,-816,94,769
,563,2023-10-27 11:49:53.61,188,-228,-2060,34,20,149,-609,-714,105,661
,564,2023-10-27 11:49:53.62,189,-242,-2072,27,35,172,-723,-814,91,768
,565,2023-10-27 11:49:53.63,166,-264,-2061,12,-15,164,-613,-712,99,662
,566,2023-10-27 11:49:53.64,169,-265,-2062,10,-11,192,-718,-807,89,762
,567,2023-10-27 11:49:53.65,161,-265,-2060,13,-4,226,-615,-714,99,664
,568,2023-10-27 11:49:53.66,169,-254,-2051,6,-48,225,-715,-812,97,763
,569,2023-10-27 11:49:53.67,187,-253,-2006,8,-34,249,-621,-723,102,672
,570,2023-10-27 11:49:53.68,184,-232,-1975,18,-16,252,-713,-809,96,761
,571,2023-10-27 11:49:53.69,205,-220,-1986,29,4,248,-624,-723,99,673
,572,2023-10-27 11:49:53.70,172,-206,-2005,36,4,237,-712,-808,96,760
,573,2023-10-27 11:49:53.71,184,-207,-2050,40,-6,229,-626,-725,99,675
,574,2023-10-27 11:49:53.72,171,-218,-2076,47,-6,241,-709,-801,92,755
,575,2023-10-27 11:49:53.73,165,-225,-2080,32,-82,214,-628,-725,97,676
,576,2023-10-27 11:49:53.74,159,-214,-2079,26,-95,211,-704,-800,96,752
,577,2023-10-27 11:49:53.75,154,-211,-2078,17,-104,209,-630,-730,100,680
,578,2023-10-27 11:49:53.76,174,-223,-2021,15,-109,216,-706,-799,93,752
,579,2023-10-27 11:49:53.77,184,-198,-2003,27,-85,224,-630,-730,100,680
,580,2023-10-27 11:49:53.78,184,-184,-2001,27,-70,205,-698,-796,98,747
,581,2023-10-27 11:49:53.79,158,-184,-2029,29,-49,188,-639,-736,97,687
,582,2023-10-27 11:49:53.80,154,-208,-2070,33,-5,194,-699,-794,95,746
,583,2023-10-27 11:49:53.81,141,-216,-2093,35,-10,188,-636,-736,100,686
,584,2023-10-27 11:49:53.82,122,-229,-2093,27,-62,174,-688,-787,99,737
,585,2023-10-27 11:49:53.83,118,-241,-2083,32,-35,178,-642,-742,100,692
,586,2023-10-27 11:49:53.84,103,-254,-2055,34,-48,189,-691,-786,95,738
,587,2023-10-27 11:49:53.85,100,-260,-2018,35,-48,199,-644,-742,98,693
,588,2023-10-27 11:49:53.86,105,-268,-2003,30,-60,193,-682,-779,97,730
,589,2023-10-27 11:49:53.87,100,-280,-1978,31,-52,206,-644,-744,100,694
,590,2023-10-27 11:49:53.88,107,-284,-1976,37,-8,238,-682,-778,96,730
,591,2023-10-27 11:49:53.89,97,-290,-1994,34,-7,246,-650,-751,101,700
,592,2023-10-27 11:49:53.90,89,-281,-2019,30,-18,232,-678,-774,96,726
,593,2023-10-27 11:49:53.91,83,-273,-2035,37,7,251,-650,-750,100,700
,594,2023-10-27 11:49:53.92,71,-270,-2038,36,41,285,-668,-769,101,718
,595,2023-10-27 11:49:53.93,67,-270,-2062,26,-9,253,-649,-752,103,700
,596,2023-10-27 11:49:53.94,63,-272,-2064,33,10,279,-664,-767,103,715
,597,2023-10-27 11:49:53.95,61,-250,-2067,32,14,296,-656,-757,101,706
,598,2023-10-27 11:49:53.96,63,-245,-2050,21,-13,270,-668,-767,99,717
,599,2023-10-27 11:49:53.97,66,-229,-2034,17,-27,250,-669,-764,95,716
,600,2023-10-27 11:49:53.98,82,-240,-2022,27,-43,236,-664,-764,100,714
,601,2023-10-27 11:49:53.99,60,-241,-2019,42,-46,230,-659,-760,101,709
,602,2023-10-27 11:49:54.00,63,-242,-2016,53,-97,182,-644,-753,109,698
,603,2023-10-27 11:49:54.01,74,-241,-2029,61,-86,168,-649,-756,107,702
,604,2023-10-27 11:49:54.02,61,-251,-2037,67,-27,179,-630,-747,117,688
,605,2023-10-27 11:49:54.03,72,-264,-2030,61,-50,148,-637,-752,115,694
,606,2023-10-27 11:49:54.04,71,-273,-2031,60,-27,139,-611,-732,121,671
,607,2023-10-27 11:49:54.05,70,-286,-2038,66,2,138,-629,-745,116,687
,608,2023-10-27 11:49:54.06,71,-294,-2019,68,41,149,-612,-729,117,670
,609,2023-10-27 11:49:54.07,92,-315,-2002,70,46,127,-640,-754,114,697
,610,2023-10-27 11:49:54.08,89,-313,-2006,80,78,139,-608,-730,122,669
,611,2023-10-27 11:49:54.09,92,-305,-2015,99,92,160,-640,-757,117,698
,612,2023-10-27 11:49:54.10,107,-284,-2025,101,32,141,-606,-727,121,666
,613,2023-10-27 11:49:54.11,100,-267,-2034,93,34,147,-641,-760,119,700
,614,2023-10-27 11:49:54.12,120,-248,-2050,60,43,145,-599,-721,122,660
,615,2023-10-27 11:49:54.13,110,-228,-2078,22,59,153,-646,-766,120,706
,616,2023-10-27 11:49:54.14,104,-205,-2082,-32,16,131,-611,-731,120,671
,617,2023-10-27 11:49:54.15,99,-202,-2084,-76,13,123,-667,-780,113,723
,618,2023-10-27 11:49:54.16,103,-205,-2062,-110,16,118,-615,-733,118,674
,619,2023-10-27 11:49:54.17,98,-198,-2043,-113,1,129,-666,-783,117,724
,620,2023-10-27 11:49:54.18,110,-181,-2026,-105,-14,111,-607,-727,120,667
,621,2023-10-27 11:49:54.19,113,-184,-2013,-97,-20,90,-669,-784,115,726
,622,2023-10-27 11:49:54.20,104,-185,-2022,-68,3,90,-609,-727,118,668
,623,2023-10-27 11:49:54.21,105,-188,-2020,-39,5,81,-681,-792,111,736
,624,2023-10-27 11:49:54.22,100,-194,-2021,-12,15,70,-613,-729,116,671
,625,2023-10-27 11:49:54.23,117,-210,-2031,9,0,40,-682,-793,111,737
,626,2023-10-27 11:49:54.24,125,-214,-2024,31,22,23,-606,-724,118,665
,627,2023-10-27 11:49:54.25,110,-239,-2034,55,22,21,-681,-793,112,737
,628,2023-10-27 11:49:54.26,112,-262,-2032,78,-10,32,-600,-719,119,659
,629,2023-10-27 11:49:54.27,120,-274,-2030,95,-32,16,-693,-797,104,745
,630,2023-10-27 11:49:54.28,119,-287,-2037,115,-37,27,-608,-720,112,664
,631,2023-10-27 11:49:54.29,100,-299,-2058,114,-27,42,-699,-801,102,750
,632,2023-10-27 11:49:54.30,101,-316,-2075,100,-44,55,-606,-718,112,662
,633,2023-10-27 11:49:54.31,109,-326,-2072,78,-48,48,-700,-801,101,750
,634,2023-10-27 11:49:54.32,98,-337,-2066,64,-25,74,-594,-712,118,653
,635,2023-10-27 11:49:54.33,94,-337,-2058,56,-22,96,-693,-798,105,745
,636,2023-10-27 11:49:54.34,72,-321,-2055,34,-76,85,-590,-706,116,648
,637,2023-10-27 11:49:54.35,86,-312,-2058,24,-89,96,-698,-803,105,750
,638,2023-10-27 11:49:54.36,64,-300,-2054,8,-92,102,-592,-710,118,651
,639,2023-10-27 11:49:54.37,69,-276,-2031,-9,-89,113,-706,-810,104,758
,640,2023-10-27 11:49:54.38,64,-256,-2026,-22,-92,112,-598,-711,113,654
,641,2023-10-27 11:49:54.39,44,-264,-2025,-35,-82,104,-710,-813,103,761
,642,2023-10-27 11:49:54.40,30,-274,-2039,-37,-53,109,-593,-708,115,650
,643,2023-10-27 11:49:54.41,36,-257,-2030,-34,-91,106,-706,-812,106,759
,644,2023-10-27 11:49:54.42,26,-257,-2018,-30,-81,101,-586,-702,116,644
,645,2023-10-27 11:49:54.43,32,-251,-2009,-24,-47,109,-713,-813,100,763
,646,2023-10-27 11:49:54.44,37,-246,-2003,-21,-66,97,-598,-705,107,651
,647,2023-10-27 11:49:54.45,39,-226,-1998,-20,-60,82,-720,-820,100,770
,648,2023-10-27 11:49:54.46,52,-218,-1990,-27,-30,70,-586,-699,113,642
,649,2023-10-27 11:49:54.47,54,-223,-1994,-29,19,68,-709,-816,107,762
,650,2023-10-27 11:49:54.48,50,-222,-2013,-32,-2,45,-579,-697,118,638
,651,2023-10-27 11:49:54.49,58,-235,-2029,-24,2,27,-719,-822,103,770
,652,2023-10-27 11:49:54.50,52,-243,-2057,-10,52,34,-588,-700,112,644
,653,2023-10-27 11:49:54.51,67,-251,-2063,-7,-12,18,-722,-825,103,773
,654,2023-10-27 11:49:54.52,74,-249,-2049,3,-16,15,-577,-695,118,636
,655,2023-10-27 11:49:54.53,81,-266,-2060,22,-14,26,-715,-824,109,769
,656,2023-10-27 11:49:54.54,70,-281,-2062,38,-6,21,-576,-693,117,634
,657,2023-10-27 11:49:54.55,66,-284,-2071,54,20,30,-724,-826,102,775
,658,2023-10-27 11:49:54.56,50,-291,-2076,67,-8,30,-585,-698,113,641
,659,2023-10-27 11:49:54.57,68,-289,-2072,71,-43,16,-734,-832,98,783
,660,2023-10-27 11:49:54.58,55,-278,-2044,64,27,22,-582,-696,114,639
,661,2023-10-27 11:49:54.59,56,-276,-2035,50,35,20,-725,-829,104,777
,662,2023-10-27 11:49:54.60,58,-276,-2047,37,29,0,-568,-689,121,628
,663,2023-10-27 11:49:54.61,61,-273,-2045,34,13,-9,-720,-826,106,773
,664,2023-10-27 11:49:54.62,67,-272,-2039,33,-29,-28,-559,-684,125,621
,665,2023-10-27 11:49:54.63,63,-280,-2027,38,-12,-28,-720,-827,107,773
,666,2023-10-27 11:49:54.64,81,-272,-2009,47,-40,-43,-568,-691,123,629
,667,2023-10-27 11:49:54.65,81,-265,-1996,52,-22,-51,-733,-838,105,785
,668,2023-10-27 11:49:54.66,80,-249,-1992,57,3,-67,-571,-693,122,632
,669,2023-10-27 11:49:54.67,67,-252,-2001,58,16,-60,-727,-833,106,780
,670,2023-10-27 11:49:54.68,74,-256,-2025,66,32,-48,-565,-687,122,626
,671,2023-10-27 11:49:54.69,73,-250,-2031,58,-1,-63,-729,-833,104,781
,672,2023-10-27 11:49:54.70,62,-261,-2059,49,-39,-79,-573,-690,117,631
,673,2023-10-27 11:49:54.71,57,-296,-2082,40,-54,-57,-737,-839,102,788
,674,2023-10-27 11:49:54.72,50,-308,-2088,34,-92,-48,-579,-696,117,637
,675,2023-10-27 11:49:54.73,46,-322,-2077,27,-136,-50,-736,-837,101,786
,676,2023-10-27 11:49:54.74,50,-307,-2093,18,-87,5,-579,-694,115,636
,677,2023-10-27 11:49:54.75,42,-321,-2029,-25,-33,25,-739,-835,96,787
,678,2023-10-27 11:49:54.76,36,-314,-1993,-39,22,47,-582,-690,108,636
,679,2023-10-27 11:49:54.77,30,-326,-1982,-13,6,46,-738,-836,98,787
,680,2023-10-27 11:49:54.78,27,-318,-2000,25,-63,23,-573,-690,117,631
,681,2023-10-27 11:49:54.79,42,-286,-2029,36,-55,28,-730,-834,104,782
,682,2023-10-27 11:49:54.80,24,-287,-2026,23,-21,25,-574,-691,117,632
,683,2023-10-27 11:49:54.81,29,-289,-2029,13,12,42,-734,-836,102,785
,684,2023-10-27 11:49:54.82,19,-290,-2025,16,23,48,-571,-688,117,629
,685,2023-10-27 11:49:54.83,41,-265,-2022,30,37,56,-728,-832,104,780
,686,2023-10-27 11:49:54.84,67,-259,-2018,24,59,39,-568,-688,120,628
,687,2023-10-27 11:49:54.85,49,-255,-2042,1,41,-24,-728,-832,104,780
,688,2023-10-27 11:49:54.86,68,-273,-2056,-3,39,-46,-570,-686,116,628
,689,2023-10-27 11:49:54.87,62,-288,-2061,8,36,-61,-728,-831,103,779
,690,2023-10-27 11:49:54.88,60,-281,-2041,25,21,-76,-570,-686,116,628
,691,2023-10-27 11:49:54.89,69,-282,-2034,35,-4,-83,-724,-833,109,778
,692,2023-10-27 11:49:54.90,85,-282,-2031,42,-7,-90,-567,-691,124,629
,693,2023-10-27 11:49:54.91,93,-276,-2022,49,3,-103,-718,-833,115,775
,694,2023-10-27 11:49:54.92,100,-264,-2032,53,73,-93,-560,-685,125,622
,695,2023-10-27 11:49:54.93,105,-263,-2043,43,75,-97,-718,-829,111,773
,696,2023-10-27 11:49:54.94,97,-261,-2048,34,66,-105,-568,-691,123,629
,697,2023-10-27 11:49:54.95,93,-263,-2052,19,56,-139,-730,-838,108,784
,698,2023-10-27 11:49:54.96,91,-270,-2057,6,35,-148,-583,-702,119,642
,699,2023-10-27 11:49:54.97,89,-281,-2043,1,35,-137,-728,-840,112,784
,700,2023-10-27 11:49:54.98,82,-282,-2030,1,21,-129,-573,-697,124,635
,701,2023-10-27 11:49:54.99,66,-289,-2018,-3,-29,-146,-728,-838,110,783
,702,2023-10-27 11:49:55.00,57,-311,-2033,1,-27,-134,-584,-699,115,641
,703,2023-10-27 11:49:55.01,63,-324,-2041,12,3,-96,-731,-837,106,784
,704,2023-10-27 11:49:55.02,36,-329,-2050,7,-40,-105,-582,-701,119,641
,705,2023-10-27 11:49:55.03,45,-329,-2054,4,-8,-85,-723,-834,111,778
,706,2023-10-27 11:49:55.04,47,-309,-2051,-4,3,-66,-584,-700,116,642
,707,2023-10-27 11:49:55.05,41,-318,-2032,-12,14,-59,-729,-833,104,781
,708,2023-10-27 11:49:55.06,29,-313,-2035,-21,-22,-72,-596,-711,115,653
,709,2023-10-27 11:49:55.07,29,-305,-2042,-28,-31,-73,-726,-832,106,779
,710,2023-10-27 11:49:55.08,31,-303,-2032,-35,-11,-65,-579,-699,120,639
,711,2023-10-27 11:49:55.09,27,-291,-2026,-46,-34,-76,-719,-825,106,772
,712,2023-10-27 11:49:55.10,32,-277,-2006,-65,-16,-81,-589,-708,119,648
,713,2023-10-27 11:49:55.11,25,-277,-2010,-80,0,-91,-723,-830,107,776
,714,2023-10-27 11:49:55.12,40,-283,-2015,-88,21,-66,-591,-709,118,650
,715,2023-10-27 11:49:55.13,17,-283,-2006,-89,39,-59,-720,-830,110,775
,716,2023-10-27 11:49:55.14,44,-273,-2012,-86,71,-53,-594,-717,123,655
,717,2023-10-27 11:49:55.15,40,-267,-2022,-87,62,-67,-724,-835,111,779
,718,2023-10-27 11:49:55.16,51,-268,-2019,-77,102,-78,-595,-717,122,656
,719,2023-10-27 11:49:55.17,70,-257,-2030,-63,99,-82,-707,-824,117,765
,720,2023-10-27 11:49:55.18,76,-242,-2036,-58,82,-101,-582,-711,129,646
,721,2023-10-27 11:49:55.19,86,-254,-2033,-52,34,-124,-703,-821,118,762
,722,2023-10-27 11:49:55.20,101,-236,-2050,-34,27,-122,-592,-718,126,655
,723,2023-10-27 11:49:55.21,110,-237,-2045,-12,32,-115,-712,-820,108,766
,724,2023-10-27 11:49:55.22,112,-263,-2042,-1,58,-116,-605,-720,115,662
,725,2023-10-27 11:49:55.23,126,-263,-2055,7,80,-142,-703,-818,115,760
,726,2023-10-27 11:49:55.24,133,-265,-2050,18,75,-150,-588,-717,129,652
,727,2023-10-27 11:49:55.25,117,-271,-2045,34,101,-143,-688,-812,124,750
,728,2023-10-27 11:49:55.26,125,-267,-2053,39,33,-163,-583,-718,135,650
,729,2023-10-27 11:49:55.27,121,-256,-2036,40,21,-170,-662,-798,136,730
,730,2023-10-27 11:49:55.28,138,-249,-2031,28,22,-156,-552,-705,153,628
,731,2023-10-27 11:49:55.29,125,-267,-2045,22,7,-161,-633,-788,155,710
,732,2023-10-27 11:49:55.30,116,-262,-2044,26,19,-127,-550,-708,158,629
,733,2023-10-27 11:49:55.31,120,-251,-2053,17,1,-126,-644,-788,144,716
,734,2023-10-27 11:49:55.32,117,-253,-2060,-8,-11,-127,-566,-713,147,639
,735,2023-10-27 11:49:55.33,121,-244,-2061,-32,30,-140,-631,-784,153,707
,736,2023-10-27 11:49:55.34,108,-246,-2063,-53,34,-137,-538,-711,173,624
,737,2023-10-27 11:49:55.35,110,-263,-2059,-57,3,-139,-598,-774,176,686
,738,2023-10-27 11:49:55.36,101,-250,-2040,-53,-34,-140,-537,-711,174,624
,739,2023-10-27 11:49:55.37,86,-263,-2029,-52,-94,-162,-624,-780,156,702
,740,2023-10-27 11:49:55.38,85,-271,-2026,-36,-124,-163,-578,-726,148,652
,741,2023-10-27 11:49:55.39,80,-269,-2015,-10,-107,-143,-638,-782,144,710
,742,2023-10-27 11:49:55.40,78,-267,-2017,9,-168,-141,-581,-726,145,653
,743,2023-10-27 11:49:55.41,76,-264,-2002,17,-162,-141,-638,-777,139,707
,744,2023-10-27 11:49:55.42,81,-269,-2022,14,-136,-125,-599,-732,133,665
,745,2023-10-27 11:49:55.43,67,-292,-2016,15,-98,-101,-651,-776,125,713
,746,2023-10-27 11:49:55.44,62,-292,-2030,13,-24,-77,-604,-732,128,668
,747,2023-10-27 11:49:55.45,36,-305,-2040,9,-22,-69,-648,-772,124,710
,748,2023-10-27 11:49:55.46,48,-309,-2051,6,-44,-63,-614,-738,124,676
,749,2023-10-27 11:49:55.47,48,-289,-2061,9,7,-45,-657,-778,121,717
,750,2023-10-27 11:49:55.48,48,-272,-2032,6,18,-30,-628,-743,115,685
,751,2023-10-27 11:49:55.49,61,-244,-2018,-3,53,-27,-664,-770,106,717
,752,2023-10-27 11:49:55.50,71,-249,-2005,-15,81,-42,-640,-747,107,693
,753,2023-10-27 11:49:55.51,71,-258,-2008,-15,69,-71,-657,-770,113,713
,754,2023-10-27 11:49:55.52,79,-244,-2023,-2,64,-83,-639,-750,111,694
,755,2023-10-27 11:49:55.53,80,-228,-2036,11,82,-80,-656,-766,110,711
,756,2023-10-27 11:49:55.54,88,-225,-2045,14,51,-79,-642,-752,110,697
,757,2023-10-27 11:49:55.55,102,-226,-2043,11,52,-83,-647,-761,114,704
,758,2023-10-27 11:49:55.56,118,-222,-2038,6,52,-78,-643,-756,113,699
,759,2023-10-27 11:49:55.57,121,-225,-2033,0,103,-65,-643,-760,117,701
,760,2023-10-27 11:49:55.58,139,-226,-2034,-14,128,-69,-647,-759,112,703
,761,2023-10-27 11:49:55.59,128,-221,-2044,-34,113,-98,-641,-757,116,699
,762,2023-10-27 11:49:55.60,144,-224,-2049,-48,102,-104,-649,-764,115,706
,763,2023-10-27 11:49:55.61,145,-229,-2056,-60,63,-125,-634,-754,120,694
,764,2023-10-27 11:49:55.62,144,-240,-2075,-69,52,-122,-648,-764,116,706
,765,2023-10-27 11:49:55.63,132,-248,-2091,-76,41,-116,-629,-752,123,690
,766,2023-10-27 11:49:55.64,142,-251,-2081,-74,11,-87,-652,-771,119,711
,767,2023-10-27 11:49:55.65,138,-252,-2057,-72,-5,-69,-628,-753,125,690
,768,2023-10-27 11:49:55.66,139,-260,-2052,-63,-3,-44,-655,-773,118,714
,769,2023-10-27 11:49:55.67,133,-249,-2045,-53,0,-30,-622,-746,124,684
,770,2023-10-27 11:49:55.68,128,-234,-2036,-43,32,-18,-654,-772,118,713
,771,2023-10-27 11:49:55.69,123,-246,-2034,-31,28,-23,-612,-739,127,675
,772,2023-10-27 11:49:55.70,119,-247,-2037,-17,24,-18,-652,-772,120,712
,773,2023-10-27 11:49:55.71,112,-241,-2034,-11,-42,-45,-604,-733,129,668
,774,2023-10-27 11:49:55.72,110,-244,-2035,5,-55,-48,-656,-773,117,714
,775,2023-10-27 11:49:55.73,99,-239,-2034,23,-73,-46,-615,-736,121,675
,776,2023-10-27 11:49:55.74,96,-260,-2046,38,-94,-29,-674,-784,110,729
,777,2023-10-27 11:49:55.75,107,-254,-2039,58,-86,5,-624,-738,114,681
,778,2023-10-27 11:49:55.76,90,-275,-2027,79,-68,33,-684,-787,103,735
,779,2023-10-27 11:49:55.77,89,-251,-2049,93,-72,43,-623,-733,110,678
,780,2023-10-27 11:49:55.78,103,-232,-2034,80,8,58,-688,-789,101,738
,781,2023-10-27 11:49:55.79,86,-260,-2017,61,27,67,-618,-729,111,673
,782,2023-10-27 11:49:55.80,93,-262,-2018,54,44,73,-681,-787,106,734
,783,2023-10-27 11:49:55.81,88,-272,-2010,64,62,70,-606,-722,116,664
,784,2023-10-27 11:49:55.82,85,-267,-2006,74,65,69,-680,-788,108,734
,785,2023-10-27 11:49:55.83,76,-264,-2014,72,37,44,-612,-724,112,668
,786,2023-10-27 11:49:55.84,81,-266,-2032,70,46,39,-697,-798,101,747
,787,2023-10-27 11:49:55.85,89,-256,-2030,58,5,19,-610,-722,112,666
,788,2023-10-27 11:49:55.86,79,-262,-2032,47,20,17,-695,-796,101,745
,789,2023-10-27 11:49:55.87,98,-250,-2039,29,19,6,-605,-717,112,661
,790,2023-10-27 11:49:55.88,104,-250,-2046,21,73,16,-702,-804,102,753
,791,2023-10-27 11:49:55.89,98,-255,-2052,5,100,5,-611,-721,110,666
,792,2023-10-27 11:49:55.90,98,-260,-2056,-10,86,-10,-708,-809,101,758
,793,2023-10-27 11:49:55.91,101,-245,-2057,-21,82,-5,-613,-718,105,665
,794,2023-10-27 11:49:55.92,117,-243,-2045,-39,81,-31,-708,-808,100,758
,795,2023-10-27 11:49:55.93,114,-241,-2039,-51,93,-38,-604,-716,112,660
,796,2023-10-27 11:49:55.94,109,-263,-2040,-47,68,-41,-707,-810,103,758
,797,2023-10-27 11:49:55.95,119,-259,-2039,-36,38,-46,-600,-712,112,656
,798,2023-10-27 11:49:55.96,119,-251,-2040,-26,6,-45,-707,-810,103,758
,799,2023-10-27 11:49:55.97,132,-246,-2036,-26,10,-34,-597,-711,114,654
,800,2023-10-27 11:49:55.98,124,-244,-2038,-29,18,-36,-709,-817,108,763
,801,2023-10-27 11:49:55.99,138,-235,-2044,-27,41,-11,-592,-710,118,651
,802,2023-10-27 11:49:56.00,127,-238,-2034,-25,61,2,-708,-815,107,761
,803,2023-10-27 11:49:56.01,152,-222,-2044,-24,76,8,-589,-706,117,647
,804,2023-10-27 11:49:56.02,143,-219,-2040,-23,105,13,-710,-820,110,765
,805,2023-10-27 11:49:56.03,145,-227,-2035,-9,121,11,-590,-710,120,650
,806,2023-10-27 11:49:56.04,160,-221,-2036,4,107,-6,-716,-826,110,771
,807,2023-10-27 11:49:56.05,152,-227,-2057,15,99,-5,-591,-708,117,649
,808,2023-10-27 11:49:56.06,154,-229,-2069,10,39,-37,-716,-826,110,771
,809,2023-10-27 11:49:56.07,160,-238,-2078,6,37,-36,-578,-700,122,639
,810,2023-10-27 11:49:56.08,146,-242,-2073,3,23,-36,-711,-822,111,766
,811,2023-10-27 11:49:56.09,152,-246,-2066,4,-21,-34,-578,-698,120,638
,812,2023-10-27 11:49:56.10,156,-252,-2054,7,-43,-30,-718,-823,105,770
,813,2023-10-27 11:49:56.11,162,-257,-2044,18,-38,-6,-578,-695,117,636
,814,2023-10-27 11:49:56.12,160,-262,-2035,21,-40,-1,-717,-824,107,770
,815,2023-10-27 11:49:56.13,153,-265,-2026,24,11,15,-576,-693,117,634
,816,2023-10-27 11:49:56.14,141,-260,-2023,31,-6,20,-723,-826,103,774
,817,2023-10-27 11:49:56.15,154,-265,-2019,45,-17,33,-578,-692,114,635
,818,2023-10-27 11:49:56.16,142,-276,-2027,52,-27,13,-725,-825,100,775
,819,2023-10-27 11:49:56.17,137,-280,-2038,60,-1,27,-579,-690,111,634
,820,2023-10-27 11:49:56.18,137,-291,-2056,54,-14,19,-729,-828,99,778
,821,2023-10-27 11:49:56.19,137,-292,-2041,44,-1,31,-578,-688,110,633
,822,2023-10-27 11:49:56.20,129,-278,-2038,30,-5,39,-727,-826,99,776
,823,2023-10-27 11:49:56.21,120,-266,-2052,14,22,51,-572,-685,113,628
,824,2023-10-27 11:49:56.22,110,-259,-2040,-8,16,57,-727,-827,100,777
,825,2023-10-27 11:49:56.23,121,-254,-2042,-17,29,73,-574,-687,113,630
,826,2023-10-27 11:49:56.24,122,-256,-2052,-16,42,92,-734,-829,95,781
,827,2023-10-27 11:49:56.25,119,-252,-2046,-21,39,93,-584,-688,104,636
,828,2023-10-27 11:49:56.26,116,-242,-2043,-34,20,73,-737,-831,94,784
,829,2023-10-27 11:49:56.27,132,-241,-2032,-51,3,49,-582,-690,108,636
,830,2023-10-27 11:49:56.28,115,-239,-2025,-55,-1,45,-734,-833,99,783
,831,2023-10-27 11:49:56.29,128,-245,-2017,-54,-7,41,-577,-694,117,635
,832,2023-10-27 11:49:56.30,129,-243,-2029,-46,5,72,-730,-834,104,782
,833,2023-10-27 11:49:56.31,137,-243,-2030,-36,6,66,-573,-688,115,630
,834,2023-10-27 11:49:56.32,136,-239,-2041,-20,39,90,-741,-836,95,788
,835,2023-10-27 11:49:56.33,137,-241,-2043,-13,40,83,-584,-692,108,638
,836,2023-10-27 11:49:56.34,143,-234,-2045,-6,29,69,-744,-840,96,792
,837,2023-10-27 11:49:56.35,136,-233,-2039,1,-15,60,-577,-690,113,633
,838,2023-10-27 11:49:56.36,138,-219,-2042,-1,-21,60,-735,-834,99,784
,839,2023-10-27 11:49:56.37,136,-218,-2031,-4,-43,69,-569,-682,113,625
,840,2023-10-27 11:49:56.38,128,-228,-2037,-4,-20,86,-727,-830,103,778
,841,2023-10-27 11:49:56.39,143,-233,-2047,-1,-4,100,-565,-683,118,624
,842,2023-10-27 11:49:56.40,123,-235,-2044,4,-2,105,-731,-835,104,783
,843,2023-10-27 11:49:56.41,122,-249,-2050,9,20,111,-569,-686,117,627
,844,2023-10-27 11:49:56.42,114,-257,-2048,13,26,103,-733,-833,100,783
,845,2023-10-27 11:49:56.43,125,-245,-2054,14,26,111,-573,-685,112,629
,846,2023-10-27 11:49:56.44,133,-247,-2051,9,-31,83,-741,-838,97,789
,847,2023-10-27 11:49:56.45,112,-250,-2033,12,-38,86,-585,-692,107,638
,848,2023-10-27 11:49:56.46,121,-247,-2026,15,-36,92,-744,-839,95,791
,849,2023-10-27 11:49:56.47,114,-252,-2029,21,-7,119,-581,-690,109,635
,850,2023-10-27 11:49:56.48,116,-247,-2041,24,21,132,-742,-838,96,790
,851,2023-10-27 11:49:56.49,118,-245,-2044,17,50,135,-584,-692,108,638
,852,2023-10-27 11:49:56.50,127,-248,-2045,8,54,133,-740,-839,99,789
,853,2023-10-27 11:49:56.51,114,-249,-2049,-8,13,88,-575,-689,114,632
,854,2023-10-27 11:49:56.52,123,-253,-2043,-8,-4,87,-732,-834,102,783
,855,2023-10-27 11:49:56.53,122,-252,-2056,-11,-19,94,-576,-689,113,632
,856,2023-10-27 11:49:56.54,117,-253,-2044,-1,18,123,-740,-836,96,788
,857,2023-10-27 11:49:56.55,123,-251,-2041,2,24,123,-589,-695,106,642
,858,2023-10-27 11:49:56.56,125,-239,-2029,4,31,102,-744,-838,94,791
,859,2023-10-27 11:49:56.57,122,-240,-2023,-2,15,85,-589,-693,104,641
,860,2023-10-27 11:49:56.58,129,-233,-2025,-4,-43,55,-733,-832,99,782
,861,2023-10-27 11:49:56.59,130,-225,-2045,-11,-48,51,-574,-689,115,631
,862,2023-10-27 11:49:56.60,128,-226,-2038,-15,-52,45,-720,-824,104,772
,863,2023-10-27 11:49:56.61,124,-234,-2041,-22,-18,79,-572,-687,115,629
,864,2023-10-27 11:49:56.62,119,-227,-2052,-28,4,86,-718,-824,106,771
,865,2023-10-27 11:49:56.63,124,-236,-2042,-32,18,81,-566,-685,119,625
,866,2023-10-27 11:49:56.64,125,-240,-2035,-40,8,65,-688,-817,129,752
,867,2023-10-27 11:49:56.65,139,-234,-2022,-36,-23,56,-527,-679,152,603
,868,2023-10-27 11:49:56.66,134,-239,-2017,-25,-13,62,-666,-811,145,738
,869,2023-10-27 11:49:56.67,144,-224,-2026,-13,-32,76,-526,-676,150,601
,870,2023-10-27 11:49:56.68,133,-226,-2037,-2,-16,76,-681,-811,130,746
,871,2023-10-27 11:49:56.69,143,-223,-2061,12,-2,93,-554,-689,135,621
,872,2023-10-27 11:49:56.70,132,-229,-2080,20,32,104,-695,-824,129,759
,873,2023-10-27 11:49:56.71,122,-231,-2071,20,34,103,-557,-694,137,625
,874,2023-10-27 11:49:56.72,125,-242,-2055,25,8,91,-691,-816,125,753
,875,2023-10-27 11:49:56.73,121,-248,-2038,39,-10,100,-560,-691,131,625
,876,2023-10-27 11:49:56.74,120,-259,-2021,54,-89,72,-688,-812,124,750
,877,2023-10-27 11:49:56.75,128,-254,-2020,73,-97,74,-564,-694,130,629
,878,2023-10-27 11:49:56.76,121,-248,-2026,83,-94,76,-694,-810,116,752
,879,2023-10-27 11:49:56.77,120,-248,-2027,76,-104,70,-574,-697,123,635
,880,2023-10-27 11:49:56.78,119,-239,-2041,55,-77,60,-697,-809,112,753
,881,2023-10-27 11:49:56.79,119,-225,-2048,25,-47,65,-585,-707,122,646
,882,2023-10-27 11:49:56.80,113,-230,-2056,-5,-17,64,-699,-809,110,754
,883,2023-10-27 11:49:56.81,108,-239,-2050,-21,6,77,-591,-709,118,650
,884,2023-10-27 11:49:56.82,84,-258,-2059,-20,-33,68,-698,-808,110,753
,885,2023-10-27 11:49:56.83,88,-238,-2077,-3,-82,66,-592,-711,119,651
,886,2023-10-27 11:49:56.84,84,-225,-2075,-6,-42,71,-698,-806,108,752
,887,2023-10-27 11:49:56.85,81,-219,-2061,-32,-34,61,-602,-717,115,659
,888,2023-10-27 11:49:56.86,69,-239,-2041,-44,-70,44,-699,-805,106,752
,889,2023-10-27 11:49:56.87,71,-244,-2027,-24,-101,39,-606,-719,113,662
,890,2023-10-27 11:49:56.88,61,-235,-2014,2,-135,31,-697,-801,104,749
,891,2023-10-27 11:49:56.89,62,-225,-2005,13,-137,39,-608,-720,112,664
,892,2023-10-27 11:49:56.90,75,-235,-2000,25,-115,31,-696,-800,104,748
,893,2023-10-27 11:49:56.91,57,-234,-1995,51,-68,61,-618,-726,108,672
,894,2023-10-27 11:49:56.92,64,-237,-2004,76,-36,72,-697,-799,102,748
,895,2023-10-27 11:49:56.93,61,-236,-2010,85,-6,71,-620,-728,108,674
,896,2023-10-27 11:49:56.94,55,-245,-2022,95,30,67,-693,-794,101,743
,897,2023-10-27 11:49:56.95,59,-243,-2030,99,48,56,-623,-729,106,676
,898,2023-10-27 11:49:56.96,61,-246,-2038,98,24,51,-688,-792,104,740
,899,2023-10-27 11:49:56.97,73,-240,-2039,95,36,49,-628,-732,104,680
,900,2023-10-27 11:49:56.98,77,-241,-2043,87,45,47,-689,-788,99,738
,901,2023-10-27 11:49:56.99,87,-244,-2049,81,56,38,-631,-733,102,682
,902,2023-10-27 11:49:57.00,95,-243,-2057,73,58,30,-683,-785,102,734
,903,2023-10-27 11:49:57.01,90,-243,-2064,68,54,23,-630,-737,107,683
,904,2023-10-27 11:49:57.02,102,-251,-2070,61,43,18,-671,-778,107,724
,905,2023-10-27 11:49:57.03,79,-254,-2061,56,30,12,-625,-734,109,679
,906,2023-10-27 11:49:57.04,85,-254,-2054,48,20,8,-660,-770,110,715
,907,2023-10-27 11:49:57.05,99,-254,-2049,38,11,4,-619,-735,116,677
,908,2023-10-27 11:49:57.06,97,-246,-2035,28,10,2,-654,-769,115,711
,909,2023-10-27 11:49:57.07,89,-246,-2038,17,8,-2,-623,-738,115,680
,910,2023-10-27 11:49:57.08,96,-247,-2034,11,7,0,-641,-758,117,699
,911,2023-10-27 11:49:57.09,90,-246,-2029,4,9,0,-623,-739,116,681
,912,2023-10-27 11:49:57.10,102,-244,-2026,1,9,-1,-641,-758,117,699
,913,2023-10-27 11:49:57.11,104,-252,-2025,1,16,2,-629,-747,118,688
,914,2023-10-27 11:49:57.12,104,-247,-2032,2,20,3,-637,-755,118,696
,915,2023-10-27 11:49:57.13,98,-266,-2043,2,25,7,-626,-742,116,684
,916,2023-10-27 11:49:57.14,85,-263,-2040,11,29,13,-630,-750,120,690
,917,2023-10-27 11:49:57.15,94,-260,-2037,19,30,15,-628,-747,119,687
,918,2023-10-27 11:49:57.16,109,-254,-2033,23,30,14,-629,-750,121,689
,919,2023-10-27 11:49:57.17,111,-260,-2032,27,33,8,-636,-751,115,693
,920,2023-10-27 11:49:57.18,104,-263,-2039,32,33,2,-622,-747,125,684
,921,2023-10-27 11:49:57.19,98,-264,-2043,37,27,-1,-631,-750,119,690
,922,2023-10-27 11:49:57.20,98,-276,-2055,42,15,-3,-618,-742,124,680
,923,2023-10-27 11:49:57.21,110,-280,-2047,50,4,-3,-634,-751,117,692
,924,2023-10-27 11:49:57.22,106,-280,-2041,54,-4,0,-614,-735,121,674
,925,2023-10-27 11:49:57.23,119,-281,-2032,54,-5,1,-633,-750,117,691
,926,2023-10-27 11:49:57.24,103,-282,-2034,56,-3,4,-606,-729,123,667
,927,2023-10-27 11:49:57.25,110,-282,-2027,52,-5,6,-636,-753,117,694
,928,2023-10-27 11:49:57.26,107,-285,-2037,44,-4,8,-601,-726,125,663
,929,2023-10-27 11:49:57.27,114,-281,-2053,35,-8,8,-635,-754,119,694
,930,2023-10-27 11:49:57.28,111,-282,-2042,29,-16,11,-592,-720,128,656
,931,2023-10-27 11:49:57.29,95,-278,-2038,20,-21,10,-634,-757,123,695
,932,2023-10-27 11:49:57.30,102,-269,-2050,14,-24,13,-594,-720,126,657
,933,2023-10-27 11:49:57.31,99,-275,-2054,7,-38,16,-646,-764,118,705
,934,2023-10-27 11:49:57.32,92,-272,-2049,2,-35,16,-595,-720,125,657
,935,2023-10-27 11:49:57.33,86,-274,-2039,-5,-29,20,-648,-766,118,707
,936,2023-10-27 11:49:57.34,88,-274,-2034,-7,-27,22,-593,-716,123,654
,937,2023-10-27 11:49:57.35,94,-275,-2019,0,-27,25,-652,-768,116,710
,938,2023-10-27 11:49:57.36,80,-264,-2022,7,-17,24,-587,-711,124,649
,939,2023-10-27 11:49:57.37,102,-264,-2024,5,0,24,-642,-761,119,701
,940,2023-10-27 11:49:57.38,92,-266,-2034,0,14,21,-557,-695,138,626
,941,2023-10-27 11:49:57.39,80,-283,-2026,3,16,20,-601,-753,152,677
,942,2023-10-27 11:49:57.40,99,-276,-2036,15,9,20,-506,-684,178,595
,943,2023-10-27 11:49:57.41,86,-279,-2031,17,12,22,-554,-746,192,650
,944,2023-10-27 11:49:57.42,94,-271,-2037,17,12,21,-450,-667,217,558
,945,2023-10-27 11:49:57.43,99,-279,-2030,13,13,23,-499,-729,230,614
,946,2023-10-27 11:49:57.44,99,-278,-2033,16,7,22,-396,-644,248,520
,947,2023-10-27 11:49:57.45,106,-264,-2040,7,13,22,-452,-715,263,583
,948,2023-10-27 11:49:57.46,93,-265,-2046,-10,23,19,-342,-627,285,484
,949,2023-10-27 11:49:57.47,107,-260,-2042,-30,31,14,-408,-707,299,557
,950,2023-10-27 11:49:57.48,91,-256,-2036,-38,40,14,-306,-618,312,462
,951,2023-10-27 11:49:57.49,104,-253,-2038,-46,44,7,-368,-696,328,532
,952,2023-10-27 11:49:57.50,100,-249,-2037,-54,45,2,-271,-606,335,438
,953,2023-10-27 11:49:57.51,104,-250,-2032,-52,47,-4,-347,-696,349,521
,954,2023-10-27 11:49:57.52,109,-249,-2036,-44,42,-9,-248,-611,363,429
,955,2023-10-27 11:49:57.53,114,-246,-2036,-36,33,-10,-322,-701,379,511
,956,2023-10-27 11:49:57.54,105,-249,-2041,-27,25,-14,-217,-603,386,410
,957,2023-10-27 11:49:57.55,98,-251,-2041,-16,23,-15,-299,-701,402,500
,958,2023-10-27 11:49:57.56,105,-259,-2051,-5,15,-12,-196,-594,398,395
,959,2023-10-27 11:49:57.57,111,-256,-2054,4,9,-13,-290,-697,407,493
,960,2023-10-27 11:49:57.58,106,-256,-2051,9,6,-11,-192,-593,401,392
,961,2023-10-27 11:49:57.59,88,-261,-2049,10,3,-6,-287,-697,410,492
,962,2023-10-27 11:49:57.60,100,-258,-2050,6,2,1,-181,-587,406,384
,963,2023-10-27 11:49:57.61,95,-262,-2042,6,1,3,-281,-697,416,489
,964,2023-10-27 11:49:57.62,84,-263,-2047,4,0,8,-165,-578,413,371
,965,2023-10-27 11:49:57.63,92,-263,-2037,6,4,13,-261,-692,431,476
,966,2023-10-27 11:49:57.64,91,-270,-2034,6,0,16,-148,-574,426,361
,967,2023-10-27 11:49:57.65,87,-271,-2032,8,-2,18,-262,-695,433,478
,968,2023-10-27 11:49:57.66,88,-264,-2038,11,5,21,-154,-577,423,365
,969,2023-10-27 11:49:57.67,93,-261,-2037,10,0,22,-274,-701,427,487
,970,2023-10-27 11:49:57.68,83,-262,-2045,9,8,20,-156,-575,419,365
,971,2023-10-27 11:49:57.69,89,-262,-2043,8,8,20,-310,-703,393,506
,972,2023-10-27 11:49:57.70,106,-254,-2029,5,10,18,-223,-584,361,403
,973,2023-10-27 11:49:57.71,101,-258,-2033,4,5,16,-417,-729,312,573
,974,2023-10-27 11:49:57.72,95,-259,-2037,5,3,13,-328,-614,286,471
,975,2023-10-27 11:49:57.73,98,-262,-2035,12,1,12,-504,-757,253,630
,976,2023-10-27 11:49:57.74,92,-258,-2032,22,-17,7,-383,-631,248,507
,977,2023-10-27 11:49:57.75,96,-265,-2039,32,-23,9,-555,-769,214,662
,978,2023-10-27 11:49:57.76,100,-265,-2034,42,-28,8,-429,-639,210,534
,979,2023-10-27 11:49:57.77,97,-264,-2040,54,-28,10,-600,-785,185,692
,980,2023-10-27 11:49:57.78,91,-270,-2042,60,-29,11,-472,-660,188,566
,981,2023-10-27 11:49:57.79,84,-276,-2035,68,-26,15,-609,-795,186,702
,982,2023-10-27 11:49:57.80,93,-272,-2028,73,-24,17,-438,-649,211,543
