// Data mode  : Full
// Data quality  : High
// Acceleration sensor's range  : 16g
// Gyroscope sensor's range  : 2000dps
//
//ARTIFACT,NUM,DATE,ACC_X,ACC_Y,ACC_Z,GYRO_X,GYRO_Y,GYRO_Z,EOG_L,EOG_R,EOG_H,EOG_V
,1,2023-10-27 11:57:14.73,51,-232,-2044,41,5,0,-313,-624,311,468
,2,2023-10-27 11:57:14.74,43,-230,-2044,44,-9,-2,-426,-745,319,585
,3,2023-10-27 11:57:14.75,26,-235,-2045,45,-8,-5,-314,-622,308,468
,4,2023-10-27 11:57:14.76,42,-228,-2060,39,-7,-7,-430,-739,309,584
,5,2023-10-27 11:57:14.77,36,-238,-2056,30,-4,-9,-318,-614,296,466
,6,2023-10-27 11:57:14.78,28,-240,-2061,22,-7,-8,-428,-739,311,583
,7,2023-10-27 11:57:14.79,24,-243,-2052,21,-5,-4,-316,-613,297,464
,8,2023-10-27 11:57:14.80,35,-248,-2041,17,-7,2,-431,-743,312,587
,9,2023-10-27 11:57:14.81,25,-245,-2037,16,-4,8,-321,-616,295,468
,10,2023-10-27 11:57:14.82,25,-244,-2034,16,-2,13,-455,-761,306,608
,11,2023-10-27 11:57:14.83,30,-236,-2033,16,0,15,-330,-620,290,475
,12,2023-10-27 11:57:14.84,30,-233,-2030,15,9,18,-450,-764,314,607
,13,2023-10-27 11:57:14.85,32,-228,-2036,14,13,21,-324,-623,299,473
,14,2023-10-27 11:57:14.86,30,-242,-2037,11,22,17,-451,-764,313,607
,15,2023-10-27 11:57:14.87,42,-243,-2044,16,14,20,-327,-620,293,473
,16,2023-10-27 11:57:14.88,21,-238,-2035,19,6,22,-444,-759,315,601
,17,2023-10-27 11:57:14.89,45,-235,-2034,20,4,20,-325,-619,294,472
,18,2023-10-27 11:57:14.90,41,-229,-2040,13,11,17,-442,-754,312,598
,19,2023-10-27 11:57:14.91,51,-232,-2043,5,22,11,-325,-610,285,467
,20,2023-10-27 11:57:14.92,43,-233,-2053,0,27,9,-441,-750,309,595
,21,2023-10-27 11:57:14.93,30,-225,-2052,-6,29,4,-324,-611,287,467
,22,2023-10-27 11:57:14.94,43,-233,-2060,-10,24,3,-439,-751,312,595
,23,2023-10-27 11:57:14.95,37,-232,-2054,-10,17,1,-319,-611,292,465
,24,2023-10-27 11:57:14.96,50,-233,-2052,-6,1,-3,-441,-762,321,601
,25,2023-10-27 11:57:14.97,45,-250,-2048,2,-8,1,-322,-617,295,469
,26,2023-10-27 11:57:14.98,46,-262,-2046,12,-11,3,-438,-749,311,593
,27,2023-10-27 11:57:14.99,53,-254,-2038,21,-11,11,-319,-608,289,463
,28,2023-10-27 11:57:15.00,44,-262,-2038,23,-8,16,-431,-751,320,591
,29,2023-10-27 11:57:15.01,43,-252,-2044,23,2,22,-316,-610,294,463
,30,2023-10-27 11:57:15.02,32,-247,-2054,23,-2,27,-428,-750,322,589
,31,2023-10-27 11:57:15.03,37,-249,-2059,21,-9,32,-319,-608,289,463
,32,2023-10-27 11:57:15.04,34,-247,-2049,22,-15,35,-431,-752,321,591
,33,2023-10-27 11:57:15.05,42,-244,-2046,19,-16,35,-322,-612,290,467
,34,2023-10-27 11:57:15.06,34,-232,-2047,12,-17,31,-436,-761,325,598
,35,2023-10-27 11:57:15.07,29,-225,-2042,7,-19,35,-324,-617,293,470
,36,2023-10-27 11:57:15.08,40,-239,-2043,3,-18,32,-438,-761,323,599
,37,2023-10-27 11:57:15.09,36,-226,-2043,2,-18,31,-326,-614,288,470
,38,2023-10-27 11:57:15.10,26,-224,-2045,-1,-17,30,-434,-743,309,588
,39,2023-10-27 11:57:15.11,36,-223,-2041,-1,-14,28,-321,-601,280,461
,40,2023-10-27 11:57:15.12,27,-230,-2046,-7,-11,27,-422,-735,313,578
,41,2023-10-27 11:57:15.13,19,-244,-2037,-7,-14,27,-322,-598,276,460
,42,2023-10-27 11:57:15.14,31,-239,-2040,-1,-17,29,-430,-733,303,581
,43,2023-10-27 11:57:15.15,27,-238,-2029,-2,-11,32,-332,-600,268,466
,44,2023-10-27 11:57:15.16,27,-250,-2028,-7,4,31,-436,-744,308,590
,45,2023-10-27 11:57:15.17,26,-246,-2040,-3,4,33,-337,-604,267,470
,46,2023-10-27 11:57:15.18,24,-243,-2040,8,9,37,-434,-735,301,584
,47,2023-10-27 11:57:15.19,21,-250,-2042,17,1,40,-336,-598,262,467
,48,2023-10-27 11:57:15.20,18,-246,-2052,21,6,47,-441,-734,293,587
,49,2023-10-27 11:57:15.21,31,-241,-2053,19,18,48,-344,-598,254,471
,50,2023-10-27 11:57:15.22,21,-242,-2043,19,23,49,-443,-726,283,584
,51,2023-10-27 11:57:15.23,18,-249,-2036,26,10,45,-348,-600,252,474
,52,2023-10-27 11:57:15.24,35,-239,-2042,29,14,44,-433,-722,289,577
,53,2023-10-27 11:57:15.25,25,-235,-2046,23,26,39,-348,-604,256,476
,54,2023-10-27 11:57:15.26,36,-228,-2050,8,36,32,-436,-731,295,583
,55,2023-10-27 11:57:15.27,44,-226,-2057,-1,43,28,-358,-619,261,488
,56,2023-10-27 11:57:15.28,41,-223,-2050,-7,41,23,-447,-745,298,596
,57,2023-10-27 11:57:15.29,41,-217,-2048,-13,34,15,-361,-619,258,490
,58,2023-10-27 11:57:15.30,34,-225,-2053,-18,21,6,-450,-744,294,597
,59,2023-10-27 11:57:15.31,37,-224,-2048,-16,17,4,-363,-621,258,492
,60,2023-10-27 11:57:15.32,38,-226,-2048,-11,4,-3,-446,-736,290,591
,61,2023-10-27 11:57:15.33,46,-235,-2037,-6,-1,-6,-363,-620,257,491
,62,2023-10-27 11:57:15.34,47,-240,-2039,1,-9,-6,-440,-733,293,586
,63,2023-10-27 11:57:15.35,37,-237,-2045,10,-12,-4,-368,-622,254,495
,64,2023-10-27 11:57:15.36,44,-253,-2056,16,-17,1,-437,-731,294,584
,65,2023-10-27 11:57:15.37,21,-253,-2052,21,-30,9,-368,-621,253,494
,66,2023-10-27 11:57:15.38,30,-246,-2052,25,-32,15,-435,-731,296,583
,67,2023-10-27 11:57:15.39,32,-238,-2033,25,-31,19,-371,-620,249,495
,68,2023-10-27 11:57:15.40,43,-235,-2031,24,-24,24,-438,-723,285,580
,69,2023-10-27 11:57:15.41,34,-233,-2037,18,-13,25,-379,-632,253,505
,70,2023-10-27 11:57:15.42,37,-244,-2035,17,-10,24,-445,-745,300,595
,71,2023-10-27 11:57:15.43,37,-231,-2042,18,-9,24,-384,-644,260,514
,72,2023-10-27 11:57:15.44,39,-233,-2049,19,-7,24,-441,-736,295,588
,73,2023-10-27 11:57:15.45,40,-247,-2050,19,-11,23,-384,-638,254,511
,74,2023-10-27 11:57:15.46,35,-243,-2052,17,-11,24,-441,-728,287,584
,75,2023-10-27 11:57:15.47,37,-236,-2032,17,-13,24,-394,-644,250,519
,76,2023-10-27 11:57:15.48,29,-236,-2037,17,-10,21,-437,-730,293,583
,77,2023-10-27 11:57:15.49,24,-236,-2043,14,-10,22,-393,-647,254,520
,78,2023-10-27 11:57:15.50,42,-240,-2050,13,-16,19,-432,-725,293,578
,79,2023-10-27 11:57:15.51,24,-242,-2048,14,-23,17,-394,-645,251,519
,80,2023-10-27 11:57:15.52,31,-244,-2042,11,-23,15,-431,-720,289,575
,81,2023-10-27 11:57:15.53,28,-240,-2043,5,-15,15,-400,-649,249,524
,82,2023-10-27 11:57:15.54,20,-232,-2041,0,-11,10,-433,-722,289,577
,83,2023-10-27 11:57:15.55,21,-231,-2052,3,-18,8,-408,-656,248,532
,84,2023-10-27 11:57:15.56,24,-233,-2050,11,-29,8,-445,-727,282,586
,85,2023-10-27 11:57:15.57,22,-233,-2048,16,-32,7,-418,-667,249,542
,86,2023-10-27 11:57:15.58,9,-241,-2048,16,-17,7,-438,-728,290,583
,87,2023-10-27 11:57:15.59,3,-245,-2040,11,-2,7,-402,-668,266,535
,88,2023-10-27 11:57:15.60,3,-252,-2035,14,1,12,-414,-722,308,568
,89,2023-10-27 11:57:15.61,0,-254,-2027,23,-5,16,-395,-672,277,533
,90,2023-10-27 11:57:15.62,0,-238,-2029,22,4,20,-410,-720,310,565
,91,2023-10-27 11:57:15.63,-1,-239,-2018,15,20,23,-399,-674,275,536
,92,2023-10-27 11:57:15.64,8,-239,-2017,9,30,20,-407,-713,306,560
,93,2023-10-27 11:57:15.65,15,-231,-2030,9,30,19,-396,-668,272,532
,94,2023-10-27 11:57:15.66,31,-227,-2038,5,29,16,-404,-710,306,557
,95,2023-10-27 11:57:15.67,20,-217,-2037,-1,44,12,-405,-682,277,543
,96,2023-10-27 11:57:15.68,28,-226,-2038,-9,53,3,-403,-717,314,560
,97,2023-10-27 11:57:15.69,42,-222,-2040,-13,58,-6,-406,-683,277,544
,98,2023-10-27 11:57:15.70,45,-225,-2056,-13,54,-15,-397,-710,313,553
,99,2023-10-27 11:57:15.71,46,-232,-2056,-15,48,-19,-412,-692,280,552
,100,2023-10-27 11:57:15.72,49,-235,-2055,-12,36,-22,-396,-707,311,551
,101,2023-10-27 11:57:15.73,48,-243,-2062,-4,21,-23,-406,-681,275,543
,102,2023-10-27 11:57:15.74,49,-254,-2063,6,5,-19,-390,-692,302,541
,103,2023-10-27 11:57:15.75,56,-260,-2061,14,-11,-11,-410,-686,276,548
,104,2023-10-27 11:57:15.76,40,-261,-2054,20,-29,-1,-392,-697,305,544
,105,2023-10-27 11:57:15.77,47,-263,-2062,25,-33,11,-415,-690,275,552
,106,2023-10-27 11:57:15.78,32,-261,-2047,31,-33,20,-390,-690,300,540
,107,2023-10-27 11:57:15.79,30,-253,-2038,28,-27,28,-414,-695,281,554
,108,2023-10-27 11:57:15.80,38,-242,-2028,24,-11,35,-382,-690,308,536
,109,2023-10-27 11:57:15.81,36,-236,-2026,17,6,34,-413,-697,284,555
,110,2023-10-27 11:57:15.82,31,-231,-2030,12,20,31,-376,-684,308,530
,111,2023-10-27 11:57:15.83,32,-223,-2040,8,24,22,-418,-690,272,554
,112,2023-10-27 11:57:15.84,27,-223,-2051,9,21,15,-375,-671,296,523
,113,2023-10-27 11:57:15.85,29,-231,-2054,10,5,8,-419,-695,276,557
,114,2023-10-27 11:57:15.86,37,-227,-2062,11,-1,4,-373,-676,303,524
,115,2023-10-27 11:57:15.87,30,-233,-2043,12,-10,-2,-420,-692,272,556
,116,2023-10-27 11:57:15.88,30,-236,-2042,10,-10,-6,-371,-666,295,518
,117,2023-10-27 11:57:15.89,37,-243,-2037,9,-6,-2,-424,-696,272,560
,118,2023-10-27 11:57:15.90,39,-246,-2042,7,-6,-1,-371,-669,298,520
,119,2023-10-27 11:57:15.91,33,-258,-2045,6,0,8,-426,-692,266,559
,120,2023-10-27 11:57:15.92,32,-256,-2041,3,-2,12,-375,-654,279,514
,121,2023-10-27 11:57:15.93,35,-257,-2042,0,-6,19,-435,-692,257,563
,122,2023-10-27 11:57:15.94,29,-264,-2044,1,-4,31,-372,-655,283,513
,123,2023-10-27 11:57:15.95,19,-254,-2042,-1,-6,38,-429,-700,271,564
,124,2023-10-27 11:57:15.96,22,-243,-2040,-1,-3,42,-360,-658,298,509
,125,2023-10-27 11:57:15.97,36,-228,-2037,-1,5,47,-429,-718,289,573
,126,2023-10-27 11:57:15.98,36,-231,-2045,-3,14,44,-358,-665,307,511
,127,2023-10-27 11:57:15.99,32,-220,-2044,-6,24,42,-437,-722,285,579
,128,2023-10-27 11:57:16.00,36,-218,-2048,-4,26,35,-360,-661,301,510
,129,2023-10-27 11:57:16.01,44,-219,-2044,1,23,24,-441,-708,267,574
,130,2023-10-27 11:57:16.02,31,-228,-2051,10,16,18,-362,-646,284,504
,131,2023-10-27 11:57:16.03,37,-223,-2044,17,12,12,-448,-721,273,584
,132,2023-10-27 11:57:16.04,34,-233,-2042,22,4,5,-368,-660,292,514
,133,2023-10-27 11:57:16.05,28,-240,-2041,23,-3,2,-450,-724,274,587
,134,2023-10-27 11:57:16.06,33,-249,-2045,25,-5,0,-358,-641,283,499
,135,2023-10-27 11:57:16.07,32,-252,-2043,25,-9,4,-450,-716,266,583
,136,2023-10-27 11:57:16.08,20,-257,-2050,18,-14,9,-363,-643,280,503
,137,2023-10-27 11:57:16.09,36,-263,-2048,17,-14,15,-461,-739,278,600
,138,2023-10-27 11:57:16.10,18,-262,-2036,10,-14,24,-364,-651,287,507
,139,2023-10-27 11:57:16.11,18,-268,-2043,10,-8,31,-459,-729,270,594
,140,2023-10-27 11:57:16.12,28,-259,-2040,8,3,39,-365,-639,274,502
,141,2023-10-27 11:57:16.13,26,-257,-2033,11,-1,41,-460,-717,257,588
,142,2023-10-27 11:57:16.14,25,-248,-2033,12,9,47,-358,-628,270,493
,143,2023-10-27 11:57:16.15,32,-240,-2035,12,17,46,-458,-729,271,593
,144,2023-10-27 11:57:16.16,31,-254,-2035,4,27,47,-357,-638,281,497
,145,2023-10-27 11:57:16.17,19,-244,-2041,4,33,46,-459,-726,267,592
,146,2023-10-27 11:57:16.18,28,-249,-2039,-1,34,45,-353,-629,276,491
,147,2023-10-27 11:57:16.19,42,-241,-2041,-5,37,44,-462,-731,269,596
,148,2023-10-27 11:57:16.20,23,-241,-2042,-5,35,41,-359,-636,277,497
,149,2023-10-27 11:57:16.21,29,-245,-2042,-7,22,37,-466,-742,276,604
,150,2023-10-27 11:57:16.22,31,-234,-2040,-7,25,36,-356,-634,278,495
,151,2023-10-27 11:57:16.23,26,-229,-2040,-13,29,33,-467,-738,271,602
,152,2023-10-27 11:57:16.24,29,-228,-2047,-23,32,28,-360,-630,270,495
,153,2023-10-27 11:57:16.25,33,-222,-2053,-31,41,25,-478,-751,273,614
,154,2023-10-27 11:57:16.26,33,-225,-2057,-34,40,21,-366,-637,271,501
,155,2023-10-27 11:57:16.27,42,-226,-2053,-35,33,16,-481,-761,280,621
,156,2023-10-27 11:57:16.28,58,-216,-2051,-37,30,11,-360,-641,281,500
,157,2023-10-27 11:57:16.29,49,-230,-2057,-31,26,9,-472,-757,285,614
,158,2023-10-27 11:57:16.30,49,-230,-2054,-24,13,7,-350,-625,275,487
,159,2023-10-27 11:57:16.31,46,-219,-2053,-19,7,12,-467,-740,273,603
,160,2023-10-27 11:57:16.32,58,-230,-2046,-10,-2,13,-348,-620,272,484
,161,2023-10-27 11:57:16.33,55,-226,-2046,-5,-7,18,-475,-753,278,614
,162,2023-10-27 11:57:16.34,45,-229,-2056,-1,-12,20,-358,-631,273,494
,163,2023-10-27 11:57:16.35,44,-235,-2057,9,-29,25,-470,-753,283,611
,164,2023-10-27 11:57:16.36,41,-244,-2051,22,-49,29,-347,-624,277,485
,165,2023-10-27 11:57:16.37,46,-247,-2049,35,-63,35,-464,-749,285,606
,166,2023-10-27 11:57:16.38,23,-236,-2037,42,-65,39,-349,-619,270,484
,167,2023-10-27 11:57:16.39,21,-238,-2042,49,-73,43,-468,-751,283,609
,168,2023-10-27 11:57:16.40,7,-241,-2048,54,-74,47,-344,-617,273,480
,169,2023-10-27 11:57:16.41,3,-238,-2047,54,-78,51,-463,-756,293,609
,170,2023-10-27 11:57:16.42,10,-239,-2041,57,-78,54,-345,-619,274,482
,171,2023-10-27 11:57:16.43,1,-239,-2033,51,-66,57,-462,-757,295,609
,172,2023-10-27 11:57:16.44,7,-243,-2030,46,-52,59,-340,-622,282,481
,173,2023-10-27 11:57:16.45,-3,-237,-2035,39,-35,60,-460,-767,307,613
,174,2023-10-27 11:57:16.46,4,-234,-2030,34,-17,61,-339,-622,283,480
,175,2023-10-27 11:57:16.47,-2,-239,-2029,26,-1,58,-448,-747,299,597
,176,2023-10-27 11:57:16.48,0,-232,-2034,20,7,54,-329,-609,280,469
,177,2023-10-27 11:57:16.49,3,-231,-2037,17,15,51,-453,-750,297,601
,178,2023-10-27 11:57:16.50,11,-230,-2047,14,20,46,-337,-616,279,476
,179,2023-10-27 11:57:16.51,14,-234,-2047,11,17,38,-459,-755,296,607
,180,2023-10-27 11:57:16.52,17,-229,-2046,7,11,33,-336,-613,277,474
,181,2023-10-27 11:57:16.53,19,-239,-2044,11,7,25,-461,-762,301,611
,182,2023-10-27 11:57:16.54,29,-243,-2045,10,2,23,-336,-618,282,477
,183,2023-10-27 11:57:16.55,13,-238,-2041,12,1,19,-453,-756,303,604
,184,2023-10-27 11:57:16.56,12,-240,-2036,13,1,18,-326,-605,279,465
,185,2023-10-27 11:57:16.57,27,-246,-2037,18,5,18,-439,-736,297,587
,186,2023-10-27 11:57:16.58,13,-244,-2043,14,5,16,-322,-599,277,460
,187,2023-10-27 11:57:16.59,12,-239,-2044,19,0,14,-443,-747,304,595
,188,2023-10-27 11:57:16.60,13,-238,-2046,21,1,12,-332,-605,273,468
,189,2023-10-27 11:57:16.61,5,-241,-2039,21,5,11,-447,-738,291,592
,190,2023-10-27 11:57:16.62,13,-249,-2039,19,5,11,-335,-600,265,467
,191,2023-10-27 11:57:16.63,19,-256,-2042,20,7,12,-453,-748,295,600
,192,2023-10-27 11:57:16.64,17,-255,-2034,19,15,14,-346,-611,265,478
,193,2023-10-27 11:57:16.65,24,-252,-2045,18,20,16,-460,-753,293,606
,194,2023-10-27 11:57:16.66,23,-242,-2038,15,29,16,-349,-612,263,480
,195,2023-10-27 11:57:16.67,24,-250,-2042,5,38,16,-456,-760,304,608
,196,2023-10-27 11:57:16.68,32,-242,-2051,2,45,11,-351,-624,273,487
,197,2023-10-27 11:57:16.69,31,-248,-2053,-5,43,11,-468,-770,302,619
,198,2023-10-27 11:57:16.70,32,-243,-2052,-9,45,13,-361,-629,268,495
,199,2023-10-27 11:57:16.71,33,-241,-2062,-10,41,13,-472,-770,298,621
,200,2023-10-27 11:57:16.72,27,-244,-2056,-9,30,10,-370,-631,261,500
,201,2023-10-27 11:57:16.73,37,-243,-2052,-6,21,12,-481,-772,291,626
,202,2023-10-27 11:57:16.74,43,-239,-2051,0,10,10,-372,-632,260,502
,203,2023-10-27 11:57:16.75,36,-242,-2046,8,-10,11,-470,-770,300,620
,204,2023-10-27 11:57:16.76,28,-236,-2048,11,-25,13,-357,-632,275,494
,205,2023-10-27 11:57:16.77,24,-236,-2048,12,-28,13,-451,-769,318,610
,206,2023-10-27 11:57:16.78,21,-237,-2041,11,-29,14,-351,-634,283,492
,207,2023-10-27 11:57:16.79,29,-234,-2034,9,-26,14,-454,-762,308,608
,208,2023-10-27 11:57:16.80,40,-242,-2033,6,-13,12,-357,-628,271,492
,209,2023-10-27 11:57:16.81,36,-240,-2033,3,-2,11,-452,-756,304,604
,210,2023-10-27 11:57:16.82,25,-239,-2033,2,13,11,-358,-631,273,494
,211,2023-10-27 11:57:16.83,20,-236,-2046,2,19,10,-445,-757,312,601
,212,2023-10-27 11:57:16.84,23,-236,-2051,3,24,6,-352,-623,271,487
,213,2023-10-27 11:57:16.85,24,-235,-2053,1,24,3,-433,-740,307,586
,214,2023-10-27 11:57:16.86,31,-230,-2056,2,24,3,-352,-613,261,482
,215,2023-10-27 11:57:16.87,26,-231,-2056,0,17,-2,-438,-732,294,585
,216,2023-10-27 11:57:16.88,33,-240,-2048,1,12,-5,-355,-620,265,487
,217,2023-10-27 11:57:16.89,29,-244,-2045,6,4,-5,-442,-756,314,599
,218,2023-10-27 11:57:16.90,24,-251,-2046,10,-4,-2,-368,-635,267,501
,219,2023-10-27 11:57:16.91,27,-259,-2038,17,-17,1,-447,-747,300,597
,220,2023-10-27 11:57:16.92,23,-253,-2038,21,-21,7,-376,-629,253,502
,221,2023-10-27 11:57:16.93,17,-261,-2035,21,-19,14,-448,-746,298,597
,222,2023-10-27 11:57:16.94,13,-255,-2038,19,-21,15,-382,-642,260,512
,223,2023-10-27 11:57:16.95,17,-255,-2030,17,-9,21,-448,-751,303,599
,224,2023-10-27 11:57:16.96,25,-243,-2021,16,4,22,-382,-643,261,512
,225,2023-10-27 11:57:16.97,15,-247,-2025,12,17,20,-449,-747,298,598
,226,2023-10-27 11:57:16.98,14,-251,-2038,12,26,18,-386,-641,255,513
,227,2023-10-27 11:57:16.99,12,-245,-2041,10,35,18,-453,-745,292,599
,228,2023-10-27 11:57:17.00,21,-247,-2056,7,39,15,-391,-644,253,517
,229,2023-10-27 11:57:17.01,15,-251,-2054,4,38,17,-452,-736,284,594
,230,2023-10-27 11:57:17.02,12,-249,-2054,-5,45,18,-393,-644,251,518
,231,2023-10-27 11:57:17.03,16,-238,-2051,-12,41,17,-449,-739,290,594
,232,2023-10-27 11:57:17.04,19,-241,-2041,-18,46,20,-397,-661,264,529
,233,2023-10-27 11:57:17.05,30,-235,-2046,-26,52,19,-448,-749,301,598
,234,2023-10-27 11:57:17.06,39,-236,-2038,-33,56,13,-404,-666,262,535
,235,2023-10-27 11:57:17.07,40,-220,-2034,-33,65,12,-448,-743,295,595
,236,2023-10-27 11:57:17.08,48,-216,-2036,-35,70,3,-407,-662,255,534
,237,2023-10-27 11:57:17.09,50,-216,-2042,-34,69,-2,-444,-736,292,590
,238,2023-10-27 11:57:17.10,40,-228,-2048,-30,64,-8,-409,-661,252,535
,239,2023-10-27 11:57:17.11,46,-226,-2047,-22,54,-6,-441,-731,290,586
,240,2023-10-27 11:57:17.12,42,-235,-2048,-14,48,-4,-410,-659,249,534
,241,2023-10-27 11:57:17.13,46,-232,-2050,-9,41,-3,-436,-725,289,580
,242,2023-10-27 11:57:17.14,47,-243,-2047,-5,33,3,-409,-659,250,534
,243,2023-10-27 11:57:17.15,52,-239,-2045,-2,30,6,-435,-721,286,578
,244,2023-10-27 11:57:17.16,47,-250,-2052,1,30,17,-409,-658,249,533
,245,2023-10-27 11:57:17.17,43,-249,-2050,2,26,19,-433,-716,283,574
,246,2023-10-27 11:57:17.18,43,-250,-2048,3,29,29,-416,-665,249,540
,247,2023-10-27 11:57:17.19,48,-247,-2037,-1,31,34,-434,-719,285,576
,248,2023-10-27 11:57:17.20,53,-241,-2042,-5,35,40,-425,-683,258,554
,249,2023-10-27 11:57:17.21,47,-235,-2045,-10,45,44,-439,-732,293,585
,250,2023-10-27 11:57:17.22,59,-248,-2044,-15,41,42,-427,-684,257,555
,251,2023-10-27 11:57:17.23,56,-245,-2050,-16,43,48,-430,-710,280,570
,252,2023-10-27 11:57:17.24,47,-242,-2054,-14,38,56,-420,-681,261,550
,253,2023-10-27 11:57:17.25,59,-238,-2053,-15,24,56,-416,-712,296,564
,254,2023-10-27 11:57:17.26,51,-235,-2050,-17,26,59,-419,-680,261,549
,255,2023-10-27 11:57:17.27,46,-225,-2046,-21,26,61,-409,-699,290,554
,256,2023-10-27 11:57:17.28,59,-222,-2042,-20,22,61,-420,-672,252,546
,257,2023-10-27 11:57:17.29,64,-225,-2042,-15,5,59,-405,-688,283,546
,258,2023-10-27 11:57:17.30,50,-225,-2049,-9,-1,61,-427,-680,253,553
,259,2023-10-27 11:57:17.31,51,-225,-2058,0,-9,61,-411,-698,287,554
,260,2023-10-27 11:57:17.32,60,-217,-2060,2,-14,59,-429,-672,243,550
,261,2023-10-27 11:57:17.33,51,-212,-2052,1,-14,60,-410,-679,269,544
,262,2023-10-27 11:57:17.34,39,-214,-2039,-1,-5,56,-440,-668,228,554
,263,2023-10-27 11:57:17.35,59,-215,-2033,1,-7,53,-424,-686,262,555
,264,2023-10-27 11:57:17.36,51,-215,-2032,11,-6,53,-443,-689,246,566
,265,2023-10-27 11:57:17.37,56,-215,-2029,11,-6,44,-411,-693,282,552
,266,2023-10-27 11:57:17.38,42,-214,-2043,9,7,42,-438,-703,265,570
,267,2023-10-27 11:57:17.39,47,-231,-2051,4,16,40,-402,-694,292,548
,268,2023-10-27 11:57:17.40,42,-233,-2056,4,10,40,-442,-702,260,572
,269,2023-10-27 11:57:17.41,40,-240,-2058,10,-2,43,-405,-684,279,544
,270,2023-10-27 11:57:17.42,54,-241,-2048,17,-18,48,-458,-704,246,581
,271,2023-10-27 11:57:17.43,43,-236,-2044,17,-18,51,-417,-682,265,549
,272,2023-10-27 11:57:17.44,45,-240,-2042,14,-6,59,-460,-702,242,581
,273,2023-10-27 11:57:17.45,45,-240,-2042,14,-6,60,-403,-673,270,538
,274,2023-10-27 11:57:17.46,33,-251,-2048,15,-5,63,-450,-709,259,579
,275,2023-10-27 11:57:17.47,26,-246,-2044,15,-8,68,-391,-679,288,535
,276,2023-10-27 11:57:17.48,23,-247,-2044,16,-10,72,-444,-706,262,575
,277,2023-10-27 11:57:17.49,27,-237,-2044,18,-7,78,-383,-667,284,525
,278,2023-10-27 11:57:17.50,24,-246,-2030,16,-9,82,-441,-702,261,571
,279,2023-10-27 11:57:17.51,31,-245,-2036,15,-6,83,-380,-662,282,521
,280,2023-10-27 11:57:17.52,36,-235,-2041,13,3,89,-439,-702,263,570
,281,2023-10-27 11:57:17.53,29,-229,-2041,9,9,89,-374,-656,282,515
,282,2023-10-27 11:57:17.54,42,-231,-2040,1,21,90,-438,-712,274,575
,283,2023-10-27 11:57:17.55,43,-223,-2043,-7,31,88,-372,-662,290,517
,284,2023-10-27 11:57:17.56,35,-218,-2046,-11,37,85,-444,-722,278,583
,285,2023-10-27 11:57:17.57,37,-222,-2052,-16,36,82,-370,-663,293,516
,286,2023-10-27 11:57:17.58,46,-220,-2060,-18,36,81,-442,-719,277,580
,287,2023-10-27 11:57:17.59,37,-216,-2055,-19,33,79,-363,-650,287,506
,288,2023-10-27 11:57:17.60,47,-221,-2045,-22,34,78,-441,-716,275,578
,289,2023-10-27 11:57:17.61,49,-212,-2055,-20,25,75,-356,-646,290,501
,290,2023-10-27 11:57:17.62,40,-211,-2048,-17,12,72,-437,-708,271,572
,291,2023-10-27 11:57:17.63,42,-201,-2045,-15,11,71,-348,-634,286,491
,292,2023-10-27 11:57:17.64,43,-203,-2039,-17,9,66,-443,-716,273,579
,293,2023-10-27 11:57:17.65,59,-209,-2040,-19,15,64,-353,-644,291,498
,294,2023-10-27 11:57:17.66,46,-204,-2044,-14,11,59,-447,-725,278,586
,295,2023-10-27 11:57:17.67,70,-214,-2044,-7,5,55,-351,-640,289,495
,296,2023-10-27 11:57:17.68,62,-206,-2047,2,2,56,-446,-712,266,579
,297,2023-10-27 11:57:17.69,66,-219,-2043,5,3,56,-350,-626,276,488
,298,2023-10-27 11:57:17.70,51,-214,-2054,10,13,56,-440,-709,269,574
,299,2023-10-27 11:57:17.71,53,-226,-2058,12,12,55,-345,-632,287,488
,300,2023-10-27 11:57:17.72,60,-231,-2065,20,6,57,-448,-732,284,590
,301,2023-10-27 11:57:17.73,57,-229,-2053,28,-3,63,-351,-649,298,500
,302,2023-10-27 11:57:17.74,61,-222,-2053,29,-10,62,-436,-748,312,592
,303,2023-10-27 11:57:17.75,59,-226,-2050,30,-2,66,-346,-667,321,506
,304,2023-10-27 11:57:17.76,47,-234,-2049,28,3,68,-433,-769,336,601
,305,2023-10-27 11:57:17.77,44,-240,-2057,28,1,68,-339,-668,329,503
,306,2023-10-27 11:57:17.78,47,-240,-2053,33,-5,73,-427,-764,337,595
,307,2023-10-27 11:57:17.79,48,-238,-2058,34,-12,76,-327,-659,332,493
,308,2023-10-27 11:57:17.80,30,-236,-2036,33,-13,79,-428,-760,332,594
,309,2023-10-27 11:57:17.81,50,-228,-2034,30,-8,80,-328,-651,323,489
,310,2023-10-27 11:57:17.82,42,-230,-2031,22,3,77,-429,-757,328,593
,311,2023-10-27 11:57:17.83,47,-237,-2034,20,6,78,-330,-650,320,490
,312,2023-10-27 11:57:17.84,43,-233,-2028,22,5,76,-437,-761,324,599
,313,2023-10-27 11:57:17.85,39,-229,-2035,22,8,72,-331,-646,315,488
,314,2023-10-27 11:57:17.86,31,-230,-2039,21,13,73,-428,-748,320,588
,315,2023-10-27 11:57:17.87,44,-241,-2046,17,19,74,-312,-628,316,470
,316,2023-10-27 11:57:17.88,31,-246,-2050,20,11,72,-412,-748,336,580
,317,2023-10-27 11:57:17.89,38,-242,-2053,24,1,74,-308,-638,330,473
,318,2023-10-27 11:57:17.90,42,-227,-2050,23,-8,75,-422,-759,337,590
,319,2023-10-27 11:57:17.91,32,-231,-2042,17,-12,71,-317,-636,319,476
,320,2023-10-27 11:57:17.92,41,-210,-2057,11,-13,70,-420,-752,332,586
,321,2023-10-27 11:57:17.93,43,-219,-2047,-2,-6,66,-314,-635,321,474
,322,2023-10-27 11:57:17.94,33,-212,-2051,-12,0,61,-426,-765,339,595
,323,2023-10-27 11:57:17.95,33,-221,-2051,-15,1,59,-320,-644,324,482
,324,2023-10-27 11:57:17.96,33,-235,-2056,-12,5,58,-420,-767,347,593
,325,2023-10-27 11:57:17.97,30,-230,-2051,-4,6,59,-313,-638,325,475
,326,2023-10-27 11:57:17.98,33,-227,-2055,4,7,58,-413,-763,350,588
,327,2023-10-27 11:57:17.99,40,-220,-2052,15,10,57,-300,-628,328,464
,328,2023-10-27 11:57:18.00,36,-214,-2046,16,20,59,-396,-756,360,576
,329,2023-10-27 11:57:18.01,42,-199,-2041,14,23,53,-288,-621,333,454
,330,2023-10-27 11:57:18.02,52,-203,-2042,16,23,46,-398,-757,359,577
,331,2023-10-27 11:57:18.03,66,-198,-2042,19,27,41,-293,-620,327,456
,332,2023-10-27 11:57:18.04,42,-221,-2031,17,32,34,-406,-757,351,581
,333,2023-10-27 11:57:18.05,48,-260,-2043,41,-3,37,-299,-618,319,458
,334,2023-10-27 11:57:18.06,36,-279,-2034,85,-40,45,-414,-758,344,586
,335,2023-10-27 11:57:18.07,41,-294,-2034,129,-72,59,-295,-620,325,457
,336,2023-10-27 11:57:18.08,48,-290,-2043,154,-86,68,-400,-755,355,577
,337,2023-10-27 11:57:18.09,43,-291,-2047,171,-80,82,-279,-608,329,443
,338,2023-10-27 11:57:18.10,47,-287,-2040,174,-55,86,-372,-742,370,557
,339,2023-10-27 11:57:18.11,41,-285,-2035,171,-38,84,-254,-596,342,425
,340,2023-10-27 11:57:18.12,23,-272,-2041,164,-16,86,-373,-739,366,556
,341,2023-10-27 11:57:18.13,18,-272,-2034,154,-17,88,-280,-603,323,441
,342,2023-10-27 11:57:18.14,30,-265,-2049,143,-23,91,-385,-747,362,566
,343,2023-10-27 11:57:18.15,25,-243,-2066,112,-20,87,-274,-607,333,440
,344,2023-10-27 11:57:18.16,15,-236,-2077,66,4,84,-375,-747,372,561
,345,2023-10-27 11:57:18.17,18,-236,-2079,16,21,75,-274,-608,334,441
,346,2023-10-27 11:57:18.18,11,-236,-2077,-28,32,67,-373,-747,374,560
,347,2023-10-27 11:57:18.19,20,-232,-2071,-54,29,62,-270,-610,340,440
,348,2023-10-27 11:57:18.20,28,-234,-2052,-70,27,57,-369,-754,385,561
,349,2023-10-27 11:57:18.21,43,-238,-2013,-74,43,52,-265,-612,347,438
,350,2023-10-27 11:57:18.22,46,-234,-2001,-77,58,45,-437,-863,426,650
,351,2023-10-27 11:57:18.23,52,-235,-2017,-71,69,38,-185,-781,596,483
,352,2023-10-27 11:57:18.24,41,-239,-2024,-55,65,35,90,-837,927,373
,353,2023-10-27 11:57:18.25,24,-247,-2023,-35,47,40,795,-254,1049,-270
,354,2023-10-27 11:57:18.26,25,-246,-2006,-13,26,44,1300,268,1032,-784
,355,2023-10-27 11:57:18.27,34,-261,-2024,9,10,50,1074,555,519,-814
,356,2023-10-27 11:57:18.28,40,-262,-2036,28,-1,59,956,509,447,-732
,357,2023-10-27 11:57:18.29,49,-257,-2036,39,-16,69,683,359,324,-521
,358,2023-10-27 11:57:18.30,50,-261,-2035,43,-17,71,540,40,500,-290
,359,2023-10-27 11:57:18.31,48,-250,-2042,41,-19,72,389,-49,438,-170
,360,2023-10-27 11:57:18.32,51,-247,-2040,35,-18,69,173,-299,472,63
,361,2023-10-27 11:57:18.33,52,-249,-2043,25,-13,67,58,-299,357,120
,362,2023-10-27 11:57:18.34,49,-265,-2060,19,-11,64,-163,-532,369,347
,363,2023-10-27 11:57:18.35,23,-285,-2077,12,-29,77,-209,-499,290,354
,364,2023-10-27 11:57:18.36,17,-290,-2072,10,-49,84,-399,-696,297,547
,365,2023-10-27 11:57:18.37,15,-280,-2066,1,-57,97,-386,-616,230,501
,366,2023-10-27 11:57:18.38,6,-262,-2062,-17,-56,107,-562,-787,225,674
,367,2023-10-27 11:57:18.39,2,-255,-2053,-38,-49,116,-513,-689,176,601
,368,2023-10-27 11:57:18.40,1,-257,-2044,-54,-42,122,-650,-840,190,745
,369,2023-10-27 11:57:18.41,-10,-246,-2031,-64,-45,128,-577,-740,163,658
,370,2023-10-27 11:57:18.42,4,-227,-2034,-63,-58,129,-711,-940,229,825
,371,2023-10-27 11:57:18.43,5,-209,-2020,-67,-60,127,-443,-778,335,610
,372,2023-10-27 11:57:18.44,8,-204,-2018,-76,-48,122,-228,-849,621,538
,373,2023-10-27 11:57:18.45,6,-204,-2011,-89,-19,114,344,-531,875,93
,374,2023-10-27 11:57:18.46,22,-208,-2010,-89,-10,106,801,-565,1366,-118
,375,2023-10-27 11:57:18.47,23,-204,-2000,-77,2,96,1580,-233,1813,-673
,376,2023-10-27 11:57:18.48,33,-209,-1993,-60,14,84,2047,65,1982,-1056
,377,2023-10-27 11:57:18.49,45,-214,-1994,-29,19,74,2047,733,1314,-1390
,378,2023-10-27 11:57:18.50,58,-222,-2001,0,35,70,2047,1076,971,-1561
,379,2023-10-27 11:57:18.51,58,-207,-2026,24,43,64,2047,1446,601,-1746
,380,2023-10-27 11:57:18.52,39,-216,-2050,38,54,63,2047,1540,507,-1793
,381,2023-10-27 11:57:18.53,45,-215,-2090,42,41,65,2047,1735,312,-1891
,382,2023-10-27 11:57:18.54,52,-213,-2114,46,20,73,2047,1785,262,-1916
,383,2023-10-27 11:57:18.55,48,-211,-2118,47,-12,81,2047,1882,165,-1964
,384,2023-10-27 11:57:18.56,41,-216,-2116,43,-36,88,2047,1894,153,-1970
,385,2023-10-27 11:57:18.57,48,-213,-2113,36,-47,99,2047,1936,111,-1991
,386,2023-10-27 11:57:18.58,31,-223,-2096,26,-70,105,2047,1927,120,-1987
,387,2023-10-27 11:57:18.59,24,-240,-2074,24,-73,115,2047,1975,72,-2011
,388,2023-10-27 11:57:18.60,23,-234,-2058,28,-76,122,2047,1982,65,-2014
,389,2023-10-27 11:57:18.61,5,-235,-2041,33,-64,126,2047,1998,49,-2022
,390,2023-10-27 11:57:18.62,-6,-227,-2027,32,-51,127,2047,1990,57,-2018
,391,2023-10-27 11:57:18.63,-10,-237,-2013,36,-37,124,2047,1993,54,-2020
,392,2023-10-27 11:57:18.64,-22,-237,-2018,45,-29,120,2047,1894,153,-1970
,393,2023-10-27 11:57:18.65,-23,-244,-2019,52,-28,115,2047,1747,300,-1897
,394,2023-10-27 11:57:18.66,-15,-241,-2023,58,-23,110,2047,1585,462,-1816
,395,2023-10-27 11:57:18.67,-26,-255,-2020,62,-16,107,2047,1370,677,-1708
,396,2023-10-27 11:57:18.68,-20,-247,-2024,67,-15,103,2047,1191,856,-1619
,397,2023-10-27 11:57:18.69,-26,-257,-2015,65,-11,97,2047,954,1093,-1500
,398,2023-10-27 11:57:18.70,-24,-249,-2028,71,-16,92,-178,790,-968,-306
,399,2023-10-27 11:57:18.71,-26,-247,-2049,74,-33,92,-775,607,-1382,84
,400,2023-10-27 11:57:18.72,-36,-247,-2058,64,-32,83,248,420,-172,-334
,401,2023-10-27 11:57:18.73,-31,-255,-2050,52,-14,81,804,278,526,-541
,402,2023-10-27 11:57:18.74,-28,-255,-2028,37,-1,72,540,120,420,-330
,403,2023-10-27 11:57:18.75,-23,-274,-2012,33,-4,69,-134,18,-152,58
,404,2023-10-27 11:57:18.76,-30,-286,-2012,41,-2,67,-632,-152,-480,392
,405,2023-10-27 11:57:18.77,-13,-288,-2014,49,-3,69,-908,-316,-592,612
,406,2023-10-27 11:57:18.78,-13,-287,-2033,55,15,69,-967,-546,-421,756
,407,2023-10-27 11:57:18.79,-30,-282,-2041,46,29,70,-1009,-691,-318,850
,408,2023-10-27 11:57:18.80,-18,-281,-2047,40,26,71,-1012,-813,-199,912
,409,2023-10-27 11:57:18.81,-19,-275,-2055,36,21,75,-1057,-874,-183,965
,410,2023-10-27 11:57:18.82,-17,-287,-2056,34,6,77,-1073,-932,-141,1002
,411,2023-10-27 11:57:18.83,-12,-275,-2041,28,1,79,-1111,-968,-143,1039
,412,2023-10-27 11:57:18.84,-7,-266,-2044,15,15,74,-1116,-1004,-112,1060
,413,2023-10-27 11:57:18.85,5,-265,-2028,1,26,67,-1146,-1029,-117,1087
,414,2023-10-27 11:57:18.86,11,-254,-2022,-5,29,58,-1142,-1050,-92,1096
,415,2023-10-27 11:57:18.87,10,-256,-2023,-3,31,51,-1170,-1065,-105,1117
,416,2023-10-27 11:57:18.88,21,-248,-2025,-3,30,40,-1164,-1076,-88,1120
,417,2023-10-27 11:57:18.89,21,-240,-2037,-3,35,22,-1191,-1087,-104,1139
,418,2023-10-27 11:57:18.90,22,-227,-2052,-9,46,8,-1176,-1087,-89,1131
,419,2023-10-27 11:57:18.91,25,-222,-2056,-11,45,-5,-1204,-1093,-111,1148
,420,2023-10-27 11:57:18.92,43,-216,-2053,-15,27,-21,-1186,-1091,-95,1138
,421,2023-10-27 11:57:18.93,43,-208,-2058,-19,20,-33,-1219,-1100,-119,1159
,422,2023-10-27 11:57:18.94,32,-225,-2073,-21,13,-42,-1194,-1093,-101,1143
,423,2023-10-27 11:57:18.95,35,-232,-2078,-26,4,-47,-1226,-1099,-127,1162
,424,2023-10-27 11:57:18.96,36,-251,-2068,-24,-7,-46,-1194,-1083,-111,1138
,425,2023-10-27 11:57:18.97,20,-267,-2058,-14,-34,-42,-1229,-1090,-139,1159
,426,2023-10-27 11:57:18.98,10,-273,-2050,14,-71,-31,-1193,-1073,-120,1133
,427,2023-10-27 11:57:18.99,6,-268,-2052,37,-93,-18,-1231,-1081,-150,1156
,428,2023-10-27 11:57:19.00,8,-270,-2039,53,-101,-8,-1192,-1064,-128,1128
,429,2023-10-27 11:57:19.01,12,-265,-2042,66,-99,2,-1225,-1073,-152,1149
,430,2023-10-27 11:57:19.02,2,-269,-2042,75,-95,9,-1178,-1049,-129,1113
,431,2023-10-27 11:57:19.03,-3,-259,-2045,78,-80,13,-1211,-1057,-154,1134
,432,2023-10-27 11:57:19.04,-7,-252,-2051,76,-67,13,-1162,-1029,-133,1095
,433,2023-10-27 11:57:19.05,-22,-256,-2052,72,-62,11,-1192,-1040,-152,1116
,434,2023-10-27 11:57:19.06,-10,-253,-2051,68,-63,8,-1130,-1000,-130,1065
,435,2023-10-27 11:57:19.07,-8,-242,-2042,67,-61,4,-1160,-1015,-145,1087
,436,2023-10-27 11:57:19.08,-14,-235,-2031,63,-59,-8,-1103,-977,-126,1040
,437,2023-10-27 11:57:19.09,-6,-233,-2025,54,-44,-23,-1134,-996,-138,1065
,438,2023-10-27 11:57:19.10,-7,-238,-2018,41,-18,-34,-1064,-949,-115,1006
,439,2023-10-27 11:57:19.11,-16,-265,-2022,36,8,-47,-1097,-973,-124,1035
,440,2023-10-27 11:57:19.12,-26,-284,-2025,46,0,-56,-1020,-924,-96,972
,441,2023-10-27 11:57:19.13,-19,-295,-2030,64,-17,-58,-1052,-957,-95,1004
,442,2023-10-27 11:57:19.14,-17,-299,-2029,85,-30,-59,-970,-906,-64,938
,443,2023-10-27 11:57:19.15,-30,-303,-2023,93,-21,-61,-1008,-945,-63,976
,444,2023-10-27 11:57:19.16,-34,-307,-2025,87,-8,-64,-910,-881,-29,895
,445,2023-10-27 11:57:19.17,-35,-300,-2029,83,-3,-64,-949,-922,-27,935
,446,2023-10-27 11:57:19.18,-39,-295,-2032,74,-4,-70,-849,-851,2,850
,447,2023-10-27 11:57:19.19,-46,-292,-2056,69,-14,-75,-891,-901,10,896
,448,2023-10-27 11:57:19.20,-28,-286,-2049,58,-27,-77,-784,-834,50,809
,449,2023-10-27 11:57:19.21,-53,-280,-2042,39,-15,-81,-839,-893,54,866
,450,2023-10-27 11:57:19.22,-49,-286,-2033,19,-13,-91,-732,-816,84,774
,451,2023-10-27 11:57:19.23,-49,-293,-2031,4,-3,-87,-787,-875,88,831
,452,2023-10-27 11:57:19.24,-45,-301,-2021,-2,6,-88,-673,-793,120,733
,453,2023-10-27 11:57:19.25,-52,-305,-2023,-8,7,-86,-735,-860,125,797
,454,2023-10-27 11:57:19.26,-50,-307,-2033,-8,7,-82,-621,-774,153,697
,455,2023-10-27 11:57:19.27,-35,-300,-2034,0,8,-75,-692,-849,157,770
,456,2023-10-27 11:57:19.28,-42,-296,-2037,0,7,-67,-582,-762,180,672
,457,2023-10-27 11:57:19.29,-57,-301,-2032,-3,17,-60,-657,-839,182,748
,458,2023-10-27 11:57:19.30,-54,-295,-2026,-5,18,-54,-539,-743,204,641
,459,2023-10-27 11:57:19.31,-45,-273,-2035,-2,13,-46,-613,-826,213,719
,460,2023-10-27 11:57:19.32,-40,-273,-2031,-12,17,-40,-501,-728,227,614
,461,2023-10-27 11:57:19.33,-35,-258,-2026,-26,31,-37,-585,-817,232,701
,462,2023-10-27 11:57:19.34,-30,-243,-2036,-41,39,-41,-477,-715,238,596
,463,2023-10-27 11:57:19.35,-13,-233,-2031,-56,47,-45,-567,-811,244,689
,464,2023-10-27 11:57:19.36,-9,-243,-2017,-63,55,-54,-454,-708,254,581
,465,2023-10-27 11:57:19.37,-4,-252,-2016,-58,61,-61,-538,-803,265,670
,466,2023-10-27 11:57:19.38,-15,-261,-2027,-45,68,-67,-431,-698,267,564
,467,2023-10-27 11:57:19.39,0,-263,-2033,-30,79,-69,-516,-798,282,657
,468,2023-10-27 11:57:19.40,13,-281,-2033,-13,82,-71,-405,-689,284,547
,469,2023-10-27 11:57:19.41,10,-284,-2034,8,76,-71,-492,-789,297,640
,470,2023-10-27 11:57:19.42,18,-271,-2051,26,75,-69,-385,-677,292,531
,471,2023-10-27 11:57:19.43,13,-260,-2044,35,69,-74,-484,-787,303,635
,472,2023-10-27 11:57:19.44,35,-257,-2045,38,68,-74,-376,-670,294,523
,473,2023-10-27 11:57:19.45,26,-277,-2043,41,70,-79,-473,-784,311,628
,474,2023-10-27 11:57:19.46,32,-275,-2051,53,59,-76,-365,-663,298,514
,475,2023-10-27 11:57:19.47,15,-276,-2054,57,58,-76,-468,-782,314,625
,476,2023-10-27 11:57:19.48,24,-281,-2048,54,52,-75,-361,-657,296,509
,477,2023-10-27 11:57:19.49,22,-286,-2043,49,55,-69,-470,-783,313,626
,478,2023-10-27 11:57:19.50,33,-286,-2045,49,57,-61,-366,-658,292,512
,479,2023-10-27 11:57:19.51,32,-265,-2038,36,53,-56,-474,-783,309,628
,480,2023-10-27 11:57:19.52,35,-278,-2046,18,45,-54,-351,-648,297,499
,481,2023-10-27 11:57:19.53,19,-277,-2048,2,50,-50,-443,-772,329,607
,482,2023-10-27 11:57:19.54,36,-276,-2048,-10,35,-45,-319,-634,315,476
,483,2023-10-27 11:57:19.55,37,-277,-2043,-22,24,-43,-426,-766,340,596
,484,2023-10-27 11:57:19.56,35,-291,-2039,-28,23,-35,-312,-631,319,471
,485,2023-10-27 11:57:19.57,42,-303,-2039,-24,19,-27,-394,-760,366,577
,486,2023-10-27 11:57:19.58,37,-299,-2037,-17,8,-18,-251,-618,367,434
,487,2023-10-27 11:57:19.59,27,-290,-2049,-4,5,-7,-336,-751,415,543
,488,2023-10-27 11:57:19.60,30,-289,-2044,5,13,-3,-232,-612,380,422
,489,2023-10-27 11:57:19.61,22,-301,-2033,14,14,3,-356,-751,395,553
,490,2023-10-27 11:57:19.62,14,-303,-2042,28,6,9,-257,-614,357,435
,491,2023-10-27 11:57:19.63,14,-308,-2039,40,6,14,-376,-752,376,564
,492,2023-10-27 11:57:19.64,11,-309,-2043,45,18,17,-267,-613,346,440
,493,2023-10-27 11:57:19.65,2,-304,-2036,47,17,21,-375,-747,372,561
,494,2023-10-27 11:57:19.66,19,-307,-2031,49,14,22,-263,-604,341,433
,495,2023-10-27 11:57:19.67,13,-307,-2030,51,21,21,-292,-731,439,511
,496,2023-10-27 11:57:19.68,16,-294,-2024,50,26,23,-134,-586,452,360
,497,2023-10-27 11:57:19.69,20,-297,-2024,47,32,18,-146,-715,569,430
,498,2023-10-27 11:57:19.70,21,-288,-2019,34,56,16,-34,-569,535,301
,499,2023-10-27 11:57:19.71,32,-284,-2024,16,81,9,-75,-698,623,386
,500,2023-10-27 11:57:19.72,35,-276,-2029,0,97,4,14,-552,566,269
,501,2023-10-27 11:57:19.73,25,-284,-2039,-11,94,-3,-27,-685,658,356
,502,2023-10-27 11:57:19.74,33,-272,-2062,-25,85,-2,56,-545,601,244
,503,2023-10-27 11:57:19.75,41,-273,-2063,-35,71,-5,32,-671,703,319
,504,2023-10-27 11:57:19.76,31,-278,-2065,-43,47,-6,108,-527,635,209
,505,2023-10-27 11:57:19.77,31,-265,-2059,-46,34,-1,75,-659,734,292
,506,2023-10-27 11:57:19.78,40,-268,-2051,-48,17,1,135,-530,665,197
,507,2023-10-27 11:57:19.79,40,-260,-2045,-51,2,2,60,-681,741,310
,508,2023-10-27 11:57:19.80,48,-254,-2036,-51,1,4,82,-544,626,231
,509,2023-10-27 11:57:19.81,41,-259,-2039,-51,0,5,-46,-694,648,370
,510,2023-10-27 11:57:19.82,39,-255,-2028,-50,8,6,-20,-560,540,290
,511,2023-10-27 11:57:19.83,46,-254,-2022,-47,14,3,-131,-710,579,420
,512,2023-10-27 11:57:19.84,43,-248,-2025,-40,23,2,-83,-574,491,328
,513,2023-10-27 11:57:19.85,56,-258,-2041,-31,31,0,-197,-724,527,460
,514,2023-10-27 11:57:19.86,46,-271,-2050,-19,33,1,-139,-589,450,364
,515,2023-10-27 11:57:19.87,47,-275,-2050,-6,29,2,-250,-734,484,492
,516,2023-10-27 11:57:19.88,41,-279,-2053,3,24,1,-184,-599,415,391
,517,2023-10-27 11:57:19.89,34,-277,-2057,18,15,3,-291,-741,450,516
,518,2023-10-27 11:57:19.90,30,-280,-2048,27,12,4,-218,-609,391,413
,519,2023-10-27 11:57:19.91,41,-286,-2048,36,3,4,-320,-746,426,533
,520,2023-10-27 11:57:19.92,48,-279,-2041,38,5,8,-244,-613,369,428
,521,2023-10-27 11:57:19.93,27,-271,-2036,33,7,6,-345,-750,405,547
,522,2023-10-27 11:57:19.94,33,-276,-2039,22,7,6,-265,-621,356,443
,523,2023-10-27 11:57:19.95,39,-272,-2037,14,2,3,-362,-751,389,556
,524,2023-10-27 11:57:19.96,40,-260,-2055,4,-1,-1,-282,-620,338,451
,525,2023-10-27 11:57:19.97,31,-252,-2043,-10,-4,-2,-376,-749,373,562
,526,2023-10-27 11:57:19.98,36,-264,-2034,-16,1,-6,-295,-626,331,460
,527,2023-10-27 11:57:19.99,37,-260,-2031,-17,8,-13,-386,-753,367,569
,528,2023-10-27 11:57:20.00,45,-268,-2027,-12,26,-17,-313,-633,320,473
,529,2023-10-27 11:57:20.01,35,-295,-2022,1,31,-22,-399,-757,358,578
,530,2023-10-27 11:57:20.02,29,-306,-2026,36,12,-24,-320,-639,319,479
,531,2023-10-27 11:57:20.03,38,-310,-2027,76,-7,-17,-396,-751,355,573
,532,2023-10-27 11:57:20.04,33,-329,-2029,108,-6,-13,-324,-635,311,479
,533,2023-10-27 11:57:20.05,21,-334,-2020,129,-6,-7,-404,-750,346,577
,534,2023-10-27 11:57:20.06,31,-346,-2012,147,11,4,-336,-637,301,486
,535,2023-10-27 11:57:20.07,29,-341,-1998,157,31,11,-408,-748,340,578
,536,2023-10-27 11:57:20.08,37,-343,-1980,163,63,15,-342,-641,299,491
,537,2023-10-27 11:57:20.09,42,-334,-1985,159,83,10,-408,-746,338,577
,538,2023-10-27 11:57:20.10,50,-336,-2000,146,130,11,-345,-641,296,493
,539,2023-10-27 11:57:20.11,50,-330,-2016,120,169,3,-408,-744,336,576
,540,2023-10-27 11:57:20.12,49,-328,-2048,87,200,-5,-350,-645,295,497
,541,2023-10-27 11:57:20.13,48,-331,-2051,51,211,-15,-409,-744,335,576
,542,2023-10-27 11:57:20.14,25,-338,-2056,32,194,-23,-358,-652,294,505
,543,2023-10-27 11:57:20.15,26,-332,-2051,31,140,-29,-411,-750,339,580
,544,2023-10-27 11:57:20.16,22,-317,-2071,33,77,-32,-343,-636,293,489
,545,2023-10-27 11:57:20.17,19,-314,-2098,20,27,-34,-333,-708,375,520
,546,2023-10-27 11:57:20.18,40,-271,-2115,-16,6,-31,-259,-632,373,445
,547,2023-10-27 11:57:20.19,39,-242,-2113,-75,-10,-36,-279,-726,447,502
,548,2023-10-27 11:57:20.20,30,-243,-2102,-135,-20,-37,-257,-644,387,450
,549,2023-10-27 11:57:20.21,33,-229,-2081,-176,-41,-34,-315,-726,411,520
,550,2023-10-27 11:57:20.22,25,-228,-2065,-198,-61,-27,-298,-656,358,477
,551,2023-10-27 11:57:20.23,32,-217,-2033,-212,-72,-23,-329,-734,405,531
,552,2023-10-27 11:57:20.24,52,-207,-2006,-218,-71,-20,-306,-666,360,486
,553,2023-10-27 11:57:20.25,55,-189,-1993,-218,-44,-20,-346,-738,392,542
,554,2023-10-27 11:57:20.26,61,-197,-1981,-211,-13,-27,-323,-670,347,496
,555,2023-10-27 11:57:20.27,73,-207,-1970,-195,12,-31,-347,-734,387,540
,556,2023-10-27 11:57:20.28,78,-227,-1978,-167,29,-39,-317,-666,349,491
,557,2023-10-27 11:57:20.29,64,-250,-1991,-120,31,-43,-344,-730,386,537
,558,2023-10-27 11:57:20.30,46,-283,-2015,-55,-10,-42,-335,-677,342,506
,559,2023-10-27 11:57:20.31,55,-296,-2024,19,-65,-33,-359,-731,372,545
,560,2023-10-27 11:57:20.32,47,-298,-2032,84,-80,-23,-332,-675,343,503
,561,2023-10-27 11:57:20.33,62,-294,-2034,114,-58,-13,-338,-719,381,528
,562,2023-10-27 11:57:20.34,55,-303,-2022,117,-3,-9,-334,-673,339,503
,563,2023-10-27 11:57:20.35,58,-322,-2020,118,56,-5,-362,-721,359,541
,564,2023-10-27 11:57:20.36,38,-329,-2017,131,80,-3,-348,-681,333,514
,565,2023-10-27 11:57:20.37,31,-325,-2027,149,80,2,-352,-721,369,536
,566,2023-10-27 11:57:20.38,51,-308,-2037,155,59,-7,-354,-692,338,523
,567,2023-10-27 11:57:20.39,48,-283,-2047,141,59,-13,-368,-729,361,548
,568,2023-10-27 11:57:20.40,61,-259,-2070,108,61,-28,-369,-704,335,536
,569,2023-10-27 11:57:20.41,64,-227,-2083,58,69,-51,-370,-727,357,548
,570,2023-10-27 11:57:20.42,86,-198,-2080,-37,71,-104,-367,-705,338,536
,571,2023-10-27 11:57:20.43,102,-187,-2077,-85,85,-133,-355,-716,361,535
,572,2023-10-27 11:57:20.44,115,-195,-2073,-127,100,-162,-361,-700,339,530
,573,2023-10-27 11:57:20.45,118,-214,-2065,-163,97,-189,-353,-709,356,531
,574,2023-10-27 11:57:20.46,122,-217,-2055,-178,83,-203,-372,-704,332,538
,575,2023-10-27 11:57:20.47,128,-224,-2027,-175,65,-212,-360,-709,349,534
,576,2023-10-27 11:57:20.48,142,-236,-2009,-168,56,-217,-390,-713,323,551
,577,2023-10-27 11:57:20.49,135,-229,-2009,-165,55,-218,-375,-713,338,544
,578,2023-10-27 11:57:20.50,123,-243,-2029,-155,49,-207,-396,-720,324,558
,579,2023-10-27 11:57:20.51,125,-254,-2045,-137,36,-193,-359,-709,350,534
,580,2023-10-27 11:57:20.52,124,-265,-2052,-123,26,-166,-385,-719,334,552
,581,2023-10-27 11:57:20.53,124,-274,-2067,-106,9,-143,-352,-703,351,527
,582,2023-10-27 11:57:20.54,120,-274,-2063,-87,-5,-111,-380,-716,336,548
,583,2023-10-27 11:57:20.55,109,-265,-2071,-68,-11,-85,-337,-692,355,514
,584,2023-10-27 11:57:20.56,121,-257,-2059,-51,-11,-59,-370,-709,339,539
,585,2023-10-27 11:57:20.57,121,-254,-2044,-29,-8,-43,-334,-683,349,508
,586,2023-10-27 11:57:20.58,120,-240,-2056,-11,3,-32,-376,-710,334,543
,587,2023-10-27 11:57:20.59,118,-234,-2040,2,14,-27,-333,-680,347,506
,588,2023-10-27 11:57:20.60,108,-245,-2053,15,25,-22,-377,-711,334,544
,589,2023-10-27 11:57:20.61,103,-244,-2063,25,23,-23,-330,-674,344,502
,590,2023-10-27 11:57:20.62,120,-243,-2067,32,13,-26,-385,-713,328,549
,591,2023-10-27 11:57:20.63,96,-244,-2074,36,-12,-30,-340,-676,336,508
,592,2023-10-27 11:57:20.64,85,-253,-2076,39,-29,-28,-402,-722,320,562
,593,2023-10-27 11:57:20.65,89,-268,-2064,38,-56,-25,-343,-676,333,509
,594,2023-10-27 11:57:20.66,60,-267,-2047,37,-71,-24,-401,-724,323,562
,595,2023-10-27 11:57:20.67,68,-258,-2045,29,-85,-21,-331,-663,332,497
,596,2023-10-27 11:57:20.68,56,-253,-2038,17,-84,-20,-398,-723,325,560
,597,2023-10-27 11:57:20.69,62,-258,-2033,8,-83,-19,-332,-668,336,500
,598,2023-10-27 11:57:20.70,46,-251,-2029,1,-83,-19,-398,-728,330,563
,599,2023-10-27 11:57:20.71,49,-256,-2014,-2,-73,-20,-324,-660,336,492
,600,2023-10-27 11:57:20.72,52,-251,-2015,-1,-58,-23,-394,-725,331,559
,601,2023-10-27 11:57:20.73,58,-247,-2008,-1,-40,-28,-326,-661,335,493
,602,2023-10-27 11:57:20.74,60,-240,-2010,0,-8,-34,-410,-736,326,573
,603,2023-10-27 11:57:20.75,71,-245,-2005,1,18,-41,-346,-671,325,508
,604,2023-10-27 11:57:20.76,72,-247,-2009,1,45,-48,-420,-748,328,584
,605,2023-10-27 11:57:20.77,68,-263,-2017,12,59,-54,-338,-671,333,504
,606,2023-10-27 11:57:20.78,80,-258,-2029,24,68,-56,-404,-743,339,573
,607,2023-10-27 11:57:20.79,82,-264,-2046,36,68,-52,-323,-659,336,491
,608,2023-10-27 11:57:20.80,90,-275,-2061,39,83,-46,-400,-741,341,570
,609,2023-10-27 11:57:20.81,88,-267,-2060,26,99,-38,-316,-654,338,485
,610,2023-10-27 11:57:20.82,93,-268,-2058,13,101,-30,-388,-740,352,564
,611,2023-10-27 11:57:20.83,97,-256,-2068,1,96,-24,-304,-647,343,475
,612,2023-10-27 11:57:20.84,106,-245,-2060,-7,96,-18,-396,-737,341,566
,613,2023-10-27 11:57:20.85,122,-234,-2059,-23,87,-18,-308,-642,334,475
,614,2023-10-27 11:57:20.86,117,-230,-2063,-33,80,-16,-387,-745,358,566
,615,2023-10-27 11:57:20.87,120,-235,-2061,-41,67,-16,-296,-645,349,470
,616,2023-10-27 11:57:20.88,124,-231,-2057,-47,48,-17,-393,-749,356,571
,617,2023-10-27 11:57:20.89,126,-212,-2061,-53,38,-16,-302,-642,340,472
,618,2023-10-27 11:57:20.90,109,-205,-2070,-60,27,-14,-397,-749,352,573
,619,2023-10-27 11:57:20.91,117,-199,-2065,-69,18,-14,-298,-639,341,468
,620,2023-10-27 11:57:20.92,123,-198,-2058,-69,0,-17,-396,-749,353,572
,621,2023-10-27 11:57:20.93,124,-194,-2046,-65,-10,-17,-299,-636,337,467
,622,2023-10-27 11:57:20.94,109,-194,-2039,-56,-14,-21,-399,-750,351,574
,623,2023-10-27 11:57:20.95,121,-194,-2047,-42,-20,-22,-294,-633,339,463
,624,2023-10-27 11:57:20.96,113,-203,-2038,-30,-23,-27,-398,-754,356,576
,625,2023-10-27 11:57:20.97,104,-209,-2040,-19,-26,-28,-294,-636,342,465
,626,2023-10-27 11:57:20.98,96,-213,-2044,-6,-19,-25,-409,-759,350,584
,627,2023-10-27 11:57:20.99,107,-221,-2036,4,-12,-22,-302,-634,332,468
,628,2023-10-27 11:57:21.00,110,-230,-2039,14,-7,-16,-414,-760,346,587
,629,2023-10-27 11:57:21.01,105,-239,-2046,25,-2,-8,-305,-636,331,470
,630,2023-10-27 11:57:21.02,99,-251,-2044,32,-4,-1,-411,-760,349,585
,631,2023-10-27 11:57:21.03,93,-258,-2044,41,-6,9,-304,-632,328,468
,632,2023-10-27 11:57:21.04,96,-262,-2046,46,-5,21,-410,-761,351,585
,633,2023-10-27 11:57:21.05,96,-259,-2049,40,-2,29,-304,-633,329,468
,634,2023-10-27 11:57:21.06,86,-256,-2048,37,2,40,-408,-759,351,583
,635,2023-10-27 11:57:21.07,90,-245,-2058,29,2,45,-308,-636,328,472
,636,2023-10-27 11:57:21.08,103,-235,-2053,18,-6,48,-408,-761,353,584
,637,2023-10-27 11:57:21.09,101,-222,-2043,10,-5,46,-302,-630,328,466
,638,2023-10-27 11:57:21.10,113,-220,-2040,1,0,42,-403,-760,357,581
,639,2023-10-27 11:57:21.11,107,-223,-2032,-2,-7,33,-300,-629,329,464
,640,2023-10-27 11:57:21.12,97,-218,-2043,-2,-3,26,-404,-765,361,584
,641,2023-10-27 11:57:21.13,97,-219,-2042,-2,-6,21,-296,-629,333,462
,642,2023-10-27 11:57:21.14,94,-223,-2045,1,-10,14,-401,-770,369,585
,643,2023-10-27 11:57:21.15,104,-230,-2043,12,-19,13,-292,-630,338,461
,644,2023-10-27 11:57:21.16,96,-234,-2042,20,-21,16,-399,-771,372,585
,645,2023-10-27 11:57:21.17,101,-238,-2046,26,-27,14,-291,-629,338,460
,646,2023-10-27 11:57:21.18,101,-241,-2045,26,-24,20,-399,-770,371,584
,647,2023-10-27 11:57:21.19,86,-242,-2048,29,-25,25,-293,-628,335,460
,648,2023-10-27 11:57:21.20,92,-240,-2038,31,-25,30,-400,-767,367,583
,649,2023-10-27 11:57:21.21,95,-239,-2044,24,-19,37,-288,-624,336,456
,650,2023-10-27 11:57:21.22,90,-235,-2045,16,-13,41,-398,-766,368,582
,651,2023-10-27 11:57:21.23,90,-233,-2051,6,-14,46,-292,-625,333,458
,652,2023-10-27 11:57:21.24,78,-237,-2053,-4,-13,46,-400,-770,370,585
,653,2023-10-27 11:57:21.25,92,-227,-2055,-10,-11,47,-291,-630,339,460
,654,2023-10-27 11:57:21.26,82,-228,-2047,-14,-6,48,-397,-766,369,581
,655,2023-10-27 11:57:21.27,87,-219,-2040,-16,-2,47,-288,-622,334,455
,656,2023-10-27 11:57:21.28,88,-228,-2042,-13,3,42,-402,-765,363,583
,657,2023-10-27 11:57:21.29,97,-225,-2037,-7,14,38,-303,-630,327,466
,658,2023-10-27 11:57:21.30,88,-208,-2031,-6,17,30,-412,-772,360,592
,659,2023-10-27 11:57:21.31,104,-211,-2037,-2,28,23,-310,-633,323,471
,660,2023-10-27 11:57:21.32,99,-207,-2033,-4,31,14,-409,-771,362,590
,661,2023-10-27 11:57:21.33,101,-211,-2049,0,32,5,-305,-634,329,469
,662,2023-10-27 11:57:21.34,106,-218,-2049,2,25,-1,-406,-771,365,588
,663,2023-10-27 11:57:21.35,93,-217,-2052,3,16,-6,-307,-636,329,471
,664,2023-10-27 11:57:21.36,103,-227,-2051,2,2,-11,-395,-768,373,581
,665,2023-10-27 11:57:21.37,107,-230,-2056,5,-5,-10,-298,-630,332,464
,666,2023-10-27 11:57:21.38,108,-241,-2059,8,-12,-6,-396,-765,369,580
,667,2023-10-27 11:57:21.39,101,-247,-2053,11,-9,0,-314,-637,323,475
,668,2023-10-27 11:57:21.40,101,-239,-2054,21,-20,5,-402,-768,366,585
,669,2023-10-27 11:57:21.41,110,-236,-2044,27,-25,10,-309,-635,326,472
,670,2023-10-27 11:57:21.42,97,-231,-2053,31,-29,13,-398,-766,368,582
,671,2023-10-27 11:57:21.43,96,-239,-2056,36,-34,21,-310,-638,328,474
,672,2023-10-27 11:57:21.44,83,-244,-2057,37,-41,27,-398,-766,368,582
,673,2023-10-27 11:57:21.45,84,-237,-2059,39,-42,35,-313,-638,325,475
,674,2023-10-27 11:57:21.46,87,-240,-2049,38,-40,45,-403,-765,362,584
,675,2023-10-27 11:57:21.47,89,-237,-2045,36,-46,47,-316,-636,320,476
,676,2023-10-27 11:57:21.48,74,-235,-2033,33,-44,51,-406,-766,360,586
,677,2023-10-27 11:57:21.49,77,-233,-2028,30,-33,54,-319,-638,319,478
,678,2023-10-27 11:57:21.50,82,-233,-2029,27,-31,54,-400,-764,364,582
,679,2023-10-27 11:57:21.51,79,-227,-2028,25,-23,53,-318,-637,319,477
,680,2023-10-27 11:57:21.52,81,-223,-2031,19,-21,45,-395,-758,363,576
,681,2023-10-27 11:57:21.53,70,-224,-2032,18,-14,40,-317,-637,320,477
,682,2023-10-27 11:57:21.54,77,-224,-2042,17,-11,39,-394,-760,366,577
,683,2023-10-27 11:57:21.55,73,-231,-2047,17,-14,30,-323,-641,318,482
,684,2023-10-27 11:57:21.56,79,-233,-2042,17,-14,27,-404,-760,356,582
,685,2023-10-27 11:57:21.57,82,-238,-2046,21,-11,28,-330,-641,311,485
,686,2023-10-27 11:57:21.58,66,-239,-2051,21,-7,28,-402,-758,356,580
,687,2023-10-27 11:57:21.59,75,-241,-2042,23,-5,27,-330,-641,311,485
,688,2023-10-27 11:57:21.60,83,-245,-2048,21,-2,23,-405,-752,347,578
,689,2023-10-27 11:57:21.61,80,-246,-2044,20,7,28,-338,-643,305,490
,690,2023-10-27 11:57:21.62,73,-247,-2050,17,10,29,-408,-754,346,581
,691,2023-10-27 11:57:21.63,71,-254,-2048,22,10,32,-341,-647,306,494
,692,2023-10-27 11:57:21.64,66,-251,-2039,22,12,38,-410,-752,342,581
,693,2023-10-27 11:57:21.65,87,-247,-2037,17,10,43,-348,-651,303,499
,694,2023-10-27 11:57:21.66,75,-243,-2038,14,14,46,-412,-753,341,582
,695,2023-10-27 11:57:21.67,87,-235,-2046,6,13,46,-354,-656,302,505
,696,2023-10-27 11:57:21.68,87,-226,-2053,3,19,44,-412,-752,340,582
,697,2023-10-27 11:57:21.69,88,-223,-2055,2,11,40,-357,-656,299,506
,698,2023-10-27 11:57:21.70,85,-219,-2053,0,1,33,-408,-743,335,575
,699,2023-10-27 11:57:21.71,90,-229,-2046,2,-2,25,-359,-654,295,506
,700,2023-10-27 11:57:21.72,86,-231,-2042,4,-8,20,-410,-741,331,575
,701,2023-10-27 11:57:21.73,74,-242,-2046,11,-10,17,-367,-667,300,517
,702,2023-10-27 11:57:21.74,89,-238,-2047,16,-11,17,-416,-749,333,582
,703,2023-10-27 11:57:21.75,88,-242,-2043,16,-13,17,-383,-677,294,530
,704,2023-10-27 11:57:21.76,89,-237,-2035,11,-1,23,-424,-752,328,588
,705,2023-10-27 11:57:21.77,85,-232,-2037,3,15,25,-378,-680,302,529
,706,2023-10-27 11:57:21.78,78,-233,-2048,-4,24,28,-409,-744,335,576
,707,2023-10-27 11:57:21.79,77,-233,-2049,-8,24,32,-380,-677,297,528
,708,2023-10-27 11:57:21.80,85,-230,-2049,-12,24,33,-416,-743,327,579
,709,2023-10-27 11:57:21.81,78,-222,-2052,-19,23,35,-387,-679,292,533
,710,2023-10-27 11:57:21.82,80,-219,-2053,-20,18,36,-412,-736,324,574
,711,2023-10-27 11:57:21.83,83,-222,-2050,-18,14,40,-389,-680,291,534
,712,2023-10-27 11:57:21.84,85,-225,-2039,-10,6,39,-400,-732,332,566
,713,2023-10-27 11:57:21.85,83,-218,-2048,-1,3,41,-380,-684,304,532
,714,2023-10-27 11:57:21.86,83,-219,-2037,6,-3,43,-388,-729,341,558
,715,2023-10-27 11:57:21.87,93,-224,-2036,17,-5,43,-377,-685,308,531
,716,2023-10-27 11:57:21.88,73,-228,-2037,26,-8,46,-384,-725,341,554
,717,2023-10-27 11:57:21.89,83,-232,-2043,33,-7,46,-383,-684,301,533
,718,2023-10-27 11:57:21.90,84,-224,-2049,39,-4,47,-384,-717,333,550
,719,2023-10-27 11:57:21.91,92,-234,-2049,44,2,48,-381,-678,297,529
,720,2023-10-27 11:57:21.92,79,-236,-2054,42,7,49,-378,-708,330,543
,721,2023-10-27 11:57:21.93,95,-233,-2054,40,10,46,-388,-681,293,534
,722,2023-10-27 11:57:21.94,85,-247,-2050,43,0,48,-385,-704,319,544
,723,2023-10-27 11:57:21.95,86,-248,-2049,44,-7,47,-396,-686,290,541
,724,2023-10-27 11:57:21.96,93,-248,-2047,43,-9,50,-388,-704,316,546
,725,2023-10-27 11:57:21.97,89,-244,-2049,43,-18,52,-409,-699,290,554
,726,2023-10-27 11:57:21.98,91,-254,-2046,36,-20,55,-395,-710,315,552
,727,2023-10-27 11:57:21.99,74,-248,-2052,32,-25,59,-412,-698,286,555
,728,2023-10-27 11:57:22.00,86,-242,-2052,27,-29,61,-387,-696,309,541
,729,2023-10-27 11:57:22.01,83,-237,-2057,24,-35,63,-414,-704,290,559
,730,2023-10-27 11:57:22.02,70,-257,-2050,20,-34,64,-388,-704,316,546
,731,2023-10-27 11:57:22.03,68,-254,-2043,30,-38,66,-409,-711,302,560
,732,2023-10-27 11:57:22.04,76,-250,-2026,37,-41,64,-371,-700,329,535
,733,2023-10-27 11:57:22.05,73,-244,-2032,43,-21,65,-398,-709,311,553
,734,2023-10-27 11:57:22.06,63,-243,-2031,45,-2,62,-365,-691,326,528
,735,2023-10-27 11:57:22.07,76,-238,-2031,47,9,54,-411,-701,290,556
,736,2023-10-27 11:57:22.08,75,-240,-2042,49,24,51,-372,-673,301,522
,737,2023-10-27 11:57:22.09,74,-247,-2038,48,41,49,-423,-708,285,565
,738,2023-10-27 11:57:22.10,78,-245,-2042,50,44,43,-372,-680,308,526
,739,2023-10-27 11:57:22.11,87,-255,-2034,50,48,40,-420,-701,281,560
,740,2023-10-27 11:57:22.12,86,-255,-2041,43,66,39,-359,-663,304,511
,741,2023-10-27 11:57:22.13,85,-243,-2036,35,79,34,-420,-702,282,561
,742,2023-10-27 11:57:22.14,97,-231,-2031,22,86,31,-366,-667,301,516
,743,2023-10-27 11:57:22.15,92,-231,-2045,11,84,22,-429,-715,286,572
,744,2023-10-27 11:57:22.16,79,-228,-2062,1,79,17,-360,-669,309,514
,745,2023-10-27 11:57:22.17,90,-237,-2069,-1,61,15,-432,-718,286,575
,746,2023-10-27 11:57:22.18,96,-238,-2069,0,41,14,-362,-663,301,512
,747,2023-10-27 11:57:22.19,94,-251,-2067,1,24,17,-436,-719,283,577
,748,2023-10-27 11:57:22.20,103,-269,-2060,10,12,26,-356,-660,304,508
,749,2023-10-27 11:57:22.21,102,-270,-2053,22,1,34,-436,-726,290,581
,750,2023-10-27 11:57:22.22,94,-289,-2032,42,-8,49,-356,-659,303,507
,751,2023-10-27 11:57:22.23,91,-276,-2015,59,-10,61,-440,-722,282,581
,752,2023-10-27 11:57:22.24,99,-264,-2013,72,-9,69,-367,-657,290,512
,753,2023-10-27 11:57:22.25,88,-247,-2029,77,0,73,-439,-721,282,580
,754,2023-10-27 11:57:22.26,82,-236,-2051,77,-11,74,-354,-650,296,502
,755,2023-10-27 11:57:22.27,75,-232,-2063,75,-21,72,-442,-726,284,584
,756,2023-10-27 11:57:22.28,77,-226,-2055,64,-30,66,-357,-649,292,503
,757,2023-10-27 11:57:22.29,62,-234,-2060,54,-36,61,-440,-727,287,583
,758,2023-10-27 11:57:22.30,68,-244,-2053,45,-50,51,-348,-647,299,497
,759,2023-10-27 11:57:22.31,68,-240,-2050,43,-64,41,-430,-724,294,577
,760,2023-10-27 11:57:22.32,63,-242,-2046,34,-67,36,-339,-636,297,487
,761,2023-10-27 11:57:22.33,66,-254,-2042,23,-70,29,-439,-726,287,582
,762,2023-10-27 11:57:22.34,71,-264,-2038,21,-75,25,-349,-640,291,494
,763,2023-10-27 11:57:22.35,59,-267,-2037,25,-78,19,-442,-731,289,586
,764,2023-10-27 11:57:22.36,54,-261,-2036,20,-70,19,-344,-637,293,490
,765,2023-10-27 11:57:22.37,37,-272,-2032,14,-60,19,-441,-730,289,585
,766,2023-10-27 11:57:22.38,58,-272,-2031,9,-53,19,-344,-630,286,487
,767,2023-10-27 11:57:22.39,52,-282,-2026,11,-46,22,-446,-734,288,590
,768,2023-10-27 11:57:22.40,54,-277,-2018,13,-40,23,-344,-632,288,488
,769,2023-10-27 11:57:22.41,52,-284,-2028,14,-31,24,-447,-742,295,594
,770,2023-10-27 11:57:22.42,49,-283,-2042,20,-34,27,-343,-632,289,487
,771,2023-10-27 11:57:22.43,52,-291,-2044,23,-35,28,-450,-741,291,595
,772,2023-10-27 11:57:22.44,51,-297,-2034,27,-34,37,-344,-629,285,486
,773,2023-10-27 11:57:22.45,43,-291,-2037,31,-36,43,-453,-741,288,597
,774,2023-10-27 11:57:22.46,46,-287,-2040,35,-37,47,-344,-623,279,483
,775,2023-10-27 11:57:22.47,45,-288,-2036,34,-36,55,-458,-737,279,597
,776,2023-10-27 11:57:22.48,37,-280,-2031,27,-13,55,-344,-621,277,482
,777,2023-10-27 11:57:22.49,38,-265,-2041,20,-2,57,-458,-751,293,604
,778,2023-10-27 11:57:22.50,42,-257,-2043,15,4,51,-345,-629,284,487
,779,2023-10-27 11:57:22.51,44,-262,-2034,10,17,47,-461,-745,284,603
,780,2023-10-27 11:57:22.52,43,-259,-2040,7,17,37,-345,-617,272,481
,781,2023-10-27 11:57:22.53,36,-258,-2038,1,24,38,-463,-742,279,602
,782,2023-10-27 11:57:22.54,48,-249,-2036,-2,19,30,-345,-620,275,482
,783,2023-10-27 11:57:22.55,51,-253,-2027,-5,23,25,-465,-758,293,611
,784,2023-10-27 11:57:22.56,63,-250,-2025,-9,27,19,-343,-626,283,484
,785,2023-10-27 11:57:22.57,51,-255,-2027,-11,31,12,-460,-754,294,607
,786,2023-10-27 11:57:22.58,76,-250,-2028,-13,40,9,-339,-617,278,478
,787,2023-10-27 11:57:22.59,65,-257,-2033,-12,45,2,-455,-746,291,600
,788,2023-10-27 11:57:22.60,68,-272,-2037,-6,42,-1,-340,-615,275,477
,789,2023-10-27 11:57:22.61,70,-261,-2044,-1,43,-4,-464,-755,291,609
,790,2023-10-27 11:57:22.62,69,-270,-2041,6,39,-6,-350,-625,275,487
,791,2023-10-27 11:57:22.63,68,-277,-2049,12,32,-3,-463,-749,286,606
,792,2023-10-27 11:57:22.64,73,-269,-2048,19,25,1,-341,-612,271,476
,793,2023-10-27 11:57:22.65,74,-275,-2053,22,13,3,-459,-746,287,602
,794,2023-10-27 11:57:22.66,69,-281,-2054,27,4,4,-341,-616,275,478
,795,2023-10-27 11:57:22.67,70,-281,-2049,32,-7,7,-460,-752,292,606
,796,2023-10-27 11:57:22.68,66,-284,-2049,35,-17,11,-340,-611,271,475
,797,2023-10-27 11:57:22.69,68,-279,-2039,36,-19,18,-456,-744,288,600
,798,2023-10-27 11:57:22.70,68,-279,-2044,37,-21,21,-338,-608,270,473
,799,2023-10-27 11:57:22.71,57,-281,-2039,34,-17,23,-464,-757,293,610
,800,2023-10-27 11:57:22.72,55,-269,-2039,32,-15,25,-343,-619,276,481
,801,2023-10-27 11:57:22.73,55,-275,-2041,28,-6,25,-461,-757,296,609
,802,2023-10-27 11:57:22.74,66,-267,-2039,24,-3,23,-340,-612,272,476
,803,2023-10-27 11:57:22.75,58,-265,-2030,22,4,20,-462,-758,296,610
,804,2023-10-27 11:57:22.76,62,-260,-2028,17,9,14,-345,-614,269,479
,805,2023-10-27 11:57:22.77,69,-264,-2025,14,13,9,-462,-752,290,607
,806,2023-10-27 11:57:22.78,57,-262,-2039,18,13,5,-347,-613,266,480
,807,2023-10-27 11:57:22.79,64,-272,-2042,18,12,-1,-462,-759,297,610
,808,2023-10-27 11:57:22.80,67,-270,-2040,20,9,-2,-350,-619,269,484
,809,2023-10-27 11:57:22.81,58,-271,-2043,19,8,-4,-468,-755,287,611
,810,2023-10-27 11:57:22.82,62,-273,-2040,18,3,-6,-356,-612,256,484
,811,2023-10-27 11:57:22.83,51,-285,-2044,18,5,-5,-465,-748,283,606
,812,2023-10-27 11:57:22.84,50,-280,-2033,18,7,-4,-352,-608,256,480
,813,2023-10-27 11:57:22.85,65,-276,-2041,16,13,-2,-460,-751,291,605
,814,2023-10-27 11:57:22.86,65,-274,-2041,10,21,-3,-351,-618,267,484
,815,2023-10-27 11:57:22.87,68,-275,-2040,7,26,-2,-460,-762,302,611
,816,2023-10-27 11:57:22.88,65,-277,-2041,8,27,-6,-352,-622,270,487
,817,2023-10-27 11:57:22.89,65,-280,-2033,8,31,-2,-455,-755,300,605
,818,2023-10-27 11:57:22.90,74,-273,-2034,7,34,-3,-354,-614,260,484
,819,2023-10-27 11:57:22.91,66,-275,-2045,7,34,-3,-460,-746,286,603
,820,2023-10-27 11:57:22.92,61,-276,-2051,4,31,-4,-362,-609,247,485
,821,2023-10-27 11:57:22.93,77,-280,-2052,5,26,-2,-456,-740,284,598
,822,2023-10-27 11:57:22.94,70,-269,-2041,2,23,-3,-354,-611,257,482
,823,2023-10-27 11:57:22.95,71,-268,-2043,-5,18,-4,-448,-748,300,598
,824,2023-10-27 11:57:22.96,61,-268,-2041,-10,18,-5,-352,-623,271,487
,825,2023-10-27 11:57:22.97,67,-264,-2039,-13,15,-7,-442,-760,318,601
,826,2023-10-27 11:57:22.98,69,-267,-2042,-14,11,-11,-351,-628,277,489
,827,2023-10-27 11:57:22.99,70,-271,-2032,-13,9,-9,-441,-753,312,597
,828,2023-10-27 11:57:23.00,65,-278,-2033,-5,6,-12,-345,-620,275,482
,829,2023-10-27 11:57:23.01,63,-268,-2031,0,7,-10,-439,-747,308,593
,830,2023-10-27 11:57:23.02,72,-270,-2035,7,10,-9,-357,-625,268,491
,831,2023-10-27 11:57:23.03,66,-268,-2048,8,9,-6,-454,-760,306,607
,832,2023-10-27 11:57:23.04,62,-272,-2055,10,5,-7,-366,-633,267,499
,833,2023-10-27 11:57:23.05,62,-271,-2059,14,-4,-6,-447,-756,309,601
,834,2023-10-27 11:57:23.06,60,-270,-2044,22,-9,-5,-362,-626,264,494
,835,2023-10-27 11:57:23.07,69,-271,-2035,26,-13,-1,-439,-746,307,592
,836,2023-10-27 11:57:23.08,70,-273,-2034,30,-19,0,-352,-621,269,486
,837,2023-10-27 11:57:23.09,76,-273,-2033,35,-25,4,-425,-736,311,580
,838,2023-10-27 11:57:23.10,74,-269,-2025,32,-20,5,-348,-621,273,484
,839,2023-10-27 11:57:23.11,76,-268,-2025,31,-15,7,-428,-742,314,585
,840,2023-10-27 11:57:23.12,78,-267,-2027,28,-11,7,-347,-629,282,488
,841,2023-10-27 11:57:23.13,65,-268,-2038,24,-7,6,-417,-738,321,577
,842,2023-10-27 11:57:23.14,79,-270,-2038,21,-4,9,-346,-634,288,490
,843,2023-10-27 11:57:23.15,63,-280,-2045,19,0,8,-413,-740,327,576
,844,2023-10-27 11:57:23.16,64,-274,-2050,18,-6,4,-353,-639,286,496
,845,2023-10-27 11:57:23.17,67,-275,-2047,18,-1,10,-419,-738,319,578
,846,2023-10-27 11:57:23.18,67,-273,-2050,14,-3,12,-364,-638,274,501
,847,2023-10-27 11:57:23.19,68,-267,-2046,11,-6,10,-424,-735,311,579
,848,2023-10-27 11:57:23.20,64,-264,-2040,10,-8,6,-372,-645,273,508
,849,2023-10-27 11:57:23.21,72,-260,-2032,10,-5,5,-433,-744,311,588
,850,2023-10-27 11:57:23.22,71,-258,-2035,10,2,0,-382,-659,277,520
,851,2023-10-27 11:57:23.23,79,-259,-2037,12,6,-4,-434,-742,308,588
,852,2023-10-27 11:57:23.24,67,-270,-2039,16,11,-3,-383,-652,269,517
,853,2023-10-27 11:57:23.25,76,-294,-2051,25,3,-1,-421,-727,306,574
,854,2023-10-27 11:57:23.26,67,-287,-2046,32,0,4,-370,-650,280,510
,855,2023-10-27 11:57:23.27,68,-290,-2035,33,-2,7,-402,-723,321,562
,856,2023-10-27 11:57:23.28,67,-286,-2034,33,3,11,-366,-654,288,510
,857,2023-10-27 11:57:23.29,76,-291,-2039,37,2,16,-393,-722,329,557
,858,2023-10-27 11:57:23.30,70,-281,-2040,33,-2,15,-358,-656,298,507
,859,2023-10-27 11:57:23.31,64,-283,-2045,30,-2,15,-380,-715,335,547
,860,2023-10-27 11:57:23.32,74,-286,-2046,30,-6,12,-361,-656,295,508
,861,2023-10-27 11:57:23.33,71,-289,-2043,32,-7,11,-378,-710,332,544
,862,2023-10-27 11:57:23.34,69,-288,-2041,38,-17,11,-359,-647,288,503
,863,2023-10-27 11:57:23.35,65,-288,-2035,40,-16,12,-379,-698,319,538
,864,2023-10-27 11:57:23.36,73,-283,-2040,36,-5,12,-375,-658,283,516
,865,2023-10-27 11:57:23.37,66,-288,-2029,32,3,9,-390,-713,323,551
,866,2023-10-27 11:57:23.38,50,-299,-2031,28,12,8,-385,-664,279,524
,867,2023-10-27 11:57:23.39,50,-296,-2031,32,17,12,-396,-705,309,550
,868,2023-10-27 11:57:23.40,54,-308,-2026,32,11,17,-396,-675,279,535
,869,2023-10-27 11:57:23.41,49,-307,-2029,29,18,22,-393,-714,321,553
,870,2023-10-27 11:57:23.42,50,-306,-2021,25,17,28,-390,-676,286,533
,871,2023-10-27 11:57:23.43,56,-306,-2012,22,27,33,-394,-718,324,556
,872,2023-10-27 11:57:23.44,63,-288,-2017,18,29,31,-385,-703,318,544
,873,2023-10-27 11:57:23.45,59,-289,-2035,16,30,31,-362,-723,361,542
,874,2023-10-27 11:57:23.46,57,-284,-2048,10,37,30,-366,-699,333,532
,875,2023-10-27 11:57:23.47,61,-284,-2051,3,36,25,-360,-717,357,538
,876,2023-10-27 11:57:23.48,65,-285,-2059,0,34,28,-373,-699,326,536
,877,2023-10-27 11:57:23.49,64,-280,-2047,-8,23,22,-363,-716,353,539
,878,2023-10-27 11:57:23.50,61,-276,-2040,-11,22,23,-375,-706,331,540
,879,2023-10-27 11:57:23.51,67,-273,-2034,-12,16,16,-356,-712,356,534
,880,2023-10-27 11:57:23.52,68,-276,-2034,-16,20,13,-374,-706,332,540
,881,2023-10-27 11:57:23.53,73,-278,-2032,-17,33,14,-353,-709,356,531
,882,2023-10-27 11:57:23.54,69,-277,-2032,-20,43,8,-376,-705,329,540
,883,2023-10-27 11:57:23.55,79,-283,-2048,-21,49,10,-350,-699,349,524
,884,2023-10-27 11:57:23.56,82,-293,-2032,-22,54,13,-376,-705,329,540
,885,2023-10-27 11:57:23.57,85,-288,-2030,-19,68,18,-344,-697,353,520
,886,2023-10-27 11:57:23.58,81,-286,-2027,-17,69,16,-373,-706,333,539
,887,2023-10-27 11:57:23.59,94,-284,-2025,-16,82,16,-336,-693,357,514
,888,2023-10-27 11:57:23.60,89,-283,-2029,-15,84,10,-363,-703,340,533
,889,2023-10-27 11:57:23.61,97,-285,-2028,-11,84,11,-320,-681,361,500
,890,2023-10-27 11:57:23.62,117,-279,-2035,-9,79,8,-366,-705,339,535
,891,2023-10-27 11:57:23.63,111,-285,-2046,-8,80,5,-328,-684,356,506
,892,2023-10-27 11:57:23.64,120,-282,-2048,-12,73,1,-373,-711,338,542
,893,2023-10-27 11:57:23.65,103,-276,-2042,-12,58,1,-330,-679,349,504
,894,2023-10-27 11:57:23.66,107,-284,-2054,-12,32,0,-379,-708,329,543
,895,2023-10-27 11:57:23.67,100,-277,-2058,-17,10,1,-337,-677,340,507
,896,2023-10-27 11:57:23.68,103,-274,-2068,-18,-6,4,-393,-721,328,557
,897,2023-10-27 11:57:23.69,107,-277,-2064,-25,-5,7,-339,-681,342,510
,898,2023-10-27 11:57:23.70,102,-280,-2062,-32,-1,12,-396,-727,331,561
,899,2023-10-27 11:57:23.71,88,-283,-2053,-31,-7,20,-343,-679,336,511
,900,2023-10-27 11:57:23.72,99,-294,-2046,-21,-14,30,-401,-729,328,565
,901,2023-10-27 11:57:23.73,98,-282,-2028,-4,-12,37,-336,-672,336,504
,902,2023-10-27 11:57:23.74,90,-275,-2015,6,-3,42,-395,-723,328,559
,903,2023-10-27 11:57:23.75,89,-270,-2022,14,13,45,-324,-661,337,492
,904,2023-10-27 11:57:23.76,98,-274,-2027,22,21,46,-388,-724,336,556
,905,2023-10-27 11:57:23.77,92,-268,-2030,29,24,49,-317,-660,343,488
,906,2023-10-27 11:57:23.78,110,-267,-2032,37,19,45,-381,-726,345,553
,907,2023-10-27 11:57:23.79,98,-262,-2042,43,14,43,-307,-652,345,479
,908,2023-10-27 11:57:23.80,99,-266,-2046,41,11,41,-386,-728,342,557
,909,2023-10-27 11:57:23.81,102,-274,-2051,45,8,38,-319,-654,335,486
,910,2023-10-27 11:57:23.82,104,-285,-2052,41,7,40,-390,-728,338,559
,911,2023-10-27 11:57:23.83,92,-292,-2049,44,1,40,-315,-650,335,482
,912,2023-10-27 11:57:23.84,106,-292,-2047,52,-7,43,-398,-734,336,566
,913,2023-10-27 11:57:23.85,105,-292,-2035,55,-7,47,-328,-658,330,493
,914,2023-10-27 11:57:23.86,96,-287,-2034,59,-7,47,-412,-739,327,575
,915,2023-10-27 11:57:23.87,98,-290,-2035,59,-11,48,-341,-658,317,499
,916,2023-10-27 11:57:23.88,97,-281,-2041,61,-15,49,-436,-756,320,596
,917,2023-10-27 11:57:23.89,100,-284,-2048,55,-18,49,-345,-669,324,507
,918,2023-10-27 11:57:23.90,87,-281,-2052,47,-23,48,-452,-770,318,611
,919,2023-10-27 11:57:23.91,90,-288,-2065,39,-35,51,-371,-684,313,527
,920,2023-10-27 11:57:23.92,81,-284,-2057,35,-51,56,-483,-794,311,638
,921,2023-10-27 11:57:23.93,81,-276,-2044,27,-64,60,-385,-694,309,539
,922,2023-10-27 11:57:23.94,73,-275,-2037,20,-74,67,-464,-786,322,625
,923,2023-10-27 11:57:23.95,65,-284,-2042,15,-86,71,-356,-670,314,513
,924,2023-10-27 11:57:23.96,70,-282,-2021,18,-91,73,-436,-763,327,599
,925,2023-10-27 11:57:23.97,60,-271,-2019,19,-86,75,-318,-640,322,479
,926,2023-10-27 11:57:23.98,63,-274,-2021,16,-76,75,-409,-751,342,580
,927,2023-10-27 11:57:23.99,61,-278,-2023,19,-62,74,-207,-622,415,414
,928,2023-10-27 11:57:24.00,61,-285,-2021,18,-46,73,-277,-869,592,573
,929,2023-10-27 11:57:24.01,53,-291,-2020,25,-30,73,149,-992,1141,421
,930,2023-10-27 11:57:24.02,63,-300,-2036,37,-22,75,1097,-891,1988,-103
,931,2023-10-27 11:57:24.03,70,-307,-2036,51,-21,80,2047,-216,2263,-915
,932,2023-10-27 11:57:24.04,65,-313,-2034,64,-20,79,2047,540,1507,-1293
,933,2023-10-27 11:57:24.05,56,-315,-2031,76,-13,82,2047,1389,658,-1718
,934,2023-10-27 11:57:24.06,68,-313,-2032,88,-17,84,2047,1935,112,-1991
,935,2023-10-27 11:57:24.07,67,-299,-2040,91,-15,77,2047,1996,51,-2021
,936,2023-10-27 11:57:24.08,64,-291,-2049,80,-4,74,2047,2006,41,-2026
,937,2023-10-27 11:57:24.09,65,-285,-2046,56,13,69,2047,2000,47,-2023
,938,2023-10-27 11:57:24.10,68,-276,-2052,28,29,58,2047,2000,47,-2023
,939,2023-10-27 11:57:24.11,60,-277,-2053,0,26,52,2047,1922,125,-1984
,940,2023-10-27 11:57:24.12,70,-280,-2051,-19,18,43,2047,1918,129,-1982
,941,2023-10-27 11:57:24.13,62,-283,-2054,-35,0,39,2047,1773,274,-1910
,942,2023-10-27 11:57:24.14,62,-274,-2054,-46,-17,36,2047,1845,202,-1946
,943,2023-10-27 11:57:24.15,48,-276,-2050,-52,-36,31,2047,1978,69,-2012
,944,2023-10-27 11:57:24.16,67,-274,-2042,-52,-48,29,2047,1928,119,-1987
,945,2023-10-27 11:57:24.17,57,-278,-2025,-46,-62,29,2047,1957,90,-2002
,946,2023-10-27 11:57:24.18,69,-275,-2024,-34,-66,27,2047,1946,101,-1996
,947,2023-10-27 11:57:24.19,65,-283,-2027,-20,-61,28,2047,1986,61,-2016
,948,2023-10-27 11:57:24.20,49,-285,-2028,-2,-59,29,2047,1994,53,-2020
,949,2023-10-27 11:57:24.21,46,-297,-2032,17,-50,34,2047,2007,40,-2027
,950,2023-10-27 11:57:24.22,46,-308,-2021,36,-34,41,2047,2007,40,-2027
,951,2023-10-27 11:57:24.23,40,-322,-2021,55,-19,48,2047,2035,12,-2041
,952,2023-10-27 11:57:24.24,42,-334,-2017,80,-19,55,2047,2026,21,-2036
,953,2023-10-27 11:57:24.25,40,-323,-2024,105,-24,58,2047,2014,33,-2030
,954,2023-10-27 11:57:24.26,43,-309,-2036,112,-23,59,2047,2000,47,-2023
,955,2023-10-27 11:57:24.27,52,-299,-2034,107,-14,57,2047,2020,27,-2033
,956,2023-10-27 11:57:24.28,55,-307,-2039,97,-5,48,2047,2023,24,-2035
,957,2023-10-27 11:57:24.29,65,-308,-2052,87,-1,40,2047,2021,26,-2034
,958,2023-10-27 11:57:24.30,54,-311,-2047,70,10,30,2047,2008,39,-2027
,959,2023-10-27 11:57:24.31,60,-313,-2049,50,19,24,2047,1741,306,-1894
,960,2023-10-27 11:57:24.32,66,-324,-2044,36,14,20,2047,965,1082,-1506
,961,2023-10-27 11:57:24.33,63,-335,-2038,35,0,18,-619,284,-903,167
,962,2023-10-27 11:57:24.34,58,-331,-2033,30,-6,18,-1204,-4,-1200,604
,963,2023-10-27 11:57:24.35,56,-321,-2042,21,-9,15,-720,-83,-637,401
,964,2023-10-27 11:57:24.36,47,-319,-2040,3,-12,17,-543,-320,-223,431
,965,2023-10-27 11:57:24.37,41,-312,-2040,-10,-21,18,-549,-411,-138,480
,966,2023-10-27 11:57:24.38,39,-305,-2037,-25,-27,23,-849,-655,-194,752
,967,2023-10-27 11:57:24.39,20,-303,-2036,-38,-28,26,-872,-676,-196,774
,968,2023-10-27 11:57:24.40,20,-295,-2038,-53,-32,30,-1008,-862,-146,935
,969,2023-10-27 11:57:24.41,36,-300,-2021,-62,-32,29,-922,-820,-102,871
,970,2023-10-27 11:57:24.42,16,-307,-2017,-59,-33,34,-1045,-970,-75,1007
,971,2023-10-27 11:57:24.43,10,-303,-2024,-53,-37,34,-973,-910,-63,941
,972,2023-10-27 11:57:24.44,16,-298,-2013,-44,-26,33,-1104,-1049,-55,1076
,973,2023-10-27 11:57:24.45,22,-292,-2017,-43,-10,28,-1029,-977,-52,1003
,974,2023-10-27 11:57:24.46,32,-289,-2015,-38,9,23,-1148,-1099,-49,1123
,975,2023-10-27 11:57:24.47,34,-284,-2015,-31,27,13,-1065,-1016,-49,1040
,976,2023-10-27 11:57:24.48,41,-278,-2022,-27,41,5,-1178,-1133,-45,1155
,977,2023-10-27 11:57:24.49,57,-285,-2033,-22,53,-5,-1099,-1048,-51,1073
,978,2023-10-27 11:57:24.50,56,-287,-2043,-16,58,-12,-1206,-1156,-50,1181
,979,2023-10-27 11:57:24.51,50,-294,-2048,-10,55,-12,-1123,-1070,-53,1096
,980,2023-10-27 11:57:24.52,54,-304,-2040,-6,56,-14,-1226,-1175,-51,1200
,981,2023-10-27 11:57:24.53,56,-312,-2043,-4,53,-11,-1145,-1085,-60,1115
,982,2023-10-27 11:57:24.54,63,-316,-2032,-4,50,0,-1241,-1182,-59,1211
,983,2023-10-27 11:57:24.55,59,-322,-2029,-8,48,5,-1158,-1085,-73,1121
,984,2023-10-27 11:57:24.56,66,-323,-2029,-12,45,10,-1249,-1182,-67,1215
,985,2023-10-27 11:57:24.57,69,-309,-2029,-18,40,18,-1171,-1084,-87,1127
,986,2023-10-27 11:57:24.58,86,-308,-2021,-26,38,22,-1258,-1177,-81,1217
,987,2023-10-27 11:57:24.59,90,-300,-2008,-33,45,23,-1177,-1078,-99,1127
,988,2023-10-27 11:57:24.60,89,-290,-2000,-39,54,20,-1259,-1174,-85,1216
,989,2023-10-27 11:57:24.61,83,-279,-2010,-47,61,18,-1181,-1077,-104,1129
,990,2023-10-27 11:57:24.62,82,-272,-2024,-46,64,11,-1260,-1169,-91,1214
,991,2023-10-27 11:57:24.63,72,-263,-2042,-53,64,7,-1182,-1063,-119,1122
,992,2023-10-27 11:57:24.64,57,-265,-2061,-54,46,3,-1252,-1147,-105,1199
,993,2023-10-27 11:57:24.65,55,-246,-2100,-51,4,-1,-1174,-1045,-129,1109
,994,2023-10-27 11:57:24.66,47,-230,-2126,-49,-42,0,-1246,-1134,-112,1190
,995,2023-10-27 11:57:24.67,25,-227,-2140,-67,-64,4,-1166,-1035,-131,1100
,996,2023-10-27 11:57:24.68,29,-216,-2146,-88,-76,4,-1230,-1116,-114,1173
,997,2023-10-27 11:57:24.69,18,-235,-2100,-111,-80,5,-1146,-1014,-132,1080
,998,2023-10-27 11:57:24.70,19,-263,-2070,-90,-124,9,-1208,-1092,-116,1150
,999,2023-10-27 11:57:24.71,31,-276,-2016,-37,-151,17,-1121,-990,-131,1055
,1000,2023-10-27 11:57:24.72,30,-273,-2009,15,-139,24,-1180,-1069,-111,1124
,1001,2023-10-27 11:57:24.73,30,-293,-1998,48,-101,29,-1095,-971,-124,1033
,1002,2023-10-27 11:57:24.74,48,-296,-1975,76,-36,29,-1142,-1040,-102,1091
,1003,2023-10-27 11:57:24.75,40,-318,-1966,103,42,30,-1049,-939,-110,994
,1004,2023-10-27 11:57:24.76,34,-352,-1977,142,94,31,-1098,-1014,-84,1056
,1005,2023-10-27 11:57:24.77,41,-366,-1979,190,99,41,-1012,-918,-94,965
,1006,2023-10-27 11:57:24.78,46,-360,-1987,240,90,51,-1051,-986,-65,1018
,1007,2023-10-27 11:57:24.79,52,-342,-2006,256,94,55,-962,-894,-68,928
,1008,2023-10-27 11:57:24.80,63,-338,-2004,248,121,52,-994,-962,-32,978
,1009,2023-10-27 11:57:24.81,71,-336,-2013,223,133,46,-913,-877,-36,895
,1010,2023-10-27 11:57:24.82,75,-332,-2016,201,132,39,-936,-939,3,937
,1011,2023-10-27 11:57:24.83,67,-324,-2025,173,119,33,-858,-856,-2,857
,1012,2023-10-27 11:57:24.84,64,-316,-2036,136,101,27,-876,-916,40,896
,1013,2023-10-27 11:57:24.85,71,-312,-2052,95,76,19,-807,-839,32,823
,1014,2023-10-27 11:57:24.86,59,-300,-2057,48,57,14,-823,-893,70,858
,1015,2023-10-27 11:57:24.87,59,-284,-2075,-4,38,12,-765,-823,58,794
,1016,2023-10-27 11:57:24.88,69,-276,-2073,-57,24,7,-779,-877,98,828
,1017,2023-10-27 11:57:24.89,60,-268,-2080,-108,15,3,-728,-813,85,770
,1018,2023-10-27 11:57:24.90,69,-260,-2076,-146,-2,2,-732,-857,125,794
,1019,2023-10-27 11:57:24.91,61,-255,-2062,-169,-19,-3,-689,-801,112,745
,1020,2023-10-27 11:57:24.92,61,-272,-2061,-179,-25,-9,-692,-846,154,769
,1021,2023-10-27 11:57:24.93,69,-286,-2054,-170,-34,-8,-659,-796,137,727
,1022,2023-10-27 11:57:24.94,58,-302,-2043,-145,-40,-3,-655,-828,173,741
,1023,2023-10-27 11:57:24.95,67,-305,-2035,-110,-40,1,-622,-782,160,702
,1024,2023-10-27 11:57:24.96,82,-310,-2035,-67,-30,10,-608,-814,206,711
,1025,2023-10-27 11:57:24.97,94,-310,-2022,-31,-13,13,-587,-774,187,680
,1026,2023-10-27 11:57:24.98,80,-314,-2030,4,9,12,-578,-798,220,688
,1027,2023-10-27 11:57:24.99,82,-312,-2023,34,27,9,-566,-767,201,666
,1028,2023-10-27 11:57:25.00,76,-312,-2034,60,29,10,-550,-784,234,667
,1029,2023-10-27 11:57:25.01,72,-321,-2034,77,22,7,-533,-754,221,643
,1030,2023-10-27 11:57:25.02,66,-317,-2029,87,13,4,-508,-764,256,636
,1031,2023-10-27 11:57:25.03,63,-305,-2030,89,-2,8,-507,-747,240,627
,1032,2023-10-27 11:57:25.04,55,-304,-2032,77,-5,7,-489,-754,265,621
,1033,2023-10-27 11:57:25.05,56,-300,-2025,59,-11,7,-492,-738,246,615
,1034,2023-10-27 11:57:25.06,54,-314,-2016,42,-25,9,-476,-744,268,610
,1035,2023-10-27 11:57:25.07,54,-306,-2016,27,-19,8,-497,-744,247,620
,1036,2023-10-27 11:57:25.08,54,-299,-2017,7,-6,6,-482,-751,269,616
,1037,2023-10-27 11:57:25.09,57,-306,-2013,-18,14,4,-499,-747,248,623
,1038,2023-10-27 11:57:25.10,54,-303,-2028,-23,12,4,-464,-735,271,599
,1039,2023-10-27 11:57:25.11,52,-310,-2033,-19,-1,7,-481,-740,259,610
,1040,2023-10-27 11:57:25.12,59,-293,-2040,-21,1,10,-440,-728,288,584
,1041,2023-10-27 11:57:25.13,48,-295,-2041,-32,20,12,-463,-739,276,601
,1042,2023-10-27 11:57:25.14,54,-294,-2034,-45,40,15,-427,-722,295,574
,1043,2023-10-27 11:57:25.15,57,-300,-2041,-45,39,16,-451,-737,286,594
,1044,2023-10-27 11:57:25.16,55,-291,-2043,-39,44,24,-407,-711,304,559
,1045,2023-10-27 11:57:25.17,56,-287,-2033,-41,50,26,-444,-737,293,590
,1046,2023-10-27 11:57:25.18,83,-277,-2018,-39,69,24,-394,-702,308,548
,1047,2023-10-27 11:57:25.19,96,-263,-2022,-38,99,18,-439,-738,299,588
,1048,2023-10-27 11:57:25.20,88,-265,-2045,-38,120,7,-392,-701,309,546
,1049,2023-10-27 11:57:25.21,98,-277,-2059,-36,126,1,-440,-739,299,589
,1050,2023-10-27 11:57:25.22,96,-288,-2065,-26,119,1,-383,-695,312,539
,1051,2023-10-27 11:57:25.23,103,-291,-2073,-15,106,0,-436,-741,305,588
,1052,2023-10-27 11:57:25.24,101,-288,-2074,-6,86,0,-377,-692,315,534
,1053,2023-10-27 11:57:25.25,105,-299,-2065,-1,63,4,-428,-738,310,583
,1054,2023-10-27 11:57:25.26,106,-301,-2062,4,42,7,-359,-680,321,519
,1055,2023-10-27 11:57:25.27,111,-292,-2047,7,24,7,-415,-735,320,575
,1056,2023-10-27 11:57:25.28,109,-289,-2043,6,9,8,-350,-673,323,511
,1057,2023-10-27 11:57:25.29,105,-293,-2040,6,-3,8,-417,-733,316,575
,1058,2023-10-27 11:57:25.30,97,-298,-2041,2,-7,10,-351,-669,318,510
,1059,2023-10-27 11:57:25.31,95,-302,-2033,-1,-11,14,-429,-739,310,584
,1060,2023-10-27 11:57:25.32,102,-299,-2024,-2,-11,18,-357,-670,313,513
,1061,2023-10-27 11:57:25.33,102,-298,-2014,-3,3,22,-429,-740,311,584
,1062,2023-10-27 11:57:25.34,98,-288,-2005,-4,16,23,-354,-667,313,510
,1063,2023-10-27 11:57:25.35,98,-278,-2011,-11,29,20,-444,-749,305,596
,1064,2023-10-27 11:57:25.36,87,-288,-2009,-10,30,22,-372,-672,300,522
,1065,2023-10-27 11:57:25.37,97,-294,-2027,-3,29,25,-448,-749,301,598
,1066,2023-10-27 11:57:25.38,95,-291,-2048,2,21,27,-359,-662,303,510
,1067,2023-10-27 11:57:25.39,93,-296,-2057,2,14,33,-445,-749,304,597
,1068,2023-10-27 11:57:25.40,98,-294,-2054,2,3,42,-360,-660,300,510
,1069,2023-10-27 11:57:25.41,96,-290,-2063,1,-6,50,-440,-746,306,593
,1070,2023-10-27 11:57:25.42,90,-288,-2064,-4,-10,57,-345,-649,304,497
,1071,2023-10-27 11:57:25.43,99,-286,-2062,-7,-13,61,-432,-745,313,588
,1072,2023-10-27 11:57:25.44,91,-286,-2034,-7,-12,65,-345,-649,304,497
,1073,2023-10-27 11:57:25.45,106,-288,-2035,-2,-15,67,-437,-747,310,592
,1074,2023-10-27 11:57:25.46,86,-276,-2030,1,-11,66,-330,-633,303,481
,1075,2023-10-27 11:57:25.47,91,-273,-2023,7,-6,64,-435,-744,309,589
,1076,2023-10-27 11:57:25.48,95,-277,-2052,9,-10,63,-347,-641,294,494
,1077,2023-10-27 11:57:25.49,81,-278,-2050,10,-6,64,-448,-755,307,601
,1078,2023-10-27 11:57:25.50,77,-275,-2052,7,-1,63,-342,-640,298,491
,1079,2023-10-27 11:57:25.51,73,-295,-2037,7,-4,65,-435,-748,313,591
,1080,2023-10-27 11:57:25.52,74,-285,-2029,11,-10,68,-328,-630,302,479
,1081,2023-10-27 11:57:25.53,84,-291,-2021,18,-11,68,-420,-741,321,580
,1082,2023-10-27 11:57:25.54,66,-287,-2020,22,-8,66,-309,-622,313,465
,1083,2023-10-27 11:57:25.55,83,-276,-2026,20,3,66,-418,-747,329,582
,1084,2023-10-27 11:57:25.56,76,-287,-2039,16,5,65,-309,-619,310,464
,1085,2023-10-27 11:57:25.57,66,-291,-2045,16,3,68,-410,-740,330,575
,1086,2023-10-27 11:57:25.58,82,-291,-2047,17,2,70,-301,-617,316,459
,1087,2023-10-27 11:57:25.59,78,-295,-2040,18,-1,74,-406,-743,337,574
,1088,2023-10-27 11:57:25.60,72,-294,-2036,20,-5,76,-295,-616,321,455
,1089,2023-10-27 11:57:25.61,76,-297,-2030,19,-6,81,-392,-740,348,566
,1090,2023-10-27 11:57:25.62,75,-291,-2031,17,-1,87,-274,-607,333,440
,1091,2023-10-27 11:57:25.63,79,-291,-2028,18,4,84,-330,-720,390,525
,1092,2023-10-27 11:57:25.64,82,-287,-2021,13,11,85,-194,-585,391,389
,1093,2023-10-27 11:57:25.65,78,-287,-2022,7,25,82,-238,-713,475,475
,1094,2023-10-27 11:57:25.66,83,-289,-2029,-1,26,80,-116,-583,467,349
,1095,2023-10-27 11:57:25.67,74,-293,-2037,-2,25,78,-229,-720,491,474
,1096,2023-10-27 11:57:25.68,72,-293,-2047,0,18,78,-158,-589,431,373
,1097,2023-10-27 11:57:25.69,76,-293,-2052,-3,6,77,-285,-729,444,507
,1098,2023-10-27 11:57:25.70,84,-291,-2046,-8,12,75,-200,-599,399,399
,1099,2023-10-27 11:57:25.71,76,-286,-2038,-10,7,72,-320,-739,419,529
,1100,2023-10-27 11:57:25.72,87,-290,-2023,-4,3,68,-221,-599,378,410
,1101,2023-10-27 11:57:25.73,77,-281,-2030,3,-2,63,-343,-741,398,542
,1102,2023-10-27 11:57:25.74,72,-277,-2036,1,13,58,-241,-598,357,419
,1103,2023-10-27 11:57:25.75,81,-277,-2044,-4,19,49,-309,-718,409,513
,1104,2023-10-27 11:57:25.76,85,-284,-2050,-4,18,46,-172,-578,406,375
,1105,2023-10-27 11:57:25.77,91,-279,-2034,-2,9,39,-217,-724,507,470
,1106,2023-10-27 11:57:25.78,89,-277,-2037,4,8,37,-106,-593,487,349
,1107,2023-10-27 11:57:25.79,103,-274,-2041,4,5,33,-207,-737,530,472
,1108,2023-10-27 11:57:25.80,91,-272,-2044,-3,11,28,-130,-594,464,362
,1109,2023-10-27 11:57:25.81,102,-274,-2058,-1,12,28,-238,-731,493,484
,1110,2023-10-27 11:57:25.82,96,-286,-2056,5,1,23,-157,-592,435,374
,1111,2023-10-27 11:57:25.83,104,-281,-2048,12,-2,25,-269,-736,467,502
,1112,2023-10-27 11:57:25.84,88,-284,-2054,17,-4,22,-179,-592,413,385
,1113,2023-10-27 11:57:25.85,100,-273,-2058,21,-13,22,-283,-732,449,507
,1114,2023-10-27 11:57:25.86,81,-264,-2056,22,-16,24,-192,-593,401,392
,1115,2023-10-27 11:57:25.87,78,-284,-2051,23,-37,25,-294,-731,437,512
,1116,2023-10-27 11:57:25.88,77,-286,-2040,36,-59,28,-211,-595,384,403
,1117,2023-10-27 11:57:25.89,66,-287,-2027,48,-72,33,-316,-736,420,526
,1118,2023-10-27 11:57:25.90,77,-285,-2027,58,-75,33,-229,-606,377,417
,1119,2023-10-27 11:57:25.91,69,-293,-2022,60,-68,33,-328,-740,412,534
,1120,2023-10-27 11:57:25.92,78,-295,-2026,66,-55,33,-241,-601,360,421
,1121,2023-10-27 11:57:25.93,57,-292,-2021,70,-47,35,-357,-745,388,551
,1122,2023-10-27 11:57:25.94,64,-299,-2031,73,-36,34,-261,-599,338,430
,1123,2023-10-27 11:57:25.95,45,-294,-2034,75,-30,37,-366,-734,368,550
,1124,2023-10-27 11:57:25.96,55,-295,-2040,71,-26,37,-285,-598,313,441
,1125,2023-10-27 11:57:25.97,55,-301,-2046,71,-25,37,-367,-716,349,541
,1126,2023-10-27 11:57:25.98,60,-301,-2046,67,-24,35,-248,-567,319,407
,1127,2023-10-27 11:57:25.99,55,-291,-2034,64,-19,34,-248,-684,436,466
,1128,2023-10-27 11:57:26.00,64,-304,-2028,63,-8,28,-109,-551,442,330
,1129,2023-10-27 11:57:26.01,71,-306,-2029,61,3,24,-173,-699,526,436
,1130,2023-10-27 11:57:26.02,67,-300,-2019,62,17,16,-128,-578,450,353
,1131,2023-10-27 11:57:26.03,69,-303,-2025,64,29,12,-257,-721,464,489
,1132,2023-10-27 11:57:26.04,77,-310,-2014,64,37,7,-204,-592,388,398
,1133,2023-10-27 11:57:26.05,81,-322,-2023,63,47,3,-305,-727,422,516
,1134,2023-10-27 11:57:26.06,77,-313,-2041,64,51,-3,-235,-602,367,418
,1135,2023-10-27 11:57:26.07,87,-317,-2056,58,38,-3,-338,-737,399,537
,1136,2023-10-27 11:57:26.08,81,-305,-2052,56,25,-5,-264,-610,346,437
,1137,2023-10-27 11:57:26.09,79,-308,-2067,42,15,-4,-357,-740,383,548
,1138,2023-10-27 11:57:26.10,84,-302,-2068,27,5,-5,-273,-616,343,444
,1139,2023-10-27 11:57:26.11,86,-314,-2060,14,-11,-6,-353,-741,388,547
,1140,2023-10-27 11:57:26.12,81,-307,-2051,5,-26,-1,-262,-603,341,432
,1141,2023-10-27 11:57:26.13,78,-317,-2042,1,-42,0,-258,-700,442,479
,1142,2023-10-27 11:57:26.14,72,-307,-2032,-2,-51,3,-115,-570,455,342
,1143,2023-10-27 11:57:26.15,71,-322,-2035,-8,-58,5,-75,-675,600,375
,1144,2023-10-27 11:57:26.16,77,-326,-2036,-8,-59,12,30,-550,580,260
,1145,2023-10-27 11:57:26.17,72,-314,-2040,-15,-56,13,41,-648,689,303
,1146,2023-10-27 11:57:26.18,64,-314,-2035,-20,-47,16,95,-541,636,223
,1147,2023-10-27 11:57:26.19,80,-309,-2021,-26,-46,18,82,-647,729,282
,1148,2023-10-27 11:57:26.20,74,-296,-2022,-28,-43,14,123,-543,666,210
,1149,2023-10-27 11:57:26.21,66,-293,-2017,-34,-32,14,121,-632,753,255
,1150,2023-10-27 11:57:26.22,60,-293,-2019,-44,-21,9,162,-525,687,181
,1151,2023-10-27 11:57:26.23,61,-293,-2021,-49,-17,8,158,-617,775,229
,1152,2023-10-27 11:57:26.24,62,-296,-2023,-51,-11,6,179,-517,696,169
,1153,2023-10-27 11:57:26.25,54,-289,-2020,-52,-15,5,172,-598,770,213
,1154,2023-10-27 11:57:26.26,51,-288,-2033,-53,-20,7,196,-507,703,155
,1155,2023-10-27 11:57:26.27,47,-294,-2045,-50,-33,10,192,-601,793,204
,1156,2023-10-27 11:57:26.28,34,-299,-2051,-45,-45,17,218,-516,734,149
,1157,2023-10-27 11:57:26.29,12,-305,-2049,-42,-62,24,217,-603,820,193
,1158,2023-10-27 11:57:26.30,17,-305,-2046,-34,-73,34,234,-520,754,143
,1159,2023-10-27 11:57:26.31,11,-310,-2035,-31,-81,49,223,-608,831,192
,1160,2023-10-27 11:57:26.32,16,-308,-2028,-26,-79,60,239,-535,774,148
,1161,2023-10-27 11:57:26.33,7,-305,-2013,-19,-74,70,248,-608,856,180
,1162,2023-10-27 11:57:26.34,17,-306,-2001,-15,-52,77,256,-537,793,140
,1163,2023-10-27 11:57:26.35,-1,-311,-1997,-7,-32,84,267,-588,855,160
,1164,2023-10-27 11:57:26.36,24,-302,-2001,-1,-10,85,270,-520,790,125
,1165,2023-10-27 11:57:26.37,14,-311,-2000,5,10,86,278,-581,859,151
,1166,2023-10-27 11:57:26.38,26,-307,-1998,14,34,86,279,-528,807,124
,1167,2023-10-27 11:57:26.39,35,-309,-2003,17,56,80,294,-588,882,147
,1168,2023-10-27 11:57:26.40,41,-304,-2015,13,80,74,296,-534,830,119
,1169,2023-10-27 11:57:26.41,47,-300,-2015,4,101,62,321,-581,902,130
,1170,2023-10-27 11:57:26.42,61,-295,-2033,-3,110,50,272,-545,817,136
,1171,2023-10-27 11:57:26.43,67,-287,-2046,-4,105,38,202,-604,806,201
,1172,2023-10-27 11:57:26.44,71,-288,-2053,-3,93,27,121,-575,696,227
,1173,2023-10-27 11:57:26.45,69,-290,-2043,-1,78,17,66,-628,694,281
,1174,2023-10-27 11:57:26.46,90,-286,-2035,0,67,7,10,-604,614,297
,1175,2023-10-27 11:57:26.47,90,-294,-2050,-5,62,-2,-31,-651,620,341
,1176,2023-10-27 11:57:26.48,88,-291,-2048,-5,54,-5,-75,-627,552,351
,1177,2023-10-27 11:57:26.49,84,-292,-2054,-9,41,-7,-100,-662,562,381
,1178,2023-10-27 11:57:26.50,77,-293,-2057,-10,29,-8,-130,-638,508,384
,1179,2023-10-27 11:57:26.51,87,-299,-2060,-14,19,-4,-145,-656,511,400
