// Data mode  : Full
// Data quality  : High
// Acceleration sensor's range  : 16g
// Gyroscope sensor's range  : 2000dps
//
//ARTIFACT,NUM,DATE,ACC_X,ACC_Y,ACC_Z,GYRO_X,GYRO_Y,GYRO_Z,EOG_L,EOG_R,EOG_H,EOG_V
,1,2023-10-27 12:17:02.99,102,9,-2058,-2,24,59,503,97,406,-300
,2,2023-10-27 12:17:03.00,107,2,-2063,-4,17,56,361,-44,405,-158
,3,2023-10-27 12:17:03.01,99,27,-2071,-6,14,44,531,108,423,-319
,4,2023-10-27 12:17:03.02,105,15,-2062,-11,-3,39,370,-48,418,-161
,5,2023-10-27 12:17:03.03,94,18,-2064,-9,-1,34,523,103,420,-313
,6,2023-10-27 12:17:03.04,111,31,-2060,-12,5,38,365,-53,418,-156
,7,2023-10-27 12:17:03.05,105,19,-2048,-10,27,43,535,110,425,-322
,8,2023-10-27 12:17:03.06,114,31,-2043,-12,21,39,383,-46,429,-168
,9,2023-10-27 12:17:03.07,113,18,-2053,-16,26,36,531,107,424,-319
,10,2023-10-27 12:17:03.08,122,34,-2047,-19,17,26,366,-48,414,-159
,11,2023-10-27 12:17:03.09,111,28,-2031,-20,52,27,520,114,406,-317
,12,2023-10-27 12:17:03.10,124,34,-2020,-26,30,12,359,-46,405,-156
,13,2023-10-27 12:17:03.11,119,34,-2040,-15,48,24,543,109,434,-326
,14,2023-10-27 12:17:03.12,122,38,-2070,-25,19,8,400,-66,466,-167
,15,2023-10-27 12:17:03.13,113,27,-2077,-28,1,8,576,102,474,-339
,16,2023-10-27 12:17:03.14,126,28,-2073,-26,-15,0,398,-65,463,-166
,17,2023-10-27 12:17:03.15,126,35,-2073,-11,-13,14,563,106,457,-334
,18,2023-10-27 12:17:03.16,128,45,-2066,-12,-22,10,380,-65,445,-157
,19,2023-10-27 12:17:03.17,124,45,-2068,-12,-13,8,560,112,448,-336
,20,2023-10-27 12:17:03.18,131,41,-2064,-10,-25,5,392,-52,444,-170
,21,2023-10-27 12:17:03.19,117,39,-2045,-5,-14,5,569,126,443,-347
,22,2023-10-27 12:17:03.20,112,40,-2044,0,-23,16,385,-54,439,-165
,23,2023-10-27 12:17:03.21,104,33,-2049,-5,-15,20,560,124,436,-342
,24,2023-10-27 12:17:03.22,103,27,-2059,1,-13,41,374,-53,427,-160
,25,2023-10-27 12:17:03.23,104,26,-2065,3,-17,39,554,128,426,-341
,26,2023-10-27 12:17:03.24,106,29,-2062,10,-20,58,365,-52,417,-156
,27,2023-10-27 12:17:03.25,110,34,-2066,15,4,74,557,126,431,-341
,28,2023-10-27 12:17:03.26,107,35,-2064,22,-13,87,373,-59,432,-157
,29,2023-10-27 12:17:03.27,110,32,-2062,27,-5,95,569,122,447,-345
,30,2023-10-27 12:17:03.28,93,33,-2059,27,-17,94,386,-56,442,-165
,31,2023-10-27 12:17:03.29,112,35,-2053,27,-17,96,567,122,445,-344
,32,2023-10-27 12:17:03.30,99,30,-2047,30,-37,91,372,-66,438,-153
,33,2023-10-27 12:17:03.31,92,34,-2051,34,6,106,570,108,462,-339
,34,2023-10-27 12:17:03.32,93,37,-2052,32,3,105,386,-74,460,-156
,35,2023-10-27 12:17:03.33,97,34,-2053,28,-21,89,585,109,476,-347
,36,2023-10-27 12:17:03.34,98,35,-2039,35,4,98,397,-74,471,-161
,37,2023-10-27 12:17:03.35,95,38,-2040,30,-5,89,581,105,476,-343
,38,2023-10-27 12:17:03.36,107,37,-2041,28,14,87,376,-85,461,-145
,39,2023-10-27 12:17:03.37,105,36,-2054,26,10,89,562,97,465,-329
,40,2023-10-27 12:17:03.38,97,34,-2050,24,17,76,367,-87,454,-140
,41,2023-10-27 12:17:03.39,99,33,-2060,22,0,66,568,100,468,-334
,42,2023-10-27 12:17:03.40,98,30,-2046,21,11,61,371,-83,454,-144
,43,2023-10-27 12:17:03.41,93,23,-2043,24,-5,59,560,113,447,-336
,44,2023-10-27 12:17:03.42,113,25,-2034,29,7,58,364,-59,423,-152
,45,2023-10-27 12:17:03.43,112,16,-2037,31,20,55,546,116,430,-331
,46,2023-10-27 12:17:03.44,114,23,-2036,35,17,46,354,-72,426,-141
,47,2023-10-27 12:17:03.45,125,10,-2047,45,35,44,550,98,452,-324
,48,2023-10-27 12:17:03.46,116,11,-2049,53,40,35,372,-77,449,-147
,49,2023-10-27 12:17:03.47,126,-4,-2058,69,84,46,575,109,466,-342
,50,2023-10-27 12:17:03.48,116,2,-2071,67,54,26,385,-79,464,-153
,51,2023-10-27 12:17:03.49,116,-3,-2048,77,74,36,596,116,480,-356
,52,2023-10-27 12:17:03.50,106,-10,-2053,84,56,36,405,-66,471,-169
,53,2023-10-27 12:17:03.51,114,-3,-2050,94,71,40,592,116,476,-354
,54,2023-10-27 12:17:03.52,110,-8,-2048,96,45,28,386,-67,453,-159
,55,2023-10-27 12:17:03.53,119,-5,-2050,96,53,34,576,116,460,-346
,56,2023-10-27 12:17:03.54,125,-5,-2046,98,26,17,383,-66,449,-158
,57,2023-10-27 12:17:03.55,125,-18,-2048,103,35,18,622,102,520,-362
,58,2023-10-27 12:17:03.56,116,-20,-2060,107,9,3,470,-79,549,-195
,59,2023-10-27 12:17:03.57,113,-34,-2054,112,8,-3,683,91,592,-387
,60,2023-10-27 12:17:03.58,122,-31,-2067,127,3,5,489,-79,568,-205
,61,2023-10-27 12:17:03.59,112,-40,-2050,131,-6,-8,682,97,585,-389
,62,2023-10-27 12:17:03.60,115,-33,-2050,145,-7,-8,485,-68,553,-208
,63,2023-10-27 12:17:03.61,134,-38,-2052,155,-23,-32,679,99,580,-389
,64,2023-10-27 12:17:03.62,117,-45,-2044,162,-14,-27,488,-74,562,-207
,65,2023-10-27 12:17:03.63,108,-57,-2048,171,-16,-39,657,88,569,-372
,66,2023-10-27 12:17:03.64,106,-71,-2033,183,2,-26,450,-82,532,-184
,67,2023-10-27 12:17:03.65,122,-44,-2050,192,-22,-42,648,142,506,-395
,68,2023-10-27 12:17:03.66,127,-62,-2039,199,-4,-35,486,-4,490,-241
,69,2023-10-27 12:17:03.67,124,-55,-2035,204,-1,-37,675,113,562,-394
,70,2023-10-27 12:17:03.68,121,-46,-2033,207,19,-40,494,-84,578,-205
,71,2023-10-27 12:17:03.69,151,-54,-2042,213,-10,-50,755,52,703,-403
,72,2023-10-27 12:17:03.70,115,-62,-2034,216,16,-48,634,-94,728,-270
,73,2023-10-27 12:17:03.71,118,-67,-2051,226,39,-32,916,63,853,-489
,74,2023-10-27 12:17:03.72,128,-67,-2067,227,11,-47,776,-77,853,-349
,75,2023-10-27 12:17:03.73,108,-86,-2052,235,35,-34,995,66,929,-530
,76,2023-10-27 12:17:03.74,141,-81,-2056,242,23,-36,808,-79,887,-364
,77,2023-10-27 12:17:03.75,141,-86,-2053,259,39,-25,1016,57,959,-536
,78,2023-10-27 12:17:03.76,136,-100,-2066,259,36,-18,836,-79,915,-378
,79,2023-10-27 12:17:03.77,116,-117,-2054,263,45,-14,1040,62,978,-551
,80,2023-10-27 12:17:03.78,130,-106,-2056,272,20,-23,846,-72,918,-387
,81,2023-10-27 12:17:03.79,150,-107,-2056,283,36,-15,1060,62,998,-561
,82,2023-10-27 12:17:03.80,143,-113,-2043,288,39,-19,873,-66,939,-403
,83,2023-10-27 12:17:03.81,136,-115,-2030,290,66,-26,1124,57,1067,-590
,84,2023-10-27 12:17:03.82,137,-116,-2034,299,81,-22,937,-71,1008,-433
,85,2023-10-27 12:17:03.83,144,-130,-2036,302,75,-18,1143,67,1076,-605
,86,2023-10-27 12:17:03.84,135,-131,-2040,306,75,-17,905,-58,963,-423
,87,2023-10-27 12:17:03.85,132,-131,-2044,302,46,-25,1113,64,1049,-588
,88,2023-10-27 12:17:03.86,133,-138,-2048,298,55,-17,906,-57,963,-424
,89,2023-10-27 12:17:03.87,137,-133,-2049,293,37,-22,1095,62,1033,-578
,90,2023-10-27 12:17:03.88,136,-121,-2052,289,42,-29,878,-48,926,-415
,91,2023-10-27 12:17:03.89,139,-129,-2045,280,24,-43,1031,64,967,-547
,92,2023-10-27 12:17:03.90,138,-142,-2054,275,51,-36,836,-28,864,-404
,93,2023-10-27 12:17:03.91,139,-141,-2063,268,25,-55,1026,79,947,-552
,94,2023-10-27 12:17:03.92,138,-163,-2056,265,18,-72,845,-28,873,-408
,95,2023-10-27 12:17:03.93,149,-171,-2045,267,13,-67,1073,71,1002,-572
,96,2023-10-27 12:17:03.94,140,-181,-2040,272,9,-74,905,-28,933,-438
,97,2023-10-27 12:17:03.95,132,-188,-2041,279,24,-71,1099,78,1021,-588
,98,2023-10-27 12:17:03.96,145,-211,-2046,281,26,-67,898,-11,909,-443
,99,2023-10-27 12:17:03.97,143,-213,-2048,281,30,-67,1107,78,1029,-592
,100,2023-10-27 12:17:03.98,152,-206,-2019,284,31,-71,925,-15,940,-455
,101,2023-10-27 12:17:03.99,161,-216,-2024,285,32,-93,1111,67,1044,-589
,102,2023-10-27 12:17:04.00,164,-249,-2004,286,56,-85,916,-16,932,-450
,103,2023-10-27 12:17:04.01,178,-255,-2034,297,59,-99,1102,66,1036,-584
,104,2023-10-27 12:17:04.02,150,-231,-2017,305,98,-87,944,-1,945,-471
,105,2023-10-27 12:17:04.03,157,-259,-2016,299,93,-101,1058,71,987,-564
,106,2023-10-27 12:17:04.04,145,-280,-2028,292,112,-89,881,-2,883,-439
,107,2023-10-27 12:17:04.05,155,-269,-2027,285,104,-89,981,63,918,-522
,108,2023-10-27 12:17:04.06,171,-265,-2020,278,114,-85,842,-4,846,-419
,109,2023-10-27 12:17:04.07,181,-287,-2017,272,112,-72,929,47,882,-488
,110,2023-10-27 12:17:04.08,177,-282,-2015,255,147,-69,800,-13,813,-393
,111,2023-10-27 12:17:04.09,182,-289,-2035,253,149,-51,832,46,786,-439
,112,2023-10-27 12:17:04.10,176,-299,-2031,230,147,-56,713,-3,716,-355
,113,2023-10-27 12:17:04.11,193,-297,-2037,212,154,-53,731,59,672,-395
,114,2023-10-27 12:17:04.12,191,-291,-2017,195,150,-59,628,12,616,-320
,115,2023-10-27 12:17:04.13,203,-303,-2010,187,157,-45,638,73,565,-355
,116,2023-10-27 12:17:04.14,190,-290,-2017,170,155,-53,563,26,537,-294
,117,2023-10-27 12:17:04.15,201,-293,-2012,150,182,-40,578,82,496,-330
,118,2023-10-27 12:17:04.16,215,-300,-2022,133,170,-51,520,36,484,-278
,119,2023-10-27 12:17:04.17,213,-292,-2037,120,193,-45,523,77,446,-300
,120,2023-10-27 12:17:04.18,207,-323,-2025,105,176,-52,488,39,449,-263
,121,2023-10-27 12:17:04.19,202,-331,-2040,93,192,-46,486,78,408,-282
,122,2023-10-27 12:17:04.20,198,-323,-2018,79,190,-39,461,50,411,-255
,123,2023-10-27 12:17:04.21,216,-330,-2030,72,166,-45,449,76,373,-262
,124,2023-10-27 12:17:04.22,219,-333,-2018,70,159,-33,440,47,393,-243
,125,2023-10-27 12:17:04.23,219,-325,-2023,60,145,-39,424,71,353,-247
,126,2023-10-27 12:17:04.24,239,-330,-2023,46,143,-33,426,56,370,-241
,127,2023-10-27 12:17:04.25,237,-327,-2035,33,143,-33,387,64,323,-225
,128,2023-10-27 12:17:04.26,244,-329,-2025,27,145,-13,399,45,354,-222
,129,2023-10-27 12:17:04.27,243,-332,-2032,16,139,-26,372,50,322,-211
,130,2023-10-27 12:17:04.28,242,-324,-2036,6,119,-18,399,50,349,-224
,131,2023-10-27 12:17:04.29,245,-330,-2029,-12,84,-31,366,73,293,-219
,132,2023-10-27 12:17:04.30,244,-328,-2031,-19,102,-17,387,71,316,-229
,133,2023-10-27 12:17:04.31,241,-333,-2033,-30,71,-27,344,72,272,-208
,134,2023-10-27 12:17:04.32,253,-332,-2035,-41,69,-16,374,69,305,-221
,135,2023-10-27 12:17:04.33,251,-340,-2037,-49,30,-20,317,52,265,-184
,136,2023-10-27 12:17:04.34,258,-325,-2038,-56,39,-11,377,70,307,-223
,137,2023-10-27 12:17:04.35,267,-334,-2039,-67,27,-1,333,51,282,-192
,138,2023-10-27 12:17:04.36,245,-332,-2039,-76,25,-1,382,64,318,-223
,139,2023-10-27 12:17:04.37,256,-328,-2013,-73,27,23,328,51,277,-189
,140,2023-10-27 12:17:04.38,262,-337,-2026,-80,34,19,380,74,306,-227
,141,2023-10-27 12:17:04.39,261,-335,-2035,-85,27,34,319,62,257,-190
,142,2023-10-27 12:17:04.40,258,-340,-2047,-89,4,37,374,91,283,-232
,143,2023-10-27 12:17:04.41,261,-328,-2048,-92,9,46,309,61,248,-185
,144,2023-10-27 12:17:04.42,257,-325,-2045,-94,4,57,375,85,290,-230
,145,2023-10-27 12:17:04.43,250,-310,-2039,-101,10,54,309,49,260,-179
,146,2023-10-27 12:17:04.44,251,-310,-2044,-106,4,72,380,87,293,-233
,147,2023-10-27 12:17:04.45,248,-309,-2026,-114,-2,73,306,58,248,-182
,148,2023-10-27 12:17:04.46,246,-302,-2028,-115,-6,84,379,98,281,-238
,149,2023-10-27 12:17:04.47,245,-292,-2027,-124,-28,79,298,48,250,-173
,150,2023-10-27 12:17:04.48,257,-266,-2017,-128,-20,97,378,94,284,-236
,151,2023-10-27 12:17:04.49,242,-288,-2024,-138,-18,94,296,40,256,-168
,152,2023-10-27 12:17:04.50,259,-257,-2026,-144,-26,92,382,94,288,-238
,153,2023-10-27 12:17:04.51,255,-258,-2025,-147,-45,86,297,40,257,-168
,154,2023-10-27 12:17:04.52,259,-266,-2033,-153,-33,94,401,106,295,-253
,155,2023-10-27 12:17:04.53,242,-252,-2033,-150,-51,85,314,40,274,-177
,156,2023-10-27 12:17:04.54,267,-255,-2034,-148,-70,74,402,109,293,-255
,157,2023-10-27 12:17:04.55,258,-247,-2041,-152,-54,82,297,42,255,-169
,158,2023-10-27 12:17:04.56,259,-237,-2035,-151,-59,84,391,113,278,-252
,159,2023-10-27 12:17:04.57,259,-246,-2035,-148,-60,76,295,40,255,-167
,160,2023-10-27 12:17:04.58,253,-244,-2035,-144,-32,90,408,110,298,-259
,161,2023-10-27 12:17:04.59,247,-232,-2033,-149,-67,60,302,14,288,-158
,162,2023-10-27 12:17:04.60,255,-246,-2043,-150,-86,43,405,94,311,-249
,163,2023-10-27 12:17:04.61,252,-240,-2041,-144,-84,59,291,-6,297,-142
,164,2023-10-27 12:17:04.62,245,-231,-2040,-140,-102,62,394,87,307,-240
,165,2023-10-27 12:17:04.63,244,-234,-2039,-135,-101,58,272,3,269,-137
,166,2023-10-27 12:17:04.64,242,-234,-2044,-126,-80,78,385,104,281,-244
,167,2023-10-27 12:17:04.65,234,-224,-2031,-127,-95,69,287,22,265,-154
,168,2023-10-27 12:17:04.66,233,-230,-2039,-120,-79,65,403,114,289,-258
,169,2023-10-27 12:17:04.67,216,-233,-2043,-117,-105,66,279,16,263,-147
,170,2023-10-27 12:17:04.68,217,-231,-2038,-115,-113,69,391,118,273,-254
,171,2023-10-27 12:17:04.69,219,-233,-2036,-110,-111,77,268,31,237,-149
,172,2023-10-27 12:17:04.70,222,-228,-2026,-101,-121,73,388,134,254,-261
,173,2023-10-27 12:17:04.71,218,-216,-2052,-102,-127,72,262,12,250,-137
,174,2023-10-27 12:17:04.72,215,-227,-2028,-101,-146,65,392,119,273,-255
,175,2023-10-27 12:17:04.73,212,-223,-2048,-98,-131,73,267,-2,269,-132
,176,2023-10-27 12:17:04.74,182,-228,-2022,-104,-152,74,405,127,278,-266
,177,2023-10-27 12:17:04.75,188,-226,-2054,-97,-138,78,273,9,264,-141
,178,2023-10-27 12:17:04.76,182,-223,-2028,-98,-147,84,410,142,268,-276
,179,2023-10-27 12:17:04.77,176,-216,-2040,-103,-135,84,274,20,254,-147
,180,2023-10-27 12:17:04.78,163,-223,-2009,-106,-144,90,412,147,265,-279
,181,2023-10-27 12:17:04.79,186,-206,-2045,-103,-145,75,268,7,261,-137
,182,2023-10-27 12:17:04.80,179,-203,-2023,-109,-140,87,406,133,273,-269
,183,2023-10-27 12:17:04.81,181,-215,-2018,-112,-133,82,263,-5,268,-129
,184,2023-10-27 12:17:04.82,193,-201,-2039,-110,-117,82,409,127,282,-268
,185,2023-10-27 12:17:04.83,176,-193,-2020,-106,-114,97,266,-13,279,-126
,186,2023-10-27 12:17:04.84,177,-190,-2004,-104,-63,98,416,133,283,-274
,187,2023-10-27 12:17:04.85,187,-187,-2033,-100,-48,98,268,-10,278,-129
,188,2023-10-27 12:17:04.86,180,-185,-2027,-107,-45,94,412,134,278,-273
,189,2023-10-27 12:17:04.87,178,-178,-2028,-109,-47,65,264,-11,275,-126
,190,2023-10-27 12:17:04.88,170,-187,-2032,-103,-31,66,416,131,285,-273
,191,2023-10-27 12:17:04.89,173,-173,-2041,-102,-42,61,272,-26,298,-123
,192,2023-10-27 12:17:04.90,180,-175,-2054,-95,-66,44,424,125,299,-274
,193,2023-10-27 12:17:04.91,166,-175,-2053,-89,-56,55,268,-28,296,-120
,194,2023-10-27 12:17:04.92,168,-173,-2043,-81,-77,46,417,134,283,-275
,195,2023-10-27 12:17:04.93,160,-173,-2049,-77,-49,50,261,-18,279,-121
,196,2023-10-27 12:17:04.94,157,-167,-2049,-64,-70,54,416,141,275,-278
,197,2023-10-27 12:17:04.95,156,-162,-2046,-59,-68,45,264,-29,293,-117
,198,2023-10-27 12:17:04.96,150,-163,-2043,-52,-64,46,424,142,282,-283
,199,2023-10-27 12:17:04.97,145,-158,-2049,-48,-69,45,267,-22,289,-122
,200,2023-10-27 12:17:04.98,150,-164,-2056,-43,-71,41,419,150,269,-284
,201,2023-10-27 12:17:04.99,148,-159,-2062,-37,-71,42,262,-18,280,-122
,202,2023-10-27 12:17:05.00,147,-156,-2040,-29,-85,29,418,155,263,-286
,203,2023-10-27 12:17:05.01,148,-150,-2030,-22,-59,45,254,-10,264,-122
,204,2023-10-27 12:17:05.02,137,-152,-2036,-22,-65,31,406,160,246,-283
,205,2023-10-27 12:17:05.03,134,-152,-2030,-22,-51,33,243,-20,263,-111
,206,2023-10-27 12:17:05.04,141,-150,-2031,-16,-49,44,407,147,260,-277
,207,2023-10-27 12:17:05.05,140,-146,-2043,-14,-35,42,247,-32,279,-107
,208,2023-10-27 12:17:05.06,141,-145,-2039,-9,-14,46,417,156,261,-286
,209,2023-10-27 12:17:05.07,139,-144,-2040,-7,-17,44,243,-30,273,-106
,210,2023-10-27 12:17:05.08,142,-146,-2043,-5,18,37,400,142,258,-271
,211,2023-10-27 12:17:05.09,132,-140,-2044,-9,20,32,234,-56,290,-89
,212,2023-10-27 12:17:05.10,137,-145,-2046,-8,16,28,400,136,264,-268
,213,2023-10-27 12:17:05.11,132,-148,-2050,-7,9,22,236,-35,271,-100
,214,2023-10-27 12:17:05.12,136,-141,-2054,-7,3,20,390,147,243,-268
,215,2023-10-27 12:17:05.13,152,-134,-2048,-12,-7,17,234,-33,267,-100
,216,2023-10-27 12:17:05.14,135,-129,-2051,-15,-2,10,396,146,250,-271
,217,2023-10-27 12:17:05.15,151,-129,-2044,-21,-22,12,239,-41,280,-99
,218,2023-10-27 12:17:05.16,144,-131,-2054,-21,-25,6,399,143,256,-271
,219,2023-10-27 12:17:05.17,143,-138,-2051,-17,-3,16,240,-48,288,-96
,220,2023-10-27 12:17:05.18,145,-138,-2046,-10,-14,8,400,143,257,-271
,221,2023-10-27 12:17:05.19,138,-145,-2055,-2,-16,19,241,-42,283,-99
,222,2023-10-27 12:17:05.20,145,-150,-2053,0,-25,15,399,134,265,-266
,223,2023-10-27 12:17:05.21,145,-152,-2055,4,-20,18,246,-66,312,-90
,224,2023-10-27 12:17:05.22,140,-156,-2052,11,-28,29,410,131,279,-270
,225,2023-10-27 12:17:05.23,139,-142,-2056,10,-28,27,253,-46,299,-103
,226,2023-10-27 12:17:05.24,134,-140,-2062,12,-15,38,414,141,273,-277
,227,2023-10-27 12:17:05.25,132,-138,-2064,6,-43,34,254,-55,309,-99
,228,2023-10-27 12:17:05.26,131,-149,-2066,13,-26,54,411,130,281,-270
,229,2023-10-27 12:17:05.27,138,-146,-2059,12,-39,55,256,-61,317,-97
,230,2023-10-27 12:17:05.28,139,-138,-2055,15,-44,50,410,133,277,-271
,231,2023-10-27 12:17:05.29,131,-153,-2049,18,-34,68,261,-56,317,-102
,232,2023-10-27 12:17:05.30,130,-147,-2053,17,-45,63,415,128,287,-271
,233,2023-10-27 12:17:05.31,134,-153,-2049,18,-46,71,268,-66,334,-101
,234,2023-10-27 12:17:05.32,129,-148,-2055,18,-71,65,418,125,293,-271
,235,2023-10-27 12:17:05.33,138,-150,-2056,20,-58,83,269,-63,332,-103
,236,2023-10-27 12:17:05.34,134,-147,-2059,14,-71,82,417,127,290,-272
,237,2023-10-27 12:17:05.35,129,-146,-2055,12,-57,90,275,-60,335,-107
,238,2023-10-27 12:17:05.36,133,-142,-2056,10,-70,97,430,134,296,-282
,239,2023-10-27 12:17:05.37,131,-150,-2065,6,-57,104,285,-52,337,-116
,240,2023-10-27 12:17:05.38,124,-157,-2060,4,-89,105,430,142,288,-286
,241,2023-10-27 12:17:05.39,119,-153,-2058,5,-66,108,284,-45,329,-119
,242,2023-10-27 12:17:05.40,117,-160,-2064,7,-91,115,426,136,290,-281
,243,2023-10-27 12:17:05.41,107,-165,-2071,4,-90,128,280,-61,341,-109
,244,2023-10-27 12:17:05.42,125,-162,-2062,11,-100,144,429,133,296,-281
,245,2023-10-27 12:17:05.43,114,-172,-2053,8,-112,152,289,-42,331,-123
,246,2023-10-27 12:17:05.44,109,-158,-2053,-1,-89,160,429,141,288,-285
,247,2023-10-27 12:17:05.45,96,-162,-2050,-8,-103,171,292,-49,341,-121
,248,2023-10-27 12:17:05.46,113,-150,-2044,-13,-94,172,432,130,302,-281
,249,2023-10-27 12:17:05.47,113,-150,-2047,-17,-105,182,308,-43,351,-132
,250,2023-10-27 12:17:05.48,109,-158,-2049,-23,-88,194,435,132,303,-283
,251,2023-10-27 12:17:05.49,99,-153,-2053,-31,-85,212,302,-48,350,-127
,252,2023-10-27 12:17:05.50,94,-156,-2063,-38,-91,210,428,122,306,-275
,253,2023-10-27 12:17:05.51,100,-153,-2062,-43,-110,229,300,-48,348,-126
,254,2023-10-27 12:17:05.52,91,-147,-2068,-51,-107,238,426,140,286,-283
,255,2023-10-27 12:17:05.53,95,-153,-2075,-54,-120,254,298,-38,336,-130
,256,2023-10-27 12:17:05.54,70,-154,-2066,-71,-156,240,438,134,304,-286
,257,2023-10-27 12:17:05.55,78,-149,-2079,-78,-161,257,315,-45,360,-135
,258,2023-10-27 12:17:05.56,74,-149,-2083,-84,-191,267,439,126,313,-282
,259,2023-10-27 12:17:05.57,67,-145,-2072,-89,-220,284,314,-41,355,-136
,260,2023-10-27 12:17:05.58,58,-158,-2052,-97,-232,285,434,123,311,-278
,261,2023-10-27 12:17:05.59,45,-136,-2063,-101,-229,313,312,-49,361,-131
,262,2023-10-27 12:17:05.60,58,-133,-2069,-106,-259,311,430,121,309,-275
,263,2023-10-27 12:17:05.61,67,-124,-2072,-97,-218,336,316,-36,352,-140
,264,2023-10-27 12:17:05.62,48,-128,-2068,-100,-241,340,429,133,296,-281
,265,2023-10-27 12:17:05.63,25,-151,-2057,-99,-258,346,315,-27,342,-144
,266,2023-10-27 12:17:05.64,31,-124,-2068,-79,-284,365,428,114,314,-271
,267,2023-10-27 12:17:05.65,4,-104,-2076,-78,-284,362,316,-43,359,-136
,268,2023-10-27 12:17:05.66,30,-115,-2074,-75,-286,366,434,101,333,-267
,269,2023-10-27 12:17:05.67,10,-116,-2068,-69,-320,356,325,-38,363,-143
,270,2023-10-27 12:17:05.68,21,-88,-2080,-46,-332,369,424,102,322,-263
,271,2023-10-27 12:17:05.69,4,-100,-2069,-33,-345,360,318,-38,356,-140
,272,2023-10-27 12:17:05.70,4,-98,-2061,-23,-340,370,417,89,328,-253
,273,2023-10-27 12:17:05.71,-18,-90,-2040,-19,-305,374,318,-48,366,-135
,274,2023-10-27 12:17:05.72,-5,-107,-2048,-7,-317,366,423,90,333,-256
,275,2023-10-27 12:17:05.73,-47,-99,-2053,4,-305,362,325,-34,359,-145
,276,2023-10-27 12:17:05.74,-30,-112,-2052,14,-323,362,419,90,329,-254
,277,2023-10-27 12:17:05.75,-30,-117,-2048,28,-343,346,326,-37,363,-144
,278,2023-10-27 12:17:05.76,-50,-102,-2052,41,-354,343,420,63,357,-241
,279,2023-10-27 12:17:05.77,-65,-105,-2052,51,-354,344,324,-55,379,-134
,280,2023-10-27 12:17:05.78,-83,-100,-2039,51,-321,342,426,59,367,-242
,281,2023-10-27 12:17:05.79,-59,-102,-2035,60,-347,343,339,-44,383,-147
,282,2023-10-27 12:17:05.80,-105,-109,-2023,62,-344,338,435,55,380,-245
,283,2023-10-27 12:17:05.81,-91,-106,-2022,68,-323,346,344,-43,387,-150
,284,2023-10-27 12:17:05.82,-116,-132,-2033,68,-336,340,436,67,369,-251
,285,2023-10-27 12:17:05.83,-104,-114,-2027,71,-312,344,349,-29,378,-160
,286,2023-10-27 12:17:05.84,-111,-103,-2035,75,-319,345,438,64,374,-251
,287,2023-10-27 12:17:05.85,-132,-113,-2035,64,-304,334,350,-30,380,-160
,288,2023-10-27 12:17:05.86,-140,-145,-1993,74,-264,351,444,63,381,-253
,289,2023-10-27 12:17:05.87,-124,-81,-2037,79,-261,334,362,-20,382,-171
,290,2023-10-27 12:17:05.88,-156,-111,-2005,66,-234,323,465,59,406,-262
,291,2023-10-27 12:17:05.89,-135,-108,-2002,57,-202,310,383,-27,410,-178
,292,2023-10-27 12:17:05.90,-142,-94,-2026,51,-185,296,492,36,456,-264
,293,2023-10-27 12:17:05.91,-149,-109,-2008,47,-155,270,422,-40,462,-191
,294,2023-10-27 12:17:05.92,-158,-98,-2011,44,-137,257,502,30,472,-266
,295,2023-10-27 12:17:05.93,-172,-97,-2017,31,-143,224,430,-27,457,-201
,296,2023-10-27 12:17:05.94,-171,-107,-2030,20,-134,208,507,23,484,-265
,297,2023-10-27 12:17:05.95,-202,-140,-1996,21,-135,198,444,-23,467,-210
,298,2023-10-27 12:17:05.96,-137,-60,-2054,27,-146,178,556,35,521,-295
,299,2023-10-27 12:17:05.97,-189,-103,-2036,9,-115,172,496,-13,509,-241
,300,2023-10-27 12:17:05.98,-168,-103,-2025,-2,-107,166,560,24,536,-292
,301,2023-10-27 12:17:05.99,-182,-96,-2031,-3,-107,140,480,-21,501,-229
,302,2023-10-27 12:17:06.00,-169,-98,-2022,2,-66,153,526,19,507,-272
,303,2023-10-27 12:17:06.01,-180,-95,-2016,-6,-62,134,460,-15,475,-222
,304,2023-10-27 12:17:06.02,-166,-99,-2018,-9,-41,120,517,12,505,-264
,305,2023-10-27 12:17:06.03,-178,-88,-2021,-9,-10,109,468,-23,491,-222
,306,2023-10-27 12:17:06.04,-161,-93,-2025,-17,-21,75,581,5,576,-293
,307,2023-10-27 12:17:06.05,-166,-84,-2013,-20,3,59,546,-13,559,-266
,308,2023-10-27 12:17:06.06,-168,-85,-2027,-23,26,47,638,10,628,-324
,309,2023-10-27 12:17:06.07,-179,-87,-2024,-24,4,22,594,-7,601,-293
,310,2023-10-27 12:17:06.08,-176,-91,-2029,-24,8,11,669,9,660,-339
,311,2023-10-27 12:17:06.09,-194,-113,-2013,-17,42,12,616,-2,618,-307
,312,2023-10-27 12:17:06.10,-167,-88,-2034,-8,66,18,666,-2,668,-332
,313,2023-10-27 12:17:06.11,-174,-104,-2019,-6,127,-13,604,-10,614,-297
,314,2023-10-27 12:17:06.12,-187,-98,-2023,-2,115,-24,618,-16,634,-301
,315,2023-10-27 12:17:06.13,-168,-108,-2031,6,112,-52,567,-13,580,-277
,316,2023-10-27 12:17:06.14,-182,-106,-2028,14,130,-55,571,-11,582,-280
,317,2023-10-27 12:17:06.15,-175,-112,-2037,18,112,-76,526,-4,530,-261
,318,2023-10-27 12:17:06.16,-162,-125,-2031,32,86,-92,524,-9,533,-257
,319,2023-10-27 12:17:06.17,-160,-124,-2037,51,115,-70,500,4,496,-252
,320,2023-10-27 12:17:06.18,-162,-125,-2037,62,143,-77,507,-9,516,-249
,321,2023-10-27 12:17:06.19,-158,-130,-2026,73,147,-83,506,8,498,-257
,322,2023-10-27 12:17:06.20,-151,-127,-2019,78,144,-113,582,-9,591,-286
,323,2023-10-27 12:17:06.21,-137,-133,-2026,84,140,-129,609,13,596,-311
,324,2023-10-27 12:17:06.22,-145,-137,-2040,89,138,-133,646,-10,656,-318
,325,2023-10-27 12:17:06.23,-150,-139,-2042,92,114,-154,633,18,615,-325
,326,2023-10-27 12:17:06.24,-145,-139,-2038,97,124,-145,618,-17,635,-300
,327,2023-10-27 12:17:06.25,-148,-142,-2047,98,106,-152,603,14,589,-308
,328,2023-10-27 12:17:06.26,-138,-144,-2049,100,106,-152,562,-34,596,-264
,329,2023-10-27 12:17:06.27,-139,-147,-2044,106,120,-129,556,6,550,-281
,330,2023-10-27 12:17:06.28,-145,-150,-2039,105,110,-130,545,-36,581,-254
,331,2023-10-27 12:17:06.29,-156,-162,-2027,107,133,-128,582,19,563,-300
,332,2023-10-27 12:17:06.30,-115,-157,-2031,101,133,-145,551,-42,593,-254
,333,2023-10-27 12:17:06.31,-126,-160,-2032,101,101,-152,578,10,568,-294
,334,2023-10-27 12:17:06.32,-128,-172,-2025,99,97,-155,562,-43,605,-259
,335,2023-10-27 12:17:06.33,-146,-190,-2031,102,114,-156,591,27,564,-309
,336,2023-10-27 12:17:06.34,-116,-161,-2031,106,109,-142,536,-29,565,-253
,337,2023-10-27 12:17:06.35,-113,-176,-2024,102,103,-144,564,31,533,-297
,338,2023-10-27 12:17:06.36,-120,-184,-2032,102,132,-138,491,-39,530,-226
,339,2023-10-27 12:17:06.37,-116,-194,-2046,108,127,-128,537,25,512,-281
,340,2023-10-27 12:17:06.38,-105,-201,-2046,116,144,-127,500,-50,550,-225
,341,2023-10-27 12:17:06.39,-94,-194,-2042,124,164,-120,574,27,547,-300
,342,2023-10-27 12:17:06.40,-96,-196,-2043,121,158,-125,519,-45,564,-237
,343,2023-10-27 12:17:06.41,-83,-185,-2035,112,166,-144,584,32,552,-308
,344,2023-10-27 12:17:06.42,-84,-191,-2023,113,180,-134,528,-55,583,-236
,345,2023-10-27 12:17:06.43,-85,-194,-2014,107,180,-134,602,25,577,-313
,346,2023-10-27 12:17:06.44,-71,-206,-2017,97,164,-146,533,-66,599,-233
,347,2023-10-27 12:17:06.45,-84,-194,-2024,91,164,-135,613,20,593,-316
,348,2023-10-27 12:17:06.46,-76,-200,-2036,87,161,-129,529,-70,599,-229
,349,2023-10-27 12:17:06.47,-61,-199,-2046,79,151,-136,612,30,582,-321
,350,2023-10-27 12:17:06.48,-48,-197,-2032,75,168,-110,520,-68,588,-226
,351,2023-10-27 12:17:06.49,-48,-200,-2041,70,162,-111,611,30,581,-320
,352,2023-10-27 12:17:06.50,-41,-194,-2043,65,178,-108,534,-66,600,-234
,353,2023-10-27 12:17:06.51,-32,-198,-2049,64,202,-98,641,38,603,-339
,354,2023-10-27 12:17:06.52,-48,-202,-2039,54,185,-104,552,-70,622,-241
,355,2023-10-27 12:17:06.53,-33,-206,-2050,50,194,-100,643,30,613,-336
,356,2023-10-27 12:17:06.54,-29,-201,-2050,47,179,-93,504,-86,590,-209
,357,2023-10-27 12:17:06.55,-17,-204,-2041,35,158,-117,604,31,573,-317
,358,2023-10-27 12:17:06.56,-20,-202,-2040,28,169,-111,504,-72,576,-216
,359,2023-10-27 12:17:06.57,-6,-211,-2056,22,164,-101,640,52,588,-346
,360,2023-10-27 12:17:06.58,-20,-203,-2046,14,142,-113,586,-69,655,-258
,361,2023-10-27 12:17:06.59,-12,-207,-2047,4,135,-95,713,51,662,-382
,362,2023-10-27 12:17:06.60,8,-214,-2054,-2,142,-85,565,-74,639,-245
,363,2023-10-27 12:17:06.61,1,-210,-2049,-9,135,-88,659,46,613,-352
,364,2023-10-27 12:17:06.62,-8,-202,-2032,-13,151,-61,500,-88,588,-206
,365,2023-10-27 12:17:06.63,11,-206,-2036,-24,150,-55,614,42,572,-328
,366,2023-10-27 12:17:06.64,-7,-218,-2050,-35,159,-43,464,-89,553,-187
,367,2023-10-27 12:17:06.65,-6,-204,-2052,-37,172,-19,598,51,547,-324
,368,2023-10-27 12:17:06.66,8,-204,-2050,-38,156,-20,452,-84,536,-184
,369,2023-10-27 12:17:06.67,13,-198,-2038,-43,182,-12,601,64,537,-332
,370,2023-10-27 12:17:06.68,28,-191,-2050,-51,169,-5,458,-76,534,-191
,371,2023-10-27 12:17:06.69,26,-197,-2060,-60,149,-21,610,69,541,-339
,372,2023-10-27 12:17:06.70,30,-191,-2053,-58,160,-7,447,-67,514,-190
,373,2023-10-27 12:17:06.71,34,-194,-2042,-63,153,-7,593,72,521,-332
,374,2023-10-27 12:17:06.72,62,-188,-2049,-69,139,-4,416,-77,493,-169
,375,2023-10-27 12:17:06.73,22,-195,-2030,-72,176,13,570,70,500,-320
,376,2023-10-27 12:17:06.74,52,-179,-2040,-73,159,11,397,-77,474,-160
,377,2023-10-27 12:17:06.75,67,-171,-2025,-76,158,21,558,78,480,-318
,378,2023-10-27 12:17:06.76,68,-170,-2028,-82,139,26,374,-80,454,-147
,379,2023-10-27 12:17:06.77,80,-156,-2040,-90,132,27,564,77,487,-320
,380,2023-10-27 12:17:06.78,54,-181,-2024,-95,162,39,423,-82,505,-170
,381,2023-10-27 12:17:06.79,62,-172,-2046,-96,192,58,596,83,513,-339
,382,2023-10-27 12:17:06.80,74,-161,-2055,-97,178,41,396,-80,476,-158
,383,2023-10-27 12:17:06.81,68,-162,-2057,-104,173,39,563,79,484,-321
,384,2023-10-27 12:17:06.82,72,-161,-2055,-99,172,47,372,-95,467,-138
,385,2023-10-27 12:17:06.83,63,-159,-2060,-108,127,34,560,71,489,-315
,386,2023-10-27 12:17:06.84,63,-156,-2058,-120,144,32,383,-88,471,-147
,387,2023-10-27 12:17:06.85,74,-150,-2060,-125,134,40,562,85,477,-323
,388,2023-10-27 12:17:06.86,68,-142,-2064,-129,151,59,360,-90,450,-135
,389,2023-10-27 12:17:06.87,60,-152,-2044,-132,161,61,545,85,460,-315
,390,2023-10-27 12:17:06.88,79,-128,-2055,-133,160,59,371,-79,450,-146
,391,2023-10-27 12:17:06.89,68,-126,-2051,-145,188,61,568,87,481,-327
,392,2023-10-27 12:17:06.90,92,-130,-2045,-162,176,34,375,-96,471,-139
,393,2023-10-27 12:17:06.91,75,-126,-2053,-170,197,27,570,81,489,-325
,394,2023-10-27 12:17:06.92,70,-116,-2079,-175,184,23,390,-94,484,-148
,395,2023-10-27 12:17:06.93,81,-117,-2057,-187,141,11,574,78,496,-326
,396,2023-10-27 12:17:06.94,91,-121,-2046,-178,141,12,365,-101,466,-132
,397,2023-10-27 12:17:06.95,107,-100,-2070,-166,151,26,552,72,480,-312
,398,2023-10-27 12:17:06.96,91,-99,-2066,-174,151,15,363,-103,466,-130
,399,2023-10-27 12:17:06.97,112,-76,-2060,-170,167,19,581,78,503,-329
,400,2023-10-27 12:17:06.98,99,-99,-2057,-169,176,11,406,-100,506,-153
,401,2023-10-27 12:17:06.99,95,-116,-2061,-155,163,6,603,84,519,-343
,402,2023-10-27 12:17:07.00,87,-100,-2084,-137,126,-16,404,-93,497,-155
,403,2023-10-27 12:17:07.01,101,-93,-2081,-129,99,-21,587,84,503,-335
,404,2023-10-27 12:17:07.02,124,-108,-2062,-115,87,-14,382,-97,479,-142
,405,2023-10-27 12:17:07.03,121,-86,-2066,-99,75,-14,560,85,475,-322
,406,2023-10-27 12:17:07.04,127,-83,-2058,-73,106,5,353,-99,452,-127
,407,2023-10-27 12:17:07.05,131,-80,-2051,-57,112,9,534,83,451,-308
,408,2023-10-27 12:17:07.06,108,-99,-2036,-50,88,-2,329,-98,427,-115
,409,2023-10-27 12:17:07.07,136,-101,-2051,-43,102,-16,510,93,417,-301
,410,2023-10-27 12:17:07.08,125,-109,-2034,-20,77,-3,312,-85,397,-113
,411,2023-10-27 12:17:07.09,124,-103,-2045,-5,54,6,492,103,389,-297
,412,2023-10-27 12:17:07.10,138,-108,-2054,13,46,10,293,-82,375,-105
,413,2023-10-27 12:17:07.11,136,-105,-2068,31,85,38,476,108,368,-292
,414,2023-10-27 12:17:07.12,134,-101,-2048,42,70,46,280,-85,365,-97
,415,2023-10-27 12:17:07.13,166,-82,-2079,48,29,23,463,99,364,-281
,416,2023-10-27 12:17:07.14,146,-115,-2050,51,12,24,273,-85,358,-94
,417,2023-10-27 12:17:07.15,151,-106,-2060,67,16,54,449,104,345,-276
,418,2023-10-27 12:17:07.16,151,-91,-2068,79,-6,64,267,-78,345,-94
,419,2023-10-27 12:17:07.17,137,-94,-2055,80,-1,65,440,104,336,-272
,420,2023-10-27 12:17:07.18,145,-93,-2055,79,25,59,266,-74,340,-96
,421,2023-10-27 12:17:07.19,144,-83,-2055,77,-18,41,440,101,339,-270
,422,2023-10-27 12:17:07.20,136,-93,-2056,71,-33,36,263,-85,348,-89
,423,2023-10-27 12:17:07.21,135,-98,-2059,69,-49,29,436,92,344,-264
,424,2023-10-27 12:17:07.22,135,-99,-2060,77,-35,48,261,-87,348,-87
,425,2023-10-27 12:17:07.23,129,-106,-2043,77,7,57,432,98,334,-265
,426,2023-10-27 12:17:07.24,129,-103,-2038,75,-15,42,264,-83,347,-90
,427,2023-10-27 12:17:07.25,132,-102,-2042,71,-37,17,437,99,338,-268
,428,2023-10-27 12:17:07.26,134,-92,-2047,72,-44,22,269,-73,342,-98
,429,2023-10-27 12:17:07.27,125,-107,-2049,63,-58,14,434,104,330,-269
,430,2023-10-27 12:17:07.28,113,-96,-2064,62,-62,7,266,-81,347,-92
,431,2023-10-27 12:17:07.29,114,-108,-2060,68,-22,24,425,88,337,-256
,432,2023-10-27 12:17:07.30,126,-109,-2052,66,-27,18,266,-87,353,-89
,433,2023-10-27 12:17:07.31,124,-105,-2063,57,-43,-1,427,91,336,-259
,434,2023-10-27 12:17:07.32,107,-101,-2070,55,-53,-19,269,-76,345,-96
,435,2023-10-27 12:17:07.33,110,-105,-2069,52,-81,-21,420,85,335,-252
,436,2023-10-27 12:17:07.34,119,-103,-2062,51,-89,-16,263,-89,352,-87
,437,2023-10-27 12:17:07.35,97,-108,-2057,51,-95,-17,413,84,329,-248
,438,2023-10-27 12:17:07.36,104,-117,-2064,57,-58,-1,260,-74,334,-93
,439,2023-10-27 12:17:07.37,108,-116,-2053,63,-56,7,406,100,306,-253
,440,2023-10-27 12:17:07.38,107,-120,-2052,64,-77,-2,257,-57,314,-100
,441,2023-10-27 12:17:07.39,98,-113,-2051,62,-111,-31,399,101,298,-250
,442,2023-10-27 12:17:07.40,104,-110,-2047,70,-98,-17,254,-68,322,-93
,443,2023-10-27 12:17:07.41,97,-113,-2042,80,-99,-6,395,99,296,-247
,444,2023-10-27 12:17:07.42,99,-119,-2046,83,-92,-5,261,-52,313,-104
,445,2023-10-27 12:17:07.43,104,-121,-2042,87,-52,-11,394,110,284,-252
,446,2023-10-27 12:17:07.44,98,-116,-2038,93,-48,-11,256,-50,306,-103
,447,2023-10-27 12:17:07.45,92,-117,-2038,92,-54,-18,384,95,289,-239
,448,2023-10-27 12:17:07.46,102,-129,-2044,88,-86,-31,258,-63,321,-97
,449,2023-10-27 12:17:07.47,95,-121,-2040,87,-78,-31,384,90,294,-237
,450,2023-10-27 12:17:07.48,100,-127,-2045,88,-67,-21,266,-52,318,-107
,451,2023-10-27 12:17:07.49,97,-127,-2054,91,-45,-1,386,107,279,-246
,452,2023-10-27 12:17:07.50,93,-122,-2054,84,-30,-9,267,-35,302,-116
,453,2023-10-27 12:17:07.51,105,-120,-2043,79,-17,-13,378,99,279,-238
,454,2023-10-27 12:17:07.52,96,-124,-2048,70,-7,-13,275,-47,322,-114
,455,2023-10-27 12:17:07.53,95,-124,-2049,62,-52,-29,385,82,303,-233
,456,2023-10-27 12:17:07.54,100,-142,-2042,62,-60,-29,279,-51,330,-114
,457,2023-10-27 12:17:07.55,92,-146,-2054,66,-53,-10,393,88,305,-240
,458,2023-10-27 12:17:07.56,89,-147,-2055,68,-8,6,293,-43,336,-125
,459,2023-10-27 12:17:07.57,104,-147,-2057,69,-26,0,393,80,313,-236
,460,2023-10-27 12:17:07.58,89,-163,-2062,68,-56,-9,298,-52,350,-123
,461,2023-10-27 12:17:07.59,86,-167,-2069,76,-85,-5,397,77,320,-237
,462,2023-10-27 12:17:07.60,96,-158,-2062,82,-74,27,305,-39,344,-133
,463,2023-10-27 12:17:07.61,86,-161,-2042,93,-69,48,401,76,325,-238
,464,2023-10-27 12:17:07.62,99,-169,-2040,95,-58,50,315,-42,357,-136
,465,2023-10-27 12:17:07.63,75,-172,-2058,94,-72,33,398,78,320,-238
,466,2023-10-27 12:17:07.64,92,-177,-2052,97,-87,53,313,-30,343,-141
,467,2023-10-27 12:17:07.65,86,-175,-2046,109,-90,76,390,81,309,-235
,468,2023-10-27 12:17:07.66,72,-181,-2053,114,-90,89,316,-27,343,-144
,469,2023-10-27 12:17:07.67,107,-164,-2052,120,-51,99,388,73,315,-230
,470,2023-10-27 12:17:07.68,106,-172,-2039,125,-50,108,315,-30,345,-142
,471,2023-10-27 12:17:07.69,97,-168,-2040,119,-55,97,388,74,314,-231
,472,2023-10-27 12:17:07.70,86,-171,-2040,111,-86,95,327,-15,342,-156
,473,2023-10-27 12:17:07.71,76,-172,-2046,108,-73,114,390,79,311,-234
,474,2023-10-27 12:17:07.72,79,-163,-2052,107,-41,121,326,-12,338,-157
,475,2023-10-27 12:17:07.73,61,-169,-2045,96,-44,114,380,75,305,-227
,476,2023-10-27 12:17:07.74,59,-181,-2051,85,-86,113,333,-13,346,-160
,477,2023-10-27 12:17:07.75,61,-164,-2054,77,-94,121,380,58,322,-219
,478,2023-10-27 12:17:07.76,74,-173,-2044,78,-80,127,324,-18,342,-153
,479,2023-10-27 12:17:07.77,64,-167,-2039,71,-53,148,375,68,307,-221
,480,2023-10-27 12:17:07.78,73,-178,-2046,62,-52,144,325,1,324,-163
,481,2023-10-27 12:17:07.79,59,-172,-2057,51,-38,127,366,67,299,-216
,482,2023-10-27 12:17:07.80,59,-183,-2057,46,-31,122,320,-7,327,-156
,483,2023-10-27 12:17:07.81,63,-173,-2052,34,-75,107,344,41,303,-192
,484,2023-10-27 12:17:07.82,67,-180,-2046,29,-81,109,299,-12,311,-143
,485,2023-10-27 12:17:07.83,60,-175,-2031,25,-71,117,343,56,287,-199
,486,2023-10-27 12:17:07.84,84,-175,-2018,26,-5,138,313,10,303,-161
,487,2023-10-27 12:17:07.85,70,-182,-2013,14,17,121,326,51,275,-188
,488,2023-10-27 12:17:07.86,67,-186,-2018,1,12,108,302,4,298,-153
,489,2023-10-27 12:17:07.87,81,-191,-2024,-9,-8,105,330,80,250,-205
,490,2023-10-27 12:17:07.88,77,-198,-2027,-7,32,120,309,47,262,-178
,491,2023-10-27 12:17:07.89,76,-196,-2015,2,71,131,332,84,248,-208
,492,2023-10-27 12:17:07.90,73,-185,-2027,1,90,132,336,37,299,-186
,493,2023-10-27 12:17:07.91,87,-181,-2039,-9,51,104,349,66,283,-207
,494,2023-10-27 12:17:07.92,77,-176,-2043,-21,52,108,346,36,310,-191
,495,2023-10-27 12:17:07.93,75,-185,-2033,-20,43,110,339,65,274,-202
,496,2023-10-27 12:17:07.94,81,-176,-2044,-17,44,133,358,35,323,-196
,497,2023-10-27 12:17:07.95,78,-170,-2060,-23,45,132,338,53,285,-195
,498,2023-10-27 12:17:07.96,90,-165,-2066,-37,75,139,362,35,327,-198
,499,2023-10-27 12:17:07.97,64,-179,-2030,-44,85,122,337,52,285,-194
,500,2023-10-27 12:17:07.98,79,-170,-2052,-40,37,111,364,46,318,-205
,501,2023-10-27 12:17:07.99,89,-175,-2051,-42,32,106,331,56,275,-193
,502,2023-10-27 12:17:08.00,72,-174,-2061,-45,53,111,358,51,307,-204
,503,2023-10-27 12:17:08.01,91,-171,-2078,-47,60,136,324,54,270,-189
,504,2023-10-27 12:17:08.02,53,-178,-2040,-55,64,135,364,52,312,-208
,505,2023-10-27 12:17:08.03,75,-181,-2069,-46,87,142,328,62,266,-195
,506,2023-10-27 12:17:08.04,74,-171,-2068,-50,94,128,373,70,303,-221
,507,2023-10-27 12:17:08.05,51,-177,-2044,-59,79,115,327,66,261,-196
,508,2023-10-27 12:17:08.06,68,-162,-2052,-58,63,114,377,71,306,-224
,509,2023-10-27 12:17:08.07,68,-179,-2069,-60,50,124,326,53,273,-189
,510,2023-10-27 12:17:08.08,58,-170,-2064,-59,100,143,381,61,320,-221
,511,2023-10-27 12:17:08.09,59,-173,-2056,-59,122,148,323,34,289,-178
,512,2023-10-27 12:17:08.10,48,-174,-2063,-60,100,148,386,60,326,-223
,513,2023-10-27 12:17:08.11,52,-170,-2057,-67,97,129,321,35,286,-178
,514,2023-10-27 12:17:08.12,61,-166,-2054,-66,90,131,390,64,326,-227
,515,2023-10-27 12:17:08.13,49,-154,-2040,-72,37,132,323,29,294,-176
,516,2023-10-27 12:17:08.14,59,-166,-2024,-70,68,150,404,65,339,-234
,517,2023-10-27 12:17:08.15,61,-171,-2041,-67,84,149,323,29,294,-176
,518,2023-10-27 12:17:08.16,70,-169,-2030,-61,97,142,395,70,325,-232
,519,2023-10-27 12:17:08.17,63,-176,-2020,-57,49,118,312,15,297,-163
,520,2023-10-27 12:17:08.18,68,-161,-2036,-59,51,110,394,61,333,-227
,521,2023-10-27 12:17:08.19,73,-173,-2014,-50,55,112,311,15,296,-163
,522,2023-10-27 12:17:08.20,92,-162,-2024,-26,99,133,402,73,329,-237
,523,2023-10-27 12:17:08.21,84,-158,-2031,-16,91,126,307,21,286,-164
,524,2023-10-27 12:17:08.22,79,-159,-2022,-20,81,100,400,85,315,-242
,525,2023-10-27 12:17:08.23,101,-148,-2042,-25,56,85,300,26,274,-163
,526,2023-10-27 12:17:08.24,95,-161,-2052,-19,72,103,401,87,314,-244
,527,2023-10-27 12:17:08.25,96,-150,-2056,-10,91,112,295,13,282,-154
,528,2023-10-27 12:17:08.26,106,-135,-2063,-17,92,106,402,91,311,-246
,529,2023-10-27 12:17:08.27,100,-139,-2049,-33,83,80,295,25,270,-160
,530,2023-10-27 12:17:08.28,106,-139,-2049,-40,54,66,406,102,304,-254
,531,2023-10-27 12:17:08.29,106,-141,-2063,-35,50,74,292,19,273,-155
,532,2023-10-27 12:17:08.30,124,-122,-2064,-29,73,100,407,98,309,-252
,533,2023-10-27 12:17:08.31,105,-146,-2055,-38,69,88,290,13,277,-151
,534,2023-10-27 12:17:08.32,117,-149,-2083,-36,63,83,408,109,299,-258
,535,2023-10-27 12:17:08.33,113,-140,-2098,-28,44,74,281,17,264,-149
,536,2023-10-27 12:17:08.34,106,-142,-2108,-18,-25,67,400,117,283,-258
,537,2023-10-27 12:17:08.35,105,-141,-2091,-12,-41,67,267,17,250,-142
,538,2023-10-27 12:17:08.36,94,-133,-2093,-8,-57,64,398,115,283,-256
,539,2023-10-27 12:17:08.37,92,-125,-2081,3,-51,84,272,15,257,-143
,540,2023-10-27 12:17:08.38,90,-134,-2059,8,-40,89,404,123,281,-263
,541,2023-10-27 12:17:08.39,82,-142,-2057,12,-69,80,270,16,254,-143
,542,2023-10-27 12:17:08.40,65,-159,-2055,18,-77,69,398,124,274,-261
,543,2023-10-27 12:17:08.41,74,-159,-2045,24,-86,75,257,10,247,-133
,544,2023-10-27 12:17:08.42,75,-157,-2033,22,-119,66,394,124,270,-259
,545,2023-10-27 12:17:08.43,75,-148,-2033,22,-123,70,256,16,240,-136
,546,2023-10-27 12:17:08.44,67,-156,-2033,19,-80,90,399,132,267,-265
,547,2023-10-27 12:17:08.45,80,-156,-2037,15,-64,94,254,3,251,-128
,548,2023-10-27 12:17:08.46,79,-152,-2032,12,-56,91,397,124,273,-260
,549,2023-10-27 12:17:08.47,63,-152,-2034,6,-54,68,245,-8,253,-118
,550,2023-10-27 12:17:08.48,70,-151,-2027,-4,-58,61,393,121,272,-257
,551,2023-10-27 12:17:08.49,63,-153,-2031,-6,-59,70,242,-8,250,-117
,552,2023-10-27 12:17:08.50,77,-150,-2043,-11,-44,80,386,128,258,-257
,553,2023-10-27 12:17:08.51,57,-140,-2044,-16,-8,80,234,-14,248,-110
,554,2023-10-27 12:17:08.52,71,-139,-2043,-22,7,66,382,123,259,-252
,555,2023-10-27 12:17:08.53,73,-137,-2046,-33,-8,51,227,-19,246,-104
,556,2023-10-27 12:17:08.54,63,-132,-2050,-36,-26,57,381,130,251,-255
,557,2023-10-27 12:17:08.55,83,-119,-2058,-42,-19,59,224,-15,239,-104
,558,2023-10-27 12:17:08.56,77,-121,-2059,-44,6,52,379,138,241,-258
,559,2023-10-27 12:17:08.57,91,-118,-2063,-47,12,45,222,-11,233,-105
,560,2023-10-27 12:17:08.58,87,-109,-2043,-52,-37,29,386,140,246,-263
,561,2023-10-27 12:17:08.59,87,-121,-2050,-50,-33,31,224,-16,240,-104
,562,2023-10-27 12:17:08.60,84,-115,-2065,-47,-23,33,381,147,234,-264
,563,2023-10-27 12:17:08.61,85,-118,-2056,-42,-16,27,224,-7,231,-108
,564,2023-10-27 12:17:08.62,95,-120,-2062,-35,-36,13,385,158,227,-271
,565,2023-10-27 12:17:08.63,68,-122,-2070,-30,-57,6,218,-3,221,-107
,566,2023-10-27 12:17:08.64,74,-122,-2070,-19,-75,10,381,155,226,-268
,567,2023-10-27 12:17:08.65,70,-117,-2062,-8,-29,24,218,-20,238,-99
,568,2023-10-27 12:17:08.66,79,-123,-2057,2,-20,20,377,147,230,-262
,569,2023-10-27 12:17:08.67,81,-125,-2051,8,-40,15,214,-26,240,-94
,570,2023-10-27 12:17:08.68,77,-125,-2041,17,-93,7,376,146,230,-261
,571,2023-10-27 12:17:08.69,74,-122,-2038,21,-87,3,213,-23,236,-95
,572,2023-10-27 12:17:08.70,82,-126,-2034,33,-48,41,374,155,219,-264
,573,2023-10-27 12:17:08.71,58,-126,-2041,32,-29,39,203,-26,229,-88
,574,2023-10-27 12:17:08.72,68,-126,-2053,25,-61,18,365,150,215,-257
,575,2023-10-27 12:17:08.73,61,-134,-2060,25,-82,16,203,-29,232,-87
,576,2023-10-27 12:17:08.74,53,-131,-2058,30,-84,27,374,146,228,-260
,577,2023-10-27 12:17:08.75,56,-138,-2068,39,-50,60,211,-36,247,-87
,578,2023-10-27 12:17:08.76,81,-133,-2087,47,-58,71,369,154,215,-261
,579,2023-10-27 12:17:08.77,43,-138,-2067,44,-78,60,202,-22,224,-90
,580,2023-10-27 12:17:08.78,39,-140,-2049,33,-122,48,370,167,203,-268
,581,2023-10-27 12:17:08.79,39,-128,-2044,36,-96,71,203,-23,226,-90
,582,2023-10-27 12:17:08.80,37,-137,-2020,43,-75,90,370,158,212,-264
,583,2023-10-27 12:17:08.81,65,-110,-2040,47,-65,93,210,-30,240,-90
,584,2023-10-27 12:17:08.82,53,-137,-2034,36,-50,70,375,160,215,-267
,585,2023-10-27 12:17:08.83,53,-133,-2037,34,-26,77,212,-24,236,-94
,586,2023-10-27 12:17:08.84,44,-129,-2044,31,-29,67,379,176,203,-277
,587,2023-10-27 12:17:08.85,40,-128,-2048,35,-60,73,220,-12,232,-104
,588,2023-10-27 12:17:08.86,34,-132,-2049,35,-46,79,382,184,198,-283
,589,2023-10-27 12:17:08.87,32,-129,-2058,36,-31,88,221,-8,229,-106
,590,2023-10-27 12:17:08.88,37,-124,-2053,36,-8,96,381,181,200,-281
,591,2023-10-27 12:17:08.89,44,-125,-2054,34,-21,78,224,-19,243,-102
,592,2023-10-27 12:17:08.90,41,-127,-2049,26,-42,59,378,156,222,-267
,593,2023-10-27 12:17:08.91,40,-133,-2047,29,-33,65,224,-54,278,-85
,594,2023-10-27 12:17:08.92,19,-137,-2041,32,-42,82,384,141,243,-262
,595,2023-10-27 12:17:08.93,26,-155,-2043,41,-23,99,227,-45,272,-91
,596,2023-10-27 12:17:08.94,16,-137,-2038,44,-7,93,380,154,226,-267
,597,2023-10-27 12:17:08.95,31,-143,-2043,43,-3,80,224,-43,267,-90
,598,2023-10-27 12:17:08.96,26,-142,-2041,42,-15,71,378,148,230,-263
,599,2023-10-27 12:17:08.97,42,-144,-2040,49,-36,72,231,-45,276,-93
,600,2023-10-27 12:17:08.98,22,-150,-2057,51,-30,65,390,154,236,-272
,601,2023-10-27 12:17:08.99,26,-149,-2064,56,-38,81,239,-39,278,-100
,602,2023-10-27 12:17:09.00,41,-141,-2060,72,-8,99,384,152,232,-268
,603,2023-10-27 12:17:09.01,30,-149,-2054,79,-27,93,232,-45,277,-93
,604,2023-10-27 12:17:09.02,76,-137,-2065,87,-10,84,383,146,237,-264
,605,2023-10-27 12:17:09.03,45,-131,-2056,84,-19,65,242,-46,288,-98
,606,2023-10-27 12:17:09.04,46,-145,-2034,78,-31,60,384,150,234,-267
,607,2023-10-27 12:17:09.05,28,-153,-2038,75,-13,76,243,-42,285,-100
,608,2023-10-27 12:17:09.06,15,-164,-2035,75,19,77,384,150,234,-267
,609,2023-10-27 12:17:09.07,48,-135,-2048,83,3,66,241,-44,285,-98
,610,2023-10-27 12:17:09.08,24,-159,-2050,72,-1,56,378,148,230,-263
,611,2023-10-27 12:17:09.09,25,-157,-2042,71,2,80,243,-42,285,-100
,612,2023-10-27 12:17:09.10,32,-158,-2051,70,24,80,380,147,233,-263
,613,2023-10-27 12:17:09.11,28,-167,-2055,71,7,70,248,-41,289,-103
,614,2023-10-27 12:17:09.12,18,-160,-2053,66,-33,43,379,149,230,-264
,615,2023-10-27 12:17:09.13,24,-162,-2046,66,-20,62,254,-35,289,-109
,616,2023-10-27 12:17:09.14,23,-160,-2045,71,-6,77,376,154,222,-265
,617,2023-10-27 12:17:09.15,11,-182,-2032,71,10,78,246,-37,283,-104
,618,2023-10-27 12:17:09.16,32,-157,-2046,70,-16,46,359,133,226,-246
,619,2023-10-27 12:17:09.17,17,-171,-2048,68,-28,40,243,-56,299,-93
,620,2023-10-27 12:17:09.18,23,-176,-2044,65,-27,49,367,124,243,-245
,621,2023-10-27 12:17:09.19,28,-174,-2042,69,15,64,258,-46,304,-106
,622,2023-10-27 12:17:09.20,16,-172,-2034,72,32,58,365,129,236,-247
,623,2023-10-27 12:17:09.21,17,-171,-2043,71,13,40,250,-44,294,-103
,624,2023-10-27 12:17:09.22,19,-172,-2044,62,-10,25,354,127,227,-240
,625,2023-10-27 12:17:09.23,24,-182,-2047,65,15,44,259,-39,298,-110
,626,2023-10-27 12:17:09.24,11,-181,-2038,71,46,56,363,140,223,-251
,627,2023-10-27 12:17:09.25,8,-189,-2033,74,62,54,260,-32,292,-114
,628,2023-10-27 12:17:09.26,16,-193,-2039,64,14,14,358,139,219,-248
,629,2023-10-27 12:17:09.27,16,-195,-2038,66,13,19,258,-26,284,-116
,630,2023-10-27 12:17:09.28,25,-189,-2023,74,34,35,353,144,209,-248
,631,2023-10-27 12:17:09.29,23,-193,-2024,81,81,39,268,-15,283,-126
,632,2023-10-27 12:17:09.30,31,-191,-2036,78,83,18,357,141,216,-249
,633,2023-10-27 12:17:09.31,27,-191,-2029,81,60,5,269,-23,292,-123
,634,2023-10-27 12:17:09.32,22,-194,-2036,91,74,8,352,134,218,-243
,635,2023-10-27 12:17:09.33,37,-196,-2041,98,123,8,275,-20,295,-127
,636,2023-10-27 12:17:09.34,38,-203,-2034,100,112,-5,356,131,225,-243
,637,2023-10-27 12:17:09.35,35,-200,-2041,105,112,-6,275,-18,293,-128
,638,2023-10-27 12:17:09.36,39,-211,-2042,112,108,8,351,133,218,-242
,639,2023-10-27 12:17:09.37,39,-205,-2037,114,134,6,273,-16,289,-128
,640,2023-10-27 12:17:09.38,40,-212,-2037,114,147,-4,341,134,207,-237
,641,2023-10-27 12:17:09.39,50,-210,-2034,114,154,-14,276,-6,282,-135
,642,2023-10-27 12:17:09.40,53,-210,-2036,114,123,-6,344,131,213,-237
,643,2023-10-27 12:17:09.41,54,-217,-2030,111,137,-1,278,-12,290,-133
,644,2023-10-27 12:17:09.42,56,-215,-2036,111,159,4,334,128,206,-231
,645,2023-10-27 12:17:09.43,50,-220,-2037,110,168,-13,282,-2,284,-140
,646,2023-10-27 12:17:09.44,78,-221,-2027,104,135,-29,336,133,203,-234
,647,2023-10-27 12:17:09.45,77,-223,-2022,110,153,0,283,1,282,-142
,648,2023-10-27 12:17:09.46,82,-224,-2031,115,198,4,329,124,205,-226
,649,2023-10-27 12:17:09.47,88,-236,-2050,105,160,-30,284,-3,287,-140
,650,2023-10-27 12:17:09.48,87,-230,-2037,101,142,-34,326,117,209,-221
,651,2023-10-27 12:17:09.49,93,-235,-2049,100,143,-27,287,4,283,-145
,652,2023-10-27 12:17:09.50,80,-244,-2041,115,194,2,326,121,205,-223
,653,2023-10-27 12:17:09.51,98,-247,-2052,116,187,-2,292,7,285,-149
,654,2023-10-27 12:17:09.52,95,-250,-2051,110,155,-18,322,121,201,-221
,655,2023-10-27 12:17:09.53,97,-249,-2052,115,132,4,296,13,283,-154
,656,2023-10-27 12:17:09.54,108,-244,-2055,117,168,6,316,119,197,-217
,657,2023-10-27 12:17:09.55,100,-241,-2061,111,146,-8,295,13,282,-154
,658,2023-10-27 12:17:09.56,87,-245,-2048,97,104,-27,311,108,203,-209
,659,2023-10-27 12:17:09.57,106,-255,-2043,99,110,3,286,8,278,-147
,660,2023-10-27 12:17:09.58,109,-256,-2062,104,127,16,302,115,187,-208
,661,2023-10-27 12:17:09.59,114,-247,-2037,99,113,13,300,35,265,-167
,662,2023-10-27 12:17:09.60,116,-256,-2042,92,89,-22,305,145,160,-225
,663,2023-10-27 12:17:09.61,124,-250,-2047,87,79,-17,293,54,239,-173
,664,2023-10-27 12:17:09.62,125,-252,-2037,83,66,-7,283,139,144,-211
,665,2023-10-27 12:17:09.63,119,-257,-2043,83,74,10,286,47,239,-166
,666,2023-10-27 12:17:09.64,113,-264,-2055,76,97,5,278,134,144,-206
,667,2023-10-27 12:17:09.65,118,-269,-2042,63,67,-16,291,56,235,-173
,668,2023-10-27 12:17:09.66,132,-266,-2047,62,43,-19,264,120,144,-192
,669,2023-10-27 12:17:09.67,124,-261,-2052,60,61,8,277,42,235,-159
,670,2023-10-27 12:17:09.68,126,-261,-2046,54,81,3,248,104,144,-176
,671,2023-10-27 12:17:09.69,128,-263,-2039,39,55,-17,266,46,220,-156
,672,2023-10-27 12:17:09.70,110,-267,-2042,32,18,-25,218,109,109,-163
,673,2023-10-27 12:17:09.71,112,-271,-2041,31,34,4,243,57,186,-150
,674,2023-10-27 12:17:09.72,123,-269,-2030,25,72,16,196,109,87,-152
,675,2023-10-27 12:17:09.73,125,-265,-2035,17,66,6,244,61,183,-152
,676,2023-10-27 12:17:09.74,142,-257,-2031,5,7,-17,197,109,88,-153
,677,2023-10-27 12:17:09.75,137,-260,-2031,4,15,-8,252,68,184,-160
,678,2023-10-27 12:17:09.76,136,-268,-2021,-1,34,-3,204,122,82,-163
,679,2023-10-27 12:17:09.77,147,-260,-2038,6,67,-4,260,85,175,-172
,680,2023-10-27 12:17:09.78,140,-261,-2034,-4,42,-31,206,115,91,-160
,681,2023-10-27 12:17:09.79,145,-269,-2045,-9,15,-37,278,82,196,-180
,682,2023-10-27 12:17:09.80,139,-273,-2044,-15,12,-28,215,116,99,-165
,683,2023-10-27 12:17:09.81,139,-269,-2046,-11,67,-13,278,93,185,-185
,684,2023-10-27 12:17:09.82,133,-270,-2050,-19,23,-41,211,112,99,-161
,685,2023-10-27 12:17:09.83,145,-265,-2037,-23,14,-40,288,89,199,-188
,686,2023-10-27 12:17:09.84,158,-267,-2044,-20,12,-11,222,95,127,-158
,687,2023-10-27 12:17:09.85,150,-263,-2051,-25,29,-5,295,85,210,-190
,688,2023-10-27 12:17:09.86,152,-265,-2048,-26,25,-20,216,96,120,-156
,689,2023-10-27 12:17:09.87,153,-261,-2036,-36,-14,-39,293,93,200,-193
,690,2023-10-27 12:17:09.88,153,-262,-2043,-41,-9,-17,217,94,123,-155
,691,2023-10-27 12:17:09.89,143,-245,-2040,-39,19,2,297,95,202,-196
,692,2023-10-27 12:17:09.90,140,-263,-2028,-41,38,-13,214,91,123,-152
,693,2023-10-27 12:17:09.91,132,-263,-2052,-47,-25,-37,296,96,200,-196
,694,2023-10-27 12:17:09.92,137,-258,-2039,-41,-23,-9,208,86,122,-147
,695,2023-10-27 12:17:09.93,142,-256,-2032,-34,2,2,302,107,195,-204
,696,2023-10-27 12:17:09.94,141,-262,-2036,-38,-7,-27,206,89,117,-147
,697,2023-10-27 12:17:09.95,152,-257,-2039,-42,-26,-33,294,111,183,-202
,698,2023-10-27 12:17:09.96,132,-246,-2042,-35,-5,-4,191,93,98,-142
,699,2023-10-27 12:17:09.97,144,-256,-2035,-28,24,12,289,121,168,-205
,700,2023-10-27 12:17:09.98,143,-260,-2039,-32,8,-16,188,83,105,-135
,701,2023-10-27 12:17:09.99,133,-269,-2037,-32,-20,-20,299,123,176,-211
,702,2023-10-27 12:17:10.00,159,-260,-2036,-25,-23,-16,194,89,105,-141
,703,2023-10-27 12:17:10.01,154,-262,-2021,-17,-2,20,299,130,169,-214
,704,2023-10-27 12:17:10.02,147,-254,-2022,-18,38,24,192,83,109,-137
,705,2023-10-27 12:17:10.03,161,-259,-2033,-20,29,18,303,128,175,-215
,706,2023-10-27 12:17:10.04,152,-254,-2035,-24,-21,-8,185,75,110,-130
,707,2023-10-27 12:17:10.05,151,-244,-2030,-21,0,15,294,129,165,-211
,708,2023-10-27 12:17:10.06,149,-247,-2036,-19,30,25,178,74,104,-126
,709,2023-10-27 12:17:10.07,160,-246,-2044,-22,46,30,296,133,163,-214
,710,2023-10-27 12:17:10.08,160,-244,-2046,-27,-22,-2,185,81,104,-133
,711,2023-10-27 12:17:10.09,145,-247,-2049,-27,-22,9,299,145,154,-222
,712,2023-10-27 12:17:10.10,143,-236,-2047,-21,4,29,179,72,107,-125
,713,2023-10-27 12:17:10.11,146,-236,-2043,-30,-12,-3,300,142,158,-221
,714,2023-10-27 12:17:10.12,148,-235,-2039,-32,-32,2,176,83,93,-129
,715,2023-10-27 12:17:10.13,151,-243,-2036,-32,-9,18,301,161,140,-231
,716,2023-10-27 12:17:10.14,145,-238,-2039,-30,34,19,175,69,106,-122
,717,2023-10-27 12:17:10.15,154,-240,-2038,-35,-20,1,301,143,158,-222
,718,2023-10-27 12:17:10.16,147,-235,-2045,-31,-16,27,170,55,115,-112
,719,2023-10-27 12:17:10.17,146,-233,-2048,-36,-48,5,303,149,154,-226
,720,2023-10-27 12:17:10.18,154,-230,-2053,-33,-37,25,170,56,114,-113
,721,2023-10-27 12:17:10.19,147,-232,-2050,-35,-6,28,298,153,145,-225
,722,2023-10-27 12:17:10.20,140,-237,-2044,-40,-55,5,164,59,105,-111
,723,2023-10-27 12:17:10.21,139,-239,-2055,-34,-37,41,301,162,139,-231
,724,2023-10-27 12:17:10.22,138,-236,-2044,-32,-21,49,167,59,108,-113
,725,2023-10-27 12:17:10.23,138,-236,-2035,-34,-9,47,298,164,134,-231
,726,2023-10-27 12:17:10.24,129,-231,-2034,-41,-63,30,163,59,104,-111
,727,2023-10-27 12:17:10.25,134,-235,-2037,-40,-66,43,299,170,129,-234
,728,2023-10-27 12:17:10.26,131,-232,-2052,-38,-47,57,169,54,115,-111
,729,2023-10-27 12:17:10.27,142,-235,-2048,-41,-35,50,302,173,129,-237
,730,2023-10-27 12:17:10.28,137,-234,-2047,-39,-63,50,162,52,110,-107
,731,2023-10-27 12:17:10.29,139,-225,-2042,-40,-62,75,299,167,132,-233
,732,2023-10-27 12:17:10.30,136,-221,-2042,-43,-40,85,164,37,127,-100
,733,2023-10-27 12:17:10.31,135,-215,-2047,-57,-57,49,305,162,143,-233
,734,2023-10-27 12:17:10.32,130,-212,-2043,-56,-44,74,164,33,131,-98
,735,2023-10-27 12:17:10.33,119,-215,-2041,-57,-8,85,306,165,141,-235
,736,2023-10-27 12:17:10.34,134,-221,-2040,-64,-42,56,164,33,131,-98
,737,2023-10-27 12:17:10.35,127,-209,-2043,-66,-54,73,309,166,143,-237
,738,2023-10-27 12:17:10.36,128,-217,-2046,-63,-40,92,170,28,142,-99
,739,2023-10-27 12:17:10.37,125,-205,-2044,-65,-16,103,309,164,145,-236
,740,2023-10-27 12:17:10.38,126,-205,-2043,-72,-32,75,161,14,147,-87
,741,2023-10-27 12:17:10.39,121,-208,-2044,-80,-75,64,292,151,141,-221
,742,2023-10-27 12:17:10.40,134,-205,-2048,-76,-49,87,163,14,149,-88
,743,2023-10-27 12:17:10.41,118,-205,-2049,-75,-10,92,307,171,136,-239
,744,2023-10-27 12:17:10.42,115,-198,-2049,-77,-35,78,167,19,148,-93
,745,2023-10-27 12:17:10.43,109,-197,-2038,-74,-61,82,298,166,132,-232
,746,2023-10-27 12:17:10.44,132,-196,-2047,-73,-66,91,154,8,146,-81
,747,2023-10-27 12:17:10.45,112,-194,-2043,-66,-17,103,291,164,127,-227
,748,2023-10-27 12:17:10.46,108,-193,-2040,-68,-25,94,152,14,138,-83
,749,2023-10-27 12:17:10.47,105,-192,-2043,-70,-51,76,298,175,123,-236
,750,2023-10-27 12:17:10.48,109,-185,-2046,-68,-77,82,160,4,156,-82
,751,2023-10-27 12:17:10.49,99,-182,-2051,-63,-42,103,302,173,129,-237
,752,2023-10-27 12:17:10.50,99,-182,-2047,-61,-47,95,162,12,150,-87
,753,2023-10-27 12:17:10.51,112,-176,-2048,-62,-82,66,300,186,114,-243
,754,2023-10-27 12:17:10.52,108,-175,-2058,-58,-76,84,164,10,154,-87
,755,2023-10-27 12:17:10.53,103,-166,-2051,-61,-72,66,307,177,130,-242
,756,2023-10-27 12:17:10.54,105,-174,-2061,-53,-86,85,168,0,168,-84
,757,2023-10-27 12:17:10.55,98,-173,-2056,-55,-108,63,303,173,130,-238
,758,2023-10-27 12:17:10.56,94,-175,-2054,-41,-43,98,153,-2,155,-75
,759,2023-10-27 12:17:10.57,91,-175,-2050,-46,-108,58,292,177,115,-234
,760,2023-10-27 12:17:10.58,94,-173,-2047,-43,-55,74,156,-5,161,-75
,761,2023-10-27 12:17:10.59,90,-171,-2045,-36,-81,91,304,178,126,-241
,762,2023-10-27 12:17:10.60,75,-176,-2043,-41,-100,51,175,-3,178,-86
,763,2023-10-27 12:17:10.61,79,-172,-2054,-35,-32,91,302,180,122,-241
,764,2023-10-27 12:17:10.62,68,-171,-2056,-34,-96,72,159,-9,168,-75
,765,2023-10-27 12:17:10.63,70,-168,-2050,-27,-43,71,290,178,112,-234
,766,2023-10-27 12:17:10.64,73,-173,-2043,-31,-108,56,152,-2,154,-75
,767,2023-10-27 12:17:10.65,70,-171,-2038,-29,-86,52,284,177,107,-230
,768,2023-10-27 12:17:10.66,64,-172,-2044,-20,-69,89,160,-25,185,-67
,769,2023-10-27 12:17:10.67,70,-162,-2040,-20,-58,65,290,163,127,-226
,770,2023-10-27 12:17:10.68,66,-173,-2037,-10,-38,101,164,-28,192,-68
,771,2023-10-27 12:17:10.69,63,-166,-2032,-16,-79,68,291,170,121,-230
,772,2023-10-27 12:17:10.70,62,-163,-2031,-8,-9,89,169,-9,178,-80
,773,2023-10-27 12:17:10.71,70,-162,-2033,-16,-70,55,286,185,101,-235
,774,2023-10-27 12:17:10.72,67,-165,-2033,-13,-18,63,164,-6,170,-79
,775,2023-10-27 12:17:10.73,62,-171,-2042,-6,-38,80,292,182,110,-237
,776,2023-10-27 12:17:10.74,69,-165,-2042,-5,16,85,172,-24,196,-74
,777,2023-10-27 12:17:10.75,79,-164,-2038,-3,25,93,290,171,119,-230
,778,2023-10-27 12:17:10.76,73,-155,-2046,-9,-28,48,174,-13,187,-80
,779,2023-10-27 12:17:10.77,79,-161,-2044,-2,35,79,291,190,101,-240
,780,2023-10-27 12:17:10.78,71,-156,-2046,-9,-26,59,172,-8,180,-82
,781,2023-10-27 12:17:10.79,76,-160,-2046,-8,1,46,289,175,114,-232
,782,2023-10-27 12:17:10.80,80,-161,-2047,-3,-8,58,163,-35,198,-64
,783,2023-10-27 12:17:10.81,85,-160,-2039,-2,57,73,285,172,113,-228
,784,2023-10-27 12:17:10.82,79,-160,-2048,-4,23,73,181,-18,199,-81
,785,2023-10-27 12:17:10.83,73,-157,-2046,-10,31,43,293,180,113,-236
,786,2023-10-27 12:17:10.84,87,-151,-2047,-3,61,68,185,-24,209,-80
,787,2023-10-27 12:17:10.85,85,-155,-2052,-17,-6,27,283,175,108,-229
,788,2023-10-27 12:17:10.86,74,-159,-2055,-13,40,66,178,-13,191,-82
,789,2023-10-27 12:17:10.87,75,-162,-2065,-18,26,33,277,185,92,-231
,790,2023-10-27 12:17:10.88,76,-161,-2060,-17,-2,34,179,-15,194,-82
,791,2023-10-27 12:17:10.89,75,-166,-2069,-6,46,60,281,181,100,-231
,792,2023-10-27 12:17:10.90,79,-169,-2068,-7,-1,39,191,-7,198,-92
,793,2023-10-27 12:17:10.91,76,-164,-2057,4,-26,55,279,183,96,-231
,794,2023-10-27 12:17:10.92,83,-162,-2054,13,-7,83,183,-19,202,-82
,795,2023-10-27 12:17:10.93,68,-161,-2049,9,-18,55,264,177,87,-220
,796,2023-10-27 12:17:10.94,67,-162,-2041,13,-52,55,180,-8,188,-86
,797,2023-10-27 12:17:10.95,59,-166,-2052,18,-34,84,276,202,74,-239
,798,2023-10-27 12:17:10.96,70,-174,-2063,17,-53,61,195,14,181,-104
,799,2023-10-27 12:17:10.97,59,-177,-2046,22,-68,73,268,202,66,-235
,800,2023-10-27 12:17:10.98,64,-172,-2044,30,-51,90,195,5,190,-100
,801,2023-10-27 12:17:10.99,56,-162,-2049,34,-8,93,277,194,83,-235
,802,2023-10-27 12:17:11.00,52,-166,-2046,28,-49,73,204,4,200,-104
,803,2023-10-27 12:17:11.01,52,-172,-2056,38,-38,98,272,185,87,-228
,804,2023-10-27 12:17:11.02,55,-176,-2033,39,3,103,202,-2,204,-100
,805,2023-10-27 12:17:11.03,52,-165,-2032,33,-57,64,272,182,90,-227
,806,2023-10-27 12:17:11.04,50,-169,-2041,30,-47,78,206,4,202,-105
,807,2023-10-27 12:17:11.05,52,-164,-2042,28,0,97,264,168,96,-216
,808,2023-10-27 12:17:11.06,58,-164,-2042,21,-8,71,198,-18,216,-90
,809,2023-10-27 12:17:11.07,58,-153,-2040,16,-31,70,257,152,105,-204
,810,2023-10-27 12:17:11.08,59,-162,-2038,9,-8,82,205,-13,218,-96
,811,2023-10-27 12:17:11.09,65,-161,-2042,5,30,89,260,175,85,-217
,812,2023-10-27 12:17:11.10,66,-162,-2041,-4,-14,41,208,9,199,-108
,813,2023-10-27 12:17:11.11,60,-165,-2047,-7,-20,54,255,182,73,-218
,814,2023-10-27 12:17:11.12,63,-166,-2049,-8,-4,58,206,12,194,-109
,815,2023-10-27 12:17:11.13,71,-158,-2052,-6,31,47,258,171,87,-214
,816,2023-10-27 12:17:11.14,56,-151,-2051,-11,-2,33,210,1,209,-105
,817,2023-10-27 12:17:11.15,67,-153,-2044,-7,42,57,255,168,87,-211
,818,2023-10-27 12:17:11.16,64,-156,-2043,-11,-16,43,222,18,204,-120
,819,2023-10-27 12:17:11.17,73,-155,-2051,-18,-29,19,258,164,94,-211
,820,2023-10-27 12:17:11.18,67,-155,-2050,-9,38,36,234,6,228,-120
,821,2023-10-27 12:17:11.19,64,-159,-2043,-5,-1,44,254,150,104,-202
,822,2023-10-27 12:17:11.20,65,-156,-2047,-14,-32,7,220,-4,224,-108
,823,2023-10-27 12:17:11.21,74,-158,-2049,-9,32,17,236,146,90,-191
,824,2023-10-27 12:17:11.22,75,-151,-2055,-4,6,27,224,27,197,-125
,825,2023-10-27 12:17:11.23,59,-160,-2039,-6,-27,9,246,164,82,-205
,826,2023-10-27 12:17:11.24,67,-173,-2058,-5,-6,-3,229,23,206,-126
,827,2023-10-27 12:17:11.25,62,-167,-2059,5,22,30,247,163,84,-205
,828,2023-10-27 12:17:11.26,60,-167,-2049,6,24,27,228,33,195,-130
,829,2023-10-27 12:17:11.27,73,-176,-2067,1,-39,2,235,150,85,-192
,830,2023-10-27 12:17:11.28,48,-173,-2071,5,-44,17,228,16,212,-122
,831,2023-10-27 12:17:11.29,51,-177,-2068,17,-20,43,242,141,101,-191
,832,2023-10-27 12:17:11.30,44,-186,-2058,14,-16,32,236,24,212,-130
,833,2023-10-27 12:17:11.31,44,-173,-2052,12,-58,36,240,140,100,-190
,834,2023-10-27 12:17:11.32,51,-170,-2046,16,-43,59,233,18,215,-125
,835,2023-10-27 12:17:11.33,43,-171,-2043,18,1,79,239,125,114,-182
,836,2023-10-27 12:17:11.34,46,-164,-2038,12,-35,47,239,11,228,-125
,837,2023-10-27 12:17:11.35,59,-164,-2030,6,-60,51,235,129,106,-182
,838,2023-10-27 12:17:11.36,52,-162,-2030,7,-21,71,243,25,218,-134
,839,2023-10-27 12:17:11.37,54,-170,-2041,0,-47,51,233,133,100,-183
,840,2023-10-27 12:17:11.38,50,-162,-2033,2,7,53,240,36,204,-138
,841,2023-10-27 12:17:11.39,56,-163,-2040,9,22,84,222,132,90,-177
,842,2023-10-27 12:17:11.40,60,-155,-2051,3,-36,45,244,40,204,-142
,843,2023-10-27 12:17:11.41,43,-157,-2047,2,-31,53,225,134,91,-179
,844,2023-10-27 12:17:11.42,58,-152,-2052,1,-7,32,251,43,208,-147
,845,2023-10-27 12:17:11.43,55,-156,-2062,8,27,63,220,131,89,-175
,846,2023-10-27 12:17:11.44,45,-155,-2058,8,-18,58,246,46,200,-146
,847,2023-10-27 12:17:11.45,45,-161,-2055,5,-40,32,220,138,82,-179
,848,2023-10-27 12:17:11.46,48,-158,-2054,10,17,49,250,65,185,-157
,849,2023-10-27 12:17:11.47,56,-156,-2054,3,2,34,220,143,77,-181
,850,2023-10-27 12:17:11.48,53,-154,-2043,4,-38,24,252,66,186,-159
,851,2023-10-27 12:17:11.49,44,-156,-2051,5,-23,43,212,133,79,-172
,852,2023-10-27 12:17:11.50,44,-157,-2056,6,3,44,253,65,188,-159
,853,2023-10-27 12:17:11.51,50,-162,-2048,1,-11,16,213,128,85,-170
,854,2023-10-27 12:17:11.52,38,-160,-2054,5,-23,29,254,62,192,-158
,855,2023-10-27 12:17:11.53,43,-169,-2051,13,15,41,209,126,83,-167
,856,2023-10-27 12:17:11.54,29,-170,-2057,8,-4,19,262,72,190,-167
,857,2023-10-27 12:17:11.55,35,-165,-2049,11,-42,31,214,142,72,-178
,858,2023-10-27 12:17:11.56,33,-159,-2040,16,-27,42,268,96,172,-182
,859,2023-10-27 12:17:11.57,41,-160,-2029,15,-6,40,211,137,74,-174
,860,2023-10-27 12:17:11.58,38,-164,-2034,10,-32,6,269,85,184,-177
,861,2023-10-27 12:17:11.59,26,-167,-2038,11,-42,14,213,118,95,-165
,862,2023-10-27 12:17:11.60,46,-171,-2035,17,-7,34,271,81,190,-176
,863,2023-10-27 12:17:11.61,39,-168,-2029,17,19,16,206,113,93,-159
,864,2023-10-27 12:17:11.62,44,-166,-2023,15,-32,5,260,78,182,-169
,865,2023-10-27 12:17:11.63,40,-167,-2032,23,9,28,203,101,102,-152
,866,2023-10-27 12:17:11.64,38,-172,-2053,22,22,29,277,82,195,-179
,867,2023-10-27 12:17:11.65,45,-176,-2062,19,-35,-14,208,106,102,-157
,868,2023-10-27 12:17:11.66,50,-175,-2063,18,-35,-11,272,88,184,-180
,869,2023-10-27 12:17:11.67,55,-168,-2058,29,27,6,198,106,92,-152
,870,2023-10-27 12:17:11.68,56,-164,-2049,21,4,-15,281,104,177,-192
,871,2023-10-27 12:17:11.69,40,-161,-2045,22,-24,-9,204,124,80,-164
,872,2023-10-27 12:17:11.70,36,-162,-2042,16,0,1,286,117,169,-201
,873,2023-10-27 12:17:11.71,46,-166,-2043,9,32,-8,199,113,86,-156
,874,2023-10-27 12:17:11.72,49,-173,-2043,0,-32,-33,284,112,172,-198
,875,2023-10-27 12:17:11.73,49,-172,-2041,0,-10,-10,197,109,88,-153
,876,2023-10-27 12:17:11.74,34,-169,-2046,-8,21,-6,284,123,161,-203
,877,2023-10-27 12:17:11.75,56,-168,-2051,-20,7,-34,191,115,76,-153
,878,2023-10-27 12:17:11.76,36,-163,-2058,-24,-35,-34,277,123,154,-200
,879,2023-10-27 12:17:11.77,37,-166,-2047,-21,-2,-5,182,97,85,-139
,880,2023-10-27 12:17:11.78,30,-161,-2058,-29,5,-3,284,115,169,-199
,881,2023-10-27 12:17:11.79,35,-164,-2049,-37,-17,-37,185,106,79,-145
,882,2023-10-27 12:17:11.80,30,-163,-2053,-39,-48,-33,282,133,149,-207
,883,2023-10-27 12:17:11.81,45,-154,-2051,-34,-19,2,180,105,75,-142
,884,2023-10-27 12:17:11.82,52,-160,-2043,-37,9,-8,286,138,148,-212
,885,2023-10-27 12:17:11.83,46,-157,-2042,-41,-46,-24,177,106,71,-141
,886,2023-10-27 12:17:11.84,42,-164,-2043,-38,-39,-8,283,143,140,-213
,887,2023-10-27 12:17:11.85,49,-163,-2045,-33,1,21,176,102,74,-139
,888,2023-10-27 12:17:11.86,35,-161,-2045,-39,-14,-13,294,148,146,-221
,889,2023-10-27 12:17:11.87,40,-164,-2053,-33,-25,6,182,102,80,-142
,890,2023-10-27 12:17:11.88,38,-158,-2061,-24,33,35,289,153,136,-221
,891,2023-10-27 12:17:11.89,37,-157,-2062,-31,-32,1,174,90,84,-132
,892,2023-10-27 12:17:11.90,30,-158,-2054,-21,4,43,288,144,144,-216
,893,2023-10-27 12:17:11.91,22,-160,-2072,-22,30,38,174,80,94,-127
,894,2023-10-27 12:17:11.92,33,-156,-2066,-22,-12,33,293,147,146,-220
,895,2023-10-27 12:17:11.93,37,-154,-2043,-14,-36,57,175,76,99,-125
,896,2023-10-27 12:17:11.94,18,-145,-2047,-13,-4,68,300,148,152,-224
,897,2023-10-27 12:17:11.95,43,-146,-2054,-17,-37,38,178,69,109,-123
,898,2023-10-27 12:17:11.96,32,-141,-2051,-12,-21,47,300,152,148,-226
,899,2023-10-27 12:17:11.97,42,-145,-2048,-5,-16,46,171,80,91,-125
,900,2023-10-27 12:17:11.98,29,-149,-2044,0,-19,44,296,165,131,-230
,901,2023-10-27 12:17:11.99,17,-149,-2053,3,-16,44,171,77,94,-124
,902,2023-10-27 12:17:12.00,23,-142,-2039,5,-14,42,309,168,141,-238
,903,2023-10-27 12:17:12.01,31,-139,-2041,8,-12,40,174,68,106,-121
,904,2023-10-27 12:17:12.02,36,-138,-2038,7,-5,38,306,169,137,-237
,905,2023-10-27 12:17:12.03,21,-136,-2033,4,2,36,161,68,93,-114
,906,2023-10-27 12:17:12.04,32,-144,-2035,2,9,35,302,174,128,-238
,907,2023-10-27 12:17:12.05,27,-140,-2047,3,14,32,169,58,111,-113
,908,2023-10-27 12:17:12.06,23,-141,-2052,3,19,31,315,161,154,-238
,909,2023-10-27 12:17:12.07,28,-147,-2047,4,24,30,170,40,130,-105
,910,2023-10-27 12:17:12.08,24,-148,-2048,2,25,29,308,159,149,-233
,911,2023-10-27 12:17:12.09,36,-141,-2053,4,30,23,169,41,128,-105
,912,2023-10-27 12:17:12.10,33,-138,-2050,3,32,19,303,165,138,-234
,913,2023-10-27 12:17:12.11,30,-134,-2045,5,38,15,168,42,126,-105
,914,2023-10-27 12:17:12.12,42,-133,-2040,6,43,10,312,170,142,-241
,915,2023-10-27 12:17:12.13,33,-136,-2038,5,44,4,169,37,132,-103
,916,2023-10-27 12:17:12.14,36,-139,-2055,5,47,-6,310,168,142,-239
,917,2023-10-27 12:17:12.15,33,-134,-2050,5,47,-12,173,46,127,-109
,918,2023-10-27 12:17:12.16,38,-137,-2053,6,45,-19,309,177,132,-243
,919,2023-10-27 12:17:12.17,32,-131,-2050,7,41,-27,165,34,131,-99
,920,2023-10-27 12:17:12.18,43,-140,-2052,9,29,-34,304,173,131,-238
,921,2023-10-27 12:17:12.19,35,-136,-2060,7,29,-40,162,45,117,-103
,922,2023-10-27 12:17:12.20,39,-143,-2054,10,27,-45,302,191,111,-246
,923,2023-10-27 12:17:12.21,37,-142,-2047,10,28,-47,160,40,120,-100
,924,2023-10-27 12:17:12.22,44,-151,-2034,14,29,-47,299,177,122,-238
,925,2023-10-27 12:17:12.23,53,-156,-2042,14,27,-47,156,22,134,-89
,926,2023-10-27 12:17:12.24,57,-151,-2038,19,28,-50,295,168,127,-231
,927,2023-10-27 12:17:12.25,45,-161,-2035,24,37,-50,160,15,145,-87
,928,2023-10-27 12:17:12.26,51,-160,-2038,22,34,-49,301,182,119,-241
,929,2023-10-27 12:17:12.27,40,-153,-2046,27,35,-49,160,32,128,-96
,930,2023-10-27 12:17:12.28,48,-159,-2054,27,34,-48,293,180,113,-236
,931,2023-10-27 12:17:12.29,41,-167,-2065,28,29,-46,154,4,150,-79
,932,2023-10-27 12:17:12.30,48,-156,-2069,32,28,-47,293,172,121,-232
,933,2023-10-27 12:17:12.31,51,-161,-2058,34,27,-46,157,16,141,-86
,934,2023-10-27 12:17:12.32,56,-155,-2055,33,28,-48,298,192,106,-245
,935,2023-10-27 12:17:12.33,51,-159,-2053,27,32,-45,160,28,132,-94
,936,2023-10-27 12:17:12.34,44,-159,-2055,24,33,-46,292,186,106,-239
,937,2023-10-27 12:17:12.35,39,-158,-2045,22,30,-42,155,-1,156,-77
,938,2023-10-27 12:17:12.36,49,-162,-2039,16,28,-38,294,173,121,-233
,939,2023-10-27 12:17:12.37,55,-161,-2040,13,27,-36,158,8,150,-83
,940,2023-10-27 12:17:12.38,65,-157,-2045,8,29,-32,292,190,102,-241
,941,2023-10-27 12:17:12.39,58,-153,-2054,2,31,-35,152,11,141,-81
,942,2023-10-27 12:17:12.40,64,-153,-2048,-2,30,-34,284,184,100,-234
,943,2023-10-27 12:17:12.41,71,-157,-2049,-3,29,-35,155,1,154,-78
,944,2023-10-27 12:17:12.42,61,-159,-2060,-3,24,-35,283,177,106,-230
,945,2023-10-27 12:17:12.43,60,-159,-2056,-4,21,-32,149,-7,156,-71
,946,2023-10-27 12:17:12.44,59,-161,-2052,-3,15,-29,268,172,96,-220
,947,2023-10-27 12:17:12.45,63,-158,-2056,-1,13,-24,148,-3,151,-72
,948,2023-10-27 12:17:12.46,57,-165,-2056,-1,9,-22,277,192,85,-234
,949,2023-10-27 12:17:12.47,49,-164,-2059,-2,6,-18,156,14,142,-85
,950,2023-10-27 12:17:12.48,59,-159,-2047,-3,5,-14,276,197,79,-236
,951,2023-10-27 12:17:12.49,62,-160,-2047,-2,1,-13,149,0,149,-74
,952,2023-10-27 12:17:12.50,52,-155,-2044,-2,7,-11,268,186,82,-227
,953,2023-10-27 12:17:12.51,59,-154,-2042,-3,5,-8,146,0,146,-73
,954,2023-10-27 12:17:12.52,67,-153,-2045,-9,6,-7,264,195,69,-229
,955,2023-10-27 12:17:12.53,63,-149,-2048,-14,4,-6,144,8,136,-76
,956,2023-10-27 12:17:12.54,68,-140,-2038,-15,6,-3,259,203,56,-231
,957,2023-10-27 12:17:12.55,61,-150,-2051,-17,10,-4,146,6,140,-76
,958,2023-10-27 12:17:12.56,59,-144,-2064,-24,4,0,266,195,71,-230
,959,2023-10-27 12:17:12.57,61,-144,-2055,-25,-5,1,151,-2,153,-74
,960,2023-10-27 12:17:12.58,66,-142,-2060,-21,-5,5,265,192,73,-228
,961,2023-10-27 12:17:12.59,75,-147,-2058,-22,-8,3,150,-5,155,-72
,962,2023-10-27 12:17:12.60,64,-141,-2064,-23,-7,5,266,182,84,-224
,963,2023-10-27 12:17:12.61,57,-141,-2066,-18,-11,7,154,-22,176,-66
,964,2023-10-27 12:17:12.62,52,-145,-2053,-14,-14,6,263,178,85,-220
,965,2023-10-27 12:17:12.63,63,-137,-2059,-9,-20,10,152,-10,162,-71
,966,2023-10-27 12:17:12.64,57,-138,-2058,-4,-21,11,259,184,75,-221
,967,2023-10-27 12:17:12.65,51,-136,-2053,-3,-22,10,151,-18,169,-66
,968,2023-10-27 12:17:12.66,60,-132,-2045,0,-27,10,250,177,73,-213
,969,2023-10-27 12:17:12.67,64,-125,-2054,14,-29,11,148,-15,163,-66
,970,2023-10-27 12:17:12.68,62,-121,-2059,13,-27,5,240,179,61,-209
,971,2023-10-27 12:17:12.69,61,-136,-2029,3,-25,1,147,-17,164,-65
,972,2023-10-27 12:17:12.70,50,-129,-2040,5,-22,-3,248,189,59,-218
,973,2023-10-27 12:17:12.71,49,-136,-2047,11,-18,-8,156,2,154,-79
,974,2023-10-27 12:17:12.72,44,-146,-2040,11,-10,-11,261,195,66,-228
,975,2023-10-27 12:17:12.73,58,-132,-2047,13,-10,-12,176,-3,179,-86
,976,2023-10-27 12:17:12.74,47,-134,-2046,17,-10,-14,266,178,88,-222
,977,2023-10-27 12:17:12.75,52,-133,-2041,21,-1,-18,163,-15,178,-74
,978,2023-10-27 12:17:12.76,59,-139,-2045,25,6,-19,242,178,64,-210
,979,2023-10-27 12:17:12.77,52,-132,-2039,24,7,-26,161,-13,174,-74
,980,2023-10-27 12:17:12.78,66,-141,-2051,17,10,-29,251,178,73,-214
,981,2023-10-27 12:17:12.79,55,-139,-2055,16,23,-31,176,-10,186,-83
,982,2023-10-27 12:17:12.80,60,-128,-2058,15,14,-36,252,177,75,-214
,983,2023-10-27 12:17:12.81,57,-137,-2057,17,11,-40,172,-15,187,-78
,984,2023-10-27 12:17:12.82,68,-132,-2050,20,4,-41,250,179,71,-214
,985,2023-10-27 12:17:12.83,68,-139,-2056,22,1,-43,173,-10,183,-81
,986,2023-10-27 12:17:12.84,31,-140,-2012,25,6,-47,250,190,60,-220
,987,2023-10-27 12:17:12.85,77,-130,-2093,39,-10,-51,176,0,176,-88
,988,2023-10-27 12:17:12.86,60,-132,-2066,18,-3,-54,256,192,64,-224
,989,2023-10-27 12:17:12.87,64,-131,-2043,17,-7,-60,188,8,180,-98
,990,2023-10-27 12:17:12.88,54,-125,-2019,23,-6,-64,257,193,64,-225
,991,2023-10-27 12:17:12.89,67,-131,-2055,34,-7,-66,196,9,187,-102
,992,2023-10-27 12:17:12.90,64,-139,-2038,24,-6,-70,252,188,64,-220
,993,2023-10-27 12:17:12.91,66,-137,-2034,19,-5,-73,193,12,181,-102
,994,2023-10-27 12:17:12.92,40,-155,-1996,29,-5,-75,247,176,71,-211
,995,2023-10-27 12:17:12.93,80,-147,-2053,52,-10,-72,190,-4,194,-93
,996,2023-10-27 12:17:12.94,44,-150,-2052,54,4,-78,239,179,60,-209
,997,2023-10-27 12:17:12.95,74,-157,-2050,65,-16,-76,195,19,176,-107
,998,2023-10-27 12:17:12.96,31,-153,-2034,69,-8,-78,242,185,57,-213
,999,2023-10-27 12:17:12.97,55,-154,-2053,74,-12,-79,206,16,190,-111
,1000,2023-10-27 12:17:12.98,37,-151,-2049,73,-7,-80,249,170,79,-209
,1001,2023-10-27 12:17:12.99,54,-150,-2052,66,-8,-83,208,8,200,-108
,1002,2023-10-27 12:17:13.00,32,-170,-2056,59,-7,-77,243,161,82,-202
,1003,2023-10-27 12:17:13.01,33,-160,-2060,54,-13,-75,208,8,200,-108
,1004,2023-10-27 12:17:13.02,30,-173,-2061,52,-15,-71,236,166,70,-201
,1005,2023-10-27 12:17:13.03,22,-154,-2073,48,-9,-72,209,26,183,-117
,1006,2023-10-27 12:17:13.04,20,-160,-2068,39,-7,-76,238,161,77,-199
,1007,2023-10-27 12:17:13.05,18,-156,-2053,16,2,-79,206,11,195,-108
,1008,2023-10-27 12:17:13.06,23,-153,-2055,10,8,-85,227,153,74,-190
,1009,2023-10-27 12:17:13.07,14,-167,-2055,7,11,-90,202,22,180,-112
,1010,2023-10-27 12:17:13.08,22,-166,-2052,-2,15,-89,210,158,52,-184
,1011,2023-10-27 12:17:13.09,23,-162,-2057,-11,23,-89,184,29,155,-106
,1012,2023-10-27 12:17:13.10,7,-156,-2056,-13,21,-91,192,161,31,-176
,1013,2023-10-27 12:17:13.11,16,-161,-2054,-14,15,-92,178,28,150,-103
,1014,2023-10-27 12:17:13.12,13,-146,-2046,-15,21,-95,184,154,30,-169
,1015,2023-10-27 12:17:13.13,20,-157,-2041,-22,27,-97,173,26,147,-99
,1016,2023-10-27 12:17:13.14,22,-147,-2050,-29,35,-100,176,132,44,-154
,1017,2023-10-27 12:17:13.15,18,-143,-2051,-29,38,-101,187,1,186,-94
,1018,2023-10-27 12:17:13.16,20,-135,-2041,-33,47,-106,206,116,90,-161
,1019,2023-10-27 12:17:13.17,33,-143,-2030,-33,52,-110,223,11,212,-117
,1020,2023-10-27 12:17:13.18,30,-134,-2055,-34,55,-115,234,114,120,-174
,1021,2023-10-27 12:17:13.19,37,-132,-2038,-34,66,-121,240,12,228,-126
,1022,2023-10-27 12:17:13.20,50,-123,-2031,-36,72,-129,232,97,135,-164
,1023,2023-10-27 12:17:13.21,46,-142,-2028,-39,85,-133,240,0,240,-120
,1024,2023-10-27 12:17:13.22,62,-135,-2033,-29,81,-139,229,98,131,-163
,1025,2023-10-27 12:17:13.23,60,-151,-2032,-18,80,-139,252,27,225,-139
,1026,2023-10-27 12:17:13.24,54,-149,-2049,-6,77,-142,228,103,125,-165
,1027,2023-10-27 12:17:13.25,56,-123,-2069,-6,79,-149,248,19,229,-133
,1028,2023-10-27 12:17:13.26,58,-141,-2031,-8,94,-148,218,78,140,-148
,1029,2023-10-27 12:17:13.27,78,-135,-2031,-4,102,-155,259,20,239,-139
,1030,2023-10-27 12:17:13.28,90,-135,-2059,4,104,-152,233,95,138,-164
,1031,2023-10-27 12:17:13.29,73,-135,-2051,6,102,-155,256,32,224,-144
,1032,2023-10-27 12:17:13.30,97,-143,-2030,8,94,-150,232,93,139,-162
,1033,2023-10-27 12:17:13.31,100,-130,-2057,16,98,-151,266,34,232,-150
,1034,2023-10-27 12:17:13.32,90,-143,-2050,16,96,-148,228,93,135,-160
,1035,2023-10-27 12:17:13.33,108,-143,-2045,14,94,-147,265,48,217,-156
,1036,2023-10-27 12:17:13.34,100,-142,-2043,13,103,-143,219,91,128,-155
,1037,2023-10-27 12:17:13.35,118,-153,-2045,15,94,-140,264,44,220,-154
,1038,2023-10-27 12:17:13.36,107,-144,-2039,15,93,-138,223,84,139,-153
,1039,2023-10-27 12:17:13.37,117,-139,-2046,21,85,-131,273,46,227,-159
,1040,2023-10-27 12:17:13.38,123,-154,-2036,19,85,-130,217,82,135,-149
,1041,2023-10-27 12:17:13.39,124,-148,-2027,13,100,-127,272,52,220,-162
,1042,2023-10-27 12:17:13.40,112,-162,-2011,6,112,-127,226,105,121,-165
,1043,2023-10-27 12:17:13.41,115,-160,-2030,14,109,-125,287,76,211,-181
,1044,2023-10-27 12:17:13.42,137,-158,-2042,26,100,-123,227,84,143,-155
,1045,2023-10-27 12:17:13.43,161,-151,-2035,34,104,-125,289,60,229,-174
,1046,2023-10-27 12:17:13.44,168,-172,-2032,37,108,-119,215,80,135,-147
,1047,2023-10-27 12:17:13.45,153,-166,-2039,33,128,-123,272,66,206,-169
,1048,2023-10-27 12:17:13.46,146,-177,-2056,40,126,-116,194,74,120,-134
,1049,2023-10-27 12:17:13.47,152,-143,-2063,45,131,-115,270,68,202,-169
,1050,2023-10-27 12:17:13.48,142,-159,-2049,40,124,-109,203,84,119,-143
,1051,2023-10-27 12:17:13.49,143,-162,-2054,34,121,-109,278,85,193,-181
,1052,2023-10-27 12:17:13.50,161,-156,-2056,35,108,-103,202,69,133,-135
,1053,2023-10-27 12:17:13.51,157,-147,-2060,39,92,-99,280,66,214,-173
,1054,2023-10-27 12:17:13.52,141,-160,-2049,29,104,-96,198,37,161,-117
,1055,2023-10-27 12:17:13.53,145,-161,-2050,21,104,-92,264,32,232,-148
,1056,2023-10-27 12:17:13.54,159,-170,-2041,20,102,-89,180,1,179,-90
,1057,2023-10-27 12:17:13.55,174,-159,-2043,20,93,-82,262,37,225,-149
,1058,2023-10-27 12:17:13.56,172,-162,-2034,24,93,-79,180,22,158,-101
,1059,2023-10-27 12:17:13.57,172,-167,-2037,19,103,-78,271,60,211,-165
,1060,2023-10-27 12:17:13.58,174,-164,-2026,17,116,-76,189,28,161,-108
,1061,2023-10-27 12:17:13.59,185,-177,-2034,15,123,-75,284,58,226,-171
,1062,2023-10-27 12:17:13.60,169,-180,-2052,21,117,-66,193,-1,194,-96
,1063,2023-10-27 12:17:13.61,182,-168,-2057,31,104,-60,284,35,249,-159
,1064,2023-10-27 12:17:13.62,186,-169,-2044,36,98,-56,186,-18,204,-84
,1065,2023-10-27 12:17:13.63,167,-165,-2045,26,124,-55,278,38,240,-158
,1066,2023-10-27 12:17:13.64,186,-166,-2045,26,125,-58,193,1,192,-97
,1067,2023-10-27 12:17:13.65,202,-146,-2033,28,119,-60,275,62,213,-168
,1068,2023-10-27 12:17:13.66,193,-160,-2032,23,138,-62,173,11,162,-92
,1069,2023-10-27 12:17:13.67,181,-148,-2036,19,141,-68,264,68,196,-166
,1070,2023-10-27 12:17:13.68,182,-163,-2046,13,150,-76,190,30,160,-110
,1071,2023-10-27 12:17:13.69,174,-168,-2056,16,138,-77,307,92,215,-199
,1072,2023-10-27 12:17:13.70,198,-156,-2049,20,118,-79,211,12,199,-111
,1073,2023-10-27 12:17:13.71,195,-151,-2049,21,106,-86,315,79,236,-197
,1074,2023-10-27 12:17:13.72,189,-153,-2055,10,111,-91,203,0,203,-101
,1075,2023-10-27 12:17:13.73,186,-147,-2042,-2,114,-104,303,77,226,-190
,1076,2023-10-27 12:17:13.74,198,-139,-2050,-6,104,-107,197,2,195,-99
,1077,2023-10-27 12:17:13.75,220,-134,-2055,-8,94,-109,310,94,216,-202
,1078,2023-10-27 12:17:13.76,217,-142,-2052,-11,83,-113,202,9,193,-105
,1079,2023-10-27 12:17:13.77,210,-142,-2056,-17,79,-117,313,99,214,-206
,1080,2023-10-27 12:17:13.78,209,-145,-2059,-24,77,-118,195,5,190,-100
,1081,2023-10-27 12:17:13.79,211,-147,-2052,-26,74,-120,330,109,221,-219
,1082,2023-10-27 12:17:13.80,223,-124,-2062,-31,76,-125,212,24,188,-118
,1083,2023-10-27 12:17:13.81,221,-140,-2058,-41,87,-128,325,130,195,-227
,1084,2023-10-27 12:17:13.82,212,-140,-2051,-35,74,-125,199,26,173,-112
,1085,2023-10-27 12:17:13.83,214,-150,-2049,-31,69,-125,319,129,190,-224
,1086,2023-10-27 12:17:13.84,196,-151,-2046,-26,68,-122,197,27,170,-112
,1087,2023-10-27 12:17:13.85,203,-140,-2052,-32,69,-124,313,144,169,-228
,1088,2023-10-27 12:17:13.86,215,-135,-2051,-38,78,-120,187,54,133,-120
,1089,2023-10-27 12:17:13.87,210,-143,-2049,-43,82,-120,308,163,145,-235
,1090,2023-10-27 12:17:13.88,204,-159,-2047,-41,79,-115,208,37,171,-122
,1091,2023-10-27 12:17:13.89,209,-159,-2043,-31,67,-106,344,142,202,-243
,1092,2023-10-27 12:17:13.90,213,-162,-2050,-10,43,-98,230,17,213,-123
,1093,2023-10-27 12:17:13.91,215,-154,-2047,3,38,-90,340,138,202,-239
,1094,2023-10-27 12:17:13.92,222,-161,-2044,8,49,-86,212,10,202,-111
,1095,2023-10-27 12:17:13.93,225,-154,-2056,10,55,-82,331,133,198,-232
,1096,2023-10-27 12:17:13.94,218,-168,-2044,18,57,-75,208,-6,214,-101
,1097,2023-10-27 12:17:13.95,218,-163,-2045,30,56,-68,353,130,223,-241
,1098,2023-10-27 12:17:13.96,214,-167,-2047,41,47,-61,222,-6,228,-108
,1099,2023-10-27 12:17:13.97,232,-168,-2055,52,34,-51,333,130,203,-231
,1100,2023-10-27 12:17:13.98,232,-166,-2047,61,35,-43,190,-9,199,-90
,1101,2023-10-27 12:17:13.99,231,-168,-2044,72,30,-37,318,136,182,-227
,1102,2023-10-27 12:17:14.00,224,-182,-2038,83,28,-29,186,-7,193,-89
,1103,2023-10-27 12:17:14.01,228,-179,-2039,100,31,-23,307,146,161,-226
,1104,2023-10-27 12:17:14.02,243,-167,-2026,115,26,-16,170,7,163,-88
,1105,2023-10-27 12:17:14.03,244,-171,-2026,124,23,-11,281,158,123,-219
,1106,2023-10-27 12:17:14.04,233,-185,-2028,129,32,-4,151,6,145,-78
,1107,2023-10-27 12:17:14.05,241,-174,-2022,136,32,0,283,165,118,-224
,1108,2023-10-27 12:17:14.06,239,-173,-2034,143,32,7,142,-6,148,-68
,1109,2023-10-27 12:17:14.07,242,-164,-2032,145,33,8,247,148,99,-197
,1110,2023-10-27 12:17:14.08,237,-161,-2045,138,37,11,103,-23,126,-40
,1111,2023-10-27 12:17:14.09,235,-166,-2045,128,40,15,234,155,79,-194
,1112,2023-10-27 12:17:14.10,241,-168,-2042,129,42,16,118,-7,125,-55
,1113,2023-10-27 12:17:14.11,233,-172,-2036,121,49,19,240,157,83,-198
,1114,2023-10-27 12:17:14.12,226,-174,-2035,109,53,21,124,-11,135,-56
,1115,2023-10-27 12:17:14.13,231,-179,-2044,101,47,27,255,164,91,-209
,1116,2023-10-27 12:17:14.14,236,-175,-2055,99,39,31,140,0,140,-70
,1117,2023-10-27 12:17:14.15,233,-178,-2052,95,34,37,271,183,88,-227
,1118,2023-10-27 12:17:14.16,248,-189,-2051,83,38,37,154,13,141,-83
,1119,2023-10-27 12:17:14.17,249,-174,-2054,76,43,40,278,175,103,-226
,1120,2023-10-27 12:17:14.18,253,-179,-2035,74,47,44,162,-13,175,-74
,1121,2023-10-27 12:17:14.19,236,-183,-2017,73,55,42,289,167,122,-228
,1122,2023-10-27 12:17:14.20,242,-191,-2025,78,60,38,171,-8,179,-81
,1123,2023-10-27 12:17:14.21,248,-197,-2021,77,65,40,291,167,124,-229
,1124,2023-10-27 12:17:14.22,259,-215,-2005,85,68,37,176,-24,200,-76
,1125,2023-10-27 12:17:14.23,248,-199,-1999,94,74,31,297,154,143,-225
,1126,2023-10-27 12:17:14.24,253,-203,-1998,94,72,27,184,-30,214,-77
,1127,2023-10-27 12:17:14.25,271,-217,-2014,102,67,21,306,148,158,-227
,1128,2023-10-27 12:17:14.26,270,-213,-2030,113,61,18,196,-38,234,-79
,1129,2023-10-27 12:17:14.27,262,-209,-2027,115,59,12,310,156,154,-233
,1130,2023-10-27 12:17:14.28,273,-210,-2036,116,67,7,194,-19,213,-87
,1131,2023-10-27 12:17:14.29,284,-215,-2027,114,72,-2,283,165,118,-224
,1132,2023-10-27 12:17:14.30,290,-212,-2034,114,81,-7,162,-29,191,-66
,1133,2023-10-27 12:17:14.31,281,-219,-2026,113,85,-13,261,166,95,-213
,1134,2023-10-27 12:17:14.32,279,-226,-2026,108,85,-14,160,-14,174,-73
,1135,2023-10-27 12:17:14.33,281,-227,-2034,104,88,-16,256,178,78,-217
,1136,2023-10-27 12:17:14.34,282,-219,-2029,103,82,-13,157,-14,171,-71
,1137,2023-10-27 12:17:14.35,290,-228,-2028,103,78,-13,255,167,88,-211
,1138,2023-10-27 12:17:14.36,290,-228,-2031,98,78,-13,160,-33,193,-63
,1139,2023-10-27 12:17:14.37,298,-230,-2031,90,83,-13,259,161,98,-210
,1140,2023-10-27 12:17:14.38,289,-230,-2034,78,95,-16,169,-17,186,-76
,1141,2023-10-27 12:17:14.39,298,-221,-2021,76,98,-23,258,181,77,-219
,1142,2023-10-27 12:17:14.40,301,-220,-2029,76,102,-22,158,-13,171,-72
,1143,2023-10-27 12:17:14.41,293,-227,-2038,74,113,-26,237,173,64,-205
,1144,2023-10-27 12:17:14.42,297,-220,-2025,71,120,-31,148,-25,173,-61
,1145,2023-10-27 12:17:14.43,300,-218,-2039,69,118,-30,228,162,66,-195
,1146,2023-10-27 12:17:14.44,289,-216,-2031,65,119,-36,145,-32,177,-56
,1147,2023-10-27 12:17:14.45,290,-212,-2024,67,115,-39,213,157,56,-185
,1148,2023-10-27 12:17:14.46,289,-216,-2027,60,118,-46,143,-26,169,-58
,1149,2023-10-27 12:17:14.47,277,-221,-2021,56,124,-53,209,154,55,-181
,1150,2023-10-27 12:17:14.48,309,-224,-1996,58,132,-62,142,-34,176,-54
,1151,2023-10-27 12:17:14.49,311,-222,-1999,63,139,-71,202,143,59,-172
,1152,2023-10-27 12:17:14.50,305,-230,-2007,65,142,-79,141,-35,176,-53
,1153,2023-10-27 12:17:14.51,313,-226,-2007,62,146,-85,206,156,50,-181
,1154,2023-10-27 12:17:14.52,299,-233,-2007,69,146,-94,142,-35,177,-53
,1155,2023-10-27 12:17:14.53,302,-228,-2027,70,149,-99,209,162,47,-185
,1156,2023-10-27 12:17:14.54,300,-243,-2015,63,148,-104,161,-26,187,-67
,1157,2023-10-27 12:17:14.55,309,-227,-2018,69,130,-109,212,166,46,-189
,1158,2023-10-27 12:17:14.56,325,-240,-1997,68,132,-113,174,-5,179,-84
,1159,2023-10-27 12:17:14.57,336,-238,-2012,63,132,-116,226,180,46,-203
,1160,2023-10-27 12:17:14.58,346,-247,-2022,57,143,-120,174,-13,187,-80
,1161,2023-10-27 12:17:14.59,336,-245,-2039,53,148,-122,204,174,30,-189
,1162,2023-10-27 12:17:14.60,339,-250,-2032,52,137,-119,149,-9,158,-70
,1163,2023-10-27 12:17:14.61,346,-252,-2038,50,125,-113,180,176,4,-178
,1164,2023-10-27 12:17:14.62,347,-257,-2034,48,114,-106,140,5,135,-72
,1165,2023-10-27 12:17:14.63,342,-242,-2042,46,99,-99,175,171,4,-173
,1166,2023-10-27 12:17:14.64,360,-243,-2042,37,89,-93,153,-21,174,-66
,1167,2023-10-27 12:17:14.65,359,-246,-2033,22,93,-86,195,162,33,-178
,1168,2023-10-27 12:17:14.66,344,-248,-2049,11,84,-80,183,-9,192,-87
,1169,2023-10-27 12:17:14.67,344,-252,-2044,3,70,-73,223,174,49,-198
,1170,2023-10-27 12:17:14.68,351,-244,-2042,1,63,-66,197,-3,200,-97
,1171,2023-10-27 12:17:14.69,363,-247,-2044,-11,55,-59,214,179,35,-196
,1172,2023-10-27 12:17:14.70,364,-246,-2045,-23,47,-52,197,9,188,-103
,1173,2023-10-27 12:17:14.71,361,-245,-2042,-26,34,-45,220,188,32,-204
,1174,2023-10-27 12:17:14.72,352,-247,-2040,-29,18,-41,200,21,179,-110
,1175,2023-10-27 12:17:14.73,366,-250,-2029,-39,15,-32,241,188,53,-214
,1176,2023-10-27 12:17:14.74,368,-244,-2030,-39,9,-25,269,21,248,-145
,1177,2023-10-27 12:17:14.75,354,-251,-2034,-42,4,-22,333,178,155,-255
,1178,2023-10-27 12:17:14.76,356,-250,-2025,-47,-3,-11,350,20,330,-185
,1179,2023-10-27 12:17:14.77,356,-249,-2016,-49,-10,-6,438,168,270,-303
,1180,2023-10-27 12:17:14.78,357,-244,-2013,-54,-14,2,462,10,452,-236
,1181,2023-10-27 12:17:14.79,349,-244,-2029,-53,-18,7,548,172,376,-360
,1182,2023-10-27 12:17:14.80,348,-235,-2029,-58,-23,10,542,32,510,-287
,1183,2023-10-27 12:17:14.81,357,-222,-2019,-65,-30,11,619,170,449,-394
,1184,2023-10-27 12:17:14.82,354,-229,-2019,-68,-38,11,605,16,589,-310
,1185,2023-10-27 12:17:14.83,343,-228,-2035,-74,-43,10,673,160,513,-416
,1186,2023-10-27 12:17:14.84,353,-230,-2031,-73,-50,8,643,22,621,-332
,1187,2023-10-27 12:17:14.85,361,-230,-2031,-76,-56,8,702,173,529,-437
,1188,2023-10-27 12:17:14.86,351,-226,-2019,-74,-61,5,667,44,623,-355
,1189,2023-10-27 12:17:14.87,337,-229,-2026,-73,-64,1,744,184,560,-464
,1190,2023-10-27 12:17:14.88,352,-226,-2025,-72,-71,-2,694,42,652,-368
,1191,2023-10-27 12:17:14.89,348,-224,-2021,-71,-81,-8,741,165,576,-453
,1192,2023-10-27 12:17:14.90,348,-223,-2029,-68,-84,-14,700,25,675,-362
,1193,2023-10-27 12:17:14.91,356,-221,-2028,-66,-88,-20,722,198,524,-460
,1194,2023-10-27 12:17:14.92,352,-222,-2025,-63,-88,-26,654,87,567,-370
,1195,2023-10-27 12:17:14.93,354,-216,-2030,-58,-77,-34,601,245,356,-423
,1196,2023-10-27 12:17:14.94,373,-210,-2028,-57,-69,-40,546,108,438,-327
,1197,2023-10-27 12:17:14.95,360,-208,-2019,-61,-56,-48,493,251,242,-372
,1198,2023-10-27 12:17:14.96,359,-206,-2008,-61,-46,-53,445,121,324,-283
,1199,2023-10-27 12:17:14.97,364,-214,-2017,-61,-42,-52,457,216,241,-336
,1200,2023-10-27 12:17:14.98,355,-218,-2027,-64,-44,-48,496,75,421,-285
,1201,2023-10-27 12:17:14.99,349,-214,-2032,-65,-46,-42,480,181,299,-330
,1202,2023-10-27 12:17:15.00,352,-210,-2040,-62,-57,-32,453,80,373,-266
,1203,2023-10-27 12:17:15.01,330,-207,-2046,-59,-72,-28,371,174,197,-272
,1204,2023-10-27 12:17:15.02,329,-205,-2043,-61,-78,-20,372,74,298,-223
,1205,2023-10-27 12:17:15.03,331,-200,-2047,-62,-84,-15,333,178,155,-255
,1206,2023-10-27 12:17:15.04,328,-200,-2030,-62,-93,-8,346,89,257,-217
,1207,2023-10-27 12:17:15.05,329,-192,-2032,-61,-91,1,282,182,100,-232
,1208,2023-10-27 12:17:15.06,328,-199,-2039,-58,-97,5,299,89,210,-194
,1209,2023-10-27 12:17:15.07,325,-195,-2039,-55,-109,11,243,164,79,-203
,1210,2023-10-27 12:17:15.08,316,-184,-2029,-56,-104,13,282,80,202,-181
,1211,2023-10-27 12:17:15.09,326,-187,-2026,-58,-115,20,237,171,66,-204
,1212,2023-10-27 12:17:15.10,318,-182,-2015,-61,-106,19,280,95,185,-187
,1213,2023-10-27 12:17:15.11,316,-173,-2026,-61,-108,19,223,165,58,-194
,1214,2023-10-27 12:17:15.12,318,-173,-2015,-62,-105,18,259,93,166,-176
,1215,2023-10-27 12:17:15.13,339,-173,-2014,-66,-103,16,192,161,31,-176
,1216,2023-10-27 12:17:15.14,328,-175,-2009,-71,-95,10,235,98,137,-166
,1217,2023-10-27 12:17:15.15,316,-171,-2008,-69,-83,8,174,160,14,-167
,1218,2023-10-27 12:17:15.16,324,-178,-2014,-73,-78,6,231,98,133,-164
,1219,2023-10-27 12:17:15.17,328,-166,-2007,-74,-72,9,163,155,8,-159
,1220,2023-10-27 12:17:15.18,321,-172,-2029,-70,-71,10,230,107,123,-168
,1221,2023-10-27 12:17:15.19,321,-167,-2029,-77,-68,13,163,161,2,-162
,1222,2023-10-27 12:17:15.20,328,-159,-2042,-80,-70,18,228,118,110,-173
,1223,2023-10-27 12:17:15.21,314,-153,-2046,-84,-74,26,147,149,-2,-148
,1224,2023-10-27 12:17:15.22,319,-148,-2051,-88,-78,29,202,103,99,-152
,1225,2023-10-27 12:17:15.23,311,-137,-2048,-94,-77,31,120,128,-8,-124
,1226,2023-10-27 12:17:15.24,316,-126,-2062,-102,-77,30,205,98,107,-151
,1227,2023-10-27 12:17:15.25,313,-126,-2048,-111,-78,32,140,140,0,-140
,1228,2023-10-27 12:17:15.26,302,-133,-2054,-118,-80,33,218,122,96,-170
,1229,2023-10-27 12:17:15.27,291,-132,-2055,-116,-85,32,134,138,-4,-136
,1230,2023-10-27 12:17:15.28,296,-125,-2053,-112,-93,34,215,122,93,-168
,1231,2023-10-27 12:17:15.29,300,-128,-2035,-107,-94,34,116,120,-4,-118
,1232,2023-10-27 12:17:15.30,298,-120,-2034,-100,-99,34,202,108,94,-155
,1233,2023-10-27 12:17:15.31,293,-121,-2029,-98,-99,32,108,88,20,-98
,1234,2023-10-27 12:17:15.32,288,-117,-2019,-87,-93,26,215,98,117,-156
,1235,2023-10-27 12:17:15.33,286,-119,-2018,-76,-90,20,130,105,25,-117
,1236,2023-10-27 12:17:15.34,280,-109,-2026,-67,-88,15,216,117,99,-166
,1237,2023-10-27 12:17:15.35,284,-113,-2032,-54,-85,9,124,116,8,-120
,1238,2023-10-27 12:17:15.36,292,-116,-2036,-45,-88,7,215,128,87,-171
,1239,2023-10-27 12:17:15.37,288,-118,-2037,-33,-88,1,119,111,8,-115
,1240,2023-10-27 12:17:15.38,271,-126,-2045,-12,-86,-5,218,128,90,-173
,1241,2023-10-27 12:17:15.39,276,-125,-2038,1,-91,-13,121,110,11,-115
,1242,2023-10-27 12:17:15.40,273,-124,-2043,13,-90,-17,217,133,84,-175
,1243,2023-10-27 12:17:15.41,251,-134,-2045,24,-100,-23,114,98,16,-106
,1244,2023-10-27 12:17:15.42,264,-130,-2066,39,-106,-27,206,128,78,-167
,1245,2023-10-27 12:17:15.43,243,-138,-2049,44,-104,-30,101,88,13,-94
,1246,2023-10-27 12:17:15.44,255,-129,-2062,50,-114,-32,211,129,82,-170
,1247,2023-10-27 12:17:15.45,250,-130,-2063,50,-115,-38,112,82,30,-97
,1248,2023-10-27 12:17:15.46,235,-120,-2051,49,-116,-41,230,131,99,-180
,1249,2023-10-27 12:17:15.47,235,-140,-2022,49,-113,-46,122,98,24,-110
,1250,2023-10-27 12:17:15.48,235,-129,-2048,58,-120,-49,231,154,77,-192
,1251,2023-10-27 12:17:15.49,223,-139,-2058,60,-124,-54,119,102,17,-110
,1252,2023-10-27 12:17:15.50,241,-140,-2048,58,-123,-51,230,163,67,-196
,1253,2023-10-27 12:17:15.51,232,-148,-2039,63,-122,-52,118,108,10,-113
,1254,2023-10-27 12:17:15.52,225,-147,-2029,72,-124,-50,232,171,61,-201
,1255,2023-10-27 12:17:15.53,227,-154,-2032,71,-119,-52,123,106,17,-114
,1256,2023-10-27 12:17:15.54,232,-156,-2049,74,-118,-46,236,172,64,-204
,1257,2023-10-27 12:17:15.55,210,-172,-2040,72,-109,-45,119,96,23,-107
,1258,2023-10-27 12:17:15.56,231,-173,-2038,82,-106,-39,232,168,64,-200
,1259,2023-10-27 12:17:15.57,214,-166,-2023,88,-105,-36,115,87,28,-101
,1260,2023-10-27 12:17:15.58,223,-177,-2016,96,-102,-31,233,169,64,-201
,1261,2023-10-27 12:17:15.59,207,-161,-2019,95,-84,-32,119,87,32,-103
,1262,2023-10-27 12:17:15.60,227,-163,-2026,86,-68,-26,241,173,68,-207
,1263,2023-10-27 12:17:15.61,211,-174,-2024,71,-47,-19,121,82,39,-101
,1264,2023-10-27 12:17:15.62,201,-180,-2030,64,-42,-14,241,168,73,-204
,1265,2023-10-27 12:17:15.63,218,-185,-2046,61,-36,-2,118,59,59,-88
,1266,2023-10-27 12:17:15.64,202,-181,-2037,53,-33,7,236,157,79,-196
,1267,2023-10-27 12:17:15.65,208,-179,-2041,46,-25,18,110,57,53,-83
,1268,2023-10-27 12:17:15.66,208,-172,-2041,32,-17,28,234,163,71,-198
,1269,2023-10-27 12:17:15.67,211,-161,-2041,21,-13,39,116,49,67,-82
,1270,2023-10-27 12:17:15.68,213,-169,-2041,14,-14,42,246,164,82,-205
,1271,2023-10-27 12:17:15.69,215,-166,-2044,5,-6,48,137,60,77,-98
,1272,2023-10-27 12:17:15.70,212,-163,-2048,1,-1,53,260,176,84,-218
,1273,2023-10-27 12:17:15.71,220,-163,-2041,3,-10,54,131,53,78,-92
,1274,2023-10-27 12:17:15.72,227,-167,-2051,3,-14,60,244,158,86,-201
,1275,2023-10-27 12:17:15.73,222,-158,-2045,3,-16,64,122,28,94,-75
,1276,2023-10-27 12:17:15.74,222,-169,-2035,8,-19,65,257,156,101,-206
,1277,2023-10-27 12:17:15.75,222,-157,-2022,13,-21,64,122,27,95,-74
,1278,2023-10-27 12:17:15.76,214,-165,-2032,11,-22,66,243,169,74,-206
,1279,2023-10-27 12:17:15.77,215,-168,-2037,21,-26,70,111,31,80,-71
,1280,2023-10-27 12:17:15.78,206,-175,-2034,28,-29,70,241,162,79,-201
,1281,2023-10-27 12:17:15.79,203,-165,-2051,27,-33,73,108,10,98,-59
,1282,2023-10-27 12:17:15.80,208,-168,-2032,22,-35,74,243,162,81,-202
,1283,2023-10-27 12:17:15.81,195,-173,-2037,23,-41,75,121,26,95,-73
,1284,2023-10-27 12:17:15.82,205,-182,-2047,26,-38,82,262,184,78,-223
,1285,2023-10-27 12:17:15.83,194,-173,-2054,24,-40,83,131,33,98,-82
,1286,2023-10-27 12:17:15.84,192,-167,-2063,17,-53,89,265,190,75,-227
,1287,2023-10-27 12:17:15.85,193,-173,-2067,17,-61,93,135,42,93,-88
,1288,2023-10-27 12:17:15.86,190,-165,-2070,13,-62,103,273,202,71,-237
,1289,2023-10-27 12:17:15.87,174,-163,-2080,4,-63,107,142,38,104,-90
,1290,2023-10-27 12:17:15.88,174,-168,-2074,2,-73,111,280,202,78,-241
,1291,2023-10-27 12:17:15.89,175,-171,-2081,4,-85,116,145,41,104,-93
,1292,2023-10-27 12:17:15.90,182,-171,-2072,7,-96,123,275,214,61,-244
,1293,2023-10-27 12:17:15.91,180,-179,-2074,18,-111,131,141,53,88,-97
,1294,2023-10-27 12:17:15.92,159,-180,-2073,28,-129,141,270,219,51,-244
,1295,2023-10-27 12:17:15.93,156,-197,-2069,47,-148,152,143,41,102,-92
,1296,2023-10-27 12:17:15.94,165,-174,-2062,73,-180,170,273,206,67,-239
,1297,2023-10-27 12:17:15.95,165,-188,-2071,90,-187,183,143,21,122,-82
,1298,2023-10-27 12:17:15.96,157,-234,-2062,108,-218,198,270,202,68,-236
,1299,2023-10-27 12:17:15.97,145,-212,-2065,131,-226,216,138,27,111,-82
,1300,2023-10-27 12:17:15.98,155,-217,-2070,160,-254,238,268,210,58,-239
,1301,2023-10-27 12:17:15.99,164,-230,-2057,180,-266,259,142,27,115,-84
,1302,2023-10-27 12:17:16.00,148,-211,-2058,195,-276,276,268,206,62,-237
,1303,2023-10-27 12:17:16.01,163,-215,-2052,206,-283,289,143,17,126,-80
,1304,2023-10-27 12:17:16.02,141,-225,-2043,214,-287,307,273,204,69,-238
,1305,2023-10-27 12:17:16.03,150,-220,-2036,219,-281,323,153,18,135,-85
,1306,2023-10-27 12:17:16.04,136,-216,-2024,216,-270,326,281,201,80,-241
,1307,2023-10-27 12:17:16.05,132,-219,-2026,213,-264,329,160,10,150,-85
,1308,2023-10-27 12:17:16.06,111,-227,-2024,211,-241,333,282,196,86,-239
,1309,2023-10-27 12:17:16.07,96,-238,-2025,210,-227,333,167,10,157,-88
,1310,2023-10-27 12:17:16.08,109,-234,-2018,211,-215,336,287,205,82,-246
,1311,2023-10-27 12:17:16.09,85,-244,-2002,207,-183,331,170,15,155,-92
,1312,2023-10-27 12:17:16.10,113,-267,-1982,203,-146,326,301,216,85,-258
,1313,2023-10-27 12:17:16.11,112,-265,-1965,197,-91,323,178,12,166,-95
,1314,2023-10-27 12:17:16.12,102,-283,-1952,197,-31,323,283,207,76,-245
,1315,2023-10-27 12:17:16.13,76,-299,-1947,192,50,319,166,7,159,-86
,1316,2023-10-27 12:17:16.14,95,-289,-1964,178,114,316,279,203,76,-241
,1317,2023-10-27 12:17:16.15,90,-292,-1954,154,174,312,179,3,176,-91
,1318,2023-10-27 12:17:16.16,81,-272,-1948,150,217,304,286,203,83,-244
,1319,2023-10-27 12:17:16.17,66,-260,-1975,160,242,291,195,23,172,-109
,1320,2023-10-27 12:17:16.18,71,-224,-2008,158,252,278,298,220,78,-259
,1321,2023-10-27 12:17:16.19,72,-235,-2011,152,254,259,193,13,180,-103
,1322,2023-10-27 12:17:16.20,82,-209,-2006,139,263,235,291,203,88,-247
,1323,2023-10-27 12:17:16.21,69,-196,-2034,120,270,211,204,7,197,-105
,1324,2023-10-27 12:17:16.22,91,-206,-2052,93,269,185,319,211,108,-265
,1325,2023-10-27 12:17:16.23,93,-210,-2045,51,249,124,240,17,223,-128
,1326,2023-10-27 12:17:16.24,99,-199,-2074,45,233,93,351,209,142,-280
,1327,2023-10-27 12:17:16.25,107,-216,-2073,43,207,62,269,5,264,-137
,1328,2023-10-27 12:17:16.26,127,-218,-2069,47,180,33,372,196,176,-284
,1329,2023-10-27 12:17:16.27,119,-217,-2060,49,159,1,290,-6,296,-142
,1330,2023-10-27 12:17:16.28,141,-226,-2062,48,154,-29,378,195,183,-286
,1331,2023-10-27 12:17:16.29,129,-219,-2062,54,142,-61,306,11,295,-158
,1332,2023-10-27 12:17:16.30,146,-231,-2069,57,128,-84,409,199,210,-304
,1333,2023-10-27 12:17:16.31,123,-236,-2068,61,107,-106,344,0,344,-172
,1334,2023-10-27 12:17:16.32,130,-253,-2054,60,92,-125,424,195,229,-309
,1335,2023-10-27 12:17:16.33,150,-249,-2051,65,64,-137,334,8,326,-171
,1336,2023-10-27 12:17:16.34,137,-265,-2049,74,43,-148,398,211,187,-304
,1337,2023-10-27 12:17:16.35,142,-269,-2048,80,27,-152,319,22,297,-170
,1338,2023-10-27 12:17:16.36,144,-275,-2049,78,18,-158,373,217,156,-295
,1339,2023-10-27 12:17:16.37,138,-277,-2046,73,15,-163,288,22,266,-155
,1340,2023-10-27 12:17:16.38,150,-281,-2041,70,3,-165,337,210,127,-273
,1341,2023-10-27 12:17:16.39,140,-285,-2047,67,-8,-162,269,18,251,-143
,1342,2023-10-27 12:17:16.40,137,-288,-2041,63,-13,-163,315,209,106,-262
,1343,2023-10-27 12:17:16.41,142,-301,-2040,56,-18,-161,249,21,228,-135
,1344,2023-10-27 12:17:16.42,140,-310,-2035,48,-16,-156,289,198,91,-243
,1345,2023-10-27 12:17:16.43,139,-303,-2035,44,-21,-155,228,13,215,-120
,1346,2023-10-27 12:17:16.44,139,-309,-2037,35,-16,-148,276,184,92,-230
,1347,2023-10-27 12:17:16.45,146,-308,-2033,27,-15,-143,230,0,230,-115
,1348,2023-10-27 12:17:16.46,130,-315,-2020,23,-11,-132,261,172,89,-216
,1349,2023-10-27 12:17:16.47,141,-313,-2031,19,-6,-127,221,-5,226,-108
,1350,2023-10-27 12:17:16.48,147,-323,-2038,16,-5,-116,270,182,88,-226
,1351,2023-10-27 12:17:16.49,157,-313,-2035,11,-2,-106,231,15,216,-123
,1352,2023-10-27 12:17:16.50,151,-316,-2028,6,6,-99,259,192,67,-225
,1353,2023-10-27 12:17:16.51,158,-317,-2021,3,7,-86,226,24,202,-125
,1354,2023-10-27 12:17:16.52,152,-318,-2030,-2,8,-77,237,185,52,-211
,1355,2023-10-27 12:17:16.53,160,-308,-2026,-4,6,-66,199,13,186,-106
,1356,2023-10-27 12:17:16.54,167,-313,-2024,-11,9,-55,218,183,35,-200
,1357,2023-10-27 12:17:16.55,163,-308,-2028,-10,11,-46,204,28,176,-116
,1358,2023-10-27 12:17:16.56,168,-305,-2030,-16,15,-37,223,196,27,-209
,1359,2023-10-27 12:17:16.57,162,-303,-2034,-18,23,-31,206,34,172,-120
,1360,2023-10-27 12:17:16.58,166,-291,-2032,-19,26,-25,217,195,22,-206
,1361,2023-10-27 12:17:16.59,176,-295,-2031,-20,29,-17,200,38,162,-119
,1362,2023-10-27 12:17:16.60,177,-288,-2044,-19,27,-14,193,184,9,-188
,1363,2023-10-27 12:17:16.61,178,-288,-2037,-18,27,-7,193,36,157,-114
,1364,2023-10-27 12:17:16.62,174,-286,-2035,-18,21,-2,191,198,-7,-194
,1365,2023-10-27 12:17:16.63,174,-291,-2040,-16,20,3,189,51,138,-120
,1366,2023-10-27 12:17:16.64,166,-276,-2042,-16,13,3,184,200,-16,-192
,1367,2023-10-27 12:17:16.65,176,-278,-2044,-14,7,4,188,48,140,-118
,1368,2023-10-27 12:17:16.66,184,-276,-2039,-13,-4,7,180,184,-4,-182
,1369,2023-10-27 12:17:16.67,177,-278,-2041,-11,-10,6,187,42,145,-114
,1370,2023-10-27 12:17:16.68,179,-277,-2048,-12,-18,8,180,184,-4,-182
,1371,2023-10-27 12:17:16.69,174,-269,-2041,-9,-28,8,193,45,148,-119
,1372,2023-10-27 12:17:16.70,171,-280,-2062,-1,-33,8,179,175,4,-177
,1373,2023-10-27 12:17:16.71,154,-271,-2057,-2,-41,11,192,46,146,-119
,1374,2023-10-27 12:17:16.72,182,-272,-2040,-5,-52,10,171,180,-9,-175
,1375,2023-10-27 12:17:16.73,163,-280,-2028,-5,-51,7,196,57,139,-126
,1376,2023-10-27 12:17:16.74,164,-265,-2053,-7,-55,6,173,182,-9,-177
,1377,2023-10-27 12:17:16.75,167,-271,-2037,-13,-59,3,197,64,133,-130
,1378,2023-10-27 12:17:16.76,139,-269,-2037,-14,-61,0,171,185,-14,-178
,1379,2023-10-27 12:17:16.77,154,-269,-2037,-11,-70,-2,203,67,136,-135
,1380,2023-10-27 12:17:16.78,157,-282,-2028,-11,-71,-5,172,160,12,-166
,1381,2023-10-27 12:17:16.79,158,-270,-2037,-2,-81,-5,201,49,152,-125
,1382,2023-10-27 12:17:16.80,162,-269,-2049,-2,-84,-9,160,160,0,-160
,1383,2023-10-27 12:17:16.81,148,-273,-2031,-8,-84,-17,194,69,125,-131
,1384,2023-10-27 12:17:16.82,157,-270,-2032,-16,-80,-19,155,176,-21,-165
,1385,2023-10-27 12:17:16.83,153,-272,-2032,-10,-86,-23,199,78,121,-138
,1386,2023-10-27 12:17:16.84,133,-272,-2045,-7,-91,-26,169,169,0,-169
,1387,2023-10-27 12:17:16.85,144,-279,-2046,-5,-90,-23,211,78,133,-144
,1388,2023-10-27 12:17:16.86,130,-275,-2036,-8,-87,-26,158,156,2,-157
,1389,2023-10-27 12:17:16.87,140,-282,-2037,-13,-85,-27,197,71,126,-134
,1390,2023-10-27 12:17:16.88,126,-281,-2031,-19,-76,-30,147,147,0,-147
,1391,2023-10-27 12:17:16.89,127,-277,-2028,-16,-79,-28,196,72,124,-134
,1392,2023-10-27 12:17:16.90,120,-285,-2016,-17,-69,-28,140,137,3,-138
,1393,2023-10-27 12:17:16.91,145,-281,-2032,-14,-67,-28,192,73,119,-132
,1394,2023-10-27 12:17:16.92,118,-289,-2029,-17,-55,-29,146,143,3,-144
,1395,2023-10-27 12:17:16.93,118,-288,-2023,-22,-56,-26,200,79,121,-139
,1396,2023-10-27 12:17:16.94,136,-288,-2048,-17,-55,-30,144,134,10,-139
,1397,2023-10-27 12:17:16.95,132,-276,-2039,-14,-51,-26,212,80,132,-146
,1398,2023-10-27 12:17:16.96,142,-275,-2028,-14,-47,-31,151,138,13,-144
,1399,2023-10-27 12:17:16.97,136,-268,-2038,-9,-35,-34,217,93,124,-155
,1400,2023-10-27 12:17:16.98,128,-269,-2025,-14,-22,-40,146,153,-7,-149
,1401,2023-10-27 12:17:16.99,131,-278,-2015,-18,-13,-40,211,113,98,-162
,1402,2023-10-27 12:17:17.00,120,-266,-2023,-21,-2,-41,140,132,8,-136
,1403,2023-10-27 12:17:17.01,123,-292,-2017,-25,-5,-40,198,82,116,-140
,1404,2023-10-27 12:17:17.02,101,-286,-1999,-24,-1,-36,141,123,18,-132
,1405,2023-10-27 12:17:17.03,127,-275,-2034,-14,-11,-37,220,98,122,-159
,1406,2023-10-27 12:17:17.04,122,-269,-2048,-16,-16,-34,156,132,24,-144
,1407,2023-10-27 12:17:17.05,129,-270,-2042,-26,-12,-38,241,111,130,-176
,1408,2023-10-27 12:17:17.06,135,-267,-2050,-34,-12,-40,163,130,33,-146
,1409,2023-10-27 12:17:17.07,126,-268,-2032,-24,-11,-39,237,114,123,-175
,1410,2023-10-27 12:17:17.08,133,-263,-2064,-19,-20,-41,154,117,37,-135
,1411,2023-10-27 12:17:17.09,121,-263,-2054,-30,-16,-38,243,108,135,-175
,1412,2023-10-27 12:17:17.10,132,-267,-2037,-38,-14,-38,156,123,33,-139
,1413,2023-10-27 12:17:17.11,134,-265,-2042,-38,-19,-40,248,128,120,-188
,1414,2023-10-27 12:17:17.12,121,-276,-2037,-22,-29,-36,150,127,23,-138
,1415,2023-10-27 12:17:17.13,121,-257,-2050,-19,-32,-34,230,129,101,-179
,1416,2023-10-27 12:17:17.14,136,-266,-2024,-35,-27,-34,132,126,6,-129
,1417,2023-10-27 12:17:17.15,132,-255,-2015,-37,-23,-35,219,136,83,-177
,1418,2023-10-27 12:17:17.16,122,-260,-2037,-33,-22,-36,126,114,12,-120
,1419,2023-10-27 12:17:17.17,119,-274,-2025,-34,-20,-29,234,134,100,-184
,1420,2023-10-27 12:17:17.18,129,-252,-2044,-33,-19,-28,149,122,27,-135
,1421,2023-10-27 12:17:17.19,121,-249,-2029,-38,-20,-26,254,148,106,-201
,1422,2023-10-27 12:17:17.20,103,-267,-2018,-44,-15,-26,160,130,30,-145
,1423,2023-10-27 12:17:17.21,118,-273,-2039,-31,-31,-16,269,160,109,-214
,1424,2023-10-27 12:17:17.22,119,-247,-2045,-30,-35,-12,165,125,40,-145
,1425,2023-10-27 12:17:17.23,120,-252,-2034,-40,-34,-9,279,157,122,-218
,1426,2023-10-27 12:17:17.24,107,-253,-2008,-50,-24,-9,171,107,64,-139
,1427,2023-10-27 12:17:17.25,113,-261,-2045,-35,-33,-7,277,151,126,-214
,1428,2023-10-27 12:17:17.26,115,-259,-2060,-29,-37,0,156,97,59,-126
,1429,2023-10-27 12:17:17.27,125,-248,-2029,-44,-28,3,257,150,107,-203
,1430,2023-10-27 12:17:17.28,106,-259,-2022,-58,-14,3,141,103,38,-122
,1431,2023-10-27 12:17:17.29,129,-267,-2037,-47,-16,8,254,166,88,-210
,1432,2023-10-27 12:17:17.30,109,-255,-2026,-31,-25,12,143,111,32,-127
,1433,2023-10-27 12:17:17.31,109,-257,-2051,-31,-16,16,252,172,80,-212
,1434,2023-10-27 12:17:17.32,106,-260,-2028,-43,-9,18,142,102,40,-122
,1435,2023-10-27 12:17:17.33,108,-251,-2034,-41,0,21,273,179,94,-226
,1436,2023-10-27 12:17:17.34,104,-245,-2038,-41,5,20,155,105,50,-130
,1437,2023-10-27 12:17:17.35,108,-248,-2041,-39,5,21,273,180,93,-226
,1438,2023-10-27 12:17:17.36,110,-243,-2041,-37,10,22,151,87,64,-119
,1439,2023-10-27 12:17:17.37,112,-244,-2048,-37,17,26,274,165,109,-219
,1440,2023-10-27 12:17:17.38,117,-235,-2043,-34,16,24,154,79,75,-116
,1441,2023-10-27 12:17:17.39,121,-241,-2044,-32,15,25,274,164,110,-219
,1442,2023-10-27 12:17:17.40,120,-229,-2036,-35,21,24,152,69,83,-110
,1443,2023-10-27 12:17:17.41,122,-228,-2029,-30,24,22,281,163,118,-222
,1444,2023-10-27 12:17:17.42,131,-235,-2027,-27,22,20,152,60,92,-106
,1445,2023-10-27 12:17:17.43,124,-230,-2032,-26,27,18,277,161,116,-219
,1446,2023-10-27 12:17:17.44,130,-232,-2041,-22,24,16,148,50,98,-99
,1447,2023-10-27 12:17:17.45,129,-224,-2042,-14,21,14,283,163,120,-223
,1448,2023-10-27 12:17:17.46,129,-225,-2040,-10,17,9,154,60,94,-107
,1449,2023-10-27 12:17:17.47,139,-224,-2052,-11,11,6,284,177,107,-230
,1450,2023-10-27 12:17:17.48,133,-218,-2047,-5,5,3,149,54,95,-101
,1451,2023-10-27 12:17:17.49,141,-219,-2044,-2,1,-1,281,170,111,-225
,1452,2023-10-27 12:17:17.50,132,-226,-2049,0,-5,-6,145,43,102,-94
,1453,2023-10-27 12:17:17.51,123,-227,-2046,4,-20,-6,283,169,114,-226
,1454,2023-10-27 12:17:17.52,126,-224,-2041,5,-22,-10,154,33,121,-93
,1455,2023-10-27 12:17:17.53,132,-235,-2053,12,-19,-13,296,175,121,-235
,1456,2023-10-27 12:17:17.54,121,-229,-2041,11,-25,-15,160,59,101,-109
,1457,2023-10-27 12:17:17.55,137,-225,-2049,15,-33,-15,292,193,99,-242
,1458,2023-10-27 12:17:17.56,117,-234,-2043,11,-22,-16,155,42,113,-98
,1459,2023-10-27 12:17:17.57,127,-231,-2027,8,-31,-14,297,176,121,-236
,1460,2023-10-27 12:17:17.58,116,-238,-2038,10,-31,-16,164,28,136,-96
,1461,2023-10-27 12:17:17.59,104,-246,-2056,17,-37,-12,309,180,129,-244
,1462,2023-10-27 12:17:17.60,108,-249,-2054,22,-39,-9,171,37,134,-104
,1463,2023-10-27 12:17:17.61,118,-234,-2065,24,-46,-2,308,193,115,-250
,1464,2023-10-27 12:17:17.62,113,-237,-2044,16,-39,-5,162,46,116,-104
,1465,2023-10-27 12:17:17.63,110,-230,-2026,8,-31,-5,292,206,86,-249
,1466,2023-10-27 12:17:17.64,97,-237,-2035,9,-25,-4,156,50,106,-103
,1467,2023-10-27 12:17:17.65,104,-231,-2039,4,-22,0,302,212,90,-257
,1468,2023-10-27 12:17:17.66,108,-239,-2033,-4,-23,1,168,54,114,-111
,1469,2023-10-27 12:17:17.67,105,-239,-2029,-14,-21,5,310,212,98,-261
,1470,2023-10-27 12:17:17.68,100,-234,-2030,-19,-15,6,170,42,128,-106
,1471,2023-10-27 12:17:17.69,110,-229,-2037,-26,-15,11,304,205,99,-254
,1472,2023-10-27 12:17:17.70,96,-218,-2033,-37,-17,11,168,32,136,-100
,1473,2023-10-27 12:17:17.71,102,-223,-2045,-42,-16,12,307,198,109,-252
,1474,2023-10-27 12:17:17.72,110,-225,-2053,-47,-18,11,170,29,141,-99
,1475,2023-10-27 12:17:17.73,103,-224,-2050,-49,-21,10,308,205,103,-256
,1476,2023-10-27 12:17:17.74,103,-222,-2058,-52,-24,10,178,38,140,-108
,1477,2023-10-27 12:17:17.75,98,-235,-2054,-59,-31,9,320,201,119,-260
,1478,2023-10-27 12:17:17.76,101,-229,-2064,-61,-33,14,187,22,165,-104
,1479,2023-10-27 12:17:17.77,93,-219,-2027,-61,-40,15,335,197,138,-266
,1480,2023-10-27 12:17:17.78,100,-220,-2049,-55,-41,17,189,17,172,-103
,1481,2023-10-27 12:17:17.79,88,-234,-2042,-59,-47,17,329,193,136,-261
,1482,2023-10-27 12:17:17.80,99,-213,-2039,-55,-55,21,186,-2,188,-92
,1483,2023-10-27 12:17:17.81,95,-223,-2052,-60,-48,19,334,194,140,-264
,1484,2023-10-27 12:17:17.82,87,-209,-2058,-70,-47,24,192,14,178,-103
,1485,2023-10-27 12:17:17.83,87,-205,-2043,-74,-47,22,330,207,123,-268
,1486,2023-10-27 12:17:17.84,86,-207,-2024,-70,-44,21,193,15,178,-104
,1487,2023-10-27 12:17:17.85,73,-200,-2032,-70,-45,21,336,205,131,-270
,1488,2023-10-27 12:17:17.86,91,-205,-2040,-75,-46,15,199,16,183,-107
,1489,2023-10-27 12:17:17.87,95,-204,-2045,-79,-44,14,340,206,134,-273
,1490,2023-10-27 12:17:17.88,82,-203,-2033,-77,-48,12,198,11,187,-104
,1491,2023-10-27 12:17:17.89,95,-201,-2042,-72,-48,10,332,195,137,-263
,1492,2023-10-27 12:17:17.90,92,-201,-2040,-69,-45,5,197,1,196,-99
,1493,2023-10-27 12:17:17.91,87,-204,-2047,-68,-40,2,334,200,134,-267
,1494,2023-10-27 12:17:17.92,94,-194,-2047,-65,-41,-2,198,10,188,-104
,1495,2023-10-27 12:17:17.93,84,-194,-2044,-68,-36,-1,332,199,133,-265
,1496,2023-10-27 12:17:17.94,76,-197,-2040,-68,-33,-5,193,-4,197,-94
,1497,2023-10-27 12:17:17.95,74,-196,-2032,-62,-29,-7,330,193,137,-261
,1498,2023-10-27 12:17:17.96,80,-204,-2044,-62,-26,-7,201,-2,203,-99
,1499,2023-10-27 12:17:17.97,84,-182,-2031,-58,-38,-3,338,194,144,-266
,1500,2023-10-27 12:17:17.98,72,-201,-2048,-59,-26,-2,207,-3,210,-102
,1501,2023-10-27 12:17:17.99,81,-186,-2044,-65,-26,2,340,191,149,-265
,1502,2023-10-27 12:17:18.00,76,-190,-2044,-67,-25,2,208,-6,214,-101
,1503,2023-10-27 12:17:18.01,65,-189,-2041,-70,-25,6,340,186,154,-263
,1504,2023-10-27 12:17:18.02,55,-182,-2042,-72,-21,8,215,-15,230,-100
,1505,2023-10-27 12:17:18.03,72,-173,-2038,-75,-20,8,336,184,152,-260
,1506,2023-10-27 12:17:18.04,68,-169,-2041,-77,-16,9,211,-7,218,-102
,1507,2023-10-27 12:17:18.05,71,-171,-2038,-78,-18,8,338,187,151,-262
,1508,2023-10-27 12:17:18.06,90,-168,-2043,-80,-14,5,216,-9,225,-103
,1509,2023-10-27 12:17:18.07,78,-154,-2048,-84,-8,6,344,176,168,-260
,1510,2023-10-27 12:17:18.08,76,-158,-2052,-82,-5,4,230,-22,252,-104
,1511,2023-10-27 12:17:18.09,75,-168,-2041,-83,-4,1,359,170,189,-264
,1512,2023-10-27 12:17:18.10,75,-164,-2039,-81,-2,1,241,-13,254,-114
,1513,2023-10-27 12:17:18.11,75,-162,-2052,-77,-6,1,359,166,193,-262
,1514,2023-10-27 12:17:18.12,76,-152,-2057,-79,-10,4,236,-30,266,-103
,1515,2023-10-27 12:17:18.13,71,-165,-2044,-79,-12,5,348,149,199,-248
,1516,2023-10-27 12:17:18.14,76,-153,-2066,-75,-20,5,237,-36,273,-100
,1517,2023-10-27 12:17:18.15,72,-154,-2053,-70,-20,6,355,175,180,-265
,1518,2023-10-27 12:17:18.16,62,-147,-2049,-69,-24,6,231,-12,243,-109
,1519,2023-10-27 12:17:18.17,75,-145,-2058,-68,-28,7,342,173,169,-257
,1520,2023-10-27 12:17:18.18,72,-142,-2045,-70,-26,4,242,-12,254,-115
,1521,2023-10-27 12:17:18.19,78,-135,-2046,-74,-19,5,340,168,172,-254
,1522,2023-10-27 12:17:18.20,70,-146,-2051,-72,-18,2,239,-14,253,-112
,1523,2023-10-27 12:17:18.21,59,-150,-2051,-68,-18,6,336,168,168,-252
,1524,2023-10-27 12:17:18.22,60,-145,-2049,-65,-17,9,244,-3,247,-120
,1525,2023-10-27 12:17:18.23,67,-145,-2052,-64,-12,9,350,181,169,-265
,1526,2023-10-27 12:17:18.24,71,-136,-2044,-61,-16,11,257,1,256,-129
,1527,2023-10-27 12:17:18.25,56,-143,-2048,-64,-16,15,361,178,183,-269
,1528,2023-10-27 12:17:18.26,69,-130,-2053,-52,-21,19,258,1,257,-129
,1529,2023-10-27 12:17:18.27,76,-130,-2048,-48,-19,18,352,181,171,-266
,1530,2023-10-27 12:17:18.28,80,-133,-2042,-43,-18,18,256,2,254,-129
,1531,2023-10-27 12:17:18.29,70,-126,-2033,-39,-9,18,344,186,158,-265
,1532,2023-10-27 12:17:18.30,72,-124,-2035,-34,-4,17,254,16,238,-135
,1533,2023-10-27 12:17:18.31,53,-136,-1994,-25,2,17,342,198,144,-270
,1534,2023-10-27 12:17:18.32,70,-137,-2037,-7,2,18,259,31,228,-145
,1535,2023-10-27 12:17:18.33,53,-135,-2057,-5,1,24,331,192,139,-261
,1536,2023-10-27 12:17:18.34,58,-128,-2040,-22,10,27,250,17,233,-133
,1537,2023-10-27 12:17:18.35,67,-138,-2044,-23,8,29,326,169,157,-247
,1538,2023-10-27 12:17:18.36,56,-137,-2042,-10,6,31,250,6,244,-128
,1539,2023-10-27 12:17:18.37,64,-132,-2042,8,-7,34,330,172,158,-251
,1540,2023-10-27 12:17:18.38,58,-119,-2051,20,-12,33,260,18,242,-139
,1541,2023-10-27 12:17:18.39,45,-128,-2080,15,-5,34,332,161,171,-246
,1542,2023-10-27 12:17:18.40,47,-126,-2075,3,-8,32,257,4,253,-130
,1543,2023-10-27 12:17:18.41,54,-127,-2044,3,-11,32,324,137,187,-230
,1544,2023-10-27 12:17:18.42,65,-128,-2066,11,-12,32,263,-9,272,-127
,1545,2023-10-27 12:17:18.43,55,-140,-2051,16,-13,31,331,129,202,-230
,1546,2023-10-27 12:17:18.44,54,-119,-2054,19,-15,31,274,-3,277,-135
,1547,2023-10-27 12:17:18.45,67,-118,-2065,23,-15,29,340,136,204,-238
,1548,2023-10-27 12:17:18.46,58,-117,-2060,17,-13,25,276,4,272,-140
,1549,2023-10-27 12:17:18.47,62,-138,-2053,14,-9,28,337,118,219,-227
,1550,2023-10-27 12:17:18.48,49,-147,-2031,12,5,24,281,-6,287,-137
,1551,2023-10-27 12:17:18.49,58,-131,-2052,21,-5,25,334,128,206,-231
,1552,2023-10-27 12:17:18.50,54,-131,-2038,25,0,26,280,14,266,-147
,1553,2023-10-27 12:17:18.51,54,-132,-2014,36,2,28,317,118,199,-217
,1554,2023-10-27 12:17:18.52,59,-127,-2040,48,-2,29,271,4,267,-137
,1555,2023-10-27 12:17:18.53,52,-136,-2060,44,4,29,321,98,223,-209
,1556,2023-10-27 12:17:18.54,54,-136,-2061,28,7,31,275,0,275,-137
,1557,2023-10-27 12:17:18.55,58,-145,-2034,29,9,35,317,93,224,-205
,1558,2023-10-27 12:17:18.56,73,-146,-2028,45,3,38,276,5,271,-140
,1559,2023-10-27 12:17:18.57,73,-144,-2029,63,-5,40,305,87,218,-196
,1560,2023-10-27 12:17:18.58,64,-144,-2070,71,1,42,259,3,256,-131
,1561,2023-10-27 12:17:18.59,55,-127,-2069,62,15,41,302,98,204,-200
,1562,2023-10-27 12:17:18.60,63,-151,-2076,59,5,43,267,24,243,-145
,1563,2023-10-27 12:17:18.61,59,-146,-2048,61,2,49,308,111,197,-209
,1564,2023-10-27 12:17:18.62,59,-132,-2059,64,-4,51,277,34,243,-155
,1565,2023-10-27 12:17:18.63,52,-136,-2067,55,1,51,308,108,200,-208
,1566,2023-10-27 12:17:18.64,65,-151,-2051,50,-2,52,284,35,249,-159
,1567,2023-10-27 12:17:18.65,50,-135,-2045,53,-1,52,303,88,215,-195
,1568,2023-10-27 12:17:18.66,57,-152,-2056,59,-15,58,290,35,255,-162
,1569,2023-10-27 12:17:18.67,64,-128,-2060,54,-13,58,319,104,215,-211
,1570,2023-10-27 12:17:18.68,48,-130,-2054,39,1,53,303,50,253,-176
,1571,2023-10-27 12:17:18.69,65,-141,-2055,22,-3,53,326,113,213,-219
,1572,2023-10-27 12:17:18.70,55,-133,-2062,12,1,53,321,59,262,-190
,1573,2023-10-27 12:17:18.71,60,-140,-2056,11,-2,50,389,107,282,-248
,1574,2023-10-27 12:17:18.72,52,-137,-2048,6,2,50,404,52,352,-228
,1575,2023-10-27 12:17:18.73,61,-139,-2061,1,2,47,470,84,386,-277
,1576,2023-10-27 12:17:18.74,56,-136,-2050,-5,3,43,487,41,446,-264
,1577,2023-10-27 12:17:18.75,60,-132,-2055,-3,3,42,546,63,483,-304
,1578,2023-10-27 12:17:18.76,67,-135,-2062,-7,0,39,563,37,526,-300
,1579,2023-10-27 12:17:18.77,59,-124,-2063,-4,1,39,672,54,618,-363
,1580,2023-10-27 12:17:18.78,70,-138,-2058,-4,-5,36,724,38,686,-381
,1581,2023-10-27 12:17:18.79,63,-135,-2055,0,-7,30,860,56,804,-458
,1582,2023-10-27 12:17:18.80,62,-137,-2058,1,-9,26,881,50,831,-465
,1583,2023-10-27 12:17:18.81,72,-131,-2053,4,-12,26,982,59,923,-520
,1584,2023-10-27 12:17:18.82,61,-133,-2049,6,-12,25,953,56,897,-504
,1585,2023-10-27 12:17:18.83,68,-135,-2049,9,-19,24,1001,56,945,-528
,1586,2023-10-27 12:17:18.84,58,-136,-2055,10,-16,20,951,60,891,-505
,1587,2023-10-27 12:17:18.85,56,-137,-2052,10,-16,22,1018,61,957,-539
,1588,2023-10-27 12:17:18.86,60,-144,-2049,11,-19,24,984,72,912,-528
,1589,2023-10-27 12:17:18.87,54,-140,-2049,13,-19,25,1061,65,996,-563
,1590,2023-10-27 12:17:18.88,53,-145,-2047,17,-17,21,1017,82,935,-549
,1591,2023-10-27 12:17:18.89,63,-139,-2043,16,-11,23,1093,72,1021,-582
,1592,2023-10-27 12:17:18.90,53,-148,-2046,20,-7,24,1029,92,937,-560
,1593,2023-10-27 12:17:18.91,71,-134,-2044,24,-12,27,1024,68,956,-546
,1594,2023-10-27 12:17:18.92,49,-151,-2047,22,0,24,967,89,878,-528
,1595,2023-10-27 12:17:18.93,62,-149,-2036,21,6,27,953,50,903,-501
,1596,2023-10-27 12:17:18.94,51,-141,-2043,22,10,31,938,84,854,-511
,1597,2023-10-27 12:17:18.95,61,-151,-2033,23,9,33,948,56,892,-502
,1598,2023-10-27 12:17:18.96,50,-149,-2037,23,14,32,952,101,851,-526
,1599,2023-10-27 12:17:18.97,62,-160,-2058,22,12,37,997,64,933,-530
,1600,2023-10-27 12:17:18.98,69,-154,-2058,24,7,40,987,97,890,-542
,1601,2023-10-27 12:17:18.99,70,-144,-2057,31,5,38,943,49,894,-496
,1602,2023-10-27 12:17:19.00,56,-149,-2064,31,3,36,928,96,832,-512
,1603,2023-10-27 12:17:19.01,58,-139,-2052,27,6,33,857,32,825,-444
,1604,2023-10-27 12:17:19.02,53,-139,-2056,27,12,31,879,86,793,-482
,1605,2023-10-27 12:17:19.03,59,-146,-2056,23,13,27,841,27,814,-434
,1606,2023-10-27 12:17:19.04,54,-149,-2052,21,10,27,892,97,795,-494
,1607,2023-10-27 12:17:19.05,65,-143,-2047,23,5,25,892,28,864,-460
,1608,2023-10-27 12:17:19.06,48,-154,-2045,21,3,24,933,87,846,-510
,1609,2023-10-27 12:17:19.07,55,-146,-2037,18,4,20,919,30,889,-474
,1610,2023-10-27 12:17:19.08,50,-145,-2040,15,6,20,966,112,854,-539
,1611,2023-10-27 12:17:19.09,63,-153,-2047,11,7,16,974,43,931,-508
,1612,2023-10-27 12:17:19.10,66,-149,-2048,8,4,12,1004,123,881,-563
,1613,2023-10-27 12:17:19.11,52,-151,-2053,7,1,13,926,39,887,-482
,1614,2023-10-27 12:17:19.12,60,-152,-2048,5,0,12,953,125,828,-539
,1615,2023-10-27 12:17:19.13,55,-150,-2053,5,-5,12,869,30,839,-449
,1616,2023-10-27 12:17:19.14,57,-157,-2060,6,-10,15,946,123,823,-534
,1617,2023-10-27 12:17:19.15,60,-154,-2058,3,-12,15,945,27,918,-486
,1618,2023-10-27 12:17:19.16,54,-147,-2046,1,-13,15,1024,126,898,-575
,1619,2023-10-27 12:17:19.17,45,-150,-2060,1,-16,15,988,29,959,-508
,1620,2023-10-27 12:17:19.18,42,-153,-2056,2,-15,18,1040,134,906,-587
,1621,2023-10-27 12:17:19.19,44,-153,-2057,1,-18,16,1010,26,984,-518
,1622,2023-10-27 12:17:19.20,44,-150,-2050,1,-17,19,1067,135,932,-601
,1623,2023-10-27 12:17:19.21,51,-155,-2053,-1,-14,18,1013,24,989,-518
,1624,2023-10-27 12:17:19.22,43,-156,-2057,-1,-14,21,1042,133,909,-587
,1625,2023-10-27 12:17:19.23,46,-140,-2048,-3,-18,20,894,1,893,-447
,1626,2023-10-27 12:17:19.24,51,-142,-2040,-4,-20,20,966,119,847,-542
,1627,2023-10-27 12:17:19.25,41,-146,-2047,-10,-13,20,886,-7,893,-439
,1628,2023-10-27 12:17:19.26,38,-145,-2051,-15,-20,19,1002,124,878,-563
,1629,2023-10-27 12:17:19.27,37,-152,-2044,-11,-20,18,938,-2,940,-468
,1630,2023-10-27 12:17:19.28,49,-142,-2043,-6,-19,16,1032,131,901,-581
,1631,2023-10-27 12:17:19.29,60,-138,-2041,-4,-17,17,926,-6,932,-460
,1632,2023-10-27 12:17:19.30,43,-151,-2055,-1,-13,14,990,136,854,-563
,1633,2023-10-27 12:17:19.31,40,-158,-2048,6,-17,13,803,-3,806,-400
,1634,2023-10-27 12:17:19.32,44,-151,-2049,15,-19,14,894,143,751,-518
,1635,2023-10-27 12:17:19.33,25,-158,-2055,20,-14,16,693,10,683,-351
,1636,2023-10-27 12:17:19.34,32,-155,-2046,25,-17,18,800,161,639,-480
,1637,2023-10-27 12:17:19.35,41,-160,-2043,30,-15,21,596,21,575,-308
,1638,2023-10-27 12:17:19.36,40,-158,-2037,30,-12,25,713,168,545,-440
,1639,2023-10-27 12:17:19.37,23,-157,-2038,26,-8,27,504,21,483,-262
,1640,2023-10-27 12:17:19.38,32,-168,-2033,28,-6,27,632,184,448,-408
,1641,2023-10-27 12:17:19.39,50,-159,-2046,29,-3,33,418,24,394,-221
,1642,2023-10-27 12:17:19.40,32,-158,-2040,29,2,34,558,179,379,-368
,1643,2023-10-27 12:17:19.41,20,-156,-2040,28,-7,36,366,27,339,-196
,1644,2023-10-27 12:17:19.42,44,-154,-2039,27,4,35,510,180,330,-345
,1645,2023-10-27 12:17:19.43,38,-156,-2049,27,5,37,315,7,308,-161
,1646,2023-10-27 12:17:19.44,40,-158,-2036,27,6,35,472,149,323,-310
,1647,2023-10-27 12:17:19.45,48,-159,-2045,26,10,35,288,-30,318,-129
,1648,2023-10-27 12:17:19.46,51,-154,-2046,18,15,30,462,125,337,-293
,1649,2023-10-27 12:17:19.47,50,-158,-2050,16,16,29,274,-49,323,-112
,1650,2023-10-27 12:17:19.48,42,-150,-2053,15,16,28,449,123,326,-286
,1651,2023-10-27 12:17:19.49,37,-155,-2045,14,15,21,255,-44,299,-105
,1652,2023-10-27 12:17:19.50,43,-154,-2052,10,14,19,433,138,295,-285
,1653,2023-10-27 12:17:19.51,44,-153,-2054,7,10,14,245,-30,275,-107
,1654,2023-10-27 12:17:19.52,47,-155,-2056,9,3,9,432,155,277,-293
,1655,2023-10-27 12:17:19.53,46,-152,-2058,10,0,7,247,-18,265,-114
,1656,2023-10-27 12:17:19.54,57,-156,-2051,8,-3,5,436,158,278,-297
,1657,2023-10-27 12:17:19.55,48,-157,-2048,9,-6,4,247,-31,278,-108
,1658,2023-10-27 12:17:19.56,22,-166,-2053,10,-13,4,439,142,297,-290
,1659,2023-10-27 12:17:19.57,28,-166,-2047,13,-16,4,253,-46,299,-103
,1660,2023-10-27 12:17:19.58,52,-156,-2060,14,-18,9,439,139,300,-289
,1661,2023-10-27 12:17:19.59,27,-166,-2050,6,-16,11,241,-43,284,-99
,1662,2023-10-27 12:17:19.60,27,-169,-2052,-2,-18,17,426,148,278,-287
,1663,2023-10-27 12:17:19.61,28,-164,-2047,-1,-18,19,234,-38,272,-98
,1664,2023-10-27 12:17:19.62,32,-154,-2052,-4,-14,21,434,149,285,-291
,1665,2023-10-27 12:17:19.63,41,-146,-2045,-6,-14,20,248,-42,290,-103
,1666,2023-10-27 12:17:19.64,30,-156,-2053,-16,-5,18,443,143,300,-293
,1667,2023-10-27 12:17:19.65,27,-153,-2048,-18,-5,19,241,-55,296,-93
,1668,2023-10-27 12:17:19.66,30,-146,-2037,-16,-2,18,435,134,301,-284
,1669,2023-10-27 12:17:19.67,45,-143,-2048,-23,7,17,243,-55,298,-94
,1670,2023-10-27 12:17:19.68,26,-141,-2039,-26,8,15,438,143,295,-290
,1671,2023-10-27 12:17:19.69,34,-139,-2039,-30,11,14,247,-43,290,-102
,1672,2023-10-27 12:17:19.70,43,-149,-2061,-29,8,11,439,150,289,-294
,1673,2023-10-27 12:17:19.71,39,-148,-2053,-25,4,9,245,-45,290,-100
,1674,2023-10-27 12:17:19.72,37,-136,-2060,-17,7,4,441,152,289,-296
,1675,2023-10-27 12:17:19.73,47,-139,-2051,-15,11,2,248,-41,289,-103
,1676,2023-10-27 12:17:19.74,48,-131,-2054,-13,15,-4,443,143,300,-293
,1677,2023-10-27 12:17:19.75,48,-141,-2048,-9,18,-5,253,-56,309,-98
,1678,2023-10-27 12:17:19.76,42,-152,-2046,-3,16,-4,447,132,315,-289
,1679,2023-10-27 12:17:19.77,45,-148,-2038,1,15,-1,261,-61,322,-100
,1680,2023-10-27 12:17:19.78,34,-157,-2040,3,8,2,453,135,318,-294
,1681,2023-10-27 12:17:19.79,48,-150,-2042,4,6,3,266,-53,319,-106
,1682,2023-10-27 12:17:19.80,49,-152,-2046,10,8,3,462,135,327,-298
,1683,2023-10-27 12:17:19.81,40,-146,-2049,10,4,7,282,-60,342,-111
,1684,2023-10-27 12:17:19.82,41,-153,-2053,9,2,5,472,136,336,-304
,1685,2023-10-27 12:17:19.83,40,-147,-2058,6,4,7,275,-55,330,-110
,1686,2023-10-27 12:17:19.84,45,-148,-2054,7,1,9,464,144,320,-304
,1687,2023-10-27 12:17:19.85,40,-155,-2044,8,1,13,274,-52,326,-111
,1688,2023-10-27 12:17:19.86,36,-152,-2054,7,0,13,472,141,331,-306
,1689,2023-10-27 12:17:19.87,44,-154,-2049,7,-1,18,292,-51,343,-120
,1690,2023-10-27 12:17:19.88,48,-151,-2045,4,2,18,477,142,335,-309
,1691,2023-10-27 12:17:19.89,40,-151,-2054,0,4,20,292,-46,338,-123
,1692,2023-10-27 12:17:19.90,45,-150,-2053,-3,8,20,472,136,336,-304
,1693,2023-10-27 12:17:19.91,47,-148,-2053,-5,7,25,301,-54,355,-123
,1694,2023-10-27 12:17:19.92,50,-154,-2047,-7,9,28,476,139,337,-307
,1695,2023-10-27 12:17:19.93,39,-149,-2041,-9,7,28,298,-43,341,-127
,1696,2023-10-27 12:17:19.94,43,-141,-2041,-11,10,29,478,144,334,-311
,1697,2023-10-27 12:17:19.95,42,-143,-2048,-9,4,31,314,-41,355,-136
,1698,2023-10-27 12:17:19.96,54,-143,-2034,-3,4,31,489,136,353,-312
,1699,2023-10-27 12:17:19.97,53,-153,-2058,-7,5,34,322,-46,368,-138
,1700,2023-10-27 12:17:19.98,55,-150,-2055,-4,-8,34,484,133,351,-308
,1701,2023-10-27 12:17:19.99,46,-151,-2043,4,-11,35,316,-41,357,-137
,1702,2023-10-27 12:17:20.00,48,-152,-2043,9,-10,36,470,132,338,-301
,1703,2023-10-27 12:17:20.01,57,-159,-2051,11,-9,37,307,-44,351,-131
,1704,2023-10-27 12:17:20.02,17,-163,-2051,20,-10,39,458,120,338,-289
,1705,2023-10-27 12:17:20.03,54,-159,-2050,21,-9,42,308,-52,360,-128
,1706,2023-10-27 12:17:20.04,29,-171,-2039,28,-10,46,459,111,348,-285
,1707,2023-10-27 12:17:20.05,56,-149,-2068,31,-11,49,308,-51,359,-128
,1708,2023-10-27 12:17:20.06,21,-166,-2068,28,-10,49,454,109,345,-281
,1709,2023-10-27 12:17:20.07,34,-151,-2048,27,-18,48,304,-49,353,-127
,1710,2023-10-27 12:17:20.08,42,-149,-2041,24,-13,49,442,116,326,-279
,1711,2023-10-27 12:17:20.09,49,-145,-2042,14,-7,49,299,-39,338,-130
,1712,2023-10-27 12:17:20.10,54,-143,-2043,7,1,48,453,118,335,-285
,1713,2023-10-27 12:17:20.11,35,-146,-2050,0,2,45,321,-35,356,-143
,1714,2023-10-27 12:17:20.12,59,-142,-2049,-4,3,43,456,118,338,-287
,1715,2023-10-27 12:17:20.13,63,-142,-2047,-7,2,40,318,-30,348,-144
,1716,2023-10-27 12:17:20.14,46,-146,-2042,-9,0,36,441,101,340,-271
,1717,2023-10-27 12:17:20.15,56,-144,-2046,-8,0,36,310,-50,360,-130
,1718,2023-10-27 12:17:20.16,50,-154,-2054,-9,-3,35,435,94,341,-264
,1719,2023-10-27 12:17:20.17,55,-157,-2049,-7,-4,38,308,-38,346,-135
,1720,2023-10-27 12:17:20.18,59,-160,-2049,-5,-6,42,428,97,331,-262
,1721,2023-10-27 12:17:20.19,37,-169,-2046,0,-5,43,307,-34,341,-136
,1722,2023-10-27 12:17:20.20,57,-151,-2052,5,-8,44,424,105,319,-264
,1723,2023-10-27 12:17:20.21,61,-154,-2045,5,-14,50,310,-25,335,-142
,1724,2023-10-27 12:17:20.22,48,-149,-2046,3,-10,50,427,104,323,-265
