// Data mode  : Full
// Data quality  : High
// Acceleration sensor's range  : 16g
// Gyroscope sensor's range  : 2000dps
//
//ARTIFACT,NUM,DATE,ACC_X,ACC_Y,ACC_Z,GYRO_X,GYRO_Y,GYRO_Z,EOG_L,EOG_R,EOG_H,EOG_V
,1,2023-10-20 13:45:07.41,271,-296,-2015,5,-11,15,-403,-628,225,515
,2,2023-10-20 13:45:07.42,270,-306,-2017,3,-6,20,-270,-637,367,453
,3,2023-10-20 13:45:07.43,262,-310,-2026,8,-3,28,-406,-699,293,552
,4,2023-10-20 13:45:07.44,260,-300,-2026,20,-10,25,-266,-694,428,480
,5,2023-10-20 13:45:07.45,275,-292,-2019,30,-7,24,-411,-710,299,560
,6,2023-10-20 13:45:07.46,272,-289,-2021,29,-3,19,-260,-681,421,470
,7,2023-10-20 13:45:07.47,279,-291,-2016,28,-5,11,-423,-691,268,557
,8,2023-10-20 13:45:07.48,274,-316,-2030,20,-2,13,-259,-699,440,479
,9,2023-10-20 13:45:07.49,266,-314,-2038,15,-4,21,-423,-720,297,571
,10,2023-10-20 13:45:07.50,262,-309,-2029,19,-4,19,-256,-669,413,462
,11,2023-10-20 13:45:07.51,271,-294,-2019,23,-3,23,-421,-655,234,538
,12,2023-10-20 13:45:07.52,259,-298,-2012,24,-4,26,-248,-672,424,460
,13,2023-10-20 13:45:07.53,263,-301,-2013,26,-3,22,-422,-692,270,557
,14,2023-10-20 13:45:07.54,267,-299,-2015,32,-2,20,-247,-690,443,468
,15,2023-10-20 13:45:07.55,269,-299,-2012,34,-1,21,-431,-683,252,557
,16,2023-10-20 13:45:07.56,265,-306,-2014,39,-1,24,-248,-694,446,471
,17,2023-10-20 13:45:07.57,272,-315,-2016,42,-1,28,-436,-692,256,564
,18,2023-10-20 13:45:07.58,271,-310,-2021,46,3,32,-246,-700,454,473
,19,2023-10-20 13:45:07.59,274,-299,-2015,51,7,39,-438,-687,249,562
,20,2023-10-20 13:45:07.60,265,-309,-2010,56,7,42,-238,-741,503,489
,21,2023-10-20 13:45:07.61,272,-314,-2006,64,11,48,-439,-730,291,584
,22,2023-10-20 13:45:07.62,270,-327,-2020,74,12,55,-238,-703,465,470
,23,2023-10-20 13:45:07.63,281,-331,-2020,79,12,61,-445,-660,215,552
,24,2023-10-20 13:45:07.64,276,-324,-2019,86,16,61,-241,-665,424,453
,25,2023-10-20 13:45:07.65,278,-327,-2017,90,16,59,-450,-648,198,549
,26,2023-10-20 13:45:07.66,283,-333,-2013,88,22,64,-244,-658,414,451
,27,2023-10-20 13:45:07.67,274,-342,-2023,88,21,72,-461,-635,174,548
,28,2023-10-20 13:45:07.68,278,-342,-2024,84,17,78,-241,-666,425,453
,29,2023-10-20 13:45:07.69,272,-333,-2026,81,20,79,-454,-649,195,551
,30,2023-10-20 13:45:07.70,275,-337,-2021,78,18,78,-232,-728,496,480
,31,2023-10-20 13:45:07.71,275,-325,-2014,73,23,77,-455,-702,247,578
,32,2023-10-20 13:45:07.72,274,-324,-2014,75,22,80,-234,-713,479,473
,33,2023-10-20 13:45:07.73,277,-331,-2019,80,15,71,-464,-655,191,559
,34,2023-10-20 13:45:07.74,283,-340,-2015,76,15,68,-238,-689,451,463
,35,2023-10-20 13:45:07.75,279,-350,-2017,76,16,67,-463,-653,190,558
,36,2023-10-20 13:45:07.76,269,-341,-2020,83,18,68,-235,-711,476,473
,37,2023-10-20 13:45:07.77,266,-347,-2020,99,14,61,-466,-668,202,567
,38,2023-10-20 13:45:07.78,263,-334,-2007,108,13,48,-237,-707,470,472
,39,2023-10-20 13:45:07.79,270,-344,-2009,103,12,44,-464,-642,178,553
,40,2023-10-20 13:45:07.80,254,-340,-2000,103,9,29,-234,-672,438,453
,41,2023-10-20 13:45:07.81,266,-347,-1993,99,13,23,-465,-623,158,544
,42,2023-10-20 13:45:07.82,266,-363,-1996,94,22,17,-236,-693,457,464
,43,2023-10-20 13:45:07.83,265,-379,-2000,82,28,17,-467,-638,171,552
,44,2023-10-20 13:45:07.84,270,-382,-2019,69,36,28,-228,-677,449,452
,45,2023-10-20 13:45:07.85,278,-362,-2021,56,38,31,-473,-625,152,549
,46,2023-10-20 13:45:07.86,270,-348,-2016,49,39,26,-233,-660,427,446
,47,2023-10-20 13:45:07.87,267,-349,-2015,36,50,17,-469,-596,127,532
,48,2023-10-20 13:45:07.88,277,-346,-2016,28,48,11,-236,-660,424,448
,49,2023-10-20 13:45:07.89,275,-350,-2005,27,46,7,-464,-607,143,535
,50,2023-10-20 13:45:07.90,275,-363,-2010,25,40,6,-229,-683,454,456
,51,2023-10-20 13:45:07.91,279,-366,-2013,22,40,9,-466,-620,154,543
,52,2023-10-20 13:45:07.92,285,-366,-2020,20,38,11,-232,-667,435,449
,53,2023-10-20 13:45:07.93,290,-364,-2023,19,39,12,-466,-596,130,531
,54,2023-10-20 13:45:07.94,287,-357,-2021,21,34,8,-228,-693,465,460
,55,2023-10-20 13:45:07.95,289,-347,-2014,23,30,3,-463,-626,163,544
,56,2023-10-20 13:45:07.96,273,-347,-2019,22,24,-2,-233,-665,432,449
,57,2023-10-20 13:45:07.97,296,-352,-2016,22,18,-5,-466,-592,126,529
,58,2023-10-20 13:45:07.98,291,-351,-2014,19,17,-6,-233,-730,497,481
,59,2023-10-20 13:45:07.99,287,-354,-2027,13,19,1,-462,-677,215,569
,60,2023-10-20 13:45:08.00,283,-355,-2017,17,17,-1,-225,-779,554,502
,61,2023-10-20 13:45:08.01,285,-358,-2013,15,10,-6,-456,-678,222,567
,62,2023-10-20 13:45:08.02,285,-359,-2007,13,9,-6,-234,-744,510,489
,63,2023-10-20 13:45:08.03,288,-365,-2018,6,8,-6,-461,-643,182,552
,64,2023-10-20 13:45:08.04,280,-364,-2017,1,7,-2,-234,-733,499,483
,65,2023-10-20 13:45:08.05,283,-359,-2019,4,9,4,-458,-633,175,545
,66,2023-10-20 13:45:08.06,299,-355,-2013,8,10,12,-236,-706,470,471
,67,2023-10-20 13:45:08.07,296,-368,-2007,5,19,24,-454,-610,156,532
,68,2023-10-20 13:45:08.08,300,-374,-2016,4,31,42,-238,-675,437,456
,69,2023-10-20 13:45:08.09,290,-370,-2009,15,33,54,-451,-572,121,511
,70,2023-10-20 13:45:08.10,290,-355,-2010,29,28,55,-244,-623,379,433
,71,2023-10-20 13:45:08.11,292,-337,-2003,37,26,53,-450,-546,96,498
,72,2023-10-20 13:45:08.12,294,-347,-2010,40,26,54,-239,-668,429,453
,73,2023-10-20 13:45:08.13,283,-365,-2011,37,29,61,-440,-588,148,514
,74,2023-10-20 13:45:08.14,292,-355,-2016,38,23,71,-244,-670,426,457
,75,2023-10-20 13:45:08.15,293,-356,-2024,38,19,76,-441,-588,147,514
,76,2023-10-20 13:45:08.16,289,-350,-2022,35,9,77,-247,-703,456,475
,77,2023-10-20 13:45:08.17,285,-350,-2019,32,7,76,-434,-623,189,528
,78,2023-10-20 13:45:08.18,295,-343,-2013,31,7,70,-248,-740,492,494
,79,2023-10-20 13:45:08.19,286,-338,-2015,31,5,60,-436,-636,200,536
,80,2023-10-20 13:45:08.20,293,-344,-2014,33,4,49,-245,-732,487,488
,81,2023-10-20 13:45:08.21,294,-349,-2004,30,0,43,-424,-631,207,527
,82,2023-10-20 13:45:08.22,279,-352,-2006,34,-2,35,-250,-727,477,488
,83,2023-10-20 13:45:08.23,293,-360,-2013,33,-8,33,-423,-612,189,517
,84,2023-10-20 13:45:08.24,282,-362,-2016,32,-11,35,-260,-677,417,468
,85,2023-10-20 13:45:08.25,287,-370,-2005,29,-11,39,-423,-595,172,509
,86,2023-10-20 13:45:08.26,281,-367,-2009,31,-6,38,-266,-746,480,506
,87,2023-10-20 13:45:08.27,277,-377,-2010,34,-5,46,-415,-632,217,523
,88,2023-10-20 13:45:08.28,271,-376,-2015,35,-1,50,-263,-684,421,473
,89,2023-10-20 13:45:08.29,286,-384,-2007,30,1,59,-410,-580,170,495
,90,2023-10-20 13:45:08.30,289,-385,-2014,23,9,66,-263,-718,455,490
,91,2023-10-20 13:45:08.31,280,-380,-2021,26,9,69,-405,-620,215,512
,92,2023-10-20 13:45:08.32,277,-376,-2018,27,2,73,-267,-667,400,467
,93,2023-10-20 13:45:08.33,288,-371,-2017,24,2,70,-399,-544,145,471
,94,2023-10-20 13:45:08.34,289,-367,-2009,26,-4,64,-274,-634,360,454
,95,2023-10-20 13:45:08.35,294,-373,-2007,24,-1,64,-397,-547,150,472
,96,2023-10-20 13:45:08.36,273,-367,-2020,24,0,66,-278,-622,344,450
,97,2023-10-20 13:45:08.37,278,-361,-2026,32,-2,61,-389,-538,149,463
,98,2023-10-20 13:45:08.38,273,-339,-2031,40,-16,47,-278,-682,404,480
,99,2023-10-20 13:45:08.39,270,-341,-2016,38,-31,32,-384,-593,209,488
,100,2023-10-20 13:45:08.40,273,-360,-2005,32,-38,11,-283,-645,362,464
,101,2023-10-20 13:45:08.41,270,-371,-2003,28,-32,0,-379,-547,168,463
,102,2023-10-20 13:45:08.42,266,-392,-1994,25,-19,9,-296,-679,383,487
,103,2023-10-20 13:45:08.43,249,-386,-2001,22,-8,19,-382,-645,263,513
,104,2023-10-20 13:45:08.44,251,-383,-2007,17,-9,20,-296,-787,491,541
,105,2023-10-20 13:45:08.45,258,-379,-2005,6,-6,27,-368,-693,325,530
,106,2023-10-20 13:45:08.46,264,-393,-2013,-1,-2,40,-297,-770,473,533
,107,2023-10-20 13:45:08.47,264,-389,-2014,-4,-3,47,-366,-644,278,505
,108,2023-10-20 13:45:08.48,266,-379,-2023,-5,5,57,-300,-717,417,508
,109,2023-10-20 13:45:08.49,271,-368,-2025,-2,8,54,-356,-614,258,485
,110,2023-10-20 13:45:08.50,262,-356,-2022,0,6,54,-305,-690,385,497
,111,2023-10-20 13:45:08.51,264,-346,-2031,-6,1,47,-354,-622,268,488
,112,2023-10-20 13:45:08.52,267,-355,-2020,-11,-8,39,-310,-734,424,522
,113,2023-10-20 13:45:08.53,254,-353,-2017,-12,-14,30,-345,-642,297,493
,114,2023-10-20 13:45:08.54,255,-345,-2012,-13,-17,26,-316,-717,401,516
,115,2023-10-20 13:45:08.55,267,-343,-2008,-10,-15,21,-344,-619,275,481
,116,2023-10-20 13:45:08.56,270,-350,-2000,-10,-17,12,-318,-691,373,504
,117,2023-10-20 13:45:08.57,269,-343,-1995,-9,-13,9,-335,-617,282,476
,118,2023-10-20 13:45:08.58,263,-356,-2000,-8,-4,15,-325,-706,381,515
,119,2023-10-20 13:45:08.59,271,-359,-2013,-7,5,24,-328,-611,283,469
,120,2023-10-20 13:45:08.60,271,-365,-2013,-4,10,32,-324,-669,345,496
,121,2023-10-20 13:45:08.61,263,-357,-2013,-4,5,36,-318,-594,276,456
,122,2023-10-20 13:45:08.62,270,-354,-2013,-4,4,43,-336,-691,355,513
,123,2023-10-20 13:45:08.63,286,-358,-2010,-1,3,46,-323,-646,323,484
,124,2023-10-20 13:45:08.64,275,-347,-2011,0,2,39,-340,-741,401,540
,125,2023-10-20 13:45:08.65,287,-364,-2014,2,5,39,-319,-657,338,488
,126,2023-10-20 13:45:08.66,273,-363,-2010,7,6,39,-351,-696,345,523
,127,2023-10-20 13:45:08.67,281,-370,-2002,11,5,36,-323,-667,344,495
,128,2023-10-20 13:45:08.68,274,-363,-2016,15,9,35,-356,-754,398,555
,129,2023-10-20 13:45:08.69,273,-368,-2009,19,12,39,-311,-659,348,485
,130,2023-10-20 13:45:08.70,282,-370,-2013,19,14,38,-356,-677,321,516
,131,2023-10-20 13:45:08.71,281,-365,-2007,17,14,34,-302,-582,280,442
,132,2023-10-20 13:45:08.72,279,-373,-2017,16,16,36,-363,-621,258,492
,133,2023-10-20 13:45:08.73,273,-370,-2009,14,13,36,-300,-570,270,435
,134,2023-10-20 13:45:08.74,292,-365,-2008,9,12,36,-368,-637,269,502
,135,2023-10-20 13:45:08.75,289,-324,-2076,-14,7,36,-295,-615,320,455
,136,2023-10-20 13:45:08.76,294,-390,-1956,-20,22,38,-371,-676,305,523
,137,2023-10-20 13:45:08.77,294,-407,-1981,-2,21,30,-291,-629,338,460
,138,2023-10-20 13:45:08.78,290,-364,-2024,1,5,24,-379,-683,304,531
,139,2023-10-20 13:45:08.79,292,-361,-2023,2,-2,25,-289,-639,350,464
,140,2023-10-20 13:45:08.80,276,-371,-2014,2,-7,27,-383,-679,296,531
,141,2023-10-20 13:45:08.81,283,-351,-2018,-5,-13,26,-282,-647,365,464
,142,2023-10-20 13:45:08.82,286,-350,-2013,-9,-11,21,-388,-695,307,541
,143,2023-10-20 13:45:08.83,276,-358,-2006,-12,-10,16,-283,-649,366,466
,144,2023-10-20 13:45:08.84,281,-359,-2000,-14,-8,13,-398,-649,251,523
,145,2023-10-20 13:45:08.85,293,-360,-2006,-16,-6,15,-278,-627,349,452
,146,2023-10-20 13:45:08.86,282,-356,-2006,-12,-2,15,-401,-674,273,537
,147,2023-10-20 13:45:08.87,298,-356,-2011,-16,-2,13,-278,-619,341,448
,148,2023-10-20 13:45:08.88,282,-356,-2021,-20,2,16,-408,-614,206,511
,149,2023-10-20 13:45:08.89,288,-359,-2018,-25,0,21,-270,-598,328,434
,150,2023-10-20 13:45:08.90,278,-372,-2019,-27,-1,28,-410,-637,227,523
,151,2023-10-20 13:45:08.91,286,-352,-2028,-24,-2,35,-269,-577,308,423
,152,2023-10-20 13:45:08.92,292,-340,-2007,-13,-9,33,-419,-569,150,494
,153,2023-10-20 13:45:08.93,294,-344,-2002,-8,-11,26,-271,-540,269,405
,154,2023-10-20 13:45:08.94,295,-358,-2011,-13,-10,37,-427,-577,150,502
,155,2023-10-20 13:45:08.95,281,-360,-2017,-5,-5,49,-264,-581,317,422
,156,2023-10-20 13:45:08.96,290,-372,-2020,3,-6,62,-425,-614,189,519
,157,2023-10-20 13:45:08.97,271,-361,-2023,10,-6,79,-262,-614,352,438
,158,2023-10-20 13:45:08.98,284,-352,-2018,22,-9,86,-434,-615,181,524
,159,2023-10-20 13:45:08.99,278,-338,-2014,36,-12,82,-256,-632,376,444
,160,2023-10-20 13:45:09.00,278,-345,-2011,41,-7,94,-427,-656,229,541
,161,2023-10-20 13:45:09.01,256,-348,-2026,43,-7,102,-252,-648,396,450
,162,2023-10-20 13:45:09.02,277,-355,-2014,44,-16,107,-433,-622,189,527
,163,2023-10-20 13:45:09.03,249,-357,-2038,52,-19,114,-253,-612,359,432
,164,2023-10-20 13:45:09.04,270,-336,-2027,55,-26,120,-445,-621,176,533
,165,2023-10-20 13:45:09.05,256,-332,-2026,60,-33,120,-249,-639,390,444
,166,2023-10-20 13:45:09.06,267,-356,-2025,55,-31,118,-440,-628,188,534
,167,2023-10-20 13:45:09.07,230,-315,-2082,41,-33,114,-243,-698,455,470
,168,2023-10-20 13:45:09.08,256,-336,-2018,22,-27,118,-446,-701,255,573
,169,2023-10-20 13:45:09.09,257,-383,-1988,38,-25,115,-245,-739,494,492
,170,2023-10-20 13:45:09.10,231,-387,-1999,50,-21,110,-447,-711,264,579
,171,2023-10-20 13:45:09.11,246,-368,-2023,49,-22,120,-249,-739,490,494
,172,2023-10-20 13:45:09.12,237,-365,-2002,57,-22,127,-459,-687,228,573
,173,2023-10-20 13:45:09.13,237,-375,-2024,62,-22,136,-242,-680,438,461
,174,2023-10-20 13:45:09.14,242,-371,-2048,56,-21,148,-453,-628,175,540
,175,2023-10-20 13:45:09.15,251,-368,-2024,57,-31,152,-240,-558,318,399
,176,2023-10-20 13:45:09.16,255,-384,-1998,75,-30,140,-463,-508,45,485
,177,2023-10-20 13:45:09.17,261,-384,-1996,96,-23,124,-243,-601,358,422
,178,2023-10-20 13:45:09.18,251,-376,-2019,98,-20,118,-464,-635,171,549
,179,2023-10-20 13:45:09.19,256,-369,-2018,97,-9,108,-242,-735,493,488
,180,2023-10-20 13:45:09.20,240,-392,-2012,90,-12,116,-469,-700,231,584
,181,2023-10-20 13:45:09.21,243,-360,-2064,80,-15,128,-242,-666,424,454
,182,2023-10-20 13:45:09.22,264,-377,-2002,54,-6,138,-465,-584,119,524
,183,2023-10-20 13:45:09.23,254,-410,-1976,43,5,151,-232,-627,395,429
,184,2023-10-20 13:45:09.24,251,-419,-1988,55,8,159,-466,-603,137,534
,185,2023-10-20 13:45:09.25,247,-419,-1998,59,-1,173,-238,-627,389,432
,186,2023-10-20 13:45:09.26,258,-402,-2012,54,-6,187,-474,-585,111,529
,187,2023-10-20 13:45:09.27,246,-423,-2019,48,-5,200,-236,-592,356,414
,188,2023-10-20 13:45:09.28,243,-418,-2015,42,-6,216,-472,-548,76,510
,189,2023-10-20 13:45:09.29,264,-412,-1988,33,-5,227,-236,-587,351,411
,190,2023-10-20 13:45:09.30,239,-412,-2017,37,-10,239,-474,-549,75,511
,191,2023-10-20 13:45:09.31,238,-397,-2035,44,-26,243,-237,-573,336,405
,192,2023-10-20 13:45:09.32,228,-376,-2030,40,-38,245,-475,-528,53,501
,193,2023-10-20 13:45:09.33,216,-363,-2053,22,-46,228,-237,-531,294,384
,194,2023-10-20 13:45:09.34,227,-343,-2040,15,-50,208,-473,-490,17,481
,195,2023-10-20 13:45:09.35,211,-338,-2048,15,-53,187,-236,-547,311,391
,196,2023-10-20 13:45:09.36,235,-328,-2012,19,-68,150,-473,-532,59,502
,197,2023-10-20 13:45:09.37,228,-348,-1997,14,-67,117,-236,-656,420,446
,198,2023-10-20 13:45:09.38,236,-384,-1983,10,-58,98,-470,-623,153,546
,199,2023-10-20 13:45:09.39,213,-399,-1982,10,-33,92,-239,-667,428,453
,200,2023-10-20 13:45:09.40,226,-419,-1997,12,-28,95,-475,-572,97,523
,201,2023-10-20 13:45:09.41,206,-420,-2003,22,-19,104,-238,-590,352,414
,202,2023-10-20 13:45:09.42,208,-401,-1982,29,-11,108,-471,-527,56,499
,203,2023-10-20 13:45:09.43,218,-406,-1983,22,-4,110,-239,-567,328,403
,204,2023-10-20 13:45:09.44,222,-382,-1996,24,10,105,-474,-523,49,498
,205,2023-10-20 13:45:09.45,247,-372,-1988,36,13,95,-242,-655,413,448
,206,2023-10-20 13:45:09.46,235,-365,-1995,44,16,78,-467,-614,147,540
,207,2023-10-20 13:45:09.47,230,-360,-2003,44,22,60,-238,-668,430,453
,208,2023-10-20 13:45:09.48,242,-364,-2005,35,27,45,-464,-564,100,514
,209,2023-10-20 13:45:09.49,237,-388,-2013,27,31,34,-245,-589,344,417
,210,2023-10-20 13:45:09.50,236,-390,-2022,19,25,30,-467,-505,38,486
,211,2023-10-20 13:45:09.51,233,-393,-2029,12,14,29,-248,-555,307,401
,212,2023-10-20 13:45:09.52,233,-390,-2026,5,7,27,-464,-490,26,477
,213,2023-10-20 13:45:09.53,229,-391,-2020,0,9,29,-246,-571,325,408
,214,2023-10-20 13:45:09.54,228,-405,-2032,-8,6,28,-460,-510,50,485
,215,2023-10-20 13:45:09.55,224,-403,-2028,-12,6,27,-245,-528,283,386
,216,2023-10-20 13:45:09.56,236,-399,-2015,-17,8,32,-455,-463,8,459
,217,2023-10-20 13:45:09.57,233,-397,-2012,-26,11,43,-251,-562,311,406
,218,2023-10-20 13:45:09.58,239,-410,-2000,-34,13,57,-457,-513,56,485
,219,2023-10-20 13:45:09.59,241,-402,-1998,-33,17,66,-252,-593,341,422
,220,2023-10-20 13:45:09.60,235,-424,-1997,-34,26,82,-449,-509,60,479
,221,2023-10-20 13:45:09.61,239,-409,-2005,-31,31,109,-256,-518,262,387
,222,2023-10-20 13:45:09.62,232,-421,-1982,-31,31,126,-448,-457,9,452
,223,2023-10-20 13:45:09.63,258,-451,-2023,-13,37,163,-253,-613,360,433
,224,2023-10-20 13:45:09.64,233,-310,-1982,31,51,125,-441,-552,111,496
,225,2023-10-20 13:45:09.65,248,-330,-1989,55,33,86,-260,-570,310,415
,226,2023-10-20 13:45:09.66,247,-336,-2027,37,26,79,-440,-474,34,457
,227,2023-10-20 13:45:09.67,268,-327,-2020,13,12,58,-264,-589,325,426
,228,2023-10-20 13:45:09.68,275,-355,-2010,-3,-9,15,-438,-526,88,482
,229,2023-10-20 13:45:09.69,282,-366,-2008,-21,-11,-17,-268,-590,322,429
,230,2023-10-20 13:45:09.70,285,-371,-2014,-30,6,-13,-434,-509,75,471
,231,2023-10-20 13:45:09.71,273,-373,-2046,-22,14,-13,-272,-634,362,453
,232,2023-10-20 13:45:09.72,295,-384,-2052,-20,13,-4,-432,-573,141,502
,233,2023-10-20 13:45:09.73,278,-377,-2067,-11,5,1,-275,-687,412,481
,234,2023-10-20 13:45:09.74,276,-356,-2057,-8,-15,0,-423,-589,166,506
,235,2023-10-20 13:45:09.75,266,-352,-2057,-22,-20,-1,-274,-691,417,482
,236,2023-10-20 13:45:09.76,280,-333,-2055,-32,-20,-2,-418,-588,170,503
,237,2023-10-20 13:45:09.77,279,-330,-2043,-39,-22,-8,-274,-683,409,478
,238,2023-10-20 13:45:09.78,263,-333,-2033,-55,-19,-8,-406,-558,152,482
,239,2023-10-20 13:45:09.79,276,-339,-2032,-65,-13,-6,-282,-590,308,436
,240,2023-10-20 13:45:09.80,262,-352,-2010,-53,-6,-5,-411,-485,74,448
,241,2023-10-20 13:45:09.81,250,-358,-2006,-32,-2,-3,-286,-570,284,428
,242,2023-10-20 13:45:09.82,243,-373,-2017,-18,7,9,-403,-544,141,473
,243,2023-10-20 13:45:09.83,216,-368,-2026,4,4,15,-290,-728,438,509
,244,2023-10-20 13:45:09.84,221,-356,-2014,29,3,16,-400,-547,147,473
,245,2023-10-20 13:45:09.85,213,-367,-2019,58,0,17,-291,-438,147,364
,246,2023-10-20 13:45:09.86,214,-364,-2000,63,10,13,-394,-299,-95,346
,247,2023-10-20 13:45:09.87,207,-382,-2015,73,18,3,-299,-366,67,332
,248,2023-10-20 13:45:09.88,200,-399,-2013,94,21,-2,-390,-465,75,427
,249,2023-10-20 13:45:09.89,207,-396,-2016,100,34,-3,-291,-761,470,526
,250,2023-10-20 13:45:09.90,200,-390,-2018,103,38,-6,-377,-698,321,537
,251,2023-10-20 13:45:09.91,199,-384,-2007,101,36,-8,-308,-718,410,513
,252,2023-10-20 13:45:09.92,210,-411,-1987,97,29,-17,-384,-549,165,466
,253,2023-10-20 13:45:09.93,223,-426,-1988,95,26,-20,-313,-593,280,453
,254,2023-10-20 13:45:09.94,222,-436,-1980,93,27,-16,-378,-503,125,440
,255,2023-10-20 13:45:09.95,249,-449,-1975,98,33,-5,-322,-576,254,449
,256,2023-10-20 13:45:09.96,234,-452,-1960,105,44,13,-375,-519,144,447
,257,2023-10-20 13:45:09.97,230,-475,-1980,92,51,51,-320,-640,320,480
,258,2023-10-20 13:45:09.98,243,-488,-1995,57,51,106,-365,-554,189,459
,259,2023-10-20 13:45:09.99,245,-474,-2009,43,50,148,-330,-621,291,475
,260,2023-10-20 13:45:10.00,218,-455,-2016,50,45,169,-363,-535,172,449
,261,2023-10-20 13:45:10.01,219,-430,-2026,69,38,196,-335,-617,282,476
,262,2023-10-20 13:45:10.02,214,-405,-2022,94,16,199,-363,-564,201,463
,263,2023-10-20 13:45:10.03,184,-364,-2040,112,-7,190,-342,-674,332,508
,264,2023-10-20 13:45:10.04,215,-342,-2046,113,-37,166,-353,-595,242,474
,265,2023-10-20 13:45:10.05,199,-335,-2012,103,-60,124,-346,-657,311,501
,266,2023-10-20 13:45:10.06,209,-356,-2006,82,-72,74,-351,-577,226,464
,267,2023-10-20 13:45:10.07,221,-408,-1984,53,-58,49,-347,-649,302,498
,268,2023-10-20 13:45:10.08,213,-435,-2006,45,-35,44,-343,-566,223,454
,269,2023-10-20 13:45:10.09,210,-434,-2005,53,-31,54,-354,-631,277,492
,270,2023-10-20 13:45:10.10,208,-413,-1983,62,-31,50,-340,-581,241,460
,271,2023-10-20 13:45:10.11,215,-437,-1990,61,-34,42,-359,-670,311,514
,272,2023-10-20 13:45:10.12,222,-439,-2003,41,-27,44,-332,-590,258,461
,273,2023-10-20 13:45:10.13,231,-406,-1994,32,-15,46,-363,-636,273,499
,274,2023-10-20 13:45:10.14,231,-398,-1987,33,-5,34,-329,-533,204,431
,275,2023-10-20 13:45:10.15,242,-393,-1985,34,6,20,-369,-574,205,471
,276,2023-10-20 13:45:10.16,220,-405,-2005,31,25,5,-326,-578,252,452
,277,2023-10-20 13:45:10.17,224,-418,-1996,32,32,-2,-372,-694,322,533
,278,2023-10-20 13:45:10.18,207,-428,-2009,37,39,-3,-321,-608,287,464
,279,2023-10-20 13:45:10.19,213,-412,-2004,39,38,2,-384,-617,233,500
,280,2023-10-20 13:45:10.20,218,-418,-2008,42,40,13,-320,-573,253,446
,281,2023-10-20 13:45:10.21,211,-401,-2025,34,28,17,-385,-668,283,526
,282,2023-10-20 13:45:10.22,216,-387,-2013,19,7,16,-306,-603,297,454
,283,2023-10-20 13:45:10.23,242,-400,-1999,0,-7,13,-387,-612,225,499
,284,2023-10-20 13:45:10.24,243,-392,-1989,-19,-12,9,-302,-541,239,421
,285,2023-10-20 13:45:10.25,240,-408,-1978,-38,-6,8,-383,-582,199,482
,286,2023-10-20 13:45:10.26,230,-409,-1973,-55,11,4,-294,-579,285,436
,287,2023-10-20 13:45:10.27,243,-419,-1989,-72,29,11,-392,-647,255,519
,288,2023-10-20 13:45:10.28,241,-416,-1995,-87,48,19,-291,-644,353,467
,289,2023-10-20 13:45:10.29,242,-420,-2015,-93,49,29,-397,-688,291,542
,290,2023-10-20 13:45:10.30,228,-413,-2017,-105,54,35,-285,-635,350,460
,291,2023-10-20 13:45:10.31,235,-387,-2043,-122,56,37,-405,-656,251,530
,292,2023-10-20 13:45:10.32,254,-389,-2038,-150,42,27,-280,-616,336,448
,293,2023-10-20 13:45:10.33,241,-444,-2026,-214,57,27,-402,-648,246,525
,294,2023-10-20 13:45:10.34,231,-422,-2033,-207,71,40,-280,-613,333,446
,295,2023-10-20 13:45:10.35,220,-409,-2022,-173,68,48,-410,-621,211,515
,296,2023-10-20 13:45:10.36,233,-394,-2009,-141,59,43,-275,-627,352,451
,297,2023-10-20 13:45:10.37,215,-392,-1997,-124,67,28,-414,-672,258,543
,298,2023-10-20 13:45:10.38,227,-389,-2006,-127,70,24,-270,-699,429,484
,299,2023-10-20 13:45:10.39,231,-406,-1987,-128,72,27,-420,-719,299,569
,300,2023-10-20 13:45:10.40,225,-406,-1964,-121,90,29,-265,-657,392,461
,301,2023-10-20 13:45:10.41,234,-419,-1973,-120,106,40,-420,-641,221,530
,302,2023-10-20 13:45:10.42,228,-426,-1981,-123,137,60,-261,-660,399,460
,303,2023-10-20 13:45:10.43,220,-417,-2000,-120,157,78,-425,-695,270,560
,304,2023-10-20 13:45:10.44,225,-408,-2007,-131,177,104,-262,-654,392,458
,305,2023-10-20 13:45:10.45,234,-407,-2005,-135,186,118,-433,-630,197,531
,306,2023-10-20 13:45:10.46,235,-374,-2012,-140,193,127,-262,-579,317,420
,307,2023-10-20 13:45:10.47,246,-375,-2028,-165,201,133,-439,-569,130,504
,308,2023-10-20 13:45:10.48,218,-369,-2030,-194,209,138,-258,-612,354,435
,309,2023-10-20 13:45:10.49,238,-369,-2015,-209,206,141,-445,-649,204,547
,310,2023-10-20 13:45:10.50,255,-356,-2021,-213,206,144,-255,-677,422,466
,311,2023-10-20 13:45:10.51,266,-369,-2032,-214,206,142,-445,-669,224,557
,312,2023-10-20 13:45:10.52,253,-341,-2033,-209,203,147,-256,-646,390,451
,313,2023-10-20 13:45:10.53,266,-333,-2030,-192,185,144,-450,-622,172,536
,314,2023-10-20 13:45:10.54,290,-341,-1999,-175,179,147,-249,-597,348,423
,315,2023-10-20 13:45:10.55,277,-310,-2035,-160,159,150,-448,-582,134,515
,316,2023-10-20 13:45:10.56,298,-308,-2050,-163,153,156,-249,-588,339,418
,317,2023-10-20 13:45:10.57,293,-304,-2016,-165,144,154,-454,-582,128,518
,318,2023-10-20 13:45:10.58,298,-318,-2015,-166,133,151,-244,-558,314,401
,319,2023-10-20 13:45:10.59,294,-316,-2034,-159,107,155,-456,-545,89,500
,320,2023-10-20 13:45:10.60,300,-317,-2033,-157,91,161,-245,-626,381,435
,321,2023-10-20 13:45:10.61,313,-293,-2049,-148,68,171,-458,-651,193,554
,322,2023-10-20 13:45:10.62,316,-282,-2059,-140,52,175,-240,-671,431,455
,323,2023-10-20 13:45:10.63,290,-275,-2061,-147,41,176,-464,-627,163,545
,324,2023-10-20 13:45:10.64,306,-271,-2042,-144,24,180,-247,-651,404,449
,325,2023-10-20 13:45:10.65,305,-258,-2042,-139,10,174,-468,-632,164,550
,326,2023-10-20 13:45:10.66,302,-276,-2031,-136,11,174,-242,-607,365,424
,327,2023-10-20 13:45:10.67,295,-284,-2052,-107,18,165,-467,-560,93,513
,328,2023-10-20 13:45:10.68,286,-208,-2012,-28,16,122,-243,-602,359,422
,329,2023-10-20 13:45:10.69,292,-198,-2004,27,11,84,-467,-591,124,529
,330,2023-10-20 13:45:10.70,287,-191,-2007,36,-9,54,-244,-611,367,427
,331,2023-10-20 13:45:10.71,295,-195,-2010,14,-33,26,-473,-570,97,521
,332,2023-10-20 13:45:10.72,305,-213,-2005,0,-48,-18,-241,-580,339,410
,333,2023-10-20 13:45:10.73,317,-269,-2000,2,-60,-39,-473,-555,82,514
,334,2023-10-20 13:45:10.74,317,-297,-2003,-11,-34,-41,-240,-654,414,447
,335,2023-10-20 13:45:10.75,330,-297,-1999,-17,1,-25,-481,-638,157,559
,336,2023-10-20 13:45:10.76,323,-291,-2020,-6,26,-1,-242,-657,415,449
,337,2023-10-20 13:45:10.77,315,-289,-2040,12,32,19,-476,-596,120,536
,338,2023-10-20 13:45:10.78,323,-262,-2042,24,22,21,-238,-616,378,427
,339,2023-10-20 13:45:10.79,323,-250,-2019,27,5,16,-474,-573,99,523
,340,2023-10-20 13:45:10.80,318,-250,-2028,26,-10,4,-234,-710,476,472
,341,2023-10-20 13:45:10.81,320,-236,-2030,28,-15,-14,-472,-677,205,574
,342,2023-10-20 13:45:10.82,334,-240,-2019,35,-16,-32,-242,-638,396,440
,343,2023-10-20 13:45:10.83,330,-261,-2027,40,-20,-47,-480,-537,57,508
,344,2023-10-20 13:45:10.84,323,-266,-2037,42,-15,-50,-238,-619,381,428
,345,2023-10-20 13:45:10.85,327,-273,-2042,44,-25,-48,-471,-594,123,532
,346,2023-10-20 13:45:10.86,341,-295,-2020,43,-34,-44,-235,-636,401,435
,347,2023-10-20 13:45:10.87,348,-318,-2009,32,-27,-34,-473,-561,88,517
,348,2023-10-20 13:45:10.88,332,-323,-2026,23,-14,-5,-243,-616,373,429
,349,2023-10-20 13:45:10.89,314,-307,-2018,19,-2,27,-478,-563,85,520
,350,2023-10-20 13:45:10.90,315,-296,-2023,21,0,51,-243,-644,401,443
,351,2023-10-20 13:45:10.91,314,-292,-2027,22,-1,65,-467,-582,115,524
,352,2023-10-20 13:45:10.92,305,-283,-2030,26,0,78,-237,-630,393,433
,353,2023-10-20 13:45:10.93,294,-270,-2036,41,-7,87,-467,-553,86,510
,354,2023-10-20 13:45:10.94,294,-252,-2031,61,-20,84,-239,-581,342,410
,355,2023-10-20 13:45:10.95,302,-253,-2026,81,-37,66,-469,-512,43,490
,356,2023-10-20 13:45:10.96,304,-265,-2019,80,-43,52,-250,-577,327,413
,357,2023-10-20 13:45:10.97,303,-247,-2035,73,-40,33,-468,-529,61,498
,358,2023-10-20 13:45:10.98,322,-316,-1981,73,-41,25,-243,-633,390,438
,359,2023-10-20 13:45:10.99,301,-302,-2002,81,-30,24,-462,-571,109,516
,360,2023-10-20 13:45:11.00,302,-330,-2022,77,-24,49,-243,-636,393,439
,361,2023-10-20 13:45:11.01,294,-341,-2015,72,-18,71,-458,-565,107,511
,362,2023-10-20 13:45:11.02,284,-332,-2021,73,-21,95,-244,-696,452,470
,363,2023-10-20 13:45:11.03,289,-325,-2026,73,-19,119,-455,-622,167,538
,364,2023-10-20 13:45:11.04,293,-312,-2027,75,-19,132,-244,-695,451,469
,365,2023-10-20 13:45:11.05,294,-297,-2027,87,-26,133,-450,-592,142,521
,366,2023-10-20 13:45:11.06,300,-281,-2031,89,-35,132,-250,-713,463,481
,367,2023-10-20 13:45:11.07,295,-278,-2023,81,-30,123,-454,-618,164,536
,368,2023-10-20 13:45:11.08,302,-304,-2013,82,-26,112,-256,-657,401,456
,369,2023-10-20 13:45:11.09,306,-300,-2007,84,-18,110,-449,-564,115,506
,370,2023-10-20 13:45:11.10,287,-303,-2018,87,-17,107,-258,-732,474,495
,371,2023-10-20 13:45:11.11,287,-313,-2020,86,-22,106,-447,-638,191,542
,372,2023-10-20 13:45:11.12,288,-310,-2008,82,-22,109,-257,-648,391,452
,373,2023-10-20 13:45:11.13,287,-326,-2002,77,-15,111,-438,-530,92,484
,374,2023-10-20 13:45:11.14,283,-337,-2017,70,-16,114,-253,-661,408,457
,375,2023-10-20 13:45:11.15,260,-332,-2023,62,-18,113,-428,-595,167,511
,376,2023-10-20 13:45:11.16,276,-340,-2027,58,-20,127,-269,-688,419,478
,377,2023-10-20 13:45:11.17,272,-334,-2024,55,-18,138,-429,-576,147,502
,378,2023-10-20 13:45:11.18,278,-330,-2012,48,-11,144,-261,-682,421,471
,379,2023-10-20 13:45:11.19,279,-317,-2008,37,-8,149,-426,-567,141,496
,380,2023-10-20 13:45:11.20,287,-308,-2013,21,2,149,-263,-566,303,414
,381,2023-10-20 13:45:11.21,288,-312,-2009,15,8,142,-417,-471,54,444
,382,2023-10-20 13:45:11.22,285,-317,-2015,6,17,146,-268,-604,336,436
,383,2023-10-20 13:45:11.23,288,-307,-2026,-6,20,145,-416,-516,100,466
,384,2023-10-20 13:45:11.24,260,-331,-2051,-12,20,155,-271,-544,273,407
,385,2023-10-20 13:45:11.25,256,-290,-2052,-1,20,142,-404,-467,63,435
,386,2023-10-20 13:45:11.26,264,-265,-2035,29,4,111,-272,-585,313,428
,387,2023-10-20 13:45:11.27,267,-278,-2020,44,-13,69,-399,-522,123,460
,388,2023-10-20 13:45:11.28,299,-252,-2015,51,-17,21,-268,-619,351,443
,389,2023-10-20 13:45:11.29,269,-273,-2008,47,-13,-7,-389,-535,146,462
,390,2023-10-20 13:45:11.30,252,-319,-2021,28,-9,-12,-277,-616,339,446
,391,2023-10-20 13:45:11.31,262,-319,-2028,2,-12,-9,-392,-532,140,462
,392,2023-10-20 13:45:11.32,268,-350,-2022,-29,-27,6,-285,-637,352,461
,393,2023-10-20 13:45:11.33,266,-356,-2011,-45,-28,20,-384,-560,176,472
,394,2023-10-20 13:45:11.34,272,-355,-2022,-49,-21,37,-288,-661,373,474
,395,2023-10-20 13:45:11.35,279,-337,-2019,-46,-14,52,-380,-547,167,463
,396,2023-10-20 13:45:11.36,266,-327,-2015,-37,-3,68,-289,-607,318,448
,397,2023-10-20 13:45:11.37,260,-323,-2026,-31,-5,77,-372,-528,156,450
,398,2023-10-20 13:45:11.38,257,-304,-2019,-29,-17,70,-288,-634,346,461
,399,2023-10-20 13:45:11.39,262,-293,-2022,-28,-27,60,-366,-555,189,460
,400,2023-10-20 13:45:11.40,266,-300,-2026,-35,-32,53,-295,-655,360,475
,401,2023-10-20 13:45:11.41,249,-304,-2035,-41,-33,52,-364,-553,189,458
,402,2023-10-20 13:45:11.42,261,-294,-2028,-43,-29,46,-300,-604,304,452
,403,2023-10-20 13:45:11.43,262,-297,-2014,-39,-35,31,-356,-561,205,458
,404,2023-10-20 13:45:11.44,255,-308,-2011,-36,-32,15,-306,-722,416,514
,405,2023-10-20 13:45:11.45,249,-331,-2027,-47,-22,23,-350,-622,272,486
,406,2023-10-20 13:45:11.46,255,-322,-2044,-39,-14,39,-310,-638,328,474
,407,2023-10-20 13:45:11.47,232,-306,-2047,-21,-16,35,-350,-560,210,455
,408,2023-10-20 13:45:11.48,247,-307,-2036,-17,-27,25,-319,-674,355,496
,409,2023-10-20 13:45:11.49,250,-302,-2022,-12,-29,17,-340,-581,241,460
,410,2023-10-20 13:45:11.50,251,-295,-2022,-8,-31,8,-318,-622,304,470
,411,2023-10-20 13:45:11.51,250,-305,-2019,-9,-30,13,-330,-534,204,432
,412,2023-10-20 13:45:11.52,240,-307,-2025,-16,-26,25,-322,-620,298,471
,413,2023-10-20 13:45:11.53,243,-320,-2014,-21,-23,38,-331,-600,269,465
,414,2023-10-20 13:45:11.54,256,-333,-2015,-31,-28,59,-332,-714,382,523
,415,2023-10-20 13:45:11.55,243,-334,-2022,-39,-27,84,-325,-610,285,467
,416,2023-10-20 13:45:11.56,247,-331,-2029,-39,-28,106,-333,-649,316,491
,417,2023-10-20 13:45:11.57,256,-324,-2026,-41,-32,123,-320,-566,246,443
,418,2023-10-20 13:45:11.58,262,-306,-2024,-36,-32,131,-340,-623,283,481
,419,2023-10-20 13:45:11.59,264,-305,-2017,-34,-38,132,-316,-567,251,441
,420,2023-10-20 13:45:11.60,262,-309,-2019,-31,-35,138,-347,-649,302,498
,421,2023-10-20 13:45:11.61,285,-298,-2028,-26,-35,133,-310,-581,271,445
,422,2023-10-20 13:45:11.62,264,-293,-2022,-23,-30,136,-346,-616,270,481
,423,2023-10-20 13:45:11.63,268,-314,-2013,-22,-17,140,-302,-534,232,418
,424,2023-10-20 13:45:11.64,273,-299,-2020,-18,-6,146,-354,-587,233,470
,425,2023-10-20 13:45:11.65,270,-300,-2021,-12,-3,154,-300,-527,227,413
,426,2023-10-20 13:45:11.66,262,-305,-2025,-4,-10,160,-356,-573,217,464
,427,2023-10-20 13:45:11.67,264,-298,-2017,-4,-9,161,-292,-551,259,421
,428,2023-10-20 13:45:11.68,258,-302,-2022,-4,-15,161,-362,-617,255,489
,429,2023-10-20 13:45:11.69,261,-289,-2028,-1,-20,161,-288,-565,277,426
,430,2023-10-20 13:45:11.70,253,-279,-2029,-1,-12,159,-365,-615,250,490
,431,2023-10-20 13:45:11.71,250,-273,-2027,-11,-8,154,-291,-602,311,446
,432,2023-10-20 13:45:11.72,253,-273,-2027,-21,-5,146,-377,-658,281,517
,433,2023-10-20 13:45:11.73,254,-263,-2026,-21,-2,133,-285,-620,335,452
,434,2023-10-20 13:45:11.74,262,-262,-2024,-18,-3,126,-377,-653,276,515
,435,2023-10-20 13:45:11.75,261,-269,-2021,-14,2,117,-282,-581,299,431
,436,2023-10-20 13:45:11.76,265,-276,-2017,-10,4,112,-385,-586,201,485
,437,2023-10-20 13:45:11.77,266,-264,-2011,-7,5,103,-272,-579,307,425
,438,2023-10-20 13:45:11.78,259,-274,-2009,-3,6,92,-388,-644,256,516
,439,2023-10-20 13:45:11.79,261,-287,-2041,5,4,93,-272,-631,359,451
,440,2023-10-20 13:45:11.80,256,-289,-2035,12,-1,93,-396,-671,275,533
,441,2023-10-20 13:45:11.81,256,-287,-2039,19,-9,90,-271,-673,402,472
,442,2023-10-20 13:45:11.82,247,-283,-2045,26,-14,88,-402,-708,306,555
,443,2023-10-20 13:45:11.83,259,-275,-2040,33,-14,87,-263,-696,433,479
,444,2023-10-20 13:45:11.84,242,-263,-2039,36,-14,82,-398,-710,312,554
,445,2023-10-20 13:45:11.85,236,-271,-2035,33,-13,85,-261,-721,460,491
,446,2023-10-20 13:45:11.86,239,-271,-2017,25,-16,81,-406,-744,338,575
,447,2023-10-20 13:45:11.87,236,-279,-1994,26,-20,80,-254,-760,506,507
,448,2023-10-20 13:45:11.88,237,-286,-2007,29,-14,79,-410,-763,353,586
,449,2023-10-20 13:45:11.89,245,-292,-2008,29,-11,79,-260,-716,456,488
,450,2023-10-20 13:45:11.90,260,-296,-2018,39,-2,76,-421,-683,262,552
,451,2023-10-20 13:45:11.91,223,-293,-2028,70,15,54,-260,-625,365,442
,452,2023-10-20 13:45:11.92,243,-268,-2048,96,11,35,-424,-601,177,512
,453,2023-10-20 13:45:11.93,235,-255,-2045,89,-11,24,-255,-587,332,421
,454,2023-10-20 13:45:11.94,240,-284,-2050,47,-35,10,-429,-607,178,518
,455,2023-10-20 13:45:11.95,250,-295,-2034,7,-40,-6,-252,-592,340,422
,456,2023-10-20 13:45:11.96,247,-340,-2027,-19,-35,3,-429,-578,149,503
,457,2023-10-20 13:45:11.97,249,-361,-2013,-21,-20,34,-239,-548,309,393
,458,2023-10-20 13:45:11.98,238,-377,-2024,-8,-13,64,-430,-548,118,489
,459,2023-10-20 13:45:11.99,238,-350,-2036,6,-8,90,-246,-569,323,407
,460,2023-10-20 13:45:12.00,236,-310,-2040,12,-9,110,-442,-583,141,512
,461,2023-10-20 13:45:12.01,238,-286,-2030,19,-20,111,-242,-613,371,427
,462,2023-10-20 13:45:12.02,233,-276,-2037,15,-32,104,-442,-610,168,526
,463,2023-10-20 13:45:12.03,242,-263,-2036,10,-45,94,-240,-598,358,419
,464,2023-10-20 13:45:12.04,254,-260,-2015,4,-51,81,-446,-578,132,512
,465,2023-10-20 13:45:12.05,254,-278,-2014,5,-46,62,-238,-554,316,396
,466,2023-10-20 13:45:12.06,249,-286,-2018,9,-40,45,-448,-537,89,492
,467,2023-10-20 13:45:12.07,244,-295,-2024,10,-34,41,-234,-641,407,437
,468,2023-10-20 13:45:12.08,242,-295,-2029,20,-29,38,-451,-675,224,563
,469,2023-10-20 13:45:12.09,225,-290,-2031,27,-30,30,-232,-677,445,454
,470,2023-10-20 13:45:12.10,204,-297,-2037,19,-33,29,-447,-603,156,525
,471,2023-10-20 13:45:12.11,219,-303,-2036,1,-31,41,-228,-560,332,394
,472,2023-10-20 13:45:12.12,220,-302,-2042,-7,-35,49,-453,-529,76,491
,473,2023-10-20 13:45:12.13,205,-313,-2041,-6,-41,52,-233,-571,338,402
,474,2023-10-20 13:45:12.14,221,-302,-2036,-4,-47,56,-458,-575,117,516
,475,2023-10-20 13:45:12.15,217,-294,-2020,-1,-48,56,-230,-588,358,409
,476,2023-10-20 13:45:12.16,229,-286,-2021,9,-48,48,-455,-547,92,501
,477,2023-10-20 13:45:12.17,233,-295,-2026,24,-46,31,-227,-592,365,409
,478,2023-10-20 13:45:12.18,231,-297,-2024,36,-42,18,-458,-580,122,519
,479,2023-10-20 13:45:12.19,227,-305,-2039,52,-41,14,-229,-596,367,412
,480,2023-10-20 13:45:12.20,207,-315,-2036,63,-37,15,-460,-546,86,503
,481,2023-10-20 13:45:12.21,195,-321,-2032,74,-42,14,-228,-545,317,386
,482,2023-10-20 13:45:12.22,200,-311,-2029,84,-46,20,-462,-509,47,485
,483,2023-10-20 13:45:12.23,188,-315,-2030,91,-47,27,-226,-530,304,378
,484,2023-10-20 13:45:12.24,186,-334,-2027,90,-51,27,-463,-503,40,483
,485,2023-10-20 13:45:12.25,175,-332,-2005,83,-45,32,-230,-584,354,407
,486,2023-10-20 13:45:12.26,173,-342,-2009,82,-42,43,-470,-572,102,521
,487,2023-10-20 13:45:12.27,178,-334,-2008,75,-37,53,-227,-628,401,427
,488,2023-10-20 13:45:12.28,174,-329,-2005,65,-33,57,-461,-581,120,521
,489,2023-10-20 13:45:12.29,182,-319,-2016,49,-13,65,-225,-641,416,433
,490,2023-10-20 13:45:12.30,178,-322,-2034,34,-5,72,-473,-597,124,535
,491,2023-10-20 13:45:12.31,178,-304,-2039,24,-6,73,-230,-659,429,444
,492,2023-10-20 13:45:12.32,182,-301,-2034,11,-12,72,-465,-601,136,533
,493,2023-10-20 13:45:12.33,179,-299,-2025,-1,-15,65,-224,-649,425,436
,494,2023-10-20 13:45:12.34,189,-311,-2034,-8,-15,64,-464,-578,114,521
,495,2023-10-20 13:45:12.35,179,-306,-2037,-9,-15,60,-230,-619,389,424
,496,2023-10-20 13:45:12.36,204,-300,-2030,1,-17,47,-466,-553,87,509
,497,2023-10-20 13:45:12.37,199,-296,-2030,7,-13,41,-229,-636,407,432
,498,2023-10-20 13:45:12.38,194,-286,-2028,13,-15,29,-460,-584,124,522
,499,2023-10-20 13:45:12.39,204,-296,-2012,18,-13,19,-236,-663,427,449
,500,2023-10-20 13:45:12.40,203,-315,-2018,22,-10,16,-462,-578,116,520
,501,2023-10-20 13:45:12.41,195,-326,-2041,26,-10,23,-236,-604,368,420
,502,2023-10-20 13:45:12.42,198,-318,-2037,29,-14,33,-459,-529,70,494
,503,2023-10-20 13:45:12.43,199,-323,-2039,32,-16,35,-233,-682,449,457
,504,2023-10-20 13:45:12.44,187,-313,-2028,35,-22,34,-458,-630,172,544
,505,2023-10-20 13:45:12.45,187,-309,-2038,31,-20,33,-232,-657,425,444
,506,2023-10-20 13:45:12.46,185,-311,-2028,27,-12,33,-451,-547,96,499
,507,2023-10-20 13:45:12.47,180,-310,-2013,27,-11,36,-235,-660,425,447
,508,2023-10-20 13:45:12.48,183,-309,-2006,21,-1,33,-453,-606,153,529
,509,2023-10-20 13:45:12.49,182,-312,-2006,14,1,33,-240,-722,482,481
,510,2023-10-20 13:45:12.50,198,-305,-2018,14,5,30,-448,-631,183,539
,511,2023-10-20 13:45:12.51,206,-320,-2022,10,11,32,-239,-720,481,479
,512,2023-10-20 13:45:12.52,189,-312,-2031,13,15,36,-444,-617,173,530
,513,2023-10-20 13:45:12.53,196,-301,-2032,13,17,40,-236,-654,418,445
,514,2023-10-20 13:45:12.54,206,-303,-2032,13,18,38,-438,-531,93,484
,515,2023-10-20 13:45:12.55,188,-297,-2035,6,13,38,-242,-556,314,399
,516,2023-10-20 13:45:12.56,206,-303,-2034,2,15,36,-435,-475,40,455
,517,2023-10-20 13:45:12.57,214,-310,-2022,2,11,31,-244,-553,309,398
,518,2023-10-20 13:45:12.58,203,-307,-2027,5,8,27,-434,-486,52,460
,519,2023-10-20 13:45:12.59,207,-304,-2034,8,9,24,-248,-557,309,402
,520,2023-10-20 13:45:12.60,200,-301,-2031,11,9,24,-427,-488,61,457
,521,2023-10-20 13:45:12.61,202,-306,-2038,9,11,27,-251,-571,320,411
,522,2023-10-20 13:45:12.62,211,-306,-2029,10,5,31,-425,-486,61,455
,523,2023-10-20 13:45:12.63,204,-309,-2024,12,6,33,-250,-537,287,393
,524,2023-10-20 13:45:12.64,203,-301,-2017,11,3,32,-414,-460,46,437
,525,2023-10-20 13:45:12.65,211,-301,-2008,11,9,32,-247,-537,290,392
,526,2023-10-20 13:45:12.66,213,-309,-2029,4,13,42,-413,-495,82,454
,527,2023-10-20 13:45:12.67,209,-313,-2038,4,18,48,-258,-629,371,443
,528,2023-10-20 13:45:12.68,197,-311,-2039,12,14,47,-406,-540,134,473
,529,2023-10-20 13:45:12.69,188,-299,-2037,30,3,42,-259,-592,333,425
,530,2023-10-20 13:45:12.70,198,-274,-2018,59,-2,6,-406,-486,80,446
,531,2023-10-20 13:45:12.71,186,-273,-2017,79,-13,-32,-275,-550,275,412
,532,2023-10-20 13:45:12.72,199,-291,-2031,62,-17,-45,-404,-475,71,439
,533,2023-10-20 13:45:12.73,205,-312,-2041,31,-17,-43,-269,-578,309,423
,534,2023-10-20 13:45:12.74,193,-337,-2038,-3,-18,-32,-390,-493,103,441
,535,2023-10-20 13:45:12.75,212,-385,-2027,-29,-18,-7,-269,-556,287,412
,536,2023-10-20 13:45:12.76,212,-409,-2018,-41,-14,29,-389,-467,78,428
,537,2023-10-20 13:45:12.77,210,-396,-2019,-27,-3,67,-275,-596,321,435
,538,2023-10-20 13:45:12.78,199,-363,-2031,-10,-1,103,-384,-541,157,462
,539,2023-10-20 13:45:12.79,201,-323,-2049,-1,-5,115,-279,-648,369,463
,540,2023-10-20 13:45:12.80,198,-303,-2050,-5,-23,117,-384,-559,175,471
,541,2023-10-20 13:45:12.81,186,-285,-2050,-20,-36,113,-285,-618,333,451
,542,2023-10-20 13:45:12.82,197,-284,-2038,-34,-42,108,-378,-515,137,446
,543,2023-10-20 13:45:12.83,188,-287,-2044,-36,-45,97,-285,-599,314,442
,544,2023-10-20 13:45:12.84,188,-299,-2013,-37,-55,82,-365,-559,194,462
,545,2023-10-20 13:45:12.85,202,-320,-2010,-38,-55,54,-284,-677,393,480
,546,2023-10-20 13:45:12.86,191,-317,-2001,-31,-37,41,-357,-558,201,457
,547,2023-10-20 13:45:12.87,180,-317,-2036,-9,-19,43,-286,-587,301,436
,548,2023-10-20 13:45:12.88,179,-301,-2037,6,-19,42,-358,-501,143,429
,549,2023-10-20 13:45:12.89,172,-294,-2027,6,-31,37,-298,-605,307,451
,550,2023-10-20 13:45:12.90,170,-300,-2033,-2,-34,40,-352,-524,172,438
,551,2023-10-20 13:45:12.91,177,-306,-2034,-14,-25,50,-303,-578,275,440
,552,2023-10-20 13:45:12.92,164,-320,-2035,-23,-20,64,-352,-514,162,433
,553,2023-10-20 13:45:12.93,153,-312,-2034,-23,-16,77,-309,-616,307,462
,554,2023-10-20 13:45:12.94,158,-306,-2040,-17,-19,91,-341,-580,239,460
,555,2023-10-20 13:45:12.95,156,-293,-2028,-7,-27,92,-312,-720,408,516
,556,2023-10-20 13:45:12.96,173,-277,-2022,-5,-25,85,-340,-622,282,481
,557,2023-10-20 13:45:12.97,175,-272,-2025,0,-24,73,-316,-653,337,484
,558,2023-10-20 13:45:12.98,177,-269,-2027,2,-20,61,-333,-554,221,443
,559,2023-10-20 13:45:12.99,180,-270,-2026,-1,-13,50,-322,-613,291,467
,560,2023-10-20 13:45:13.00,174,-289,-2032,-4,-10,38,-331,-489,158,410
,561,2023-10-20 13:45:13.01,173,-287,-2029,-4,-11,32,-325,-506,181,415
,562,2023-10-20 13:45:13.02,183,-295,-2031,0,-15,26,-319,-429,110,374
,563,2023-10-20 13:45:13.03,171,-293,-2039,-2,-15,23,-328,-504,176,416
,564,2023-10-20 13:45:13.04,172,-292,-2029,-6,-19,18,-315,-459,144,387
,565,2023-10-20 13:45:13.05,182,-291,-2026,-7,-21,17,-331,-540,209,435
,566,2023-10-20 13:45:13.06,183,-298,-2039,-10,-27,14,-304,-566,262,435
,567,2023-10-20 13:45:13.07,177,-294,-2034,-16,-24,19,-336,-707,371,521
,568,2023-10-20 13:45:13.08,173,-300,-2036,-14,-26,19,-303,-648,345,475
,569,2023-10-20 13:45:13.09,180,-306,-2029,-14,-25,19,-338,-674,336,506
,570,2023-10-20 13:45:13.10,176,-295,-2025,-11,-24,18,-301,-603,302,452
,571,2023-10-20 13:45:13.11,181,-291,-2039,-15,-23,21,-353,-650,297,501
,572,2023-10-20 13:45:13.12,173,-294,-2029,-16,-14,24,-309,-636,327,472
,573,2023-10-20 13:45:13.13,154,-298,-2025,-12,-18,27,-356,-721,365,538
,574,2023-10-20 13:45:13.14,158,-297,-2023,-4,-19,25,-293,-682,389,487
,575,2023-10-20 13:45:13.15,166,-291,-2014,6,-22,26,-358,-709,351,533
,576,2023-10-20 13:45:13.16,166,-299,-2028,11,-16,27,-287,-648,361,467
,577,2023-10-20 13:45:13.17,157,-292,-2023,18,-11,24,-368,-686,318,527
,578,2023-10-20 13:45:13.18,163,-296,-2030,21,-7,25,-289,-572,283,430
,579,2023-10-20 13:45:13.19,160,-297,-2031,25,-7,25,-373,-560,187,466
,580,2023-10-20 13:45:13.20,159,-289,-2035,28,-5,25,-279,-496,217,387
,581,2023-10-20 13:45:13.21,160,-288,-2033,30,-2,25,-379,-545,166,462
,582,2023-10-20 13:45:13.22,161,-293,-2031,32,-1,29,-276,-474,198,375
,583,2023-10-20 13:45:13.23,154,-289,-2038,34,-5,25,-380,-499,119,439
,584,2023-10-20 13:45:13.24,155,-291,-2032,35,-7,18,-270,-431,161,350
,585,2023-10-20 13:45:13.25,149,-292,-2022,35,-5,23,-388,-466,78,427
,586,2023-10-20 13:45:13.26,166,-294,-2025,37,0,22,-271,-474,203,372
,587,2023-10-20 13:45:13.27,162,-299,-2033,33,0,18,-394,-554,160,474
,588,2023-10-20 13:45:13.28,165,-302,-2026,29,5,22,-267,-509,242,388
,589,2023-10-20 13:45:13.29,157,-298,-2031,27,5,25,-400,-516,116,458
,590,2023-10-20 13:45:13.30,154,-304,-2032,25,7,30,-267,-532,265,399
,591,2023-10-20 13:45:13.31,158,-299,-2022,23,7,34,-406,-595,189,500
,592,2023-10-20 13:45:13.32,166,-303,-2027,22,5,38,-268,-573,305,420
,593,2023-10-20 13:45:13.33,173,-300,-2023,21,4,40,-415,-591,176,503
,594,2023-10-20 13:45:13.34,165,-300,-2032,28,4,37,-258,-600,342,429
,595,2023-10-20 13:45:13.35,172,-297,-2036,35,3,32,-410,-625,215,517
,596,2023-10-20 13:45:13.36,178,-293,-2035,37,-1,24,-254,-569,315,411
,597,2023-10-20 13:45:13.37,165,-298,-2044,34,-1,24,-420,-558,138,489
,598,2023-10-20 13:45:13.38,159,-302,-2038,34,-5,21,-252,-575,323,413
,599,2023-10-20 13:45:13.39,166,-314,-2033,35,-9,19,-421,-612,191,516
,600,2023-10-20 13:45:13.40,166,-305,-2039,35,-8,20,-247,-625,378,436
,601,2023-10-20 13:45:13.41,159,-308,-2036,38,-2,24,-421,-625,204,523
,602,2023-10-20 13:45:13.42,167,-302,-2033,41,-3,22,-246,-606,360,426
,603,2023-10-20 13:45:13.43,157,-302,-2026,37,-2,24,-433,-596,163,514
,604,2023-10-20 13:45:13.44,163,-311,-2034,32,-3,25,-248,-628,380,438
,605,2023-10-20 13:45:13.45,150,-309,-2031,27,-8,23,-435,-630,195,532
,606,2023-10-20 13:45:13.46,153,-319,-2028,22,-7,28,-241,-625,384,433
,607,2023-10-20 13:45:13.47,163,-313,-2030,19,-5,37,-439,-604,165,521
,608,2023-10-20 13:45:13.48,162,-308,-2024,20,-4,38,-243,-604,361,423
,609,2023-10-20 13:45:13.49,161,-300,-2022,26,-5,33,-442,-593,151,517
,610,2023-10-20 13:45:13.50,155,-305,-2026,23,-7,33,-241,-586,345,413
,611,2023-10-20 13:45:13.51,149,-298,-2031,25,-4,29,-453,-566,113,509
,612,2023-10-20 13:45:13.52,147,-305,-2029,29,-2,28,-242,-588,346,415
,613,2023-10-20 13:45:13.53,158,-316,-2024,30,0,30,-455,-588,133,521
,614,2023-10-20 13:45:13.54,148,-304,-2015,33,2,31,-233,-624,391,428
,615,2023-10-20 13:45:13.55,135,-312,-2030,43,3,30,-450,-611,161,530
,616,2023-10-20 13:45:13.56,142,-308,-2030,49,8,29,-229,-650,421,439
,617,2023-10-20 13:45:13.57,146,-311,-2028,52,7,23,-455,-628,173,541
,618,2023-10-20 13:45:13.58,143,-306,-2026,48,11,22,-238,-640,402,439
,619,2023-10-20 13:45:13.59,155,-305,-2028,44,13,16,-460,-602,142,531
,620,2023-10-20 13:45:13.60,150,-314,-2025,47,19,8,-232,-677,445,454
,621,2023-10-20 13:45:13.61,167,-317,-2020,45,19,6,-456,-653,197,554
,622,2023-10-20 13:45:13.62,163,-324,-2030,42,23,6,-228,-631,403,429
,623,2023-10-20 13:45:13.63,161,-332,-2034,42,24,10,-457,-565,108,511
,624,2023-10-20 13:45:13.64,161,-332,-2028,40,22,18,-232,-634,402,433
,625,2023-10-20 13:45:13.65,178,-332,-2036,37,23,26,-466,-614,148,540
,626,2023-10-20 13:45:13.66,161,-338,-2032,39,21,25,-235,-618,383,426
,627,2023-10-20 13:45:13.67,160,-339,-2035,48,19,27,-466,-567,101,516
,628,2023-10-20 13:45:13.68,164,-315,-2036,46,7,26,-231,-640,409,435
,629,2023-10-20 13:45:13.69,161,-323,-2028,37,8,26,-466,-613,147,539
,630,2023-10-20 13:45:13.70,155,-319,-2041,26,5,29,-228,-684,456,456
,631,2023-10-20 13:45:13.71,166,-315,-2027,13,6,32,-462,-620,158,541
,632,2023-10-20 13:45:13.72,155,-324,-2025,8,8,39,-227,-599,372,413
,633,2023-10-20 13:45:13.73,151,-320,-2031,10,5,41,-465,-529,64,497
,634,2023-10-20 13:45:13.74,146,-329,-2020,10,5,49,-228,-619,391,423
,635,2023-10-20 13:45:13.75,155,-334,-2023,12,2,51,-464,-589,125,526
,636,2023-10-20 13:45:13.76,158,-335,-2027,10,10,59,-231,-677,446,454
,637,2023-10-20 13:45:13.77,159,-320,-2034,16,17,62,-471,-620,149,545
,638,2023-10-20 13:45:13.78,158,-310,-2022,22,25,61,-235,-645,410,440
,639,2023-10-20 13:45:13.79,169,-299,-2025,23,33,60,-469,-573,104,521
,640,2023-10-20 13:45:13.80,165,-313,-2028,24,41,59,-228,-647,419,437
,641,2023-10-20 13:45:13.81,167,-315,-2027,23,37,61,-464,-592,128,528
,642,2023-10-20 13:45:13.82,153,-312,-2028,25,38,62,-229,-672,443,450
,643,2023-10-20 13:45:13.83,173,-297,-2038,37,44,59,-466,-598,132,532
,644,2023-10-20 13:45:13.84,160,-302,-2023,37,48,57,-238,-653,415,445
,645,2023-10-20 13:45:13.85,168,-305,-2028,39,42,57,-469,-577,108,523
,646,2023-10-20 13:45:13.86,167,-321,-2030,42,39,56,-232,-679,447,455
,647,2023-10-20 13:45:13.87,173,-322,-2021,48,38,54,-458,-612,154,535
,648,2023-10-20 13:45:13.88,169,-325,-2036,55,35,60,-229,-676,447,452
,649,2023-10-20 13:45:13.89,163,-310,-2033,59,41,59,-461,-581,120,521
,650,2023-10-20 13:45:13.90,177,-293,-2033,64,32,53,-242,-625,383,433
,651,2023-10-20 13:45:13.91,181,-304,-2039,69,30,45,-460,-537,77,498
,652,2023-10-20 13:45:13.92,184,-315,-2026,73,27,34,-238,-591,353,414
,653,2023-10-20 13:45:13.93,176,-319,-2029,76,32,29,-456,-530,74,493
,654,2023-10-20 13:45:13.94,175,-324,-2029,77,33,31,-247,-659,412,453
,655,2023-10-20 13:45:13.95,172,-334,-2038,76,30,33,-454,-589,135,521
,656,2023-10-20 13:45:13.96,174,-335,-2040,79,23,35,-240,-648,408,444
,657,2023-10-20 13:45:13.97,173,-332,-2034,81,21,36,-449,-546,97,497
,658,2023-10-20 13:45:13.98,177,-321,-2025,76,21,34,-239,-606,367,422
,659,2023-10-20 13:45:13.99,172,-332,-2028,75,19,34,-446,-531,85,488
,660,2023-10-20 13:45:14.00,174,-335,-2020,78,16,28,-249,-620,371,434
,661,2023-10-20 13:45:14.01,178,-336,-2021,78,15,28,-446,-537,91,491
,662,2023-10-20 13:45:14.02,162,-348,-2014,77,16,26,-243,-587,344,415
,663,2023-10-20 13:45:14.03,175,-354,-2016,76,19,20,-435,-507,72,471
,664,2023-10-20 13:45:14.04,173,-353,-2013,77,20,22,-248,-605,357,426
,665,2023-10-20 13:45:14.05,173,-352,-2018,67,25,25,-438,-551,113,494
,666,2023-10-20 13:45:14.06,171,-358,-2036,65,29,25,-248,-683,435,465
,667,2023-10-20 13:45:14.07,178,-350,-2029,69,27,26,-430,-599,169,514
,668,2023-10-20 13:45:14.08,158,-358,-2026,68,22,28,-250,-660,410,455
,669,2023-10-20 13:45:14.09,178,-358,-2018,69,17,29,-427,-548,121,487
,670,2023-10-20 13:45:14.10,178,-342,-2026,73,14,31,-257,-635,378,446
,671,2023-10-20 13:45:14.11,171,-341,-2027,69,18,28,-428,-573,145,500
,672,2023-10-20 13:45:14.12,169,-346,-2018,56,24,22,-261,-691,430,476
,673,2023-10-20 13:45:14.13,185,-345,-2026,55,25,18,-419,-572,153,495
,674,2023-10-20 13:45:14.14,175,-349,-2021,48,35,18,-259,-609,350,434
,675,2023-10-20 13:45:14.15,185,-348,-2021,47,34,18,-413,-520,107,466
,676,2023-10-20 13:45:14.16,179,-360,-2024,48,35,17,-263,-660,397,461
,677,2023-10-20 13:45:14.17,169,-362,-2012,47,37,18,-410,-568,158,489
,678,2023-10-20 13:45:14.18,190,-361,-2016,49,38,18,-267,-599,332,433
,679,2023-10-20 13:45:14.19,187,-360,-2017,55,40,25,-404,-519,115,461
,680,2023-10-20 13:45:14.20,188,-354,-2022,56,38,22,-271,-661,390,466
,681,2023-10-20 13:45:14.21,190,-351,-2011,55,43,24,-401,-582,181,491
,682,2023-10-20 13:45:14.22,173,-355,-2020,48,36,21,-274,-643,369,458
,683,2023-10-20 13:45:14.23,181,-351,-2019,45,41,19,-391,-520,129,455
,684,2023-10-20 13:45:14.24,187,-356,-2019,41,41,18,-276,-583,307,429
,685,2023-10-20 13:45:14.25,183,-359,-2013,41,42,18,-384,-508,124,446
,686,2023-10-20 13:45:14.26,188,-357,-2020,42,46,20,-270,-626,356,448
,687,2023-10-20 13:45:14.27,192,-366,-2024,42,44,23,-376,-525,149,450
,688,2023-10-20 13:45:14.28,205,-364,-2024,42,44,25,-282,-578,296,430
,689,2023-10-20 13:45:14.29,183,-366,-2025,43,50,25,-378,-489,111,433
,690,2023-10-20 13:45:14.30,185,-349,-2034,50,48,29,-286,-576,290,431
,691,2023-10-20 13:45:14.31,180,-304,-2029,73,38,6,-371,-512,141,441
,692,2023-10-20 13:45:14.32,185,-314,-2031,77,10,-27,-288,-609,321,448
,693,2023-10-20 13:45:14.33,192,-335,-2022,48,1,-45,-368,-582,214,475
,694,2023-10-20 13:45:14.34,196,-355,-2015,19,11,-53,-295,-722,427,508
,695,2023-10-20 13:45:14.35,200,-387,-2003,0,39,-53,-366,-658,292,512
,696,2023-10-20 13:45:14.36,199,-394,-2004,6,43,-48,-299,-725,426,512
,697,2023-10-20 13:45:14.37,193,-392,-2013,24,45,-28,-356,-609,253,482
,698,2023-10-20 13:45:14.38,200,-385,-2023,31,49,-12,-302,-669,367,485
,699,2023-10-20 13:45:14.39,212,-363,-2027,38,32,9,-352,-567,215,459
,700,2023-10-20 13:45:14.40,203,-363,-2006,39,34,3,-308,-635,327,471
,701,2023-10-20 13:45:14.41,216,-359,-2016,40,43,-1,-347,-557,210,452
,702,2023-10-20 13:45:14.42,211,-367,-2006,43,42,-4,-311,-632,321,471
,703,2023-10-20 13:45:14.43,215,-373,-2017,46,42,2,-336,-558,222,447
,704,2023-10-20 13:45:14.44,208,-379,-2015,51,38,7,-316,-632,316,474
,705,2023-10-20 13:45:14.45,200,-387,-2037,48,35,12,-337,-572,235,454
,706,2023-10-20 13:45:14.46,199,-381,-2036,42,26,21,-320,-665,345,492
,707,2023-10-20 13:45:14.47,217,-378,-2022,39,20,19,-329,-590,261,459
,708,2023-10-20 13:45:14.48,217,-363,-2015,37,29,12,-327,-647,320,487
,709,2023-10-20 13:45:14.49,216,-362,-2012,39,35,1,-329,-560,231,444
,710,2023-10-20 13:45:14.50,202,-362,-2011,46,40,-8,-334,-610,276,472
,711,2023-10-20 13:45:14.51,214,-367,-2002,46,41,-18,-318,-546,228,432
,712,2023-10-20 13:45:14.52,208,-378,-2009,43,31,-28,-336,-618,282,477
,713,2023-10-20 13:45:14.53,210,-374,-2009,34,35,-27,-318,-570,252,444
,714,2023-10-20 13:45:14.54,194,-376,-2036,25,35,-21,-343,-645,302,494
,715,2023-10-20 13:45:14.55,210,-371,-2029,26,23,-20,-310,-545,235,427
,716,2023-10-20 13:45:14.56,209,-378,-1995,30,18,-25,-346,-562,216,454
,717,2023-10-20 13:45:14.57,227,-391,-2024,27,-6,-21,-301,-503,202,402
,718,2023-10-20 13:45:14.58,215,-384,-2034,22,22,-16,-347,-569,222,458
,719,2023-10-20 13:45:14.59,225,-383,-2021,16,26,-3,-298,-516,218,407
,720,2023-10-20 13:45:14.60,220,-403,-2007,14,16,6,-356,-569,213,462
,721,2023-10-20 13:45:14.61,227,-385,-2023,14,24,17,-296,-521,225,408
,722,2023-10-20 13:45:14.62,211,-394,-2019,4,26,35,-365,-585,220,475
,723,2023-10-20 13:45:14.63,211,-404,-2036,7,22,47,-294,-587,293,440
,724,2023-10-20 13:45:14.64,218,-372,-2023,15,18,52,-370,-673,303,521
,725,2023-10-20 13:45:14.65,221,-384,-2018,14,13,54,-285,-603,318,444
,726,2023-10-20 13:45:14.66,201,-380,-2011,10,13,54,-372,-615,243,493
,727,2023-10-20 13:45:14.67,225,-373,-2015,8,16,54,-278,-533,255,405
,728,2023-10-20 13:45:14.68,218,-376,-2013,4,18,53,-376,-552,176,464
,729,2023-10-20 13:45:14.69,206,-377,-2007,5,23,51,-278,-532,254,405
,730,2023-10-20 13:45:14.70,222,-391,-2012,4,19,55,-380,-595,215,487
,731,2023-10-20 13:45:14.71,213,-390,-2004,2,19,54,-272,-561,289,416
,732,2023-10-20 13:45:14.72,220,-385,-2000,7,12,58,-382,-590,208,486
,733,2023-10-20 13:45:14.73,223,-379,-2016,15,24,54,-263,-574,311,418
,734,2023-10-20 13:45:14.74,228,-391,-2018,11,22,58,-393,-626,233,509
,735,2023-10-20 13:45:14.75,227,-400,-2014,8,29,65,-268,-565,297,416
,736,2023-10-20 13:45:14.76,229,-392,-2018,6,37,74,-408,-579,171,493
,737,2023-10-20 13:45:14.77,228,-391,-2018,8,38,78,-263,-545,282,404
,738,2023-10-20 13:45:14.78,220,-386,-2019,14,36,79,-399,-576,177,487
,739,2023-10-20 13:45:14.79,225,-367,-2019,23,30,78,-254,-568,314,411
,740,2023-10-20 13:45:14.80,232,-361,-2014,26,20,67,-405,-590,185,497
,741,2023-10-20 13:45:14.81,227,-360,-2014,27,19,58,-260,-572,312,416
,742,2023-10-20 13:45:14.82,215,-372,-2014,29,24,52,-416,-598,182,507
,743,2023-10-20 13:45:14.83,216,-376,-2019,32,24,45,-254,-606,352,430
,744,2023-10-20 13:45:14.84,216,-373,-2013,38,22,41,-416,-628,212,522
,745,2023-10-20 13:45:14.85,227,-378,-2017,36,17,42,-259,-566,307,412
,746,2023-10-20 13:45:14.86,220,-374,-2014,35,20,39,-424,-544,120,484
,747,2023-10-20 13:45:14.87,221,-386,-2016,39,19,36,-248,-578,330,413
,748,2023-10-20 13:45:14.88,229,-382,-2017,34,20,37,-424,-624,200,524
,749,2023-10-20 13:45:14.89,226,-387,-2011,31,22,36,-244,-635,391,439
,750,2023-10-20 13:45:14.90,227,-382,-2009,29,16,32,-426,-620,194,523
,751,2023-10-20 13:45:14.91,223,-386,-2014,23,18,33,-235,-593,358,414
,752,2023-10-20 13:45:14.92,229,-389,-2009,14,19,32,-424,-578,154,501
,753,2023-10-20 13:45:14.93,233,-397,-2011,5,17,36,-240,-584,344,412
,754,2023-10-20 13:45:14.94,224,-402,-2006,-4,19,36,-435,-590,155,512
,755,2023-10-20 13:45:14.95,213,-387,-2021,-3,14,39,-239,-603,364,421
,756,2023-10-20 13:45:14.96,232,-388,-2007,-3,3,41,-435,-602,167,518
,757,2023-10-20 13:45:14.97,224,-380,-2010,-9,18,37,-232,-647,415,439
,758,2023-10-20 13:45:14.98,235,-379,-2005,-23,14,33,-435,-639,204,537
,759,2023-10-20 13:45:14.99,231,-392,-2015,-27,11,34,-228,-635,407,431
,760,2023-10-20 13:45:15.00,239,-379,-2013,-30,16,32,-443,-604,161,523
,761,2023-10-20 13:45:15.01,235,-386,-2016,-33,11,36,-234,-607,373,420
,762,2023-10-20 13:45:15.02,219,-384,-2010,-32,12,33,-449,-582,133,515
,763,2023-10-20 13:45:15.03,228,-385,-2011,-41,16,38,-230,-606,376,418
,764,2023-10-20 13:45:15.04,223,-388,-2015,-43,14,44,-448,-581,133,514
,765,2023-10-20 13:45:15.05,211,-384,-2016,-43,17,47,-226,-552,326,389
,766,2023-10-20 13:45:15.06,218,-388,-2048,-44,13,57,-447,-519,72,483
,767,2023-10-20 13:45:15.07,207,-338,-2032,-21,6,37,-224,-531,307,377
,768,2023-10-20 13:45:15.08,211,-325,-2007,3,-2,-5,-452,-521,69,486
,769,2023-10-20 13:45:15.09,215,-342,-2003,4,-2,-37,-228,-508,280,368
,770,2023-10-20 13:45:15.10,214,-358,-2003,-19,6,-56,-452,-492,40,472
,771,2023-10-20 13:45:15.11,225,-384,-1999,-52,6,-54,-216,-633,417,424
,772,2023-10-20 13:45:15.12,218,-414,-2010,-94,17,-35,-446,-647,201,546
,773,2023-10-20 13:45:15.13,233,-457,-2009,-124,35,5,-217,-659,442,438
,774,2023-10-20 13:45:15.14,235,-458,-2012,-114,48,53,-449,-574,125,511
,775,2023-10-20 13:45:15.15,238,-423,-2019,-83,53,89,-226,-551,325,388
,776,2023-10-20 13:45:15.16,239,-383,-2029,-59,42,109,-459,-503,44,481
,777,2023-10-20 13:45:15.17,241,-362,-2029,-53,41,117,-228,-533,305,380
,778,2023-10-20 13:45:15.18,256,-350,-1996,-66,41,130,-454,-500,46,477
,779,2023-10-20 13:45:15.19,243,-336,-2016,-71,46,131,-220,-538,318,379
,780,2023-10-20 13:45:15.20,254,-334,-2020,-75,37,131,-455,-508,53,481
,781,2023-10-20 13:45:15.21,229,-338,-2019,-76,27,137,-218,-592,374,405
,782,2023-10-20 13:45:15.22,229,-342,-2030,-86,31,144,-454,-562,108,508
,783,2023-10-20 13:45:15.23,222,-341,-2032,-97,19,148,-218,-551,333,384
,784,2023-10-20 13:45:15.24,225,-344,-2022,-101,15,151,-454,-485,31,469
,785,2023-10-20 13:45:15.25,234,-346,-2007,-106,21,151,-221,-566,345,393
,786,2023-10-20 13:45:15.26,243,-369,-1996,-106,33,160,-601,-581,-20,591
,787,2023-10-20 13:45:15.27,217,-358,-2017,-98,43,177,-1224,-881,-343,1052
,788,2023-10-20 13:45:15.28,224,-359,-2022,-83,44,198,-1162,-888,-274,1025
,789,2023-10-20 13:45:15.29,218,-332,-2033,-70,56,207,-1035,-1007,-28,1021
,790,2023-10-20 13:45:15.30,234,-316,-2016,-63,51,207,-552,-875,323,713
,791,2023-10-20 13:45:15.31,224,-315,-2022,-63,52,200,360,-957,1317,298
,792,2023-10-20 13:45:15.32,228,-312,-2016,-71,60,195,788,-842,1630,27
,793,2023-10-20 13:45:15.33,230,-298,-2037,-74,65,189,940,-953,1893,6
,794,2023-10-20 13:45:15.34,232,-311,-2038,-74,59,182,685,-848,1533,81
,795,2023-10-20 13:45:15.35,249,-309,-2024,-69,57,168,765,-962,1727,98
,796,2023-10-20 13:45:15.36,247,-300,-2019,-54,57,144,671,-849,1520,89
,797,2023-10-20 13:45:15.37,240,-301,-2023,-40,56,127,885,-956,1841,35
,798,2023-10-20 13:45:15.38,237,-319,-2025,-40,53,123,768,-840,1608,36
,799,2023-10-20 13:45:15.39,239,-311,-2043,-38,44,118,990,-959,1949,-15
,800,2023-10-20 13:45:15.40,247,-308,-2038,-41,25,118,814,-847,1661,16
,801,2023-10-20 13:45:15.41,254,-332,-2024,-44,16,112,993,-969,1962,-12
,802,2023-10-20 13:45:15.42,248,-336,-2019,-40,17,109,802,-854,1656,26
,803,2023-10-20 13:45:15.43,250,-312,-2026,-24,16,114,999,-979,1978,-10
,804,2023-10-20 13:45:15.44,244,-311,-2033,-19,16,117,810,-861,1671,25
,805,2023-10-20 13:45:15.45,244,-324,-2035,-17,18,121,998,-981,1979,-8
,806,2023-10-20 13:45:15.46,230,-301,-2044,-11,13,126,790,-858,1648,34
,807,2023-10-20 13:45:15.47,221,-290,-2038,-3,3,124,940,-979,1919,19
,808,2023-10-20 13:45:15.48,228,-287,-2034,-2,-2,117,767,-856,1623,44
,809,2023-10-20 13:45:15.49,224,-271,-2024,0,-1,95,970,-966,1936,-2
,810,2023-10-20 13:45:15.50,220,-268,-2026,5,-5,75,774,-842,1616,34
,811,2023-10-20 13:45:15.51,226,-275,-2018,6,-3,54,925,-960,1885,17
,812,2023-10-20 13:45:15.52,232,-277,-2021,0,-1,34,766,-843,1609,38
,813,2023-10-20 13:45:15.53,232,-303,-2016,-4,-1,22,990,-964,1954,-13
,814,2023-10-20 13:45:15.54,226,-320,-2023,-8,9,13,791,-848,1639,28
,815,2023-10-20 13:45:15.55,235,-330,-2018,1,14,14,930,-966,1896,18
,816,2023-10-20 13:45:15.56,231,-327,-2027,12,16,20,738,-844,1582,53
,817,2023-10-20 13:45:15.57,239,-318,-2030,19,13,26,917,-947,1864,15
,818,2023-10-20 13:45:15.58,232,-304,-2040,19,6,26,758,-838,1596,40
,819,2023-10-20 13:45:15.59,247,-286,-2032,17,-1,15,970,-964,1934,-3
,820,2023-10-20 13:45:15.60,243,-281,-2019,12,-3,-3,788,-854,1642,33
,821,2023-10-20 13:45:15.61,246,-291,-2019,8,-4,-19,946,-970,1916,12
,822,2023-10-20 13:45:15.62,243,-284,-2027,5,-3,-37,783,-850,1633,33
,823,2023-10-20 13:45:15.63,250,-295,-2031,4,-4,-49,964,-964,1928,0
,824,2023-10-20 13:45:15.64,242,-301,-2023,1,-2,-58,789,-845,1634,28
,825,2023-10-20 13:45:15.65,242,-304,-2026,3,-4,-61,957,-948,1905,-4
,826,2023-10-20 13:45:15.66,259,-309,-2027,3,-6,-59,754,-841,1595,43
,827,2023-10-20 13:45:15.67,244,-320,-2019,1,-11,-57,882,-965,1847,41
,828,2023-10-20 13:45:15.68,247,-321,-2018,1,-11,-53,741,-857,1598,58
,829,2023-10-20 13:45:15.69,237,-313,-2029,1,-8,-50,929,-965,1894,18
,830,2023-10-20 13:45:15.70,245,-311,-2032,1,-9,-49,784,-855,1639,35
,831,2023-10-20 13:45:15.71,244,-310,-2034,4,-14,-49,949,-963,1912,7
,832,2023-10-20 13:45:15.72,247,-307,-2031,8,-22,-55,803,-851,1654,24
,833,2023-10-20 13:45:15.73,244,-301,-2022,8,-28,-54,977,-952,1929,-12
,834,2023-10-20 13:45:15.74,233,-297,-2028,4,-19,-61,810,-842,1652,16
,835,2023-10-20 13:45:15.75,233,-289,-2024,1,-21,-67,956,-946,1902,-5
,836,2023-10-20 13:45:15.76,240,-307,-2017,1,-18,-69,814,-848,1662,17
,837,2023-10-20 13:45:15.77,241,-321,-2025,7,-18,-66,984,-960,1944,-12
,838,2023-10-20 13:45:15.78,243,-325,-2026,9,-20,-60,844,-867,1711,11
,839,2023-10-20 13:45:15.79,246,-330,-2018,10,-14,-54,990,-977,1967,-6
,840,2023-10-20 13:45:15.80,237,-327,-2024,7,-2,-38,819,-874,1693,27
,841,2023-10-20 13:45:15.81,237,-318,-2041,15,5,-30,944,-960,1904,8
,842,2023-10-20 13:45:15.82,228,-290,-2038,24,-2,-30,755,-860,1615,52
,843,2023-10-20 13:45:15.83,221,-266,-2018,46,1,-52,858,-954,1812,48
,844,2023-10-20 13:45:15.84,226,-250,-2012,74,-5,-89,792,-865,1657,36
,845,2023-10-20 13:45:15.85,226,-254,-2016,76,-19,-124,973,-953,1926,-10
,846,2023-10-20 13:45:15.86,227,-261,-2023,50,-28,-145,824,-857,1681,16
,847,2023-10-20 13:45:15.87,253,-280,-2024,19,-44,-165,917,-933,1850,8
,848,2023-10-20 13:45:15.88,260,-342,-2019,-17,-39,-159,772,-860,1632,44
,849,2023-10-20 13:45:15.89,249,-391,-2014,-45,-15,-124,880,-956,1836,38
,850,2023-10-20 13:45:15.90,260,-402,-2017,-38,7,-76,805,-884,1689,39
,851,2023-10-20 13:45:15.91,235,-394,-2027,-15,15,-29,948,-965,1913,8
,852,2023-10-20 13:45:15.92,232,-345,-2041,14,-1,1,852,-883,1735,15
,853,2023-10-20 13:45:15.93,260,-311,-2035,22,-19,17,945,-947,1892,1
,854,2023-10-20 13:45:15.94,240,-301,-2038,13,-26,16,859,-871,1730,6
,855,2023-10-20 13:45:15.95,226,-281,-2046,-1,-30,15,968,-944,1912,-12
,856,2023-10-20 13:45:15.96,245,-290,-2043,-16,-42,16,848,-877,1725,14
,857,2023-10-20 13:45:15.97,238,-290,-2032,-23,-53,4,900,-950,1850,25
,858,2023-10-20 13:45:15.98,233,-297,-2034,-18,-59,-4,816,-877,1693,30
,859,2023-10-20 13:45:15.99,243,-300,-2032,-19,-60,-6,895,-931,1826,18
,860,2023-10-20 13:45:16.00,212,-297,-2035,-17,-60,-13,832,-878,1710,23
,861,2023-10-20 13:45:16.01,224,-277,-2029,-16,-59,-23,910,-950,1860,20
,862,2023-10-20 13:45:16.02,228,-289,-2028,-24,-60,-29,833,-902,1735,34
,863,2023-10-20 13:45:16.03,226,-315,-2036,-35,-61,-26,908,-947,1855,19
,864,2023-10-20 13:45:16.04,238,-333,-2016,-43,-53,-15,866,-898,1764,16
,865,2023-10-20 13:45:16.05,230,-329,-2014,-52,-43,2,915,-945,1860,15
,866,2023-10-20 13:45:16.06,219,-325,-2031,-57,-37,25,879,-895,1774,8
,867,2023-10-20 13:45:16.07,222,-312,-2050,-49,-40,39,926,-932,1858,3
,868,2023-10-20 13:45:16.08,220,-286,-2038,-34,-48,47,878,-898,1776,10
,869,2023-10-20 13:45:16.09,223,-269,-2029,-27,-59,42,916,-937,1853,10
,870,2023-10-20 13:45:16.10,213,-258,-2036,-24,-61,23,886,-906,1792,10
,871,2023-10-20 13:45:16.11,216,-265,-2038,-20,-64,6,922,-937,1859,7
,872,2023-10-20 13:45:16.12,197,-271,-2027,-17,-76,-1,883,-901,1784,9
,873,2023-10-20 13:45:16.13,186,-266,-2035,-24,-75,-6,890,-920,1810,15
,874,2023-10-20 13:45:16.14,192,-278,-2016,-40,-73,-14,852,-882,1734,15
,875,2023-10-20 13:45:16.15,195,-292,-2021,-44,-70,-19,868,-895,1763,13
,876,2023-10-20 13:45:16.16,185,-296,-2024,-43,-69,-16,853,-881,1734,14
,877,2023-10-20 13:45:16.17,189,-283,-2008,-36,-60,-9,866,-902,1768,18
,878,2023-10-20 13:45:16.18,184,-287,-2008,-37,-45,-5,865,-889,1754,12
,879,2023-10-20 13:45:16.19,189,-278,-2036,-36,-28,-5,883,-896,1779,6
,880,2023-10-20 13:45:16.20,186,-274,-2020,-26,-13,-9,904,-897,1801,-3
,881,2023-10-20 13:45:16.21,192,-259,-2024,-10,-10,-10,898,-911,1809,6
,882,2023-10-20 13:45:16.22,204,-251,-2014,6,1,-19,913,-913,1826,0
,883,2023-10-20 13:45:16.23,195,-248,-2033,22,16,-32,890,-911,1801,10
,884,2023-10-20 13:45:16.24,205,-255,-2045,30,19,-38,930,-908,1838,-11
,885,2023-10-20 13:45:16.25,217,-258,-2040,32,19,-42,901,-901,1802,0
,886,2023-10-20 13:45:16.26,210,-248,-2022,34,25,-44,911,-913,1824,1
,887,2023-10-20 13:45:16.27,200,-260,-2039,36,26,-51,863,-904,1767,20
,888,2023-10-20 13:45:16.28,210,-262,-2037,40,15,-52,904,-908,1812,2
,889,2023-10-20 13:45:16.29,210,-265,-2044,38,6,-51,868,-887,1755,9
,890,2023-10-20 13:45:16.30,205,-268,-2034,38,-7,-54,927,-922,1849,-2
,891,2023-10-20 13:45:16.31,219,-264,-2037,38,-14,-56,875,-912,1787,18
,892,2023-10-20 13:45:16.32,226,-268,-2043,40,-21,-55,928,-938,1866,5
,893,2023-10-20 13:45:16.33,218,-286,-2027,42,-24,-57,864,-906,1770,21
,894,2023-10-20 13:45:16.34,217,-281,-2042,46,-27,-56,951,-932,1883,-9
,895,2023-10-20 13:45:16.35,212,-284,-2028,48,-26,-49,881,-899,1780,9
,896,2023-10-20 13:45:16.36,217,-287,-2037,50,-26,-39,854,-920,1774,33
,897,2023-10-20 13:45:16.37,210,-297,-2036,51,-25,-33,787,-873,1660,43
,898,2023-10-20 13:45:16.38,211,-298,-2023,53,-25,-26,838,-910,1748,36
,899,2023-10-20 13:45:16.39,206,-293,-2029,53,-29,-22,798,-872,1670,37
,900,2023-10-20 13:45:16.40,218,-291,-2022,48,-24,-18,850,-939,1789,44
,901,2023-10-20 13:45:16.41,215,-287,-2015,47,-21,-11,800,-897,1697,48
,902,2023-10-20 13:45:16.42,210,-296,-2016,49,-22,-12,941,-944,1885,1
,903,2023-10-20 13:45:16.43,199,-312,-2022,50,-13,-7,868,-882,1750,7
,904,2023-10-20 13:45:16.44,222,-303,-2030,54,-5,-6,974,-931,1905,-21
,905,2023-10-20 13:45:16.45,224,-295,-2039,48,-8,-2,858,-877,1735,9
,906,2023-10-20 13:45:16.46,204,-297,-2029,38,-4,-6,955,-942,1897,-6
,907,2023-10-20 13:45:16.47,198,-309,-2036,28,-6,1,848,-881,1729,16
,908,2023-10-20 13:45:16.48,190,-304,-2042,21,0,12,942,-925,1867,-8
,909,2023-10-20 13:45:16.49,205,-300,-2036,24,0,13,827,-856,1683,14
,910,2023-10-20 13:45:16.50,197,-284,-2018,34,-10,2,938,-930,1868,-4
,911,2023-10-20 13:45:16.51,210,-270,-2003,43,-12,-15,825,-873,1698,24
,912,2023-10-20 13:45:16.52,203,-289,-2018,40,-4,-20,873,-938,1811,32
,913,2023-10-20 13:45:16.53,195,-284,-2026,39,3,-23,760,-865,1625,52
,914,2023-10-20 13:45:16.54,198,-274,-2023,44,-1,-35,891,-955,1846,32
,915,2023-10-20 13:45:16.55,194,-260,-2034,44,-8,-46,798,-884,1682,43
,916,2023-10-20 13:45:16.56,187,-266,-2049,32,-19,-52,914,-953,1867,19
,917,2023-10-20 13:45:16.57,196,-279,-2052,18,-23,-58,796,-865,1661,34
,918,2023-10-20 13:45:16.58,181,-292,-2054,5,-31,-58,899,-954,1853,27
,919,2023-10-20 13:45:16.59,191,-298,-2021,1,-33,-62,788,-873,1661,42
,920,2023-10-20 13:45:16.60,200,-318,-2031,2,-37,-57,980,-941,1921,-19
,921,2023-10-20 13:45:16.61,192,-311,-2036,11,-33,-53,833,-848,1681,7
,922,2023-10-20 13:45:16.62,195,-311,-2017,29,-32,-57,862,-945,1807,41
,923,2023-10-20 13:45:16.63,197,-329,-2002,34,-21,-52,732,-861,1593,64
,924,2023-10-20 13:45:16.64,196,-342,-2024,33,-10,-37,924,-950,1874,13
,925,2023-10-20 13:45:16.65,201,-316,-2018,34,-8,-32,815,-857,1672,21
,926,2023-10-20 13:45:16.66,189,-315,-2040,34,-9,-30,1017,-941,1958,-38
,927,2023-10-20 13:45:16.67,181,-310,-2041,22,-11,-23,840,-844,1684,2
,928,2023-10-20 13:45:16.68,195,-296,-2037,14,-18,-30,994,-943,1937,-25
,929,2023-10-20 13:45:16.69,190,-296,-2037,6,-30,-45,818,-847,1665,14
,930,2023-10-20 13:45:16.70,194,-318,-2009,-5,-39,-51,963,-942,1905,-10
,931,2023-10-20 13:45:16.71,196,-310,-2029,-17,-27,-53,783,-842,1625,29
,932,2023-10-20 13:45:16.72,192,-315,-2031,-11,-28,-50,901,-948,1849,23
,933,2023-10-20 13:45:16.73,187,-310,-2037,-8,-32,-44,752,-848,1600,48
,934,2023-10-20 13:45:16.74,207,-317,-2025,-17,-37,-39,959,-946,1905,-6
,935,2023-10-20 13:45:16.75,221,-348,-2016,-33,-44,-30,793,-836,1629,21
,936,2023-10-20 13:45:16.76,203,-395,-2024,-49,-33,4,884,-931,1815,23
,937,2023-10-20 13:45:16.77,195,-354,-2047,-45,-10,45,714,-828,1542,57
,938,2023-10-20 13:45:16.78,195,-329,-2038,-36,-14,73,884,-942,1826,29
,939,2023-10-20 13:45:16.79,187,-285,-2039,-26,-15,74,749,-843,1592,47
,940,2023-10-20 13:45:16.80,194,-266,-2039,-25,-23,70,1001,-950,1951,-25
,941,2023-10-20 13:45:16.81,171,-258,-2043,-23,-29,67,808,-845,1653,18
,942,2023-10-20 13:45:16.82,167,-247,-2047,-7,-38,52,976,-961,1937,-7
,943,2023-10-20 13:45:16.83,160,-244,-2042,9,-52,33,782,-853,1635,35
,944,2023-10-20 13:45:16.84,159,-255,-2048,15,-65,16,985,-963,1948,-11
,945,2023-10-20 13:45:16.85,189,-268,-2019,13,-75,-1,804,-849,1653,22
,946,2023-10-20 13:45:16.86,171,-276,-2001,14,-79,-26,1025,-977,2002,-24
,947,2023-10-20 13:45:16.87,176,-306,-2013,5,-72,-35,808,-863,1671,27
,948,2023-10-20 13:45:16.88,167,-312,-2042,-12,-55,-20,1003,-966,1969,-18
,949,2023-10-20 13:45:16.89,173,-309,-2033,-9,-55,-2,795,-845,1640,25
,950,2023-10-20 13:45:16.90,182,-318,-2012,3,-56,4,1009,-969,1978,-20
,951,2023-10-20 13:45:16.91,161,-308,-2030,4,-48,6,808,-854,1662,23
,952,2023-10-20 13:45:16.92,161,-298,-2050,-1,-45,17,1018,-986,2004,-16
,953,2023-10-20 13:45:16.93,155,-276,-2041,4,-48,21,811,-863,1674,26
,954,2023-10-20 13:45:16.94,146,-277,-2041,8,-49,27,996,-973,1969,-11
,955,2023-10-20 13:45:16.95,163,-263,-2042,2,-53,26,784,-844,1628,30
,956,2023-10-20 13:45:16.96,155,-270,-2037,-13,-60,22,986,-946,1932,-20
,957,2023-10-20 13:45:16.97,144,-260,-2033,-26,-57,21,777,-830,1607,26
,958,2023-10-20 13:45:16.98,151,-273,-2030,-29,-61,18,890,-977,1867,43
,959,2023-10-20 13:45:16.99,147,-271,-2031,-30,-65,16,667,-863,1530,98
,960,2023-10-20 13:45:17.00,151,-262,-2016,-30,-63,14,713,-971,1684,129
,961,2023-10-20 13:45:17.01,149,-260,-2038,-36,-59,7,544,-840,1384,148
,962,2023-10-20 13:45:17.02,160,-265,-2029,-37,-50,2,592,-948,1540,178
,963,2023-10-20 13:45:17.03,153,-262,-2024,-31,-44,-6,459,-828,1287,184
,964,2023-10-20 13:45:17.04,150,-246,-2023,-26,-39,-11,416,-948,1364,266
,965,2023-10-20 13:45:17.05,150,-265,-2024,-23,-26,-13,312,-836,1148,262
,966,2023-10-20 13:45:17.06,152,-278,-2028,-24,-16,-8,290,-963,1253,336
,967,2023-10-20 13:45:17.07,148,-283,-2013,-14,-8,-6,244,-842,1086,299
,968,2023-10-20 13:45:17.08,152,-293,-2015,-7,4,2,258,-953,1211,347
,969,2023-10-20 13:45:17.09,147,-309,-2038,-5,19,21,161,-718,879,278
,970,2023-10-20 13:45:17.10,155,-297,-2022,6,21,27,242,-566,808,162
,971,2023-10-20 13:45:17.11,129,-291,-2032,10,29,46,-77,-409,332,243
,972,2023-10-20 13:45:17.12,148,-285,-2062,9,40,64,-70,-548,478,309
,973,2023-10-20 13:45:17.13,137,-215,-2026,37,46,32,-231,-512,281,371
,974,2023-10-20 13:45:17.14,151,-241,-2031,46,49,0,-110,-588,478,349
,975,2023-10-20 13:45:17.15,145,-243,-2022,45,57,-35,-234,-494,260,364
,976,2023-10-20 13:45:17.16,147,-257,-2030,50,65,-57,-128,-606,478,367
,977,2023-10-20 13:45:17.17,132,-264,-2040,50,63,-71,-258,-516,258,387
,978,2023-10-20 13:45:17.18,140,-277,-2035,46,55,-75,-157,-553,396,355
,979,2023-10-20 13:45:17.19,135,-292,-2043,39,49,-78,-267,-471,204,369
,980,2023-10-20 13:45:17.20,139,-300,-2040,25,46,-77,-186,-600,414,393
,981,2023-10-20 13:45:17.21,147,-301,-2035,14,51,-69,-289,-500,211,394
,982,2023-10-20 13:45:17.22,157,-282,-2033,11,52,-63,-214,-534,320,374
,983,2023-10-20 13:45:17.23,157,-277,-2033,5,60,-66,-302,-429,127,365
,984,2023-10-20 13:45:17.24,157,-287,-2025,-9,68,-70,-219,-502,283,360
,985,2023-10-20 13:45:17.25,149,-297,-2031,-36,74,-58,-305,-423,118,364
,986,2023-10-20 13:45:17.26,168,-296,-2038,-59,87,-42,-240,-479,239,359
,987,2023-10-20 13:45:17.27,172,-292,-2034,-70,90,-30,-312,-415,103,363
,988,2023-10-20 13:45:17.28,188,-272,-2038,-86,96,-21,-255,-510,255,382
,989,2023-10-20 13:45:17.29,180,-257,-2040,-91,104,-14,-313,-440,127,376
,990,2023-10-20 13:45:17.30,195,-240,-2045,-86,106,-15,-256,-518,262,387
,991,2023-10-20 13:45:17.31,196,-228,-2046,-85,107,-23,-313,-454,141,383
,992,2023-10-20 13:45:17.32,196,-210,-2046,-89,107,-32,-266,-537,271,401
,993,2023-10-20 13:45:17.33,208,-211,-2047,-85,105,-44,-312,-463,151,387
,994,2023-10-20 13:45:17.34,218,-217,-2033,-76,96,-56,-280,-534,254,407
,995,2023-10-20 13:45:17.35,217,-230,-2020,-72,90,-67,-314,-455,141,384
,996,2023-10-20 13:45:17.36,242,-241,-2021,-53,79,-76,-287,-532,245,409
,997,2023-10-20 13:45:17.37,237,-233,-2047,-43,77,-74,-316,-426,110,371
,998,2023-10-20 13:45:17.38,234,-230,-2043,-38,80,-70,-299,-444,145,371
,999,2023-10-20 13:45:17.39,228,-214,-2047,-20,66,-80,-313,-367,54,340
,1000,2023-10-20 13:45:17.40,236,-200,-2055,-12,48,-92,-306,-457,151,381
,1001,2023-10-20 13:45:17.41,238,-208,-2054,-20,23,-101,-304,-445,141,374
,1002,2023-10-20 13:45:17.42,244,-228,-2048,-34,11,-106,-304,-555,251,429
,1003,2023-10-20 13:45:17.43,238,-258,-2040,-30,13,-97,-300,-503,203,401
,1004,2023-10-20 13:45:17.44,239,-276,-2041,-17,18,-80,-311,-569,258,440
,1005,2023-10-20 13:45:17.45,225,-271,-2034,3,21,-57,-300,-440,140,370
,1006,2023-10-20 13:45:17.46,226,-271,-2039,10,22,-36,-317,-442,125,379
,1007,2023-10-20 13:45:17.47,233,-260,-2038,11,22,-13,-295,-400,105,347
,1008,2023-10-20 13:45:17.48,222,-242,-2045,21,21,-3,-329,-512,183,420
,1009,2023-10-20 13:45:17.49,221,-231,-2034,23,22,8,-295,-500,205,397
,1010,2023-10-20 13:45:17.50,225,-218,-2034,22,15,14,-338,-589,251,463
,1011,2023-10-20 13:45:17.51,227,-228,-2036,18,17,11,-296,-495,199,395
,1012,2023-10-20 13:45:17.52,210,-230,-2035,10,12,7,-339,-509,170,424
,1013,2023-10-20 13:45:17.53,219,-235,-2034,8,5,6,-282,-438,156,360
,1014,2023-10-20 13:45:17.54,223,-245,-2035,6,13,12,-342,-494,152,418
,1015,2023-10-20 13:45:17.55,223,-246,-2033,12,21,15,-280,-452,172,366
,1016,2023-10-20 13:45:17.56,230,-245,-2035,22,23,16,-350,-515,165,432
,1017,2023-10-20 13:45:17.57,219,-246,-2034,30,27,18,-284,-455,171,369
,1018,2023-10-20 13:45:17.58,240,-230,-2033,42,32,17,-362,-505,143,433
,1019,2023-10-20 13:45:17.59,237,-223,-2038,46,38,13,-280,-439,159,359
,1020,2023-10-20 13:45:17.60,234,-221,-2049,54,34,6,-360,-476,116,418
,1021,2023-10-20 13:45:17.61,218,-226,-2048,53,26,1,-271,-450,179,360
,1022,2023-10-20 13:45:17.62,220,-225,-2059,51,19,-2,-367,-520,153,443
,1023,2023-10-20 13:45:17.63,208,-226,-2062,44,12,-3,-274,-510,236,392
,1024,2023-10-20 13:45:17.64,201,-226,-2053,39,-2,1,-370,-541,171,455
,1025,2023-10-20 13:45:17.65,200,-222,-2053,35,-6,3,-265,-523,258,394
,1026,2023-10-20 13:45:17.66,202,-212,-2046,29,-11,1,-386,-592,206,489
,1027,2023-10-20 13:45:17.67,220,-216,-2032,24,-11,-1,-264,-506,242,385
,1028,2023-10-20 13:45:17.68,220,-217,-2036,26,-7,-5,-386,-503,117,444
,1029,2023-10-20 13:45:17.69,224,-228,-2041,26,-4,-9,-259,-480,221,369
,1030,2023-10-20 13:45:17.70,209,-256,-1993,33,-2,-12,-385,-531,146,458
,1031,2023-10-20 13:45:17.71,209,-237,-2043,54,-29,-11,-258,-518,260,388
,1032,2023-10-20 13:45:17.72,230,-226,-2035,53,-15,-8,-393,-559,166,476
,1033,2023-10-20 13:45:17.73,234,-219,-2013,42,-11,-9,-250,-507,257,378
,1034,2023-10-20 13:45:17.74,240,-254,-2025,37,-7,-8,-396,-525,129,460
,1035,2023-10-20 13:45:17.75,214,-255,-2044,42,-12,-6,-247,-419,172,333
,1036,2023-10-20 13:45:17.76,239,-253,-2035,46,-23,1,-400,-393,-7,396
,1037,2023-10-20 13:45:17.77,250,-264,-2033,40,-20,12,-246,-331,85,288
,1038,2023-10-20 13:45:17.78,250,-276,-2020,40,-11,12,-407,-370,-37,388
,1039,2023-10-20 13:45:17.79,214,-309,-2048,33,7,35,-238,-399,161,318
,1040,2023-10-20 13:45:17.80,198,-251,-2090,49,10,61,-409,-478,69,443
,1041,2023-10-20 13:45:17.81,200,-228,-2060,64,-12,54,-241,-481,240,361
,1042,2023-10-20 13:45:17.82,206,-226,-2032,60,-31,28,-418,-502,84,460
,1043,2023-10-20 13:45:17.83,213,-246,-2021,50,-42,2,-239,-549,310,394
,1044,2023-10-20 13:45:17.84,212,-266,-1992,54,-36,-17,-414,-583,169,498
,1045,2023-10-20 13:45:17.85,212,-299,-2001,66,-17,-19,-230,-536,306,383
,1046,2023-10-20 13:45:17.86,208,-295,-2011,79,-12,-13,-420,-518,98,469
,1047,2023-10-20 13:45:17.87,201,-294,-2016,91,-7,-10,-233,-490,257,361
,1048,2023-10-20 13:45:17.88,195,-301,-2022,97,-5,-4,-427,-502,75,464
,1049,2023-10-20 13:45:17.89,216,-292,-2028,102,4,5,-232,-504,272,368
,1050,2023-10-20 13:45:17.90,200,-295,-2021,99,7,12,-433,-521,88,477
,1051,2023-10-20 13:45:17.91,204,-288,-2017,101,7,15,-232,-500,268,366
,1052,2023-10-20 13:45:17.92,204,-290,-2013,100,13,15,-434,-496,62,465
,1053,2023-10-20 13:45:17.93,195,-290,-2032,97,20,11,-228,-510,282,369
,1054,2023-10-20 13:45:17.94,192,-278,-2031,105,29,7,-438,-527,89,482
,1055,2023-10-20 13:45:17.95,195,-262,-2034,113,34,-8,-224,-566,342,395
,1056,2023-10-20 13:45:17.96,190,-284,-2047,123,35,-32,-438,-576,138,507
,1057,2023-10-20 13:45:17.97,196,-257,-2041,143,40,-64,-224,-531,307,377
,1058,2023-10-20 13:45:17.98,208,-211,-2003,165,41,-106,-437,-484,47,460
,1059,2023-10-20 13:45:17.99,229,-280,-2014,140,34,-111,-220,-438,218,329
,1060,2023-10-20 13:45:18.00,217,-299,-2028,93,41,-108,-441,-433,-8,437
,1061,2023-10-20 13:45:18.01,223,-331,-2028,64,39,-89,-213,-484,271,348
,1062,2023-10-20 13:45:18.02,228,-384,-2033,55,51,-54,-448,-512,64,480
,1063,2023-10-20 13:45:18.03,219,-361,-2044,61,64,-18,-225,-503,278,364
,1064,2023-10-20 13:45:18.04,227,-303,-2050,76,66,4,-451,-490,39,470
,1065,2023-10-20 13:45:18.05,230,-278,-2047,79,69,0,-219,-467,248,343
,1066,2023-10-20 13:45:18.06,230,-253,-2033,80,51,-20,-447,-454,7,450
,1067,2023-10-20 13:45:18.07,224,-292,-2037,73,32,-33,-219,-393,174,306
,1068,2023-10-20 13:45:18.08,206,-305,-2037,67,13,-36,-448,-370,-78,409
,1069,2023-10-20 13:45:18.09,208,-285,-2036,66,-4,-50,-213,-394,181,303
,1070,2023-10-20 13:45:18.10,219,-277,-2020,59,-19,-64,-446,-416,-30,431
,1071,2023-10-20 13:45:18.11,221,-262,-2010,64,-31,-90,-221,-474,253,347
,1072,2023-10-20 13:45:18.12,219,-279,-2027,80,-28,-127,-451,-475,24,463
,1073,2023-10-20 13:45:18.13,205,-273,-2024,91,-29,-151,-217,-634,417,425
,1074,2023-10-20 13:45:18.14,215,-293,-2029,94,-30,-179,-451,-630,179,540
,1075,2023-10-20 13:45:18.15,206,-349,-2042,81,-25,-187,-217,-542,325,379
,1076,2023-10-20 13:45:18.16,197,-356,-2033,69,-5,-179,-453,-437,-16,445
,1077,2023-10-20 13:45:18.17,204,-342,-2044,67,4,-161,-221,-390,169,305
,1078,2023-10-20 13:45:18.18,217,-351,-2043,62,20,-147,-456,-383,-73,419
,1079,2023-10-20 13:45:18.19,212,-320,-2048,56,40,-135,-226,-480,254,353
,1080,2023-10-20 13:45:18.20,209,-291,-2048,45,58,-123,-456,-483,27,469
,1081,2023-10-20 13:45:18.21,194,-262,-2038,42,69,-122,-218,-447,229,332
,1082,2023-10-20 13:45:18.22,175,-261,-2052,44,69,-132,-452,-410,-42,431
,1083,2023-10-20 13:45:18.23,198,-230,-2051,60,61,-163,-218,-577,359,397
,1084,2023-10-20 13:45:18.24,182,-202,-2045,67,29,-207,-450,-578,128,514
,1085,2023-10-20 13:45:18.25,241,-244,-1982,83,-4,-259,-214,-587,373,400
,1086,2023-10-20 13:45:18.26,229,-277,-2020,92,5,-300,-449,-501,52,475
,1087,2023-10-20 13:45:18.27,233,-318,-2013,94,17,-314,-224,-542,318,383
,1088,2023-10-20 13:45:18.28,225,-324,-2024,97,24,-329,-454,-504,50,479
,1089,2023-10-20 13:45:18.29,230,-320,-2000,90,31,-333,-228,-595,367,411
,1090,2023-10-20 13:45:18.30,234,-321,-2008,77,41,-334,-450,-538,88,494
,1091,2023-10-20 13:45:18.31,241,-310,-2020,66,38,-339,-231,-542,311,386
,1092,2023-10-20 13:45:18.32,252,-324,-2016,46,31,-346,-450,-464,14,457
,1093,2023-10-20 13:45:18.33,248,-374,-1970,34,35,-348,-234,-521,287,377
,1094,2023-10-20 13:45:18.34,257,-336,-2052,39,8,-334,-445,-436,-9,440
,1095,2023-10-20 13:45:18.35,254,-338,-2030,10,5,-323,-231,-314,83,272
,1096,2023-10-20 13:45:18.36,242,-342,-2037,-34,19,-314,-448,-323,-125,385
,1097,2023-10-20 13:45:18.37,243,-372,-2027,-61,17,-308,-239,-691,452,465
,1098,2023-10-20 13:45:18.38,236,-363,-2041,-69,13,-290,-447,-699,252,573
,1099,2023-10-20 13:45:18.39,258,-356,-2042,-72,6,-266,-251,-699,448,475
,1100,2023-10-20 13:45:18.40,258,-353,-2029,-82,9,-248,-448,-524,76,486
,1101,2023-10-20 13:45:18.41,272,-321,-2026,-92,21,-238,-243,-492,249,367
,1102,2023-10-20 13:45:18.42,260,-342,-2025,-91,35,-220,-430,-411,-19,420
,1103,2023-10-20 13:45:18.43,271,-320,-2031,-88,44,-201,-235,-501,266,368
,1104,2023-10-20 13:45:18.44,269,-330,-2016,-93,45,-183,-426,-445,19,435
,1105,2023-10-20 13:45:18.45,291,-322,-1995,-97,43,-164,-243,-505,262,374
,1106,2023-10-20 13:45:18.46,272,-304,-1979,-82,35,-160,-423,-432,9,427
,1107,2023-10-20 13:45:18.47,278,-252,-1962,30,8,-172,-240,-507,267,373
,1108,2023-10-20 13:45:18.48,262,-236,-1951,99,-15,-199,-421,-450,29,435
,1109,2023-10-20 13:45:18.49,265,-246,-1951,143,-17,-224,-246,-569,323,407
,1110,2023-10-20 13:45:18.50,246,-213,-1972,149,-24,-252,-421,-502,81,461
,1111,2023-10-20 13:45:18.51,269,-274,-2017,109,-37,-234,-255,-533,278,394
,1112,2023-10-20 13:45:18.52,276,-303,-2054,53,-55,-212,-410,-437,27,423
,1113,2023-10-20 13:45:18.53,260,-308,-2078,-11,-55,-189,-248,-536,288,392
,1114,2023-10-20 13:45:18.54,251,-344,-2091,-75,-44,-154,-402,-470,68,436
,1115,2023-10-20 13:45:18.55,244,-353,-2114,-114,-43,-115,-253,-536,283,394
,1116,2023-10-20 13:45:18.56,242,-274,-2156,-148,-37,-66,-401,-442,41,421
,1117,2023-10-20 13:45:18.57,255,-223,-2120,-175,-34,-46,-248,-496,248,372
,1118,2023-10-20 13:45:18.58,231,-228,-2112,-210,-28,-49,-390,-393,3,391
,1119,2023-10-20 13:45:18.59,234,-237,-2081,-243,-32,-62,-253,-425,172,339
,1120,2023-10-20 13:45:18.60,212,-233,-2051,-255,-46,-86,-381,-383,2,382
,1121,2023-10-20 13:45:18.61,215,-254,-2068,-254,-60,-99,-251,-512,261,381
,1122,2023-10-20 13:45:18.62,218,-238,-2058,-247,-66,-113,-383,-458,75,420
,1123,2023-10-20 13:45:18.63,220,-250,-2013,-223,-71,-127,-263,-524,261,393
,1124,2023-10-20 13:45:18.64,207,-216,-2027,-221,-56,-140,-382,-431,49,406
,1125,2023-10-20 13:45:18.65,215,-248,-2032,-227,-46,-147,-272,-502,230,387
,1126,2023-10-20 13:45:18.66,196,-241,-2039,-230,-39,-147,-373,-400,27,386
,1127,2023-10-20 13:45:18.67,199,-223,-2016,-207,-60,-156,-270,-415,145,342
,1128,2023-10-20 13:45:18.68,227,-183,-2007,-178,-99,-185,-371,-346,-25,358
,1129,2023-10-20 13:45:18.69,245,-161,-1989,-186,-153,-217,-275,-430,155,352
,1130,2023-10-20 13:45:18.70,257,-179,-1975,-220,-155,-253,-365,-392,27,378
,1131,2023-10-20 13:45:18.71,279,-196,-1967,-264,-141,-264,-283,-506,223,394
,1132,2023-10-20 13:45:18.72,272,-219,-2011,-305,-125,-231,-360,-465,105,412
,1133,2023-10-20 13:45:18.73,297,-223,-2022,-337,-115,-180,-283,-563,280,423
,1134,2023-10-20 13:45:18.74,305,-214,-2011,-353,-125,-144,-354,-507,153,430
,1135,2023-10-20 13:45:18.75,309,-185,-2010,-372,-126,-120,-288,-608,320,448
,1136,2023-10-20 13:45:18.76,321,-170,-2030,-373,-121,-109,-343,-504,161,423
,1137,2023-10-20 13:45:18.77,325,-140,-2035,-349,-118,-104,-282,-559,277,420
,1138,2023-10-20 13:45:18.78,332,-132,-2024,-306,-121,-106,-332,-396,64,364
,1139,2023-10-20 13:45:18.79,336,-140,-2031,-260,-120,-114,-288,-348,60,318
,1140,2023-10-20 13:45:18.80,334,-152,-2044,-225,-121,-116,-331,-257,-74,294
,1141,2023-10-20 13:45:18.81,322,-146,-2047,-194,-109,-112,-295,-328,33,311
,1142,2023-10-20 13:45:18.82,320,-144,-2060,-151,-94,-97,-326,-336,10,331
,1143,2023-10-20 13:45:18.83,318,-158,-2044,-132,-78,-72,-294,-466,172,380
,1144,2023-10-20 13:45:18.84,308,-135,-2042,-111,-68,-54,-321,-446,125,383
,1145,2023-10-20 13:45:18.85,299,-138,-2034,-94,-62,-38,-307,-533,226,420
,1146,2023-10-20 13:45:18.86,282,-130,-2040,-79,-60,-21,-323,-440,117,381
,1147,2023-10-20 13:45:18.87,289,-114,-2022,-48,-58,-13,-309,-466,157,387
,1148,2023-10-20 13:45:18.88,273,-115,-2039,-18,-56,0,-313,-364,51,338
,1149,2023-10-20 13:45:18.89,272,-113,-2044,-7,-45,12,-316,-393,77,354
,1150,2023-10-20 13:45:18.90,259,-117,-2037,-5,-30,17,-306,-354,48,330
,1151,2023-10-20 13:45:18.91,253,-118,-2038,4,-12,20,-320,-463,143,391
,1152,2023-10-20 13:45:18.92,269,-126,-2054,8,-2,29,-313,-404,91,358
,1153,2023-10-20 13:45:18.93,259,-121,-2046,10,9,39,-323,-411,88,367
,1154,2023-10-20 13:45:18.94,263,-126,-2051,15,20,43,-296,-366,70,331
,1155,2023-10-20 13:45:18.95,249,-135,-2037,19,34,40,-327,-467,140,397
,1156,2023-10-20 13:45:18.96,255,-144,-2041,20,41,44,-290,-371,81,330
,1157,2023-10-20 13:45:18.97,245,-149,-2049,23,46,48,-333,-386,53,359
,1158,2023-10-20 13:45:18.98,244,-138,-2043,31,47,50,-292,-372,80,332
,1159,2023-10-20 13:45:18.99,253,-131,-2044,38,44,47,-344,-489,145,416
,1160,2023-10-20 13:45:19.00,241,-126,-2037,40,45,39,-289,-478,189,383
,1161,2023-10-20 13:45:19.01,238,-117,-2038,38,46,28,-353,-546,193,449
,1162,2023-10-20 13:45:19.02,235,-136,-2048,28,48,24,-286,-473,187,379
,1163,2023-10-20 13:45:19.03,233,-145,-2050,12,47,27,-354,-507,153,430
,1164,2023-10-20 13:45:19.04,226,-141,-2058,-2,41,36,-276,-430,154,353
,1165,2023-10-20 13:45:19.05,242,-124,-2049,-19,29,44,-355,-465,110,410
,1166,2023-10-20 13:45:19.06,237,-116,-2042,-40,17,44,-273,-359,86,316
,1167,2023-10-20 13:45:19.07,228,-105,-2040,-56,15,44,-364,-369,5,366
,1168,2023-10-20 13:45:19.08,234,-94,-2029,-76,7,47,-267,-350,83,308
,1169,2023-10-20 13:45:19.09,226,-80,-2029,-97,0,46,-372,-455,83,413
,1170,2023-10-20 13:45:19.10,229,-82,-2036,-114,-11,41,-271,-486,215,378
,1171,2023-10-20 13:45:19.11,230,-82,-2041,-125,-25,37,-376,-562,186,469
,1172,2023-10-20 13:45:19.12,226,-104,-2040,-141,-36,37,-262,-518,256,390
,1173,2023-10-20 13:45:19.13,217,-90,-2050,-146,-44,39,-381,-535,154,458
,1174,2023-10-20 13:45:19.14,207,-103,-2063,-152,-44,47,-260,-501,241,380
,1175,2023-10-20 13:45:19.15,193,-94,-2063,-156,-46,57,-392,-549,157,470
,1176,2023-10-20 13:45:19.16,211,-92,-2065,-154,-54,67,-260,-496,236,378
,1177,2023-10-20 13:45:19.17,201,-90,-2060,-152,-43,70,-389,-519,130,454
,1178,2023-10-20 13:45:19.18,198,-82,-2046,-150,-29,74,-256,-476,220,366
,1179,2023-10-20 13:45:19.19,196,-94,-2051,-146,-17,81,-402,-512,110,457
,1180,2023-10-20 13:45:19.20,196,-72,-2051,-139,-7,89,-251,-491,240,371
,1181,2023-10-20 13:45:19.21,196,-63,-2051,-141,-1,93,-401,-531,130,466
,1182,2023-10-20 13:45:19.22,194,-45,-2052,-153,22,94,-244,-518,274,381
,1183,2023-10-20 13:45:19.23,190,-38,-2045,-149,27,80,-400,-544,144,472
,1184,2023-10-20 13:45:19.24,197,-32,-2029,-138,30,58,-238,-597,359,417
,1185,2023-10-20 13:45:19.25,204,-30,-2018,-135,47,35,-409,-667,258,538
,1186,2023-10-20 13:45:19.26,206,-21,-2015,-142,73,2,-246,-556,310,401
,1187,2023-10-20 13:45:19.27,210,-17,-2014,-160,103,-27,-420,-497,77,458
,1188,2023-10-20 13:45:19.28,213,-39,-2033,-180,125,-46,-247,-461,214,354
,1189,2023-10-20 13:45:19.29,212,-45,-2032,-190,133,-59,-422,-500,78,461
,1190,2023-10-20 13:45:19.30,210,-46,-2051,-207,139,-52,-247,-526,279,386
,1191,2023-10-20 13:45:19.31,192,-10,-2064,-217,126,-40,-431,-550,119,490
,1192,2023-10-20 13:45:19.32,199,-1,-2015,-232,95,-33,-241,-519,278,380
,1193,2023-10-20 13:45:19.33,209,-1,-2051,-229,57,-33,-440,-536,96,488
,1194,2023-10-20 13:45:19.34,230,32,-2051,-244,31,-32,-237,-519,282,378
,1195,2023-10-20 13:45:19.35,245,37,-2042,-253,23,-53,-430,-523,93,476
,1196,2023-10-20 13:45:19.36,238,32,-2065,-263,34,-75,-240,-545,305,392
,1197,2023-10-20 13:45:19.37,223,-4,-2049,-252,46,-92,-439,-560,121,499
,1198,2023-10-20 13:45:19.38,218,43,-2058,-219,38,-107,-237,-524,287,380
,1199,2023-10-20 13:45:19.39,241,27,-2078,-199,16,-95,-440,-505,65,472
,1200,2023-10-20 13:45:19.40,248,12,-2064,-191,7,-88,-234,-540,306,387
,1201,2023-10-20 13:45:19.41,253,-1,-2047,-189,7,-81,-442,-561,119,501
,1202,2023-10-20 13:45:19.42,248,-48,-2074,-211,42,-35,-230,-599,369,414
,1203,2023-10-20 13:45:19.43,227,-35,-2084,-204,49,22,-446,-589,143,517
,1204,2023-10-20 13:45:19.44,216,47,-2103,-169,39,63,-230,-555,325,392
,1205,2023-10-20 13:45:19.45,224,59,-2061,-139,13,78,-450,-514,64,482
,1206,2023-10-20 13:45:19.46,227,77,-2075,-125,1,73,-226,-537,311,381
,1207,2023-10-20 13:45:19.47,226,97,-2062,-125,-7,60,-449,-535,86,492
,1208,2023-10-20 13:45:19.48,198,119,-2064,-111,-16,38,-228,-561,333,394
,1209,2023-10-20 13:45:19.49,224,120,-2055,-96,-32,19,-450,-537,87,493
,1210,2023-10-20 13:45:19.50,222,113,-2047,-96,-52,-2,-230,-517,287,373
,1211,2023-10-20 13:45:19.51,224,99,-2041,-108,-61,-24,-458,-493,35,475
,1212,2023-10-20 13:45:19.52,209,90,-2051,-114,-58,-36,-238,-568,330,403
,1213,2023-10-20 13:45:19.53,209,89,-2049,-115,-59,-41,-464,-566,102,515
,1214,2023-10-20 13:45:19.54,210,107,-2060,-111,-64,-39,-231,-629,398,430
,1215,2023-10-20 13:45:19.55,212,110,-2040,-114,-65,-49,-463,-601,138,532
,1216,2023-10-20 13:45:19.56,195,125,-2053,-121,-72,-56,-230,-666,436,448
,1217,2023-10-20 13:45:19.57,199,137,-2061,-137,-77,-62,-457,-620,163,538
,1218,2023-10-20 13:45:19.58,191,151,-2077,-151,-90,-73,-225,-682,457,453
,1219,2023-10-20 13:45:19.59,184,142,-2058,-170,-98,-81,-457,-622,165,539
,1220,2023-10-20 13:45:19.60,182,135,-2037,-179,-116,-92,-228,-630,402,429
,1221,2023-10-20 13:45:19.61,187,140,-2026,-184,-115,-102,-462,-565,103,513
,1222,2023-10-20 13:45:19.62,193,130,-2022,-173,-120,-104,-224,-587,363,405
,1223,2023-10-20 13:45:19.63,176,137,-2033,-154,-124,-106,-458,-542,84,500
,1224,2023-10-20 13:45:19.64,184,134,-2036,-146,-119,-105,-227,-586,359,406
,1225,2023-10-20 13:45:19.65,176,134,-2041,-140,-117,-100,-453,-526,73,489
,1226,2023-10-20 13:45:19.66,156,136,-2045,-140,-116,-96,-226,-654,428,440
,1227,2023-10-20 13:45:19.67,175,142,-2036,-132,-118,-92,-458,-616,158,537
,1228,2023-10-20 13:45:19.68,156,134,-2051,-131,-121,-92,-222,-679,457,450
,1229,2023-10-20 13:45:19.69,167,138,-2048,-136,-118,-84,-453,-608,155,530
,1230,2023-10-20 13:45:19.70,152,144,-2045,-144,-114,-74,-220,-676,456,448
,1231,2023-10-20 13:45:19.71,154,149,-2046,-148,-117,-64,-453,-586,133,519
,1232,2023-10-20 13:45:19.72,163,143,-2046,-146,-111,-59,-223,-605,382,414
,1233,2023-10-20 13:45:19.73,173,141,-2023,-147,-97,-55,-448,-534,86,491
,1234,2023-10-20 13:45:19.74,184,134,-2021,-154,-85,-43,-224,-675,451,449
,1235,2023-10-20 13:45:19.75,171,100,-2014,-146,-68,-32,-450,-618,168,534
,1236,2023-10-20 13:45:19.76,148,141,-2094,-127,-49,-4,-231,-594,363,412
,1237,2023-10-20 13:45:19.77,152,187,-2059,-101,-45,-11,-454,-489,35,471
,1238,2023-10-20 13:45:19.78,142,181,-2045,-89,-34,-27,-232,-564,332,398
,1239,2023-10-20 13:45:19.79,165,199,-2021,-75,-39,-59,-450,-506,56,478
,1240,2023-10-20 13:45:19.80,166,174,-2044,-88,-46,-68,-235,-518,283,376
,1241,2023-10-20 13:45:19.81,147,186,-2047,-96,-46,-74,-440,-447,7,443
,1242,2023-10-20 13:45:19.82,160,168,-2034,-93,-47,-92,-227,-545,318,386
,1243,2023-10-20 13:45:19.83,147,150,-2031,-93,-31,-87,-435,-520,85,477
,1244,2023-10-20 13:45:19.84,147,146,-2027,-73,-10,-69,-233,-628,395,430
,1245,2023-10-20 13:45:19.85,144,165,-2049,-37,-3,-50,-436,-542,106,489
,1246,2023-10-20 13:45:19.86,137,165,-2033,-14,4,-34,-229,-561,332,395
,1247,2023-10-20 13:45:19.87,156,180,-2025,14,12,-37,-428,-459,31,443
,1248,2023-10-20 13:45:19.88,154,180,-2035,41,24,-48,-234,-494,260,364
,1249,2023-10-20 13:45:19.89,166,196,-2035,71,36,-55,-424,-434,10,429
,1250,2023-10-20 13:45:19.90,157,195,-2046,106,51,-71,-241,-530,289,385
,1251,2023-10-20 13:45:19.91,151,200,-2053,141,47,-96,-427,-475,48,451
,1252,2023-10-20 13:45:19.92,167,202,-2025,163,38,-123,-238,-516,278,377
,1253,2023-10-20 13:45:19.93,185,164,-2004,166,31,-133,-413,-420,7,416
,1254,2023-10-20 13:45:19.94,180,86,-2041,138,39,-97,-238,-450,212,344
,1255,2023-10-20 13:45:19.95,162,73,-2086,104,58,-33,-411,-423,12,417
,1256,2023-10-20 13:45:19.96,163,106,-2068,107,74,6,-241,-574,333,407
,1257,2023-10-20 13:45:19.97,171,130,-2054,119,75,30,-405,-519,114,462
,1258,2023-10-20 13:45:19.98,186,148,-2039,110,70,46,-245,-580,335,412
,1259,2023-10-20 13:45:19.99,187,152,-2047,96,71,48,-406,-483,77,444
,1260,2023-10-20 13:45:20.00,189,154,-2051,88,73,41,-254,-551,297,402
,1261,2023-10-20 13:45:20.01,179,139,-2055,81,66,41,-397,-477,80,437
,1262,2023-10-20 13:45:20.02,184,145,-2059,78,63,47,-253,-572,319,412
,1263,2023-10-20 13:45:20.03,203,157,-2047,72,53,51,-391,-494,103,442
,1264,2023-10-20 13:45:20.04,191,136,-2042,68,44,44,-255,-591,336,423
,1265,2023-10-20 13:45:20.05,198,134,-2051,71,36,38,-389,-507,118,448
,1266,2023-10-20 13:45:20.06,180,151,-2052,77,28,28,-248,-577,329,412
,1267,2023-10-20 13:45:20.07,193,161,-2043,88,11,15,-380,-508,128,444
,1268,2023-10-20 13:45:20.08,203,129,-2026,92,-4,6,-263,-599,336,431
,1269,2023-10-20 13:45:20.09,192,102,-2039,73,-5,21,-375,-514,139,444
,1270,2023-10-20 13:45:20.10,203,106,-2043,51,2,43,-266,-617,351,441
,1271,2023-10-20 13:45:20.11,217,97,-2041,47,14,52,-373,-530,157,451
,1272,2023-10-20 13:45:20.12,214,101,-2043,43,24,66,-276,-598,322,437
,1273,2023-10-20 13:45:20.13,213,97,-2056,38,33,83,-370,-525,155,447
,1274,2023-10-20 13:45:20.14,209,122,-2075,46,44,95,-273,-673,400,473
,1275,2023-10-20 13:45:20.15,193,131,-2067,74,41,97,-360,-580,220,470
,1276,2023-10-20 13:45:20.16,195,150,-2076,109,33,91,-276,-627,351,451
,1277,2023-10-20 13:45:20.17,194,181,-2053,148,3,53,-349,-495,146,422
,1278,2023-10-20 13:45:20.18,211,152,-2029,164,-25,14,-283,-565,282,424
,1279,2023-10-20 13:45:20.19,213,119,-2029,158,-31,1,-349,-491,142,420
,1280,2023-10-20 13:45:20.20,196,100,-2033,159,-28,1,-286,-592,306,439
,1281,2023-10-20 13:45:20.21,204,67,-2036,154,-19,24,-342,-505,163,423
,1282,2023-10-20 13:45:20.22,197,63,-2035,149,-5,53,-288,-590,302,439
,1283,2023-10-20 13:45:20.23,187,68,-2046,154,3,77,-341,-492,151,416
,1284,2023-10-20 13:45:20.24,192,53,-2048,150,7,97,-301,-549,248,425
,1285,2023-10-20 13:45:20.25,193,62,-2049,152,7,115,-337,-466,129,401
,1286,2023-10-20 13:45:20.26,208,80,-2047,154,13,126,-292,-541,249,416
,1287,2023-10-20 13:45:20.27,199,79,-2046,146,23,134,-327,-474,147,400
,1288,2023-10-20 13:45:20.28,198,92,-2048,135,33,136,-306,-555,249,430
,1289,2023-10-20 13:45:20.29,205,100,-2054,127,44,139,-327,-461,134,394
,1290,2023-10-20 13:45:20.30,196,94,-2058,115,44,137,-315,-506,191,410
,1291,2023-10-20 13:45:20.31,195,108,-2069,93,41,135,-322,-426,104,374
,1292,2023-10-20 13:45:20.32,189,84,-2043,71,33,131,-310,-489,179,399
,1293,2023-10-20 13:45:20.33,191,117,-2066,68,19,119,-314,-470,156,392
,1294,2023-10-20 13:45:20.34,210,112,-2050,62,7,113,-320,-596,276,458
,1295,2023-10-20 13:45:20.35,209,118,-2042,55,0,109,-306,-500,194,403
,1296,2023-10-20 13:45:20.36,205,121,-2043,49,-10,103,-321,-525,204,423
,1297,2023-10-20 13:45:20.37,197,110,-2048,49,-18,94,-302,-473,171,387
,1298,2023-10-20 13:45:20.38,202,99,-2051,53,-26,82,-330,-572,242,451
,1299,2023-10-20 13:45:20.39,175,96,-2055,55,-35,84,-301,-514,213,407
,1300,2023-10-20 13:45:20.40,174,103,-2068,68,-36,77,-338,-589,251,463
,1301,2023-10-20 13:45:20.41,172,142,-2050,110,-43,42,-299,-514,215,406
,1302,2023-10-20 13:45:20.42,176,125,-2014,155,-49,-17,-339,-549,210,444
,1303,2023-10-20 13:45:20.43,193,128,-2007,173,-42,-59,-292,-473,181,382
,1304,2023-10-20 13:45:20.44,176,84,-2037,151,-36,-55,-348,-522,174,435
,1305,2023-10-20 13:45:20.45,172,75,-2085,119,-45,-27,-287,-472,185,379
,1306,2023-10-20 13:45:20.46,174,2,-2039,104,-57,-10,-353,-535,182,444
,1307,2023-10-20 13:45:20.47,158,2,-2082,85,-55,11,-281,-454,173,367
,1308,2023-10-20 13:45:20.48,169,17,-2070,49,-33,51,-361,-485,124,423
,1309,2023-10-20 13:45:20.49,177,73,-2053,41,-6,82,-279,-461,182,370
,1310,2023-10-20 13:45:20.50,189,80,-2052,54,7,94,-358,-548,190,453
,1311,2023-10-20 13:45:20.51,179,87,-2055,63,6,87,-274,-488,214,381
,1312,2023-10-20 13:45:20.52,166,92,-2060,69,1,79,-367,-521,154,444
,1313,2023-10-20 13:45:20.53,175,96,-2051,80,-11,65,-274,-469,195,371
,1314,2023-10-20 13:45:20.54,174,83,-2058,95,-14,54,-372,-513,141,442
,1315,2023-10-20 13:45:20.55,171,78,-2052,114,-17,42,-268,-494,226,381
,1316,2023-10-20 13:45:20.56,184,76,-2043,128,-16,24,-388,-558,170,473
,1317,2023-10-20 13:45:20.57,169,69,-2031,140,-14,7,-267,-533,266,400
,1318,2023-10-20 13:45:20.58,175,43,-2038,146,-4,0,-389,-575,186,482
,1319,2023-10-20 13:45:20.59,171,27,-2043,149,3,5,-259,-492,233,375
,1320,2023-10-20 13:45:20.60,173,35,-2032,152,9,23,-385,-495,110,440
,1321,2023-10-20 13:45:20.61,180,23,-2034,165,10,29,-256,-496,240,376
,1322,2023-10-20 13:45:20.62,168,22,-2033,183,14,29,-392,-564,172,478
,1323,2023-10-20 13:45:20.63,195,11,-2036,192,25,43,-255,-470,215,362
,1324,2023-10-20 13:45:20.64,183,16,-2052,198,39,63,-397,-450,53,423
,1325,2023-10-20 13:45:20.65,182,2,-2058,211,51,83,-246,-390,144,318
,1326,2023-10-20 13:45:20.66,174,18,-2065,231,54,99,-398,-443,45,420
,1327,2023-10-20 13:45:20.67,184,28,-2065,256,54,102,-244,-476,232,360
,1328,2023-10-20 13:45:20.68,186,30,-2065,283,46,97,-403,-534,131,468
,1329,2023-10-20 13:45:20.69,178,32,-2055,313,33,79,-244,-530,286,387
,1330,2023-10-20 13:45:20.70,203,22,-2022,342,21,48,-407,-540,133,473
,1331,2023-10-20 13:45:20.71,192,-11,-2037,348,19,34,-243,-527,284,385
,1332,2023-10-20 13:45:20.72,179,-40,-2048,346,26,30,-416,-550,134,483
,1333,2023-10-20 13:45:20.73,185,-46,-2044,353,29,27,-237,-529,292,383
,1334,2023-10-20 13:45:20.74,189,-66,-2047,354,37,34,-416,-544,128,480
,1335,2023-10-20 13:45:20.75,176,-64,-2038,354,45,36,-232,-491,259,361
,1336,2023-10-20 13:45:20.76,181,-38,-2079,343,47,39,-423,-484,61,453
,1337,2023-10-20 13:45:20.77,192,-77,-2034,334,56,43,-231,-508,277,369
,1338,2023-10-20 13:45:20.78,189,-77,-2036,342,56,41,-423,-550,127,486
,1339,2023-10-20 13:45:20.79,195,-49,-2086,306,60,54,-229,-553,324,391
,1340,2023-10-20 13:45:20.80,211,-110,-1997,275,83,40,-428,-547,119,487
,1341,2023-10-20 13:45:20.81,209,-128,-2010,296,84,27,-228,-539,311,383
,1342,2023-10-20 13:45:20.82,190,-128,-2049,323,70,50,-427,-532,105,479
,1343,2023-10-20 13:45:20.83,196,-116,-2050,324,69,67,-229,-543,314,386
,1344,2023-10-20 13:45:20.84,210,-129,-2031,305,70,65,-435,-548,113,491
,1345,2023-10-20 13:45:20.85,214,-123,-2047,290,83,64,-224,-524,300,374
,1346,2023-10-20 13:45:20.86,208,-144,-2037,283,83,69,-436,-511,75,473
,1347,2023-10-20 13:45:20.87,212,-143,-2038,281,83,73,-218,-532,314,375
,1348,2023-10-20 13:45:20.88,230,-128,-2056,257,84,73,-429,-542,113,485
,1349,2023-10-20 13:45:20.89,221,-162,-2038,229,94,65,-221,-592,371,406
,1350,2023-10-20 13:45:20.90,207,-165,-2028,230,85,59,-440,-569,129,504
,1351,2023-10-20 13:45:20.91,222,-140,-2053,240,82,62,-222,-554,332,388
,1352,2023-10-20 13:45:20.92,216,-136,-2044,229,86,55,-445,-517,72,481
,1353,2023-10-20 13:45:20.93,210,-162,-2057,197,90,59,-220,-560,340,390
,1354,2023-10-20 13:45:20.94,211,-145,-2048,176,92,56,-446,-557,111,501
,1355,2023-10-20 13:45:20.95,193,-151,-2062,170,92,50,-220,-520,300,370
,1356,2023-10-20 13:45:20.96,189,-130,-2068,177,84,35,-452,-480,28,466
,1357,2023-10-20 13:45:20.97,219,-113,-2038,194,65,-14,-230,-505,275,367
,1358,2023-10-20 13:45:20.98,220,-128,-2040,199,58,-56,-445,-486,41,465
,1359,2023-10-20 13:45:20.99,223,-123,-2003,206,66,-96,-216,-532,316,374
,1360,2023-10-20 13:45:21.00,238,-158,-2011,198,70,-109,-448,-522,74,485
,1361,2023-10-20 13:45:21.01,234,-205,-2022,180,64,-100,-215,-562,347,388
,1362,2023-10-20 13:45:21.02,245,-214,-2020,170,57,-97,-451,-525,74,488
,1363,2023-10-20 13:45:21.03,241,-242,-2050,147,57,-76,-217,-516,299,366
,1364,2023-10-20 13:45:21.04,246,-243,-2063,128,67,-47,-446,-472,26,459
,1365,2023-10-20 13:45:21.05,238,-219,-2049,122,77,-19,-214,-548,334,381
,1366,2023-10-20 13:45:21.06,250,-213,-2054,123,80,3,-446,-540,94,493
,1367,2023-10-20 13:45:21.07,253,-201,-2043,121,76,10,-218,-597,379,407
,1368,2023-10-20 13:45:21.08,241,-201,-2051,118,60,5,-453,-548,95,500
,1369,2023-10-20 13:45:21.09,251,-207,-2039,111,47,6,-221,-596,375,408
,1370,2023-10-20 13:45:21.10,261,-205,-2034,119,36,0,-454,-550,96,502
,1371,2023-10-20 13:45:21.11,245,-219,-2037,122,34,-4,-218,-587,369,402
,1372,2023-10-20 13:45:21.12,245,-224,-2041,111,33,1,-450,-528,78,489
,1373,2023-10-20 13:45:21.13,234,-220,-2035,107,31,5,-220,-594,374,407
,1374,2023-10-20 13:45:21.14,247,-224,-2042,109,36,3,-449,-546,97,497
,1375,2023-10-20 13:45:21.15,224,-238,-2059,96,38,5,-222,-596,374,409
,1376,2023-10-20 13:45:21.16,240,-212,-2042,88,38,2,-449,-535,86,492
,1377,2023-10-20 13:45:21.17,240,-189,-2030,82,34,-12,-219,-620,401,419
,1378,2023-10-20 13:45:21.18,236,-218,-2031,75,35,-29,-448,-556,108,502
,1379,2023-10-20 13:45:21.19,249,-224,-2036,65,31,-44,-227,-584,357,405
,1380,2023-10-20 13:45:21.20,247,-243,-2030,62,25,-57,-448,-498,50,473
,1381,2023-10-20 13:45:21.21,254,-231,-2013,61,26,-62,-228,-533,305,380
,1382,2023-10-20 13:45:21.22,261,-255,-2023,61,29,-56,-448,-473,25,460
,1383,2023-10-20 13:45:21.23,253,-282,-2031,58,30,-42,-228,-523,295,375
,1384,2023-10-20 13:45:21.24,270,-287,-2025,54,31,-18,-447,-472,25,459
,1385,2023-10-20 13:45:21.25,266,-292,-2028,53,36,16,-233,-526,293,379
,1386,2023-10-20 13:45:21.26,263,-286,-2033,58,47,52,-442,-457,15,449
,1387,2023-10-20 13:45:21.27,266,-265,-2042,65,41,77,-234,-491,257,362
,1388,2023-10-20 13:45:21.28,259,-256,-2046,77,39,92,-441,-431,-10,436
,1389,2023-10-20 13:45:21.29,263,-238,-2029,93,29,98,-228,-499,271,363
,1390,2023-10-20 13:45:21.30,255,-229,-2024,99,22,90,-435,-453,18,444
,1391,2023-10-20 13:45:21.31,257,-234,-2033,103,29,79,-231,-439,208,335
,1392,2023-10-20 13:45:21.32,265,-234,-2025,105,35,66,-428,-372,-56,400
,1393,2023-10-20 13:45:21.33,276,-250,-2022,97,40,64,-235,-490,255,362
,1394,2023-10-20 13:45:21.34,258,-272,-2016,90,44,67,-430,-468,38,449
,1395,2023-10-20 13:45:21.35,260,-271,-2036,85,48,75,-239,-535,296,387
,1396,2023-10-20 13:45:21.36,266,-260,-2040,76,50,85,-418,-458,40,438
,1397,2023-10-20 13:45:21.37,282,-246,-2036,62,49,91,-239,-540,301,389
,1398,2023-10-20 13:45:21.38,264,-250,-2038,56,46,87,-423,-472,49,447
,1399,2023-10-20 13:45:21.39,276,-242,-2027,53,36,83,-244,-491,247,367
,1400,2023-10-20 13:45:21.40,266,-246,-2030,50,29,78,-410,-407,-3,408
,1401,2023-10-20 13:45:21.41,263,-238,-2033,45,24,72,-241,-484,243,362
,1402,2023-10-20 13:45:21.42,274,-237,-2032,47,22,61,-406,-432,26,419
,1403,2023-10-20 13:45:21.43,267,-243,-2034,52,12,57,-245,-497,252,371
,1404,2023-10-20 13:45:21.44,270,-251,-2030,60,10,50,-404,-457,53,430
,1405,2023-10-20 13:45:21.45,268,-256,-2025,63,6,46,-244,-604,360,424
,1406,2023-10-20 13:45:21.46,266,-256,-2034,61,11,45,-395,-519,124,457
,1407,2023-10-20 13:45:21.47,259,-257,-2022,58,12,45,-253,-553,300,403
,1408,2023-10-20 13:45:21.48,264,-258,-2020,63,11,44,-392,-429,37,410
,1409,2023-10-20 13:45:21.49,267,-278,-2032,61,10,48,-256,-468,212,362
,1410,2023-10-20 13:45:21.50,270,-267,-2028,61,10,52,-390,-415,25,402
,1411,2023-10-20 13:45:21.51,259,-265,-2017,67,13,49,-258,-521,263,389
,1412,2023-10-20 13:45:21.52,280,-254,-2032,66,12,50,-386,-488,102,437
,1413,2023-10-20 13:45:21.53,276,-247,-2033,64,17,45,-262,-599,337,430
,1414,2023-10-20 13:45:21.54,272,-258,-2035,65,22,36,-381,-518,137,449
,1415,2023-10-20 13:45:21.55,264,-263,-2035,53,29,38,-268,-624,356,446
,1416,2023-10-20 13:45:21.56,266,-266,-2031,50,29,46,-377,-558,181,467
,1417,2023-10-20 13:45:21.57,273,-261,-2034,57,28,52,-274,-685,411,479
,1418,2023-10-20 13:45:21.58,255,-246,-2023,80,35,36,-368,-575,207,471
,1419,2023-10-20 13:45:21.59,272,-213,-2008,129,35,-1,-275,-611,336,443
,1420,2023-10-20 13:45:21.60,286,-227,-2005,148,37,-29,-364,-475,111,419
,1421,2023-10-20 13:45:21.61,284,-235,-2032,127,41,-39,-276,-512,236,394
,1422,2023-10-20 13:45:21.62,276,-246,-2058,83,16,-35,-357,-438,81,397
,1423,2023-10-20 13:45:21.63,257,-300,-2058,42,-5,-26,-284,-534,250,409
,1424,2023-10-20 13:45:21.64,277,-342,-2014,29,-14,-19,-350,-486,136,418
,1425,2023-10-20 13:45:21.65,277,-370,-1996,41,-5,-2,-287,-602,315,444
,1426,2023-10-20 13:45:21.66,278,-341,-2016,52,11,35,-342,-501,159,421
,1427,2023-10-20 13:45:21.67,282,-292,-2036,51,29,78,-285,-540,255,412
,1428,2023-10-20 13:45:21.68,261,-285,-2059,46,34,101,-343,-495,152,419
,1429,2023-10-20 13:45:21.69,275,-273,-2049,38,19,98,-299,-663,364,481
,1430,2023-10-20 13:45:21.70,276,-265,-2037,30,-8,83,-335,-580,245,457
,1431,2023-10-20 13:45:21.71,277,-270,-2016,29,-10,66,-296,-628,332,462
,1432,2023-10-20 13:45:21.72,273,-265,-2019,41,-1,55,-330,-502,172,416
,1433,2023-10-20 13:45:21.73,277,-268,-2018,60,14,48,-299,-535,236,417
,1434,2023-10-20 13:45:21.74,278,-272,-2021,67,19,45,-329,-485,156,407
,1435,2023-10-20 13:45:21.75,278,-288,-2032,66,16,43,-307,-598,291,452
,1436,2023-10-20 13:45:21.76,264,-301,-2023,64,9,39,-325,-499,174,412
,1437,2023-10-20 13:45:21.77,268,-309,-2024,60,8,44,-312,-523,211,417
,1438,2023-10-20 13:45:21.78,265,-291,-2016,62,14,40,-312,-478,166,395
,1439,2023-10-20 13:45:21.79,280,-284,-2012,69,15,31,-313,-584,271,448
,1440,2023-10-20 13:45:21.80,284,-296,-2018,67,25,25,-305,-496,191,400
,1441,2023-10-20 13:45:21.81,278,-301,-2014,73,29,16,-318,-520,202,419
,1442,2023-10-20 13:45:21.82,278,-305,-2015,80,29,9,-306,-483,177,394
,1443,2023-10-20 13:45:21.83,282,-319,-2029,88,27,13,-326,-588,262,457
,1444,2023-10-20 13:45:21.84,290,-323,-2023,98,36,18,-300,-537,237,418
,1445,2023-10-20 13:45:21.85,291,-296,-2012,116,32,19,-330,-586,256,458
,1446,2023-10-20 13:45:21.86,271,-291,-2022,130,40,26,-291,-510,219,400
,1447,2023-10-20 13:45:21.87,290,-291,-2040,140,38,33,-336,-567,231,451
,1448,2023-10-20 13:45:21.88,284,-303,-2009,140,34,34,-290,-505,215,397
,1449,2023-10-20 13:45:21.89,280,-317,-2016,136,27,34,-345,-552,207,448
,1450,2023-10-20 13:45:21.90,287,-313,-2025,128,16,38,-286,-484,198,385
,1451,2023-10-20 13:45:21.91,292,-318,-2013,114,16,40,-347,-544,197,445
,1452,2023-10-20 13:45:21.92,296,-344,-2016,93,21,56,-277,-518,241,397
,1453,2023-10-20 13:45:21.93,295,-351,-2030,78,29,81,-352,-585,233,468
,1454,2023-10-20 13:45:21.94,289,-332,-2038,85,38,91,-274,-519,245,396
,1455,2023-10-20 13:45:21.95,276,-322,-2034,78,37,101,-359,-549,190,454
,1456,2023-10-20 13:45:21.96,267,-307,-2028,65,26,100,-269,-441,172,355
,1457,2023-10-20 13:45:21.97,273,-278,-2028,68,9,73,-359,-446,87,402
,1458,2023-10-20 13:45:21.98,268,-281,-2020,59,-4,39,-265,-435,170,350
,1459,2023-10-20 13:45:21.99,259,-285,-2010,57,-9,5,-362,-522,160,442
,1460,2023-10-20 13:45:22.00,248,-282,-2019,74,-6,-26,-262,-499,237,380
,1461,2023-10-20 13:45:22.01,257,-291,-2023,98,-1,-52,-372,-546,174,459
,1462,2023-10-20 13:45:22.02,223,-286,-2036,114,1,-75,-257,-487,230,372
,1463,2023-10-20 13:45:22.03,258,-248,-2015,130,1,-101,-376,-523,147,449
,1464,2023-10-20 13:45:22.04,248,-280,-1983,143,8,-144,-256,-458,202,357
,1465,2023-10-20 13:45:22.05,257,-357,-1965,149,24,-174,-379,-472,93,425
,1466,2023-10-20 13:45:22.06,281,-370,-1991,174,43,-183,-254,-431,177,342
,1467,2023-10-20 13:45:22.07,282,-347,-2009,190,58,-186,-391,-480,89,435
,1468,2023-10-20 13:45:22.08,277,-408,-1976,167,84,-149,-249,-485,236,367
,1469,2023-10-20 13:45:22.09,290,-445,-1993,129,102,-83,-393,-548,155,470
,1470,2023-10-20 13:45:22.10,269,-436,-2027,100,116,-20,-247,-486,239,366
,1471,2023-10-20 13:45:22.11,282,-420,-2022,80,118,41,-397,-480,83,438
,1472,2023-10-20 13:45:22.12,294,-395,-2027,66,129,95,-243,-496,253,369
,1473,2023-10-20 13:45:22.13,308,-333,-2017,80,130,96,-395,-548,153,471
,1474,2023-10-20 13:45:22.14,321,-314,-2010,107,123,74,-235,-543,308,389
,1475,2023-10-20 13:45:22.15,309,-317,-2019,128,112,37,-406,-573,167,489
,1476,2023-10-20 13:45:22.16,319,-318,-2022,137,101,-2,-235,-569,334,402
,1477,2023-10-20 13:45:22.17,315,-343,-2017,127,89,-24,-412,-586,174,499
,1478,2023-10-20 13:45:22.18,308,-353,-2011,120,86,-34,-228,-544,316,386
,1479,2023-10-20 13:45:22.19,305,-374,-2036,120,69,-26,-408,-547,139,477
,1480,2023-10-20 13:45:22.20,290,-366,-2033,115,54,-28,-231,-545,314,388
,1481,2023-10-20 13:45:22.21,321,-355,-2009,102,46,-46,-414,-562,148,488
,1482,2023-10-20 13:45:22.22,324,-378,-2003,88,39,-62,-228,-652,424,440
,1483,2023-10-20 13:45:22.23,318,-383,-1982,79,47,-68,-419,-685,266,552
,1484,2023-10-20 13:45:22.24,317,-402,-1995,83,61,-56,-224,-741,517,482
,1485,2023-10-20 13:45:22.25,310,-409,-2014,90,75,-22,-422,-724,302,573
,1486,2023-10-20 13:45:22.26,298,-388,-2026,110,88,-3,-223,-649,426,436
,1487,2023-10-20 13:45:22.27,308,-357,-2013,129,86,-3,-426,-580,154,503
,1488,2023-10-20 13:45:22.28,323,-337,-2009,142,84,-9,-224,-534,310,379
,1489,2023-10-20 13:45:22.29,325,-365,-1996,137,72,-30,-428,-516,88,472
,1490,2023-10-20 13:45:22.30,333,-403,-1979,126,66,-36,-223,-491,268,357
,1491,2023-10-20 13:45:22.31,345,-442,-2006,118,67,-20,-433,-487,54,460
,1492,2023-10-20 13:45:22.32,327,-438,-2003,105,73,10,-221,-517,296,369
,1493,2023-10-20 13:45:22.33,325,-448,-1980,97,82,32,-442,-533,91,487
,1494,2023-10-20 13:45:22.34,321,-439,-2003,104,73,51,-225,-549,324,387
,1495,2023-10-20 13:45:22.35,332,-417,-2013,102,69,60,-442,-525,83,483
,1496,2023-10-20 13:45:22.36,342,-395,-1999,97,64,65,-219,-532,313,375
,1497,2023-10-20 13:45:22.37,340,-392,-1999,91,62,65,-436,-521,85,478
,1498,2023-10-20 13:45:22.38,334,-390,-2002,88,63,60,-216,-565,349,390
,1499,2023-10-20 13:45:22.39,338,-401,-1994,86,60,54,-445,-564,119,504
,1500,2023-10-20 13:45:22.40,349,-411,-1997,80,57,52,-220,-638,418,429
,1501,2023-10-20 13:45:22.41,356,-411,-1989,72,57,52,-446,-615,169,530
,1502,2023-10-20 13:45:22.42,351,-403,-1992,61,66,51,-218,-628,410,423
,1503,2023-10-20 13:45:22.43,346,-413,-1997,59,66,52,-451,-565,114,508
,1504,2023-10-20 13:45:22.44,348,-409,-2005,53,66,51,-224,-579,355,401
,1505,2023-10-20 13:45:22.45,346,-404,-2004,49,66,55,-450,-544,94,497
,1506,2023-10-20 13:45:22.46,350,-406,-2006,37,59,54,-217,-574,357,395
,1507,2023-10-20 13:45:22.47,351,-406,-2008,28,47,56,-452,-534,82,493
,1508,2023-10-20 13:45:22.48,359,-394,-1996,23,42,53,-222,-556,334,389
,1509,2023-10-20 13:45:22.49,362,-406,-1989,20,41,53,-455,-525,70,490
,1510,2023-10-20 13:45:22.50,353,-419,-1985,20,39,46,-219,-647,428,433
,1511,2023-10-20 13:45:22.51,358,-435,-1986,25,43,56,-450,-603,153,526
,1512,2023-10-20 13:45:22.52,351,-440,-1993,27,47,69,-225,-503,278,364
,1513,2023-10-20 13:45:22.53,349,-410,-2006,50,50,70,-449,-424,-25,436
,1514,2023-10-20 13:45:22.54,346,-372,-1987,89,48,36,-221,-477,256,349
,1515,2023-10-20 13:45:22.55,355,-366,-1978,143,37,-73,-447,-478,31,462
,1516,2023-10-20 13:45:22.56,383,-410,-1954,116,23,-106,-222,-465,243,343
,1517,2023-10-20 13:45:22.57,377,-477,-1971,74,35,-97,-455,-417,-38,436
,1518,2023-10-20 13:45:22.58,385,-506,-1971,57,40,-70,-225,-479,254,352
,1519,2023-10-20 13:45:22.59,363,-550,-2005,48,44,-32,-453,-469,16,461
,1520,2023-10-20 13:45:22.60,373,-523,-2011,38,49,21,-218,-506,288,362
,1521,2023-10-20 13:45:22.61,372,-469,-2009,29,44,61,-454,-480,26,467
,1522,2023-10-20 13:45:22.62,381,-446,-1995,24,31,78,-223,-535,312,379
,1523,2023-10-20 13:45:22.63,367,-431,-2009,11,10,77,-449,-495,46,472
,1524,2023-10-20 13:45:22.64,374,-427,-2000,-9,-6,79,-229,-533,304,381
,1525,2023-10-20 13:45:22.65,368,-425,-1998,-18,-25,68,-450,-472,22,461
,1526,2023-10-20 13:45:22.66,379,-433,-1995,-23,-33,57,-232,-565,333,398
,1527,2023-10-20 13:45:22.67,367,-456,-1994,-26,-32,53,-446,-523,77,484
,1528,2023-10-20 13:45:22.68,372,-440,-2000,-23,-22,60,-232,-527,295,379
,1529,2023-10-20 13:45:22.69,357,-425,-1993,-21,-20,59,-448,-447,-1,447
,1530,2023-10-20 13:45:22.70,345,-401,-2016,-21,-30,47,-230,-478,248,354
,1531,2023-10-20 13:45:22.71,355,-411,-2002,-32,-44,27,-441,-455,14,448
,1532,2023-10-20 13:45:22.72,342,-426,-1996,-32,-53,16,-229,-594,365,411
,1533,2023-10-20 13:45:22.73,350,-438,-1989,-35,-49,16,-436,-545,109,490
,1534,2023-10-20 13:45:22.74,357,-447,-1990,-43,-30,41,-226,-634,408,430
,1535,2023-10-20 13:45:22.75,343,-439,-1992,-41,-18,57,-426,-555,129,490
,1536,2023-10-20 13:45:22.76,347,-416,-1982,-39,-12,71,-231,-655,424,443
,1537,2023-10-20 13:45:22.77,361,-423,-1989,-41,-13,81,-423,-562,139,492
,1538,2023-10-20 13:45:22.78,357,-416,-1985,-34,-14,79,-232,-566,334,399
,1539,2023-10-20 13:45:22.79,355,-402,-1995,-24,-17,77,-428,-473,45,450
,1540,2023-10-20 13:45:22.80,356,-390,-1991,-20,-14,72,-242,-558,316,400
,1541,2023-10-20 13:45:22.81,360,-391,-1994,-18,-14,63,-427,-501,74,464
,1542,2023-10-20 13:45:22.82,355,-399,-2003,-12,-12,56,-247,-595,348,421
,1543,2023-10-20 13:45:22.83,365,-399,-1996,-6,-6,62,-425,-558,133,491
,1544,2023-10-20 13:45:22.84,359,-401,-1981,10,-8,59,-252,-780,528,516
,1545,2023-10-20 13:45:22.85,343,-402,-1990,19,-10,59,-417,-623,206,520
,1546,2023-10-20 13:45:22.86,353,-393,-1998,25,-8,54,-246,-404,158,325
,1547,2023-10-20 13:45:22.87,353,-404,-1985,31,-10,48,-403,-224,-179,313
,1548,2023-10-20 13:45:22.88,354,-404,-1990,36,-13,44,-245,-247,2,246
,1549,2023-10-20 13:45:22.89,362,-407,-1999,37,-12,41,-408,-258,-150,333
,1550,2023-10-20 13:45:22.90,347,-404,-1995,45,-11,35,-248,-321,73,284
,1551,2023-10-20 13:45:22.91,347,-389,-1990,57,-13,24,-394,-290,-104,342
,1552,2023-10-20 13:45:22.92,336,-392,-1990,66,-18,15,-243,-335,92,289
,1553,2023-10-20 13:45:22.93,331,-397,-1992,70,-19,9,-386,-284,-102,335
,1554,2023-10-20 13:45:22.94,349,-405,-1985,76,-22,7,-247,-315,68,281
,1555,2023-10-20 13:45:22.95,322,-418,-1985,80,-24,6,-380,-278,-102,329
,1556,2023-10-20 13:45:22.96,317,-432,-1983,80,-24,9,-250,-330,80,290
,1557,2023-10-20 13:45:22.97,324,-440,-1977,81,-26,18,-378,-275,-103,326
,1558,2023-10-20 13:45:22.98,307,-440,-1994,83,-27,29,-251,-293,42,272
,1559,2023-10-20 13:45:22.99,318,-432,-1999,79,-24,40,-370,-245,-125,307
,1560,2023-10-20 13:45:23.00,322,-434,-1990,72,-20,48,-260,-304,44,282
,1561,2023-10-20 13:45:23.01,322,-436,-1988,59,-17,51,-364,-267,-97,315
,1562,2023-10-20 13:45:23.02,322,-432,-1988,52,-16,56,-258,-335,77,296
,1563,2023-10-20 13:45:23.03,317,-425,-1980,53,-12,59,-358,-284,-74,321
,1564,2023-10-20 13:45:23.04,308,-445,-1988,55,-8,68,-270,-347,77,308
,1565,2023-10-20 13:45:23.05,311,-443,-1978,53,-3,70,-356,-292,-64,324
,1566,2023-10-20 13:45:23.06,310,-467,-1999,57,1,83,-271,-368,97,319
,1567,2023-10-20 13:45:23.07,341,-470,-1992,63,10,98,-348,-306,-42,327
,1568,2023-10-20 13:45:23.08,293,-483,-2033,68,25,115,-276,-364,88,320
,1569,2023-10-20 13:45:23.09,311,-390,-2039,66,46,123,-345,-289,-56,317
,1570,2023-10-20 13:45:23.10,289,-379,-1959,104,43,87,-279,-341,62,310
,1571,2023-10-20 13:45:23.11,270,-375,-1970,156,32,12,-335,-277,-58,306
,1572,2023-10-20 13:45:23.12,301,-355,-1989,159,17,-59,-284,-335,51,309
,1573,2023-10-20 13:45:23.13,315,-413,-1946,137,-8,-92,-334,-279,-55,306
,1574,2023-10-20 13:45:23.14,323,-469,-1947,109,-11,-110,-283,-338,55,310
,1575,2023-10-20 13:45:23.15,333,-517,-1933,80,12,-100,-327,-284,-43,305
,1576,2023-10-20 13:45:23.16,328,-583,-1936,54,53,-46,-289,-359,70,324
,1577,2023-10-20 13:45:23.17,315,-589,-1997,48,86,19,-319,-289,-30,304
,1578,2023-10-20 13:45:23.18,320,-539,-2012,39,104,79,-294,-352,58,323
,1579,2023-10-20 13:45:23.19,345,-495,-1997,27,110,119,-316,-285,-31,300
,1580,2023-10-20 13:45:23.20,344,-467,-1993,26,109,128,-303,-337,34,320
,1581,2023-10-20 13:45:23.21,344,-452,-2009,18,98,125,-313,-275,-38,294
,1582,2023-10-20 13:45:23.22,360,-431,-2003,7,80,113,-300,-339,39,319
,1583,2023-10-20 13:45:23.23,363,-439,-2010,4,70,99,-304,-498,194,401
,1584,2023-10-20 13:45:23.24,359,-428,-2005,13,60,78,-313,-790,477,551
,1585,2023-10-20 13:45:23.25,362,-438,-2001,18,47,60,-304,-740,436,522
,1586,2023-10-20 13:45:23.26,371,-425,-2005,17,34,34,-322,-708,386,515
,1587,2023-10-20 13:45:23.27,368,-435,-1992,10,16,8,-304,-528,224,416
,1588,2023-10-20 13:45:23.28,348,-448,-2002,-3,7,-8,-329,-547,218,438
,1589,2023-10-20 13:45:23.29,370,-452,-2014,-23,-9,1,-300,-475,175,387
,1590,2023-10-20 13:45:23.30,356,-449,-1985,-32,-19,-2,-336,-539,203,437
,1591,2023-10-20 13:45:23.31,380,-458,-1969,-43,-34,-12,-302,-519,217,410
,1592,2023-10-20 13:45:23.32,389,-476,-1978,-62,-32,-8,-344,-626,282,485
,1593,2023-10-20 13:45:23.33,379,-464,-1978,-70,-24,4,-299,-610,311,454
,1594,2023-10-20 13:45:23.34,372,-462,-1980,-67,-9,19,-357,-704,347,530
,1595,2023-10-20 13:45:23.35,363,-458,-1992,-61,-2,39,-292,-567,275,429
,1596,2023-10-20 13:45:23.36,356,-437,-2001,-44,-3,57,-354,-538,184,446
,1597,2023-10-20 13:45:23.37,346,-412,-1994,-20,-13,59,-278,-479,201,378
,1598,2023-10-20 13:45:23.38,353,-405,-1971,-1,-25,45,-356,-580,224,468
,1599,2023-10-20 13:45:23.39,363,-431,-1984,13,-26,37,-279,-501,222,390
,1600,2023-10-20 13:45:23.40,359,-423,-1956,38,-29,18,-365,-503,138,434
,1601,2023-10-20 13:45:23.41,357,-474,-1961,46,-20,16,-280,-465,185,372
,1602,2023-10-20 13:45:23.42,352,-492,-1973,45,-3,36,-368,-533,165,450
,1603,2023-10-20 13:45:23.43,336,-478,-1984,52,3,45,-267,-467,200,367
,1604,2023-10-20 13:45:23.44,344,-478,-1990,57,3,53,-361,-496,135,428
,1605,2023-10-20 13:45:23.45,347,-470,-1996,50,1,57,-258,-439,181,348
,1606,2023-10-20 13:45:23.46,347,-448,-2001,40,1,54,-370,-487,117,428
,1607,2023-10-20 13:45:23.47,355,-436,-2000,30,8,48,-256,-472,216,364
,1608,2023-10-20 13:45:23.48,352,-441,-1984,21,19,45,-378,-542,164,460
,1609,2023-10-20 13:45:23.49,345,-441,-1992,5,26,40,-259,-541,282,400
,1610,2023-10-20 13:45:23.50,339,-437,-1996,-6,23,39,-388,-588,200,488
,1611,2023-10-20 13:45:23.51,348,-432,-1984,-19,18,39,-254,-507,253,380
,1612,2023-10-20 13:45:23.52,351,-424,-1987,-34,11,35,-386,-500,114,443
,1613,2023-10-20 13:45:23.53,346,-425,-1987,-46,10,22,-258,-497,239,377
,1614,2023-10-20 13:45:23.54,358,-416,-1991,-50,5,13,-400,-559,159,479
,1615,2023-10-20 13:45:23.55,350,-425,-1997,-54,-3,12,-252,-532,280,392
,1616,2023-10-20 13:45:23.56,354,-426,-2004,-58,-6,9,-403,-557,154,480
,1617,2023-10-20 13:45:23.57,359,-427,-1993,-51,-14,11,-245,-491,246,368
,1618,2023-10-20 13:45:23.58,339,-411,-2005,-47,-18,13,-402,-506,104,454
,1619,2023-10-20 13:45:23.59,358,-430,-1990,-47,-20,15,-244,-479,235,361
,1620,2023-10-20 13:45:23.60,358,-437,-1995,-48,-8,22,-413,-512,99,462
,1621,2023-10-20 13:45:23.61,340,-429,-1997,-29,-3,30,-245,-462,217,353
,1622,2023-10-20 13:45:23.62,334,-393,-1988,23,3,14,-412,-464,52,438
,1623,2023-10-20 13:45:23.63,336,-374,-1996,62,5,-20,-237,-484,247,360
,1624,2023-10-20 13:45:23.64,336,-369,-1986,59,2,-44,-410,-529,119,469
,1625,2023-10-20 13:45:23.65,336,-409,-1988,39,-18,-58,-228,-537,309,382
,1626,2023-10-20 13:45:23.66,336,-435,-1992,15,-43,-78,-414,-549,135,481
,1627,2023-10-20 13:45:23.67,342,-462,-1978,-20,-54,-75,-230,-483,253,356
,1628,2023-10-20 13:45:23.68,350,-488,-1974,-42,-31,-51,-427,-477,50,452
,1629,2023-10-20 13:45:23.69,347,-495,-1984,-43,6,-17,-227,-473,246,350
,1630,2023-10-20 13:45:23.70,364,-484,-1994,-27,31,15,-421,-502,81,461
,1631,2023-10-20 13:45:23.71,354,-460,-1983,-17,42,40,-222,-561,339,391
,1632,2023-10-20 13:45:23.72,349,-417,-2016,-15,38,46,-426,-584,158,505
,1633,2023-10-20 13:45:23.73,354,-418,-2011,-27,18,40,-228,-601,373,414
,1634,2023-10-20 13:45:23.74,345,-427,-2002,-38,2,27,-430,-581,151,505
,1635,2023-10-20 13:45:23.75,354,-437,-2005,-49,-2,16,-226,-537,311,381
,1636,2023-10-20 13:45:23.76,352,-431,-2008,-45,-10,18,-432,-510,78,471
,1637,2023-10-20 13:45:23.77,363,-413,-1994,-30,-13,9,-220,-498,278,359
,1638,2023-10-20 13:45:23.78,360,-409,-1971,-22,-19,-7,-434,-501,67,467
,1639,2023-10-20 13:45:23.79,354,-444,-1984,-29,-16,-10,-218,-514,296,366
,1640,2023-10-20 13:45:23.80,351,-455,-2002,-42,-6,6,-437,-512,75,474
,1641,2023-10-20 13:45:23.81,351,-438,-2004,-39,-9,20,-223,-435,212,329
,1642,2023-10-20 13:45:23.82,341,-429,-1999,-36,-19,24,-441,-403,-38,422
,1643,2023-10-20 13:45:23.83,352,-414,-1987,-40,-23,22,-222,-482,260,352
,1644,2023-10-20 13:45:23.84,355,-416,-1991,-40,-17,18,-444,-522,78,483
,1645,2023-10-20 13:45:23.85,345,-411,-1993,-29,-4,19,-218,-575,357,396
,1646,2023-10-20 13:45:23.86,334,-412,-1990,-11,-2,28,-443,-549,106,496
,1647,2023-10-20 13:45:23.87,339,-414,-1987,0,4,29,-220,-457,237,338
,1648,2023-10-20 13:45:23.88,343,-409,-1985,5,5,32,-448,-404,-44,426
,1649,2023-10-20 13:45:23.89,334,-409,-1990,12,5,34,-214,-483,269,348
,1650,2023-10-20 13:45:23.90,344,-401,-1975,8,1,34,-447,-519,72,483
,1651,2023-10-20 13:45:23.91,347,-418,-1974,-4,4,36,-221,-565,344,393
,1652,2023-10-20 13:45:23.92,354,-415,-1971,-15,14,37,-450,-523,73,486
,1653,2023-10-20 13:45:23.93,341,-457,-1992,-33,16,56,-215,-501,286,358
,1654,2023-10-20 13:45:23.94,352,-446,-1991,-35,13,66,-446,-469,23,457
,1655,2023-10-20 13:45:23.95,348,-445,-2003,-39,9,81,-214,-558,344,386
,1656,2023-10-20 13:45:23.96,343,-427,-2003,-53,0,94,-452,-542,90,497
,1657,2023-10-20 13:45:23.97,342,-402,-2017,-46,-13,82,-216,-471,255,343
,1658,2023-10-20 13:45:23.98,342,-401,-2005,-51,-25,56,-447,-406,-41,426
,1659,2023-10-20 13:45:23.99,335,-404,-1987,-53,-29,46,-213,-470,257,341
,1660,2023-10-20 13:45:24.00,346,-421,-1991,-56,-28,35,-444,-470,26,457
,1661,2023-10-20 13:45:24.01,338,-426,-1994,-52,-26,26,-216,-505,289,360
,1662,2023-10-20 13:45:24.02,335,-427,-1990,-62,-24,30,-443,-468,25,455
,1663,2023-10-20 13:45:24.03,333,-424,-1989,-72,-9,36,-213,-511,298,362
,1664,2023-10-20 13:45:24.04,343,-420,-1980,-75,-1,37,-447,-478,31,462
,1665,2023-10-20 13:45:24.05,330,-419,-1988,-74,10,49,-216,-518,302,367
,1666,2023-10-20 13:45:24.06,320,-395,-2002,-63,21,64,-445,-485,40,465
,1667,2023-10-20 13:45:24.07,321,-373,-2008,-49,16,58,-219,-547,328,383
,1668,2023-10-20 13:45:24.08,329,-332,-2014,-25,16,32,-447,-497,50,472
,1669,2023-10-20 13:45:24.09,324,-319,-1998,1,7,-14,-224,-557,333,390
,1670,2023-10-20 13:45:24.10,349,-329,-1995,27,8,-61,-441,-511,70,476
,1671,2023-10-20 13:45:24.11,351,-372,-1976,47,6,-105,-220,-537,317,378
,1672,2023-10-20 13:45:24.12,351,-417,-1993,35,16,-98,-440,-471,31,455
,1673,2023-10-20 13:45:24.13,345,-417,-1994,12,33,-72,-218,-551,333,384
,1674,2023-10-20 13:45:24.14,359,-455,-2006,-6,29,-37,-442,-504,62,473
,1675,2023-10-20 13:45:24.15,363,-453,-2005,-28,31,7,-228,-524,296,376
,1676,2023-10-20 13:45:24.16,387,-451,-2013,-39,39,61,-449,-467,18,458
,1677,2023-10-20 13:45:24.17,365,-423,-2002,-42,50,106,-227,-573,346,400
,1678,2023-10-20 13:45:24.18,361,-406,-2003,-37,49,143,-429,-524,95,476
,1679,2023-10-20 13:45:24.19,381,-404,-2026,-33,36,162,-222,-581,359,401
,1680,2023-10-20 13:45:24.20,370,-395,-2006,-29,19,173,-430,-518,88,474
,1681,2023-10-20 13:45:24.21,361,-363,-2013,-21,-4,163,-232,-582,350,407
,1682,2023-10-20 13:45:24.22,339,-357,-2014,-24,-22,151,-429,-511,82,470
,1683,2023-10-20 13:45:24.23,340,-340,-2016,-33,-39,138,-227,-597,370,412
,1684,2023-10-20 13:45:24.24,345,-338,-2008,-44,-52,116,-419,-517,98,468
,1685,2023-10-20 13:45:24.25,343,-368,-2006,-52,-65,102,-234,-552,318,393
,1686,2023-10-20 13:45:24.26,339,-376,-2009,-61,-74,92,-422,-470,48,446
,1687,2023-10-20 13:45:24.27,331,-352,-1999,-55,-71,78,-244,-569,325,406
