// Data mode  : Full
// Data quality  : High
// Acceleration sensor's range  : 16g
// Gyroscope sensor's range  : 2000dps
//
//ARTIFACT,NUM,DATE,ACC_X,ACC_Y,ACC_Z,GYRO_X,GYRO_Y,GYRO_Z,EOG_L,EOG_R,EOG_H,EOG_V
,1,2023-10-20 13:08:17.90,114,-417,-2020,-10,5,26,624,256,368,-440
,2,2023-10-20 13:08:17.91,120,-407,-2021,-8,4,22,503,98,405,-300
,3,2023-10-20 13:08:17.92,118,-411,-2013,-3,7,21,614,267,347,-440
,4,2023-10-20 13:08:17.93,125,-403,-2005,5,9,19,500,103,397,-301
,5,2023-10-20 13:08:17.94,120,-406,-2005,12,13,14,605,260,345,-432
,6,2023-10-20 13:08:17.95,120,-405,-2018,15,13,12,502,84,418,-293
,7,2023-10-20 13:08:17.96,121,-413,-2027,21,6,10,608,250,358,-429
,8,2023-10-20 13:08:17.97,122,-424,-2033,27,2,8,508,78,430,-293
,9,2023-10-20 13:08:17.98,138,-424,-2030,28,1,12,605,236,369,-420
,10,2023-10-20 13:08:17.99,126,-433,-2025,27,7,9,497,83,414,-290
,11,2023-10-20 13:08:18.00,122,-444,-2007,36,-10,13,586,243,343,-414
,12,2023-10-20 13:08:18.01,135,-427,-2004,48,-12,14,501,81,420,-291
,13,2023-10-20 13:08:18.02,127,-430,-2005,45,-4,18,592,238,354,-415
,14,2023-10-20 13:08:18.03,120,-446,-2002,41,-3,13,508,94,414,-301
,15,2023-10-20 13:08:18.04,118,-436,-2020,42,12,18,582,259,323,-420
,16,2023-10-20 13:08:18.05,112,-423,-2019,34,14,23,507,106,401,-306
,17,2023-10-20 13:08:18.06,106,-444,-2013,25,18,22,588,265,323,-426
,18,2023-10-20 13:08:18.07,115,-433,-2031,22,8,24,520,97,423,-308
,19,2023-10-20 13:08:18.08,117,-422,-2034,15,5,24,590,249,341,-419
,20,2023-10-20 13:08:18.09,104,-432,-2032,6,-3,26,516,103,413,-309
,21,2023-10-20 13:08:18.10,116,-427,-2026,-1,-4,26,575,256,319,-415
,22,2023-10-20 13:08:18.11,121,-425,-2019,0,-9,28,512,117,395,-314
,23,2023-10-20 13:08:18.12,119,-421,-2016,1,-8,24,563,257,306,-410
,24,2023-10-20 13:08:18.13,113,-422,-2014,-1,-7,22,513,108,405,-310
,25,2023-10-20 13:08:18.14,116,-413,-2011,0,-2,20,572,257,315,-414
,26,2023-10-20 13:08:18.15,120,-420,-2015,-2,-2,19,533,108,425,-320
,27,2023-10-20 13:08:18.16,105,-425,-2015,-3,-2,15,574,248,326,-411
,28,2023-10-20 13:08:18.17,105,-428,-2018,-1,-4,14,536,107,429,-321
,29,2023-10-20 13:08:18.18,112,-425,-2012,0,-5,16,571,247,324,-409
,30,2023-10-20 13:08:18.19,119,-428,-2006,1,-6,12,516,104,412,-310
,31,2023-10-20 13:08:18.20,112,-433,-2016,8,-4,11,542,235,307,-388
,32,2023-10-20 13:08:18.21,107,-425,-2011,16,0,12,520,95,425,-307
,33,2023-10-20 13:08:18.22,115,-423,-2003,22,5,7,553,227,326,-390
,34,2023-10-20 13:08:18.23,124,-434,-2021,25,7,7,530,91,439,-310
,35,2023-10-20 13:08:18.24,114,-430,-2023,25,9,5,554,221,333,-387
,36,2023-10-20 13:08:18.25,129,-432,-2035,30,2,3,538,99,439,-318
,37,2023-10-20 13:08:18.26,113,-435,-2030,33,-9,7,546,222,324,-384
,38,2023-10-20 13:08:18.27,107,-432,-2021,26,-5,12,526,92,434,-309
,39,2023-10-20 13:08:18.28,114,-451,-2008,22,-21,14,540,212,328,-376
,40,2023-10-20 13:08:18.29,115,-440,-2006,27,-15,17,542,92,450,-317
,41,2023-10-20 13:08:18.30,105,-436,-2006,15,-8,21,542,218,324,-380
,42,2023-10-20 13:08:18.31,109,-434,-1986,3,-19,20,530,91,439,-310
,43,2023-10-20 13:08:18.32,111,-422,-2005,2,-5,18,524,202,322,-363
,44,2023-10-20 13:08:18.33,105,-415,-2002,-4,2,16,533,88,445,-310
,45,2023-10-20 13:08:18.34,97,-427,-2004,-5,-7,11,529,200,329,-364
,46,2023-10-20 13:08:18.35,114,-430,-2014,-5,-5,8,559,105,454,-332
,47,2023-10-20 13:08:18.36,110,-418,-2027,-6,-2,5,543,210,333,-376
,48,2023-10-20 13:08:18.37,108,-425,-2036,-10,-4,2,573,109,464,-341
,49,2023-10-20 13:08:18.38,98,-431,-2036,-11,-6,2,543,212,331,-377
,50,2023-10-20 13:08:18.39,117,-424,-2024,-11,-16,6,577,114,463,-345
,51,2023-10-20 13:08:18.40,102,-438,-2004,-14,-31,4,546,214,332,-380
,52,2023-10-20 13:08:18.41,99,-426,-2010,-13,-15,8,580,118,462,-349
,53,2023-10-20 13:08:18.42,100,-416,-2027,-24,-12,10,542,208,334,-375
,54,2023-10-20 13:08:18.43,93,-440,-2016,-37,-5,9,582,118,464,-350
,55,2023-10-20 13:08:18.44,99,-434,-2005,-34,-5,7,534,197,337,-365
,56,2023-10-20 13:08:18.45,119,-420,-2015,-29,-1,8,582,121,461,-351
,57,2023-10-20 13:08:18.46,101,-424,-2021,-33,6,13,535,205,330,-370
,58,2023-10-20 13:08:18.47,102,-413,-2022,-35,10,15,588,127,461,-357
,59,2023-10-20 13:08:18.48,102,-399,-2034,-46,3,15,528,198,330,-363
,60,2023-10-20 13:08:18.49,112,-413,-2020,-45,-9,17,587,123,464,-355
,61,2023-10-20 13:08:18.50,123,-410,-2010,-34,-12,8,528,194,334,-361
,62,2023-10-20 13:08:18.51,120,-396,-2012,-33,-12,1,588,124,464,-356
,63,2023-10-20 13:08:18.52,118,-390,-2015,-27,-11,-7,524,190,334,-357
,64,2023-10-20 13:08:18.53,124,-412,-2017,-22,-15,-18,595,130,465,-362
,65,2023-10-20 13:08:18.54,127,-412,-1998,-11,-8,-23,522,184,338,-353
,66,2023-10-20 13:08:18.55,114,-415,-2016,-13,2,-27,594,130,464,-362
,67,2023-10-20 13:08:18.56,123,-423,-2029,-13,2,-16,513,182,331,-347
,68,2023-10-20 13:08:18.57,117,-424,-2028,-20,2,-4,604,139,465,-371
,69,2023-10-20 13:08:18.58,134,-422,-2024,-27,4,8,515,180,335,-347
,70,2023-10-20 13:08:18.59,136,-424,-2005,-24,-21,19,610,139,471,-374
,71,2023-10-20 13:08:18.60,119,-416,-2006,-20,-11,29,520,189,331,-354
,72,2023-10-20 13:08:18.61,105,-406,-2013,-18,0,34,620,149,471,-384
,73,2023-10-20 13:08:18.62,119,-400,-2010,-17,17,37,517,180,337,-348
,74,2023-10-20 13:08:18.63,103,-392,-2024,-12,16,38,618,147,471,-382
,75,2023-10-20 13:08:18.64,115,-396,-2020,-6,9,37,519,175,344,-347
,76,2023-10-20 13:08:18.65,119,-399,-2023,3,13,39,636,159,477,-397
,77,2023-10-20 13:08:18.66,114,-396,-2024,10,14,33,516,178,338,-347
,78,2023-10-20 13:08:18.67,115,-400,-2022,18,13,32,631,166,465,-398
,79,2023-10-20 13:08:18.68,114,-402,-2024,28,10,32,502,173,329,-337
,80,2023-10-20 13:08:18.69,105,-395,-2025,31,3,34,639,163,476,-401
,81,2023-10-20 13:08:18.70,106,-385,-2045,28,-5,31,514,172,342,-343
,82,2023-10-20 13:08:18.71,107,-396,-2042,19,-26,27,646,172,474,-409
,83,2023-10-20 13:08:18.72,116,-406,-2011,16,-33,25,516,176,340,-346
,84,2023-10-20 13:08:18.73,111,-406,-1999,17,-22,20,641,170,471,-405
,85,2023-10-20 13:08:18.74,108,-414,-2011,19,-6,17,508,159,349,-333
,86,2023-10-20 13:08:18.75,114,-405,-2016,18,-5,13,646,174,472,-410
,87,2023-10-20 13:08:18.76,108,-407,-2005,17,0,15,512,162,350,-337
,88,2023-10-20 13:08:18.77,105,-410,-2008,16,8,14,654,178,476,-416
,89,2023-10-20 13:08:18.78,100,-409,-2022,17,11,14,507,158,349,-332
,90,2023-10-20 13:08:18.79,94,-407,-2035,14,2,18,652,176,476,-414
,91,2023-10-20 13:08:18.80,110,-411,-2032,12,-10,23,508,157,351,-332
,92,2023-10-20 13:08:18.81,95,-416,-2022,10,-14,26,656,173,483,-414
,93,2023-10-20 13:08:18.82,109,-407,-2015,10,-12,27,504,146,358,-325
,94,2023-10-20 13:08:18.83,109,-413,-2018,12,-7,27,656,175,481,-415
,95,2023-10-20 13:08:18.84,102,-407,-2015,12,-5,25,507,151,356,-329
,96,2023-10-20 13:08:18.85,101,-407,-2009,17,0,24,659,189,470,-424
,97,2023-10-20 13:08:18.86,106,-404,-2013,20,2,20,508,152,356,-330
,98,2023-10-20 13:08:18.87,112,-407,-2020,26,1,17,659,185,474,-422
,99,2023-10-20 13:08:18.88,103,-403,-2023,29,0,11,504,137,367,-320
,100,2023-10-20 13:08:18.89,97,-407,-2027,27,-5,10,660,185,475,-422
,101,2023-10-20 13:08:18.90,95,-412,-2029,28,-9,12,504,141,363,-322
,102,2023-10-20 13:08:18.91,110,-408,-2032,25,-14,9,664,197,467,-430
,103,2023-10-20 13:08:18.92,98,-413,-2024,19,-13,11,497,138,359,-317
,104,2023-10-20 13:08:18.93,110,-399,-2004,3,4,9,664,188,476,-426
,105,2023-10-20 13:08:18.94,105,-421,-2001,-10,14,7,495,130,365,-312
,106,2023-10-20 13:08:18.95,107,-421,-2022,-1,-11,8,663,189,474,-426
,107,2023-10-20 13:08:18.96,111,-413,-2008,6,-11,12,497,131,366,-314
,108,2023-10-20 13:08:18.97,108,-415,-2016,3,-3,10,659,196,463,-427
,109,2023-10-20 13:08:18.98,113,-406,-2021,-4,-2,11,496,130,366,-313
,110,2023-10-20 13:08:18.99,98,-410,-2014,-2,-4,11,660,195,465,-427
,111,2023-10-20 13:08:19.00,94,-413,-2023,3,-10,13,492,117,375,-304
,112,2023-10-20 13:08:19.01,112,-409,-2030,2,-15,14,658,198,460,-428
,113,2023-10-20 13:08:19.02,103,-412,-2028,-6,-20,10,488,119,369,-303
,114,2023-10-20 13:08:19.03,99,-419,-2020,-11,-20,6,660,202,458,-431
,115,2023-10-20 13:08:19.04,108,-413,-2024,-12,-21,2,490,117,373,-303
,116,2023-10-20 13:08:19.05,97,-412,-2029,-16,-28,2,666,203,463,-434
,117,2023-10-20 13:08:19.06,94,-429,-2022,-11,-29,4,493,119,374,-306
,118,2023-10-20 13:08:19.07,108,-423,-2008,-7,-26,4,658,200,458,-429
,119,2023-10-20 13:08:19.08,99,-418,-2020,-9,-18,3,479,107,372,-293
,120,2023-10-20 13:08:19.09,102,-412,-2016,-4,-12,-1,634,191,443,-412
,121,2023-10-20 13:08:19.10,96,-398,-2033,-10,-11,-1,483,104,379,-293
,122,2023-10-20 13:08:19.11,78,-405,-2020,-16,-10,-7,651,207,444,-429
,123,2023-10-20 13:08:19.12,91,-414,-2028,-18,-12,-17,483,111,372,-297
,124,2023-10-20 13:08:19.13,108,-377,-1999,-14,-17,-30,669,218,451,-443
,125,2023-10-20 13:08:19.14,96,-409,-2011,-28,-6,-24,481,104,377,-292
,126,2023-10-20 13:08:19.15,86,-423,-2023,-28,-3,-14,647,206,441,-426
,127,2023-10-20 13:08:19.16,92,-407,-2020,-29,-8,-3,483,99,384,-291
,128,2023-10-20 13:08:19.17,102,-407,-2019,-30,-12,10,673,220,453,-446
,129,2023-10-20 13:08:19.18,91,-408,-2010,-21,-9,17,500,108,392,-304
,130,2023-10-20 13:08:19.19,93,-405,-2019,-19,-4,25,681,224,457,-452
,131,2023-10-20 13:08:19.20,94,-395,-2026,-15,0,28,497,103,394,-300
,132,2023-10-20 13:08:19.21,99,-388,-2029,-9,-5,29,664,217,447,-440
,133,2023-10-20 13:08:19.22,95,-388,-2019,2,-11,28,491,96,395,-293
,134,2023-10-20 13:08:19.23,95,-384,-2016,4,-11,22,665,220,445,-442
,135,2023-10-20 13:08:19.24,93,-390,-2019,7,-10,17,496,95,401,-295
,136,2023-10-20 13:08:19.25,90,-387,-2018,11,-10,10,667,221,446,-444
,137,2023-10-20 13:08:19.26,91,-389,-2023,12,-7,6,494,93,401,-293
,138,2023-10-20 13:08:19.27,93,-387,-2022,12,0,4,664,228,436,-446
,139,2023-10-20 13:08:19.28,96,-386,-2023,12,5,0,496,94,402,-295
,140,2023-10-20 13:08:19.29,92,-396,-2022,13,13,-4,668,231,437,-449
,141,2023-10-20 13:08:19.30,82,-395,-2018,7,16,-4,495,88,407,-291
,142,2023-10-20 13:08:19.31,94,-409,-2017,8,18,-2,665,232,433,-448
,143,2023-10-20 13:08:19.32,101,-403,-2015,9,23,-2,497,92,405,-294
,144,2023-10-20 13:08:19.33,96,-397,-2017,10,27,-4,671,236,435,-453
,145,2023-10-20 13:08:19.34,107,-398,-2017,8,30,-6,504,95,409,-299
,146,2023-10-20 13:08:19.35,103,-403,-2012,15,29,-6,668,238,430,-453
,147,2023-10-20 13:08:19.36,99,-400,-2019,19,29,-9,503,91,412,-297
,148,2023-10-20 13:08:19.37,95,-409,-2026,20,27,-6,667,236,431,-451
,149,2023-10-20 13:08:19.38,113,-400,-2016,24,22,-9,500,86,414,-293
,150,2023-10-20 13:08:19.39,117,-424,-2007,20,20,5,658,235,423,-446
,151,2023-10-20 13:08:19.40,101,-446,-2052,16,24,19,495,80,415,-287
,152,2023-10-20 13:08:19.41,99,-425,-2070,13,6,32,649,239,410,-444
,153,2023-10-20 13:08:19.42,91,-399,-2035,11,-13,42,494,83,411,-288
,154,2023-10-20 13:08:19.43,98,-394,-2015,5,-18,46,650,242,408,-446
,155,2023-10-20 13:08:19.44,100,-395,-2016,-2,-20,42,500,85,415,-292
,156,2023-10-20 13:08:19.45,99,-390,-2016,0,-18,37,647,238,409,-442
,157,2023-10-20 13:08:19.46,88,-393,-2015,4,-13,29,501,86,415,-293
,158,2023-10-20 13:08:19.47,96,-384,-2014,10,-10,22,665,250,415,-457
,159,2023-10-20 13:08:19.48,86,-391,-2009,13,-6,19,507,87,420,-297
,160,2023-10-20 13:08:19.49,90,-391,-2018,17,-3,13,648,244,404,-446
,161,2023-10-20 13:08:19.50,93,-392,-2024,19,-1,10,492,72,420,-282
,162,2023-10-20 13:08:19.51,79,-400,-2026,16,-2,9,648,245,403,-446
,163,2023-10-20 13:08:19.52,77,-400,-2022,16,-1,13,516,87,429,-301
,164,2023-10-20 13:08:19.53,104,-395,-2018,12,-2,13,654,250,404,-452
,165,2023-10-20 13:08:19.54,93,-402,-2021,10,2,13,523,90,433,-306
,166,2023-10-20 13:08:19.55,99,-400,-2020,7,5,16,660,255,405,-457
,167,2023-10-20 13:08:19.56,104,-401,-2024,8,9,16,521,87,434,-304
,168,2023-10-20 13:08:19.57,94,-398,-2017,9,11,15,657,258,399,-457
,169,2023-10-20 13:08:19.58,90,-399,-2015,10,11,15,531,92,439,-311
,170,2023-10-20 13:08:19.59,99,-393,-2026,9,13,12,652,257,395,-454
,171,2023-10-20 13:08:19.60,102,-390,-2034,10,11,10,528,90,438,-309
,172,2023-10-20 13:08:19.61,109,-391,-2034,6,10,7,644,252,392,-448
,173,2023-10-20 13:08:19.62,100,-396,-2032,4,3,6,528,85,443,-306
,174,2023-10-20 13:08:19.63,105,-391,-2030,4,2,3,635,245,390,-440
,175,2023-10-20 13:08:19.64,96,-394,-2030,1,-3,0,528,81,447,-304
,176,2023-10-20 13:08:19.65,113,-399,-2028,4,-11,0,635,243,392,-439
,177,2023-10-20 13:08:19.66,105,-401,-2022,4,-12,2,524,76,448,-300
,178,2023-10-20 13:08:19.67,104,-399,-2016,6,-13,2,625,241,384,-433
,179,2023-10-20 13:08:19.68,98,-404,-2024,10,-10,3,529,79,450,-304
,180,2023-10-20 13:08:19.69,98,-404,-2031,11,-12,4,633,246,387,-439
,181,2023-10-20 13:08:19.70,102,-406,-2025,12,-12,10,537,80,457,-308
,182,2023-10-20 13:08:19.71,98,-410,-2027,12,-16,14,629,241,388,-435
,183,2023-10-20 13:08:19.72,86,-407,-2018,14,-17,19,540,84,456,-312
,184,2023-10-20 13:08:19.73,95,-400,-2021,13,-16,25,634,246,388,-440
,185,2023-10-20 13:08:19.74,86,-405,-2017,13,-14,28,548,88,460,-318
,186,2023-10-20 13:08:19.75,94,-397,-2022,12,-11,26,623,243,380,-433
,187,2023-10-20 13:08:19.76,90,-393,-2016,11,-7,26,547,88,459,-317
,188,2023-10-20 13:08:19.77,90,-391,-2018,12,0,23,622,244,378,-433
,189,2023-10-20 13:08:19.78,104,-390,-2025,8,6,21,552,90,462,-321
,190,2023-10-20 13:08:19.79,92,-391,-2023,12,6,18,618,249,369,-433
,191,2023-10-20 13:08:19.80,91,-397,-2022,15,3,15,549,93,456,-321
,192,2023-10-20 13:08:19.81,105,-402,-2030,20,3,11,615,249,366,-432
,193,2023-10-20 13:08:19.82,102,-400,-2025,21,4,7,558,93,465,-325
,194,2023-10-20 13:08:19.83,89,-402,-2016,26,-1,6,609,244,365,-426
,195,2023-10-20 13:08:19.84,90,-406,-2014,26,2,5,556,97,459,-326
,196,2023-10-20 13:08:19.85,89,-409,-2022,25,4,7,610,250,360,-430
,197,2023-10-20 13:08:19.86,95,-413,-2021,28,-1,10,561,101,460,-331
,198,2023-10-20 13:08:19.87,93,-412,-2013,28,-1,13,606,242,364,-424
,199,2023-10-20 13:08:19.88,105,-403,-2016,26,-2,15,570,105,465,-337
,200,2023-10-20 13:08:19.89,92,-404,-2028,21,1,17,602,238,364,-420
,201,2023-10-20 13:08:19.90,91,-402,-2046,15,4,15,565,99,466,-332
,202,2023-10-20 13:08:19.91,86,-408,-2039,11,0,19,579,222,357,-400
,203,2023-10-20 13:08:19.92,88,-411,-2022,12,-3,25,567,102,465,-334
,204,2023-10-20 13:08:19.93,93,-402,-2019,13,-7,28,590,238,352,-414
,205,2023-10-20 13:08:19.94,90,-401,-2015,14,-9,25,573,104,469,-338
,206,2023-10-20 13:08:19.95,86,-396,-2013,16,-9,27,582,233,349,-407
,207,2023-10-20 13:08:19.96,88,-400,-2012,14,-3,29,564,103,461,-333
,208,2023-10-20 13:08:19.97,81,-405,-2014,16,4,28,573,229,344,-401
,209,2023-10-20 13:08:19.98,85,-393,-2019,17,5,25,571,107,464,-339
,210,2023-10-20 13:08:19.99,88,-391,-2026,17,6,22,574,235,339,-404
,211,2023-10-20 13:08:20.00,95,-396,-2027,17,6,21,568,106,462,-337
,212,2023-10-20 13:08:20.01,105,-402,-2020,19,10,18,562,222,340,-392
,213,2023-10-20 13:08:20.02,96,-410,-2016,21,12,18,570,104,466,-337
,214,2023-10-20 13:08:20.03,87,-403,-2018,23,12,15,558,222,336,-390
,215,2023-10-20 13:08:20.04,97,-407,-2016,27,13,14,570,112,458,-341
,216,2023-10-20 13:08:20.05,102,-405,-2021,31,13,15,554,218,336,-386
,217,2023-10-20 13:08:20.06,98,-398,-2018,32,13,16,571,111,460,-341
,218,2023-10-20 13:08:20.07,98,-399,-2024,32,9,15,547,211,336,-379
,219,2023-10-20 13:08:20.08,103,-402,-2024,30,7,16,571,108,463,-339
,220,2023-10-20 13:08:20.09,91,-412,-2029,29,5,21,542,204,338,-373
,221,2023-10-20 13:08:20.10,97,-422,-2023,31,4,27,558,112,446,-335
,222,2023-10-20 13:08:20.11,89,-422,-2023,33,4,37,528,206,322,-367
,223,2023-10-20 13:08:20.12,94,-423,-2014,39,7,41,555,112,443,-333
,224,2023-10-20 13:08:20.13,93,-424,-2018,38,9,52,511,199,312,-355
,225,2023-10-20 13:08:20.14,98,-408,-2030,38,8,54,535,111,424,-323
,226,2023-10-20 13:08:20.15,101,-401,-2025,35,4,50,484,193,291,-338
,227,2023-10-20 13:08:20.16,97,-395,-2028,28,3,49,541,117,424,-329
,228,2023-10-20 13:08:20.17,84,-383,-2024,26,3,33,503,197,306,-350
,229,2023-10-20 13:08:20.18,105,-414,-2029,24,-7,26,578,130,448,-354
,230,2023-10-20 13:08:20.19,93,-404,-2006,22,-2,24,526,206,320,-366
,231,2023-10-20 13:08:20.20,100,-418,-2025,24,4,23,600,144,456,-372
,232,2023-10-20 13:08:20.21,100,-413,-2034,18,3,23,542,214,328,-378
,233,2023-10-20 13:08:20.22,85,-406,-2024,18,-2,25,621,147,474,-384
,234,2023-10-20 13:08:20.23,88,-411,-2017,16,-1,29,544,209,335,-376
,235,2023-10-20 13:08:20.24,77,-415,-2019,10,-1,31,619,144,475,-381
,236,2023-10-20 13:08:20.25,75,-414,-2031,5,-5,37,540,200,340,-370
,237,2023-10-20 13:08:20.26,87,-412,-2035,-1,-17,40,628,145,483,-386
,238,2023-10-20 13:08:20.27,93,-415,-2030,-5,-26,44,542,201,341,-371
,239,2023-10-20 13:08:20.28,95,-411,-2013,2,-29,45,626,151,475,-388
,240,2023-10-20 13:08:20.29,86,-411,-2011,8,-25,42,547,207,340,-377
,241,2023-10-20 13:08:20.30,93,-407,-2017,16,-22,37,627,152,475,-389
,242,2023-10-20 13:08:20.31,80,-402,-2015,19,-23,30,533,193,340,-363
,243,2023-10-20 13:08:20.32,93,-407,-2032,21,-18,26,617,142,475,-379
,244,2023-10-20 13:08:20.33,90,-400,-2029,3,16,22,531,194,337,-362
,245,2023-10-20 13:08:20.34,69,-430,-2018,-6,7,18,632,159,473,-395
,246,2023-10-20 13:08:20.35,94,-446,-2014,6,-25,27,533,188,345,-360
,247,2023-10-20 13:08:20.36,86,-429,-2025,15,-31,37,634,159,475,-396
,248,2023-10-20 13:08:20.37,53,-401,-2054,-12,1,35,524,181,343,-352
,249,2023-10-20 13:08:20.38,82,-408,-2019,-31,-13,36,630,162,468,-396
,250,2023-10-20 13:08:20.39,76,-417,-2006,-13,-17,42,514,181,333,-347
,251,2023-10-20 13:08:20.40,78,-422,-1999,-12,-6,40,622,161,461,-391
,252,2023-10-20 13:08:20.41,78,-444,-2005,-5,-22,43,505,173,332,-339
,253,2023-10-20 13:08:20.42,83,-394,-1987,13,-17,16,656,182,474,-419
,254,2023-10-20 13:08:20.43,87,-414,-1992,-9,7,32,536,185,351,-360
,255,2023-10-20 13:08:20.44,73,-431,-2020,-9,18,38,634,174,460,-404
,256,2023-10-20 13:08:20.45,74,-423,-2040,-8,7,52,502,165,337,-333
,257,2023-10-20 13:08:20.46,81,-410,-2031,-5,-1,64,646,176,470,-411
,258,2023-10-20 13:08:20.47,85,-400,-2017,-10,3,68,524,167,357,-345
,259,2023-10-20 13:08:20.48,79,-397,-2027,-12,5,67,662,184,478,-423
,260,2023-10-20 13:08:20.49,76,-389,-2033,-7,-2,62,511,164,347,-337
,261,2023-10-20 13:08:20.50,77,-385,-2024,0,-10,54,642,172,470,-407
,262,2023-10-20 13:08:20.51,86,-384,-2022,4,-10,43,497,149,348,-323
,263,2023-10-20 13:08:20.52,87,-375,-2018,5,-11,30,645,173,472,-409
,264,2023-10-20 13:08:20.53,96,-380,-2013,3,-10,21,497,149,348,-323
,265,2023-10-20 13:08:20.54,95,-398,-2009,4,-6,16,643,176,467,-409
,266,2023-10-20 13:08:20.55,83,-407,-2026,4,-2,12,488,142,346,-315
,267,2023-10-20 13:08:20.56,68,-418,-2028,13,-2,15,636,167,469,-401
,268,2023-10-20 13:08:20.57,73,-424,-2023,16,-4,18,481,132,349,-306
,269,2023-10-20 13:08:20.58,72,-414,-2028,9,3,25,634,165,469,-399
,270,2023-10-20 13:08:20.59,90,-430,-2002,8,-3,28,480,132,348,-306
,271,2023-10-20 13:08:20.60,84,-430,-2012,9,17,34,636,180,456,-408
,272,2023-10-20 13:08:20.61,72,-408,-2007,3,23,39,484,131,353,-307
,273,2023-10-20 13:08:20.62,79,-411,-2003,-6,27,37,644,181,463,-412
,274,2023-10-20 13:08:20.63,81,-399,-2012,-9,36,32,490,128,362,-309
,275,2023-10-20 13:08:20.64,84,-389,-2011,-11,39,28,649,182,467,-415
,276,2023-10-20 13:08:20.65,84,-389,-2012,-11,42,26,483,127,356,-305
,277,2023-10-20 13:08:20.66,50,-400,-2050,-8,39,22,640,182,458,-411
,278,2023-10-20 13:08:20.67,117,-357,-2025,23,32,-8,467,113,354,-290
,279,2023-10-20 13:08:20.68,94,-395,-1953,18,33,14,631,180,451,-405
,280,2023-10-20 13:08:20.69,76,-486,-2058,-10,49,25,470,110,360,-290
,281,2023-10-20 13:08:20.70,63,-475,-2099,-23,31,57,652,200,452,-426
,282,2023-10-20 13:08:20.71,88,-406,-2043,-17,-4,78,485,126,359,-305
,283,2023-10-20 13:08:20.72,92,-412,-2009,-12,-7,87,652,205,447,-428
,284,2023-10-20 13:08:20.73,69,-402,-2010,-10,8,87,470,114,356,-292
,285,2023-10-20 13:08:20.74,80,-370,-2017,-14,7,80,654,207,447,-430
,286,2023-10-20 13:08:20.75,94,-358,-2020,-16,5,73,481,125,356,-303
,287,2023-10-20 13:08:20.76,79,-353,-2012,-25,11,55,662,230,432,-446
,288,2023-10-20 13:08:20.77,99,-350,-2025,-31,4,37,484,138,346,-311
,289,2023-10-20 13:08:20.78,88,-361,-2033,-31,7,13,656,234,422,-445
,290,2023-10-20 13:08:20.79,117,-406,-2003,-30,-6,7,483,134,349,-308
,291,2023-10-20 13:08:20.80,103,-418,-1994,-12,1,7,654,232,422,-443
,292,2023-10-20 13:08:20.81,96,-413,-2020,4,9,10,482,130,352,-306
,293,2023-10-20 13:08:20.82,91,-400,-2023,17,0,16,659,233,426,-446
,294,2023-10-20 13:08:20.83,96,-399,-2032,32,-6,25,480,129,351,-304
,295,2023-10-20 13:08:20.84,89,-403,-2036,35,-9,25,655,233,422,-444
,296,2023-10-20 13:08:20.85,88,-397,-2052,39,-20,25,475,119,356,-297
,297,2023-10-20 13:08:20.86,80,-403,-2049,40,-32,24,656,234,422,-445
,298,2023-10-20 13:08:20.87,73,-405,-2036,44,-37,27,479,115,364,-297
,299,2023-10-20 13:08:20.88,82,-414,-2018,41,-35,30,648,228,420,-438
,300,2023-10-20 13:08:20.89,90,-415,-2011,43,-28,31,470,110,360,-290
,301,2023-10-20 13:08:20.90,70,-413,-2018,47,-22,29,644,229,415,-436
,302,2023-10-20 13:08:20.91,69,-422,-2009,47,-21,35,468,107,361,-287
,303,2023-10-20 13:08:20.92,75,-414,-2005,49,-16,36,644,229,415,-436
,304,2023-10-20 13:08:20.93,63,-401,-2007,39,-11,37,466,98,368,-282
,305,2023-10-20 13:08:20.94,64,-393,-2018,26,1,36,635,222,413,-428
,306,2023-10-20 13:08:20.95,71,-404,-2027,20,-19,33,457,86,371,-271
,307,2023-10-20 13:08:20.96,56,-424,-2036,15,-12,41,624,211,413,-417
,308,2023-10-20 13:08:20.97,63,-434,-2034,5,-12,54,447,75,372,-261
,309,2023-10-20 13:08:20.98,76,-439,-2022,-2,-24,67,614,203,411,-408
,310,2023-10-20 13:08:20.99,67,-434,-2025,-18,-13,86,448,69,379,-258
,311,2023-10-20 13:08:21.00,55,-430,-2039,-37,-5,101,617,211,406,-414
,312,2023-10-20 13:08:21.01,61,-407,-2038,-46,-8,111,448,78,370,-263
,313,2023-10-20 13:08:21.02,50,-381,-2028,-50,-8,112,618,223,395,-420
,314,2023-10-20 13:08:21.03,71,-358,-2026,-42,-15,101,455,80,375,-267
,315,2023-10-20 13:08:21.04,68,-349,-2016,-37,-16,79,624,225,399,-424
,316,2023-10-20 13:08:21.05,61,-345,-2004,-36,-11,55,457,77,380,-267
,317,2023-10-20 13:08:21.06,74,-363,-2022,-39,-9,34,609,215,394,-412
,318,2023-10-20 13:08:21.07,65,-376,-2018,-32,-14,23,443,69,374,-256
,319,2023-10-20 13:08:21.08,68,-392,-1991,-31,-7,19,605,222,383,-413
,320,2023-10-20 13:08:21.09,59,-380,-2033,-30,-2,12,454,75,379,-264
,321,2023-10-20 13:08:21.10,86,-370,-2043,-37,-16,13,620,229,391,-424
,322,2023-10-20 13:08:21.11,70,-375,-1993,-27,-24,23,468,85,383,-276
,323,2023-10-20 13:08:21.12,86,-405,-1997,-30,-8,26,601,222,379,-411
,324,2023-10-20 13:08:21.13,73,-423,-2019,-20,11,16,461,73,388,-267
,325,2023-10-20 13:08:21.14,99,-342,-1987,-1,12,7,629,225,404,-427
,326,2023-10-20 13:08:21.15,63,-410,-2033,-12,26,15,478,79,399,-278
,327,2023-10-20 13:08:21.16,72,-416,-2063,-4,25,33,628,233,395,-430
,328,2023-10-20 13:08:21.17,72,-394,-2046,-12,18,45,480,73,407,-276
,329,2023-10-20 13:08:21.18,87,-399,-2023,2,12,54,647,241,406,-444
,330,2023-10-20 13:08:21.19,86,-396,-2010,2,10,60,505,87,418,-296
,331,2023-10-20 13:08:21.20,82,-387,-2033,9,7,60,662,257,405,-459
,332,2023-10-20 13:08:21.21,76,-373,-2041,15,-1,61,512,96,416,-304
,333,2023-10-20 13:08:21.22,80,-371,-2025,16,-5,54,646,258,388,-452
,334,2023-10-20 13:08:21.23,72,-375,-2016,9,0,46,501,97,404,-299
,335,2023-10-20 13:08:21.24,66,-379,-2025,4,-2,38,638,259,379,-448
,336,2023-10-20 13:08:21.25,68,-388,-2035,3,-10,41,506,94,412,-300
,337,2023-10-20 13:08:21.26,46,-396,-2035,4,-15,42,644,257,387,-450
,338,2023-10-20 13:08:21.27,59,-395,-2023,1,-18,49,514,98,416,-306
,339,2023-10-20 13:08:21.28,68,-389,-2015,1,-20,49,645,267,378,-456
,340,2023-10-20 13:08:21.29,57,-383,-2016,-3,-16,50,516,99,417,-307
,341,2023-10-20 13:08:21.30,66,-376,-2009,-10,-10,50,640,260,380,-450
,342,2023-10-20 13:08:21.31,67,-370,-2012,-17,2,43,512,90,422,-301
,343,2023-10-20 13:08:21.32,63,-345,-2007,-16,15,23,633,259,374,-446
,344,2023-10-20 13:08:21.33,64,-328,-2004,-11,24,0,512,101,411,-306
,345,2023-10-20 13:08:21.34,70,-331,-2009,10,20,-24,621,270,351,-445
,346,2023-10-20 13:08:21.35,61,-342,-2012,29,7,-40,515,100,415,-307
,347,2023-10-20 13:08:21.36,106,-433,-1993,36,-3,-32,628,257,371,-442
,348,2023-10-20 13:08:21.37,80,-501,-2017,64,21,3,523,95,428,-309
,349,2023-10-20 13:08:21.38,22,-440,-2118,74,46,17,624,263,361,-443
,350,2023-10-20 13:08:21.39,70,-424,-2112,59,-32,40,520,106,414,-313
,351,2023-10-20 13:08:21.40,62,-409,-2011,57,-62,63,616,268,348,-442
,352,2023-10-20 13:08:21.41,62,-445,-2011,47,-36,78,518,100,418,-309
,353,2023-10-20 13:08:21.42,44,-410,-2014,36,-15,84,606,253,353,-429
,354,2023-10-20 13:08:21.43,53,-408,-2016,42,-9,95,515,98,417,-306
,355,2023-10-20 13:08:21.44,48,-416,-2015,52,-2,97,597,259,338,-428
,356,2023-10-20 13:08:21.45,43,-401,-2010,56,9,94,516,98,418,-307
,357,2023-10-20 13:08:21.46,43,-402,-2024,61,18,93,594,252,342,-423
,358,2023-10-20 13:08:21.47,43,-393,-2025,68,11,87,520,93,427,-306
,359,2023-10-20 13:08:21.48,49,-388,-2013,73,1,74,585,250,335,-417
,360,2023-10-20 13:08:21.49,46,-385,-2013,61,2,62,509,90,419,-299
,361,2023-10-20 13:08:21.50,34,-384,-2006,55,7,58,578,246,332,-412
,362,2023-10-20 13:08:21.51,30,-381,-2009,53,8,47,512,99,413,-305
,363,2023-10-20 13:08:21.52,41,-362,-2012,45,10,38,588,263,325,-425
,364,2023-10-20 13:08:21.53,38,-372,-2020,42,10,28,520,96,424,-308
,365,2023-10-20 13:08:21.54,57,-382,-2022,37,5,18,574,243,331,-408
,366,2023-10-20 13:08:21.55,42,-384,-2026,36,-2,11,508,77,431,-292
,367,2023-10-20 13:08:21.56,48,-381,-2032,27,7,8,572,236,336,-404
,368,2023-10-20 13:08:21.57,50,-396,-2022,14,17,4,524,82,442,-303
,369,2023-10-20 13:08:21.58,60,-399,-2019,10,19,0,556,218,338,-387
,370,2023-10-20 13:08:21.59,53,-405,-2020,15,27,-3,526,81,445,-303
,371,2023-10-20 13:08:21.60,66,-397,-2037,20,24,1,560,223,337,-391
,372,2023-10-20 13:08:21.61,75,-398,-2030,28,19,3,530,78,452,-304
,373,2023-10-20 13:08:21.62,59,-410,-2033,33,7,6,560,218,342,-389
,374,2023-10-20 13:08:21.63,67,-403,-2028,39,3,11,534,84,450,-309
,375,2023-10-20 13:08:21.64,69,-409,-2026,36,6,17,561,224,337,-392
,376,2023-10-20 13:08:21.65,60,-409,-2023,39,-4,21,540,90,450,-315
,377,2023-10-20 13:08:21.66,65,-395,-2036,49,-14,15,568,229,339,-398
,378,2023-10-20 13:08:21.67,67,-382,-2020,49,-26,10,557,113,444,-335
,379,2023-10-20 13:08:21.68,70,-387,-2001,52,-20,5,569,248,321,-408
,380,2023-10-20 13:08:21.69,67,-401,-2033,37,-14,-3,560,115,445,-337
,381,2023-10-20 13:08:21.70,64,-411,-2045,24,-14,-5,570,234,336,-402
,382,2023-10-20 13:08:21.71,76,-409,-2018,29,-20,0,567,112,455,-339
,383,2023-10-20 13:08:21.72,74,-427,-1999,25,-17,11,566,233,333,-399
,384,2023-10-20 13:08:21.73,65,-454,-2009,23,-6,33,575,123,452,-349
,385,2023-10-20 13:08:21.74,67,-440,-2025,24,-5,50,565,241,324,-403
,386,2023-10-20 13:08:21.75,91,-435,-2014,27,-6,65,565,131,434,-348
,387,2023-10-20 13:08:21.76,61,-428,-2009,41,6,76,548,236,312,-392
,388,2023-10-20 13:08:21.77,71,-383,-2065,43,-2,64,563,127,436,-345
,389,2023-10-20 13:08:21.78,58,-362,-2058,44,-40,56,538,232,306,-385
,390,2023-10-20 13:08:21.79,78,-370,-2025,53,-74,42,556,124,432,-340
,391,2023-10-20 13:08:21.80,78,-392,-2011,39,-80,22,526,220,306,-373
,392,2023-10-20 13:08:21.81,65,-418,-2014,34,-70,11,542,119,423,-330
,393,2023-10-20 13:08:21.82,58,-429,-2014,43,-62,0,506,209,297,-357
,394,2023-10-20 13:08:21.83,52,-451,-2017,57,-62,7,539,117,422,-328
,395,2023-10-20 13:08:21.84,43,-445,-2010,61,-55,9,511,212,299,-361
,396,2023-10-20 13:08:21.85,56,-438,-2007,58,-48,18,537,119,418,-328
,397,2023-10-20 13:08:21.86,21,-452,-2023,53,-48,24,501,206,295,-353
,398,2023-10-20 13:08:21.87,38,-440,-2014,46,-44,36,574,134,440,-354
,399,2023-10-20 13:08:21.88,43,-424,-1988,42,-39,49,537,214,323,-375
,400,2023-10-20 13:08:21.89,37,-434,-1995,33,-28,50,577,141,436,-359
,401,2023-10-20 13:08:21.90,39,-431,-2012,29,-26,57,512,206,306,-359
,402,2023-10-20 13:08:21.91,30,-407,-2012,25,-26,52,569,138,431,-353
,403,2023-10-20 13:08:21.92,42,-408,-2006,23,-22,45,512,203,309,-357
,404,2023-10-20 13:08:21.93,34,-406,-2013,22,-20,36,598,148,450,-373
,405,2023-10-20 13:08:21.94,41,-417,-2021,24,-22,30,516,193,323,-354
,406,2023-10-20 13:08:21.95,31,-420,-2014,32,-26,23,580,140,440,-360
,407,2023-10-20 13:08:21.96,20,-419,-2012,33,-26,19,497,184,313,-340
,408,2023-10-20 13:08:21.97,26,-424,-2012,32,-25,15,588,140,448,-364
,409,2023-10-20 13:08:21.98,24,-429,-2021,24,-25,12,501,185,316,-343
,410,2023-10-20 13:08:21.99,40,-428,-2021,21,-17,12,581,134,447,-357
,411,2023-10-20 13:08:22.00,31,-430,-2013,19,-13,10,495,178,317,-336
,412,2023-10-20 13:08:22.01,28,-438,-2007,17,-9,11,588,145,443,-366
,413,2023-10-20 13:08:22.02,35,-439,-2013,19,-5,13,498,178,320,-338
,414,2023-10-20 13:08:22.03,28,-434,-2012,20,-2,14,595,147,448,-371
,415,2023-10-20 13:08:22.04,33,-441,-2007,22,7,17,500,177,323,-338
,416,2023-10-20 13:08:22.05,21,-430,-2016,24,14,16,606,152,454,-379
,417,2023-10-20 13:08:22.06,31,-421,-2016,30,15,14,504,176,328,-340
,418,2023-10-20 13:08:22.07,17,-426,-2019,35,14,13,609,161,448,-385
,419,2023-10-20 13:08:22.08,4,-424,-2023,47,11,0,500,180,320,-340
,420,2023-10-20 13:08:22.09,25,-365,-1998,63,5,-26,610,168,442,-389
,421,2023-10-20 13:08:22.10,43,-411,-1989,36,-1,-15,494,180,314,-337
,422,2023-10-20 13:08:22.11,43,-512,-1996,21,11,-11,618,168,450,-393
,423,2023-10-20 13:08:22.12,22,-490,-2030,9,33,14,499,177,322,-338
,424,2023-10-20 13:08:22.13,38,-443,-2064,4,10,27,625,171,454,-398
,425,2023-10-20 13:08:22.14,16,-391,-1991,12,-10,31,493,168,325,-330
,426,2023-10-20 13:08:22.15,39,-439,-2012,15,-12,22,618,168,450,-393
,427,2023-10-20 13:08:22.16,44,-426,-1991,5,2,26,493,163,330,-328
,428,2023-10-20 13:08:22.17,23,-430,-2014,13,10,20,629,172,457,-400
,429,2023-10-20 13:08:22.18,24,-426,-2029,15,6,13,495,166,329,-330
,430,2023-10-20 13:08:22.19,36,-412,-2028,18,-7,6,620,184,436,-402
,431,2023-10-20 13:08:22.20,32,-422,-2005,21,-10,1,482,162,320,-322
,432,2023-10-20 13:08:22.21,21,-431,-2013,16,-2,-9,618,171,447,-394
,433,2023-10-20 13:08:22.22,25,-429,-2024,14,2,-13,481,142,339,-311
,434,2023-10-20 13:08:22.23,38,-420,-2006,19,-4,-19,618,169,449,-393
,435,2023-10-20 13:08:22.24,27,-437,-1990,22,0,-22,471,143,328,-307
,436,2023-10-20 13:08:22.25,17,-446,-2016,17,11,-22,608,188,420,-398
,437,2023-10-20 13:08:22.26,24,-439,-2026,16,6,-17,464,145,319,-304
,438,2023-10-20 13:08:22.27,26,-444,-2026,20,0,-11,614,178,436,-396
,439,2023-10-20 13:08:22.28,20,-433,-2022,19,-2,-6,465,129,336,-297
,440,2023-10-20 13:08:22.29,27,-446,-2010,14,-1,-5,622,174,448,-398
,441,2023-10-20 13:08:22.30,26,-446,-2027,13,13,3,467,126,341,-296
,442,2023-10-20 13:08:22.31,31,-438,-2042,14,22,4,624,182,442,-403
,443,2023-10-20 13:08:22.32,28,-432,-2027,15,21,3,469,127,342,-298
,444,2023-10-20 13:08:22.33,35,-429,-2021,26,19,1,632,190,442,-411
,445,2023-10-20 13:08:22.34,30,-417,-2017,37,18,0,486,144,342,-315
,446,2023-10-20 13:08:22.35,34,-403,-2017,40,16,-9,650,213,437,-431
,447,2023-10-20 13:08:22.36,32,-400,-2027,39,11,-12,490,146,344,-318
,448,2023-10-20 13:08:22.37,29,-396,-2023,31,10,-20,666,213,453,-439
,449,2023-10-20 13:08:22.38,24,-429,-2010,25,-2,-23,503,150,353,-326
,450,2023-10-20 13:08:22.39,37,-424,-2008,40,-29,-34,667,215,452,-441
,451,2023-10-20 13:08:22.40,41,-424,-1997,52,-36,-34,482,128,354,-305
,452,2023-10-20 13:08:22.41,48,-440,-1986,64,-22,-38,672,222,450,-447
,453,2023-10-20 13:08:22.42,41,-439,-1988,77,-23,-51,511,146,365,-328
,454,2023-10-20 13:08:22.43,46,-416,-2011,87,-30,-59,686,230,456,-458
,455,2023-10-20 13:08:22.44,33,-440,-1998,89,-16,-65,504,135,369,-319
,456,2023-10-20 13:08:22.45,31,-455,-2007,86,-11,-72,654,206,448,-430
,457,2023-10-20 13:08:22.46,44,-448,-2039,88,-19,-78,478,111,367,-294
,458,2023-10-20 13:08:22.47,52,-441,-2035,82,-24,-79,665,212,453,-438
,459,2023-10-20 13:08:22.48,40,-455,-2018,66,-22,-83,495,119,376,-307
,460,2023-10-20 13:08:22.49,31,-485,-1986,62,-12,-85,644,203,441,-423
,461,2023-10-20 13:08:22.50,53,-486,-1990,80,-3,-80,458,95,363,-276
,462,2023-10-20 13:08:22.51,32,-509,-1997,79,11,-71,627,194,433,-410
,463,2023-10-20 13:08:22.52,26,-525,-2008,78,18,-65,469,96,373,-282
,464,2023-10-20 13:08:22.53,25,-511,-1995,86,19,-54,634,198,436,-416
,465,2023-10-20 13:08:22.54,60,-494,-1965,100,4,-45,455,87,368,-271
,466,2023-10-20 13:08:22.55,41,-485,-1983,90,12,-48,619,189,430,-404
,467,2023-10-20 13:08:22.56,51,-473,-2018,78,20,-49,453,86,367,-269
,468,2023-10-20 13:08:22.57,25,-463,-2040,69,7,-46,630,215,415,-422
,469,2023-10-20 13:08:22.58,7,-448,-2050,43,0,-50,455,88,367,-271
,470,2023-10-20 13:08:22.59,35,-436,-2042,13,-15,-57,630,194,436,-412
,471,2023-10-20 13:08:22.60,20,-444,-2014,-7,-25,-60,464,70,394,-267
,472,2023-10-20 13:08:22.61,25,-464,-2001,-20,-11,-62,656,209,447,-432
,473,2023-10-20 13:08:22.62,23,-467,-1969,-26,-3,-63,480,90,390,-285
,474,2023-10-20 13:08:22.63,15,-461,-1966,-29,-4,-63,648,217,431,-432
,475,2023-10-20 13:08:22.64,24,-470,-1962,-31,0,-63,471,83,388,-277
,476,2023-10-20 13:08:22.65,15,-456,-1981,-44,6,-62,643,212,431,-427
,477,2023-10-20 13:08:22.66,11,-471,-2000,-55,6,-61,472,82,390,-277
,478,2023-10-20 13:08:22.67,33,-456,-2022,-63,-2,-59,659,230,429,-444
,479,2023-10-20 13:08:22.68,24,-430,-2029,-62,-8,-70,501,98,403,-299
,480,2023-10-20 13:08:22.69,24,-437,-2016,-61,-2,-85,688,249,439,-468
,481,2023-10-20 13:08:22.70,39,-424,-2006,-57,-3,-103,504,109,395,-306
,482,2023-10-20 13:08:22.71,58,-425,-1980,-66,-4,-117,667,248,419,-457
,483,2023-10-20 13:08:22.72,69,-422,-1959,-59,17,-134,490,100,390,-295
,484,2023-10-20 13:08:22.73,73,-434,-1944,-56,60,-139,653,239,414,-446
,485,2023-10-20 13:08:22.74,69,-477,-1953,-62,104,-140,481,85,396,-283
,486,2023-10-20 13:08:22.75,78,-451,-2052,-43,132,-148,645,231,414,-438
,487,2023-10-20 13:08:22.76,49,-429,-2085,-38,118,-135,471,76,395,-273
,488,2023-10-20 13:08:22.77,48,-461,-2066,-21,81,-139,623,221,402,-422
,489,2023-10-20 13:08:22.78,48,-444,-2048,-13,63,-136,454,56,398,-255
,490,2023-10-20 13:08:22.79,28,-399,-2020,-24,67,-147,603,204,399,-403
,491,2023-10-20 13:08:22.80,27,-395,-2033,-39,66,-157,441,55,386,-248
,492,2023-10-20 13:08:22.81,22,-413,-1998,-58,70,-159,586,203,383,-394
,493,2023-10-20 13:08:22.82,25,-425,-1976,-72,79,-160,444,56,388,-250
,494,2023-10-20 13:08:22.83,42,-462,-1978,-88,92,-145,604,225,379,-414
,495,2023-10-20 13:08:22.84,40,-456,-1982,-88,126,-133,452,62,390,-257
,496,2023-10-20 13:08:22.85,63,-447,-1972,-83,127,-124,628,245,383,-436
,497,2023-10-20 13:08:22.86,77,-435,-1995,-87,161,-127,490,89,401,-289
,498,2023-10-20 13:08:22.87,101,-432,-1963,-70,157,-126,646,250,396,-448
,499,2023-10-20 13:08:22.88,82,-428,-2006,-59,175,-137,500,87,413,-293
,500,2023-10-20 13:08:22.89,90,-415,-2069,-51,156,-139,644,251,393,-447
,501,2023-10-20 13:08:22.90,82,-433,-2105,-54,108,-140,507,98,409,-302
,502,2023-10-20 13:08:22.91,61,-448,-2124,-59,80,-130,638,265,373,-451
,503,2023-10-20 13:08:22.92,67,-473,-2104,-63,30,-111,510,105,405,-307
,504,2023-10-20 13:08:22.93,86,-476,-2066,-73,26,-88,640,269,371,-454
,505,2023-10-20 13:08:22.94,97,-494,-1994,-59,9,-67,516,103,413,-309
,506,2023-10-20 13:08:22.95,92,-473,-2041,-40,41,-47,638,264,374,-451
,507,2023-10-20 13:08:22.96,84,-434,-2051,-57,103,-31,510,98,412,-304
,508,2023-10-20 13:08:22.97,74,-442,-2044,-85,125,-26,618,253,365,-435
,509,2023-10-20 13:08:22.98,60,-446,-2034,-92,113,-27,488,85,403,-286
,510,2023-10-20 13:08:22.99,91,-412,-2015,-76,82,-33,587,233,354,-410
,511,2023-10-20 13:08:23.00,89,-401,-1987,-69,74,-49,467,59,408,-263
,512,2023-10-20 13:08:23.01,90,-361,-1972,-76,82,-83,559,198,361,-378
,513,2023-10-20 13:08:23.02,105,-352,-1979,-78,97,-128,446,30,416,-238
,514,2023-10-20 13:08:23.03,117,-340,-1967,-65,103,-162,537,178,359,-357
,515,2023-10-20 13:08:23.04,107,-365,-1986,-45,105,-199,426,14,412,-220
,516,2023-10-20 13:08:23.05,89,-384,-2051,-35,101,-216,519,159,360,-339
,517,2023-10-20 13:08:23.06,96,-400,-2047,-29,70,-229,421,7,414,-214
,518,2023-10-20 13:08:23.07,102,-457,-2019,-44,62,-212,515,161,354,-338
,519,2023-10-20 13:08:23.08,94,-465,-1963,-34,49,-181,430,16,414,-223
,520,2023-10-20 13:08:23.09,92,-461,-2055,-13,60,-181,510,166,344,-338
,521,2023-10-20 13:08:23.10,107,-409,-1996,-32,38,-146,435,18,417,-226
,522,2023-10-20 13:08:23.11,147,-419,-1965,-26,21,-138,530,182,348,-356
,523,2023-10-20 13:08:23.12,161,-429,-1985,-36,39,-126,462,36,426,-249
,524,2023-10-20 13:08:23.13,153,-392,-1969,-37,82,-128,544,199,345,-371
,525,2023-10-20 13:08:23.14,151,-366,-1982,-30,96,-137,480,57,423,-268
,526,2023-10-20 13:08:23.15,163,-381,-2020,-34,108,-143,561,215,346,-388
,527,2023-10-20 13:08:23.16,181,-382,-2041,-38,112,-146,521,90,431,-305
,528,2023-10-20 13:08:23.17,193,-386,-2025,-39,116,-146,598,252,346,-425
,529,2023-10-20 13:08:23.18,216,-386,-2020,-41,123,-139,548,112,436,-330
,530,2023-10-20 13:08:23.19,232,-381,-2017,-40,130,-129,608,255,353,-431
,531,2023-10-20 13:08:23.20,220,-368,-2034,-30,121,-122,565,119,446,-342
,532,2023-10-20 13:08:23.21,243,-356,-2039,-15,101,-117,628,271,357,-449
,533,2023-10-20 13:08:23.22,258,-361,-2040,-1,85,-112,592,132,460,-362
,534,2023-10-20 13:08:23.23,268,-365,-2041,12,90,-100,639,274,365,-456
,535,2023-10-20 13:08:23.24,248,-374,-2031,22,98,-91,611,140,471,-375
,536,2023-10-20 13:08:23.25,248,-375,-2039,44,84,-82,661,286,375,-473
,537,2023-10-20 13:08:23.26,235,-382,-2028,71,64,-70,618,149,469,-383
,538,2023-10-20 13:08:23.27,249,-385,-2005,87,55,-56,646,282,364,-464
,539,2023-10-20 13:08:23.28,245,-391,-2002,95,56,-43,613,142,471,-377
,540,2023-10-20 13:08:23.29,235,-387,-2017,91,54,-32,634,274,360,-454
,541,2023-10-20 13:08:23.30,223,-380,-2032,84,46,-25,614,143,471,-378
,542,2023-10-20 13:08:23.31,210,-378,-2020,74,30,-17,626,269,357,-447
,543,2023-10-20 13:08:23.32,200,-392,-2013,65,13,-9,628,154,474,-391
,544,2023-10-20 13:08:23.33,197,-392,-2041,49,4,-1,648,288,360,-468
,545,2023-10-20 13:08:23.34,190,-382,-2063,23,-1,5,644,170,474,-407
,546,2023-10-20 13:08:23.35,181,-385,-2065,1,-4,12,648,293,355,-470
,547,2023-10-20 13:08:23.36,179,-378,-2050,-19,-6,18,647,178,469,-412
,548,2023-10-20 13:08:23.37,177,-380,-2044,-28,-2,19,634,288,346,-461
,549,2023-10-20 13:08:23.38,190,-364,-2012,-34,5,16,636,167,469,-401
,550,2023-10-20 13:08:23.39,201,-356,-1988,-27,18,8,619,268,351,-443
,551,2023-10-20 13:08:23.40,187,-338,-2001,-16,36,-9,648,166,482,-407
,552,2023-10-20 13:08:23.41,207,-333,-2025,-12,38,-24,635,281,354,-458
,553,2023-10-20 13:08:23.42,196,-359,-2037,-6,32,-23,662,191,471,-426
,554,2023-10-20 13:08:23.43,186,-376,-2079,-9,11,-18,630,293,337,-461
,555,2023-10-20 13:08:23.44,183,-385,-2077,-7,-16,1,647,175,472,-411
,556,2023-10-20 13:08:23.45,163,-388,-2080,-6,-38,15,598,259,339,-428
,557,2023-10-20 13:08:23.46,167,-370,-2073,-7,-60,27,647,166,481,-406
,558,2023-10-20 13:08:23.47,186,-352,-2021,-12,-78,33,613,268,345,-440
,559,2023-10-20 13:08:23.48,190,-359,-1993,-16,-74,36,641,176,465,-408
,560,2023-10-20 13:08:23.49,200,-377,-1977,-17,-53,35,576,249,327,-412
,561,2023-10-20 13:08:23.50,166,-385,-1979,-20,-23,38,629,161,468,-395
,562,2023-10-20 13:08:23.51,138,-372,-2055,-15,-10,37,582,247,335,-414
,563,2023-10-20 13:08:23.52,137,-349,-2056,-12,-39,39,628,159,469,-393
,564,2023-10-20 13:08:23.53,160,-373,-1995,-1,-52,51,556,231,325,-393
,565,2023-10-20 13:08:23.54,163,-408,-1978,-7,-39,54,603,145,458,-374
,566,2023-10-20 13:08:23.55,152,-417,-1979,-3,-12,64,538,218,320,-378
,567,2023-10-20 13:08:23.56,173,-398,-1987,12,0,66,602,148,454,-375
,568,2023-10-20 13:08:23.57,172,-393,-1992,25,18,74,547,228,319,-387
,569,2023-10-20 13:08:23.58,173,-379,-2030,25,41,69,592,138,454,-365
,570,2023-10-20 13:08:23.59,164,-376,-2080,12,50,65,507,188,319,-347
,571,2023-10-20 13:08:23.60,165,-373,-2066,15,44,57,581,119,462,-350
,572,2023-10-20 13:08:23.61,171,-382,-2059,4,36,56,516,193,323,-354
,573,2023-10-20 13:08:23.62,168,-400,-2065,-5,35,66,604,149,455,-376
,574,2023-10-20 13:08:23.63,160,-401,-2066,-14,24,85,508,191,317,-349
,575,2023-10-20 13:08:23.64,169,-401,-2034,-6,10,96,584,134,450,-359
,576,2023-10-20 13:08:23.65,177,-376,-1979,-1,3,103,503,177,326,-340
,577,2023-10-20 13:08:23.66,211,-373,-1928,11,19,98,603,145,458,-374
,578,2023-10-20 13:08:23.67,202,-352,-1974,19,47,87,503,182,321,-342
,579,2023-10-20 13:08:23.68,196,-341,-2026,22,55,74,599,141,458,-370
,580,2023-10-20 13:08:23.69,188,-344,-2061,30,34,71,508,174,334,-341
,581,2023-10-20 13:08:23.70,167,-359,-2064,33,7,70,592,146,446,-369
,582,2023-10-20 13:08:23.71,202,-375,-2028,42,-30,72,492,174,318,-333
,583,2023-10-20 13:08:23.72,205,-385,-1967,60,-50,76,602,150,452,-376
,584,2023-10-20 13:08:23.73,199,-380,-1939,79,-47,76,501,176,325,-338
,585,2023-10-20 13:08:23.74,191,-412,-1965,95,-29,78,612,156,456,-384
,586,2023-10-20 13:08:23.75,177,-425,-2012,107,-18,89,501,177,324,-339
,587,2023-10-20 13:08:23.76,171,-443,-2044,114,-17,110,612,162,450,-387
,588,2023-10-20 13:08:23.77,160,-462,-2066,118,-17,133,503,174,329,-338
,589,2023-10-20 13:08:23.78,158,-479,-2061,112,-25,160,618,168,450,-393
,590,2023-10-20 13:08:23.79,177,-468,-2002,108,-31,183,493,173,320,-333
,591,2023-10-20 13:08:23.80,186,-440,-1967,107,-11,193,614,176,438,-395
,592,2023-10-20 13:08:23.81,173,-424,-1985,95,24,187,488,166,322,-327
,593,2023-10-20 13:08:23.82,163,-415,-2032,73,47,179,616,165,451,-390
,594,2023-10-20 13:08:23.83,158,-405,-2072,58,49,168,484,152,332,-318
,595,2023-10-20 13:08:23.84,144,-399,-2082,42,38,160,604,155,449,-379
,596,2023-10-20 13:08:23.85,119,-416,-2094,31,25,140,464,141,323,-302
,597,2023-10-20 13:08:23.86,179,-343,-2007,44,7,105,604,156,448,-380
,598,2023-10-20 13:08:23.87,215,-413,-1904,32,19,92,470,140,330,-305
,599,2023-10-20 13:08:23.88,199,-497,-1909,39,83,104,602,159,443,-380
,600,2023-10-20 13:08:23.89,186,-464,-1996,28,110,111,456,134,322,-295
,601,2023-10-20 13:08:23.90,195,-440,-2015,39,99,129,603,169,434,-386
,602,2023-10-20 13:08:23.91,220,-414,-1984,53,86,141,463,144,319,-303
,603,2023-10-20 13:08:23.92,196,-385,-1995,53,87,138,597,160,437,-378
,604,2023-10-20 13:08:23.93,193,-402,-2081,45,74,130,453,122,331,-287
,605,2023-10-20 13:08:23.94,186,-414,-2084,37,27,132,622,162,460,-392
,606,2023-10-20 13:08:23.95,149,-426,-2089,54,-24,133,486,136,350,-311
,607,2023-10-20 13:08:23.96,149,-430,-2084,56,-66,132,650,182,468,-416
,608,2023-10-20 13:08:23.97,157,-429,-2033,66,-104,130,495,149,346,-322
,609,2023-10-20 13:08:23.98,178,-420,-1938,95,-88,115,712,215,497,-463
,610,2023-10-20 13:08:23.99,166,-390,-1972,91,-50,98,582,158,424,-370
,611,2023-10-20 13:08:24.00,145,-387,-2007,81,-31,85,775,204,571,-489
,612,2023-10-20 13:08:24.01,151,-395,-2043,76,-27,76,583,144,439,-363
,613,2023-10-20 13:08:24.02,132,-410,-2075,62,-33,70,721,198,523,-459
,614,2023-10-20 13:08:24.03,129,-414,-2074,43,-44,70,534,135,399,-334
,615,2023-10-20 13:08:24.04,118,-435,-2075,28,-55,82,692,192,500,-442
,616,2023-10-20 13:08:24.05,121,-444,-2054,18,-71,95,529,133,396,-331
,617,2023-10-20 13:08:24.06,128,-436,-1996,8,-78,112,810,211,599,-510
,618,2023-10-20 13:08:24.07,116,-442,-1996,-5,-69,121,672,127,545,-399
,619,2023-10-20 13:08:24.08,122,-383,-2017,-11,-58,112,906,218,688,-562
,620,2023-10-20 13:08:24.09,144,-346,-1987,-14,-66,99,679,131,548,-405
,621,2023-10-20 13:08:24.10,165,-399,-1953,-14,-58,85,848,211,637,-529
,622,2023-10-20 13:08:24.11,117,-419,-1991,-10,-19,75,619,119,500,-369
,623,2023-10-20 13:08:24.12,129,-385,-2064,-8,-24,53,796,204,592,-500
,624,2023-10-20 13:08:24.13,135,-392,-2019,7,-50,52,592,115,477,-353
,625,2023-10-20 13:08:24.14,147,-415,-1957,19,-55,50,768,211,557,-489
,626,2023-10-20 13:08:24.15,157,-439,-1965,4,-23,43,567,114,453,-340
,627,2023-10-20 13:08:24.16,154,-420,-1986,-4,6,35,738,209,529,-473
,628,2023-10-20 13:08:24.17,159,-417,-2004,-14,13,42,543,105,438,-324
,629,2023-10-20 13:08:24.18,170,-434,-2002,-15,21,47,719,215,504,-467
,630,2023-10-20 13:08:24.19,166,-420,-2015,-19,33,46,517,106,411,-311
,631,2023-10-20 13:08:24.20,173,-426,-2057,-27,32,41,677,207,470,-442
,632,2023-10-20 13:08:24.21,158,-430,-2066,-22,18,41,487,91,396,-289
,633,2023-10-20 13:08:24.22,152,-424,-2053,-13,0,36,669,209,460,-439
,634,2023-10-20 13:08:24.23,162,-419,-2063,-12,-22,44,498,98,400,-298
,635,2023-10-20 13:08:24.24,156,-446,-2047,-13,-43,59,677,217,460,-447
,636,2023-10-20 13:08:24.25,148,-435,-2014,4,-58,67,482,95,387,-288
,637,2023-10-20 13:08:24.26,151,-422,-2006,12,-56,73,666,222,444,-444
,638,2023-10-20 13:08:24.27,147,-426,-2007,25,-49,77,492,100,392,-296
,639,2023-10-20 13:08:24.28,150,-429,-1999,43,-45,82,680,236,444,-458
,640,2023-10-20 13:08:24.29,135,-424,-2008,65,-42,84,497,103,394,-300
,641,2023-10-20 13:08:24.30,122,-421,-2005,81,-46,84,649,222,427,-435
,642,2023-10-20 13:08:24.31,110,-408,-1989,88,-50,78,472,84,388,-278
,643,2023-10-20 13:08:24.32,116,-415,-1983,97,-50,68,642,216,426,-429
,644,2023-10-20 13:08:24.33,116,-414,-1988,105,-49,59,480,89,391,-284
,645,2023-10-20 13:08:24.34,104,-418,-1995,107,-45,45,663,235,428,-449
,646,2023-10-20 13:08:24.35,110,-429,-1991,109,-39,38,496,96,400,-296
,647,2023-10-20 13:08:24.36,129,-435,-1999,108,-30,26,659,235,424,-447
,648,2023-10-20 13:08:24.37,132,-434,-1988,102,-15,16,486,93,393,-289
,649,2023-10-20 13:08:24.38,130,-438,-1985,90,-2,7,660,252,408,-456
,650,2023-10-20 13:08:24.39,139,-459,-2011,83,-1,2,498,107,391,-302
,651,2023-10-20 13:08:24.40,141,-470,-2032,78,1,0,660,249,411,-454
,652,2023-10-20 13:08:24.41,127,-487,-2049,70,-2,6,485,90,395,-287
,653,2023-10-20 13:08:24.42,125,-491,-2045,60,-9,12,643,230,413,-436
,654,2023-10-20 13:08:24.43,114,-492,-2040,51,-14,22,473,75,398,-274
,655,2023-10-20 13:08:24.44,101,-487,-2023,38,-14,27,640,228,412,-434
,656,2023-10-20 13:08:24.45,104,-471,-2018,29,-7,30,478,71,407,-274
,657,2023-10-20 13:08:24.46,103,-455,-2001,17,2,30,643,220,423,-431
,658,2023-10-20 13:08:24.47,103,-457,-1986,11,23,24,478,65,413,-271
,659,2023-10-20 13:08:24.48,117,-450,-1979,8,37,15,625,205,420,-415
,660,2023-10-20 13:08:24.49,122,-487,-1959,-10,52,34,486,68,418,-277
,661,2023-10-20 13:08:24.50,113,-507,-1999,-9,57,43,645,225,420,-435
,662,2023-10-20 13:08:24.51,111,-478,-2017,-6,53,55,504,76,428,-290
,663,2023-10-20 13:08:24.52,124,-458,-1993,8,39,59,651,234,417,-442
,664,2023-10-20 13:08:24.53,117,-444,-1991,19,26,56,503,77,426,-290
,665,2023-10-20 13:08:24.54,130,-415,-2007,19,13,51,650,241,409,-445
,666,2023-10-20 13:08:24.55,134,-410,-2016,10,-4,41,503,83,420,-293
,667,2023-10-20 13:08:24.56,132,-416,-2008,3,-18,30,638,247,391,-442
,668,2023-10-20 13:08:24.57,122,-424,-2006,5,-19,16,500,75,425,-287
,669,2023-10-20 13:08:24.58,134,-424,-2013,11,-16,7,643,242,401,-442
,670,2023-10-20 13:08:24.59,136,-427,-2013,16,-16,-2,513,80,433,-296
,671,2023-10-20 13:08:24.60,133,-431,-2005,21,-4,-7,654,255,399,-454
,672,2023-10-20 13:08:24.61,124,-436,-2030,31,1,-15,521,86,435,-303
,673,2023-10-20 13:08:24.62,117,-432,-2045,35,12,-22,648,254,394,-451
,674,2023-10-20 13:08:24.63,128,-433,-2048,36,6,-27,513,84,429,-298
,675,2023-10-20 13:08:24.64,121,-453,-2043,38,-7,-24,646,259,387,-452
,676,2023-10-20 13:08:24.65,129,-467,-2030,42,-15,-12,521,90,431,-305
,677,2023-10-20 13:08:24.66,115,-465,-2014,53,-23,2,645,254,391,-449
,678,2023-10-20 13:08:24.67,117,-467,-2008,62,-31,17,526,90,436,-308
,679,2023-10-20 13:08:24.68,116,-480,-2001,74,-36,31,640,255,385,-447
,680,2023-10-20 13:08:24.69,120,-477,-1996,86,-35,39,528,90,438,-309
,681,2023-10-20 13:08:24.70,120,-455,-1979,86,-29,44,634,253,381,-443
,682,2023-10-20 13:08:24.71,117,-450,-1969,87,-19,43,528,83,445,-305
,683,2023-10-20 13:08:24.72,109,-456,-1971,84,-10,42,632,250,382,-441
,684,2023-10-20 13:08:24.73,110,-448,-1973,80,-3,34,530,85,445,-307
,685,2023-10-20 13:08:24.74,113,-456,-1979,79,4,21,631,249,382,-440
,686,2023-10-20 13:08:24.75,105,-455,-1981,80,10,15,538,90,448,-314
,687,2023-10-20 13:08:24.76,99,-478,-1996,82,12,4,628,257,371,-442
,688,2023-10-20 13:08:24.77,128,-484,-2011,79,13,3,533,92,441,-312
,689,2023-10-20 13:08:24.78,118,-499,-2018,78,10,2,620,254,366,-437
,690,2023-10-20 13:08:24.79,125,-503,-2033,77,7,7,529,86,443,-307
,691,2023-10-20 13:08:24.80,124,-490,-2039,75,-6,11,626,255,371,-440
,692,2023-10-20 13:08:24.81,114,-489,-2013,72,-17,14,533,89,444,-311
,693,2023-10-20 13:08:24.82,117,-484,-1987,64,-18,11,600,241,359,-420
,694,2023-10-20 13:08:24.83,119,-488,-2007,46,-23,8,527,79,448,-303
,695,2023-10-20 13:08:24.84,123,-498,-2007,30,-22,8,595,234,361,-414
,696,2023-10-20 13:08:24.85,124,-533,-1975,25,-12,9,532,78,454,-305
,697,2023-10-20 13:08:24.86,125,-524,-1991,30,-3,4,586,227,359,-406
,698,2023-10-20 13:08:24.87,128,-504,-1987,24,10,0,538,81,457,-309
,699,2023-10-20 13:08:24.88,119,-503,-2006,22,9,-2,602,233,369,-417
,700,2023-10-20 13:08:24.89,110,-506,-2037,8,-2,-2,541,77,464,-309
,701,2023-10-20 13:08:24.90,107,-494,-2017,0,3,-4,608,240,368,-424
,702,2023-10-20 13:08:24.91,115,-475,-1999,-22,4,-12,556,102,454,-329
,703,2023-10-20 13:08:24.92,110,-484,-1988,-31,0,-18,604,249,355,-426
,704,2023-10-20 13:08:24.93,118,-469,-1987,-33,-4,-24,551,103,448,-327
,705,2023-10-20 13:08:24.94,105,-476,-1994,-40,-6,-32,578,235,343,-406
,706,2023-10-20 13:08:24.95,99,-473,-1993,-41,3,-46,520,80,440,-300
,707,2023-10-20 13:08:24.96,93,-473,-2005,-46,9,-51,544,204,340,-374
,708,2023-10-20 13:08:24.97,96,-488,-2011,-54,22,-55,536,76,460,-306
,709,2023-10-20 13:08:24.98,104,-500,-1993,-55,11,-52,578,217,361,-397
,710,2023-10-20 13:08:24.99,105,-485,-2000,-38,1,-41,555,99,456,-327
,711,2023-10-20 13:08:25.00,107,-466,-2001,-41,17,-43,574,232,342,-403
,712,2023-10-20 13:08:25.01,116,-465,-1978,-50,43,-44,571,109,462,-340
,713,2023-10-20 13:08:25.02,118,-464,-1974,-51,65,-45,584,232,352,-408
,714,2023-10-20 13:08:25.03,103,-473,-1995,-44,79,-51,571,110,461,-340
,715,2023-10-20 13:08:25.04,95,-469,-2012,-36,80,-52,572,225,347,-398
,716,2023-10-20 13:08:25.05,122,-455,-2012,-37,78,-58,554,102,452,-328
,717,2023-10-20 13:08:25.06,122,-455,-2012,-38,80,-62,542,213,329,-377
,718,2023-10-20 13:08:25.07,121,-455,-2004,-44,77,-64,559,106,453,-332
,719,2023-10-20 13:08:25.08,144,-452,-2007,-45,62,-67,560,216,344,-388
,720,2023-10-20 13:08:25.09,133,-458,-2010,-43,60,-65,583,112,471,-347
,721,2023-10-20 13:08:25.10,144,-457,-2003,-46,69,-66,565,220,345,-392
,722,2023-10-20 13:08:25.11,158,-463,-2010,-49,74,-68,578,119,459,-348
,723,2023-10-20 13:08:25.12,152,-464,-2011,-47,69,-67,544,217,327,-380
,724,2023-10-20 13:08:25.13,158,-457,-2016,-43,58,-64,555,108,447,-331
,725,2023-10-20 13:08:25.14,145,-447,-2018,-45,58,-60,519,196,323,-357
,726,2023-10-20 13:08:25.15,141,-455,-2022,-56,67,-58,572,108,464,-340
,727,2023-10-20 13:08:25.16,160,-453,-2023,-61,59,-54,554,209,345,-381
,728,2023-10-20 13:08:25.17,149,-450,-2024,-59,53,-48,614,131,483,-372
,729,2023-10-20 13:08:25.18,151,-428,-2007,-57,39,-45,577,224,353,-400
,730,2023-10-20 13:08:25.19,146,-426,-2007,-50,15,-50,632,133,499,-382
,731,2023-10-20 13:08:25.20,161,-407,-2004,-45,21,-54,576,211,365,-393
,732,2023-10-20 13:08:25.21,142,-404,-1995,-31,21,-70,639,142,497,-390
,733,2023-10-20 13:08:25.22,155,-386,-2032,-12,24,-92,579,218,361,-398
,734,2023-10-20 13:08:25.23,206,-384,-1945,10,21,-96,654,139,515,-396
,735,2023-10-20 13:08:25.24,196,-433,-1933,27,65,-102,598,212,386,-405
,736,2023-10-20 13:08:25.25,163,-467,-2045,6,104,-88,675,146,529,-410
,737,2023-10-20 13:08:25.26,176,-456,-2088,3,84,-66,603,220,383,-411
,738,2023-10-20 13:08:25.27,191,-422,-2054,20,31,-50,680,167,513,-423
,739,2023-10-20 13:08:25.28,184,-432,-2016,40,-4,-36,621,237,384,-429
,740,2023-10-20 13:08:25.29,173,-425,-2013,58,4,-36,740,175,565,-457
,741,2023-10-20 13:08:25.30,184,-412,-2019,61,-1,-35,659,220,439,-439
,742,2023-10-20 13:08:25.31,187,-422,-2013,67,-7,-40,768,172,596,-470
,743,2023-10-20 13:08:25.32,175,-417,-1997,70,7,-45,664,222,442,-443
,744,2023-10-20 13:08:25.33,170,-441,-1999,71,24,-49,771,181,590,-476
,745,2023-10-20 13:08:25.34,174,-464,-2004,76,28,-52,661,223,438,-442
,746,2023-10-20 13:08:25.35,166,-461,-2009,77,32,-53,773,189,584,-481
,747,2023-10-20 13:08:25.36,175,-455,-2020,76,27,-51,654,225,429,-439
,748,2023-10-20 13:08:25.37,171,-467,-2014,80,4,-52,765,200,565,-482
,749,2023-10-20 13:08:25.38,170,-476,-2024,94,-26,-42,632,219,413,-425
,750,2023-10-20 13:08:25.39,174,-470,-2018,106,-40,-33,752,190,562,-471
,751,2023-10-20 13:08:25.40,159,-484,-2014,106,-43,-23,618,204,414,-411
,752,2023-10-20 13:08:25.41,169,-494,-2006,101,-39,-9,742,185,557,-463
,753,2023-10-20 13:08:25.42,152,-499,-2031,91,-40,9,610,203,407,-406
,754,2023-10-20 13:08:25.43,154,-488,-2034,86,-51,21,736,186,550,-461
,755,2023-10-20 13:08:25.44,151,-479,-2005,85,-65,34,599,197,402,-398
,756,2023-10-20 13:08:25.45,143,-467,-2003,71,-67,39,725,180,545,-452
,757,2023-10-20 13:08:25.46,141,-471,-2011,47,-51,37,584,189,395,-386
,758,2023-10-20 13:08:25.47,138,-462,-2002,27,-30,33,825,230,595,-527
,759,2023-10-20 13:08:25.48,147,-467,-2001,19,-15,23,745,222,523,-483
,760,2023-10-20 13:08:25.49,128,-477,-2003,13,-3,14,974,238,736,-606
,761,2023-10-20 13:08:25.50,132,-465,-2015,8,-1,4,773,233,540,-503
,762,2023-10-20 13:08:25.51,148,-460,-2013,-2,-5,-2,884,222,662,-553
,763,2023-10-20 13:08:25.52,129,-467,-2005,-5,-1,-6,673,194,479,-433
,764,2023-10-20 13:08:25.53,148,-478,-2006,-11,-8,-17,805,196,609,-500
,765,2023-10-20 13:08:25.54,130,-490,-1981,-7,3,-26,630,180,450,-405
,766,2023-10-20 13:08:25.55,155,-471,-1960,2,18,-38,844,177,667,-510
,767,2023-10-20 13:08:25.56,159,-474,-1955,20,20,-54,726,152,574,-439
,768,2023-10-20 13:08:25.57,159,-455,-1986,31,24,-71,973,218,755,-595
,769,2023-10-20 13:08:25.58,161,-457,-1991,24,34,-83,799,188,611,-493
,770,2023-10-20 13:08:25.59,170,-480,-1999,18,27,-93,992,203,789,-597
,771,2023-10-20 13:08:25.60,159,-498,-2020,14,21,-89,758,148,610,-453
,772,2023-10-20 13:08:25.61,148,-499,-2027,2,17,-75,930,198,732,-564
,773,2023-10-20 13:08:25.62,162,-496,-2006,2,11,-64,709,165,544,-437
,774,2023-10-20 13:08:25.63,164,-508,-1981,-2,13,-55,890,210,680,-550
,775,2023-10-20 13:08:25.64,176,-475,-1985,-2,13,-53,679,157,522,-418
,776,2023-10-20 13:08:25.65,171,-465,-1995,-3,29,-48,853,206,647,-529
,777,2023-10-20 13:08:25.66,173,-451,-2007,-7,43,-49,631,141,490,-386
,778,2023-10-20 13:08:25.67,183,-452,-2027,-15,54,-52,798,197,601,-497
,779,2023-10-20 13:08:25.68,173,-451,-2038,-27,48,-53,588,132,456,-360
,780,2023-10-20 13:08:25.69,169,-448,-2038,-35,37,-51,764,202,562,-483
,781,2023-10-20 13:08:25.70,164,-461,-2026,-35,28,-51,564,138,426,-351
,782,2023-10-20 13:08:25.71,178,-445,-2022,-29,21,-48,745,211,534,-478
,783,2023-10-20 13:08:25.72,186,-447,-2013,-27,12,-46,561,138,423,-349
,784,2023-10-20 13:08:25.73,175,-437,-2003,-29,9,-43,737,205,532,-471
,785,2023-10-20 13:08:25.74,178,-439,-2015,-31,16,-42,554,135,419,-344
,786,2023-10-20 13:08:25.75,176,-434,-2009,-32,19,-45,720,215,505,-467
,787,2023-10-20 13:08:25.76,182,-424,-1999,-33,24,-48,533,132,401,-332
,788,2023-10-20 13:08:25.77,189,-425,-1998,-38,31,-51,710,212,498,-461
,789,2023-10-20 13:08:25.78,176,-429,-2008,-46,37,-57,528,131,397,-329
,790,2023-10-20 13:08:25.79,181,-432,-2012,-44,37,-62,702,224,478,-463
,791,2023-10-20 13:08:25.80,176,-437,-2007,-44,32,-59,518,131,387,-324
,792,2023-10-20 13:08:25.81,179,-435,-2010,-36,24,-57,697,217,480,-457
,793,2023-10-20 13:08:25.82,181,-432,-2007,-29,22,-59,518,122,396,-320
,794,2023-10-20 13:08:25.83,185,-431,-2005,-23,21,-60,701,223,478,-462
,795,2023-10-20 13:08:25.84,187,-442,-2021,-14,25,-57,516,127,389,-321
,796,2023-10-20 13:08:25.85,168,-445,-2006,-1,19,-53,690,230,460,-460
,797,2023-10-20 13:08:25.86,171,-431,-2007,28,20,-70,507,122,385,-314
,798,2023-10-20 13:08:25.87,198,-424,-1983,43,9,-66,692,232,460,-462
,799,2023-10-20 13:08:25.88,225,-476,-1949,53,18,-54,514,122,392,-318
,800,2023-10-20 13:08:25.89,178,-521,-2010,57,44,-38,696,241,455,-468
,801,2023-10-20 13:08:25.90,186,-497,-2068,63,35,-11,514,124,390,-319
,802,2023-10-20 13:08:25.91,201,-459,-2046,78,3,8,695,241,454,-468
,803,2023-10-20 13:08:25.92,184,-463,-2020,84,-10,21,516,118,398,-317
,804,2023-10-20 13:08:25.93,195,-456,-2015,74,-15,28,699,242,457,-470
,805,2023-10-20 13:08:25.94,191,-435,-2024,51,-21,27,520,117,403,-318
,806,2023-10-20 13:08:25.95,196,-455,-2008,44,-26,24,700,241,459,-470
,807,2023-10-20 13:08:25.96,206,-464,-1986,48,-22,19,520,110,410,-315
,808,2023-10-20 13:08:25.97,178,-459,-1991,46,-5,12,698,238,460,-468
,809,2023-10-20 13:08:25.98,182,-451,-2005,38,13,7,517,110,407,-313
,810,2023-10-20 13:08:25.99,185,-467,-2000,37,8,3,702,253,449,-477
,811,2023-10-20 13:08:26.00,185,-477,-2003,45,-1,8,520,112,408,-316
,812,2023-10-20 13:08:26.01,180,-462,-2002,44,-3,11,699,252,447,-475
,813,2023-10-20 13:08:26.02,173,-449,-1998,39,0,4,517,104,413,-310
,814,2023-10-20 13:08:26.03,191,-471,-2020,29,-8,2,690,253,437,-471
,815,2023-10-20 13:08:26.04,189,-470,-2004,21,-11,11,518,101,417,-309
,816,2023-10-20 13:08:26.05,183,-474,-2018,18,0,23,691,258,433,-474
,817,2023-10-20 13:08:26.06,187,-466,-1999,21,-4,33,525,116,409,-320
,818,2023-10-20 13:08:26.07,180,-472,-2002,23,-5,37,694,261,433,-477
,819,2023-10-20 13:08:26.08,175,-464,-2004,26,-2,40,518,102,416,-310
,820,2023-10-20 13:08:26.09,173,-457,-2009,34,-2,42,688,255,433,-471
,821,2023-10-20 13:08:26.10,182,-457,-2009,38,-10,39,521,103,418,-312
,822,2023-10-20 13:08:26.11,172,-459,-2003,43,-13,38,687,259,428,-473
,823,2023-10-20 13:08:26.12,172,-465,-2004,42,-14,33,507,89,418,-298
,824,2023-10-20 13:08:26.13,167,-483,-2009,38,-18,37,671,258,413,-464
,825,2023-10-20 13:08:26.14,185,-489,-2006,30,-22,39,504,96,408,-300
,826,2023-10-20 13:08:26.15,173,-486,-2010,32,-27,49,674,264,410,-469
,827,2023-10-20 13:08:26.16,172,-489,-2013,27,-26,54,514,99,415,-306
,828,2023-10-20 13:08:26.17,172,-478,-2019,27,-24,56,675,267,408,-471
,829,2023-10-20 13:08:26.18,175,-468,-2003,20,-21,49,512,98,414,-305
,830,2023-10-20 13:08:26.19,183,-465,-1986,15,-16,44,670,264,406,-467
,831,2023-10-20 13:08:26.20,169,-479,-1992,8,-14,40,512,97,415,-304
,832,2023-10-20 13:08:26.21,162,-467,-2017,6,-17,33,670,264,406,-467
,833,2023-10-20 13:08:26.22,162,-443,-2018,5,-30,26,517,97,420,-307
,834,2023-10-20 13:08:26.23,156,-442,-2011,3,-46,23,668,275,393,-471
,835,2023-10-20 13:08:26.24,168,-449,-1989,-10,-50,15,515,106,409,-310
,836,2023-10-20 13:08:26.25,172,-469,-1969,-27,-29,11,658,277,381,-467
,837,2023-10-20 13:08:26.26,167,-491,-1980,-31,8,10,507,92,415,-299
,838,2023-10-20 13:08:26.27,166,-460,-1990,-33,20,5,637,259,378,-448
,839,2023-10-20 13:08:26.28,175,-461,-2017,-39,38,-3,512,91,421,-301
,840,2023-10-20 13:08:26.29,172,-464,-2007,-35,25,-1,651,264,387,-457
,841,2023-10-20 13:08:26.30,165,-483,-1999,-37,21,11,531,105,426,-318
,842,2023-10-20 13:08:26.31,183,-488,-2006,-25,13,25,662,277,385,-469
,843,2023-10-20 13:08:26.32,180,-470,-2014,-15,7,38,534,105,429,-319
,844,2023-10-20 13:08:26.33,189,-467,-1997,-4,8,46,659,278,381,-468
,845,2023-10-20 13:08:26.34,187,-450,-2002,-1,11,48,537,105,432,-321
,846,2023-10-20 13:08:26.35,187,-449,-2013,3,9,47,658,275,383,-466
,847,2023-10-20 13:08:26.36,189,-442,-2022,15,5,40,544,99,445,-321
,848,2023-10-20 13:08:26.37,179,-444,-2019,21,-2,34,651,262,389,-456
,849,2023-10-20 13:08:26.38,182,-448,-2008,16,-11,27,537,104,433,-320
,850,2023-10-20 13:08:26.39,177,-462,-2012,16,-15,19,647,274,373,-460
,851,2023-10-20 13:08:26.40,175,-468,-2007,21,-15,15,534,106,428,-320
,852,2023-10-20 13:08:26.41,178,-468,-2003,20,-17,17,646,272,374,-459
,853,2023-10-20 13:08:26.42,183,-469,-1997,22,-14,18,543,94,449,-318
,854,2023-10-20 13:08:26.43,187,-462,-2002,14,-9,20,638,261,377,-449
,855,2023-10-20 13:08:26.44,176,-471,-1995,0,20,20,538,91,447,-314
,856,2023-10-20 13:08:26.45,180,-476,-2003,-15,27,21,636,256,380,-446
,857,2023-10-20 13:08:26.46,160,-482,-2015,-11,6,23,546,106,440,-326
,858,2023-10-20 13:08:26.47,171,-470,-2014,-6,-2,32,639,276,363,-457
,859,2023-10-20 13:08:26.48,172,-461,-2012,-13,3,32,556,98,458,-327
,860,2023-10-20 13:08:26.49,167,-451,-2009,-22,0,32,632,256,376,-444
,861,2023-10-20 13:08:26.50,163,-448,-2003,-21,2,25,552,103,449,-327
,862,2023-10-20 13:08:26.51,147,-437,-2003,-15,0,19,625,261,364,-443
,863,2023-10-20 13:08:26.52,145,-414,-2002,0,4,-4,557,107,450,-332
,864,2023-10-20 13:08:26.53,163,-415,-1978,7,4,-7,617,252,365,-434
,865,2023-10-20 13:08:26.54,164,-446,-1976,10,15,-29,562,113,449,-337
,866,2023-10-20 13:08:26.55,153,-496,-1987,4,31,-2,617,262,355,-439
,867,2023-10-20 13:08:26.56,163,-503,-2041,-6,27,5,572,106,466,-339
,868,2023-10-20 13:08:26.57,149,-502,-2038,-3,12,27,620,246,374,-433
,869,2023-10-20 13:08:26.58,183,-464,-2020,4,4,37,582,98,484,-340
,870,2023-10-20 13:08:26.59,174,-442,-2008,16,25,25,633,249,384,-441
,871,2023-10-20 13:08:26.60,176,-435,-1990,18,18,21,600,110,490,-355
,872,2023-10-20 13:08:26.61,154,-408,-2016,15,16,6,636,252,384,-444
,873,2023-10-20 13:08:26.62,159,-426,-2032,10,5,-6,603,109,494,-356
,874,2023-10-20 13:08:26.63,177,-449,-2002,12,-12,-13,633,246,387,-439
,875,2023-10-20 13:08:26.64,171,-470,-1982,23,-10,-15,615,111,504,-363
,876,2023-10-20 13:08:26.65,163,-469,-1996,32,5,-18,635,248,387,-441
,877,2023-10-20 13:08:26.66,165,-450,-2011,23,37,-18,623,112,511,-367
,878,2023-10-20 13:08:26.67,157,-456,-2010,9,61,-22,638,239,399,-438
,879,2023-10-20 13:08:26.68,163,-467,-2018,15,37,-19,624,123,501,-373
,880,2023-10-20 13:08:26.69,161,-452,-2020,28,11,-18,632,256,376,-444
,881,2023-10-20 13:08:26.70,171,-444,-2028,29,2,-17,627,124,503,-375
,882,2023-10-20 13:08:26.71,190,-444,-2031,13,4,-17,618,238,380,-428
,883,2023-10-20 13:08:26.72,186,-459,-2003,-7,20,-17,620,118,502,-369
,884,2023-10-20 13:08:26.73,190,-473,-2001,-11,28,-15,613,240,373,-426
,885,2023-10-20 13:08:26.74,188,-486,-1992,4,23,-6,612,122,490,-367
,886,2023-10-20 13:08:26.75,180,-468,-1997,28,6,-6,595,238,357,-416
,887,2023-10-20 13:08:26.76,189,-450,-2009,44,-11,-1,604,128,476,-366
,888,2023-10-20 13:08:26.77,176,-425,-2017,40,-15,-8,573,230,343,-401
,889,2023-10-20 13:08:26.78,194,-448,-2018,28,-26,-15,586,116,470,-351
,890,2023-10-20 13:08:26.79,191,-460,-2007,24,-31,-16,549,213,336,-381
,891,2023-10-20 13:08:26.80,181,-460,-2002,29,-49,-19,582,111,471,-346
,892,2023-10-20 13:08:26.81,169,-461,-2009,24,-42,-19,552,215,337,-383
,893,2023-10-20 13:08:26.82,187,-504,-1981,30,-39,-15,588,122,466,-355
,894,2023-10-20 13:08:26.83,183,-507,-1987,48,-26,-8,542,210,332,-376
,895,2023-10-20 13:08:26.84,150,-484,-2022,52,-12,0,578,114,464,-346
,896,2023-10-20 13:08:26.85,166,-469,-2035,53,-39,2,524,198,326,-361
,897,2023-10-20 13:08:26.86,170,-465,-2028,39,-50,11,589,124,465,-356
,898,2023-10-20 13:08:26.87,163,-496,-1993,15,-36,15,536,202,334,-369
,899,2023-10-20 13:08:26.88,164,-481,-1998,-7,-9,20,588,120,468,-354
,900,2023-10-20 13:08:26.89,182,-487,-2005,-10,-16,27,523,192,331,-357
,901,2023-10-20 13:08:26.90,168,-489,-1996,-5,-13,41,574,120,454,-347
,902,2023-10-20 13:08:26.91,169,-485,-2014,-7,-4,49,508,191,317,-349
,903,2023-10-20 13:08:26.92,167,-451,-2030,-10,19,47,574,126,448,-350
,904,2023-10-20 13:08:26.93,149,-419,-2031,-13,19,36,508,187,321,-347
,905,2023-10-20 13:08:26.94,160,-415,-2014,-2,1,23,559,112,447,-335
,906,2023-10-20 13:08:26.95,151,-419,-2000,8,-16,8,492,178,314,-335
,907,2023-10-20 13:08:26.96,158,-423,-2005,16,-31,-11,567,123,444,-345
,908,2023-10-20 13:08:26.97,167,-432,-2008,16,-44,-26,489,178,311,-333
,909,2023-10-20 13:08:26.98,161,-441,-2003,24,-51,-32,563,124,439,-343
,910,2023-10-20 13:08:26.99,157,-452,-1997,16,-37,-34,486,174,312,-330
,911,2023-10-20 13:08:27.00,174,-480,-1995,7,-30,-32,565,127,438,-346
,912,2023-10-20 13:08:27.01,147,-492,-1981,14,-39,-20,476,170,306,-323
,913,2023-10-20 13:08:27.02,145,-456,-2018,28,-42,-18,569,133,436,-351
,914,2023-10-20 13:08:27.03,166,-453,-2033,31,-60,-14,473,170,303,-321
,915,2023-10-20 13:08:27.04,149,-455,-1984,35,-64,-3,572,135,437,-353
,916,2023-10-20 13:08:27.05,173,-462,-1987,19,-43,-11,475,167,308,-321
,917,2023-10-20 13:08:27.06,158,-450,-1999,-4,2,-12,572,134,438,-353
,918,2023-10-20 13:08:27.07,146,-484,-1988,-11,1,-13,470,161,309,-315
,919,2023-10-20 13:08:27.08,146,-502,-2003,4,-4,-5,586,154,432,-370
,920,2023-10-20 13:08:27.09,158,-486,-2007,19,2,3,478,176,302,-327
,921,2023-10-20 13:08:27.10,162,-470,-2011,14,15,8,590,156,434,-373
,922,2023-10-20 13:08:27.11,160,-465,-2010,7,27,14,474,161,313,-317
,923,2023-10-20 13:08:27.12,159,-466,-2001,0,55,12,598,160,438,-379
,924,2023-10-20 13:08:27.13,164,-477,-2011,8,50,9,475,162,313,-318
,925,2023-10-20 13:08:27.14,165,-458,-2008,28,21,9,595,153,442,-374
,926,2023-10-20 13:08:27.15,168,-456,-1998,44,6,5,470,153,317,-311
,927,2023-10-20 13:08:27.16,160,-450,-2005,49,6,-1,590,160,430,-375
,928,2023-10-20 13:08:27.17,178,-456,-2002,44,4,-10,461,148,313,-304
,929,2023-10-20 13:08:27.18,173,-461,-2011,36,6,-12,585,157,428,-371
,930,2023-10-20 13:08:27.19,172,-467,-2000,29,12,-11,457,145,312,-301
,931,2023-10-20 13:08:27.20,154,-483,-2011,20,-1,-11,596,163,433,-379
,932,2023-10-20 13:08:27.21,169,-486,-2008,23,-12,-3,457,142,315,-299
,933,2023-10-20 13:08:27.22,165,-487,-1999,16,-7,1,596,166,430,-381
,934,2023-10-20 13:08:27.23,168,-491,-2003,3,5,9,464,143,321,-303
,935,2023-10-20 13:08:27.24,167,-482,-2003,-14,23,15,598,164,434,-381
,936,2023-10-20 13:08:27.25,161,-482,-1992,-24,33,17,456,132,324,-294
,937,2023-10-20 13:08:27.26,147,-492,-1992,-18,29,16,588,164,424,-376
,938,2023-10-20 13:08:27.27,150,-474,-2008,-1,12,19,452,133,319,-292
,939,2023-10-20 13:08:27.28,158,-454,-1994,10,11,13,602,178,424,-390
,940,2023-10-20 13:08:27.29,165,-446,-2006,10,11,3,458,138,320,-298
,941,2023-10-20 13:08:27.30,156,-455,-2010,13,13,-4,611,176,435,-393
,942,2023-10-20 13:08:27.31,142,-457,-2035,31,12,-14,453,125,328,-289
,943,2023-10-20 13:08:27.32,182,-403,-1978,49,8,-45,605,172,433,-388
,944,2023-10-20 13:08:27.33,169,-448,-1971,33,8,-43,456,127,329,-291
,945,2023-10-20 13:08:27.34,166,-505,-2019,20,22,-43,616,191,425,-403
,946,2023-10-20 13:08:27.35,156,-489,-2052,7,24,-36,457,124,333,-290
,947,2023-10-20 13:08:27.36,164,-476,-2034,4,4,-18,618,182,436,-400
,948,2023-10-20 13:08:27.37,190,-470,-1989,0,1,-11,453,114,339,-283
,949,2023-10-20 13:08:27.38,176,-464,-1979,-14,27,-9,619,189,430,-404
,950,2023-10-20 13:08:27.39,177,-463,-2009,-16,25,-10,456,121,335,-288
,951,2023-10-20 13:08:27.40,178,-455,-2027,0,0,-7,621,197,424,-409
,952,2023-10-20 13:08:27.41,170,-451,-2015,15,-17,-4,453,114,339,-283
,953,2023-10-20 13:08:27.42,174,-450,-2018,15,-24,-3,620,192,428,-406
,954,2023-10-20 13:08:27.43,171,-452,-2013,9,-26,-3,448,105,343,-276
,955,2023-10-20 13:08:27.44,168,-456,-2002,6,-12,-1,616,194,422,-405
,956,2023-10-20 13:08:27.45,169,-463,-1996,15,-8,0,453,108,345,-280
,957,2023-10-20 13:08:27.46,164,-457,-2009,30,-6,0,628,198,430,-413
,958,2023-10-20 13:08:27.47,163,-462,-2003,38,8,-7,452,102,350,-277
,959,2023-10-20 13:08:27.48,161,-450,-2015,48,2,-9,627,200,427,-413
,960,2023-10-20 13:08:27.49,161,-456,-2013,44,-5,-13,459,106,353,-282
,961,2023-10-20 13:08:27.50,164,-466,-2017,34,-6,-9,624,197,427,-410
,962,2023-10-20 13:08:27.51,161,-463,-2020,21,-9,-9,448,92,356,-270
,963,2023-10-20 13:08:27.52,157,-486,-1984,8,0,-1,629,204,425,-416
,964,2023-10-20 13:08:27.53,165,-508,-1973,15,-2,2,462,100,362,-281
,965,2023-10-20 13:08:27.54,167,-501,-1991,25,11,14,635,205,430,-420
,966,2023-10-20 13:08:27.55,169,-494,-1981,36,18,24,466,90,376,-278
,967,2023-10-20 13:08:27.56,159,-476,-1990,48,9,28,659,205,454,-432
,968,2023-10-20 13:08:27.57,165,-470,-2009,54,2,29,495,87,408,-291
,969,2023-10-20 13:08:27.58,155,-455,-2008,57,3,30,687,211,476,-449
,970,2023-10-20 13:08:27.59,164,-461,-2016,46,-6,25,508,96,412,-302
,971,2023-10-20 13:08:27.60,158,-476,-2022,29,-13,24,686,223,463,-454
,972,2023-10-20 13:08:27.61,168,-477,-2017,25,-20,24,504,92,412,-298
,973,2023-10-20 13:08:27.62,175,-461,-2006,25,-20,24,685,224,461,-454
,974,2023-10-20 13:08:27.63,173,-462,-1985,28,-12,16,508,95,413,-301
,975,2023-10-20 13:08:27.64,175,-450,-1983,26,6,7,705,240,465,-472
,976,2023-10-20 13:08:27.65,161,-453,-1991,25,28,-8,512,102,410,-307
,977,2023-10-20 13:08:27.66,184,-477,-1997,14,48,-8,693,245,448,-469
,978,2023-10-20 13:08:27.67,173,-491,-1986,0,77,-4,501,95,406,-298
,979,2023-10-20 13:08:27.68,172,-511,-2016,8,56,3,692,240,452,-466
,980,2023-10-20 13:08:27.69,182,-500,-2015,29,17,15,506,96,410,-301
,981,2023-10-20 13:08:27.70,184,-484,-1999,38,11,27,678,246,432,-462
,982,2023-10-20 13:08:27.71,172,-470,-2006,29,5,29,507,97,410,-302
,983,2023-10-20 13:08:27.72,178,-467,-2018,19,1,28,690,255,435,-472
,984,2023-10-20 13:08:27.73,170,-463,-2027,10,-2,30,508,98,410,-303
,985,2023-10-20 13:08:27.74,156,-475,-2029,6,-15,29,677,250,427,-463
,986,2023-10-20 13:08:27.75,169,-487,-2026,-1,-37,33,502,98,404,-300
,987,2023-10-20 13:08:27.76,179,-477,-2027,-14,-28,38,666,248,418,-457
,988,2023-10-20 13:08:27.77,157,-509,-1995,-24,-1,41,492,89,403,-290
,989,2023-10-20 13:08:27.78,171,-505,-1994,-21,9,45,656,244,412,-450
,990,2023-10-20 13:08:27.79,157,-509,-1988,-10,15,54,485,91,394,-288
,991,2023-10-20 13:08:27.80,176,-497,-1993,6,4,65,637,253,384,-445
,992,2023-10-20 13:08:27.81,164,-481,-2022,-1,9,69,485,94,391,-289
,993,2023-10-20 13:08:27.82,155,-464,-2019,-1,3,71,641,251,390,-446
,994,2023-10-20 13:08:27.83,164,-433,-1998,6,-10,62,482,81,401,-281
,995,2023-10-20 13:08:27.84,172,-438,-1977,1,-8,50,629,242,387,-435
,996,2023-10-20 13:08:27.85,186,-443,-1984,-8,2,34,477,87,390,-282
,997,2023-10-20 13:08:27.86,175,-456,-2002,-15,14,29,624,252,372,-438
,998,2023-10-20 13:08:27.87,155,-457,-2025,-7,0,24,474,88,386,-281
,999,2023-10-20 13:08:27.88,164,-460,-2031,-2,-25,19,624,255,369,-439
,1000,2023-10-20 13:08:27.89,160,-472,-2006,7,-43,22,476,88,388,-282
,1001,2023-10-20 13:08:27.90,164,-481,-1988,11,-46,19,612,251,361,-431
,1002,2023-10-20 13:08:27.91,163,-482,-1975,16,-36,10,458,81,377,-269
,1003,2023-10-20 13:08:27.92,175,-461,-1960,11,-11,-1,582,245,337,-413
,1004,2023-10-20 13:08:27.93,166,-494,-1973,-6,17,-2,469,81,388,-275
,1005,2023-10-20 13:08:27.94,167,-502,-1991,-14,36,4,627,252,375,-439
,1006,2023-10-20 13:08:27.95,150,-507,-2006,-13,55,20,510,94,416,-302
,1007,2023-10-20 13:08:27.96,181,-500,-2003,-22,69,38,643,263,380,-453
,1008,2023-10-20 13:08:27.97,176,-495,-2009,-26,78,54,504,90,414,-297
,1009,2023-10-20 13:08:27.98,176,-476,-2030,-25,72,63,624,251,373,-437
,1010,2023-10-20 13:08:27.99,182,-463,-2016,-25,68,65,503,78,425,-290
,1011,2023-10-20 13:08:28.00,183,-454,-2018,-21,59,63,614,244,370,-429
,1012,2023-10-20 13:08:28.01,179,-443,-2021,-21,42,56,501,77,424,-289
,1013,2023-10-20 13:08:28.02,182,-440,-2019,-21,23,45,624,245,379,-434
,1014,2023-10-20 13:08:28.03,173,-450,-2012,-20,6,36,520,77,443,-298
,1015,2023-10-20 13:08:28.04,173,-459,-2002,-14,-5,26,622,245,377,-433
,1016,2023-10-20 13:08:28.05,177,-451,-1984,-9,-8,22,526,88,438,-307
,1017,2023-10-20 13:08:28.06,171,-454,-1991,-7,-8,20,636,255,381,-445
,1018,2023-10-20 13:08:28.07,166,-465,-1997,-10,-5,22,534,86,448,-310
,1019,2023-10-20 13:08:28.08,173,-462,-2009,-13,-4,27,620,243,377,-431
,1020,2023-10-20 13:08:28.09,171,-460,-2009,-15,1,34,543,96,447,-319
,1021,2023-10-20 13:08:28.10,179,-447,-2007,-19,6,39,630,259,371,-444
,1022,2023-10-20 13:08:28.11,166,-453,-2001,-25,12,45,534,98,436,-316
,1023,2023-10-20 13:08:28.12,182,-451,-2007,-23,19,49,624,258,366,-441
,1024,2023-10-20 13:08:28.13,161,-444,-2010,-21,18,46,527,88,439,-307
,1025,2023-10-20 13:08:28.14,169,-444,-2011,-10,14,46,600,243,357,-421
,1026,2023-10-20 13:08:28.15,175,-441,-2014,-4,10,48,523,93,430,-308
,1027,2023-10-20 13:08:28.16,164,-454,-2027,7,10,47,594,250,344,-422
,1028,2023-10-20 13:08:28.17,171,-449,-2009,26,3,43,528,90,438,-309
,1029,2023-10-20 13:08:28.18,169,-442,-1998,43,-2,29,601,251,350,-426
,1030,2023-10-20 13:08:28.19,173,-479,-1987,55,12,33,533,85,448,-309
,1031,2023-10-20 13:08:28.20,196,-488,-1955,75,16,33,584,235,349,-409
,1032,2023-10-20 13:08:28.21,160,-516,-2017,73,32,49,524,92,432,-308
,1033,2023-10-20 13:08:28.22,161,-503,-2041,75,24,68,581,247,334,-414
,1034,2023-10-20 13:08:28.23,165,-462,-2048,69,-2,80,526,92,434,-309
,1035,2023-10-20 13:08:28.24,155,-470,-2032,57,-19,89,580,244,336,-412
,1036,2023-10-20 13:08:28.25,171,-462,-2011,37,-33,90,532,92,440,-312
,1037,2023-10-20 13:08:28.26,174,-460,-2005,21,-36,90,572,232,340,-402
,1038,2023-10-20 13:08:28.27,157,-458,-1991,19,-26,88,529,91,438,-310
,1039,2023-10-20 13:08:28.28,163,-446,-1995,25,-20,75,562,231,331,-396
,1040,2023-10-20 13:08:28.29,166,-453,-1984,25,-10,61,538,90,448,-314
,1041,2023-10-20 13:08:28.30,174,-458,-1985,31,2,52,568,229,339,-398
,1042,2023-10-20 13:08:28.31,160,-472,-2001,38,9,45,552,94,458,-323
,1043,2023-10-20 13:08:28.32,164,-472,-2011,43,9,42,579,234,345,-406
,1044,2023-10-20 13:08:28.33,146,-475,-2024,45,2,41,552,99,453,-325
,1045,2023-10-20 13:08:28.34,149,-475,-2022,40,-1,46,559,223,336,-391
,1046,2023-10-20 13:08:28.35,146,-479,-2009,32,-6,50,549,99,450,-324
,1047,2023-10-20 13:08:28.36,144,-482,-2007,24,-10,58,570,232,338,-401
,1048,2023-10-20 13:08:28.37,151,-472,-1997,15,-5,60,580,105,475,-342
,1049,2023-10-20 13:08:28.38,149,-442,-1982,10,6,53,581,230,351,-405
,1050,2023-10-20 13:08:28.39,166,-476,-1985,-2,18,52,576,112,464,-344
,1051,2023-10-20 13:08:28.40,166,-461,-1972,-4,34,50,572,230,342,-401
,1052,2023-10-20 13:08:28.41,169,-469,-2003,-3,40,45,571,109,462,-340
,1053,2023-10-20 13:08:28.42,165,-451,-1998,3,36,44,555,222,333,-388
,1054,2023-10-20 13:08:28.43,185,-456,-2001,8,38,43,570,113,457,-341
,1055,2023-10-20 13:08:28.44,181,-445,-2010,5,38,37,556,224,332,-390
,1056,2023-10-20 13:08:28.45,169,-468,-2021,6,31,37,580,116,464,-348
,1057,2023-10-20 13:08:28.46,179,-466,-2021,14,12,41,567,222,345,-394
,1058,2023-10-20 13:08:28.47,182,-461,-2036,15,-6,48,594,120,474,-357
,1059,2023-10-20 13:08:28.48,165,-455,-2033,4,-6,54,564,224,340,-394
,1060,2023-10-20 13:08:28.49,200,-476,-2016,-10,-17,56,590,135,455,-362
,1061,2023-10-20 13:08:28.50,189,-478,-1994,-5,-23,62,574,245,329,-409
,1062,2023-10-20 13:08:28.51,185,-487,-1985,2,-13,62,620,144,476,-382
,1063,2023-10-20 13:08:28.52,180,-484,-2005,21,-16,60,574,227,347,-400
,1064,2023-10-20 13:08:28.53,176,-484,-2014,38,-27,66,618,139,479,-378
,1065,2023-10-20 13:08:28.54,162,-473,-2025,50,-39,62,571,230,341,-400
,1066,2023-10-20 13:08:28.55,157,-472,-2030,61,-52,58,619,150,469,-384
,1067,2023-10-20 13:08:28.56,156,-468,-2020,67,-73,51,554,227,327,-390
,1068,2023-10-20 13:08:28.57,138,-471,-2008,74,-84,47,614,146,468,-380
,1069,2023-10-20 13:08:28.58,131,-471,-2003,64,-89,41,548,210,338,-379
,1070,2023-10-20 13:08:28.59,134,-488,-1995,51,-94,35,625,143,482,-384
,1071,2023-10-20 13:08:28.60,127,-505,-1967,35,-78,42,550,211,339,-380
,1072,2023-10-20 13:08:28.61,109,-493,-2007,26,-61,36,624,146,478,-385
,1073,2023-10-20 13:08:28.62,130,-477,-1999,19,-61,36,544,206,338,-375
,1074,2023-10-20 13:08:28.63,122,-492,-1962,9,-48,44,616,150,466,-383
,1075,2023-10-20 13:08:28.64,130,-506,-1980,-3,-23,42,528,202,326,-365
,1076,2023-10-20 13:08:28.65,123,-510,-1979,-9,-3,40,611,146,465,-378
,1077,2023-10-20 13:08:28.66,134,-499,-1986,-20,8,43,524,196,328,-360
,1078,2023-10-20 13:08:28.67,114,-518,-2012,-21,21,55,639,158,481,-398
,1079,2023-10-20 13:08:28.68,144,-485,-2018,-20,11,67,556,206,350,-381
,1080,2023-10-20 13:08:28.69,143,-484,-1990,-13,13,76,652,171,481,-411
,1081,2023-10-20 13:08:28.70,139,-470,-1993,-11,23,73,540,205,335,-372
,1082,2023-10-20 13:08:28.71,151,-441,-2014,-14,31,64,646,179,467,-412
,1083,2023-10-20 13:08:28.72,147,-446,-2010,-13,29,50,547,206,341,-376
,1084,2023-10-20 13:08:28.73,150,-459,-2018,-12,21,38,661,173,488,-417
,1085,2023-10-20 13:08:28.74,145,-452,-2004,-9,14,28,535,185,350,-360
,1086,2023-10-20 13:08:28.75,152,-461,-2008,-7,7,14,645,162,483,-403
,1087,2023-10-20 13:08:28.76,155,-461,-1998,-2,-3,6,524,182,342,-353
,1088,2023-10-20 13:08:28.77,161,-475,-1996,-1,-5,3,642,177,465,-409
,1089,2023-10-20 13:08:28.78,158,-484,-2001,0,0,1,517,186,331,-351
,1090,2023-10-20 13:08:28.79,164,-490,-2008,-2,6,3,649,173,476,-411
,1091,2023-10-20 13:08:28.80,154,-485,-2008,-4,10,7,524,175,349,-349
,1092,2023-10-20 13:08:28.81,164,-482,-1998,-6,19,9,655,171,484,-413
,1093,2023-10-20 13:08:28.82,152,-476,-1995,-14,28,11,520,173,347,-346
,1094,2023-10-20 13:08:28.83,150,-463,-2005,-20,31,11,656,179,477,-417
,1095,2023-10-20 13:08:28.84,154,-463,-2000,-23,29,12,520,171,349,-345
,1096,2023-10-20 13:08:28.85,153,-452,-2006,-23,23,8,664,179,485,-421
,1097,2023-10-20 13:08:28.86,152,-450,-2007,-22,17,5,521,160,361,-340
,1098,2023-10-20 13:08:28.87,152,-447,-2004,-18,15,-3,673,188,485,-430
,1099,2023-10-20 13:08:28.88,147,-450,-2005,-11,10,-10,523,169,354,-346
,1100,2023-10-20 13:08:28.89,123,-460,-2024,1,12,-11,675,194,481,-434
,1101,2023-10-20 13:08:28.90,179,-419,-1989,46,4,-49,504,154,350,-329
,1102,2023-10-20 13:08:28.91,144,-455,-1898,55,27,-16,670,195,475,-432
,1103,2023-10-20 13:08:28.92,152,-525,-1998,49,60,-24,515,162,353,-338
,1104,2023-10-20 13:08:28.93,131,-505,-2071,37,47,6,676,210,466,-443
,1105,2023-10-20 13:08:28.94,157,-473,-2058,39,1,21,517,159,358,-338
,1106,2023-10-20 13:08:28.95,170,-471,-2002,47,-24,34,693,191,502,-442
,1107,2023-10-20 13:08:28.96,161,-472,-1990,45,-17,36,524,137,387,-330
,1108,2023-10-20 13:08:28.97,149,-458,-2003,35,-12,38,708,197,511,-452
,1109,2023-10-20 13:08:28.98,154,-422,-1995,46,-13,27,544,148,396,-346
,1110,2023-10-20 13:08:28.99,139,-458,-2038,50,-9,6,720,200,520,-460
,1111,2023-10-20 13:08:29.00,164,-473,-1994,44,-22,3,545,151,394,-348
,1112,2023-10-20 13:08:29.01,142,-478,-1985,55,-20,-2,718,211,507,-464
,1113,2023-10-20 13:08:29.02,134,-498,-2019,55,-9,-6,538,146,392,-342
,1114,2023-10-20 13:08:29.03,142,-484,-2015,50,-8,-3,718,215,503,-466
,1115,2023-10-20 13:08:29.04,142,-490,-1994,52,-4,3,538,145,393,-341
,1116,2023-10-20 13:08:29.05,140,-498,-1986,48,9,7,717,218,499,-467
,1117,2023-10-20 13:08:29.06,146,-500,-1999,48,10,18,532,138,394,-335
,1118,2023-10-20 13:08:29.07,127,-498,-2013,53,8,30,712,216,496,-464
,1119,2023-10-20 13:08:29.08,138,-497,-2010,52,5,41,526,132,394,-329
,1120,2023-10-20 13:08:29.09,146,-496,-2007,52,2,48,695,211,484,-453
,1121,2023-10-20 13:08:29.10,157,-490,-2001,51,6,56,507,126,381,-316
,1122,2023-10-20 13:08:29.11,147,-493,-2003,52,8,64,679,217,462,-448
,1123,2023-10-20 13:08:29.12,151,-487,-2013,63,-6,65,492,123,369,-307
,1124,2023-10-20 13:08:29.13,151,-485,-2015,75,-22,68,658,211,447,-434
,1125,2023-10-20 13:08:29.14,156,-483,-2022,77,-27,71,479,115,364,-297
,1126,2023-10-20 13:08:29.15,137,-480,-2017,71,-27,68,652,206,446,-429
,1127,2023-10-20 13:08:29.16,140,-477,-2020,60,-44,68,459,100,359,-279
,1128,2023-10-20 13:08:29.17,144,-487,-2039,51,-65,71,593,183,410,-388
,1129,2023-10-20 13:08:29.18,138,-496,-2010,37,-82,78,402,67,335,-234
,1130,2023-10-20 13:08:29.19,132,-483,-2006,15,-92,86,539,149,390,-344
,1131,2023-10-20 13:08:29.20,124,-488,-2017,-8,-90,90,391,53,338,-222
,1132,2023-10-20 13:08:29.21,115,-481,-2017,-19,-83,79,581,176,405,-378
,1133,2023-10-20 13:08:29.22,129,-460,-1994,-12,-91,60,436,82,354,-259
,1134,2023-10-20 13:08:29.23,131,-463,-1972,-2,-81,35,624,204,420,-414
,1135,2023-10-20 13:08:29.24,138,-470,-1936,6,-59,15,458,96,362,-277
,1136,2023-10-20 13:08:29.25,123,-472,-1959,7,-31,-5,635,226,409,-430
,1137,2023-10-20 13:08:29.26,128,-508,-1994,-3,-7,-10,468,104,364,-286
,1138,2023-10-20 13:08:29.27,139,-520,-2012,0,-2,-4,652,223,429,-437
,1139,2023-10-20 13:08:29.28,110,-515,-2022,-1,0,8,483,102,381,-292
,1140,2023-10-20 13:08:29.29,135,-498,-2033,0,-24,16,649,231,418,-440
,1141,2023-10-20 13:08:29.30,136,-495,-1996,2,-33,36,474,99,375,-286
,1142,2023-10-20 13:08:29.31,137,-498,-1983,7,-28,44,624,212,412,-418
,1143,2023-10-20 13:08:29.32,128,-480,-1995,7,-25,44,456,87,369,-271
,1144,2023-10-20 13:08:29.33,135,-489,-1974,14,-29,35,625,228,397,-426
,1145,2023-10-20 13:08:29.34,135,-440,-1949,40,-13,-6,479,102,377,-290
,1146,2023-10-20 13:08:29.35,120,-466,-1962,13,7,0,646,238,408,-442
,1147,2023-10-20 13:08:29.36,116,-511,-2014,9,10,-10,470,94,376,-282
,1148,2023-10-20 13:08:29.37,132,-507,-2027,0,3,2,661,251,410,-456
,1149,2023-10-20 13:08:29.38,118,-519,-2002,-8,9,17,496,106,390,-301
,1150,2023-10-20 13:08:29.39,134,-529,-1978,-6,19,34,655,253,402,-454
,1151,2023-10-20 13:08:29.40,134,-509,-1997,-11,28,40,476,97,379,-286
,1152,2023-10-20 13:08:29.41,127,-501,-2016,-1,17,44,639,248,391,-443
,1153,2023-10-20 13:08:29.42,117,-479,-1996,12,4,43,476,93,383,-284
,1154,2023-10-20 13:08:29.43,123,-482,-1989,16,4,33,639,241,398,-440
,1155,2023-10-20 13:08:29.44,130,-474,-1995,13,5,20,468,84,384,-276
,1156,2023-10-20 13:08:29.45,131,-487,-1999,15,0,8,624,243,381,-433
,1157,2023-10-20 13:08:29.46,126,-486,-2009,24,-4,5,470,88,382,-279
,1158,2023-10-20 13:08:29.47,135,-499,-2007,23,-8,4,630,244,386,-437
,1159,2023-10-20 13:08:29.48,133,-501,-2004,21,-9,5,476,82,394,-279
,1160,2023-10-20 13:08:29.49,112,-502,-1996,15,-4,8,624,246,378,-435
,1161,2023-10-20 13:08:29.50,115,-509,-1995,6,7,10,471,85,386,-278
,1162,2023-10-20 13:08:29.51,117,-505,-1994,-2,20,16,621,247,374,-434
,1163,2023-10-20 13:08:29.52,121,-506,-1985,-5,28,20,475,78,397,-276
,1164,2023-10-20 13:08:29.53,116,-515,-1991,-14,31,25,623,238,385,-430
,1165,2023-10-20 13:08:29.54,119,-499,-1995,-19,41,26,476,75,401,-275
,1166,2023-10-20 13:08:29.55,111,-487,-1997,-23,43,22,619,245,374,-432
,1167,2023-10-20 13:08:29.56,115,-478,-2001,-31,45,22,479,81,398,-280
,1168,2023-10-20 13:08:29.57,126,-470,-2005,-30,43,14,618,248,370,-433
,1169,2023-10-20 13:08:29.58,134,-456,-2004,-24,40,3,481,72,409,-276
,1170,2023-10-20 13:08:29.59,163,-462,-1960,-20,39,0,615,241,374,-428
,1171,2023-10-20 13:08:29.60,147,-521,-1967,-25,54,7,482,74,408,-278
,1172,2023-10-20 13:08:29.61,139,-527,-2013,-22,61,16,609,244,365,-426
,1173,2023-10-20 13:08:29.62,131,-519,-2031,-19,49,35,483,78,405,-280
,1174,2023-10-20 13:08:29.63,134,-503,-2020,-7,36,47,618,253,365,-435
,1175,2023-10-20 13:08:29.64,123,-488,-2013,-3,31,61,504,87,417,-295
,1176,2023-10-20 13:08:29.65,126,-474,-2032,-4,28,70,632,254,378,-443
,1177,2023-10-20 13:08:29.66,112,-448,-2048,-20,9,65,516,86,430,-301
,1178,2023-10-20 13:08:29.67,134,-445,-2015,-33,-3,63,637,257,380,-447
,1179,2023-10-20 13:08:29.68,131,-448,-1972,-28,-1,56,529,99,430,-314
,1180,2023-10-20 13:08:29.69,133,-456,-1983,-18,20,42,663,282,381,-472
,1181,2023-10-20 13:08:29.70,131,-476,-1975,-15,26,31,540,92,448,-316
,1182,2023-10-20 13:08:29.71,145,-473,-1986,-3,34,25,658,265,393,-461
,1183,2023-10-20 13:08:29.72,125,-479,-2015,7,35,24,543,92,451,-317
,1184,2023-10-20 13:08:29.73,134,-465,-2024,8,39,25,667,278,389,-472
,1185,2023-10-20 13:08:29.74,137,-461,-2014,6,30,27,566,107,459,-336
,1186,2023-10-20 13:08:29.75,138,-467,-2014,7,22,27,672,279,393,-475
,1187,2023-10-20 13:08:29.76,143,-473,-2011,8,13,30,578,104,474,-341
,1188,2023-10-20 13:08:29.77,134,-473,-2020,9,4,33,684,274,410,-479
,1189,2023-10-20 13:08:29.78,134,-473,-2010,10,-2,36,594,105,489,-349
,1190,2023-10-20 13:08:29.79,144,-470,-2004,12,-2,37,686,273,413,-479
,1191,2023-10-20 13:08:29.80,151,-488,-1996,15,7,36,608,113,495,-360
,1192,2023-10-20 13:08:29.81,141,-494,-1995,23,5,38,695,277,418,-486
,1193,2023-10-20 13:08:29.82,134,-487,-2004,31,6,39,629,116,513,-372
