// Data mode  : Full
// Data quality  : Standard
// Acceleration sensor's range  : 2g
// Gyroscope sensor's range  : 250dps
//
//ARTIFACT,NUM,DATE,ACC_X,ACC_Y,ACC_Z,GYRO_X,GYRO_Y,GYRO_Z,EOG_L,EOG_R,EOG_H,EOG_V
,1,2023-10-27 10:25:16.99,1179,-285,-16417,43,56,130,298,-70,368,-114
,2,2023-10-27 10:25:17.01,1128,-413,-16475,149,-36,147,299,-67,366,-116
,3,2023-10-27 10:25:17.03,1028,-475,-16386,265,-183,163,309,-69,378,-120
,4,2023-10-27 10:25:17.05,1042,-471,-16344,340,-137,214,306,-68,374,-119
,5,2023-10-27 10:25:17.07,1089,-476,-16410,348,-43,253,306,-61,367,-122
,6,2023-10-27 10:25:17.09,932,-478,-16466,261,-66,285,314,-66,380,-124
,7,2023-10-27 10:25:17.11,977,-477,-16564,165,-21,271,305,-65,370,-120
,8,2023-10-27 10:25:17.13,980,-398,-16514,111,78,214,295,-67,362,-114
,9,2023-10-27 10:25:17.15,1078,-411,-16473,99,48,140,297,-70,367,-113
,10,2023-10-27 10:25:17.17,1045,-425,-16526,156,39,147,297,-73,370,-112
,11,2023-10-27 10:25:17.19,1099,-501,-16459,224,42,142,292,-73,365,-109
,12,2023-10-27 10:25:17.21,1058,-509,-16382,296,-40,131,290,-70,360,-110
,13,2023-10-27 10:25:17.23,995,-539,-16404,298,-147,192,283,-66,349,-108
,14,2023-10-27 10:25:17.25,954,-536,-16397,268,-210,222,277,-59,336,-109
,15,2023-10-27 10:25:17.27,934,-508,-16322,248,-113,239,280,-58,338,-111
,16,2023-10-27 10:25:17.29,954,-509,-16429,102,-30,168,261,-69,330,-96
,17,2023-10-27 10:25:17.31,968,-516,-16451,16,61,181,266,-62,328,-102
,18,2023-10-27 10:25:17.33,954,-473,-16500,-51,77,153,273,-56,329,-108
,19,2023-10-27 10:25:17.35,1022,-511,-16512,-80,104,162,272,-49,321,-111
,20,2023-10-27 10:25:17.37,1003,-471,-16516,-32,64,211,266,-38,304,-114
,21,2023-10-27 10:25:17.39,1014,-457,-16490,18,79,239,260,-35,295,-112
,22,2023-10-27 10:25:17.41,1056,-508,-16436,86,71,284,259,-38,297,-110
,23,2023-10-27 10:25:17.43,970,-450,-16472,117,77,318,241,-30,271,-105
,24,2023-10-27 10:25:17.45,955,-514,-16327,162,46,355,234,-17,251,-108
,25,2023-10-27 10:25:17.47,1061,-535,-16483,153,32,409,224,-20,244,-102
,26,2023-10-27 10:25:17.49,1093,-553,-16330,162,48,435,217,-10,227,-103
,27,2023-10-27 10:25:17.51,1022,-514,-16509,160,181,498,215,-11,226,-102
,28,2023-10-27 10:25:17.53,1047,-390,-16536,156,155,515,216,-2,218,-107
,29,2023-10-27 10:25:17.55,1010,-448,-16528,110,13,514,201,8,193,-104
,30,2023-10-27 10:25:17.57,993,-375,-16457,71,-51,508,202,11,191,-106
,31,2023-10-27 10:25:17.59,1044,-397,-16388,34,-133,500,197,18,179,-107
,32,2023-10-27 10:25:17.61,945,-490,-16427,47,-108,485,185,27,158,-106
,33,2023-10-27 10:25:17.63,966,-438,-16486,92,-75,502,172,43,129,-107
,34,2023-10-27 10:25:17.65,1080,-414,-16414,91,-29,487,164,49,115,-106
,35,2023-10-27 10:25:17.67,930,-439,-16360,89,-61,438,166,65,101,-115
,36,2023-10-27 10:25:17.69,1027,-533,-16451,103,-69,406,159,64,95,-111
,37,2023-10-27 10:25:17.71,953,-562,-16394,142,-29,472,148,69,79,-108
,38,2023-10-27 10:25:17.73,889,-530,-16491,135,-14,470,143,63,80,-103
,39,2023-10-27 10:25:17.75,1095,-526,-16398,117,-40,494,142,80,62,-111
,40,2023-10-27 10:25:17.77,896,-561,-16497,62,68,540,116,97,19,-106
,41,2023-10-27 10:25:17.79,978,-600,-16534,40,49,574,112,97,15,-104
,42,2023-10-27 10:25:17.81,1085,-663,-16452,73,-9,643,109,105,4,-107
,43,2023-10-27 10:25:17.83,1093,-647,-16405,204,-158,713,96,111,-15,-103
,44,2023-10-27 10:25:17.85,887,-664,-16561,180,-166,792,97,119,-22,-108
,45,2023-10-27 10:25:17.87,1036,-485,-16371,132,-132,848,99,126,-27,-112
,46,2023-10-27 10:25:17.89,997,-397,-16367,57,-148,838,86,133,-47,-109
,47,2023-10-27 10:25:17.91,896,-440,-16578,4,-207,798,80,146,-66,-113
,48,2023-10-27 10:25:17.93,854,-474,-16480,41,-296,788,68,147,-79,-107
,49,2023-10-27 10:25:17.95,841,-548,-16369,100,-338,796,48,155,-107,-101
,50,2023-10-27 10:25:17.97,944,-612,-16347,182,-404,826,56,161,-105,-108
,51,2023-10-27 10:25:17.99,777,-625,-16531,163,-366,932,59,171,-112,-115
,52,2023-10-27 10:25:18.01,800,-619,-16543,171,-475,1040,47,180,-133,-113
,53,2023-10-27 10:25:18.03,781,-584,-16669,180,-545,1197,44,182,-138,-113
,54,2023-10-27 10:25:18.05,671,-708,-16605,260,-677,1334,27,188,-161,-107
,55,2023-10-27 10:25:18.07,696,-662,-16403,281,-802,1413,15,198,-183,-106
,56,2023-10-27 10:25:18.09,780,-561,-16495,282,-807,1443,10,181,-171,-95
,57,2023-10-27 10:25:18.11,584,-513,-16401,332,-763,1494,9,199,-190,-104
,58,2023-10-27 10:25:18.13,603,-457,-16528,187,-612,1445,-2,217,-219,-107
,59,2023-10-27 10:25:18.15,486,-397,-16328,83,-410,1415,0,222,-222,-111
,60,2023-10-27 10:25:18.17,680,-501,-16198,-43,-196,1286,-8,224,-232,-108
,61,2023-10-27 10:25:18.19,694,-378,-16306,-101,-129,1166,-12,230,-242,-109
,62,2023-10-27 10:25:18.21,846,-452,-16270,-70,165,1062,-4,220,-224,-108
,63,2023-10-27 10:25:18.23,858,-407,-16303,-45,187,979,-15,234,-249,-109
,64,2023-10-27 10:25:18.25,898,-462,-16292,-42,209,842,-23,244,-267,-110
,65,2023-10-27 10:25:18.27,881,-496,-16322,64,253,807,-31,242,-273,-105
,66,2023-10-27 10:25:18.29,750,-573,-16453,123,307,823,-26,251,-277,-112
,67,2023-10-27 10:25:18.31,810,-599,-16510,182,249,865,-36,265,-301,-114
,68,2023-10-27 10:25:18.33,774,-548,-16491,220,191,856,-30,263,-293,-116
,69,2023-10-27 10:25:18.35,874,-499,-16467,206,105,825,-31,255,-286,-112
,70,2023-10-27 10:25:18.37,872,-504,-16462,186,21,777,-39,275,-314,-118
,71,2023-10-27 10:25:18.39,789,-471,-16568,129,-9,717,-53,276,-329,-111
,72,2023-10-27 10:25:18.41,767,-524,-16462,72,-131,623,-45,269,-314,-112
,73,2023-10-27 10:25:18.43,747,-505,-16399,30,-139,573,-34,256,-290,-111
,74,2023-10-27 10:25:18.45,656,-509,-16486,-1,-168,541,-50,279,-329,-114
,75,2023-10-27 10:25:18.47,748,-620,-16424,-6,-189,575,-35,274,-309,-119
,76,2023-10-27 10:25:18.49,627,-519,-16419,10,-155,638,-34,272,-306,-119
,77,2023-10-27 10:25:18.51,758,-472,-16312,11,-103,680,-50,278,-328,-114
,78,2023-10-27 10:25:18.53,705,-488,-16401,33,-87,665,-35,268,-303,-116
,79,2023-10-27 10:25:18.55,559,-580,-16533,63,-141,673,-44,259,-303,-107
,80,2023-10-27 10:25:18.57,490,-505,-16590,148,-231,700,-35,262,-297,-113
,81,2023-10-27 10:25:18.59,458,-425,-16471,203,-357,689,-36,261,-297,-112
,82,2023-10-27 10:25:18.61,465,-303,-16579,130,-429,590,-35,264,-299,-114
,83,2023-10-27 10:25:18.63,436,-251,-16564,104,-420,450,-36,265,-301,-114
,84,2023-10-27 10:25:18.65,363,-317,-16455,52,-349,354,-41,264,-305,-111
,85,2023-10-27 10:25:18.67,439,-301,-16490,-15,-349,208,-14,239,-253,-112
,86,2023-10-27 10:25:18.69,359,-393,-16380,-157,-252,97,-28,254,-282,-113
,87,2023-10-27 10:25:18.71,261,-259,-16338,-130,-225,53,-16,247,-263,-115
,88,2023-10-27 10:25:18.73,355,-289,-16340,-142,-176,-68,-19,252,-271,-116
,89,2023-10-27 10:25:18.75,304,-383,-16465,-87,-180,-94,-24,244,-268,-110
,90,2023-10-27 10:25:18.77,354,-408,-16492,4,-156,-111,-24,244,-268,-110
,91,2023-10-27 10:25:18.79,289,-366,-16438,89,-130,-26,-10,237,-247,-113
,92,2023-10-27 10:25:18.81,470,-343,-16458,144,-148,-12,-23,237,-260,-107
,93,2023-10-27 10:25:18.83,389,-453,-16535,235,-178,4,-12,234,-246,-111
,94,2023-10-27 10:25:18.85,364,-495,-16471,269,-88,84,-13,230,-243,-108
,95,2023-10-27 10:25:18.87,438,-523,-16366,357,-148,127,-8,224,-232,-108
,96,2023-10-27 10:25:18.89,183,-586,-16483,425,-165,141,10,218,-208,-114
,97,2023-10-27 10:25:18.91,324,-599,-16545,471,-252,161,13,185,-172,-99
,98,2023-10-27 10:25:18.93,369,-568,-16475,438,-262,220,18,208,-190,-113
,99,2023-10-27 10:25:18.95,253,-591,-16255,329,-292,244,30,206,-176,-118
,100,2023-10-27 10:25:18.97,365,-579,-16311,126,-201,229,36,194,-158,-115
,101,2023-10-27 10:25:18.99,429,-701,-16154,15,-79,261,42,198,-156,-120
,102,2023-10-27 10:25:19.01,478,-639,-16363,119,-173,306,50,183,-133,-116
,103,2023-10-27 10:25:19.03,454,-684,-16442,93,33,355,52,179,-127,-115
,104,2023-10-27 10:25:19.05,486,-637,-16558,275,35,504,54,178,-124,-116
,105,2023-10-27 10:25:19.07,441,-601,-16577,330,-41,598,59,172,-113,-115
,106,2023-10-27 10:25:19.09,482,-624,-16557,318,-164,754,62,165,-103,-113
,107,2023-10-27 10:25:19.11,407,-655,-16356,248,-274,790,78,161,-83,-119
,108,2023-10-27 10:25:19.13,260,-570,-16454,230,-375,875,78,147,-69,-112
,109,2023-10-27 10:25:19.15,90,-687,-16319,152,-443,923,93,131,-38,-112
,110,2023-10-27 10:25:19.17,261,-542,-16470,149,-405,990,101,132,-31,-116
,111,2023-10-27 10:25:19.19,282,-485,-16403,85,-419,995,90,128,-38,-109
,112,2023-10-27 10:25:19.21,137,-329,-16439,6,-250,931,124,104,20,-114
,113,2023-10-27 10:25:19.23,277,-424,-16325,1,-229,831,111,106,5,-108
,114,2023-10-27 10:25:19.25,207,-398,-16457,41,-205,704,122,98,24,-110
,115,2023-10-27 10:25:19.27,160,-413,-16427,103,-182,559,133,90,43,-111
,116,2023-10-27 10:25:19.29,365,-467,-16388,201,-44,513,133,87,46,-110
,117,2023-10-27 10:25:19.31,290,-480,-16464,261,-81,387,142,87,55,-114
,118,2023-10-27 10:25:19.33,106,-509,-16633,332,-130,358,146,75,71,-110
,119,2023-10-27 10:25:19.35,199,-472,-16572,332,-258,299,163,57,106,-110
,120,2023-10-27 10:25:19.37,94,-532,-16456,323,-304,287,147,48,99,-97
,121,2023-10-27 10:25:19.39,113,-599,-16588,363,-384,282,177,49,128,-113
,122,2023-10-27 10:25:19.41,153,-556,-16518,437,-397,277,179,44,135,-111
,123,2023-10-27 10:25:19.43,42,-638,-16409,426,-436,332,163,39,124,-101
,124,2023-10-27 10:25:19.45,109,-685,-16306,393,-401,351,179,32,147,-105
,125,2023-10-27 10:25:19.47,96,-592,-16276,322,-315,375,199,27,172,-113
,126,2023-10-27 10:25:19.49,51,-575,-16247,315,-114,355,200,10,190,-105
,127,2023-10-27 10:25:19.51,-62,-723,-16403,317,-48,383,211,13,198,-112
,128,2023-10-27 10:25:19.53,-43,-784,-16476,379,-65,396,216,13,203,-114
,129,2023-10-27 10:25:19.55,-74,-726,-16465,463,-103,429,221,4,217,-112
,130,2023-10-27 10:25:19.57,-82,-616,-16502,478,-135,429,235,-6,241,-114
,131,2023-10-27 10:25:19.59,-55,-646,-16540,426,-207,306,230,-5,235,-112
,132,2023-10-27 10:25:19.61,-23,-734,-16546,377,-219,239,243,-13,256,-115
,133,2023-10-27 10:25:19.63,-105,-614,-16536,361,-290,179,238,-12,250,-113
,134,2023-10-27 10:25:19.65,-81,-716,-16576,367,-311,87,238,-21,259,-108
,135,2023-10-27 10:25:19.67,-94,-762,-16314,392,-318,28,248,-26,274,-111
,136,2023-10-27 10:25:19.69,-145,-816,-16303,485,-307,-2,253,-33,286,-110
,137,2023-10-27 10:25:19.71,-219,-939,-16360,503,-252,12,256,-36,292,-110
,138,2023-10-27 10:25:19.73,-75,-1055,-16181,546,-170,116,261,-32,293,-114
,139,2023-10-27 10:25:19.75,-160,-1017,-16317,575,-57,221,256,-40,296,-108
,140,2023-10-27 10:25:19.77,-88,-1029,-16372,557,-80,338,266,-47,313,-109
,141,2023-10-27 10:25:19.79,-100,-969,-16343,577,-36,414,268,-47,315,-110
,142,2023-10-27 10:25:19.81,-183,-1090,-16585,624,-40,494,273,-44,317,-114
,143,2023-10-27 10:25:19.83,-221,-946,-16633,613,-156,588,284,-48,332,-118
,144,2023-10-27 10:25:19.85,-201,-1003,-16608,590,-261,688,281,-51,332,-115
,145,2023-10-27 10:25:19.87,-145,-874,-16393,430,-194,676,273,-52,325,-110
,146,2023-10-27 10:25:19.89,-128,-772,-16271,243,-130,647,299,-61,360,-119
,147,2023-10-27 10:25:19.91,-178,-906,-16392,152,2,554,291,-60,351,-115
,148,2023-10-27 10:25:19.93,-164,-899,-16391,169,8,471,279,-58,337,-110
,149,2023-10-27 10:25:19.95,-218,-911,-16363,214,-4,424,283,-63,346,-110
,150,2023-10-27 10:25:19.97,-226,-934,-16498,255,-53,387,296,-67,363,-114
,151,2023-10-27 10:25:19.99,-210,-1013,-16516,215,-181,341,287,-70,357,-108
,152,2023-10-27 10:25:20.01,-79,-916,-16364,227,-139,414,284,-68,352,-108
,153,2023-10-27 10:25:20.03,-66,-1020,-16496,203,-178,360,287,-71,358,-108
,154,2023-10-27 10:25:20.05,-50,-1012,-16420,211,-99,409,283,-72,355,-105
,155,2023-10-27 10:25:20.07,-65,-1026,-16477,313,-74,354,280,-60,340,-110
,156,2023-10-27 10:25:20.09,-174,-1049,-16510,399,-153,323,282,-62,344,-110
,157,2023-10-27 10:25:20.11,-146,-1044,-16532,428,-201,341,271,-62,333,-104
,158,2023-10-27 10:25:20.13,-153,-1055,-16357,403,-217,368,278,-52,330,-113
,159,2023-10-27 10:25:20.15,-205,-1049,-16288,342,-137,368,275,-62,337,-106
,160,2023-10-27 10:25:20.17,-205,-1132,-16286,333,-150,413,277,-58,335,-109
,161,2023-10-27 10:25:20.19,-141,-1121,-16481,330,-213,429,271,-56,327,-107
,162,2023-10-27 10:25:20.21,-94,-1015,-16382,337,-259,499,270,-53,323,-108
,163,2023-10-27 10:25:20.23,-258,-1055,-16314,280,-198,500,249,-53,302,-98
,164,2023-10-27 10:25:20.25,-293,-1092,-16387,254,-214,460,263,-53,316,-105
,165,2023-10-27 10:25:20.27,-267,-1125,-16401,277,-232,398,269,-51,320,-109
,166,2023-10-27 10:25:20.29,-315,-1175,-16414,328,-270,436,253,-48,301,-102
,167,2023-10-27 10:25:20.31,-328,-1135,-16415,380,-326,434,243,-44,287,-99
,168,2023-10-27 10:25:20.33,-330,-1180,-16433,325,-335,444,251,-37,288,-107
,169,2023-10-27 10:25:20.35,-415,-1015,-16452,220,-291,442,242,-33,275,-104
,170,2023-10-27 10:25:20.37,-467,-1054,-16353,147,-305,348,226,-26,252,-100
,171,2023-10-27 10:25:20.39,-370,-1139,-16413,72,-310,345,229,-32,261,-98
,172,2023-10-27 10:25:20.41,-406,-1102,-16419,110,-236,359,235,-31,266,-102
,173,2023-10-27 10:25:20.43,-444,-1117,-16412,169,-234,409,218,-7,225,-105
,174,2023-10-27 10:25:20.45,-395,-1056,-16362,193,-273,400,211,0,211,-105
,175,2023-10-27 10:25:20.47,-527,-1094,-16361,153,-224,411,208,1,207,-104
,176,2023-10-27 10:25:20.49,-429,-1116,-16261,212,-314,369,188,9,179,-98
,177,2023-10-27 10:25:20.51,-589,-1062,-16336,187,-157,326,178,15,163,-96
,178,2023-10-27 10:25:20.53,-579,-1145,-16313,257,-150,281,189,20,169,-104
,179,2023-10-27 10:25:20.55,-631,-1191,-16397,300,-160,261,187,27,160,-107
,180,2023-10-27 10:25:20.57,-452,-1191,-16379,325,-171,225,176,32,144,-104
,181,2023-10-27 10:25:20.59,-605,-1209,-16425,286,-101,213,170,33,137,-101
,182,2023-10-27 10:25:20.61,-590,-1236,-16458,228,-69,243,164,49,115,-106
,183,2023-10-27 10:25:20.63,-699,-1386,-16448,180,-40,326,160,54,106,-107
,184,2023-10-27 10:25:20.65,-732,-1299,-16278,211,-117,414,162,62,100,-112
,185,2023-10-27 10:25:20.67,-569,-1198,-16213,171,-67,462,153,70,83,-111
,186,2023-10-27 10:25:20.69,-718,-1116,-16261,118,-37,453,130,75,55,-102
,187,2023-10-27 10:25:20.71,-713,-1132,-16388,48,25,361,121,86,35,-103
,188,2023-10-27 10:25:20.73,-694,-1061,-16317,15,68,248,118,92,26,-105
,189,2023-10-27 10:25:20.75,-643,-1066,-16390,31,91,111,109,100,9,-104
,190,2023-10-27 10:25:20.77,-641,-1140,-16306,76,69,13,107,113,-6,-110
,191,2023-10-27 10:25:20.79,-584,-1235,-16307,111,150,79,103,113,-10,-108
,192,2023-10-27 10:25:20.81,-608,-1226,-16407,167,144,126,85,121,-36,-103
,193,2023-10-27 10:25:20.83,-597,-1282,-16407,81,190,167,78,126,-48,-102
,194,2023-10-27 10:25:20.85,-556,-1214,-16488,101,248,176,89,128,-39,-108
,195,2023-10-27 10:25:20.87,-385,-1249,-16456,76,317,172,78,140,-62,-109
,196,2023-10-27 10:25:20.89,-409,-1225,-16435,98,280,147,58,150,-92,-104
,197,2023-10-27 10:25:20.91,-404,-1145,-16425,135,182,45,48,159,-111,-103
,198,2023-10-27 10:25:20.93,-430,-1194,-16354,183,50,-19,40,154,-114,-97
,199,2023-10-27 10:25:20.95,-505,-1192,-16406,144,-55,-48,32,164,-132,-98
,200,2023-10-27 10:25:20.97,-543,-1355,-16320,89,-103,-40,24,169,-145,-96
,201,2023-10-27 10:25:20.99,-571,-1374,-16274,11,-74,52,20,176,-156,-98
,202,2023-10-27 10:25:21.01,-600,-1313,-16353,2,37,148,21,177,-156,-99
,203,2023-10-27 10:25:21.03,-524,-1252,-16415,36,121,178,20,187,-167,-103
,204,2023-10-27 10:25:21.05,-495,-1192,-16449,65,183,189,20,191,-171,-105
,205,2023-10-27 10:25:21.07,-516,-1234,-16362,27,168,190,19,197,-178,-108
,206,2023-10-27 10:25:21.09,-607,-1269,-16472,31,100,226,11,205,-194,-108
,207,2023-10-27 10:25:21.11,-560,-1166,-16422,8,73,314,10,209,-199,-109
,208,2023-10-27 10:25:21.13,-577,-1090,-16337,-49,137,315,16,214,-198,-115
,209,2023-10-27 10:25:21.15,-594,-1031,-16383,-66,111,235,1,218,-217,-109
,210,2023-10-27 10:25:21.17,-566,-1084,-16294,-88,144,118,-2,228,-230,-113
,211,2023-10-27 10:25:21.19,-511,-1032,-16476,7,75,119,-15,230,-245,-107
,212,2023-10-27 10:25:21.21,-494,-1072,-16459,17,94,80,-22,239,-261,-108
,213,2023-10-27 10:25:21.23,-336,-1073,-16545,-8,77,37,-12,237,-249,-112
,214,2023-10-27 10:25:21.25,-382,-978,-16408,-50,49,30,-16,237,-253,-110
,215,2023-10-27 10:25:21.27,-498,-1127,-16371,-45,104,64,-26,245,-271,-109
,216,2023-10-27 10:25:21.29,-452,-1114,-16366,-22,127,130,-32,248,-280,-108
,217,2023-10-27 10:25:21.31,-354,-1071,-16472,59,94,195,-24,249,-273,-112
,218,2023-10-27 10:25:21.33,-217,-1053,-16318,32,275,243,-30,249,-279,-109
,219,2023-10-27 10:25:21.35,-411,-1002,-16417,155,273,214,-39,256,-295,-108
,220,2023-10-27 10:25:21.37,-458,-1158,-16493,286,-72,194,-32,258,-290,-113
,221,2023-10-27 10:25:21.39,-425,-1034,-16385,285,-142,195,-38,262,-300,-112
,222,2023-10-27 10:25:21.41,-404,-899,-16284,199,-105,143,-46,261,-307,-107
,223,2023-10-27 10:25:21.43,-466,-1060,-16397,76,-105,22,-49,257,-306,-104
,224,2023-10-27 10:25:21.45,-474,-1221,-16591,-36,-94,-27,-39,251,-290,-106
,225,2023-10-27 10:25:21.47,-438,-1107,-16495,-4,-109,38,-43,264,-307,-110
,226,2023-10-27 10:25:21.49,-610,-1024,-16426,-4,-102,85,-39,264,-303,-112
,227,2023-10-27 10:25:21.51,-584,-1081,-16395,-4,-132,68,-22,263,-285,-120
,228,2023-10-27 10:25:21.53,-455,-1218,-16343,18,-97,149,-34,264,-298,-115
,229,2023-10-27 10:25:21.55,-441,-1047,-16245,25,-38,236,-39,265,-304,-113
,230,2023-10-27 10:25:21.57,-402,-991,-16147,53,196,215,-40,269,-309,-114
,231,2023-10-27 10:25:21.59,-370,-1033,-16360,31,287,108,-37,264,-301,-113
,232,2023-10-27 10:25:21.61,-390,-1193,-16440,57,262,104,-40,257,-297,-108
,233,2023-10-27 10:25:21.63,-429,-1170,-16433,238,185,170,-35,255,-290,-110
,234,2023-10-27 10:25:21.65,-231,-1078,-16330,300,29,211,-25,262,-287,-118
,235,2023-10-27 10:25:21.67,-248,-1227,-16328,313,29,141,-21,247,-268,-113
,236,2023-10-27 10:25:21.69,-304,-1290,-16423,330,17,168,-21,253,-274,-116
,237,2023-10-27 10:25:21.71,-388,-1237,-16597,301,-145,268,-24,246,-270,-111
,238,2023-10-27 10:25:21.73,-448,-1129,-16560,226,-290,286,-21,248,-269,-113
,239,2023-10-27 10:25:21.75,-595,-1055,-16400,162,-355,261,-8,242,-250,-117
,240,2023-10-27 10:25:21.77,-614,-1036,-16427,101,-437,230,-19,230,-249,-105
,241,2023-10-27 10:25:21.79,-647,-1075,-16380,-4,-442,192,0,241,-241,-120
,242,2023-10-27 10:25:21.81,-607,-1025,-16257,-34,-323,166,-1,227,-228,-113
,243,2023-10-27 10:25:21.83,-697,-1087,-16282,-23,-239,143,-15,221,-236,-103
,244,2023-10-27 10:25:21.85,-627,-1117,-16342,33,-107,175,-4,216,-220,-106
,245,2023-10-27 10:25:21.87,-669,-1056,-16391,123,-66,256,22,212,-190,-117
,246,2023-10-27 10:25:21.89,-660,-1001,-16475,168,-56,241,18,208,-190,-113
,247,2023-10-27 10:25:21.91,-703,-1036,-16534,244,-190,183,26,202,-176,-114
,248,2023-10-27 10:25:21.93,-671,-1069,-16439,279,-176,141,31,185,-154,-108
,249,2023-10-27 10:25:21.95,-545,-1087,-16233,287,-110,96,39,184,-145,-111
,250,2023-10-27 10:25:21.97,-732,-1213,-16312,334,-70,33,46,176,-130,-111
,251,2023-10-27 10:25:21.99,-708,-1284,-16442,382,-120,58,53,177,-124,-115
,252,2023-10-27 10:25:22.01,-673,-1291,-16394,349,-119,73,59,175,-116,-117
,253,2023-10-27 10:25:22.03,-652,-1189,-16433,269,-3,105,65,167,-102,-116
,254,2023-10-27 10:25:22.05,-692,-1126,-16428,140,9,5,72,164,-92,-118
,255,2023-10-27 10:25:22.07,-785,-1285,-16340,39,-93,-20,61,149,-88,-105
,256,2023-10-27 10:25:22.09,-770,-1255,-16243,87,-84,-11,84,142,-58,-113
,257,2023-10-27 10:25:22.11,-744,-1214,-16206,113,-1,3,89,142,-53,-115
,258,2023-10-27 10:25:22.13,-824,-1048,-16251,34,162,-76,96,137,-41,-116
,259,2023-10-27 10:25:22.15,-686,-1048,-16271,-163,302,-231,110,120,-10,-115
,260,2023-10-27 10:25:22.17,-646,-911,-16316,-299,369,-482,107,114,-7,-110
,261,2023-10-27 10:25:22.19,-721,-952,-16381,-389,466,-691,108,110,-2,-109
,262,2023-10-27 10:25:22.21,-738,-922,-16835,-497,565,-883,108,111,-3,-109
,263,2023-10-27 10:25:22.23,-664,-1051,-16522,-330,224,-919,126,92,34,-109
,264,2023-10-27 10:25:22.25,-698,-1028,-16606,-309,143,-1019,139,84,55,-111
,265,2023-10-27 10:25:22.27,-663,-944,-16449,-158,90,-1079,142,89,53,-115
,266,2023-10-27 10:25:22.29,-839,-910,-16453,-72,55,-1272,142,75,67,-108
,267,2023-10-27 10:25:22.31,-858,-969,-16409,-25,120,-1390,147,69,78,-108
,268,2023-10-27 10:25:22.33,-728,-952,-16264,-17,144,-1522,155,67,88,-111
,269,2023-10-27 10:25:22.35,-685,-1068,-16264,-77,295,-1646,167,59,108,-113
,270,2023-10-27 10:25:22.37,-518,-1099,-16336,-68,299,-1719,184,43,141,-113
,271,2023-10-27 10:25:22.39,-490,-1122,-16270,41,275,-1661,173,40,133,-106
,272,2023-10-27 10:25:22.41,-467,-1060,-16256,-26,399,-1570,176,33,143,-104
,273,2023-10-27 10:25:22.43,-530,-907,-16479,-119,368,-1579,200,26,174,-113
,274,2023-10-27 10:25:22.45,-482,-890,-16533,-197,218,-1722,193,26,167,-109
,275,2023-10-27 10:25:22.47,-480,-857,-16614,-200,65,-1923,207,25,182,-116
,276,2023-10-27 10:25:22.49,-479,-953,-16509,-127,19,-2046,212,17,195,-114
,277,2023-10-27 10:25:22.51,-454,-1268,-16479,-46,-164,-2081,214,13,201,-113
,278,2023-10-27 10:25:22.53,-392,-1286,-16389,23,-187,-1988,215,-3,218,-106
,279,2023-10-27 10:25:22.55,-312,-992,-16161,-56,284,-1917,224,-16,240,-104
,280,2023-10-27 10:25:22.57,-163,-781,-15937,-116,653,-1896,235,-2,237,-116
,281,2023-10-27 10:25:22.59,-118,-638,-16328,-192,742,-2059,227,-16,243,-105
,282,2023-10-27 10:25:22.61,-115,-611,-16311,-425,689,-2220,245,-17,262,-114
,283,2023-10-27 10:25:22.63,-106,-977,-16325,-561,606,-2230,243,-21,264,-111
,284,2023-10-27 10:25:22.65,-23,-1201,-16289,-439,490,-1999,242,-32,274,-105
,285,2023-10-27 10:25:22.67,19,-1274,-16677,-64,225,-1834,250,-35,285,-107
,286,2023-10-27 10:25:22.69,-163,-1055,-16915,208,-30,-1554,253,-31,284,-111
,287,2023-10-27 10:25:22.71,-138,-1072,-16613,281,-129,-1331,256,-34,290,-111
,288,2023-10-27 10:25:22.73,-144,-954,-16428,266,-82,-1150,264,-43,307,-110
,289,2023-10-27 10:25:22.75,-156,-854,-16610,117,-211,-1069,259,-38,297,-110
,290,2023-10-27 10:25:22.77,-246,-927,-16445,7,-142,-1075,273,-47,320,-113
,291,2023-10-27 10:25:22.79,-115,-950,-16383,110,-148,-1056,270,-48,318,-111
,292,2023-10-27 10:25:22.81,-64,-1082,-16306,286,-182,-1048,273,-50,323,-111
,293,2023-10-27 10:25:22.83,-54,-1106,-16172,502,-207,-939,286,-57,343,-114
,294,2023-10-27 10:25:22.85,-52,-1202,-16109,689,-217,-870,282,-57,339,-112
,295,2023-10-27 10:25:22.87,-114,-1136,-16321,808,-258,-732,267,-53,320,-107
,296,2023-10-27 10:25:22.89,-191,-1251,-16312,813,-156,-602,269,-48,317,-110
,297,2023-10-27 10:25:22.91,-440,-1202,-16456,881,-402,-514,278,-59,337,-109
,298,2023-10-27 10:25:22.93,-581,-1412,-16782,882,-698,-451,279,-60,339,-109
,299,2023-10-27 10:25:22.95,-710,-1548,-16908,964,-1016,-353,288,-58,346,-115
,300,2023-10-27 10:25:22.97,-778,-1445,-16751,950,-1246,-190,282,-52,334,-115
,301,2023-10-27 10:25:22.99,-716,-1247,-16473,765,-1308,-219,281,-52,333,-114
,302,2023-10-27 10:25:23.01,-604,-1192,-16474,557,-1242,-300,277,-55,332,-111
,303,2023-10-27 10:25:23.03,-711,-1208,-16005,391,-973,-365,292,-51,343,-120
,304,2023-10-27 10:25:23.05,-916,-1455,-16259,506,-939,-416,281,-59,340,-111
,305,2023-10-27 10:25:23.07,-846,-1605,-16413,524,-899,-450,270,-62,332,-104
,306,2023-10-27 10:25:23.09,-819,-1693,-16215,542,-689,-274,283,-60,343,-111
,307,2023-10-27 10:25:23.11,-824,-1472,-16080,516,-454,-138,253,-39,292,-107
,308,2023-10-27 10:25:23.13,-850,-1342,-15990,272,-167,-52,254,-33,287,-110
,309,2023-10-27 10:25:23.15,-757,-1237,-16141,-65,229,-71,271,-52,323,-109
,310,2023-10-27 10:25:23.17,-739,-1379,-16250,-229,427,-73,266,-51,317,-107
,311,2023-10-27 10:25:23.19,-762,-1410,-16354,-285,561,-35,257,-45,302,-106
,312,2023-10-27 10:25:23.21,-732,-1378,-16224,-222,500,87,250,-46,296,-102
,313,2023-10-27 10:25:23.23,-767,-1187,-16423,-69,293,78,244,-41,285,-101
,314,2023-10-27 10:25:23.25,-670,-1233,-16543,-111,181,90,252,-36,288,-108
,315,2023-10-27 10:25:23.27,-538,-1187,-16562,-211,261,38,255,-36,291,-109
,316,2023-10-27 10:25:23.29,-530,-966,-16464,-331,407,-50,244,-29,273,-107
,317,2023-10-27 10:25:23.31,-428,-922,-16542,-532,392,-283,236,-24,260,-106
,318,2023-10-27 10:25:23.33,-223,-932,-16362,-731,666,-473,250,-25,275,-112
,319,2023-10-27 10:25:23.35,-143,-1009,-16089,-773,981,-561,233,-14,247,-109
,320,2023-10-27 10:25:23.37,-104,-1284,-16019,-399,827,-579,232,-9,241,-111
,321,2023-10-27 10:25:23.39,-101,-1375,-16108,-96,1019,-449,215,-6,221,-104
,322,2023-10-27 10:25:23.41,-320,-1477,-16540,276,728,-123,192,1,191,-96
,323,2023-10-27 10:25:23.43,-243,-1308,-16594,273,552,96,201,9,192,-105
,324,2023-10-27 10:25:23.45,-433,-1081,-16673,130,312,254,209,8,201,-108
,325,2023-10-27 10:25:23.47,-389,-975,-16703,-9,45,215,196,10,186,-103
,326,2023-10-27 10:25:23.49,-423,-932,-16632,-241,-84,183,179,29,150,-104
,327,2023-10-27 10:25:23.51,-337,-952,-16400,-443,76,113,189,32,157,-110
,328,2023-10-27 10:25:23.53,-267,-932,-16196,-484,180,81,192,38,154,-115
,329,2023-10-27 10:25:23.55,-229,-1034,-16099,-387,308,57,175,48,127,-111
,330,2023-10-27 10:25:23.57,-183,-1339,-16031,-159,459,94,176,56,120,-116
,331,2023-10-27 10:25:23.59,-335,-1331,-16288,250,652,213,164,58,106,-111
,332,2023-10-27 10:25:23.61,-346,-1234,-16286,603,748,389,150,62,88,-106
,333,2023-10-27 10:25:23.63,-489,-1051,-16593,785,394,454,134,76,58,-105
,334,2023-10-27 10:25:23.65,-427,-1040,-16571,632,72,428,146,75,71,-110
,335,2023-10-27 10:25:23.67,-494,-1005,-16512,417,-217,427,122,87,35,-104
,336,2023-10-27 10:25:23.69,-581,-1115,-16589,147,-410,334,119,95,24,-107
,337,2023-10-27 10:25:23.71,-617,-1167,-16533,-73,-474,354,122,103,19,-112
,338,2023-10-27 10:25:23.73,-496,-1274,-16505,-257,-378,398,124,110,14,-117
,339,2023-10-27 10:25:23.75,-507,-1195,-16399,-348,-170,474,124,102,22,-113
,340,2023-10-27 10:25:23.77,-294,-1029,-16337,-392,74,554,97,121,-24,-109
,341,2023-10-27 10:25:23.79,-370,-1020,-16303,-380,333,634,94,135,-41,-114
,342,2023-10-27 10:25:23.81,-185,-965,-16372,-348,549,722,83,135,-52,-109
,343,2023-10-27 10:25:23.83,-137,-891,-16313,-201,702,743,79,150,-71,-114
,344,2023-10-27 10:25:23.85,-88,-879,-16390,35,740,738,76,166,-90,-121
,345,2023-10-27 10:25:23.87,-64,-939,-16435,312,616,714,66,167,-101,-116
,346,2023-10-27 10:25:23.89,-252,-1069,-16491,586,326,720,54,162,-108,-108
,347,2023-10-27 10:25:23.91,-113,-1113,-16509,821,87,749,57,173,-116,-115
,348,2023-10-27 10:25:23.93,-12,-1170,-16396,1006,-76,751,49,182,-133,-115
,349,2023-10-27 10:25:23.95,-169,-1185,-16322,1061,-209,734,53,180,-127,-116
,350,2023-10-27 10:25:23.97,-211,-1276,-16369,1001,-271,700,44,190,-146,-117
,351,2023-10-27 10:25:23.99,-202,-1345,-16348,954,-251,706,34,206,-172,-120
,352,2023-10-27 10:25:24.01,-213,-1352,-16277,778,-73,709,32,208,-176,-120
,353,2023-10-27 10:25:24.03,-141,-1269,-16295,611,104,671,22,208,-186,-115
,354,2023-10-27 10:25:24.05,-234,-1340,-16311,417,288,561,11,208,-197,-109
,355,2023-10-27 10:25:24.07,-246,-1289,-16430,295,335,424,13,218,-205,-115
,356,2023-10-27 10:25:24.09,-124,-1308,-16427,67,401,309,22,225,-203,-123
,357,2023-10-27 10:25:24.11,-50,-1309,-16411,-132,291,263,16,226,-210,-121
,358,2023-10-27 10:25:24.13,-44,-1223,-16489,-284,266,149,6,232,-226,-119
,359,2023-10-27 10:25:24.15,-49,-1137,-16519,-338,203,131,-8,245,-253,-118
,360,2023-10-27 10:25:24.17,-71,-1169,-16448,-297,117,123,-18,246,-264,-114
,361,2023-10-27 10:25:24.19,-86,-1267,-16477,-209,-1,153,-30,252,-282,-111
,362,2023-10-27 10:25:24.21,-57,-1276,-16453,-55,-137,220,-16,253,-269,-118
,363,2023-10-27 10:25:24.23,-195,-1247,-16399,150,-226,326,-16,232,-248,-108
,364,2023-10-27 10:25:24.25,-252,-1336,-16440,341,-356,442,-13,256,-269,-121
,365,2023-10-27 10:25:24.27,-270,-1221,-16493,424,-525,468,-21,263,-284,-121
,366,2023-10-27 10:25:24.29,-257,-1194,-16474,368,-387,381,-26,260,-286,-117
,367,2023-10-27 10:25:24.31,-453,-1140,-16603,407,-418,372,-26,264,-290,-119
,368,2023-10-27 10:25:24.33,-440,-1271,-16296,249,-354,339,-30,271,-301,-120
,369,2023-10-27 10:25:24.35,-505,-1376,-16244,140,-305,378,-19,261,-280,-121
,370,2023-10-27 10:25:24.37,-536,-1402,-16367,94,-353,379,-22,269,-291,-123
,371,2023-10-27 10:25:24.39,-493,-1243,-16343,46,-370,471,-24,269,-293,-122
,372,2023-10-27 10:25:24.41,-486,-1286,-16199,-13,-368,519,-28,261,-289,-116
,373,2023-10-27 10:25:24.43,-570,-1129,-16432,-227,-256,523,-40,272,-312,-116
,374,2023-10-27 10:25:24.45,-482,-1114,-16487,-368,-227,457,-38,277,-315,-119
,375,2023-10-27 10:25:24.47,-484,-1178,-16549,-493,-163,432,-39,274,-313,-117
,376,2023-10-27 10:25:24.49,-391,-1133,-16370,-441,-88,422,-37,274,-311,-118
,377,2023-10-27 10:25:24.51,-405,-1119,-16294,-324,44,444,-34,277,-311,-121
,378,2023-10-27 10:25:24.53,-230,-1124,-16260,-235,230,458,-29,260,-289,-115
,379,2023-10-27 10:25:24.55,-176,-1102,-16255,-119,462,537,-29,273,-302,-122
,380,2023-10-27 10:25:24.57,-188,-1097,-16320,110,497,575,-26,283,-309,-128
,381,2023-10-27 10:25:24.59,-149,-1173,-16547,351,324,682,-21,268,-289,-123
,382,2023-10-27 10:25:24.61,-393,-1221,-16646,499,18,787,-11,274,-285,-131
,383,2023-10-27 10:25:24.63,-322,-1075,-16554,605,-277,896,-29,268,-297,-119
,384,2023-10-27 10:25:24.65,-356,-1171,-16499,607,-507,920,-30,260,-290,-115
,385,2023-10-27 10:25:24.67,-531,-1150,-16538,629,-800,848,-84,-298,214,191
,386,2023-10-27 10:25:24.69,-674,-1354,-16336,585,-983,815,-165,-1252,1087,708
,387,2023-10-27 10:25:24.71,-652,-1317,-16475,454,-906,840,-198,-1161,963,679
,388,2023-10-27 10:25:24.73,-674,-1244,-16215,408,-900,873,-197,-473,276,335
,389,2023-10-27 10:25:24.75,-614,-1418,-16040,287,-674,911,-175,-115,-60,145
,390,2023-10-27 10:25:24.77,-670,-1365,-16192,248,-419,927,-186,108,-294,39
,391,2023-10-27 10:25:24.79,-670,-1244,-16316,241,-189,840,-182,128,-310,27
,392,2023-10-27 10:25:24.81,-735,-1312,-16278,178,63,834,-174,185,-359,-5
,393,2023-10-27 10:25:24.83,-664,-1287,-16399,133,141,731,-169,149,-318,10
,394,2023-10-27 10:25:24.85,-599,-1268,-16373,73,172,645,-175,70,-245,52
,395,2023-10-27 10:25:24.87,-572,-1242,-16407,48,189,638,-168,84,-252,42
,396,2023-10-27 10:25:24.89,-710,-1299,-16468,108,100,607,-160,148,-308,6
,397,2023-10-27 10:25:24.91,-612,-1336,-16418,162,-6,606,-148,281,-429,-66
,398,2023-10-27 10:25:24.93,-539,-1150,-16505,188,55,599,-155,244,-399,-44
,399,2023-10-27 10:25:24.95,-640,-1045,-16380,72,88,501,-157,172,-329,-7
,400,2023-10-27 10:25:24.97,-662,-1138,-16465,-52,58,354,-131,198,-329,-33
,401,2023-10-27 10:25:24.99,-710,-1086,-16388,-157,15,257,-144,307,-451,-81
,402,2023-10-27 10:25:25.01,-613,-1180,-16401,-216,105,221,-134,503,-637,-184
,403,2023-10-27 10:25:25.03,-562,-1012,-16301,-228,129,218,-110,588,-698,-239
,404,2023-10-27 10:25:25.05,-522,-1044,-16379,-228,176,182,-102,287,-389,-92
,405,2023-10-27 10:25:25.07,-501,-939,-16305,-238,201,123,-79,-10,-69,44
,406,2023-10-27 10:25:25.09,-506,-956,-16345,-272,193,52,-72,-186,114,129
,407,2023-10-27 10:25:25.11,-541,-912,-16455,-303,174,-24,-74,-327,253,200
,408,2023-10-27 10:25:25.13,-503,-987,-16600,-277,20,-43,-64,-435,371,249
,409,2023-10-27 10:25:25.15,-552,-991,-16556,-221,-138,-75,-73,-479,406,276
,410,2023-10-27 10:25:25.17,-603,-1030,-16456,-216,-265,-48,-58,-519,461,288
,411,2023-10-27 10:25:25.19,-626,-1020,-16313,-102,-351,-28,-36,-557,521,296
,412,2023-10-27 10:25:25.21,-656,-997,-16354,-17,-386,-106,-31,-594,563,312
,413,2023-10-27 10:25:25.23,-716,-1089,-16455,139,-402,-130,-26,-621,595,323
,414,2023-10-27 10:25:25.25,-735,-1113,-16393,279,-420,-123,-10,-625,615,317
,415,2023-10-27 10:25:25.27,-734,-1166,-16309,415,-371,-91,-19,-627,608,323
,416,2023-10-27 10:25:25.29,-821,-1244,-16319,498,-284,-96,-9,-643,634,326
,417,2023-10-27 10:25:25.31,-788,-1309,-16321,608,-306,-41,9,-650,659,320
,418,2023-10-27 10:25:25.33,-830,-1275,-16370,673,-307,-1,17,-656,673,319
,419,2023-10-27 10:25:25.35,-858,-1237,-16300,666,-306,33,18,-702,720,342
,420,2023-10-27 10:25:25.37,-876,-1267,-16336,545,-323,24,21,-473,494,226
,421,2023-10-27 10:25:25.39,-830,-1234,-16367,403,-267,35,-2,234,-236,-116
,422,2023-10-27 10:25:25.41,-983,-1410,-16313,288,-248,83,-15,641,-656,-313
,423,2023-10-27 10:25:25.43,-1018,-1418,-16347,266,-226,131,16,764,-748,-390
,424,2023-10-27 10:25:25.45,-1035,-1479,-16359,270,-244,211,10,751,-741,-380
,425,2023-10-27 10:25:25.47,-1030,-1372,-16256,274,-166,308,39,618,-579,-328
,426,2023-10-27 10:25:25.49,-967,-1299,-16267,194,-58,326,41,523,-482,-282
,427,2023-10-27 10:25:25.51,-915,-1215,-16293,58,59,304,34,503,-469,-268
,428,2023-10-27 10:25:25.53,-858,-1193,-16295,-14,137,209,41,461,-420,-251
,429,2023-10-27 10:25:25.55,-935,-1358,-16370,-56,205,172,56,434,-378,-245
,430,2023-10-27 10:25:25.57,-816,-1275,-16373,-27,269,192,60,415,-355,-237
,431,2023-10-27 10:25:25.59,-852,-1226,-16350,32,279,221,53,411,-358,-232
,432,2023-10-27 10:25:25.61,-781,-1207,-16414,55,259,212,71,299,-228,-185
,433,2023-10-27 10:25:25.63,-709,-1215,-16423,84,221,216,80,188,-108,-134
,434,2023-10-27 10:25:25.65,-775,-1222,-16431,150,156,255,79,136,-57,-107
,435,2023-10-27 10:25:25.67,-768,-1282,-16385,220,96,220,88,40,48,-64
,436,2023-10-27 10:25:25.69,-722,-1320,-16254,341,27,265,89,-10,99,-39
,437,2023-10-27 10:25:25.71,-882,-1388,-16391,391,-67,273,95,-4,99,-45
,438,2023-10-27 10:25:25.73,-769,-1300,-16278,341,-121,205,93,61,32,-77
,439,2023-10-27 10:25:25.75,-874,-1273,-16356,259,-35,194,99,93,6,-96
,440,2023-10-27 10:25:25.77,-916,-1278,-16400,166,39,99,103,-10,113,-46
,441,2023-10-27 10:25:25.79,-1015,-1361,-16381,52,37,93,121,-107,228,-7
,442,2023-10-27 10:25:25.81,-996,-1320,-16337,-27,-55,67,115,-204,319,44
,443,2023-10-27 10:25:25.83,-961,-1172,-16318,-141,-39,55,117,-285,402,84
,444,2023-10-27 10:25:25.85,-957,-1156,-16409,-182,10,31,134,-249,383,57
,445,2023-10-27 10:25:25.87,-912,-1209,-16392,-220,78,13,120,-159,279,19
,446,2023-10-27 10:25:25.89,-864,-1182,-16385,-171,94,85,124,-109,233,-7
,447,2023-10-27 10:25:25.91,-828,-1174,-16300,-139,202,137,134,-112,246,-11
,448,2023-10-27 10:25:25.93,-841,-1093,-16363,-98,242,177,122,-146,268,12
,449,2023-10-27 10:25:25.95,-727,-1143,-16323,-89,370,226,131,-153,284,11
,450,2023-10-27 10:25:25.97,-799,-1177,-16296,-52,389,310,128,-128,256,0
,451,2023-10-27 10:25:25.99,-733,-1211,-16314,96,432,376,128,-155,283,13
,452,2023-10-27 10:25:26.01,-756,-1249,-16304,305,396,493,120,-240,360,60
,453,2023-10-27 10:25:26.03,-776,-1258,-16386,519,274,548,125,-306,431,90
,454,2023-10-27 10:25:26.05,-680,-1319,-16410,646,204,627,124,-283,407,79
,455,2023-10-27 10:25:26.07,-674,-1238,-16418,652,133,677,118,-294,412,88
,456,2023-10-27 10:25:26.09,-747,-1180,-16310,470,41,594,118,-291,409,86
,457,2023-10-27 10:25:26.11,-681,-1150,-16389,276,19,511,112,-247,359,67
,458,2023-10-27 10:25:26.13,-773,-1193,-16405,120,77,411,111,-219,330,54
,459,2023-10-27 10:25:26.15,-724,-1226,-16351,26,190,317,107,-177,284,35
,460,2023-10-27 10:25:26.17,-625,-1172,-16375,-49,199,162,109,-137,246,14
,461,2023-10-27 10:25:26.19,-693,-1290,-16354,-69,225,134,105,-114,219,4
,462,2023-10-27 10:25:26.21,-640,-1312,-16300,-32,222,116,96,-122,218,13
,463,2023-10-27 10:25:26.23,-576,-1379,-16352,19,206,148,93,-182,275,44
,464,2023-10-27 10:25:26.25,-541,-1305,-16351,82,124,209,138,-202,340,32
,465,2023-10-27 10:25:26.27,-613,-1461,-16414,164,43,272,95,-220,315,62
,466,2023-10-27 10:25:26.29,-614,-1352,-16510,191,-111,323,74,-218,292,72
,467,2023-10-27 10:25:26.31,-769,-1352,-16454,211,-181,342,77,-190,267,56
,468,2023-10-27 10:25:26.33,-750,-1264,-16448,159,-270,347,69,-177,246,54
,469,2023-10-27 10:25:26.35,-791,-1332,-16448,84,-315,339,69,-194,263,62
,470,2023-10-27 10:25:26.37,-835,-1268,-16458,40,-267,362,71,-192,263,60
,471,2023-10-27 10:25:26.39,-788,-1293,-16237,-33,-129,335,52,-182,234,65
,472,2023-10-27 10:25:26.41,-846,-1194,-16178,-20,-97,277,49,-175,224,63
,473,2023-10-27 10:25:26.43,-815,-1310,-16379,0,-15,253,37,-180,217,71
,474,2023-10-27 10:25:26.45,-749,-1265,-16197,87,56,249,37,-193,230,78
,475,2023-10-27 10:25:26.47,-795,-1181,-16287,110,208,210,26,-13,39,-6
,476,2023-10-27 10:25:26.49,-790,-1165,-16380,96,248,161,2,60,-58,-31
,477,2023-10-27 10:25:26.51,-814,-1263,-16419,20,151,188,7,-76,83,34
,478,2023-10-27 10:25:26.53,-721,-1306,-16327,25,92,257,11,-110,121,49
,479,2023-10-27 10:25:26.55,-761,-1181,-16234,4,86,319,-8,-175,167,91
,480,2023-10-27 10:25:26.57,-843,-1233,-16285,-13,134,353,-18,-214,196,116
,481,2023-10-27 10:25:26.59,-855,-1348,-16405,-40,111,386,-3,-194,191,98
,482,2023-10-27 10:25:26.61,-867,-1331,-16395,14,88,473,-20,-190,170,105
,483,2023-10-27 10:25:26.63,-805,-1209,-16407,104,43,516,-32,-133,101,82
,484,2023-10-27 10:25:26.65,-808,-1213,-16339,73,59,526,-29,-97,68,63
,485,2023-10-27 10:25:26.67,-842,-1238,-16322,25,59,495,-28,-148,120,88
,486,2023-10-27 10:25:26.69,-795,-1190,-16363,10,-16,452,-51,-173,122,112
,487,2023-10-27 10:25:26.71,-670,-1070,-16464,-80,93,457,-52,-156,104,104
,488,2023-10-27 10:25:26.73,-719,-1025,-16419,-219,256,413,-68,-137,69,102
,489,2023-10-27 10:25:26.75,-605,-956,-16384,-353,366,377,-64,-146,82,105
,490,2023-10-27 10:25:26.77,-556,-971,-16268,-469,530,386,-61,-160,99,110
,491,2023-10-27 10:25:26.79,-524,-1080,-15928,-549,802,440,-80,-166,86,123
,492,2023-10-27 10:25:26.81,-517,-1258,-16129,-408,827,537,-82,-127,45,104
,493,2023-10-27 10:25:26.83,-266,-1331,-16261,-154,694,603,-94,-125,31,109
,494,2023-10-27 10:25:26.85,-296,-1325,-16251,78,773,780,-95,-150,55,122
,495,2023-10-27 10:25:26.87,-105,-1065,-16341,304,722,846,-96,-87,-9,91
,496,2023-10-27 10:25:26.89,-183,-904,-16601,74,656,777,-102,-37,-65,69
,497,2023-10-27 10:25:26.91,-234,-729,-16537,-312,617,652,-105,-22,-83,63
,498,2023-10-27 10:25:26.93,-135,-739,-16493,-622,534,505,-119,-22,-97,70
,499,2023-10-27 10:25:26.95,-357,-965,-16688,-701,230,315,-141,-1,-140,71
,500,2023-10-27 10:25:26.97,-318,-941,-16942,-743,-114,277,-123,0,-123,61
,501,2023-10-27 10:25:26.99,-353,-931,-16886,-691,-495,299,-140,16,-156,62
,502,2023-10-27 10:25:27.01,-457,-795,-16739,-643,-782,281,-146,52,-198,47
,503,2023-10-27 10:25:27.03,-572,-766,-16699,-637,-1106,338,-153,42,-195,55
,504,2023-10-27 10:25:27.05,-711,-706,-16587,-658,-1326,295,-154,58,-212,48
,505,2023-10-27 10:25:27.07,-734,-671,-16491,-507,-1416,326,-145,97,-242,24
,506,2023-10-27 10:25:27.09,-1002,-634,-16445,-358,-1508,368,-159,79,-238,40
,507,2023-10-27 10:25:27.11,-1064,-678,-16216,-172,-1503,304,-137,85,-222,26
,508,2023-10-27 10:25:27.13,-1160,-725,-16372,175,-1513,251,-179,106,-285,36
,509,2023-10-27 10:25:27.15,-1288,-745,-16390,498,-1352,218,-180,126,-306,27
,510,2023-10-27 10:25:27.17,-1249,-740,-16292,728,-1178,213,-196,142,-338,27
,511,2023-10-27 10:25:27.19,-1278,-700,-16133,843,-811,197,-166,185,-351,-9
,512,2023-10-27 10:25:27.21,-1209,-733,-16163,855,-387,131,-193,156,-349,18
,513,2023-10-27 10:25:27.23,-1287,-837,-16133,809,-113,62,-204,123,-327,40
,514,2023-10-27 10:25:27.25,-1232,-894,-16222,764,107,4,-202,58,-260,72
,515,2023-10-27 10:25:27.27,-1271,-888,-16361,739,197,-15,-192,45,-237,73
,516,2023-10-27 10:25:27.29,-1283,-949,-16359,604,255,-3,-214,63,-277,75
,517,2023-10-27 10:25:27.31,-1276,-980,-16327,475,157,-16,-220,224,-444,-2
,518,2023-10-27 10:25:27.33,-1197,-1104,-16362,329,37,-17,-196,245,-441,-24
,519,2023-10-27 10:25:27.35,-1164,-1181,-16328,249,-117,-17,-195,152,-347,21
,520,2023-10-27 10:25:27.37,-1166,-1291,-16298,196,-131,39,-238,188,-426,25
,521,2023-10-27 10:25:27.39,-1064,-1241,-16409,239,-87,65,-220,307,-527,-43
,522,2023-10-27 10:25:27.41,-985,-1261,-16358,235,52,78,-238,411,-649,-86
,523,2023-10-27 10:25:27.43,-852,-1211,-16407,227,198,144,-261,546,-807,-142
,524,2023-10-27 10:25:27.45,-999,-1236,-16359,232,307,256,-255,707,-962,-226
,525,2023-10-27 10:25:27.47,-1058,-1250,-16455,151,133,376,-195,484,-679,-144
,526,2023-10-27 10:25:27.49,-1135,-1250,-16617,158,-193,515,-174,213,-387,-19
,527,2023-10-27 10:25:27.51,-1111,-914,-16471,100,-570,736,-191,-60,-131,125
,528,2023-10-27 10:25:27.53,-1250,-861,-16471,-109,-598,730,-198,-213,15,205
,529,2023-10-27 10:25:27.55,-1124,-827,-16619,-271,-608,640,-231,176,-407,27
,530,2023-10-27 10:25:27.57,-1274,-912,-16193,-367,-520,596,-219,334,-553,-57
,531,2023-10-27 10:25:27.59,-1316,-1030,-16131,-300,-328,545,-216,235,-451,-9
,532,2023-10-27 10:25:27.61,-1159,-906,-16092,-63,-134,474,-200,345,-545,-72
,533,2023-10-27 10:25:27.63,-1227,-967,-16158,122,178,413,-208,313,-521,-52
,534,2023-10-27 10:25:27.65,-1212,-979,-16226,249,414,407,-214,132,-346,41
,535,2023-10-27 10:25:27.67,-1124,-912,-16301,305,486,405,-190,39,-229,75
,536,2023-10-27 10:25:27.69,-1151,-1015,-16401,332,396,432,-192,-37,-155,114
,537,2023-10-27 10:25:27.71,-1178,-995,-16431,345,235,459,-194,-66,-128,130
,538,2023-10-27 10:25:27.73,-1187,-968,-16415,324,84,482,-190,-67,-123,128
,539,2023-10-27 10:25:27.75,-1131,-903,-16516,258,-69,482,-190,-69,-121,129
,540,2023-10-27 10:25:27.77,-1042,-848,-16525,122,-152,456,-179,-71,-108,125
,541,2023-10-27 10:25:27.79,-1113,-819,-16473,18,-184,363,-182,-82,-100,132
,542,2023-10-27 10:25:27.81,-1208,-762,-16472,-149,-48,230,-168,-92,-76,130
,543,2023-10-27 10:25:27.83,-1153,-814,-16296,-196,-15,112,-157,-75,-82,116
,544,2023-10-27 10:25:27.85,-1173,-893,-16462,-98,30,69,-151,-19,-132,85
,545,2023-10-27 10:25:27.87,-1083,-763,-16386,-55,123,48,-162,11,-173,75
,546,2023-10-27 10:25:27.89,-902,-622,-16203,-43,295,12,-146,-3,-143,74
,547,2023-10-27 10:25:27.91,-1044,-758,-16323,-34,400,-85,-134,75,-209,29
,548,2023-10-27 10:25:27.93,-935,-935,-16395,118,259,-83,-120,265,-385,-72
,549,2023-10-27 10:25:27.95,-1025,-957,-16469,318,46,17,-132,230,-362,-49
,550,2023-10-27 10:25:27.97,-1030,-905,-16410,460,-176,97,-134,159,-293,-12
,551,2023-10-27 10:25:27.99,-1154,-841,-16359,492,-350,128,-117,131,-248,-7
,552,2023-10-27 10:25:28.01,-1168,-894,-16489,379,-503,54,-104,105,-209,0
,553,2023-10-27 10:25:28.03,-1229,-1003,-16453,276,-575,33,-106,87,-193,9
,554,2023-10-27 10:25:28.05,-1363,-1042,-16357,243,-533,74,-91,108,-199,-8
,555,2023-10-27 10:25:28.07,-1285,-974,-16400,151,-432,78,-91,110,-201,-9
,556,2023-10-27 10:25:28.09,-1252,-892,-16283,91,-281,79,-72,120,-192,-24
,557,2023-10-27 10:25:28.11,-1299,-979,-16266,92,-119,48,-69,106,-175,-18
,558,2023-10-27 10:25:28.13,-1169,-974,-16270,79,95,9,-74,106,-180,-16
,559,2023-10-27 10:25:28.15,-1160,-936,-16233,79,236,-37,-61,84,-145,-11
,560,2023-10-27 10:25:28.17,-1126,-924,-16329,144,352,-90,-49,198,-247,-74
,561,2023-10-27 10:25:28.19,-1122,-1026,-16364,234,367,-53,-59,377,-436,-159
,562,2023-10-27 10:25:28.21,-1123,-1127,-16386,354,150,-95,-5,91,-96,-43
,563,2023-10-27 10:25:28.23,-1090,-1066,-16403,470,-79,-59,3,-230,233,113
,564,2023-10-27 10:25:28.25,-1112,-1049,-16392,505,-150,-18,-12,-318,306,165
,565,2023-10-27 10:25:28.27,-1246,-1036,-16427,418,-172,1,-42,155,-197,-56
,566,2023-10-27 10:25:28.29,-1291,-996,-16448,302,-318,9,-8,-6,-2,7
,567,2023-10-27 10:25:28.31,-1335,-999,-16358,111,-411,14,-4,-2,-2,3
