// Data mode  : Full
// Data quality  : High
// Acceleration sensor's range  : 16g
// Gyroscope sensor's range  : 2000dps
//
//ARTIFACT,NUM,DATE,ACC_X,ACC_Y,ACC_Z,GYRO_X,GYRO_Y,GYRO_Z,EOG_L,EOG_R,EOG_H,EOG_V
,1,2023-10-27 12:24:03.55,301,-53,-2050,331,141,-130,442,646,-204,-544
,2,2023-10-27 12:24:03.56,310,-61,-2026,335,134,-143,433,515,-82,-474
,3,2023-10-27 12:24:03.57,319,-87,-2047,351,142,-140,405,635,-230,-520
,4,2023-10-27 12:24:03.58,318,-98,-2056,368,125,-144,416,511,-95,-463
,5,2023-10-27 12:24:03.59,335,-91,-2062,381,116,-138,359,629,-270,-494
,6,2023-10-27 12:24:03.60,340,-96,-2026,387,97,-141,396,523,-127,-459
,7,2023-10-27 12:24:03.61,331,-116,-2051,395,97,-138,300,630,-330,-465
,8,2023-10-27 12:24:03.62,339,-119,-2072,403,82,-134,372,532,-160,-452
,9,2023-10-27 12:24:03.63,338,-125,-2065,403,66,-133,258,624,-366,-441
,10,2023-10-27 12:24:03.64,348,-118,-2036,409,56,-134,368,543,-175,-455
,11,2023-10-27 12:24:03.65,360,-132,-2027,412,54,-130,236,624,-388,-430
,12,2023-10-27 12:24:03.66,344,-157,-2042,412,47,-126,348,551,-203,-449
,13,2023-10-27 12:24:03.67,348,-163,-2052,416,33,-121,168,619,-451,-393
,14,2023-10-27 12:24:03.68,349,-188,-2052,422,9,-111,307,553,-246,-430
,15,2023-10-27 12:24:03.69,346,-189,-2048,429,-2,-98,124,610,-486,-367
,16,2023-10-27 12:24:03.70,344,-194,-2036,432,-21,-85,292,565,-273,-428
,17,2023-10-27 12:24:03.71,349,-214,-2035,434,-35,-75,96,609,-513,-352
,18,2023-10-27 12:24:03.72,336,-222,-2036,437,-49,-61,280,566,-286,-423
,19,2023-10-27 12:24:03.73,334,-235,-2023,444,-73,-49,61,599,-538,-330
,20,2023-10-27 12:24:03.74,359,-228,-2010,442,-60,-31,270,568,-298,-419
,21,2023-10-27 12:24:03.75,339,-249,-1993,437,-51,-23,49,592,-543,-320
,22,2023-10-27 12:24:03.76,350,-244,-1999,432,-42,-17,263,579,-316,-421
,23,2023-10-27 12:24:03.77,345,-235,-1998,426,-29,-15,26,586,-560,-306
,24,2023-10-27 12:24:03.78,360,-247,-1993,421,-26,-11,250,582,-332,-416
,25,2023-10-27 12:24:03.79,368,-257,-1987,417,-18,-5,3,579,-576,-291
,26,2023-10-27 12:24:03.80,352,-259,-2015,408,-19,0,244,585,-341,-414
,27,2023-10-27 12:24:03.81,339,-266,-2025,400,-9,4,-7,572,-579,-282
,28,2023-10-27 12:24:03.82,346,-261,-2017,395,-14,8,229,595,-366,-412
,29,2023-10-27 12:24:03.83,350,-270,-2034,388,-23,4,-38,569,-607,-265
,30,2023-10-27 12:24:03.84,327,-274,-2025,377,-24,2,216,600,-384,-408
,31,2023-10-27 12:24:03.85,344,-260,-2053,367,-36,3,-51,563,-614,-256
,32,2023-10-27 12:24:03.86,332,-281,-2046,350,-39,3,224,618,-394,-421
,33,2023-10-27 12:24:03.87,319,-310,-2046,339,-49,-1,-58,557,-615,-249
,34,2023-10-27 12:24:03.88,320,-319,-2059,333,-67,3,206,612,-406,-409
,35,2023-10-27 12:24:03.89,322,-323,-2062,326,-92,9,-77,544,-621,-233
,36,2023-10-27 12:24:03.90,310,-339,-2057,320,-103,14,209,625,-416,-417
,37,2023-10-27 12:24:03.91,312,-320,-2048,309,-115,17,-77,548,-625,-235
,38,2023-10-27 12:24:03.92,324,-348,-2041,298,-121,20,188,612,-424,-400
,39,2023-10-27 12:24:03.93,306,-351,-2031,279,-131,22,-77,542,-619,-232
,40,2023-10-27 12:24:03.94,306,-363,-2013,259,-129,25,210,633,-423,-421
,41,2023-10-27 12:24:03.95,298,-378,-2023,260,-150,34,-76,542,-618,-233
,42,2023-10-27 12:24:03.96,305,-378,-2009,256,-153,42,208,638,-430,-423
,43,2023-10-27 12:24:03.97,273,-381,-2011,241,-165,46,-76,536,-612,-230
,44,2023-10-27 12:24:03.98,278,-405,-2003,224,-167,48,208,647,-439,-427
,45,2023-10-27 12:24:03.99,276,-427,-2009,217,-182,53,-85,530,-615,-222
,46,2023-10-27 12:24:04.00,263,-425,-2014,220,-199,58,206,647,-441,-426
,47,2023-10-27 12:24:04.01,278,-415,-2016,224,-213,65,-86,529,-615,-221
,48,2023-10-27 12:24:04.02,237,-445,-2015,221,-225,70,210,663,-453,-436
,49,2023-10-27 12:24:04.03,272,-449,-2011,218,-225,79,-77,561,-638,-242
,50,2023-10-27 12:24:04.04,258,-453,-2022,214,-228,81,216,695,-479,-455
,51,2023-10-27 12:24:04.05,216,-462,-2022,206,-241,85,-74,528,-602,-227
,52,2023-10-27 12:24:04.06,225,-461,-2010,200,-248,95,224,660,-436,-442
,53,2023-10-27 12:24:04.07,217,-473,-2014,199,-247,101,-66,512,-578,-223
,54,2023-10-27 12:24:04.08,206,-477,-2017,182,-246,104,224,673,-449,-448
,55,2023-10-27 12:24:04.09,227,-461,-2024,168,-255,117,-65,516,-581,-225
,56,2023-10-27 12:24:04.10,203,-478,-2005,149,-258,123,222,676,-454,-449
,57,2023-10-27 12:24:04.11,192,-485,-2000,137,-256,131,-78,500,-578,-211
,58,2023-10-27 12:24:04.12,188,-472,-2010,124,-247,142,196,670,-474,-433
,59,2023-10-27 12:24:04.13,189,-464,-2001,104,-249,150,-101,492,-593,-195
,60,2023-10-27 12:24:04.14,197,-466,-2006,87,-247,157,174,679,-505,-426
,61,2023-10-27 12:24:04.15,179,-483,-1991,69,-225,167,-113,494,-607,-190
,62,2023-10-27 12:24:04.16,179,-491,-1990,59,-218,182,178,680,-502,-429
,63,2023-10-27 12:24:04.17,174,-483,-1995,50,-208,188,-100,488,-588,-194
,64,2023-10-27 12:24:04.18,164,-481,-1981,33,-213,191,193,684,-491,-438
,65,2023-10-27 12:24:04.19,151,-479,-1976,16,-196,197,-82,491,-573,-204
,66,2023-10-27 12:24:04.20,161,-470,-1980,4,-182,206,206,692,-486,-449
,67,2023-10-27 12:24:04.21,148,-466,-1966,-8,-172,210,-64,488,-552,-212
,68,2023-10-27 12:24:04.22,137,-470,-1975,-20,-166,211,217,696,-479,-456
,69,2023-10-27 12:24:04.23,118,-471,-1982,-34,-163,216,-58,481,-539,-211
,70,2023-10-27 12:24:04.24,128,-472,-1985,-47,-161,222,220,702,-482,-461
,71,2023-10-27 12:24:04.25,134,-462,-1990,-56,-153,228,-54,479,-533,-212
,72,2023-10-27 12:24:04.26,134,-452,-1987,-68,-140,231,214,702,-488,-458
,73,2023-10-27 12:24:04.27,112,-442,-1996,-89,-141,224,-44,488,-532,-222
,74,2023-10-27 12:24:04.28,131,-425,-1998,-104,-128,224,222,709,-487,-465
,75,2023-10-27 12:24:04.29,102,-418,-1990,-121,-98,223,-36,480,-516,-222
,76,2023-10-27 12:24:04.30,109,-424,-1987,-137,-92,213,223,700,-477,-461
,77,2023-10-27 12:24:04.31,107,-404,-2001,-157,-83,204,-37,474,-511,-218
,78,2023-10-27 12:24:04.32,107,-396,-2002,-177,-70,199,230,712,-482,-471
,79,2023-10-27 12:24:04.33,110,-393,-2008,-204,-40,175,-24,464,-488,-220
,80,2023-10-27 12:24:04.34,111,-394,-2017,-210,-41,164,246,714,-468,-480
,81,2023-10-27 12:24:04.35,114,-397,-2013,-215,-41,153,-9,470,-479,-230
,82,2023-10-27 12:24:04.36,111,-390,-2026,-211,-28,144,244,716,-472,-480
,83,2023-10-27 12:24:04.37,111,-376,-2022,-210,-12,135,-10,462,-472,-226
,84,2023-10-27 12:24:04.38,111,-363,-2018,-209,0,122,233,715,-482,-474
,85,2023-10-27 12:24:04.39,105,-357,-2015,-209,10,101,-7,467,-474,-230
,86,2023-10-27 12:24:04.40,108,-359,-2022,-206,9,90,234,720,-486,-477
,87,2023-10-27 12:24:04.41,102,-357,-2013,-196,13,83,-7,460,-467,-226
,88,2023-10-27 12:24:04.42,97,-354,-2007,-188,24,74,229,722,-493,-475
,89,2023-10-27 12:24:04.43,115,-352,-2004,-183,23,68,0,458,-458,-229
,90,2023-10-27 12:24:04.44,109,-354,-2004,-176,24,64,231,721,-490,-476
,91,2023-10-27 12:24:04.45,116,-345,-2014,-166,20,56,4,458,-454,-231
,92,2023-10-27 12:24:04.46,112,-342,-2016,-160,14,50,218,728,-510,-473
,93,2023-10-27 12:24:04.47,115,-345,-2025,-151,27,53,3,456,-453,-229
,94,2023-10-27 12:24:04.48,110,-333,-2033,-143,20,46,215,725,-510,-470
,95,2023-10-27 12:24:04.49,122,-328,-2027,-134,17,42,12,453,-441,-232
,96,2023-10-27 12:24:04.50,116,-331,-2037,-128,15,38,216,725,-509,-470
,97,2023-10-27 12:24:04.51,123,-320,-2036,-125,23,40,16,457,-441,-236
,98,2023-10-27 12:24:04.52,123,-328,-2045,-122,13,34,207,730,-523,-468
,99,2023-10-27 12:24:04.53,116,-322,-2052,-120,13,38,16,452,-436,-234
,100,2023-10-27 12:24:04.54,113,-321,-2048,-120,-1,35,209,724,-515,-466
,101,2023-10-27 12:24:04.55,99,-328,-2055,-116,-7,33,32,450,-418,-241
,102,2023-10-27 12:24:04.56,115,-327,-2050,-111,-14,42,216,723,-507,-469
,103,2023-10-27 12:24:04.57,115,-316,-2043,-109,-19,42,37,450,-413,-243
,104,2023-10-27 12:24:04.58,99,-313,-2049,-107,-33,39,214,729,-515,-471
,105,2023-10-27 12:24:04.59,115,-315,-2046,-105,-35,42,49,452,-403,-250
,106,2023-10-27 12:24:04.60,104,-303,-2047,-100,-45,39,219,731,-512,-475
,107,2023-10-27 12:24:04.61,104,-313,-2023,-92,-52,40,60,450,-390,-255
,108,2023-10-27 12:24:04.62,92,-328,-2039,-88,-54,42,221,724,-503,-472
,109,2023-10-27 12:24:04.63,106,-332,-2037,-77,-72,50,65,449,-384,-257
,110,2023-10-27 12:24:04.64,91,-327,-2031,-71,-61,57,220,724,-504,-472
,111,2023-10-27 12:24:04.65,97,-313,-2043,-61,-78,61,70,448,-378,-259
,112,2023-10-27 12:24:04.66,101,-317,-2025,-55,-85,63,210,723,-513,-466
,113,2023-10-27 12:24:04.67,90,-320,-2034,-51,-70,67,78,452,-374,-265
,114,2023-10-27 12:24:04.68,75,-320,-2024,-50,-68,72,234,738,-504,-486
,115,2023-10-27 12:24:04.69,85,-326,-2027,-49,-71,78,91,451,-360,-271
,116,2023-10-27 12:24:04.70,88,-329,-2018,-51,-52,83,223,722,-499,-472
,117,2023-10-27 12:24:04.71,73,-323,-2024,-54,-41,88,88,433,-345,-260
,118,2023-10-27 12:24:04.72,82,-316,-2016,-58,-49,93,223,718,-495,-470
,119,2023-10-27 12:24:04.73,89,-311,-2005,-66,-23,95,112,454,-342,-283
,120,2023-10-27 12:24:04.74,85,-303,-2012,-77,-4,96,226,725,-499,-475
,121,2023-10-27 12:24:04.75,80,-294,-2011,-92,13,97,117,454,-337,-285
,122,2023-10-27 12:24:04.76,80,-298,-2016,-107,25,96,227,716,-489,-471
,123,2023-10-27 12:24:04.77,81,-296,-2016,-122,40,99,134,449,-315,-291
,124,2023-10-27 12:24:04.78,103,-287,-2018,-134,65,101,234,716,-482,-475
,125,2023-10-27 12:24:04.79,90,-291,-2023,-148,78,102,141,457,-316,-299
,126,2023-10-27 12:24:04.80,85,-281,-2024,-163,83,102,223,716,-493,-469
,127,2023-10-27 12:24:04.81,92,-271,-2028,-173,98,102,141,458,-317,-299
,128,2023-10-27 12:24:04.82,100,-267,-2023,-182,106,106,228,709,-481,-468
,129,2023-10-27 12:24:04.83,95,-259,-2014,-195,114,102,160,458,-298,-309
,130,2023-10-27 12:24:04.84,105,-246,-2027,-212,125,99,232,711,-479,-471
,131,2023-10-27 12:24:04.85,88,-250,-2011,-227,133,99,165,461,-296,-313
,132,2023-10-27 12:24:04.86,100,-226,-2033,-237,148,98,221,707,-486,-464
,133,2023-10-27 12:24:04.87,92,-234,-2023,-250,152,90,168,463,-295,-315
,134,2023-10-27 12:24:04.88,100,-221,-2032,-257,157,92,222,701,-479,-461
,135,2023-10-27 12:24:04.89,92,-202,-2032,-268,159,84,178,467,-289,-322
,136,2023-10-27 12:24:04.90,83,-184,-2024,-284,174,80,227,704,-477,-465
,137,2023-10-27 12:24:04.91,88,-186,-2016,-306,180,68,190,467,-277,-328
,138,2023-10-27 12:24:04.92,84,-161,-2029,-330,180,67,234,696,-462,-465
,139,2023-10-27 12:24:04.93,70,-153,-2036,-354,185,67,205,468,-263,-336
,140,2023-10-27 12:24:04.94,70,-129,-2029,-379,183,67,251,696,-445,-473
,141,2023-10-27 12:24:04.95,57,-139,-2033,-404,178,58,228,469,-241,-348
,142,2023-10-27 12:24:04.96,83,-123,-2026,-424,166,51,295,688,-393,-491
,143,2023-10-27 12:24:04.97,105,-124,-2028,-439,167,44,268,472,-204,-370
,144,2023-10-27 12:24:04.98,108,-138,-2021,-455,175,35,333,690,-357,-511
,145,2023-10-27 12:24:04.99,155,-154,-2018,-443,179,27,296,482,-186,-389
,146,2023-10-27 12:24:05.00,157,-160,-2067,-419,212,21,333,685,-352,-509
,147,2023-10-27 12:24:05.01,175,-170,-2047,-391,225,22,298,482,-184,-390
,148,2023-10-27 12:24:05.02,173,-183,-2050,-345,255,19,334,681,-347,-507
,149,2023-10-27 12:24:05.03,195,-159,-2067,-299,268,19,317,490,-173,-403
,150,2023-10-27 12:24:05.04,199,-168,-2068,-257,281,18,329,683,-354,-506
,151,2023-10-27 12:24:05.05,199,-151,-2064,-207,282,25,320,495,-175,-407
,152,2023-10-27 12:24:05.06,207,-135,-2069,-159,282,29,318,674,-356,-496
,153,2023-10-27 12:24:05.07,210,-129,-2071,-120,271,25,331,494,-163,-412
,154,2023-10-27 12:24:05.08,215,-110,-2074,-88,257,28,326,673,-347,-499
,155,2023-10-27 12:24:05.09,229,-91,-2070,-60,245,26,352,519,-167,-435
,156,2023-10-27 12:24:05.10,229,-97,-2062,-27,246,33,314,665,-351,-489
,157,2023-10-27 12:24:05.11,249,-95,-2055,3,231,24,337,504,-167,-420
,158,2023-10-27 12:24:05.12,232,-91,-2053,24,209,16,281,644,-363,-462
,159,2023-10-27 12:24:05.13,259,-87,-2071,41,193,14,340,511,-171,-425
,160,2023-10-27 12:24:05.14,258,-94,-2051,67,183,14,285,657,-372,-471
,161,2023-10-27 12:24:05.15,255,-87,-2044,82,183,5,340,524,-184,-432
,162,2023-10-27 12:24:05.16,271,-105,-2040,93,164,-8,262,650,-388,-456
,163,2023-10-27 12:24:05.17,269,-106,-2066,97,162,-15,344,524,-180,-434
,164,2023-10-27 12:24:05.18,265,-103,-2066,109,150,-19,258,642,-384,-450
,165,2023-10-27 12:24:05.19,269,-104,-2060,116,151,-30,348,532,-184,-440
,166,2023-10-27 12:24:05.20,279,-109,-2068,125,141,-45,239,643,-404,-441
,167,2023-10-27 12:24:05.21,290,-121,-2059,136,131,-53,333,536,-203,-434
,168,2023-10-27 12:24:05.22,279,-106,-2056,147,142,-60,210,635,-425,-422
,169,2023-10-27 12:24:05.23,284,-111,-2065,149,140,-64,331,545,-214,-438
,170,2023-10-27 12:24:05.24,293,-133,-2040,153,123,-72,200,627,-427,-413
,171,2023-10-27 12:24:05.25,290,-127,-2050,165,122,-81,331,547,-216,-439
,172,2023-10-27 12:24:05.26,278,-121,-2070,170,127,-83,184,622,-438,-403
,173,2023-10-27 12:24:05.27,292,-135,-2060,173,115,-84,328,552,-224,-440
,174,2023-10-27 12:24:05.28,288,-144,-2056,181,103,-84,168,619,-451,-393
,175,2023-10-27 12:24:05.29,287,-146,-2054,191,90,-82,324,562,-238,-443
,176,2023-10-27 12:24:05.30,301,-157,-2057,198,71,-82,153,611,-458,-382
,177,2023-10-27 12:24:05.31,296,-150,-2064,198,67,-81,323,564,-241,-443
,178,2023-10-27 12:24:05.32,301,-149,-2059,204,65,-80,135,604,-469,-369
,179,2023-10-27 12:24:05.33,294,-170,-2061,209,60,-86,312,574,-262,-443
,180,2023-10-27 12:24:05.34,289,-176,-2069,218,45,-85,119,604,-485,-361
,181,2023-10-27 12:24:05.35,303,-167,-2062,233,29,-85,306,578,-272,-442
,182,2023-10-27 12:24:05.36,285,-186,-2033,254,21,-87,100,592,-492,-346
,183,2023-10-27 12:24:05.37,288,-184,-2064,262,10,-90,307,581,-274,-444
,184,2023-10-27 12:24:05.38,290,-185,-2054,271,-4,-85,94,590,-496,-342
,185,2023-10-27 12:24:05.39,307,-184,-2038,283,-16,-82,303,589,-286,-446
,186,2023-10-27 12:24:05.40,297,-187,-2033,288,-22,-87,72,587,-515,-329
,187,2023-10-27 12:24:05.41,280,-199,-2037,292,-44,-86,293,598,-305,-445
,188,2023-10-27 12:24:05.42,290,-210,-2034,295,-46,-80,66,575,-509,-320
,189,2023-10-27 12:24:05.43,283,-217,-2043,297,-64,-78,299,599,-300,-449
,190,2023-10-27 12:24:05.44,280,-229,-2029,303,-65,-77,51,578,-527,-314
,191,2023-10-27 12:24:05.45,276,-229,-2038,302,-59,-73,286,613,-327,-449
,192,2023-10-27 12:24:05.46,277,-235,-2035,300,-72,-71,28,571,-543,-299
,193,2023-10-27 12:24:05.47,264,-245,-2040,295,-84,-63,278,614,-336,-446
,194,2023-10-27 12:24:05.48,274,-241,-2045,284,-85,-54,26,563,-537,-294
,195,2023-10-27 12:24:05.49,273,-242,-2033,274,-96,-48,280,622,-342,-451
,196,2023-10-27 12:24:05.50,264,-250,-2018,263,-101,-37,17,571,-554,-294
,197,2023-10-27 12:24:05.51,277,-255,-2023,251,-112,-27,265,626,-361,-445
,198,2023-10-27 12:24:05.52,269,-265,-2025,236,-113,-20,-3,549,-552,-273
,199,2023-10-27 12:24:05.53,270,-268,-2029,224,-112,-10,263,615,-352,-439
,200,2023-10-27 12:24:05.54,269,-283,-2037,216,-125,1,-8,545,-553,-268
,201,2023-10-27 12:24:05.55,278,-281,-2027,205,-129,12,268,632,-364,-450
,202,2023-10-27 12:24:05.56,272,-289,-2024,195,-124,26,-22,529,-551,-253
,203,2023-10-27 12:24:05.57,259,-290,-2021,185,-135,35,266,637,-371,-451
,204,2023-10-27 12:24:05.58,251,-290,-2031,171,-132,48,-20,537,-557,-258
,205,2023-10-27 12:24:05.59,250,-297,-2032,154,-129,56,261,648,-387,-454
,206,2023-10-27 12:24:05.60,262,-299,-2035,143,-138,67,-27,529,-556,-251
,207,2023-10-27 12:24:05.61,234,-300,-2035,126,-129,74,260,651,-391,-455
,208,2023-10-27 12:24:05.62,241,-310,-2038,122,-134,91,-34,522,-556,-244
,209,2023-10-27 12:24:05.63,232,-316,-2032,101,-127,100,255,658,-403,-456
,210,2023-10-27 12:24:05.64,214,-322,-2019,89,-128,110,-40,518,-558,-239
,211,2023-10-27 12:24:05.65,218,-303,-2016,75,-123,117,251,659,-408,-455
,212,2023-10-27 12:24:05.66,237,-312,-2029,61,-120,128,-41,510,-551,-234
,213,2023-10-27 12:24:05.67,215,-301,-2025,45,-122,131,256,664,-408,-460
,214,2023-10-27 12:24:05.68,225,-310,-2017,34,-115,137,-39,508,-547,-234
,215,2023-10-27 12:24:05.69,207,-305,-2021,20,-111,137,254,669,-415,-461
,216,2023-10-27 12:24:05.70,222,-320,-2019,4,-98,143,-35,507,-542,-236
,217,2023-10-27 12:24:05.71,210,-305,-2037,-13,-79,141,252,676,-424,-464
,218,2023-10-27 12:24:05.72,208,-301,-2024,-27,-80,140,-39,496,-535,-228
,219,2023-10-27 12:24:05.73,206,-295,-2017,-34,-70,143,253,681,-428,-467
,220,2023-10-27 12:24:05.74,215,-288,-2019,-46,-69,137,-45,516,-561,-235
,221,2023-10-27 12:24:05.75,197,-289,-2032,-60,-67,136,248,699,-451,-473
,222,2023-10-27 12:24:05.76,200,-280,-2038,-71,-67,131,-36,487,-523,-225
,223,2023-10-27 12:24:05.77,203,-277,-2031,-78,-69,127,259,678,-419,-468
,224,2023-10-27 12:24:05.78,195,-274,-2034,-88,-67,123,-31,483,-514,-226
,225,2023-10-27 12:24:05.79,191,-270,-2042,-99,-72,118,253,685,-432,-469
,226,2023-10-27 12:24:05.80,186,-271,-2044,-105,-74,117,-40,475,-515,-217
,227,2023-10-27 12:24:05.81,178,-272,-2047,-107,-88,114,246,684,-438,-465
,228,2023-10-27 12:24:05.82,180,-273,-2047,-110,-99,112,-35,477,-512,-221
,229,2023-10-27 12:24:05.83,173,-264,-2050,-112,-105,114,245,694,-449,-469
,230,2023-10-27 12:24:05.84,173,-269,-2048,-114,-113,113,-36,477,-513,-220
,231,2023-10-27 12:24:05.85,172,-264,-2066,-109,-124,113,229,696,-467,-462
,232,2023-10-27 12:24:05.86,171,-261,-2059,-108,-135,116,-55,478,-533,-211
,233,2023-10-27 12:24:05.87,168,-259,-2051,-110,-143,112,230,708,-478,-469
,234,2023-10-27 12:24:05.88,156,-257,-2057,-112,-152,112,-31,474,-505,-221
,235,2023-10-27 12:24:05.89,155,-256,-2052,-108,-163,112,249,707,-458,-478
,236,2023-10-27 12:24:05.90,134,-256,-2052,-105,-161,118,-20,470,-490,-225
,237,2023-10-27 12:24:05.91,137,-246,-2056,-109,-170,113,270,723,-453,-496
,238,2023-10-27 12:24:05.92,126,-245,-2054,-108,-178,114,-7,469,-476,-231
,239,2023-10-27 12:24:05.93,135,-241,-2032,-109,-186,114,263,715,-452,-489
,240,2023-10-27 12:24:05.94,133,-259,-2060,-101,-177,115,-5,453,-458,-224
,241,2023-10-27 12:24:05.95,112,-252,-2056,-104,-180,112,271,711,-440,-491
,242,2023-10-27 12:24:05.96,114,-242,-2048,-108,-188,115,14,463,-449,-238
,243,2023-10-27 12:24:05.97,115,-249,-2034,-104,-185,114,267,715,-448,-491
,244,2023-10-27 12:24:05.98,104,-252,-2038,-94,-170,117,15,459,-444,-237
,245,2023-10-27 12:24:05.99,85,-239,-2029,-94,-163,112,273,715,-442,-494
,246,2023-10-27 12:24:06.00,95,-241,-2008,-93,-169,108,28,454,-426,-241
,247,2023-10-27 12:24:06.01,110,-238,-2023,-84,-151,111,281,719,-438,-500
,248,2023-10-27 12:24:06.02,91,-231,-2002,-79,-137,112,35,459,-424,-247
,249,2023-10-27 12:24:06.03,90,-222,-2031,-80,-122,104,282,724,-442,-503
,250,2023-10-27 12:24:06.04,82,-227,-2015,-82,-125,103,41,453,-412,-247
,251,2023-10-27 12:24:06.05,78,-220,-2010,-84,-106,97,286,721,-435,-503
,252,2023-10-27 12:24:06.06,76,-213,-2011,-85,-82,93,53,451,-398,-252
,253,2023-10-27 12:24:06.07,72,-215,-2015,-92,-62,81,286,728,-442,-507
,254,2023-10-27 12:24:06.08,74,-205,-2028,-104,-55,69,54,454,-400,-254
,255,2023-10-27 12:24:06.09,79,-203,-2040,-109,-38,63,278,727,-449,-502
,256,2023-10-27 12:24:06.10,69,-206,-2045,-114,-13,56,48,446,-398,-247
,257,2023-10-27 12:24:06.11,73,-198,-2045,-118,-6,48,269,720,-451,-494
,258,2023-10-27 12:24:06.12,85,-204,-2060,-121,8,46,57,447,-390,-252
,259,2023-10-27 12:24:06.13,73,-195,-2057,-123,9,38,267,723,-456,-495
,260,2023-10-27 12:24:06.14,95,-193,-2046,-108,-9,37,59,446,-387,-252
,261,2023-10-27 12:24:06.15,81,-197,-2047,-95,-8,30,258,724,-466,-491
,262,2023-10-27 12:24:06.16,87,-197,-2044,-85,4,23,56,446,-390,-251
,263,2023-10-27 12:24:06.17,82,-196,-2060,-81,1,22,249,725,-476,-487
,264,2023-10-27 12:24:06.18,84,-199,-2047,-71,1,23,74,458,-384,-266
,265,2023-10-27 12:24:06.19,77,-203,-2047,-55,-2,21,264,735,-471,-499
,266,2023-10-27 12:24:06.20,73,-206,-2046,-40,-13,19,71,445,-374,-258
,267,2023-10-27 12:24:06.21,87,-214,-2051,-23,-8,26,240,718,-478,-479
,268,2023-10-27 12:24:06.22,76,-202,-2042,-8,-6,27,67,441,-374,-254
,269,2023-10-27 12:24:06.23,75,-207,-2045,3,-8,24,240,722,-482,-481
,270,2023-10-27 12:24:06.24,80,-212,-2041,20,-16,28,80,448,-368,-264
,271,2023-10-27 12:24:06.25,65,-214,-2046,33,-11,29,225,723,-498,-474
,272,2023-10-27 12:24:06.26,81,-215,-2044,46,-12,29,69,441,-372,-255
,273,2023-10-27 12:24:06.27,77,-222,-2040,60,-18,31,223,718,-495,-470
,274,2023-10-27 12:24:06.28,71,-221,-2026,72,-16,35,88,444,-356,-266
,275,2023-10-27 12:24:06.29,79,-215,-2036,82,-12,38,220,723,-503,-471
,276,2023-10-27 12:24:06.30,80,-227,-2025,86,-17,38,86,443,-357,-264
,277,2023-10-27 12:24:06.31,79,-228,-2024,92,-14,42,214,716,-502,-465
,278,2023-10-27 12:24:06.32,84,-228,-2030,93,-4,48,100,452,-352,-276
,279,2023-10-27 12:24:06.33,86,-235,-2030,96,7,48,209,719,-510,-464
,280,2023-10-27 12:24:06.34,90,-237,-2036,98,10,46,99,452,-353,-275
,281,2023-10-27 12:24:06.35,89,-234,-2051,99,9,50,202,711,-509,-456
,282,2023-10-27 12:24:06.36,78,-229,-2041,98,15,54,105,448,-343,-276
,283,2023-10-27 12:24:06.37,85,-237,-2031,98,22,55,201,712,-511,-456
,284,2023-10-27 12:24:06.38,99,-228,-2029,96,35,51,111,440,-329,-275
,285,2023-10-27 12:24:06.39,92,-238,-2040,84,38,60,197,717,-520,-457
,286,2023-10-27 12:24:06.40,104,-236,-2036,82,44,64,120,456,-336,-288
,287,2023-10-27 12:24:06.41,95,-231,-2046,78,43,60,190,712,-522,-451
,288,2023-10-27 12:24:06.42,98,-228,-2038,70,47,64,125,451,-326,-288
,289,2023-10-27 12:24:06.43,102,-231,-2049,60,61,64,195,705,-510,-450
,290,2023-10-27 12:24:06.44,92,-235,-2052,56,54,57,136,457,-321,-296
,291,2023-10-27 12:24:06.45,97,-236,-2046,48,50,57,180,704,-524,-442
,292,2023-10-27 12:24:06.46,101,-237,-2046,43,49,61,133,458,-325,-295
,293,2023-10-27 12:24:06.47,90,-239,-2043,31,52,61,181,702,-521,-441
,294,2023-10-27 12:24:06.48,105,-228,-2043,21,49,62,146,466,-320,-306
,295,2023-10-27 12:24:06.49,107,-229,-2047,13,49,69,175,703,-528,-439
,296,2023-10-27 12:24:06.50,97,-221,-2055,3,49,67,151,465,-314,-308
,297,2023-10-27 12:24:06.51,106,-230,-2051,-9,36,64,165,698,-533,-431
,298,2023-10-27 12:24:06.52,99,-231,-2048,-17,38,64,160,470,-310,-315
,299,2023-10-27 12:24:06.53,101,-234,-2057,-21,35,71,161,697,-536,-429
,300,2023-10-27 12:24:06.54,116,-221,-2048,-28,26,69,162,471,-309,-316
,301,2023-10-27 12:24:06.55,115,-229,-2051,-33,19,66,154,689,-535,-421
,302,2023-10-27 12:24:06.56,102,-230,-2055,-36,19,68,168,475,-307,-321
,303,2023-10-27 12:24:06.57,107,-226,-2053,-42,23,69,146,695,-549,-420
,304,2023-10-27 12:24:06.58,99,-228,-2060,-40,16,70,172,482,-310,-327
,305,2023-10-27 12:24:06.59,105,-224,-2045,-41,10,71,142,688,-546,-415
,306,2023-10-27 12:24:06.60,99,-232,-2044,-40,2,67,180,480,-300,-330
,307,2023-10-27 12:24:06.61,97,-224,-2052,-38,0,69,140,680,-540,-410
,308,2023-10-27 12:24:06.62,90,-229,-2054,-40,-5,68,187,484,-297,-335
,309,2023-10-27 12:24:06.63,97,-228,-2048,-39,-15,68,124,678,-554,-401
,310,2023-10-27 12:24:06.64,102,-226,-2043,-35,-2,68,184,488,-304,-336
,311,2023-10-27 12:24:06.65,95,-219,-2020,-32,-3,66,121,668,-547,-394
,312,2023-10-27 12:24:06.66,95,-225,-2020,-33,-1,65,197,489,-292,-343
,313,2023-10-27 12:24:06.67,104,-234,-2026,-32,9,65,116,671,-555,-393
,314,2023-10-27 12:24:06.68,105,-223,-2027,-26,17,65,201,506,-305,-353
,315,2023-10-27 12:24:06.69,112,-223,-2019,-24,21,63,108,665,-557,-386
,316,2023-10-27 12:24:06.70,101,-212,-2027,-24,40,64,200,502,-302,-351
,317,2023-10-27 12:24:06.71,102,-210,-2037,-28,47,62,96,659,-563,-377
,318,2023-10-27 12:24:06.72,111,-206,-2034,-29,53,60,210,513,-303,-361
,319,2023-10-27 12:24:06.73,116,-219,-2041,-28,53,58,104,673,-569,-388
,320,2023-10-27 12:24:06.74,128,-209,-2027,-26,51,61,221,520,-299,-370
,321,2023-10-27 12:24:06.75,132,-205,-2060,-27,58,64,95,650,-555,-372
,322,2023-10-27 12:24:06.76,120,-207,-2060,-30,55,62,227,512,-285,-369
,323,2023-10-27 12:24:06.77,141,-211,-2049,-33,55,65,87,646,-559,-366
,324,2023-10-27 12:24:06.78,133,-199,-2052,-30,44,69,211,533,-322,-372
,325,2023-10-27 12:24:06.79,139,-199,-2051,-31,46,68,64,649,-585,-356
,326,2023-10-27 12:24:06.80,134,-207,-2067,-35,37,69,227,538,-311,-382
,327,2023-10-27 12:24:06.81,133,-202,-2066,-39,34,67,78,629,-551,-353
,328,2023-10-27 12:24:06.82,140,-202,-2059,-34,26,71,238,537,-299,-387
,329,2023-10-27 12:24:06.83,117,-201,-2061,-32,28,77,70,625,-555,-347
,330,2023-10-27 12:24:06.84,140,-208,-2050,-31,24,80,238,541,-303,-389
,331,2023-10-27 12:24:06.85,119,-215,-2052,-28,15,84,63,624,-561,-343
,332,2023-10-27 12:24:06.86,129,-218,-2057,-18,4,93,253,558,-305,-405
,333,2023-10-27 12:24:06.87,124,-214,-2054,-16,3,97,75,621,-546,-348
,334,2023-10-27 12:24:06.88,117,-217,-2057,-17,-9,99,264,560,-296,-412
,335,2023-10-27 12:24:06.89,118,-202,-2068,-15,-14,107,71,611,-540,-341
,336,2023-10-27 12:24:06.90,103,-208,-2055,-15,-14,110,266,565,-299,-415
,337,2023-10-27 12:24:06.91,105,-196,-2062,-14,-19,114,67,608,-541,-337
,338,2023-10-27 12:24:06.92,96,-194,-2051,-20,-19,121,271,573,-302,-422
,339,2023-10-27 12:24:06.93,108,-197,-2036,-27,-33,116,55,605,-550,-330
,340,2023-10-27 12:24:06.94,111,-190,-2030,-32,-26,121,266,576,-310,-421
,341,2023-10-27 12:24:06.95,115,-181,-2046,-35,-25,122,43,590,-547,-316
,342,2023-10-27 12:24:06.96,108,-180,-2035,-44,-21,116,265,577,-312,-421
,343,2023-10-27 12:24:06.97,107,-184,-2046,-47,-29,114,46,593,-547,-319
,344,2023-10-27 12:24:06.98,102,-189,-2053,-48,-22,116,276,590,-314,-433
,345,2023-10-27 12:24:06.99,101,-197,-2060,-45,-27,119,38,580,-542,-309
,346,2023-10-27 12:24:07.00,101,-186,-2069,-45,-28,121,272,588,-316,-430
,347,2023-10-27 12:24:07.01,92,-182,-2063,-50,-35,121,32,577,-545,-304
,348,2023-10-27 12:24:07.02,88,-171,-2056,-55,-32,120,275,600,-325,-437
,349,2023-10-27 12:24:07.03,82,-179,-2033,-55,-33,119,32,576,-544,-304
,350,2023-10-27 12:24:07.04,94,-173,-2036,-52,-32,116,279,603,-324,-441
,351,2023-10-27 12:24:07.05,92,-179,-2042,-52,-30,114,23,561,-538,-292
,352,2023-10-27 12:24:07.06,96,-177,-2055,-57,-17,109,276,604,-328,-440
,353,2023-10-27 12:24:07.07,86,-177,-2043,-62,-10,105,22,563,-541,-292
,354,2023-10-27 12:24:07.08,90,-180,-2045,-50,-12,101,293,628,-335,-460
,355,2023-10-27 12:24:07.09,82,-176,-2055,-47,-6,102,38,558,-520,-298
,356,2023-10-27 12:24:07.10,87,-187,-2065,-42,-15,101,299,614,-315,-456
,357,2023-10-27 12:24:07.11,80,-183,-2080,-31,-21,100,9,542,-533,-275
,358,2023-10-27 12:24:07.12,94,-177,-2047,-26,-33,96,272,623,-351,-447
,359,2023-10-27 12:24:07.13,78,-174,-2050,-16,-25,97,-8,541,-549,-266
,360,2023-10-27 12:24:07.14,76,-185,-2045,-13,-26,92,271,636,-365,-453
,361,2023-10-27 12:24:07.15,79,-187,-2055,-10,-36,89,-3,534,-537,-265
,362,2023-10-27 12:24:07.16,81,-178,-2050,-1,-40,91,284,636,-352,-460
,363,2023-10-27 12:24:07.17,73,-184,-2045,2,-31,93,6,526,-520,-266
,364,2023-10-27 12:24:07.18,70,-187,-2035,8,-31,87,284,640,-356,-462
,365,2023-10-27 12:24:07.19,76,-185,-2026,9,-40,82,-4,524,-528,-260
,366,2023-10-27 12:24:07.20,79,-198,-2037,20,-31,85,279,640,-361,-459
,367,2023-10-27 12:24:07.21,82,-199,-2049,33,-32,84,-5,526,-531,-260
,368,2023-10-27 12:24:07.22,75,-202,-2050,39,-29,80,279,652,-373,-465
,369,2023-10-27 12:24:07.23,80,-191,-2051,43,-24,79,-16,514,-530,-249
,370,2023-10-27 12:24:07.24,85,-198,-2048,47,-6,78,276,652,-376,-464
,371,2023-10-27 12:24:07.25,75,-195,-2042,49,-1,70,-15,507,-522,-246
,372,2023-10-27 12:24:07.26,78,-187,-2029,48,0,69,277,661,-384,-469
,373,2023-10-27 12:24:07.27,73,-186,-2029,42,10,68,-14,509,-523,-247
,374,2023-10-27 12:24:07.28,76,-193,-2030,39,18,72,280,669,-389,-474
,375,2023-10-27 12:24:07.29,79,-191,-2035,32,21,73,-12,499,-511,-243
,376,2023-10-27 12:24:07.30,73,-206,-2016,26,21,71,282,667,-385,-474
,377,2023-10-27 12:24:07.31,93,-190,-2038,21,22,67,-8,498,-506,-245
,378,2023-10-27 12:24:07.32,74,-199,-2055,10,39,71,289,674,-385,-481
,379,2023-10-27 12:24:07.33,83,-197,-2044,3,45,68,-3,494,-497,-245
,380,2023-10-27 12:24:07.34,96,-206,-2062,2,37,68,287,676,-389,-481
,381,2023-10-27 12:24:07.35,93,-194,-2056,3,34,72,-8,494,-502,-243
,382,2023-10-27 12:24:07.36,89,-202,-2041,0,40,73,280,682,-402,-481
,383,2023-10-27 12:24:07.37,89,-203,-2054,5,38,73,-14,483,-497,-234
,384,2023-10-27 12:24:07.38,93,-201,-2055,0,27,71,277,676,-399,-476
,385,2023-10-27 12:24:07.39,104,-192,-2038,5,17,76,-12,474,-486,-231
,386,2023-10-27 12:24:07.40,93,-184,-2060,1,31,78,276,682,-406,-479
,387,2023-10-27 12:24:07.41,110,-181,-2066,-5,9,74,-17,478,-495,-230
,388,2023-10-27 12:24:07.42,94,-186,-2062,-17,11,75,271,691,-420,-481
,389,2023-10-27 12:24:07.43,105,-180,-2056,-15,14,78,-18,469,-487,-225
,390,2023-10-27 12:24:07.44,98,-192,-2062,-17,5,75,272,687,-415,-479
,391,2023-10-27 12:24:07.45,94,-181,-2065,-21,-2,76,-12,470,-482,-229
,392,2023-10-27 12:24:07.46,76,-178,-2079,-29,-19,76,271,697,-426,-484
,393,2023-10-27 12:24:07.47,89,-179,-2058,-38,-16,75,-15,462,-477,-223
,394,2023-10-27 12:24:07.48,96,-186,-2066,-38,-21,78,272,697,-425,-484
,395,2023-10-27 12:24:07.49,84,-176,-2076,-36,-43,80,-2,469,-471,-233
,396,2023-10-27 12:24:07.50,91,-171,-2063,-41,-44,85,276,709,-433,-492
,397,2023-10-27 12:24:07.51,83,-175,-2057,-49,-42,82,0,464,-464,-232
,398,2023-10-27 12:24:07.52,79,-168,-2062,-54,-49,79,269,706,-437,-487
,399,2023-10-27 12:24:07.53,77,-170,-2060,-58,-45,88,4,460,-456,-232
,400,2023-10-27 12:24:07.54,81,-171,-2058,-63,-47,89,275,715,-440,-495
,401,2023-10-27 12:24:07.55,77,-177,-2065,-61,-53,91,12,466,-454,-239
,402,2023-10-27 12:24:07.56,67,-179,-2059,-57,-60,98,265,710,-445,-487
,403,2023-10-27 12:24:07.57,64,-173,-2050,-51,-52,107,-1,450,-451,-224
,404,2023-10-27 12:24:07.58,65,-169,-2044,-56,-54,109,270,714,-444,-492
,405,2023-10-27 12:24:07.59,72,-160,-2040,-57,-52,112,12,455,-443,-233
,406,2023-10-27 12:24:07.60,77,-165,-2036,-58,-45,121,259,715,-456,-487
,407,2023-10-27 12:24:07.61,63,-162,-2041,-55,-42,121,2,439,-437,-220
,408,2023-10-27 12:24:07.62,65,-159,-2042,-55,-38,120,257,714,-457,-485
,409,2023-10-27 12:24:07.63,58,-165,-2042,-50,-36,128,25,456,-431,-240
,410,2023-10-27 12:24:07.64,64,-174,-2040,-41,-30,130,262,723,-461,-492
,411,2023-10-27 12:24:07.65,53,-166,-2042,-34,-24,137,23,449,-426,-236
,412,2023-10-27 12:24:07.66,66,-166,-2036,-36,-25,139,248,716,-468,-482
,413,2023-10-27 12:24:07.67,60,-152,-2051,-34,-18,148,25,442,-417,-233
,414,2023-10-27 12:24:07.68,60,-155,-2046,-30,-12,143,253,719,-466,-486
,415,2023-10-27 12:24:07.69,59,-159,-2050,-30,-13,144,28,448,-420,-238
,416,2023-10-27 12:24:07.70,66,-151,-2052,-29,-7,144,241,720,-479,-480
,417,2023-10-27 12:24:07.71,54,-155,-2043,-32,-12,144,29,440,-411,-234
,418,2023-10-27 12:24:07.72,64,-156,-2046,-26,-11,142,235,719,-484,-477
,419,2023-10-27 12:24:07.73,63,-148,-2048,-21,-13,148,32,445,-413,-238
,420,2023-10-27 12:24:07.74,62,-148,-2055,-19,-13,145,230,724,-494,-477
,421,2023-10-27 12:24:07.75,74,-137,-2088,-25,-24,143,37,442,-405,-239
,422,2023-10-27 12:24:07.76,55,-148,-2058,-28,-22,143,228,720,-492,-474
,423,2023-10-27 12:24:07.77,48,-151,-2075,-21,-28,137,41,446,-405,-243
,424,2023-10-27 12:24:07.78,44,-149,-2077,-16,-39,139,229,729,-500,-479
,425,2023-10-27 12:24:07.79,40,-160,-2065,-16,-52,140,52,442,-390,-247
,426,2023-10-27 12:24:07.80,50,-152,-2067,-6,-56,143,220,722,-502,-471
,427,2023-10-27 12:24:07.81,47,-149,-2060,0,-61,145,52,442,-390,-247
,428,2023-10-27 12:24:07.82,46,-152,-2046,-1,-64,142,214,723,-509,-468
,429,2023-10-27 12:24:07.83,44,-155,-2042,2,-64,139,54,441,-387,-247
,430,2023-10-27 12:24:07.84,51,-150,-2038,8,-66,137,208,723,-515,-465
,431,2023-10-27 12:24:07.85,28,-162,-2034,14,-64,134,60,444,-384,-252
,432,2023-10-27 12:24:07.86,40,-156,-2023,16,-63,127,203,722,-519,-462
,433,2023-10-27 12:24:07.87,36,-158,-2031,22,-64,125,66,443,-377,-254
,434,2023-10-27 12:24:07.88,45,-152,-2023,25,-55,120,204,726,-522,-465
,435,2023-10-27 12:24:07.89,29,-157,-2032,24,-49,119,77,448,-371,-262
,436,2023-10-27 12:24:07.90,35,-162,-2038,21,-44,117,196,723,-527,-459
,437,2023-10-27 12:24:07.91,36,-159,-2047,17,-54,115,72,442,-370,-257
,438,2023-10-27 12:24:07.92,40,-141,-2049,12,-54,113,182,717,-535,-449
,439,2023-10-27 12:24:07.93,32,-139,-2056,6,-49,113,84,445,-361,-264
,440,2023-10-27 12:24:07.94,29,-147,-2073,3,-37,108,184,717,-533,-450
,441,2023-10-27 12:24:07.95,41,-133,-2066,-9,-43,99,88,441,-353,-264
,442,2023-10-27 12:24:07.96,36,-132,-2072,-19,-36,95,176,720,-544,-448
,443,2023-10-27 12:24:07.97,30,-125,-2068,-31,-33,95,93,446,-353,-269
,444,2023-10-27 12:24:07.98,26,-133,-2064,-46,-28,93,172,718,-546,-445
,445,2023-10-27 12:24:07.99,16,-132,-2061,-50,-30,93,110,453,-343,-281
,446,2023-10-27 12:24:08.00,21,-149,-2055,-55,-27,89,175,711,-536,-443
,447,2023-10-27 12:24:08.01,15,-140,-2051,-57,-29,90,114,451,-337,-282
,448,2023-10-27 12:24:08.02,21,-131,-2064,-60,-25,94,160,704,-544,-432
,449,2023-10-27 12:24:08.03,16,-119,-2042,-56,-27,91,117,456,-339,-286
,450,2023-10-27 12:24:08.04,27,-132,-2064,-55,-40,88,156,707,-551,-431
,451,2023-10-27 12:24:08.05,30,-116,-2034,-50,-41,83,120,457,-337,-288
,452,2023-10-27 12:24:08.06,12,-119,-2043,-44,-31,86,144,700,-556,-422
,453,2023-10-27 12:24:08.07,17,-109,-2045,-45,-39,77,130,458,-328,-294
,454,2023-10-27 12:24:08.08,28,-113,-2035,-45,-44,79,148,704,-556,-426
,455,2023-10-27 12:24:08.09,25,-118,-2039,-40,-41,81,136,464,-328,-300
,456,2023-10-27 12:24:08.10,15,-126,-2048,-37,-32,84,135,702,-567,-418
,457,2023-10-27 12:24:08.11,10,-121,-2048,-35,-37,84,145,469,-324,-307
,458,2023-10-27 12:24:08.12,17,-125,-2051,-26,-40,93,136,697,-561,-416
,459,2023-10-27 12:24:08.13,6,-121,-2053,-23,-34,98,152,473,-321,-312
,460,2023-10-27 12:24:08.14,10,-122,-2065,-22,-33,95,120,695,-575,-407
,461,2023-10-27 12:24:08.15,-5,-112,-2070,-16,-40,95,146,476,-330,-311
,462,2023-10-27 12:24:08.16,0,-113,-2062,-12,-34,105,112,690,-578,-401
,463,2023-10-27 12:24:08.17,5,-108,-2058,-11,-37,101,152,482,-330,-317
,464,2023-10-27 12:24:08.18,-12,-108,-2061,-15,-43,99,104,690,-586,-397
,465,2023-10-27 12:24:08.19,-15,-103,-2075,-17,-45,101,157,484,-327,-320
,466,2023-10-27 12:24:08.20,-7,-101,-2057,-19,-46,102,96,680,-584,-388
,467,2023-10-27 12:24:08.21,-2,-108,-2052,-20,-38,98,164,483,-319,-323
,468,2023-10-27 12:24:08.22,-7,-113,-2051,-21,-49,96,85,677,-592,-381
,469,2023-10-27 12:24:08.23,-8,-117,-2047,-14,-41,100,163,490,-327,-326
,470,2023-10-27 12:24:08.24,-7,-131,-2037,-7,-33,108,73,672,-599,-372
,471,2023-10-27 12:24:08.25,-1,-135,-2037,4,-27,111,169,494,-325,-331
,472,2023-10-27 12:24:08.26,-18,-138,-2046,14,-30,112,68,664,-596,-366
,473,2023-10-27 12:24:08.27,-14,-140,-2035,27,-35,116,174,500,-326,-337
,474,2023-10-27 12:24:08.28,-11,-141,-2046,37,-26,124,60,666,-606,-363
,475,2023-10-27 12:24:08.29,-12,-143,-2040,47,-22,124,173,506,-333,-339
,476,2023-10-27 12:24:08.30,-11,-142,-2040,51,-13,130,43,656,-613,-349
,477,2023-10-27 12:24:08.31,-15,-137,-2049,54,-10,127,174,503,-329,-338
,478,2023-10-27 12:24:08.32,-23,-140,-2042,54,-8,125,52,646,-594,-349
,479,2023-10-27 12:24:08.33,-21,-141,-2048,54,-9,129,190,512,-322,-351
,480,2023-10-27 12:24:08.34,-25,-139,-2045,54,8,133,45,652,-607,-348
,481,2023-10-27 12:24:08.35,-20,-141,-2046,52,9,129,192,522,-330,-357
,482,2023-10-27 12:24:08.36,-14,-137,-2042,51,9,124,36,639,-603,-337
,483,2023-10-27 12:24:08.37,-9,-133,-2044,46,3,114,198,528,-330,-363
,484,2023-10-27 12:24:08.38,-1,-127,-2044,43,4,108,25,636,-611,-330
,485,2023-10-27 12:24:08.39,-12,-118,-2050,36,15,100,196,529,-333,-362
,486,2023-10-27 12:24:08.40,-6,-120,-2040,27,17,90,29,629,-600,-329
,487,2023-10-27 12:24:08.41,-24,-130,-2043,20,16,76,203,533,-330,-368
,488,2023-10-27 12:24:08.42,-1,-123,-2053,13,16,63,12,624,-612,-318
,489,2023-10-27 12:24:08.43,-9,-124,-2051,5,19,55,194,534,-340,-364
,490,2023-10-27 12:24:08.44,-12,-121,-2052,-1,23,47,7,624,-617,-315
,491,2023-10-27 12:24:08.45,-4,-118,-2046,-9,4,18,208,548,-340,-378
,492,2023-10-27 12:24:08.46,-4,-118,-2046,-9,4,18,0,596,-596,-298
,493,2023-10-27 12:24:08.47,2,-123,-2049,-16,5,-10,218,548,-330,-383
,494,2023-10-27 12:24:08.48,0,-120,-2057,-16,-6,-24,1,607,-606,-304
,495,2023-10-27 12:24:08.49,-19,-124,-2046,-13,4,-31,211,558,-347,-384
,496,2023-10-27 12:24:08.50,-24,-122,-2049,-13,3,-47,-10,596,-606,-293
,497,2023-10-27 12:24:08.51,-11,-124,-2036,-15,-3,-56,223,561,-338,-392
,498,2023-10-27 12:24:08.52,-14,-122,-2042,-16,6,-69,-6,592,-598,-293
,499,2023-10-27 12:24:08.53,-5,-120,-2038,-19,14,-82,220,568,-348,-394
,500,2023-10-27 12:24:08.54,-10,-120,-2045,-23,13,-87,-11,587,-598,-288
,501,2023-10-27 12:24:08.55,-4,-110,-2027,-25,20,-98,231,581,-350,-406
,502,2023-10-27 12:24:08.56,-3,-127,-2044,-29,21,-106,-5,586,-591,-290
,503,2023-10-27 12:24:08.57,-1,-127,-2055,-28,21,-111,244,586,-342,-415
,504,2023-10-27 12:24:08.58,-4,-127,-2069,-24,17,-115,2,578,-576,-290
,505,2023-10-27 12:24:08.59,-10,-130,-2068,-19,12,-116,244,593,-349,-418
,506,2023-10-27 12:24:08.60,-2,-122,-2063,-15,9,-118,-10,577,-587,-283
,507,2023-10-27 12:24:08.61,-5,-127,-2074,-11,10,-123,245,598,-353,-421
,508,2023-10-27 12:24:08.62,2,-113,-2072,-11,1,-131,-14,568,-582,-277
,509,2023-10-27 12:24:08.63,-2,-109,-2053,-11,4,-131,253,605,-352,-429
,510,2023-10-27 12:24:08.64,-8,-108,-2056,-14,7,-134,-8,566,-574,-279
,511,2023-10-27 12:24:08.65,-10,-111,-2061,-22,6,-136,255,611,-356,-433
,512,2023-10-27 12:24:08.66,-4,-115,-2064,-28,2,-133,-14,557,-571,-271
,513,2023-10-27 12:24:08.67,-4,-103,-2060,-32,10,-131,255,614,-359,-434
,514,2023-10-27 12:24:08.68,-12,-106,-2047,-38,11,-129,-13,554,-567,-270
,515,2023-10-27 12:24:08.69,-7,-109,-2056,-46,15,-125,266,623,-357,-444
,516,2023-10-27 12:24:08.70,-2,-104,-2051,-52,19,-119,-12,546,-558,-267
,517,2023-10-27 12:24:08.71,-7,-113,-2048,-46,10,-109,269,626,-357,-447
,518,2023-10-27 12:24:08.72,-10,-107,-2044,-46,18,-105,-12,541,-553,-264
,519,2023-10-27 12:24:08.73,2,-120,-2050,-40,16,-98,273,632,-359,-452
,520,2023-10-27 12:24:08.74,-12,-114,-2049,-30,21,-89,-15,538,-553,-261
,521,2023-10-27 12:24:08.75,-1,-114,-2048,-22,24,-84,269,639,-370,-454
,522,2023-10-27 12:24:08.76,5,-119,-2050,-15,24,-80,-20,526,-546,-253
,523,2023-10-27 12:24:08.77,5,-107,-2061,-10,28,-72,272,640,-368,-456
,524,2023-10-27 12:24:08.78,-2,-111,-2046,-9,32,-70,-13,526,-539,-256
,525,2023-10-27 12:24:08.79,-3,-107,-2053,-1,23,-64,271,645,-374,-458
,526,2023-10-27 12:24:08.80,0,-105,-2049,-3,34,-59,-17,516,-533,-249
,527,2023-10-27 12:24:08.81,4,-103,-2037,-4,33,-60,287,653,-366,-470
,528,2023-10-27 12:24:08.82,4,-103,-2039,-6,37,-57,-4,514,-518,-255
,529,2023-10-27 12:24:08.83,20,-106,-2028,-11,48,-57,292,662,-370,-477
,530,2023-10-27 12:24:08.84,21,-107,-2043,-12,58,-54,-15,508,-523,-246
,531,2023-10-27 12:24:08.85,22,-106,-2055,-16,63,-58,277,664,-387,-470
,532,2023-10-27 12:24:08.86,24,-103,-2056,-16,60,-55,-19,501,-520,-241
,533,2023-10-27 12:24:08.87,41,-93,-2056,-17,65,-58,281,663,-382,-472
,534,2023-10-27 12:24:08.88,39,-90,-2055,-14,72,-61,-7,500,-507,-246
,535,2023-10-27 12:24:08.89,37,-97,-2065,-19,75,-64,288,674,-386,-481
,536,2023-10-27 12:24:08.90,46,-92,-2069,-19,75,-64,-7,508,-515,-250
,537,2023-10-27 12:24:08.91,30,-95,-2065,-16,70,-63,286,682,-396,-484
,538,2023-10-27 12:24:08.92,36,-103,-2072,-16,59,-64,-15,491,-506,-238
,539,2023-10-27 12:24:08.93,40,-89,-2065,-13,51,-61,283,675,-392,-479
,540,2023-10-27 12:24:08.94,33,-101,-2062,-10,38,-55,-7,489,-496,-241
,541,2023-10-27 12:24:08.95,35,-99,-2061,-4,37,-53,284,683,-399,-483
,542,2023-10-27 12:24:08.96,39,-110,-2054,0,23,-55,-12,484,-496,-236
,543,2023-10-27 12:24:08.97,46,-102,-2060,5,20,-48,281,683,-402,-482
,544,2023-10-27 12:24:08.98,26,-114,-2060,10,19,-46,-9,484,-493,-237
,545,2023-10-27 12:24:08.99,40,-109,-2064,18,16,-41,281,695,-414,-488
,546,2023-10-27 12:24:09.00,30,-117,-2043,28,16,-42,-11,476,-487,-232
,547,2023-10-27 12:24:09.01,36,-112,-2045,37,14,-43,274,690,-416,-482
,548,2023-10-27 12:24:09.02,36,-114,-2059,44,11,-42,-7,471,-478,-232
,549,2023-10-27 12:24:09.03,34,-111,-2056,43,26,-34,280,697,-417,-488
,550,2023-10-27 12:24:09.04,33,-115,-2052,43,21,-39,-10,469,-479,-229
,551,2023-10-27 12:24:09.05,38,-116,-2034,45,16,-39,274,695,-421,-484
,552,2023-10-27 12:24:09.06,26,-117,-2062,45,26,-34,-10,459,-469,-224
,553,2023-10-27 12:24:09.07,22,-119,-2062,42,24,-35,269,698,-429,-483
,554,2023-10-27 12:24:09.08,39,-126,-2056,38,13,-39,-9,468,-477,-229
,555,2023-10-27 12:24:09.09,27,-120,-2057,38,25,-34,274,710,-436,-492
,556,2023-10-27 12:24:09.10,41,-116,-2050,35,27,-35,0,455,-455,-227
,557,2023-10-27 12:24:09.11,36,-113,-2057,27,11,-43,275,699,-424,-487
,558,2023-10-27 12:24:09.12,34,-109,-2052,22,8,-44,4,452,-448,-228
,559,2023-10-27 12:24:09.13,37,-116,-2061,18,16,-43,269,709,-440,-489
,560,2023-10-27 12:24:09.14,31,-119,-2065,13,6,-50,4,449,-445,-226
,561,2023-10-27 12:24:09.15,23,-110,-2059,10,-2,-46,270,707,-437,-488
,562,2023-10-27 12:24:09.16,36,-112,-2058,6,3,-47,16,448,-432,-232
,563,2023-10-27 12:24:09.17,27,-111,-2060,0,-5,-50,274,714,-440,-494
,564,2023-10-27 12:24:09.18,15,-112,-2043,-2,-6,-50,18,447,-429,-232
,565,2023-10-27 12:24:09.19,41,-115,-2069,-3,-2,-47,268,715,-447,-491
,566,2023-10-27 12:24:09.20,30,-116,-2056,-8,-5,-49,23,442,-419,-232
,567,2023-10-27 12:24:09.21,41,-116,-2055,-10,-8,-49,270,715,-445,-492
,568,2023-10-27 12:24:09.22,37,-119,-2044,-7,-8,-46,33,455,-422,-244
,569,2023-10-27 12:24:09.23,30,-132,-2059,0,2,-39,270,720,-450,-495
,570,2023-10-27 12:24:09.24,27,-109,-2057,-1,-6,-37,28,437,-409,-232
,571,2023-10-27 12:24:09.25,28,-119,-2040,-7,-6,-32,252,701,-449,-476
,572,2023-10-27 12:24:09.26,13,-128,-2052,-8,-1,-25,30,438,-408,-234
,573,2023-10-27 12:24:09.27,31,-119,-2053,-7,2,-18,252,716,-464,-484
,574,2023-10-27 12:24:09.28,30,-115,-2058,-3,-3,-12,34,441,-407,-237
,575,2023-10-27 12:24:09.29,23,-112,-2051,0,-10,-10,254,714,-460,-484
,576,2023-10-27 12:24:09.30,25,-107,-2050,-3,11,-2,44,436,-392,-240
,577,2023-10-27 12:24:09.31,14,-109,-2027,-4,17,-1,251,715,-464,-483
,578,2023-10-27 12:24:09.32,28,-101,-2056,-1,17,0,42,439,-397,-240
,579,2023-10-27 12:24:09.33,25,-105,-2048,-4,16,3,245,718,-473,-481
,580,2023-10-27 12:24:09.34,30,-107,-2027,-7,22,5,48,433,-385,-240
,581,2023-10-27 12:24:09.35,35,-98,-2035,-13,42,6,247,711,-464,-479
,582,2023-10-27 12:24:09.36,41,-103,-2043,-17,45,-2,57,433,-376,-245
,583,2023-10-27 12:24:09.37,41,-90,-2048,-24,44,1,244,717,-473,-480
,584,2023-10-27 12:24:09.38,51,-88,-2046,-30,46,-4,66,433,-367,-249
,585,2023-10-27 12:24:09.39,56,-81,-2042,-31,62,-3,234,713,-479,-473
,586,2023-10-27 12:24:09.40,65,-80,-2052,-37,59,-13,62,432,-370,-247
,587,2023-10-27 12:24:09.41,53,-79,-2059,-39,53,-15,232,714,-482,-473
,588,2023-10-27 12:24:09.42,51,-80,-2065,-38,48,-15,69,430,-361,-249
,589,2023-10-27 12:24:09.43,64,-77,-2069,-35,41,-19,228,714,-486,-471
,590,2023-10-27 12:24:09.44,70,-82,-2065,-35,29,-21,80,435,-355,-257
,591,2023-10-27 12:24:09.45,61,-84,-2078,-29,19,-15,229,714,-485,-471
,592,2023-10-27 12:24:09.46,45,-87,-2071,-27,10,-14,85,435,-350,-260
,593,2023-10-27 12:24:09.47,55,-92,-2068,-23,6,-9,217,717,-500,-467
,594,2023-10-27 12:24:09.48,47,-85,-2070,-21,-1,-6,86,437,-351,-261
,595,2023-10-27 12:24:09.49,71,-84,-2066,-16,-10,-1,207,708,-501,-457
,596,2023-10-27 12:24:09.50,39,-96,-2065,-13,-12,3,92,434,-342,-263
,597,2023-10-27 12:24:09.51,61,-87,-2056,-7,-15,9,207,713,-506,-460
,598,2023-10-27 12:24:09.52,43,-86,-2057,-5,-12,15,98,441,-343,-269
,599,2023-10-27 12:24:09.53,54,-83,-2053,-4,-19,18,200,709,-509,-454
,600,2023-10-27 12:24:09.54,45,-88,-2049,2,-10,27,105,437,-332,-271
,601,2023-10-27 12:24:09.55,55,-92,-2052,10,-8,32,205,705,-500,-455
,602,2023-10-27 12:24:09.56,54,-90,-2045,16,-17,32,122,447,-325,-284
,603,2023-10-27 12:24:09.57,43,-93,-2045,22,-10,34,203,713,-510,-458
,604,2023-10-27 12:24:09.58,50,-101,-2047,22,-13,32,125,446,-321,-285
,605,2023-10-27 12:24:09.59,58,-94,-2056,27,-1,40,189,704,-515,-446
,606,2023-10-27 12:24:09.60,47,-91,-2059,30,-2,39,122,448,-326,-285
,607,2023-10-27 12:24:09.61,48,-97,-2053,30,0,39,180,703,-523,-441
,608,2023-10-27 12:24:09.62,29,-91,-2056,32,-1,37,130,451,-321,-290
,609,2023-10-27 12:24:09.63,40,-87,-2055,33,0,41,181,703,-522,-442
,610,2023-10-27 12:24:09.64,33,-89,-2054,30,6,37,141,453,-312,-297
,611,2023-10-27 12:24:09.65,28,-88,-2052,30,2,33,170,700,-530,-435
,612,2023-10-27 12:24:09.66,28,-87,-2054,27,1,32,138,459,-321,-298
,613,2023-10-27 12:24:09.67,43,-85,-2050,22,5,26,162,695,-533,-428
,614,2023-10-27 12:24:09.68,43,-85,-2047,20,9,22,149,455,-306,-302
,615,2023-10-27 12:24:09.69,48,-90,-2053,17,14,17,163,688,-525,-425
,616,2023-10-27 12:24:09.70,45,-92,-2050,15,14,10,163,462,-299,-312
,617,2023-10-27 12:24:09.71,43,-93,-2055,11,10,3,158,690,-532,-424
,618,2023-10-27 12:24:09.72,49,-93,-2055,8,17,3,161,468,-307,-314
,619,2023-10-27 12:24:09.73,45,-95,-2058,4,19,0,145,685,-540,-415
,620,2023-10-27 12:24:09.74,40,-92,-2065,0,18,-1,174,468,-294,-321
,621,2023-10-27 12:24:09.75,43,-96,-2058,-5,19,2,144,675,-531,-409
,622,2023-10-27 12:24:09.76,44,-85,-2056,-10,15,0,175,473,-298,-324
,623,2023-10-27 12:24:09.77,48,-80,-2064,-14,13,3,141,677,-536,-409
,624,2023-10-27 12:24:09.78,42,-90,-2059,-19,7,1,188,480,-292,-334
,625,2023-10-27 12:24:09.79,37,-93,-2062,-18,2,0,137,674,-537,-405
,626,2023-10-27 12:24:09.80,48,-92,-2059,-14,10,5,196,488,-292,-342
,627,2023-10-27 12:24:09.81,40,-94,-2059,-16,-3,-2,138,673,-535,-405
,628,2023-10-27 12:24:09.82,47,-90,-2056,-12,-5,6,201,486,-285,-343
,629,2023-10-27 12:24:09.83,42,-95,-2060,-6,-1,9,121,660,-539,-390
,630,2023-10-27 12:24:09.84,43,-91,-2060,-1,-7,13,197,487,-290,-342
,631,2023-10-27 12:24:09.85,43,-87,-2061,-1,-6,18,116,662,-546,-389
,632,2023-10-27 12:24:09.86,45,-93,-2064,-1,-10,21,204,499,-295,-351
,633,2023-10-27 12:24:09.87,52,-92,-2060,3,-9,29,103,657,-554,-380
,634,2023-10-27 12:24:09.88,41,-85,-2063,6,-7,31,202,498,-296,-350
,635,2023-10-27 12:24:09.89,46,-92,-2058,3,-14,33,98,648,-550,-373
,636,2023-10-27 12:24:09.90,48,-85,-2057,7,-10,44,213,507,-294,-360
,637,2023-10-27 12:24:09.91,43,-87,-2054,11,-6,42,94,646,-552,-370
,638,2023-10-27 12:24:09.92,36,-86,-2045,13,-12,45,229,516,-287,-372
,639,2023-10-27 12:24:09.93,36,-104,-2054,21,-5,48,104,641,-537,-372
,640,2023-10-27 12:24:09.94,36,-101,-2051,28,-11,52,240,525,-285,-382
,641,2023-10-27 12:24:09.95,50,-98,-2052,39,-9,51,96,634,-538,-365
,642,2023-10-27 12:24:09.96,62,-102,-2042,44,2,55,238,524,-286,-381
,643,2023-10-27 12:24:09.97,37,-95,-2036,48,3,53,90,627,-537,-358
,644,2023-10-27 12:24:09.98,45,-102,-2050,55,5,55,253,538,-285,-395
,645,2023-10-27 12:24:09.99,42,-110,-2061,61,0,52,83,624,-541,-353
,646,2023-10-27 12:24:10.00,41,-104,-2051,64,-6,52,246,538,-292,-392
,647,2023-10-27 12:24:10.01,47,-98,-2060,68,1,52,69,614,-545,-341
,648,2023-10-27 12:24:10.02,45,-95,-2057,63,1,44,252,550,-298,-401
,649,2023-10-27 12:24:10.03,41,-103,-2060,62,-1,42,73,616,-543,-344
,650,2023-10-27 12:24:10.04,42,-106,-2060,63,0,42,261,557,-296,-409
,651,2023-10-27 12:24:10.05,37,-105,-2050,61,2,37,72,605,-533,-338
,652,2023-10-27 12:24:10.06,63,-105,-2049,59,-7,36,271,557,-286,-414
,653,2023-10-27 12:24:10.07,36,-110,-2050,55,-8,35,68,599,-531,-333
,654,2023-10-27 12:24:10.08,48,-106,-2057,49,-3,34,269,565,-296,-417
,655,2023-10-27 12:24:10.09,36,-104,-2056,40,-11,28,65,598,-533,-331
,656,2023-10-27 12:24:10.10,47,-106,-2054,34,-13,19,280,573,-293,-426
,657,2023-10-27 12:24:10.11,39,-112,-2058,30,-2,18,59,591,-532,-325
,658,2023-10-27 12:24:10.12,49,-113,-2062,27,-7,10,277,576,-299,-426
,659,2023-10-27 12:24:10.13,44,-111,-2059,21,-12,5,52,582,-530,-317
,660,2023-10-27 12:24:10.14,32,-111,-2056,25,-14,10,279,583,-304,-431
,661,2023-10-27 12:24:10.15,48,-117,-2052,21,-10,9,58,580,-522,-319
,662,2023-10-27 12:24:10.16,44,-114,-2056,18,-17,9,294,596,-302,-445
,663,2023-10-27 12:24:10.17,38,-112,-2050,17,-18,13,53,578,-525,-315
,664,2023-10-27 12:24:10.18,39,-114,-2053,13,-16,10,285,597,-312,-441
,665,2023-10-27 12:24:10.19,29,-115,-2055,8,-22,10,40,567,-527,-303
,666,2023-10-27 12:24:10.20,27,-121,-2050,5,-24,18,291,608,-317,-449
,667,2023-10-27 12:24:10.21,21,-120,-2052,2,-17,14,44,566,-522,-305
,668,2023-10-27 12:24:10.22,25,-116,-2053,-1,-18,18,298,610,-312,-454
,669,2023-10-27 12:24:10.23,19,-125,-2051,-3,-13,22,41,555,-514,-298
,670,2023-10-27 12:24:10.24,21,-113,-2054,-3,-1,28,298,618,-320,-458
,671,2023-10-27 12:24:10.25,26,-108,-2041,-7,2,27,33,554,-521,-293
,672,2023-10-27 12:24:10.26,29,-117,-2045,-10,0,22,295,621,-326,-458
,673,2023-10-27 12:24:10.27,21,-118,-2057,-8,3,29,27,545,-518,-286
,674,2023-10-27 12:24:10.28,23,-107,-2048,-6,1,27,298,626,-328,-462
,675,2023-10-27 12:24:10.29,37,-109,-2043,-4,-4,22,31,539,-508,-285
,676,2023-10-27 12:24:10.30,25,-103,-2052,-9,-1,20,306,630,-324,-468
,677,2023-10-27 12:24:10.31,30,-100,-2057,-8,10,21,32,532,-500,-282
,678,2023-10-27 12:24:10.32,33,-113,-2051,-8,9,18,308,635,-327,-471
,679,2023-10-27 12:24:10.33,25,-108,-2051,-4,4,17,29,531,-502,-280
,680,2023-10-27 12:24:10.34,24,-111,-2049,-4,6,20,314,647,-333,-480
,681,2023-10-27 12:24:10.35,19,-116,-2053,0,8,21,26,530,-504,-278
,682,2023-10-27 12:24:10.36,12,-114,-2050,5,9,19,308,647,-339,-477
,683,2023-10-27 12:24:10.37,24,-113,-2047,8,13,25,24,520,-496,-272
,684,2023-10-27 12:24:10.38,25,-111,-2045,6,26,24,316,653,-337,-484
,685,2023-10-27 12:24:10.39,16,-109,-2041,5,27,18,26,523,-497,-274
,686,2023-10-27 12:24:10.40,19,-113,-2045,7,29,20,315,662,-347,-488
,687,2023-10-27 12:24:10.41,26,-112,-2046,5,44,22,24,510,-486,-267
,688,2023-10-27 12:24:10.42,28,-100,-2047,2,52,13,309,653,-344,-481
,689,2023-10-27 12:24:10.43,25,-105,-2050,4,54,14,21,510,-489,-265
,690,2023-10-27 12:24:10.44,33,-100,-2042,-1,56,13,314,672,-358,-493
,691,2023-10-27 12:24:10.45,22,-104,-2049,-2,59,5,22,503,-481,-262
,692,2023-10-27 12:24:10.46,32,-104,-2046,0,59,4,313,665,-352,-489
,693,2023-10-27 12:24:10.47,34,-100,-2052,-1,61,-2,24,494,-470,-259
,694,2023-10-27 12:24:10.48,35,-104,-2053,1,50,-12,317,669,-352,-493
,695,2023-10-27 12:24:10.49,39,-102,-2042,1,54,-13,21,493,-472,-257
,696,2023-10-27 12:24:10.50,51,-105,-2047,3,58,-18,314,680,-366,-497
,697,2023-10-27 12:24:10.51,51,-110,-2053,9,56,-29,27,487,-460,-257
,698,2023-10-27 12:24:10.52,61,-108,-2051,10,54,-35,315,687,-372,-501
,699,2023-10-27 12:24:10.53,52,-103,-2055,11,64,-34,19,490,-471,-254
,700,2023-10-27 12:24:10.54,67,-104,-2056,12,53,-36,311,689,-378,-500
,701,2023-10-27 12:24:10.55,40,-102,-2048,11,60,-38,22,481,-459,-251
,702,2023-10-27 12:24:10.56,58,-107,-2058,11,61,-39,321,695,-374,-508
,703,2023-10-27 12:24:10.57,50,-110,-2053,12,53,-37,29,482,-453,-255
,704,2023-10-27 12:24:10.58,50,-115,-2062,10,52,-35,320,702,-382,-511
,705,2023-10-27 12:24:10.59,51,-106,-2058,8,53,-33,27,482,-455,-254
,706,2023-10-27 12:24:10.60,69,-105,-2055,4,53,-34,320,705,-385,-512
,707,2023-10-27 12:24:10.61,67,-109,-2061,7,51,-32,26,480,-454,-253
,708,2023-10-27 12:24:10.62,53,-106,-2056,6,55,-27,310,709,-399,-509
,709,2023-10-27 12:24:10.63,58,-102,-2045,7,59,-24,22,470,-448,-246
,710,2023-10-27 12:24:10.64,68,-109,-2035,5,56,-24,309,705,-396,-507
,711,2023-10-27 12:24:10.65,70,-114,-2038,11,56,-19,28,465,-437,-246
,712,2023-10-27 12:24:10.66,56,-112,-2046,14,66,-17,307,713,-406,-510
,713,2023-10-27 12:24:10.67,68,-125,-2059,20,53,-10,29,467,-438,-248
,714,2023-10-27 12:24:10.68,75,-113,-2062,21,51,-6,304,717,-413,-510
,715,2023-10-27 12:24:10.69,76,-113,-2052,27,66,0,35,465,-430,-250
,716,2023-10-27 12:24:10.70,73,-109,-2051,25,66,0,308,721,-413,-514
,717,2023-10-27 12:24:10.71,80,-110,-2045,25,78,1,37,466,-429,-251
,718,2023-10-27 12:24:10.72,77,-106,-2046,20,93,1,298,718,-420,-508
,719,2023-10-27 12:24:10.73,83,-98,-2043,17,95,0,37,457,-420,-247
,720,2023-10-27 12:24:10.74,77,-110,-2043,9,103,-3,303,724,-421,-513
,721,2023-10-27 12:24:10.75,82,-102,-2030,4,118,-2,47,462,-415,-254
,722,2023-10-27 12:24:10.76,88,-95,-2047,-3,118,-6,298,726,-428,-512
,723,2023-10-27 12:24:10.77,70,-100,-2057,-5,120,-10,47,456,-409,-251
,724,2023-10-27 12:24:10.78,88,-92,-2044,-9,127,-19,297,721,-424,-509
,725,2023-10-27 12:24:10.79,101,-81,-2046,-12,124,-29,50,453,-403,-251
,726,2023-10-27 12:24:10.80,92,-81,-2050,-15,127,-37,291,728,-437,-509
,727,2023-10-27 12:24:10.81,96,-74,-2058,-19,133,-42,44,451,-407,-247
,728,2023-10-27 12:24:10.82,105,-88,-2042,-23,125,-49,278,725,-447,-501
,729,2023-10-27 12:24:10.83,111,-82,-2055,-21,137,-58,36,443,-407,-239
,730,2023-10-27 12:24:10.84,111,-89,-2060,-19,129,-62,276,729,-453,-502
,731,2023-10-27 12:24:10.85,128,-78,-2065,-22,126,-67,54,451,-397,-252
,732,2023-10-27 12:24:10.86,115,-93,-2056,-22,135,-71,282,735,-453,-508
,733,2023-10-27 12:24:10.87,124,-82,-2052,-17,131,-77,65,450,-385,-257
,734,2023-10-27 12:24:10.88,112,-93,-2056,-13,126,-80,268,736,-468,-502
,735,2023-10-27 12:24:10.89,128,-87,-2062,-6,120,-79,61,448,-387,-254
,736,2023-10-27 12:24:10.90,139,-97,-2057,-5,117,-81,260,731,-471,-495
,737,2023-10-27 12:24:10.91,126,-91,-2067,-1,125,-81,66,450,-384,-258
,738,2023-10-27 12:24:10.92,131,-93,-2073,2,117,-79,256,735,-479,-495
,739,2023-10-27 12:24:10.93,127,-85,-2057,4,120,-82,72,449,-377,-260
,740,2023-10-27 12:24:10.94,132,-91,-2065,11,117,-83,244,729,-485,-486
,741,2023-10-27 12:24:10.95,133,-83,-2064,12,112,-82,68,448,-380,-258
,742,2023-10-27 12:24:10.96,135,-80,-2055,18,90,-77,231,728,-497,-479
,743,2023-10-27 12:24:10.97,126,-86,-2049,22,100,-75,71,452,-381,-261
,744,2023-10-27 12:24:10.98,145,-85,-2046,28,97,-75,225,730,-505,-477
,745,2023-10-27 12:24:10.99,152,-82,-2055,29,90,-77,79,450,-371,-264
,746,2023-10-27 12:24:11.00,153,-79,-2052,37,96,-73,220,729,-509,-474
,747,2023-10-27 12:24:11.01,149,-92,-2040,41,91,-76,82,456,-374,-269
,748,2023-10-27 12:24:11.02,143,-94,-2051,45,97,-71,207,732,-525,-469
,749,2023-10-27 12:24:11.03,166,-96,-2054,49,91,-70,80,452,-372,-266
,750,2023-10-27 12:24:11.04,149,-103,-2050,54,90,-68,206,722,-516,-464
,751,2023-10-27 12:24:11.05,155,-111,-2053,59,96,-61,95,450,-355,-272
,752,2023-10-27 12:24:11.06,164,-98,-2057,63,101,-53,198,729,-531,-463
,753,2023-10-27 12:24:11.07,153,-99,-2057,64,97,-52,96,460,-364,-278
,754,2023-10-27 12:24:11.08,161,-96,-2064,69,89,-50,184,725,-541,-454
,755,2023-10-27 12:24:11.09,155,-101,-2057,71,90,-47,92,453,-361,-272
,756,2023-10-27 12:24:11.10,158,-107,-2052,76,102,-42,182,719,-537,-450
,757,2023-10-27 12:24:11.11,158,-106,-2049,78,103,-46,106,460,-354,-283
,758,2023-10-27 12:24:11.12,170,-108,-2050,80,105,-45,154,723,-569,-438
,759,2023-10-27 12:24:11.13,173,-106,-2049,83,106,-49,86,456,-370,-271
,760,2023-10-27 12:24:11.14,180,-108,-2039,86,107,-53,123,713,-590,-418
,761,2023-10-27 12:24:11.15,182,-97,-2042,90,115,-55,87,457,-370,-272
,762,2023-10-27 12:24:11.16,193,-100,-2037,92,122,-59,117,714,-597,-415
,763,2023-10-27 12:24:11.17,178,-98,-2032,85,128,-63,90,460,-370,-275
,764,2023-10-27 12:24:11.18,194,-97,-2043,90,127,-69,108,713,-605,-410
,765,2023-10-27 12:24:11.19,199,-110,-2044,94,140,-68,101,466,-365,-283
,766,2023-10-27 12:24:11.20,200,-109,-2045,96,133,-79,107,718,-611,-412
,767,2023-10-27 12:24:11.21,198,-116,-2054,97,129,-79,111,476,-365,-293
,768,2023-10-27 12:24:11.22,201,-122,-2061,102,131,-72,111,714,-603,-412
,769,2023-10-27 12:24:11.23,193,-119,-2056,101,114,-79,124,478,-354,-301
,770,2023-10-27 12:24:11.24,209,-117,-2059,101,107,-80,92,702,-610,-397
,771,2023-10-27 12:24:11.25,207,-122,-2062,99,107,-79,126,486,-360,-306
,772,2023-10-27 12:24:11.26,211,-120,-2062,96,101,-83,94,711,-617,-402
,773,2023-10-27 12:24:11.27,194,-130,-2066,90,98,-82,144,491,-347,-317
,774,2023-10-27 12:24:11.28,197,-133,-2066,86,96,-80,96,703,-607,-399
,775,2023-10-27 12:24:11.29,199,-141,-2072,84,89,-78,139,491,-352,-315
,776,2023-10-27 12:24:11.30,206,-146,-2072,82,69,-73,84,694,-610,-389
,777,2023-10-27 12:24:11.31,209,-149,-2082,84,65,-65,146,492,-346,-319
,778,2023-10-27 12:24:11.32,209,-139,-2070,76,50,-67,81,700,-619,-390
,779,2023-10-27 12:24:11.33,197,-149,-2074,75,48,-60,154,502,-348,-328
,780,2023-10-27 12:24:11.34,220,-145,-2059,75,38,-58,82,695,-613,-388
,781,2023-10-27 12:24:11.35,204,-152,-2063,78,22,-53,168,503,-335,-335
,782,2023-10-27 12:24:11.36,212,-161,-2072,80,14,-49,75,691,-616,-383
,783,2023-10-27 12:24:11.37,220,-158,-2054,80,1,-48,165,510,-345,-337
,784,2023-10-27 12:24:11.38,221,-155,-2039,82,-11,-43,70,684,-614,-377
,785,2023-10-27 12:24:11.39,234,-162,-2055,88,-14,-40,181,510,-329,-345
,786,2023-10-27 12:24:11.40,216,-160,-2049,89,-13,-46,71,678,-607,-374
,787,2023-10-27 12:24:11.41,223,-159,-2044,87,-31,-47,182,518,-336,-350
,788,2023-10-27 12:24:11.42,220,-172,-2047,81,-19,-40,47,676,-629,-361
,789,2023-10-27 12:24:11.43,215,-175,-2049,79,-26,-43,165,520,-355,-342
,790,2023-10-27 12:24:11.44,219,-179,-2053,72,-36,-37,33,669,-636,-351
,791,2023-10-27 12:24:11.45,222,-180,-2058,70,-34,-34,173,526,-353,-349
,792,2023-10-27 12:24:11.46,212,-174,-2057,59,-47,-34,14,668,-654,-341
,793,2023-10-27 12:24:11.47,223,-165,-2053,50,-45,-29,159,528,-369,-343
,794,2023-10-27 12:24:11.48,220,-162,-2055,40,-48,-32,-1,662,-663,-330
,795,2023-10-27 12:24:11.49,208,-165,-2040,32,-53,-38,160,538,-378,-349
,796,2023-10-27 12:24:11.50,225,-166,-2041,28,-52,-39,-13,666,-679,-326
,797,2023-10-27 12:24:11.51,212,-174,-2037,18,-43,-44,157,541,-384,-349
,798,2023-10-27 12:24:11.52,215,-172,-2053,17,-51,-47,-10,649,-659,-319
,799,2023-10-27 12:24:11.53,220,-181,-2050,20,-43,-48,184,548,-364,-366
,800,2023-10-27 12:24:11.54,210,-176,-2050,18,-55,-53,9,645,-636,-327
,801,2023-10-27 12:24:11.55,216,-173,-2047,14,-42,-48,198,550,-352,-374
,802,2023-10-27 12:24:11.56,221,-175,-2058,11,-51,-53,7,640,-633,-323
,803,2023-10-27 12:24:11.57,201,-177,-2061,9,-57,-52,214,564,-350,-389
,804,2023-10-27 12:24:11.58,198,-167,-2058,6,-50,-51,14,638,-624,-326
,805,2023-10-27 12:24:11.59,210,-164,-2050,7,-69,-50,218,568,-350,-393
,806,2023-10-27 12:24:11.60,210,-164,-2055,5,-70,-45,4,634,-630,-319
,807,2023-10-27 12:24:11.61,194,-168,-2051,2,-74,-46,216,584,-368,-400
,808,2023-10-27 12:24:11.62,199,-162,-2063,1,-83,-46,0,639,-639,-319
,809,2023-10-27 12:24:11.63,197,-158,-2040,-2,-89,-43,216,583,-367,-399
,810,2023-10-27 12:24:11.64,199,-172,-2046,-12,-71,-43,-6,618,-624,-306
,811,2023-10-27 12:24:11.65,187,-171,-2061,-11,-74,-42,220,577,-357,-398
,812,2023-10-27 12:24:11.66,183,-167,-2046,-5,-92,-38,2,621,-619,-311
,813,2023-10-27 12:24:11.67,189,-177,-2037,-1,-84,-36,236,599,-363,-417
,814,2023-10-27 12:24:11.68,201,-161,-2041,2,-94,-36,-4,617,-621,-306
,815,2023-10-27 12:24:11.69,189,-166,-2035,5,-88,-34,231,596,-365,-413
,816,2023-10-27 12:24:11.70,198,-172,-2038,10,-78,-33,-20,608,-628,-294
,817,2023-10-27 12:24:11.71,185,-164,-2035,9,-75,-34,230,606,-376,-418
,818,2023-10-27 12:24:11.72,188,-166,-2038,9,-79,-33,-22,599,-621,-288
,819,2023-10-27 12:24:11.73,199,-155,-2034,11,-76,-34,239,612,-373,-425
,820,2023-10-27 12:24:11.74,195,-147,-2029,9,-65,-31,-21,596,-617,-287
,821,2023-10-27 12:24:11.75,191,-144,-2031,10,-67,-26,242,624,-382,-433
,822,2023-10-27 12:24:11.76,183,-151,-2039,6,-68,-30,-25,585,-610,-280
,823,2023-10-27 12:24:11.77,198,-150,-2040,2,-71,-28,244,622,-378,-433
,824,2023-10-27 12:24:11.78,184,-150,-2029,-1,-58,-29,-32,581,-613,-274
,825,2023-10-27 12:24:11.79,189,-135,-2040,-3,-58,-30,240,635,-395,-437
,826,2023-10-27 12:24:11.80,169,-147,-2049,-7,-65,-30,-37,574,-611,-268
,827,2023-10-27 12:24:11.81,173,-141,-2049,-14,-70,-25,240,636,-396,-438
,828,2023-10-27 12:24:11.82,173,-145,-2059,-18,-80,-27,-39,566,-605,-263
,829,2023-10-27 12:24:11.83,157,-147,-2068,-23,-72,-27,244,640,-396,-442
,830,2023-10-27 12:24:11.84,188,-150,-2065,-16,-88,-23,-31,560,-591,-264
,831,2023-10-27 12:24:11.85,161,-154,-2053,-13,-93,-24,257,646,-389,-451
,832,2023-10-27 12:24:11.86,159,-150,-2064,-4,-92,-25,-30,556,-586,-263
,833,2023-10-27 12:24:11.87,164,-160,-2071,-3,-100,-23,256,651,-395,-453
,834,2023-10-27 12:24:11.88,163,-156,-2063,-2,-102,-20,-35,549,-584,-257
,835,2023-10-27 12:24:11.89,150,-163,-2061,6,-106,-22,254,656,-402,-455
,836,2023-10-27 12:24:11.90,158,-164,-2059,14,-112,-21,-33,548,-581,-257
,837,2023-10-27 12:24:11.91,138,-155,-2050,15,-108,-18,258,664,-406,-461
,838,2023-10-27 12:24:11.92,136,-152,-2051,14,-110,-17,-28,533,-561,-252
,839,2023-10-27 12:24:11.93,119,-164,-2042,10,-105,-16,272,662,-390,-467
,840,2023-10-27 12:24:11.94,124,-165,-2047,22,-115,-13,-10,530,-540,-260
,841,2023-10-27 12:24:11.95,111,-175,-2045,26,-114,-11,282,666,-384,-474
,842,2023-10-27 12:24:11.96,118,-174,-2041,27,-116,-8,-20,520,-540,-250
,843,2023-10-27 12:24:11.97,110,-176,-2050,21,-107,-9,273,673,-400,-473
,844,2023-10-27 12:24:11.98,98,-174,-2051,14,-103,-3,-31,512,-543,-240
,845,2023-10-27 12:24:11.99,108,-168,-2048,13,-98,-1,262,670,-408,-466
,846,2023-10-27 12:24:12.00,121,-163,-2054,6,-89,2,-38,508,-546,-235
,847,2023-10-27 12:24:12.01,96,-160,-2038,-1,-77,2,249,674,-425,-461
,848,2023-10-27 12:24:12.02,94,-158,-2043,-11,-60,-2,-49,506,-555,-228
,849,2023-10-27 12:24:12.03,107,-151,-2049,-18,-50,-3,248,683,-435,-465
,850,2023-10-27 12:24:12.04,101,-150,-2035,-22,-46,-3,-50,495,-545,-222
,851,2023-10-27 12:24:12.05,91,-145,-2042,-28,-25,-5,240,681,-441,-460
,852,2023-10-27 12:24:12.06,97,-146,-2036,-39,-17,-4,-69,476,-545,-203
,853,2023-10-27 12:24:12.07,104,-150,-2034,-45,-9,-7,260,684,-424,-472
,854,2023-10-27 12:24:12.08,109,-145,-2037,-46,-4,-5,-27,477,-504,-225
,855,2023-10-27 12:24:12.09,97,-142,-2049,-45,7,-3,266,687,-421,-476
,856,2023-10-27 12:24:12.10,91,-159,-2032,-47,14,-8,-42,482,-524,-220
,857,2023-10-27 12:24:12.11,105,-151,-2046,-43,5,-3,252,694,-442,-473
,858,2023-10-27 12:24:12.12,104,-145,-2047,-37,6,-1,-37,476,-513,-219
,859,2023-10-27 12:24:12.13,109,-141,-2038,-28,-4,2,258,691,-433,-474
,860,2023-10-27 12:24:12.14,124,-134,-2044,-26,-4,-1,-34,475,-509,-220
,861,2023-10-27 12:24:12.15,113,-150,-2040,-27,6,-1,262,698,-436,-480
,862,2023-10-27 12:24:12.16,114,-143,-2056,-25,12,-4,-9,474,-483,-232
,863,2023-10-27 12:24:12.17,115,-144,-2059,-24,18,-6,271,701,-430,-486
,864,2023-10-27 12:24:12.18,130,-137,-2052,-18,9,-2,-10,473,-483,-231
,865,2023-10-27 12:24:12.19,116,-126,-2064,-14,2,-2,270,702,-432,-486
,866,2023-10-27 12:24:12.20,115,-140,-2046,-17,-1,-2,-10,470,-480,-230
,867,2023-10-27 12:24:12.21,122,-139,-2053,-20,-3,-3,265,710,-445,-487
,868,2023-10-27 12:24:12.22,118,-140,-2044,-28,3,-3,-5,471,-476,-233
,869,2023-10-27 12:24:12.23,118,-135,-2048,-31,7,-3,266,712,-446,-489
,870,2023-10-27 12:24:12.24,127,-135,-2056,-36,11,-3,0,465,-465,-232
,871,2023-10-27 12:24:12.25,123,-138,-2050,-43,8,-2,267,713,-446,-490
,872,2023-10-27 12:24:12.26,129,-134,-2059,-47,11,-2,4,464,-460,-234
,873,2023-10-27 12:24:12.27,136,-132,-2046,-50,19,-5,272,715,-443,-493
,874,2023-10-27 12:24:12.28,118,-131,-2039,-54,24,-7,12,463,-451,-237
,875,2023-10-27 12:24:12.29,128,-128,-2046,-50,20,-6,269,721,-452,-495
,876,2023-10-27 12:24:12.30,137,-123,-2042,-53,25,-6,16,461,-445,-238
,877,2023-10-27 12:24:12.31,131,-126,-2040,-53,21,-8,270,721,-451,-495
,878,2023-10-27 12:24:12.32,138,-120,-2046,-54,24,-9,23,458,-435,-240
,879,2023-10-27 12:24:12.33,129,-118,-2044,-51,19,-14,266,720,-454,-493
,880,2023-10-27 12:24:12.34,136,-118,-2035,-50,16,-12,16,454,-438,-235
,881,2023-10-27 12:24:12.35,131,-113,-2042,-54,21,-18,256,719,-463,-487
,882,2023-10-27 12:24:12.36,130,-116,-2039,-59,28,-18,23,450,-427,-236
,883,2023-10-27 12:24:12.37,142,-107,-2047,-60,25,-24,257,718,-461,-487
,884,2023-10-27 12:24:12.38,140,-109,-2046,-63,24,-28,24,444,-420,-234
,885,2023-10-27 12:24:12.39,146,-103,-2036,-62,18,-30,252,698,-446,-475
,886,2023-10-27 12:24:12.40,135,-110,-2059,-62,18,-37,43,417,-374,-230
,887,2023-10-27 12:24:12.41,140,-111,-2067,-68,2,-34,258,710,-452,-484
,888,2023-10-27 12:24:12.42,141,-120,-2056,-78,6,-37,36,452,-416,-244
,889,2023-10-27 12:24:12.43,136,-119,-2063,-76,9,-38,244,731,-487,-487
,890,2023-10-27 12:24:12.44,139,-119,-2051,-74,15,-41,41,452,-411,-246
,891,2023-10-27 12:24:12.45,124,-107,-2051,-77,18,-39,239,721,-482,-480
,892,2023-10-27 12:24:12.46,146,-108,-2057,-73,7,-39,45,446,-401,-245
,893,2023-10-27 12:24:12.47,134,-109,-2048,-77,17,-38,229,708,-479,-468
,894,2023-10-27 12:24:12.48,147,-110,-2058,-73,22,-38,51,443,-392,-247
,895,2023-10-27 12:24:12.49,127,-113,-2057,-79,29,-36,236,721,-485,-478
,896,2023-10-27 12:24:12.50,127,-111,-2062,-76,28,-34,59,450,-391,-254
,897,2023-10-27 12:24:12.51,139,-104,-2062,-70,8,-27,239,721,-482,-480
,898,2023-10-27 12:24:12.52,143,-104,-2057,-65,9,-20,70,443,-373,-256
,899,2023-10-27 12:24:12.53,127,-104,-2056,-69,11,-22,232,716,-484,-474
,900,2023-10-27 12:24:12.54,133,-108,-2064,-65,7,-16,73,444,-371,-258
,901,2023-10-27 12:24:12.55,125,-99,-2056,-62,16,-10,236,723,-487,-479
,902,2023-10-27 12:24:12.56,144,-102,-2035,-57,19,-7,80,442,-362,-261
,903,2023-10-27 12:24:12.57,150,-97,-2057,-57,22,-4,234,722,-488,-478
,904,2023-10-27 12:24:12.58,149,-99,-2062,-53,23,0,90,445,-355,-267
,905,2023-10-27 12:24:12.59,146,-96,-2066,-46,18,3,226,724,-498,-475
,906,2023-10-27 12:24:12.60,143,-89,-2051,-33,7,7,90,443,-353,-266
,907,2023-10-27 12:24:12.61,142,-86,-2049,-23,5,9,227,713,-486,-470
,908,2023-10-27 12:24:12.62,140,-80,-2049,-21,0,7,101,444,-343,-272
,909,2023-10-27 12:24:12.63,142,-77,-2060,-21,-3,6,225,719,-494,-472
,910,2023-10-27 12:24:12.64,135,-73,-2072,-19,-15,6,107,450,-343,-278
,911,2023-10-27 12:24:12.65,126,-75,-2065,-18,-21,3,213,717,-504,-465
,912,2023-10-27 12:24:12.66,128,-84,-2071,-19,-29,0,112,452,-340,-282
,913,2023-10-27 12:24:12.67,137,-90,-2062,-16,-30,-2,214,712,-498,-463
,914,2023-10-27 12:24:12.68,129,-80,-2064,-11,-35,-1,123,452,-329,-287
,915,2023-10-27 12:24:12.69,132,-84,-2047,-9,-41,1,210,710,-500,-460
,916,2023-10-27 12:24:12.70,122,-84,-2057,-8,-42,-3,129,454,-325,-291
,917,2023-10-27 12:24:12.71,119,-85,-2063,-14,-38,-2,210,711,-501,-460
,918,2023-10-27 12:24:12.72,119,-76,-2054,-16,-32,-5,142,457,-315,-299
,919,2023-10-27 12:24:12.73,108,-80,-2060,-16,-32,-7,209,709,-500,-459
,920,2023-10-27 12:24:12.74,106,-78,-2070,-20,-32,-7,146,461,-315,-303
,921,2023-10-27 12:24:12.75,113,-78,-2061,-18,-36,-6,206,706,-500,-456
,922,2023-10-27 12:24:12.76,103,-83,-2057,-23,-37,-7,160,465,-305,-312
,923,2023-10-27 12:24:12.77,113,-81,-2050,-25,-35,-8,217,707,-490,-462
,924,2023-10-27 12:24:12.78,105,-75,-2042,-31,-32,-9,171,468,-297,-319
,925,2023-10-27 12:24:12.79,115,-77,-2042,-35,-32,-8,214,702,-488,-458
,926,2023-10-27 12:24:12.80,112,-69,-2031,-40,-26,-8,174,464,-290,-319
,927,2023-10-27 12:24:12.81,104,-54,-2036,-45,-16,-10,205,690,-485,-447
,928,2023-10-27 12:24:12.82,118,-57,-2040,-53,-8,-12,182,466,-284,-324
,929,2023-10-27 12:24:12.83,119,-54,-2049,-60,-2,-14,209,697,-488,-453
,930,2023-10-27 12:24:12.84,123,-40,-2042,-65,3,-15,201,480,-279,-340
,931,2023-10-27 12:24:12.85,133,-42,-2049,-68,8,-18,220,703,-483,-461
,932,2023-10-27 12:24:12.86,126,-69,-2061,-69,7,-15,206,483,-277,-344
,933,2023-10-27 12:24:12.87,121,-58,-2064,-67,3,-15,200,686,-486,-443
,934,2023-10-27 12:24:12.88,116,-54,-2074,-64,-3,-9,200,469,-269,-334
,935,2023-10-27 12:24:12.89,114,-63,-2065,-61,-12,-5,204,684,-480,-444
,936,2023-10-27 12:24:12.90,114,-55,-2067,-54,-17,2,224,490,-266,-357
,937,2023-10-27 12:24:12.91,121,-54,-2058,-57,-22,7,203,684,-481,-443
,938,2023-10-27 12:24:12.92,135,-54,-2062,-58,-21,15,233,493,-260,-363
,939,2023-10-27 12:24:12.93,129,-44,-2047,-52,-20,16,198,680,-482,-439
,940,2023-10-27 12:24:12.94,127,-45,-2057,-48,-10,17,226,494,-268,-360
,941,2023-10-27 12:24:12.95,128,-44,-2056,-47,-12,19,170,680,-510,-425
,942,2023-10-27 12:24:12.96,115,-47,-2073,-46,-7,25,217,506,-289,-361
,943,2023-10-27 12:24:12.97,122,-36,-2073,-42,-25,29,141,661,-520,-401
,944,2023-10-27 12:24:12.98,112,-34,-2065,-37,-32,30,216,501,-285,-358
,945,2023-10-27 12:24:12.99,119,-27,-2077,-29,-40,32,150,665,-515,-407
,946,2023-10-27 12:24:13.00,107,-29,-2058,-26,-42,30,238,511,-273,-374
,947,2023-10-27 12:24:13.01,119,-35,-2042,-14,-47,27,157,660,-503,-408
,948,2023-10-27 12:24:13.02,109,-33,-2040,-6,-42,24,248,520,-272,-384
,949,2023-10-27 12:24:13.03,125,-37,-2042,5,-42,22,145,654,-509,-399
,950,2023-10-27 12:24:13.04,104,-39,-2039,16,-39,19,246,524,-278,-385
,951,2023-10-27 12:24:13.05,112,-50,-2045,26,-42,19,143,653,-510,-398
,952,2023-10-27 12:24:13.06,117,-42,-2034,35,-40,20,258,530,-272,-394
,953,2023-10-27 12:24:13.07,114,-43,-2042,43,-38,19,136,647,-511,-391
,954,2023-10-27 12:24:13.08,102,-45,-2048,46,-30,20,263,535,-272,-399
,955,2023-10-27 12:24:13.09,96,-57,-2054,53,-37,19,134,642,-508,-388
,956,2023-10-27 12:24:13.10,93,-56,-2045,61,-39,20,266,540,-274,-403
,957,2023-10-27 12:24:13.11,67,-67,-2062,64,-39,22,119,636,-517,-377
,958,2023-10-27 12:24:13.12,76,-62,-2065,63,-38,24,270,545,-275,-407
,959,2023-10-27 12:24:13.13,83,-62,-2053,64,-40,26,123,632,-509,-377
,960,2023-10-27 12:24:13.14,79,-68,-2055,69,-40,25,282,554,-272,-418
,961,2023-10-27 12:24:13.15,67,-58,-2052,65,-39,27,122,632,-510,-377
,962,2023-10-27 12:24:13.16,68,-62,-2046,58,-33,22,288,566,-278,-427
,963,2023-10-27 12:24:13.17,60,-56,-2045,55,-26,18,122,623,-501,-372
,964,2023-10-27 12:24:13.18,80,-63,-2035,53,-13,11,294,568,-274,-431
,965,2023-10-27 12:24:13.19,75,-62,-2032,54,-6,5,112,610,-498,-361
,966,2023-10-27 12:24:13.20,76,-64,-2037,55,-4,3,302,568,-266,-435
,967,2023-10-27 12:24:13.21,71,-64,-2044,58,-8,-4,115,609,-494,-362
,968,2023-10-27 12:24:13.22,89,-73,-2035,58,1,-13,308,581,-273,-444
,969,2023-10-27 12:24:13.23,88,-60,-2023,59,2,-19,111,595,-484,-353
,970,2023-10-27 12:24:13.24,80,-69,-2025,58,13,-26,291,560,-269,-425
,971,2023-10-27 12:24:13.25,93,-61,-2039,53,16,-34,102,584,-482,-343
,972,2023-10-27 12:24:13.26,104,-51,-2031,46,12,-41,356,606,-250,-481
,973,2023-10-27 12:24:13.27,87,-52,-2015,38,26,-53,158,610,-452,-384
,974,2023-10-27 12:24:13.28,98,-50,-2042,27,28,-62,376,614,-238,-495
,975,2023-10-27 12:24:13.29,108,-41,-2061,6,35,-73,134,580,-446,-357
,976,2023-10-27 12:24:13.30,111,-44,-2055,-8,44,-84,365,610,-245,-487
,977,2023-10-27 12:24:13.31,105,-46,-2079,-9,41,-89,134,584,-450,-359
,978,2023-10-27 12:24:13.32,117,-52,-2065,-16,37,-95,371,619,-248,-495
,979,2023-10-27 12:24:13.33,113,-54,-2087,-23,32,-101,124,576,-452,-350
,980,2023-10-27 12:24:13.34,109,-60,-2081,-33,27,-103,343,614,-271,-478
,981,2023-10-27 12:24:13.35,116,-55,-2080,-35,20,-104,90,558,-468,-324
,982,2023-10-27 12:24:13.36,113,-52,-2074,-40,17,-99,342,614,-272,-478
,983,2023-10-27 12:24:13.37,103,-54,-2065,-50,25,-94,105,559,-454,-332
,984,2023-10-27 12:24:13.38,106,-45,-2060,-58,26,-88,362,632,-270,-497
,985,2023-10-27 12:24:13.39,95,-38,-2059,-64,22,-83,99,552,-453,-325
,986,2023-10-27 12:24:13.40,86,-39,-2052,-72,22,-75,354,626,-272,-490
,987,2023-10-27 12:24:13.41,101,-38,-2050,-81,23,-72,105,553,-448,-329
,988,2023-10-27 12:24:13.42,104,-39,-2040,-85,27,-69,373,638,-265,-505
,989,2023-10-27 12:24:13.43,104,-34,-2036,-89,33,-66,113,544,-431,-328
,990,2023-10-27 12:24:13.44,108,-37,-2020,-90,46,-68,376,639,-263,-507
,991,2023-10-27 12:24:13.45,109,-28,-2014,-89,66,-70,104,533,-429,-318
,992,2023-10-27 12:24:13.46,107,-32,-2031,-87,92,-77,376,645,-269,-510
,993,2023-10-27 12:24:13.47,119,-17,-2020,-89,108,-81,107,531,-424,-319
,994,2023-10-27 12:24:13.48,116,-16,-2014,-95,131,-91,391,651,-260,-521
,995,2023-10-27 12:24:13.49,121,-18,-2022,-97,158,-101,112,522,-410,-317
,996,2023-10-27 12:24:13.50,131,-18,-2029,-94,188,-109,387,654,-267,-520
,997,2023-10-27 12:24:13.51,124,-21,-2014,-92,221,-120,98,522,-424,-310
,998,2023-10-27 12:24:13.52,132,-23,-2008,-89,253,-132,383,668,-285,-525
,999,2023-10-27 12:24:13.53,132,-37,-2029,-92,286,-140,94,514,-420,-304
,1000,2023-10-27 12:24:13.54,135,-34,-2037,-91,309,-147,383,667,-284,-525
,1001,2023-10-27 12:24:13.55,132,-40,-2036,-77,339,-152,92,508,-416,-300
,1002,2023-10-27 12:24:13.56,132,-44,-2040,-68,361,-155,387,672,-285,-529
,1003,2023-10-27 12:24:13.57,130,-29,-2047,-61,375,-159,88,509,-421,-298
,1004,2023-10-27 12:24:13.58,143,-28,-2055,-53,388,-163,377,683,-306,-530
,1005,2023-10-27 12:24:13.59,135,-32,-2041,-44,390,-169,72,507,-435,-289
,1006,2023-10-27 12:24:13.60,164,-40,-2040,-26,394,-175,364,685,-321,-524
,1007,2023-10-27 12:24:13.61,174,-31,-2050,-7,401,-177,64,501,-437,-282
,1008,2023-10-27 12:24:13.62,178,-33,-2044,12,396,-177,358,687,-329,-522
,1009,2023-10-27 12:24:13.63,195,-28,-2037,30,396,-179,53,493,-440,-273
,1010,2023-10-27 12:24:13.64,199,-22,-2032,41,407,-181,345,695,-350,-520
,1011,2023-10-27 12:24:13.65,214,-39,-2006,59,408,-186,46,491,-445,-268
,1012,2023-10-27 12:24:13.66,224,-46,-2033,89,421,-185,329,696,-367,-512
,1013,2023-10-27 12:24:13.67,236,-58,-2042,112,415,-176,33,500,-467,-266
,1014,2023-10-27 12:24:13.68,255,-58,-2030,134,415,-172,306,700,-394,-503
,1015,2023-10-27 12:24:13.69,269,-56,-2034,159,419,-163,9,482,-473,-245
,1016,2023-10-27 12:24:13.70,272,-66,-2028,174,430,-158,282,689,-407,-485
,1017,2023-10-27 12:24:13.71,291,-74,-2034,201,425,-145,0,483,-483,-241
,1018,2023-10-27 12:24:13.72,293,-82,-2046,226,426,-131,284,716,-432,-500
,1019,2023-10-27 12:24:13.73,319,-83,-2051,251,415,-119,-13,476,-489,-231
,1020,2023-10-27 12:24:13.74,325,-78,-2054,272,412,-107,261,713,-452,-487
,1021,2023-10-27 12:24:13.75,341,-68,-2039,287,408,-101,-24,475,-499,-225
,1022,2023-10-27 12:24:13.76,354,-65,-2049,298,418,-96,245,716,-471,-480
,1023,2023-10-27 12:24:13.77,362,-68,-2042,312,410,-94,-34,475,-509,-220
,1024,2023-10-27 12:24:13.78,362,-80,-2050,326,407,-94,200,725,-525,-462
,1025,2023-10-27 12:24:13.79,359,-81,-2053,338,394,-86,-71,475,-546,-202
,1026,2023-10-27 12:24:13.80,373,-79,-2055,344,374,-80,183,734,-551,-458
,1027,2023-10-27 12:24:13.81,383,-77,-2058,347,355,-74,-70,482,-552,-206
,1028,2023-10-27 12:24:13.82,395,-79,-2059,345,331,-72,166,736,-570,-451
,1029,2023-10-27 12:24:13.83,392,-78,-2053,337,315,-68,-84,472,-556,-194
,1030,2023-10-27 12:24:13.84,388,-80,-2050,332,297,-68,140,734,-594,-437
,1031,2023-10-27 12:24:13.85,413,-89,-2059,323,288,-69,-95,466,-561,-185
,1032,2023-10-27 12:24:13.86,395,-92,-2055,308,261,-69,112,737,-625,-424
,1033,2023-10-27 12:24:13.87,412,-99,-2053,282,251,-67,-105,471,-576,-183
,1034,2023-10-27 12:24:13.88,414,-140,-2047,270,232,-64,91,739,-648,-415
,1035,2023-10-27 12:24:13.89,408,-115,-2049,253,232,-67,-114,454,-568,-170
,1036,2023-10-27 12:24:13.90,418,-124,-2036,241,202,-65,64,724,-660,-394
,1037,2023-10-27 12:24:13.91,425,-129,-2033,228,196,-69,-127,459,-586,-166
,1038,2023-10-27 12:24:13.92,438,-129,-2035,220,177,-67,49,740,-691,-394
,1039,2023-10-27 12:24:13.93,438,-120,-2027,209,164,-70,-130,464,-594,-167
,1040,2023-10-27 12:24:13.94,434,-132,-2027,194,155,-75,28,742,-714,-385
,1041,2023-10-27 12:24:13.95,450,-141,-2037,183,139,-75,-132,463,-595,-165
,1042,2023-10-27 12:24:13.96,457,-146,-2026,174,130,-77,12,745,-733,-378
,1043,2023-10-27 12:24:13.97,457,-148,-2021,165,117,-80,-134,463,-597,-164
,1044,2023-10-27 12:24:13.98,453,-146,-2018,151,112,-79,-8,741,-749,-366
,1045,2023-10-27 12:24:13.99,463,-154,-2024,133,96,-81,-141,465,-606,-162
,1046,2023-10-27 12:24:14.00,468,-152,-2032,114,90,-82,-24,745,-769,-360
,1047,2023-10-27 12:24:14.01,470,-163,-2041,104,68,-77,-138,472,-610,-167
,1048,2023-10-27 12:24:14.02,462,-166,-2033,96,51,-72,-39,748,-787,-354
,1049,2023-10-27 12:24:14.03,477,-170,-2035,88,33,-63,-136,472,-608,-168
,1050,2023-10-27 12:24:14.04,479,-177,-2030,79,25,-57,-46,746,-792,-350
,1051,2023-10-27 12:24:14.05,476,-180,-2039,72,11,-52,-132,469,-601,-168
,1052,2023-10-27 12:24:14.06,483,-196,-2041,74,-1,-44,-63,746,-809,-341
,1053,2023-10-27 12:24:14.07,473,-193,-2028,76,-17,-35,-140,471,-611,-165
,1054,2023-10-27 12:24:14.08,468,-200,-2018,77,-23,-27,-74,756,-830,-341
,1055,2023-10-27 12:24:14.09,452,-196,-2027,82,-30,-16,-138,469,-607,-165
,1056,2023-10-27 12:24:14.10,452,-208,-2026,83,-40,-7,-94,735,-829,-320
,1057,2023-10-27 12:24:14.11,457,-197,-2026,89,-58,2,-144,445,-589,-150
,1058,2023-10-27 12:24:14.12,458,-191,-2021,89,-63,9,-102,726,-828,-312
,1059,2023-10-27 12:24:14.13,454,-190,-2015,86,-65,11,-127,454,-581,-163
,1060,2023-10-27 12:24:14.14,454,-189,-2015,83,-63,12,-113,712,-825,-299
,1061,2023-10-27 12:24:14.15,457,-191,-2004,87,-72,13,-106,456,-562,-175
,1062,2023-10-27 12:24:14.16,456,-196,-2009,87,-68,15,-111,716,-827,-302
,1063,2023-10-27 12:24:14.17,466,-189,-2016,87,-75,16,-111,449,-560,-169
,1064,2023-10-27 12:24:14.18,455,-189,-1999,87,-79,15,-128,702,-830,-287
,1065,2023-10-27 12:24:14.19,465,-178,-2004,84,-82,18,-111,444,-555,-166
,1066,2023-10-27 12:24:14.20,465,-187,-2008,79,-78,12,-131,706,-837,-287
,1067,2023-10-27 12:24:14.21,456,-173,-2013,75,-77,12,-100,455,-555,-177
,1068,2023-10-27 12:24:14.22,468,-180,-2003,68,-78,10,-135,706,-841,-285
,1069,2023-10-27 12:24:14.23,474,-180,-2002,61,-78,8,-94,456,-550,-181
,1070,2023-10-27 12:24:14.24,483,-188,-2006,54,-75,6,-138,702,-840,-282
,1071,2023-10-27 12:24:14.25,479,-194,-2009,51,-72,6,-86,459,-545,-186
,1072,2023-10-27 12:24:14.26,475,-205,-2016,48,-78,9,-144,704,-848,-280
,1073,2023-10-27 12:24:14.27,472,-197,-2016,47,-81,13,-84,464,-548,-190
,1074,2023-10-27 12:24:14.28,456,-201,-2018,47,-89,16,-154,708,-862,-277
,1075,2023-10-27 12:24:14.29,474,-205,-2006,45,-94,17,-81,466,-547,-192
,1076,2023-10-27 12:24:14.30,459,-205,-2010,42,-93,21,-155,710,-865,-277
,1077,2023-10-27 12:24:14.31,460,-206,-2011,39,-94,24,-74,477,-551,-201
,1078,2023-10-27 12:24:14.32,448,-210,-2014,36,-93,27,-159,714,-873,-277
,1079,2023-10-27 12:24:14.33,433,-215,-2008,33,-100,31,-70,484,-554,-207
,1080,2023-10-27 12:24:14.34,428,-220,-2023,33,-103,33,-163,714,-877,-275
,1081,2023-10-27 12:24:14.35,427,-210,-2031,33,-108,40,-59,489,-548,-215
,1082,2023-10-27 12:24:14.36,426,-215,-2014,27,-111,45,-164,713,-877,-274
,1083,2023-10-27 12:24:14.37,422,-218,-2009,23,-111,50,-53,493,-546,-220
,1084,2023-10-27 12:24:14.38,438,-220,-2011,18,-107,51,-171,710,-881,-269
,1085,2023-10-27 12:24:14.39,415,-213,-2008,11,-110,52,-54,498,-552,-222
,1086,2023-10-27 12:24:14.40,416,-216,-2016,6,-107,55,-175,710,-885,-267
,1087,2023-10-27 12:24:14.41,405,-218,-2011,-1,-107,59,-56,503,-559,-223
,1088,2023-10-27 12:24:14.42,406,-222,-2020,-6,-102,63,-187,716,-903,-264
,1089,2023-10-27 12:24:14.43,407,-216,-2018,-16,-92,66,-34,529,-563,-247
,1090,2023-10-27 12:24:14.44,400,-217,-2017,-26,-87,67,-167,729,-896,-281
,1091,2023-10-27 12:24:14.45,401,-214,-2025,-35,-73,70,-15,536,-551,-260
,1092,2023-10-27 12:24:14.46,405,-216,-2012,-42,-67,75,-166,722,-888,-278
,1093,2023-10-27 12:24:14.47,399,-217,-2014,-44,-63,77,-12,537,-549,-262
,1094,2023-10-27 12:24:14.48,393,-212,-2029,-48,-63,80,-175,720,-895,-272
,1095,2023-10-27 12:24:14.49,393,-215,-2007,-53,-56,86,-2,562,-564,-280
,1096,2023-10-27 12:24:14.50,401,-209,-2011,-54,-54,88,-179,720,-899,-270
,1097,2023-10-27 12:24:14.51,380,-209,-2015,-56,-48,92,-1,551,-552,-275
,1098,2023-10-27 12:24:14.52,387,-215,-2021,-57,-53,96,-184,698,-882,-257
,1099,2023-10-27 12:24:14.53,383,-208,-2024,-60,-55,95,-4,551,-555,-273
,1100,2023-10-27 12:24:14.54,387,-201,-2041,-64,-58,99,-192,711,-903,-259
,1101,2023-10-27 12:24:14.55,392,-203,-2035,-67,-63,101,-1,556,-557,-277
,1102,2023-10-27 12:24:14.56,389,-191,-2034,-70,-67,99,-188,708,-896,-260
,1103,2023-10-27 12:24:14.57,394,-185,-2027,-71,-71,97,5,566,-561,-285
,1104,2023-10-27 12:24:14.58,396,-188,-2024,-72,-71,96,-196,701,-897,-252
,1105,2023-10-27 12:24:14.59,396,-186,-2029,-75,-72,91,2,572,-570,-287
,1106,2023-10-27 12:24:14.60,394,-180,-2036,-79,-77,89,-202,698,-900,-248
,1107,2023-10-27 12:24:14.61,388,-184,-2033,-77,-79,86,14,575,-561,-294
,1108,2023-10-27 12:24:14.62,384,-185,-2035,-77,-79,81,-196,690,-886,-247
,1109,2023-10-27 12:24:14.63,376,-183,-2024,-73,-94,81,17,582,-565,-299
,1110,2023-10-27 12:24:14.64,371,-176,-2021,-72,-94,80,-204,681,-885,-238
,1111,2023-10-27 12:24:14.65,369,-175,-2029,-72,-96,76,18,590,-572,-304
,1112,2023-10-27 12:24:14.66,369,-172,-2028,-74,-94,78,-207,679,-886,-236
,1113,2023-10-27 12:24:14.67,370,-175,-2026,-76,-93,74,24,590,-566,-307
,1114,2023-10-27 12:24:14.68,368,-178,-2041,-79,-91,74,-204,665,-869,-230
,1115,2023-10-27 12:24:14.69,365,-172,-2048,-76,-95,76,29,594,-565,-311
,1116,2023-10-27 12:24:14.70,337,-171,-2031,-73,-101,79,-206,666,-872,-230
,1117,2023-10-27 12:24:14.71,349,-169,-2039,-75,-99,79,40,602,-562,-321
,1118,2023-10-27 12:24:14.72,334,-171,-2039,-77,-100,80,-211,646,-857,-217
,1119,2023-10-27 12:24:14.73,344,-173,-2036,-76,-97,85,30,591,-561,-310
,1120,2023-10-27 12:24:14.74,328,-164,-2031,-73,-95,84,-223,633,-856,-205
,1121,2023-10-27 12:24:14.75,321,-166,-2028,-76,-91,85,34,596,-562,-315
,1122,2023-10-27 12:24:14.76,326,-161,-2028,-74,-91,84,-222,626,-848,-202
,1123,2023-10-27 12:24:14.77,319,-159,-2033,-71,-90,83,34,601,-567,-317
,1124,2023-10-27 12:24:14.78,317,-156,-2025,-67,-96,85,-229,612,-841,-191
,1125,2023-10-27 12:24:14.79,322,-158,-2021,-63,-101,84,33,599,-566,-316
,1126,2023-10-27 12:24:14.80,332,-145,-2019,-62,-96,81,-228,613,-841,-192
,1127,2023-10-27 12:24:14.81,317,-148,-2026,-64,-86,76,44,612,-568,-328
,1128,2023-10-27 12:24:14.82,303,-144,-2024,-65,-80,69,-227,607,-834,-190
,1129,2023-10-27 12:24:14.83,313,-140,-2022,-63,-75,63,40,619,-579,-329
,1130,2023-10-27 12:24:14.84,318,-137,-2014,-61,-69,55,-234,597,-831,-181
,1131,2023-10-27 12:24:14.85,317,-131,-2014,-60,-65,46,42,624,-582,-333
,1132,2023-10-27 12:24:14.86,320,-130,-2015,-56,-55,37,-229,596,-825,-183
,1133,2023-10-27 12:24:14.87,328,-126,-2022,-55,-48,25,49,632,-583,-340
,1134,2023-10-27 12:24:14.88,322,-129,-2034,-49,-47,17,-232,589,-821,-178
,1135,2023-10-27 12:24:14.89,321,-145,-2037,-48,-40,10,49,636,-587,-342
,1136,2023-10-27 12:24:14.90,310,-140,-2049,-42,-45,5,-219,586,-805,-183
,1137,2023-10-27 12:24:14.91,314,-145,-2058,-40,-41,4,52,636,-584,-344
,1138,2023-10-27 12:24:14.92,299,-147,-2068,-34,-49,3,-234,576,-810,-171
,1139,2023-10-27 12:24:14.93,300,-149,-2060,-32,-60,3,43,634,-591,-338
,1140,2023-10-27 12:24:14.94,297,-137,-2057,-32,-67,7,-231,568,-799,-168
,1141,2023-10-27 12:24:14.95,297,-144,-2040,-29,-68,8,54,650,-596,-352
,1142,2023-10-27 12:24:14.96,290,-140,-2042,-29,-71,6,-236,569,-805,-166
,1143,2023-10-27 12:24:14.97,288,-141,-2031,-31,-65,7,50,658,-608,-354
,1144,2023-10-27 12:24:14.98,292,-129,-2037,-35,-66,5,-233,559,-792,-163
,1145,2023-10-27 12:24:14.99,286,-144,-2036,-34,-63,5,48,650,-602,-349
,1146,2023-10-27 12:24:15.00,288,-142,-2032,-39,-58,7,-225,554,-779,-164
,1147,2023-10-27 12:24:15.01,294,-130,-2025,-44,-52,6,59,668,-609,-363
,1148,2023-10-27 12:24:15.02,292,-137,-2031,-44,-45,8,-225,553,-778,-164
,1149,2023-10-27 12:24:15.03,280,-139,-2026,-44,-42,8,61,673,-612,-367
,1150,2023-10-27 12:24:15.04,287,-135,-2036,-45,-36,11,-226,543,-769,-158
,1151,2023-10-27 12:24:15.05,289,-128,-2035,-48,-31,11,60,677,-617,-368
,1152,2023-10-27 12:24:15.06,292,-130,-2042,-44,-25,11,-222,534,-756,-156
,1153,2023-10-27 12:24:15.07,293,-124,-2043,-42,-22,9,61,680,-619,-370
,1154,2023-10-27 12:24:15.08,270,-120,-2039,-46,-21,14,-220,537,-757,-158
,1155,2023-10-27 12:24:15.09,276,-118,-2038,-45,-22,14,66,692,-626,-379
,1156,2023-10-27 12:24:15.10,290,-112,-2044,-45,-25,12,-213,533,-746,-160
,1157,2023-10-27 12:24:15.11,283,-119,-2045,-44,-25,16,67,693,-626,-380
,1158,2023-10-27 12:24:15.12,294,-114,-2044,-46,-25,15,-212,523,-735,-155
,1159,2023-10-27 12:24:15.13,296,-116,-2046,-42,-28,16,66,696,-630,-381
,1160,2023-10-27 12:24:15.14,291,-110,-2045,-40,-27,15,-212,528,-740,-158
,1161,2023-10-27 12:24:15.15,299,-107,-2043,-37,-23,13,59,707,-648,-383
,1162,2023-10-27 12:24:15.16,281,-108,-2039,-35,-16,11,-214,519,-733,-152
,1163,2023-10-27 12:24:15.17,285,-110,-2045,-29,-12,11,59,702,-643,-380
,1164,2023-10-27 12:24:15.18,276,-117,-2046,-25,-9,12,-207,513,-720,-153
,1165,2023-10-27 12:24:15.19,286,-111,-2045,-20,-12,11,65,711,-646,-388
,1166,2023-10-27 12:24:15.20,281,-113,-2052,-12,-20,15,-200,513,-713,-156
,1167,2023-10-27 12:24:15.21,286,-114,-2046,-10,-26,18,64,714,-650,-389
,1168,2023-10-27 12:24:15.22,277,-113,-2043,-4,-30,20,-198,506,-704,-154
,1169,2023-10-27 12:24:15.23,286,-103,-2028,-4,-27,18,57,715,-658,-386
,1170,2023-10-27 12:24:15.24,281,-109,-2046,-4,-23,20,-198,506,-704,-154
,1171,2023-10-27 12:24:15.25,276,-110,-2045,-5,-21,22,60,720,-660,-390
,1172,2023-10-27 12:24:15.26,278,-114,-2051,-6,-24,25,-188,502,-690,-157
,1173,2023-10-27 12:24:15.27,268,-120,-2049,-3,-22,28,57,722,-665,-389
,1174,2023-10-27 12:24:15.28,279,-115,-2051,0,-27,33,-186,497,-683,-155
,1175,2023-10-27 12:24:15.29,272,-115,-2040,3,-32,36,53,724,-671,-388
,1176,2023-10-27 12:24:15.30,276,-113,-2049,3,-31,39,-186,492,-678,-153
,1177,2023-10-27 12:24:15.31,267,-114,-2041,-1,-31,40,65,739,-674,-402
,1178,2023-10-27 12:24:15.32,286,-110,-2035,-2,-29,42,-178,491,-669,-156
,1179,2023-10-27 12:24:15.33,275,-114,-2042,3,-25,41,50,730,-680,-390
,1180,2023-10-27 12:24:15.34,278,-105,-2031,0,-29,42,-181,475,-656,-147
,1181,2023-10-27 12:24:15.35,269,-117,-2047,-1,-27,41,50,735,-685,-392
,1182,2023-10-27 12:24:15.36,275,-114,-2056,1,-28,43,-165,486,-651,-160
,1183,2023-10-27 12:24:15.37,271,-113,-2048,3,-28,43,54,736,-682,-395
,1184,2023-10-27 12:24:15.38,265,-102,-2042,4,-27,41,-159,483,-642,-162
,1185,2023-10-27 12:24:15.39,269,-111,-2035,0,-24,39,48,738,-690,-393
,1186,2023-10-27 12:24:15.40,268,-115,-2035,0,-20,39,-165,475,-640,-155
,1187,2023-10-27 12:24:15.41,262,-115,-2043,1,-26,40,38,739,-701,-388
,1188,2023-10-27 12:24:15.42,281,-112,-2032,4,-21,41,-160,476,-636,-158
,1189,2023-10-27 12:24:15.43,266,-115,-2045,2,-20,40,38,738,-700,-388
,1190,2023-10-27 12:24:15.44,264,-109,-2047,-3,-18,39,-146,474,-620,-164
,1191,2023-10-27 12:24:15.45,273,-111,-2044,-1,-20,35,39,738,-699,-388
,1192,2023-10-27 12:24:15.46,269,-113,-2044,0,-17,36,-144,472,-616,-164
,1193,2023-10-27 12:24:15.47,269,-108,-2045,1,-17,38,32,741,-709,-386
,1194,2023-10-27 12:24:15.48,271,-113,-2042,0,-20,37,-133,473,-606,-170
,1195,2023-10-27 12:24:15.49,269,-117,-2048,3,-22,39,44,747,-703,-395
,1196,2023-10-27 12:24:15.50,267,-107,-2038,1,-26,42,-119,473,-592,-177
,1197,2023-10-27 12:24:15.51,265,-110,-2045,3,-31,42,41,744,-703,-392
,1198,2023-10-27 12:24:15.52,270,-111,-2046,1,-27,43,-112,471,-583,-179
,1199,2023-10-27 12:24:15.53,263,-112,-2046,1,-26,40,34,746,-712,-390
,1200,2023-10-27 12:24:15.54,263,-109,-2046,-5,-26,40,-109,469,-578,-180
,1201,2023-10-27 12:24:15.55,268,-109,-2038,-4,-29,41,28,744,-716,-386
,1202,2023-10-27 12:24:15.56,260,-112,-2035,-5,-25,40,-108,467,-575,-179
,1203,2023-10-27 12:24:15.57,273,-102,-2038,-4,-24,37,27,742,-715,-384
,1204,2023-10-27 12:24:15.58,262,-107,-2038,-6,-17,38,-91,469,-560,-189
,1205,2023-10-27 12:24:15.59,270,-104,-2036,-7,-21,38,30,746,-716,-388
,1206,2023-10-27 12:24:15.60,265,-106,-2050,-6,-24,37,-80,470,-550,-195
,1207,2023-10-27 12:24:15.61,263,-111,-2060,-3,-29,37,30,745,-715,-387
,1208,2023-10-27 12:24:15.62,257,-117,-2064,-4,-31,38,-75,470,-545,-197
,1209,2023-10-27 12:24:15.63,254,-115,-2055,-8,-32,35,16,748,-732,-382
,1210,2023-10-27 12:24:15.64,259,-107,-2044,-2,-50,34,-76,470,-546,-197
,1211,2023-10-27 12:24:15.65,251,-100,-2040,-1,-44,34,11,744,-733,-377
,1212,2023-10-27 12:24:15.66,254,-107,-2047,2,-43,38,-63,468,-531,-202
,1213,2023-10-27 12:24:15.67,247,-105,-2051,2,-49,35,14,742,-728,-378
,1214,2023-10-27 12:24:15.68,252,-114,-2047,3,-50,35,-58,467,-525,-204
,1215,2023-10-27 12:24:15.69,260,-105,-2043,1,-51,36,3,738,-735,-370
,1216,2023-10-27 12:24:15.70,253,-117,-2042,-2,-50,38,-53,471,-524,-209
,1217,2023-10-27 12:24:15.71,242,-117,-2052,-2,-50,41,5,744,-739,-374
,1218,2023-10-27 12:24:15.72,244,-119,-2053,2,-57,44,-30,487,-517,-228
,1219,2023-10-27 12:24:15.73,242,-121,-2043,2,-57,51,4,744,-740,-374
,1220,2023-10-27 12:24:15.74,239,-114,-2048,-1,-57,55,-34,475,-509,-220
,1221,2023-10-27 12:24:15.75,236,-123,-2039,-6,-51,61,-6,730,-736,-362
,1222,2023-10-27 12:24:15.76,246,-115,-2050,-3,-53,65,-23,480,-503,-228
,1223,2023-10-27 12:24:15.77,231,-116,-2054,0,-52,70,4,743,-739,-373
,1224,2023-10-27 12:24:15.78,232,-110,-2042,3,-58,74,-19,475,-494,-228
,1225,2023-10-27 12:24:15.79,235,-111,-2042,3,-54,74,3,739,-736,-371
,1226,2023-10-27 12:24:15.80,239,-117,-2054,0,-55,76,0,482,-482,-241
,1227,2023-10-27 12:24:15.81,207,-117,-2038,4,-55,79,-3,739,-742,-368
,1228,2023-10-27 12:24:15.82,226,-111,-2052,2,-61,82,1,486,-485,-243
,1229,2023-10-27 12:24:15.83,230,-104,-2043,-7,-60,84,-9,737,-746,-364
,1230,2023-10-27 12:24:15.84,225,-107,-2046,-10,-58,82,10,480,-470,-245
,1231,2023-10-27 12:24:15.85,226,-101,-2047,-14,-56,78,-10,736,-746,-363
,1232,2023-10-27 12:24:15.86,230,-106,-2045,-18,-54,76,17,487,-470,-252
,1233,2023-10-27 12:24:15.87,217,-107,-2049,-18,-55,71,-19,734,-753,-357
,1234,2023-10-27 12:24:15.88,230,-111,-2061,-16,-54,67,20,486,-466,-253
,1235,2023-10-27 12:24:15.89,225,-97,-2049,-16,-60,67,-16,728,-744,-356
,1236,2023-10-27 12:24:15.90,231,-100,-2047,-20,-59,61,39,494,-455,-266
,1237,2023-10-27 12:24:15.91,215,-104,-2050,-23,-60,61,-5,728,-733,-361
,1238,2023-10-27 12:24:15.92,219,-106,-2054,-19,-60,59,57,496,-439,-276
,1239,2023-10-27 12:24:15.93,217,-107,-2065,-18,-62,59,-8,723,-731,-357
,1240,2023-10-27 12:24:15.94,206,-104,-2051,-17,-65,59,55,497,-442,-276
,1241,2023-10-27 12:24:15.95,211,-102,-2044,-18,-61,57,-23,719,-742,-348
,1242,2023-10-27 12:24:15.96,211,-105,-2037,-17,-60,55,58,502,-444,-280
,1243,2023-10-27 12:24:15.97,212,-110,-2043,-15,-56,58,-22,717,-739,-347
,1244,2023-10-27 12:24:15.98,209,-114,-2060,-14,-58,56,73,507,-434,-290
,1245,2023-10-27 12:24:15.99,199,-107,-2052,-10,-57,58,-26,710,-736,-342
,1246,2023-10-27 12:24:16.00,210,-101,-2045,-10,-57,58,76,508,-432,-292
,1247,2023-10-27 12:24:16.01,204,-101,-2041,-11,-53,57,-31,706,-737,-337
,1248,2023-10-27 12:24:16.02,202,-97,-2047,-13,-47,53,88,514,-426,-301
,1249,2023-10-27 12:24:16.03,206,-95,-2040,-15,-38,48,-29,704,-733,-337
,1250,2023-10-27 12:24:16.04,205,-99,-2045,-15,-35,47,94,522,-428,-308
,1251,2023-10-27 12:24:16.05,191,-97,-2052,-12,-39,44,-34,698,-732,-332
,1252,2023-10-27 12:24:16.06,199,-101,-2047,-10,-43,45,96,521,-425,-308
,1253,2023-10-27 12:24:16.07,196,-93,-2051,-11,-43,46,-36,696,-732,-330
,1254,2023-10-27 12:24:16.08,199,-91,-2043,-10,-43,41,110,530,-420,-320
,1255,2023-10-27 12:24:16.09,193,-91,-2046,-13,-42,41,-32,697,-729,-332
,1256,2023-10-27 12:24:16.10,194,-82,-2049,-12,-44,38,118,539,-421,-328
,1257,2023-10-27 12:24:16.11,189,-88,-2052,-14,-48,34,-36,694,-730,-329
,1258,2023-10-27 12:24:16.12,188,-101,-2059,-13,-48,32,124,548,-424,-336
,1259,2023-10-27 12:24:16.13,186,-99,-2049,-6,-51,32,-25,698,-723,-336
,1260,2023-10-27 12:24:16.14,190,-90,-2058,-6,-57,31,138,542,-404,-340
,1261,2023-10-27 12:24:16.15,191,-89,-2049,-9,-60,31,-36,678,-714,-321
,1262,2023-10-27 12:24:16.16,185,-97,-2050,-10,-57,30,134,541,-407,-337
,1263,2023-10-27 12:24:16.17,188,-106,-2056,-11,-61,33,-36,677,-713,-320
,1264,2023-10-27 12:24:16.18,176,-91,-2060,-11,-67,32,148,560,-412,-354
,1265,2023-10-27 12:24:16.19,187,-90,-2057,-13,-71,33,-42,662,-704,-310
,1266,2023-10-27 12:24:16.20,196,-87,-2063,-10,-72,34,156,563,-407,-359
,1267,2023-10-27 12:24:16.21,169,-91,-2057,-13,-76,31,-35,667,-702,-316
,1268,2023-10-27 12:24:16.22,167,-90,-2045,-13,-84,33,162,573,-411,-367
,1269,2023-10-27 12:24:16.23,179,-78,-2068,-12,-90,33,-36,661,-697,-312
,1270,2023-10-27 12:24:16.24,187,-75,-2044,-12,-99,34,175,582,-407,-378
,1271,2023-10-27 12:24:16.25,186,-92,-2052,-6,-106,36,-40,657,-697,-308
,1272,2023-10-27 12:24:16.26,165,-82,-2050,-13,-97,33,178,583,-405,-380
,1273,2023-10-27 12:24:16.27,179,-88,-2072,-21,-100,36,-38,645,-683,-303
,1274,2023-10-27 12:24:16.28,157,-93,-2051,-24,-109,35,186,586,-400,-386
,1275,2023-10-27 12:24:16.29,173,-91,-2044,-11,-114,35,-44,637,-681,-296
,1276,2023-10-27 12:24:16.30,174,-91,-2051,-3,-108,38,187,589,-402,-388
,1277,2023-10-27 12:24:16.31,159,-90,-2050,-6,-95,37,-50,633,-683,-291
,1278,2023-10-27 12:24:16.32,163,-87,-2059,-15,-84,41,187,600,-413,-393
,1279,2023-10-27 12:24:16.33,159,-96,-2038,-24,-73,41,-51,628,-679,-288
,1280,2023-10-27 12:24:16.34,153,-100,-2051,-19,-78,47,192,606,-414,-399
,1281,2023-10-27 12:24:16.35,146,-94,-2040,-11,-76,50,-44,626,-670,-291
,1282,2023-10-27 12:24:16.36,139,-87,-2037,-14,-62,54,214,613,-399,-413
,1283,2023-10-27 12:24:16.37,144,-82,-2046,-18,-57,55,-27,624,-651,-298
,1284,2023-10-27 12:24:16.38,131,-84,-2041,-24,-48,53,232,623,-391,-427
,1285,2023-10-27 12:24:16.39,141,-76,-2037,-30,-50,54,-18,617,-635,-299
,1286,2023-10-27 12:24:16.40,139,-80,-2044,-36,-38,51,239,626,-387,-432
,1287,2023-10-27 12:24:16.41,131,-78,-2046,-40,-28,49,-16,608,-624,-296
,1288,2023-10-27 12:24:16.42,133,-67,-2042,-43,-19,44,249,629,-380,-439
,1289,2023-10-27 12:24:16.43,133,-75,-2052,-48,-18,41,-9,605,-614,-298
,1290,2023-10-27 12:24:16.44,144,-64,-2044,-46,-13,35,253,639,-386,-446
,1291,2023-10-27 12:24:16.45,148,-60,-2045,-44,-5,30,-10,598,-608,-294
,1292,2023-10-27 12:24:16.46,150,-56,-2053,-47,3,20,258,646,-388,-452
,1293,2023-10-27 12:24:16.47,141,-53,-2053,-47,5,13,-7,596,-603,-294
,1294,2023-10-27 12:24:16.48,149,-47,-2049,-45,7,6,269,648,-379,-458
,1295,2023-10-27 12:24:16.49,139,-53,-2046,-44,13,-2,-6,583,-589,-288
,1296,2023-10-27 12:24:16.50,143,-56,-2055,-43,13,-11,270,654,-384,-462
,1297,2023-10-27 12:24:16.51,139,-54,-2053,-40,15,-18,-6,582,-588,-288
,1298,2023-10-27 12:24:16.52,145,-54,-2050,-37,9,-22,280,664,-384,-472
,1299,2023-10-27 12:24:16.53,129,-50,-2048,-34,11,-27,0,578,-578,-289
,1300,2023-10-27 12:24:16.54,158,-53,-2048,-36,18,-34,290,679,-389,-484
,1301,2023-10-27 12:24:16.55,148,-52,-2050,-33,22,-37,-3,570,-573,-283
,1302,2023-10-27 12:24:16.56,145,-53,-2048,-28,25,-43,279,673,-394,-476
,1303,2023-10-27 12:24:16.57,148,-55,-2044,-26,29,-46,-10,555,-565,-272
,1304,2023-10-27 12:24:16.58,149,-64,-2046,-26,31,-48,281,676,-395,-478
,1305,2023-10-27 12:24:16.59,146,-69,-2058,-23,31,-48,-12,562,-574,-275
,1306,2023-10-27 12:24:16.60,137,-68,-2058,-16,30,-45,271,673,-402,-472
,1307,2023-10-27 12:24:16.61,156,-68,-2058,-11,27,-38,-11,551,-562,-270
,1308,2023-10-27 12:24:16.62,155,-72,-2059,-5,23,-34,284,681,-397,-482
,1309,2023-10-27 12:24:16.63,144,-69,-2065,1,20,-28,-5,545,-550,-270
,1310,2023-10-27 12:24:16.64,145,-65,-2062,4,16,-21,293,690,-397,-491
,1311,2023-10-27 12:24:16.65,156,-59,-2062,9,13,-16,-2,541,-543,-269
,1312,2023-10-27 12:24:16.66,158,-61,-2050,12,14,-14,293,694,-401,-493
,1313,2023-10-27 12:24:16.67,164,-59,-2055,14,16,-12,-6,538,-544,-266
,1314,2023-10-27 12:24:16.68,154,-64,-2068,17,15,-11,288,699,-411,-493
,1315,2023-10-27 12:24:16.69,152,-68,-2056,27,13,-9,0,528,-528,-264
,1316,2023-10-27 12:24:16.70,147,-62,-2046,29,10,-6,296,700,-404,-498
,1317,2023-10-27 12:24:16.71,148,-65,-2049,35,4,-4,-2,530,-532,-264
,1318,2023-10-27 12:24:16.72,146,-67,-2063,40,1,-5,288,707,-419,-497
,1319,2023-10-27 12:24:16.73,144,-67,-2062,42,-6,-2,-7,521,-528,-257
,1320,2023-10-27 12:24:16.74,162,-67,-2059,48,-9,-2,285,706,-421,-495
,1321,2023-10-27 12:24:16.75,154,-65,-2057,52,-9,0,-7,517,-524,-255
,1322,2023-10-27 12:24:16.76,166,-58,-2053,52,1,-2,286,710,-424,-498
,1323,2023-10-27 12:24:16.77,160,-63,-2049,48,4,-4,-4,515,-519,-255
,1324,2023-10-27 12:24:16.78,144,-67,-2048,47,7,-7,282,718,-436,-500
,1325,2023-10-27 12:24:16.79,146,-64,-2040,44,9,-6,-6,511,-517,-252
,1326,2023-10-27 12:24:16.80,153,-65,-2042,42,8,-6,284,719,-435,-501
,1327,2023-10-27 12:24:16.81,153,-70,-2045,36,13,-4,-2,508,-510,-253
,1328,2023-10-27 12:24:16.82,153,-65,-2042,28,12,-5,280,726,-446,-503
,1329,2023-10-27 12:24:16.83,140,-67,-2043,22,12,-5,-2,504,-506,-251
,1330,2023-10-27 12:24:16.84,152,-69,-2044,16,24,-6,280,725,-445,-502
,1331,2023-10-27 12:24:16.85,150,-66,-2050,16,21,-7,3,495,-492,-249
,1332,2023-10-27 12:24:16.86,152,-59,-2047,7,25,-9,283,725,-442,-504
,1333,2023-10-27 12:24:16.87,160,-74,-2052,7,25,-11,6,500,-494,-253
,1334,2023-10-27 12:24:16.88,156,-68,-2049,1,36,-11,277,734,-457,-505
,1335,2023-10-27 12:24:16.89,152,-73,-2048,2,31,-9,7,492,-485,-249
,1336,2023-10-27 12:24:16.90,145,-70,-2050,1,38,-9,274,732,-458,-503
,1337,2023-10-27 12:24:16.91,139,-67,-2046,-2,44,-13,1,494,-493,-247
,1338,2023-10-27 12:24:16.92,148,-64,-2036,-9,49,-16,264,737,-473,-500
,1339,2023-10-27 12:24:16.93,164,-55,-2042,-7,48,-16,10,486,-476,-248
,1340,2023-10-27 12:24:16.94,146,-66,-2053,-12,58,-17,271,735,-464,-503
,1341,2023-10-27 12:24:16.95,162,-51,-2041,-19,56,-20,22,493,-471,-257
,1342,2023-10-27 12:24:16.96,157,-53,-2044,-22,63,-23,275,738,-463,-506
,1343,2023-10-27 12:24:16.97,174,-51,-2047,-21,62,-27,25,482,-457,-253
,1344,2023-10-27 12:24:16.98,164,-50,-2049,-24,61,-28,265,734,-469,-499
,1345,2023-10-27 12:24:16.99,171,-51,-2035,-20,57,-33,20,480,-460,-250
,1346,2023-10-27 12:24:17.00,168,-62,-2038,-26,66,-36,260,744,-484,-502
,1347,2023-10-27 12:24:17.01,151,-61,-2051,-24,61,-38,25,483,-458,-254
,1348,2023-10-27 12:24:17.02,174,-55,-2062,-23,58,-40,256,745,-489,-500
,1349,2023-10-27 12:24:17.03,168,-60,-2054,-19,60,-41,27,480,-453,-253
,1350,2023-10-27 12:24:17.04,164,-54,-2049,-20,63,-44,236,727,-491,-481
,1351,2023-10-27 12:24:17.05,168,-51,-2054,-22,61,-48,28,471,-443,-249
,1352,2023-10-27 12:24:17.06,178,-53,-2052,-23,61,-49,250,742,-492,-496
,1353,2023-10-27 12:24:17.07,173,-51,-2048,-20,67,-51,39,475,-436,-257
,1354,2023-10-27 12:24:17.08,168,-54,-2054,-20,71,-52,244,744,-500,-494
,1355,2023-10-27 12:24:17.09,169,-57,-2047,-20,61,-55,38,472,-434,-255
,1356,2023-10-27 12:24:17.10,175,-53,-2051,-20,68,-56,235,743,-508,-489
,1357,2023-10-27 12:24:17.11,195,-49,-2048,-15,57,-54,39,470,-431,-254
,1358,2023-10-27 12:24:17.12,187,-51,-2047,-16,72,-58,232,745,-513,-488
,1359,2023-10-27 12:24:17.13,178,-49,-2050,-19,72,-60,44,470,-426,-257
,1360,2023-10-27 12:24:17.14,188,-45,-2064,-17,65,-62,223,743,-520,-483
,1361,2023-10-27 12:24:17.15,193,-57,-2057,-12,58,-62,47,463,-416,-255
,1362,2023-10-27 12:24:17.16,175,-56,-2062,-12,63,-57,221,740,-519,-480
,1363,2023-10-27 12:24:17.17,183,-52,-2058,-13,51,-57,55,468,-413,-261
,1364,2023-10-27 12:24:17.18,183,-51,-2054,-12,54,-55,218,745,-527,-481
,1365,2023-10-27 12:24:17.19,197,-46,-2051,-11,51,-52,60,466,-406,-263
,1366,2023-10-27 12:24:17.20,182,-42,-2052,-10,48,-53,209,743,-534,-476
,1367,2023-10-27 12:24:17.21,191,-46,-2044,-12,53,-54,61,462,-401,-261
,1368,2023-10-27 12:24:17.22,179,-45,-2051,-10,50,-58,203,745,-542,-474
,1369,2023-10-27 12:24:17.23,178,-45,-2043,-14,59,-61,69,471,-402,-270
,1370,2023-10-27 12:24:17.24,190,-47,-2041,-13,61,-63,196,742,-546,-469
,1371,2023-10-27 12:24:17.25,190,-47,-2047,-11,61,-63,70,467,-397,-268
,1372,2023-10-27 12:24:17.26,184,-46,-2040,-13,64,-68,195,740,-545,-467
,1373,2023-10-27 12:24:17.27,194,-56,-2053,-7,72,-67,85,471,-386,-278
,1374,2023-10-27 12:24:17.28,178,-54,-2061,-3,69,-69,192,741,-549,-466
,1375,2023-10-27 12:24:17.29,188,-56,-2061,-2,59,-64,87,473,-386,-280
,1376,2023-10-27 12:24:17.30,179,-54,-2058,4,58,-63,180,738,-558,-459
,1377,2023-10-27 12:24:17.31,187,-47,-2058,4,55,-58,93,466,-373,-279
,1378,2023-10-27 12:24:17.32,179,-55,-2056,3,56,-58,180,734,-554,-457
,1379,2023-10-27 12:24:17.33,191,-54,-2048,1,51,-56,99,473,-374,-286
,1380,2023-10-27 12:24:17.34,192,-55,-2050,1,52,-51,176,738,-562,-457
,1381,2023-10-27 12:24:17.35,197,-50,-2045,1,60,-49,106,471,-365,-288
,1382,2023-10-27 12:24:17.36,204,-57,-2040,-1,59,-47,171,740,-569,-455
,1383,2023-10-27 12:24:17.37,201,-57,-2042,-2,66,-44,108,468,-360,-288
,1384,2023-10-27 12:24:17.38,192,-60,-2039,0,67,-38,159,727,-568,-443
,1385,2023-10-27 12:24:17.39,204,-56,-2044,5,68,-33,116,469,-353,-292
,1386,2023-10-27 12:24:17.40,200,-74,-2056,5,65,-25,156,729,-573,-442
,1387,2023-10-27 12:24:17.41,206,-72,-2069,7,60,-16,118,475,-357,-296
,1388,2023-10-27 12:24:17.42,205,-72,-2059,13,55,-7,148,726,-578,-437
,1389,2023-10-27 12:24:17.43,208,-53,-2059,15,55,2,123,476,-353,-299
,1390,2023-10-27 12:24:17.44,219,-54,-2053,14,60,8,142,723,-581,-432
,1391,2023-10-27 12:24:17.45,221,-49,-2054,12,63,10,124,466,-342,-295
,1392,2023-10-27 12:24:17.46,215,-54,-2053,16,64,14,140,722,-582,-431
,1393,2023-10-27 12:24:17.47,222,-57,-2060,15,55,21,139,483,-344,-311
,1394,2023-10-27 12:24:17.48,208,-59,-2060,22,48,26,135,717,-582,-426
,1395,2023-10-27 12:24:17.49,222,-57,-2059,19,40,32,150,485,-335,-317
,1396,2023-10-27 12:24:17.50,216,-55,-2060,17,32,36,130,714,-584,-422
,1397,2023-10-27 12:24:17.51,221,-53,-2066,14,25,42,155,493,-338,-324
,1398,2023-10-27 12:24:17.52,218,-44,-2062,9,17,45,118,709,-591,-413
,1399,2023-10-27 12:24:17.53,224,-46,-2063,3,15,46,157,494,-337,-325
,1400,2023-10-27 12:24:17.54,231,-42,-2058,1,13,45,117,707,-590,-412
,1401,2023-10-27 12:24:17.55,216,-45,-2054,-4,12,47,173,502,-329,-337
,1402,2023-10-27 12:24:17.56,219,-42,-2054,-9,9,46,111,708,-597,-409
,1403,2023-10-27 12:24:17.57,227,-44,-2046,-13,15,44,166,505,-339,-335
,1404,2023-10-27 12:24:17.58,214,-36,-2052,-16,18,44,96,697,-601,-396
,1405,2023-10-27 12:24:17.59,237,-35,-2042,-23,13,43,169,504,-335,-336
,1406,2023-10-27 12:24:17.60,232,-38,-2039,-27,20,39,92,692,-600,-392
,1407,2023-10-27 12:24:17.61,232,-35,-2051,-31,23,41,182,509,-327,-345
,1408,2023-10-27 12:24:17.62,226,-35,-2047,-34,21,39,85,694,-609,-389
,1409,2023-10-27 12:24:17.63,229,-32,-2051,-36,20,36,183,519,-336,-351
,1410,2023-10-27 12:24:17.64,232,-35,-2053,-37,18,36,78,685,-607,-381
,1411,2023-10-27 12:24:17.65,235,-34,-2053,-40,19,36,186,519,-333,-352
,1412,2023-10-27 12:24:17.66,227,-23,-2049,-41,17,33,74,679,-605,-376
,1413,2023-10-27 12:24:17.67,228,-20,-2038,-45,16,32,198,527,-329,-362
,1414,2023-10-27 12:24:17.68,222,-25,-2050,-46,21,28,70,681,-611,-375
,1415,2023-10-27 12:24:17.69,227,-28,-2054,-46,14,27,200,538,-338,-369
,1416,2023-10-27 12:24:17.70,231,-20,-2042,-46,13,23,65,672,-607,-368
,1417,2023-10-27 12:24:17.71,226,-18,-2044,-44,17,18,208,539,-331,-373
,1418,2023-10-27 12:24:17.72,229,-13,-2038,-43,21,16,65,669,-604,-367
,1419,2023-10-27 12:24:17.73,237,-12,-2040,-46,28,10,223,549,-326,-386
,1420,2023-10-27 12:24:17.74,242,-17,-2039,-45,35,7,55,662,-607,-358
,1421,2023-10-27 12:24:17.75,235,-9,-2040,-44,42,3,221,554,-333,-387
,1422,2023-10-27 12:24:17.76,235,-24,-2053,-42,41,-1,50,660,-610,-355
,1423,2023-10-27 12:24:17.77,229,-24,-2047,-40,42,2,235,574,-339,-404
,1424,2023-10-27 12:24:17.78,225,-21,-2046,-37,44,4,49,656,-607,-352
,1425,2023-10-27 12:24:17.79,236,-16,-2049,-41,42,9,241,568,-327,-404
,1426,2023-10-27 12:24:17.80,233,-15,-2040,-43,44,9,55,643,-588,-349
,1427,2023-10-27 12:24:17.81,236,-13,-2034,-47,51,11,242,571,-329,-406
,1428,2023-10-27 12:24:17.82,239,-18,-2034,-45,54,14,42,644,-602,-343
,1429,2023-10-27 12:24:17.83,236,-12,-2025,-47,64,12,239,573,-334,-406
,1430,2023-10-27 12:24:17.84,232,-12,-2030,-49,71,10,23,635,-612,-329
,1431,2023-10-27 12:24:17.85,235,-13,-2033,-49,85,11,233,583,-350,-408
,1432,2023-10-27 12:24:17.86,248,-14,-2037,-48,88,9,8,623,-615,-315
,1433,2023-10-27 12:24:17.87,244,-12,-2037,-48,100,10,221,584,-363,-402
,1434,2023-10-27 12:24:17.88,249,-1,-2041,-50,104,7,-16,615,-631,-299
,1435,2023-10-27 12:24:17.89,248,1,-2036,-53,114,6,218,595,-377,-406
,1436,2023-10-27 12:24:17.90,263,-5,-2026,-53,123,2,-15,621,-636,-303
,1437,2023-10-27 12:24:17.91,265,4,-2037,-57,131,-2,232,608,-376,-420
,1438,2023-10-27 12:24:17.92,277,15,-2042,-57,138,-6,-9,618,-627,-304
,1439,2023-10-27 12:24:17.93,274,6,-2038,-60,143,-12,235,616,-381,-425
,1440,2023-10-27 12:24:17.94,269,13,-2041,-59,145,-14,0,616,-616,-308
,1441,2023-10-27 12:24:17.95,273,13,-2045,-63,148,-14,258,627,-369,-442
,1442,2023-10-27 12:24:17.96,279,15,-2049,-64,149,-17,10,619,-609,-314
,1443,2023-10-27 12:24:17.97,289,19,-2050,-62,138,-22,264,639,-375,-451
,1444,2023-10-27 12:24:17.98,285,12,-2052,-65,139,-21,17,616,-599,-316
,1445,2023-10-27 12:24:17.99,296,29,-2049,-65,137,-23,285,651,-366,-468
,1446,2023-10-27 12:24:18.00,293,18,-2047,-61,124,-25,26,620,-594,-323
,1447,2023-10-27 12:24:18.01,304,30,-2047,-57,123,-27,289,660,-371,-474
,1448,2023-10-27 12:24:18.02,279,17,-2049,-52,110,-26,30,613,-583,-321
,1449,2023-10-27 12:24:18.03,305,26,-2062,-45,101,-30,296,668,-372,-482
,1450,2023-10-27 12:24:18.04,297,20,-2065,-38,92,-30,31,608,-577,-319
,1451,2023-10-27 12:24:18.05,299,29,-2067,-32,89,-32,307,673,-366,-490
,1452,2023-10-27 12:24:18.06,316,25,-2063,-19,74,-32,39,607,-568,-323
,1453,2023-10-27 12:24:18.07,314,28,-2054,-12,65,-32,309,683,-374,-496
,1454,2023-10-27 12:24:18.08,320,25,-2052,-3,55,-31,33,602,-569,-317
,1455,2023-10-27 12:24:18.09,320,24,-2056,4,46,-33,306,686,-380,-496
,1456,2023-10-27 12:24:18.10,317,24,-2056,15,32,-32,29,595,-566,-312
,1457,2023-10-27 12:24:18.11,317,20,-2059,25,22,-29,308,693,-385,-500
,1458,2023-10-27 12:24:18.12,314,17,-2056,35,15,-26,28,590,-562,-309
,1459,2023-10-27 12:24:18.13,314,19,-2058,38,11,-25,307,696,-389,-501
,1460,2023-10-27 12:24:18.14,307,17,-2053,43,5,-19,23,582,-559,-302
,1461,2023-10-27 12:24:18.15,313,21,-2050,47,1,-14,307,700,-393,-503
,1462,2023-10-27 12:24:18.16,310,8,-2048,48,-6,-7,23,577,-554,-300
,1463,2023-10-27 12:24:18.17,303,10,-2044,49,-10,0,306,702,-396,-504
,1464,2023-10-27 12:24:18.18,312,12,-2053,49,-15,8,20,577,-557,-298
,1465,2023-10-27 12:24:18.19,308,13,-2050,44,-17,14,298,701,-403,-499
,1466,2023-10-27 12:24:18.20,312,9,-2044,42,-18,19,12,558,-546,-285
,1467,2023-10-27 12:24:18.21,295,14,-2042,39,-16,25,302,703,-401,-502
,1468,2023-10-27 12:24:18.22,298,13,-2047,35,-20,28,11,557,-546,-284
,1469,2023-10-27 12:24:18.23,310,15,-2049,36,-23,30,297,712,-415,-504
,1470,2023-10-27 12:24:18.24,311,18,-2043,32,-26,30,-1,541,-542,-270
,1471,2023-10-27 12:24:18.25,303,10,-2035,34,-30,35,294,715,-421,-504
,1472,2023-10-27 12:24:18.26,301,8,-2035,36,-29,34,4,544,-540,-274
,1473,2023-10-27 12:24:18.27,298,6,-2039,40,-33,34,291,721,-430,-506
,1474,2023-10-27 12:24:18.28,290,9,-2042,40,-31,34,6,539,-533,-272
,1475,2023-10-27 12:24:18.29,302,5,-2048,41,-32,33,298,721,-423,-509
,1476,2023-10-27 12:24:18.30,292,6,-2042,42,-30,32,3,527,-524,-265
,1477,2023-10-27 12:24:18.31,306,5,-2043,45,-30,30,290,719,-429,-504
,1478,2023-10-27 12:24:18.32,301,3,-2046,49,-32,29,0,519,-519,-259
,1479,2023-10-27 12:24:18.33,301,9,-2048,50,-35,30,282,722,-440,-502
,1480,2023-10-27 12:24:18.34,294,10,-2053,50,-35,28,-4,513,-517,-254
,1481,2023-10-27 12:24:18.35,296,10,-2052,51,-34,26,280,728,-448,-504
,1482,2023-10-27 12:24:18.36,292,10,-2041,57,-37,20,-4,512,-516,-254
,1483,2023-10-27 12:24:18.37,296,1,-2042,63,-39,15,275,729,-454,-502
,1484,2023-10-27 12:24:18.38,287,-8,-2038,68,-39,12,-7,510,-517,-251
,1485,2023-10-27 12:24:18.39,295,-9,-2045,80,-47,13,270,732,-462,-501
,1486,2023-10-27 12:24:18.40,304,-15,-2033,90,-52,11,-4,502,-506,-249
,1487,2023-10-27 12:24:18.41,293,-17,-2039,101,-47,10,270,736,-466,-503
,1488,2023-10-27 12:24:18.42,293,-25,-2045,104,-41,10,-4,507,-511,-251
,1489,2023-10-27 12:24:18.43,297,-23,-2047,111,-37,11,261,740,-479,-500
,1490,2023-10-27 12:24:18.44,290,-28,-2045,117,-34,11,-10,500,-510,-245
,1491,2023-10-27 12:24:18.45,274,-32,-2047,119,-35,13,255,739,-484,-497
,1492,2023-10-27 12:24:18.46,271,-38,-2043,127,-39,17,0,492,-492,-246
,1493,2023-10-27 12:24:18.47,277,-33,-2048,132,-42,21,254,743,-489,-498
,1494,2023-10-27 12:24:18.48,284,-51,-2045,137,-42,26,4,499,-495,-251
,1495,2023-10-27 12:24:18.49,276,-40,-2041,147,-57,32,266,746,-480,-506
,1496,2023-10-27 12:24:18.50,267,-54,-2036,146,-54,36,16,493,-477,-254
,1497,2023-10-27 12:24:18.51,266,-51,-2035,149,-53,42,258,745,-487,-501
,1498,2023-10-27 12:24:18.52,270,-55,-2041,153,-55,46,12,490,-478,-251
,1499,2023-10-27 12:24:18.53,264,-65,-2031,156,-54,50,253,749,-496,-501
,1500,2023-10-27 12:24:18.54,269,-62,-2032,153,-34,54,12,489,-477,-250
,1501,2023-10-27 12:24:18.55,268,-75,-2033,147,-26,54,246,747,-501,-496
,1502,2023-10-27 12:24:18.56,257,-64,-2033,141,-15,60,17,482,-465,-249
,1503,2023-10-27 12:24:18.57,259,-73,-2039,142,-10,63,244,749,-505,-496
,1504,2023-10-27 12:24:18.58,255,-79,-2048,141,-5,70,22,484,-462,-253
,1505,2023-10-27 12:24:18.59,264,-91,-2055,135,-1,73,248,762,-514,-505
,1506,2023-10-27 12:24:18.60,255,-85,-2052,134,-7,77,27,485,-458,-256
,1507,2023-10-27 12:24:18.61,249,-90,-2063,132,-8,83,240,752,-512,-496
,1508,2023-10-27 12:24:18.62,252,-76,-2067,128,-14,88,34,473,-439,-253
,1509,2023-10-27 12:24:18.63,234,-81,-2061,123,-26,92,230,752,-522,-491
,1510,2023-10-27 12:24:18.64,249,-75,-2046,118,-33,97,29,478,-449,-253
,1511,2023-10-27 12:24:18.65,244,-78,-2049,113,-33,99,223,744,-521,-483
,1512,2023-10-27 12:24:18.66,260,-74,-2046,104,-44,99,39,477,-438,-258
,1513,2023-10-27 12:24:18.67,224,-65,-2038,92,-43,100,226,752,-526,-489
,1514,2023-10-27 12:24:18.68,253,-64,-2046,81,-51,98,47,471,-424,-259
,1515,2023-10-27 12:24:18.69,230,-75,-2039,72,-49,98,223,752,-529,-487
,1516,2023-10-27 12:24:18.70,245,-65,-2057,59,-49,95,52,477,-425,-264
,1517,2023-10-27 12:24:18.71,238,-73,-2051,51,-56,93,222,754,-532,-488
,1518,2023-10-27 12:24:18.72,241,-87,-2051,45,-62,91,60,474,-414,-267
,1519,2023-10-27 12:24:18.73,236,-89,-2043,47,-62,91,220,754,-534,-487
,1520,2023-10-27 12:24:18.74,246,-89,-2045,42,-65,95,65,478,-413,-271
,1521,2023-10-27 12:24:18.75,240,-105,-2032,36,-58,98,210,755,-545,-482
,1522,2023-10-27 12:24:18.76,247,-90,-2026,36,-57,100,67,472,-405,-269
,1523,2023-10-27 12:24:18.77,259,-105,-2038,35,-47,101,203,750,-547,-476
,1524,2023-10-27 12:24:18.78,253,-100,-2028,29,-31,101,71,468,-397,-269
,1525,2023-10-27 12:24:18.79,252,-106,-2014,25,-6,102,197,747,-550,-472
,1526,2023-10-27 12:24:18.80,269,-106,-2039,26,-3,105,77,475,-398,-276
,1527,2023-10-27 12:24:18.81,252,-120,-2032,25,17,106,189,748,-559,-468
,1528,2023-10-27 12:24:18.82,259,-117,-2033,31,21,107,81,473,-392,-277
,1529,2023-10-27 12:24:18.83,265,-118,-2033,30,31,108,186,748,-562,-467
,1530,2023-10-27 12:24:18.84,251,-117,-2039,29,43,113,86,472,-386,-279
,1531,2023-10-27 12:24:18.85,264,-111,-2038,29,44,116,180,748,-568,-464
,1532,2023-10-27 12:24:18.86,262,-110,-2039,33,44,116,94,474,-380,-284
,1533,2023-10-27 12:24:18.87,263,-109,-2036,38,42,117,177,747,-570,-462
,1534,2023-10-27 12:24:18.88,264,-101,-2039,41,36,118,97,472,-375,-284
,1535,2023-10-27 12:24:18.89,269,-96,-2029,40,35,116,166,740,-574,-453
,1536,2023-10-27 12:24:18.90,274,-89,-2040,40,36,110,98,475,-377,-286
,1537,2023-10-27 12:24:18.91,271,-90,-2046,35,38,105,162,741,-579,-451
,1538,2023-10-27 12:24:18.92,262,-90,-2047,38,29,98,108,476,-368,-292
,1539,2023-10-27 12:24:18.93,263,-95,-2045,33,24,93,155,738,-583,-446
,1540,2023-10-27 12:24:18.94,274,-89,-2055,31,10,88,111,479,-368,-295
,1541,2023-10-27 12:24:18.95,272,-101,-2052,29,6,85,144,736,-592,-440
,1542,2023-10-27 12:24:18.96,255,-107,-2052,30,-3,84,112,484,-372,-298
,1543,2023-10-27 12:24:18.97,260,-106,-2057,33,-10,82,136,731,-595,-433
,1544,2023-10-27 12:24:18.98,269,-112,-2064,35,-17,84,119,479,-360,-299
,1545,2023-10-27 12:24:18.99,258,-108,-2070,36,-28,84,130,724,-594,-427
,1546,2023-10-27 12:24:19.00,266,-117,-2066,40,-34,85,133,490,-357,-311
,1547,2023-10-27 12:24:19.01,263,-123,-2060,46,-43,88,123,725,-602,-424
,1548,2023-10-27 12:24:19.02,257,-113,-2064,53,-45,94,132,492,-360,-312
,1549,2023-10-27 12:24:19.03,246,-114,-2052,49,-49,97,118,721,-603,-419
,1550,2023-10-27 12:24:19.04,264,-120,-2043,44,-47,96,137,491,-354,-314
,1551,2023-10-27 12:24:19.05,255,-124,-2045,45,-36,97,104,716,-612,-410
,1552,2023-10-27 12:24:19.06,235,-122,-2042,55,-42,100,140,493,-353,-316
,1553,2023-10-27 12:24:19.07,248,-117,-2042,64,-40,102,107,717,-610,-412
,1554,2023-10-27 12:24:19.08,244,-106,-2049,58,-43,101,157,508,-351,-332
,1555,2023-10-27 12:24:19.09,247,-112,-2031,44,-32,99,92,702,-610,-397
,1556,2023-10-27 12:24:19.10,248,-109,-2031,45,-30,96,159,504,-345,-331
,1557,2023-10-27 12:24:19.11,244,-108,-2027,49,-33,94,95,707,-612,-401
,1558,2023-10-27 12:24:19.12,243,-108,-2036,52,-35,91,168,509,-341,-338
,1559,2023-10-27 12:24:19.13,247,-105,-2043,47,-36,89,94,707,-613,-400
,1560,2023-10-27 12:24:19.14,240,-119,-2029,51,-37,84,177,522,-345,-349
,1561,2023-10-27 12:24:19.15,251,-110,-2043,55,-42,81,85,704,-619,-394
,1562,2023-10-27 12:24:19.16,242,-101,-2047,55,-51,77,184,521,-337,-352
,1563,2023-10-27 12:24:19.17,241,-109,-2038,48,-51,78,83,698,-615,-390
,1564,2023-10-27 12:24:19.18,243,-111,-2046,45,-53,72,192,525,-333,-358
,1565,2023-10-27 12:24:19.19,235,-100,-2055,37,-53,70,76,692,-616,-384
,1566,2023-10-27 12:24:19.20,247,-90,-2052,39,-57,66,195,535,-340,-365
,1567,2023-10-27 12:24:19.21,239,-106,-2048,35,-60,63,70,691,-621,-380
,1568,2023-10-27 12:24:19.22,223,-110,-2065,33,-67,60,202,543,-341,-372
,1569,2023-10-27 12:24:19.23,224,-111,-2063,34,-78,60,61,686,-625,-373
,1570,2023-10-27 12:24:19.24,207,-112,-2061,36,-84,61,201,545,-344,-373
,1571,2023-10-27 12:24:19.25,208,-106,-2053,37,-94,62,53,680,-627,-366
,1572,2023-10-27 12:24:19.26,204,-107,-2053,38,-99,64,211,551,-340,-381
,1573,2023-10-27 12:24:19.27,198,-114,-2053,36,-109,68,53,671,-618,-362
,1574,2023-10-27 12:24:19.28,207,-115,-2048,32,-109,68,212,557,-345,-384
,1575,2023-10-27 12:24:19.29,201,-118,-2036,30,-103,68,32,665,-633,-348
,1576,2023-10-27 12:24:19.30,201,-118,-2034,28,-108,70,211,561,-350,-386
,1577,2023-10-27 12:24:19.31,191,-122,-2036,22,-96,72,36,662,-626,-349
,1578,2023-10-27 12:24:19.32,194,-125,-2046,16,-96,71,218,570,-352,-394
,1579,2023-10-27 12:24:19.33,188,-137,-2033,20,-91,74,21,657,-636,-339
,1580,2023-10-27 12:24:19.34,181,-131,-2041,25,-86,75,215,576,-361,-395
,1581,2023-10-27 12:24:19.35,181,-135,-2038,22,-73,78,15,647,-632,-331
,1582,2023-10-27 12:24:19.36,175,-134,-2048,19,-65,77,220,579,-359,-399
,1583,2023-10-27 12:24:19.37,186,-132,-2042,20,-58,76,11,647,-636,-329
,1584,2023-10-27 12:24:19.38,185,-123,-2044,21,-51,76,222,590,-368,-406
,1585,2023-10-27 12:24:19.39,175,-127,-2039,19,-43,76,2,641,-639,-321
,1586,2023-10-27 12:24:19.40,193,-124,-2051,15,-34,73,224,596,-372,-410
,1587,2023-10-27 12:24:19.41,184,-122,-2053,15,-35,70,-4,638,-642,-317
,1588,2023-10-27 12:24:19.42,186,-117,-2046,15,-34,65,227,599,-372,-413
,1589,2023-10-27 12:24:19.43,189,-128,-2050,9,-31,63,-4,628,-632,-312
,1590,2023-10-27 12:24:19.44,175,-130,-2056,8,-31,61,237,608,-371,-422
,1591,2023-10-27 12:24:19.45,169,-131,-2061,5,-32,57,-8,624,-632,-308
,1592,2023-10-27 12:24:19.46,176,-119,-2059,6,-35,56,235,617,-382,-426
,1593,2023-10-27 12:24:19.47,174,-121,-2053,2,-30,49,-13,619,-632,-303
,1594,2023-10-27 12:24:19.48,180,-128,-2050,-2,-29,46,238,620,-382,-429
,1595,2023-10-27 12:24:19.49,180,-127,-2046,-3,-27,43,-12,612,-624,-300
,1596,2023-10-27 12:24:19.50,178,-127,-2049,-3,-23,35,234,614,-380,-424
,1597,2023-10-27 12:24:19.51,183,-135,-2046,-5,-22,28,-13,608,-621,-297
,1598,2023-10-27 12:24:19.52,174,-139,-2059,-2,-22,26,243,635,-392,-439
,1599,2023-10-27 12:24:19.53,180,-137,-2063,3,-23,23,-23,601,-624,-289
,1600,2023-10-27 12:24:19.54,172,-130,-2055,6,-22,18,245,639,-394,-442
,1601,2023-10-27 12:24:19.55,176,-134,-2038,6,-24,13,-22,596,-618,-287
,1602,2023-10-27 12:24:19.56,188,-136,-2047,5,-12,7,246,645,-399,-445
,1603,2023-10-27 12:24:19.57,177,-138,-2035,12,-16,4,-34,588,-622,-277
,1604,2023-10-27 12:24:19.58,178,-144,-2041,19,-16,2,243,650,-407,-446
,1605,2023-10-27 12:24:19.59,188,-136,-2033,23,-12,-1,-32,581,-613,-274
,1606,2023-10-27 12:24:19.60,179,-140,-2053,27,-13,-3,250,652,-402,-451
,1607,2023-10-27 12:24:19.61,174,-135,-2049,28,-14,-3,-32,582,-614,-275
,1608,2023-10-27 12:24:19.62,169,-150,-2054,32,-22,0,249,666,-417,-457
,1609,2023-10-27 12:24:19.63,165,-158,-2068,37,-28,5,-35,569,-604,-267
,1610,2023-10-27 12:24:19.64,164,-161,-2069,41,-36,10,248,660,-412,-454
,1611,2023-10-27 12:24:19.65,174,-154,-2077,48,-47,15,-42,563,-605,-260
,1612,2023-10-27 12:24:19.66,179,-153,-2067,56,-51,21,244,667,-423,-455
,1613,2023-10-27 12:24:19.67,171,-156,-2059,54,-55,24,-47,559,-606,-256
,1614,2023-10-27 12:24:19.68,179,-146,-2057,50,-47,24,242,673,-431,-457
,1615,2023-10-27 12:24:19.69,168,-141,-2060,49,-50,29,-52,552,-604,-250
,1616,2023-10-27 12:24:19.70,167,-161,-2046,51,-59,33,240,680,-440,-460
,1617,2023-10-27 12:24:19.71,171,-150,-2047,53,-64,37,-51,548,-599,-248
,1618,2023-10-27 12:24:19.72,159,-158,-2043,47,-63,41,247,682,-435,-464
,1619,2023-10-27 12:24:19.73,157,-153,-2053,41,-60,43,-49,540,-589,-245
,1620,2023-10-27 12:24:19.74,148,-155,-2056,38,-64,45,244,683,-439,-463
,1621,2023-10-27 12:24:19.75,157,-153,-2053,37,-70,49,-51,534,-585,-241
,1622,2023-10-27 12:24:19.76,153,-156,-2054,35,-67,51,242,692,-450,-467
,1623,2023-10-27 12:24:19.77,144,-151,-2051,31,-67,53,-51,533,-584,-241
,1624,2023-10-27 12:24:19.78,156,-144,-2050,30,-66,55,246,696,-450,-471
,1625,2023-10-27 12:24:19.79,153,-144,-2043,27,-55,54,-44,527,-571,-241
,1626,2023-10-27 12:24:19.80,153,-140,-2038,22,-50,53,247,698,-451,-472
,1627,2023-10-27 12:24:19.81,141,-141,-2037,14,-41,54,-51,526,-577,-237
,1628,2023-10-27 12:24:19.82,161,-147,-2041,11,-35,51,238,715,-477,-476
,1629,2023-10-27 12:24:19.83,149,-146,-2046,7,-28,51,-50,519,-569,-234
,1630,2023-10-27 12:24:19.84,144,-150,-2049,7,-26,51,244,709,-465,-476
,1631,2023-10-27 12:24:19.85,138,-150,-2042,2,-19,49,-49,512,-561,-231
,1632,2023-10-27 12:24:19.86,140,-146,-2038,1,-15,49,241,710,-469,-475
,1633,2023-10-27 12:24:19.87,147,-152,-2043,-1,-12,51,-50,510,-560,-230
,1634,2023-10-27 12:24:19.88,143,-149,-2039,1,-15,49,235,710,-475,-472
,1635,2023-10-27 12:24:19.89,150,-142,-2040,-1,-8,47,-48,505,-553,-228
,1636,2023-10-27 12:24:19.90,157,-145,-2034,-2,-6,46,238,720,-482,-479
,1637,2023-10-27 12:24:19.91,160,-149,-2044,0,-4,45,-45,502,-547,-228
,1638,2023-10-27 12:24:19.92,146,-153,-2040,5,-5,44,238,722,-484,-480
,1639,2023-10-27 12:24:19.93,157,-144,-2041,10,-8,41,-50,495,-545,-222
,1640,2023-10-27 12:24:19.94,153,-145,-2039,10,-5,37,233,726,-493,-479
,1641,2023-10-27 12:24:19.95,145,-145,-2054,12,-8,36,-45,495,-540,-225
,1642,2023-10-27 12:24:19.96,149,-147,-2052,15,-6,33,233,731,-498,-482
,1643,2023-10-27 12:24:19.97,162,-144,-2069,21,-14,34,-47,488,-535,-220
,1644,2023-10-27 12:24:19.98,140,-148,-2064,21,-16,33,230,732,-502,-481
,1645,2023-10-27 12:24:19.99,129,-155,-2063,18,-20,33,-42,486,-528,-222
,1646,2023-10-27 12:24:20.00,145,-159,-2051,19,-24,32,229,739,-510,-484
,1647,2023-10-27 12:24:20.01,145,-147,-2054,17,-17,32,-39,488,-527,-224
,1648,2023-10-27 12:24:20.02,139,-140,-2051,9,-14,30,225,740,-515,-482
,1649,2023-10-27 12:24:20.03,153,-151,-2042,0,-20,24,-35,482,-517,-223
,1650,2023-10-27 12:24:20.04,149,-148,-2052,-9,1,25,225,739,-514,-482
,1651,2023-10-27 12:24:20.05,144,-143,-2057,-14,-7,26,-30,478,-508,-224
,1652,2023-10-27 12:24:20.06,135,-143,-2054,-22,-4,24,223,742,-519,-482
,1653,2023-10-27 12:24:20.07,142,-144,-2046,-26,-6,26,-28,474,-502,-223
,1654,2023-10-27 12:24:20.08,144,-145,-2047,-30,-5,27,221,742,-521,-481
,1655,2023-10-27 12:24:20.09,136,-142,-2051,-38,-5,26,-21,473,-494,-226
,1656,2023-10-27 12:24:20.10,149,-141,-2047,-37,-7,26,218,743,-525,-480
,1657,2023-10-27 12:24:20.11,144,-134,-2041,-41,-2,24,-17,470,-487,-226
,1658,2023-10-27 12:24:20.12,152,-146,-2036,-43,-4,26,219,743,-524,-481
,1659,2023-10-27 12:24:20.13,143,-144,-2044,-44,7,25,-11,467,-478,-228
,1660,2023-10-27 12:24:20.14,143,-140,-2028,-39,6,26,210,744,-534,-477
,1661,2023-10-27 12:24:20.15,162,-125,-2045,-39,11,28,-10,466,-476,-228
,1662,2023-10-27 12:24:20.16,150,-135,-2053,-42,9,29,207,742,-535,-474
,1663,2023-10-27 12:24:20.17,151,-140,-2056,-43,11,29,-6,462,-468,-228
,1664,2023-10-27 12:24:20.18,162,-131,-2056,-39,8,30,201,743,-542,-472
,1665,2023-10-27 12:24:20.19,145,-142,-2054,-37,8,32,-4,465,-469,-230
,1666,2023-10-27 12:24:20.20,151,-126,-2065,-38,7,33,194,750,-556,-472
,1667,2023-10-27 12:24:20.21,153,-131,-2059,-36,4,39,-1,462,-463,-230
,1668,2023-10-27 12:24:20.22,150,-127,-2060,-36,-4,40,190,745,-555,-467
,1669,2023-10-27 12:24:20.23,135,-128,-2056,-38,-3,40,-2,457,-459,-227
,1670,2023-10-27 12:24:20.24,151,-121,-2062,-40,-8,39,185,746,-561,-465
,1671,2023-10-27 12:24:20.25,157,-124,-2064,-38,-12,38,16,465,-449,-240
,1672,2023-10-27 12:24:20.26,149,-122,-2057,-40,-11,39,190,753,-563,-471
,1673,2023-10-27 12:24:20.27,165,-119,-2060,-39,-12,37,18,458,-440,-238
,1674,2023-10-27 12:24:20.28,150,-116,-2045,-35,-19,38,175,742,-567,-458
,1675,2023-10-27 12:24:20.29,146,-122,-2043,-32,-11,38,17,448,-431,-232
,1676,2023-10-27 12:24:20.30,152,-122,-2043,-29,-9,38,173,741,-568,-457
,1677,2023-10-27 12:24:20.31,138,-123,-2044,-23,-18,40,32,458,-426,-245
,1678,2023-10-27 12:24:20.32,142,-132,-2049,-17,-15,41,171,746,-575,-458
,1679,2023-10-27 12:24:20.33,147,-124,-2062,-13,-22,44,36,457,-421,-246
,1680,2023-10-27 12:24:20.34,139,-115,-2050,-4,-23,48,165,743,-578,-454
,1681,2023-10-27 12:24:20.35,144,-114,-2039,1,-13,48,39,459,-420,-249
,1682,2023-10-27 12:24:20.36,152,-120,-2064,2,-11,48,156,739,-583,-447
,1683,2023-10-27 12:24:20.37,139,-119,-2049,-1,-12,49,49,460,-411,-254
,1684,2023-10-27 12:24:20.38,133,-117,-2052,-3,-6,53,156,739,-583,-447
,1685,2023-10-27 12:24:20.39,134,-114,-2052,2,-11,57,68,461,-393,-264
,1686,2023-10-27 12:24:20.40,135,-124,-2045,-2,-12,58,138,724,-586,-431
,1687,2023-10-27 12:24:20.41,138,-121,-2047,-3,-13,65,53,445,-392,-249
,1688,2023-10-27 12:24:20.42,150,-121,-2058,-5,-15,69,100,707,-607,-403
,1689,2023-10-27 12:24:20.43,129,-116,-2061,-9,-9,72,46,444,-398,-245
