// Data mode  : Full
// Data quality  : High
// Acceleration sensor's range  : 16g
// Gyroscope sensor's range  : 2000dps
//
//ARTIFACT,NUM,DATE,ACC_X,ACC_Y,ACC_Z,GYRO_X,GYRO_Y,GYRO_Z,EOG_L,EOG_R,EOG_H,EOG_V
,1,2023-10-27 10:39:33.23,-30,10,-2065,114,27,50,40,-74,114,17
,2,2023-10-27 10:39:33.24,-48,21,-2064,113,26,46,6,-72,78,33
,3,2023-10-27 10:39:33.25,-40,7,-2068,105,21,46,80,-65,145,-7
,4,2023-10-27 10:39:33.26,-34,13,-2063,102,13,47,10,-64,74,27
,5,2023-10-27 10:39:33.27,-46,14,-2068,93,9,43,88,-65,153,-11
,6,2023-10-27 10:39:33.28,-38,-2,-2066,81,5,39,40,-56,96,8
,7,2023-10-27 10:39:33.29,-35,-3,-2075,79,1,50,120,-54,174,-33
,8,2023-10-27 10:39:33.30,-38,-2,-2073,82,-6,49,54,-60,114,3
,9,2023-10-27 10:39:33.31,-48,-5,-2079,81,-18,52,120,-55,175,-32
,10,2023-10-27 10:39:33.32,-36,1,-2082,75,-26,58,47,-52,99,2
,11,2023-10-27 10:39:33.33,-39,-11,-2076,70,-32,60,116,-46,162,-35
,12,2023-10-27 10:39:33.34,-50,-22,-2072,68,-35,61,36,-58,94,11
,13,2023-10-27 10:39:33.35,-35,0,-2067,67,-43,67,97,-49,146,-24
,14,2023-10-27 10:39:33.36,-48,-14,-2054,60,-42,66,-10,-68,58,39
,15,2023-10-27 10:39:33.37,-43,-19,-2037,62,-43,67,73,-46,119,-13
,16,2023-10-27 10:39:33.38,-47,-22,-2030,67,-35,66,-22,-59,37,40
,17,2023-10-27 10:39:33.39,-42,-25,-2031,76,-28,69,73,-37,110,-18
,18,2023-10-27 10:39:33.40,-45,-20,-2028,81,-23,64,-24,-54,30,39
,19,2023-10-27 10:39:33.41,-28,-34,-2029,81,-10,61,85,-40,125,-22
,20,2023-10-27 10:39:33.42,-52,-41,-2034,81,-5,63,-8,-73,65,40
,21,2023-10-27 10:39:33.43,-40,-35,-2036,87,4,58,97,-48,145,-24
,22,2023-10-27 10:39:33.44,-35,-39,-2051,87,11,51,-14,-78,64,46
,23,2023-10-27 10:39:33.45,-28,-27,-2045,96,11,52,85,-38,123,-23
,24,2023-10-27 10:39:33.46,-33,-42,-2054,97,14,48,-16,-60,44,38
,25,2023-10-27 10:39:33.47,-40,-26,-2061,88,17,45,91,-20,111,-35
,26,2023-10-27 10:39:33.48,-51,-28,-2060,84,19,45,-24,-59,35,41
,27,2023-10-27 10:39:33.49,-52,-47,-2067,66,22,44,77,-26,103,-25
,28,2023-10-27 10:39:33.50,-64,-41,-2072,59,15,47,-46,-68,22,57
,29,2023-10-27 10:39:33.51,-43,-32,-2063,59,5,48,88,-29,117,-29
,30,2023-10-27 10:39:33.52,-62,-35,-2061,53,3,47,-1,-56,55,28
,31,2023-10-27 10:39:33.53,-48,-30,-2061,39,2,46,116,-10,126,-53
,32,2023-10-27 10:39:33.54,-53,-27,-2058,27,2,48,-16,-70,54,43
,33,2023-10-27 10:39:33.55,-53,-16,-2053,15,1,44,84,-24,108,-30
,34,2023-10-27 10:39:33.56,-55,-12,-2040,4,3,36,-45,-69,24,57
,35,2023-10-27 10:39:33.57,-60,-7,-2044,-8,6,31,79,-13,92,-33
,36,2023-10-27 10:39:33.58,-55,-13,-2035,-20,9,30,-40,-66,26,53
,37,2023-10-27 10:39:33.59,-70,-13,-2052,-30,14,27,92,-29,121,-31
,38,2023-10-27 10:39:33.60,-73,-9,-2052,-42,15,26,-30,-78,48,54
,39,2023-10-27 10:39:33.61,-44,-11,-2053,-47,14,22,86,-18,104,-34
,40,2023-10-27 10:39:33.62,-61,-9,-2059,-51,18,22,-41,-62,21,51
,41,2023-10-27 10:39:33.63,-39,-10,-2054,-53,20,20,64,-14,78,-25
,42,2023-10-27 10:39:33.64,-47,-9,-2060,-52,19,17,-70,-84,14,77
,43,2023-10-27 10:39:33.65,-46,-1,-2048,-47,20,16,47,-26,73,-10
,44,2023-10-27 10:39:33.66,-44,-1,-2061,-46,25,11,-93,-86,-7,89
,45,2023-10-27 10:39:33.67,-34,7,-2075,-42,22,13,18,-22,40,2
,46,2023-10-27 10:39:33.68,-35,-2,-2082,-43,29,9,-117,-89,-28,103
,47,2023-10-27 10:39:33.69,-35,3,-2069,-32,26,16,36,-29,65,-3
,48,2023-10-27 10:39:33.70,-37,-9,-2067,-19,22,17,-78,-94,16,86
,49,2023-10-27 10:39:33.71,-31,-17,-2067,-9,22,24,52,-29,81,-11
,50,2023-10-27 10:39:33.72,-35,-13,-2057,3,20,24,-79,-93,14,86
,51,2023-10-27 10:39:33.73,-29,-15,-2047,15,15,33,22,-27,49,2
,52,2023-10-27 10:39:33.74,-30,-25,-2063,23,12,40,-114,-100,-14,107
,53,2023-10-27 10:39:33.75,-35,-25,-2080,32,3,48,14,-22,36,4
,54,2023-10-27 10:39:33.76,-38,-11,-2079,34,4,55,-106,-95,-11,100
,55,2023-10-27 10:39:33.77,-30,-13,-2067,37,8,54,-14,-18,4,16
,56,2023-10-27 10:39:33.78,-24,-19,-2065,42,7,58,-155,-93,-62,124
,57,2023-10-27 10:39:33.79,-36,-13,-2065,41,13,64,-15,-25,10,20
,58,2023-10-27 10:39:33.80,-35,-21,-2063,45,16,62,-120,-105,-15,112
,59,2023-10-27 10:39:33.81,-32,-31,-2060,51,7,68,46,-25,71,-10
,60,2023-10-27 10:39:33.82,-37,-39,-2047,50,4,72,-62,-98,36,80
,61,2023-10-27 10:39:33.83,-45,-35,-2061,52,6,80,85,-6,91,-39
,62,2023-10-27 10:39:33.84,-45,-31,-2051,50,1,83,-36,-77,41,56
,63,2023-10-27 10:39:33.85,-38,-30,-2044,47,3,86,83,9,74,-46
,64,2023-10-27 10:39:33.86,-42,-21,-2048,42,-2,87,-58,-85,27,71
,65,2023-10-27 10:39:33.87,-39,-22,-2055,30,0,87,60,-4,64,-28
,66,2023-10-27 10:39:33.88,-42,-16,-2044,19,0,86,-69,-92,23,80
,67,2023-10-27 10:39:33.89,-52,-23,-2059,13,4,84,94,-7,101,-43
,68,2023-10-27 10:39:33.90,-50,-29,-2071,10,-2,87,-26,-96,70,61
,69,2023-10-27 10:39:33.91,-46,-19,-2060,5,-9,88,116,-15,131,-50
,70,2023-10-27 10:39:33.92,-57,-18,-2046,-5,-8,86,-27,-104,77,65
,71,2023-10-27 10:39:33.93,-63,-9,-2056,-13,2,83,64,-30,94,-17
,72,2023-10-27 10:39:33.94,-57,-14,-2054,-17,4,79,-74,-110,36,92
,73,2023-10-27 10:39:33.95,-55,-10,-2054,-17,14,78,11,-10,21,0
,74,2023-10-27 10:39:33.96,-56,-20,-2063,-19,11,80,-106,-99,-7,102
,75,2023-10-27 10:39:33.97,-44,-6,-2063,-17,9,81,11,-12,23,0
,76,2023-10-27 10:39:33.98,-49,12,-2064,-11,9,81,-102,-115,13,108
,77,2023-10-27 10:39:33.99,-43,-3,-2060,-10,3,85,-39,-19,-20,29
,78,2023-10-27 10:39:34.00,-42,-9,-2065,-12,3,84,-162,-122,-40,142
,79,2023-10-27 10:39:34.01,-41,2,-2059,-9,2,88,-46,-19,-27,32
,80,2023-10-27 10:39:34.02,-37,-8,-2060,-1,4,89,-132,-115,-17,123
,81,2023-10-27 10:39:34.03,-41,-9,-2048,3,6,88,-15,-20,5,17
,82,2023-10-27 10:39:34.04,-39,-5,-2041,11,13,92,-110,-113,3,111
,83,2023-10-27 10:39:34.05,-39,-13,-2067,19,13,93,5,-15,20,5
,84,2023-10-27 10:39:34.06,-38,-1,-2072,24,13,97,-91,-111,20,101
,85,2023-10-27 10:39:34.07,-35,-17,-2084,22,16,103,-32,-19,-13,25
,86,2023-10-27 10:39:34.08,-47,-18,-2084,30,15,107,-134,-121,-13,127
,87,2023-10-27 10:39:34.09,-61,-10,-2066,36,10,107,-35,-12,-23,23
,88,2023-10-27 10:39:34.10,-53,-22,-2059,30,11,112,-109,-107,-2,108
,89,2023-10-27 10:39:34.11,-46,-14,-2058,33,10,115,-7,-2,-5,4
,90,2023-10-27 10:39:34.12,-52,-21,-2057,31,10,117,-91,-104,13,97
,91,2023-10-27 10:39:34.13,-58,-20,-2062,34,10,119,11,-12,23,0
,92,2023-10-27 10:39:34.14,-54,-23,-2043,35,11,123,-82,-113,31,97
,93,2023-10-27 10:39:34.15,-56,-26,-2068,35,10,124,-28,-31,3,29
,94,2023-10-27 10:39:34.16,-62,-20,-2067,36,8,123,-114,-131,17,122
,95,2023-10-27 10:39:34.17,-67,-35,-2069,34,6,124,19,-32,51,6
,96,2023-10-27 10:39:34.18,-67,-12,-2054,25,3,122,-43,-118,75,80
,97,2023-10-27 10:39:34.19,-49,-22,-2046,21,4,119,15,-8,23,-3
,98,2023-10-27 10:39:34.20,-63,-17,-2046,19,7,115,-81,-109,28,95
,99,2023-10-27 10:39:34.21,-58,-1,-2062,16,6,116,-4,-26,22,15
,100,2023-10-27 10:39:34.22,-58,-14,-2046,18,-2,110,-78,-128,50,103
,101,2023-10-27 10:39:34.23,-57,-20,-2054,20,-3,101,9,-20,29,5
,102,2023-10-27 10:39:34.24,-69,-12,-2038,19,-1,99,-59,-112,53,85
,103,2023-10-27 10:39:34.25,-57,0,-2049,14,2,95,39,-28,67,-5
,104,2023-10-27 10:39:34.26,-55,-2,-2051,9,2,91,-32,-120,88,76
,105,2023-10-27 10:39:34.27,-52,-1,-2049,3,4,81,38,-23,61,-7
,106,2023-10-27 10:39:34.28,-65,18,-2054,-9,4,80,-42,-108,66,75
,107,2023-10-27 10:39:34.29,-55,4,-2058,-14,1,72,-9,-18,9,13
,108,2023-10-27 10:39:34.30,-67,30,-2062,-19,5,63,-71,-113,42,92
,109,2023-10-27 10:39:34.31,-68,30,-2054,-24,3,55,14,-14,28,0
,110,2023-10-27 10:39:34.32,-64,22,-2063,-34,9,48,-41,-99,58,70
,111,2023-10-27 10:39:34.33,-64,40,-2062,-41,16,40,-40,-9,-31,24
,112,2023-10-27 10:39:34.34,-51,16,-2063,-44,18,35,-99,-105,6,102
,113,2023-10-27 10:39:34.35,-45,13,-2065,-45,22,34,-50,-22,-28,36
,114,2023-10-27 10:39:34.36,-49,11,-2071,-39,19,35,-61,-106,45,83
,115,2023-10-27 10:39:34.37,-43,24,-2069,-33,20,36,22,-19,41,-1
,116,2023-10-27 10:39:34.38,-42,24,-2068,-27,25,40,-12,-94,82,53
,117,2023-10-27 10:39:34.39,-47,18,-2064,-22,21,47,5,-22,27,8
,118,2023-10-27 10:39:34.40,-42,20,-2061,-14,18,53,-30,-105,75,67
,119,2023-10-27 10:39:34.41,-34,23,-2057,-8,20,59,35,-35,70,0
,120,2023-10-27 10:39:34.42,-31,17,-2049,5,24,62,-4,-101,97,52
,121,2023-10-27 10:39:34.43,-34,3,-2054,19,21,68,-13,-13,0,13
,122,2023-10-27 10:39:34.44,-21,15,-2055,29,27,71,-52,-87,35,69
,123,2023-10-27 10:39:34.45,-24,13,-2061,40,23,75,-37,-20,-17,28
,124,2023-10-27 10:39:34.46,-20,5,-2058,48,32,76,-44,-93,49,68
,125,2023-10-27 10:39:34.47,-30,-12,-2059,58,30,79,-1,-23,22,12
,126,2023-10-27 10:39:34.48,-30,-9,-2064,60,29,84,-20,-85,65,52
,127,2023-10-27 10:39:34.49,-34,-25,-2072,67,24,87,-54,-23,-31,38
,128,2023-10-27 10:39:34.50,-17,-28,-2076,75,22,94,-60,-85,25,72
,129,2023-10-27 10:39:34.51,-28,-21,-2073,77,21,103,-21,-26,5,23
,130,2023-10-27 10:39:34.52,-29,-36,-2074,79,17,107,-11,-85,74,48
,131,2023-10-27 10:39:34.53,-39,-26,-2069,78,21,119,-26,-37,11,31
,132,2023-10-27 10:39:34.54,-21,-37,-2074,74,21,118,-15,-87,72,51
,133,2023-10-27 10:39:34.55,-31,-35,-2066,72,23,129,-1,-33,32,17
,134,2023-10-27 10:39:34.56,-35,-45,-2066,70,17,142,-12,-84,72,48
,135,2023-10-27 10:39:34.57,-29,-49,-2078,71,12,146,-79,-43,-36,61
,136,2023-10-27 10:39:34.58,-40,-46,-2068,72,1,154,-70,-88,18,79
,137,2023-10-27 10:39:34.59,-34,-30,-2078,71,-7,161,-81,-29,-52,55
,138,2023-10-27 10:39:34.60,-26,-39,-2061,64,-11,171,-45,-64,19,54
,139,2023-10-27 10:39:34.61,-27,-37,-2062,56,-11,173,-85,-28,-57,56
,140,2023-10-27 10:39:34.62,-43,-35,-2057,55,-11,178,-68,-70,2,69
,141,2023-10-27 10:39:34.63,-36,-38,-2059,47,-9,178,-151,-49,-102,100
,142,2023-10-27 10:39:34.64,-49,-38,-2060,49,-18,185,-86,-86,0,86
,143,2023-10-27 10:39:34.65,-50,-44,-2049,55,-28,187,-86,-55,-31,70
,144,2023-10-27 10:39:34.66,-53,-41,-2072,51,-28,189,-12,-77,65,44
,145,2023-10-27 10:39:34.67,-57,-41,-2041,55,-30,190,-57,-52,-5,54
,146,2023-10-27 10:39:34.68,-45,-29,-2031,58,-31,191,-2,-75,73,38
,147,2023-10-27 10:39:34.69,-36,-12,-2040,66,-36,191,-25,-48,23,36
,148,2023-10-27 10:39:34.70,-44,-18,-2066,61,-24,185,16,-65,81,24
,149,2023-10-27 10:39:34.71,-49,-12,-2040,51,-22,186,-54,-45,-9,49
,150,2023-10-27 10:39:34.72,-52,-14,-2040,46,-8,180,-30,-66,36,48
,151,2023-10-27 10:39:34.73,-41,-18,-2041,38,-2,182,-128,-69,-59,98
,152,2023-10-27 10:39:34.74,-62,-18,-2039,39,-2,186,-41,-83,42,62
,153,2023-10-27 10:39:34.75,-62,-24,-2053,40,0,187,-62,-69,7,65
,154,2023-10-27 10:39:34.76,-64,-41,-2057,39,5,193,5,-60,65,27
,155,2023-10-27 10:39:34.77,-48,-39,-2050,41,-3,197,-74,-49,-25,61
,156,2023-10-27 10:39:34.78,-65,-67,-2060,50,-7,204,-11,-60,49,35
,157,2023-10-27 10:39:34.79,-59,-71,-2056,59,-7,207,-93,-73,-20,83
,158,2023-10-27 10:39:34.80,-60,-57,-2061,75,-22,214,19,-78,97,29
,159,2023-10-27 10:39:34.81,-50,-57,-2073,85,-17,220,-10,-79,69,44
,160,2023-10-27 10:39:34.82,-64,-80,-2069,94,-25,224,30,-74,104,22
,161,2023-10-27 10:39:34.83,-72,-45,-2077,102,-24,232,-116,-93,-23,104
,162,2023-10-27 10:39:34.84,-59,-38,-2087,101,-32,228,-42,-90,48,66
,163,2023-10-27 10:39:34.85,-78,-44,-2084,94,-27,221,-121,-112,-9,116
,164,2023-10-27 10:39:34.86,-59,-22,-2080,85,-43,221,-27,-83,56,55
,165,2023-10-27 10:39:34.87,-74,-40,-2070,72,-32,211,-134,-92,-42,113
,166,2023-10-27 10:39:34.88,-63,-54,-2078,57,-25,203,-21,-68,47,44
,167,2023-10-27 10:39:34.89,-58,-41,-2053,51,-26,193,-109,-97,-12,103
,168,2023-10-27 10:39:34.90,-62,-59,-2050,45,-17,187,-24,-82,58,53
,169,2023-10-27 10:39:34.91,-50,-63,-2051,52,-16,177,-157,-113,-44,135
,170,2023-10-27 10:39:34.92,-44,-65,-2052,49,-10,171,-91,-73,-18,82
,171,2023-10-27 10:39:34.93,-35,-75,-2045,55,-7,161,-237,-96,-141,166
,172,2023-10-27 10:39:34.94,-17,-67,-2049,60,1,158,-116,-70,-46,93
,173,2023-10-27 10:39:34.95,-26,-71,-2039,62,3,150,-196,-109,-87,152
,174,2023-10-27 10:39:34.96,-28,-62,-2029,58,20,143,-81,-91,10,86
,175,2023-10-27 10:39:34.97,-23,-67,-2056,52,37,144,-209,-132,-77,170
,176,2023-10-27 10:39:34.98,-31,-64,-2061,55,33,150,-98,-151,53,124
,177,2023-10-27 10:39:34.99,-27,-59,-2085,54,29,157,-236,-224,-12,230
,178,2023-10-27 10:39:35.00,-43,-61,-2079,46,25,163,-139,-147,8,143
,179,2023-10-27 10:39:35.01,-29,-59,-2082,54,3,173,-290,-161,-129,225
,180,2023-10-27 10:39:35.02,-30,-59,-2069,59,-12,184,-145,-120,-25,132
,181,2023-10-27 10:39:35.03,-34,-57,-2071,58,-25,191,-263,-175,-88,219
,182,2023-10-27 10:39:35.04,-40,-48,-2069,48,-26,196,-102,-95,-7,98
,183,2023-10-27 10:39:35.05,-28,-50,-2050,51,-35,196,-192,-115,-77,153
,184,2023-10-27 10:39:35.06,-27,-38,-2062,49,-22,197,-70,-61,-9,65
,185,2023-10-27 10:39:35.07,-29,-47,-2045,48,-28,193,-206,-117,-89,161
,186,2023-10-27 10:39:35.08,-42,-43,-2059,42,-36,183,-107,-66,-41,86
,187,2023-10-27 10:39:35.09,-41,-53,-2054,37,-35,177,-232,-113,-119,172
,188,2023-10-27 10:39:35.10,-38,-65,-2052,54,-39,168,-112,-86,-26,99
,189,2023-10-27 10:39:35.11,-52,-53,-2066,57,-33,154,-241,-151,-90,196
,190,2023-10-27 10:39:35.12,-51,-59,-2066,57,-25,142,-136,-131,-5,133
,191,2023-10-27 10:39:35.13,-42,-47,-2065,59,-22,128,-279,-208,-71,243
,192,2023-10-27 10:39:35.14,-42,-42,-2056,60,-38,119,-134,-148,14,141
,193,2023-10-27 10:39:35.15,-47,-66,-2045,63,-39,109,-244,-188,-56,216
,194,2023-10-27 10:39:35.16,-63,-61,-2041,71,-40,99,-91,-62,-29,76
,195,2023-10-27 10:39:35.17,-64,-64,-2039,69,-37,93,-185,-94,-91,139
,196,2023-10-27 10:39:35.18,-56,-74,-2042,63,-28,88,-62,-19,-43,40
,197,2023-10-27 10:39:35.19,-64,-90,-2046,60,-10,88,-192,-100,-92,146
,198,2023-10-27 10:39:35.20,-74,-91,-2034,59,-12,87,-206,-101,-105,153
,199,2023-10-27 10:39:35.21,-71,-96,-2035,58,-6,89,-430,-229,-201,329
,200,2023-10-27 10:39:35.22,-76,-99,-2038,61,-9,91,-184,-137,-47,160
,201,2023-10-27 10:39:35.23,-70,-108,-2024,65,-13,92,-178,-152,-26,165
,202,2023-10-27 10:39:35.24,-84,-104,-2037,68,-14,94,-60,-75,15,67
,203,2023-10-27 10:39:35.25,-73,-107,-2029,63,-9,99,-227,-150,-77,188
,204,2023-10-27 10:39:35.26,-84,-94,-2043,56,-1,99,-131,-83,-48,107
,205,2023-10-27 10:39:35.27,-88,-108,-2044,49,4,104,-243,-147,-96,195
,206,2023-10-27 10:39:35.28,-94,-99,-2057,43,5,106,-120,-57,-63,88
,207,2023-10-27 10:39:35.29,-109,-91,-2076,38,-1,107,-220,-120,-100,170
,208,2023-10-27 10:39:35.30,-100,-88,-2072,24,-9,108,-12,-52,40,32
,209,2023-10-27 10:39:35.31,-89,-79,-2065,10,-11,108,-87,-133,46,110
,210,2023-10-27 10:39:35.32,-94,-76,-2078,-5,-9,102,70,-70,140,0
,211,2023-10-27 10:39:35.33,-85,-62,-2082,-15,-11,98,-64,-153,89,108
,212,2023-10-27 10:39:35.34,-90,-68,-2081,-25,-7,97,26,-56,82,15
,213,2023-10-27 10:39:35.35,-78,-70,-2086,-36,-5,92,-119,-126,7,122
,214,2023-10-27 10:39:35.36,-94,-60,-2073,-40,-9,93,-28,-45,17,36
,215,2023-10-27 10:39:35.37,-88,-50,-2084,-41,-10,89,-158,-134,-24,146
,216,2023-10-27 10:39:35.38,-83,-59,-2083,-45,-15,85,-41,-72,31,56
,217,2023-10-27 10:39:35.39,-94,-80,-2078,-37,-26,86,-154,-159,5,156
,218,2023-10-27 10:39:35.40,-96,-41,-2082,-29,-30,84,-35,-92,57,63
,219,2023-10-27 10:39:35.41,-98,-49,-2074,-21,-44,79,-156,-163,7,159
,220,2023-10-27 10:39:35.42,-100,-51,-2073,-13,-52,76,-87,-45,-42,66
,221,2023-10-27 10:39:35.43,-97,-42,-2069,-7,-58,71,-192,-115,-77,153
,222,2023-10-27 10:39:35.44,-115,-46,-2053,-3,-60,63,-84,-41,-43,62
,223,2023-10-27 10:39:35.45,-100,-54,-2058,3,-58,54,-171,-137,-34,154
,224,2023-10-27 10:39:35.46,-100,-37,-2064,2,-57,46,-64,-53,-11,58
,225,2023-10-27 10:39:35.47,-102,-58,-2059,10,-58,39,-167,-144,-23,155
,226,2023-10-27 10:39:35.48,-116,-44,-2069,14,-57,30,-44,-42,-2,43
,227,2023-10-27 10:39:35.49,-107,-62,-2047,12,-58,23,-131,-128,-3,129
,228,2023-10-27 10:39:35.50,-97,-78,-2049,12,-51,23,-25,-38,13,31
,229,2023-10-27 10:39:35.51,-103,-84,-2025,17,-39,22,-130,-140,10,135
,230,2023-10-27 10:39:35.52,-100,-109,-2029,30,-33,21,-13,-50,37,31
,231,2023-10-27 10:39:35.53,-95,-88,-2019,48,-26,25,-111,-137,26,124
,232,2023-10-27 10:39:35.54,-81,-93,-2021,64,-26,21,-58,-58,0,58
,233,2023-10-27 10:39:35.55,-76,-95,-2024,68,-17,22,-163,-149,-14,156
,234,2023-10-27 10:39:35.56,-80,-111,-2032,77,-6,27,-68,-48,-20,58
,235,2023-10-27 10:39:35.57,-87,-109,-2031,94,-10,30,-132,-132,0,132
,236,2023-10-27 10:39:35.58,-80,-115,-2054,106,-18,29,-14,-39,25,26
,237,2023-10-27 10:39:35.59,-79,-110,-2062,112,-25,34,-89,-131,42,110
,238,2023-10-27 10:39:35.60,-85,-96,-2052,107,-34,38,-2,-53,51,27
,239,2023-10-27 10:39:35.61,-101,-95,-2068,96,-37,41,-93,-151,58,122
,240,2023-10-27 10:39:35.62,-97,-100,-2065,82,-45,45,32,-50,82,9
,241,2023-10-27 10:39:35.63,-109,-118,-2065,66,-45,55,-53,-140,87,96
,242,2023-10-27 10:39:35.64,-115,-137,-2079,49,-49,65,23,-47,70,12
,243,2023-10-27 10:39:35.65,-105,-122,-2067,36,-53,76,-77,-134,57,105
,244,2023-10-27 10:39:35.66,-111,-104,-2064,26,-54,85,34,-35,69,0
,245,2023-10-27 10:39:35.67,-108,-122,-2066,18,-63,89,-48,-129,81,88
,246,2023-10-27 10:39:35.68,-104,-93,-2044,12,-67,94,54,-48,102,-3
,247,2023-10-27 10:39:35.69,-126,-103,-2062,7,-57,94,-44,-136,92,90
,248,2023-10-27 10:39:35.70,-110,-90,-2058,-3,-55,96,-43,-47,4,45
,249,2023-10-27 10:39:35.71,-109,-81,-2045,-7,-56,95,-131,-134,3,132
,250,2023-10-27 10:39:35.72,-128,-101,-2048,-9,-43,98,-30,-38,8,34
,251,2023-10-27 10:39:35.73,-102,-96,-2042,-14,-45,90,-75,-126,51,100
,252,2023-10-27 10:39:35.74,-118,-91,-2052,-15,-31,89,-63,-60,-3,61
,253,2023-10-27 10:39:35.75,-129,-85,-2038,-11,-27,89,-142,-155,13,148
,254,2023-10-27 10:39:35.76,-117,-74,-2017,-6,-21,82,-142,-37,-105,89
,255,2023-10-27 10:39:35.77,-123,-77,-2030,-1,-16,86,-177,-117,-60,147
,256,2023-10-27 10:39:35.78,-126,-82,-2030,0,-9,81,-72,-33,-39,52
,257,2023-10-27 10:39:35.79,-130,-82,-2026,6,-14,83,-85,-132,47,108
,258,2023-10-27 10:39:35.80,-119,-66,-2024,10,-8,80,-11,-48,37,29
,259,2023-10-27 10:39:35.81,-123,-73,-2042,13,-10,79,-76,-128,52,102
,260,2023-10-27 10:39:35.82,-107,-78,-2051,18,-13,76,-98,-36,-62,67
,261,2023-10-27 10:39:35.83,-108,-68,-2020,21,-27,73,-152,-118,-34,135
,262,2023-10-27 10:39:35.84,-122,-33,-2056,16,-20,69,-137,-42,-95,89
,263,2023-10-27 10:39:35.85,-119,-63,-2053,11,-19,64,-146,-124,-22,135
,264,2023-10-27 10:39:35.86,-121,-48,-2059,3,-15,58,-89,-26,-63,57
,265,2023-10-27 10:39:35.87,-110,-65,-2080,-1,-13,58,-99,-97,-2,98
,266,2023-10-27 10:39:35.88,-116,-85,-2089,-3,-17,59,-103,-27,-76,65
,267,2023-10-27 10:39:35.89,-115,-61,-2071,-5,-23,63,-125,-111,-14,118
,268,2023-10-27 10:39:35.90,-109,-86,-2077,-2,-21,66,-109,-42,-67,75
,269,2023-10-27 10:39:35.91,-120,-38,-2069,3,-17,66,-99,-126,27,112
,270,2023-10-27 10:39:35.92,-114,-64,-2078,18,-30,60,-27,-62,35,44
,271,2023-10-27 10:39:35.93,-107,-75,-2069,21,-16,62,-40,-123,83,81
,272,2023-10-27 10:39:35.94,-105,-65,-2059,28,-19,59,-46,-38,-8,42
,273,2023-10-27 10:39:35.95,-120,-74,-2060,40,-22,53,-78,-104,26,91
,274,2023-10-27 10:39:35.96,-120,-69,-2055,57,-24,53,-78,-53,-25,65
,275,2023-10-27 10:39:35.97,-114,-53,-2035,65,-36,47,-81,-121,40,101
,276,2023-10-27 10:39:35.98,-103,-71,-2051,64,-25,42,-48,-44,-4,46
,277,2023-10-27 10:39:35.99,-105,-92,-2046,64,-25,40,-56,-101,45,78
,278,2023-10-27 10:39:36.00,-128,-87,-2027,73,-32,36,-66,-41,-25,53
,279,2023-10-27 10:39:36.01,-108,-83,-2035,76,-45,37,-79,-99,20,89
,280,2023-10-27 10:39:36.02,-104,-91,-2027,69,-50,35,-112,-44,-68,78
,281,2023-10-27 10:39:36.03,-105,-108,-2027,68,-47,38,-103,-102,-1,102
,282,2023-10-27 10:39:36.04,-121,-98,-2032,72,-45,42,-124,-66,-58,95
,283,2023-10-27 10:39:36.05,-115,-99,-2026,72,-44,42,-94,-117,23,105
,284,2023-10-27 10:39:36.06,-124,-106,-2038,60,-31,47,-130,-77,-53,103
,285,2023-10-27 10:39:36.07,-124,-118,-2052,56,-21,45,-86,-110,24,98
,286,2023-10-27 10:39:36.08,-134,-120,-2068,53,-17,51,-80,-52,-28,66
,287,2023-10-27 10:39:36.09,-127,-118,-2061,56,-28,57,-43,-86,43,64
,288,2023-10-27 10:39:36.10,-133,-117,-2069,59,-37,61,-80,-50,-30,65
,289,2023-10-27 10:39:36.11,-145,-107,-2065,55,-41,69,-54,-97,43,75
,290,2023-10-27 10:39:36.12,-144,-108,-2064,54,-45,73,-92,-67,-25,79
,291,2023-10-27 10:39:36.13,-153,-116,-2064,56,-53,76,-65,-96,31,80
,292,2023-10-27 10:39:36.14,-137,-81,-2058,45,-47,76,-128,-66,-62,97
,293,2023-10-27 10:39:36.15,-149,-80,-2058,38,-37,70,-80,-92,12,86
,294,2023-10-27 10:39:36.16,-164,-82,-2052,33,-48,67,-112,-61,-51,86
,295,2023-10-27 10:39:36.17,-165,-69,-2067,26,-36,60,-42,-83,41,62
,296,2023-10-27 10:39:36.18,-171,-94,-2068,16,-35,51,-64,-60,-4,62
,297,2023-10-27 10:39:36.19,-161,-89,-2065,13,-38,45,-6,-73,67,39
,298,2023-10-27 10:39:36.20,-171,-80,-2050,14,-35,42,-43,-53,10,48
,299,2023-10-27 10:39:36.21,-165,-91,-2037,18,-37,31,2,-65,67,31
,300,2023-10-27 10:39:36.22,-168,-93,-2042,26,-35,20,-74,-56,-18,65
,301,2023-10-27 10:39:36.23,-153,-90,-2032,28,-30,13,-13,-70,57,41
,302,2023-10-27 10:39:36.24,-157,-79,-2023,31,-20,2,-71,-66,-5,68
,303,2023-10-27 10:39:36.25,-160,-74,-2013,36,-8,-6,-23,-66,43,44
,304,2023-10-27 10:39:36.26,-151,-96,-2027,35,-5,-18,-126,-51,-75,88
,305,2023-10-27 10:39:36.27,-162,-114,-2036,34,2,-26,-35,-54,19,44
,306,2023-10-27 10:39:36.28,-155,-111,-2035,42,8,-29,-58,-49,-9,53
,307,2023-10-27 10:39:36.29,-163,-117,-2036,44,12,-32,16,-53,69,18
,308,2023-10-27 10:39:36.30,-155,-114,-2037,46,11,-32,-83,-52,-31,67
,309,2023-10-27 10:39:36.31,-158,-113,-2046,48,4,-27,-15,-51,36,33
,310,2023-10-27 10:39:36.32,-154,-110,-2055,47,3,-25,-86,-55,-31,70
,311,2023-10-27 10:39:36.33,-149,-119,-2059,46,2,-22,-19,-46,27,32
,312,2023-10-27 10:39:36.34,-158,-134,-2051,45,3,-17,-129,-58,-71,93
,313,2023-10-27 10:39:36.35,-162,-132,-2069,42,-2,-12,-44,-49,5,46
,314,2023-10-27 10:39:36.36,-143,-131,-2064,43,-7,-4,-133,-72,-61,102
,315,2023-10-27 10:39:36.37,-161,-133,-2052,41,-11,1,-46,-43,-3,44
,316,2023-10-27 10:39:36.38,-144,-134,-2045,42,-19,9,-165,-51,-114,108
,317,2023-10-27 10:39:36.39,-149,-130,-2048,45,-16,17,-57,-29,-28,43
,318,2023-10-27 10:39:36.40,-161,-138,-2054,42,-17,20,-151,-67,-84,109
,319,2023-10-27 10:39:36.41,-161,-132,-2048,43,-17,22,-43,-36,-7,39
,320,2023-10-27 10:39:36.42,-167,-138,-2056,42,-16,25,-164,-56,-108,110
,321,2023-10-27 10:39:36.43,-160,-133,-2054,41,-11,26,-57,-26,-31,41
,322,2023-10-27 10:39:36.44,-168,-146,-2049,40,-12,28,-155,-61,-94,108
,323,2023-10-27 10:39:36.45,-176,-132,-2042,35,-9,27,-25,-34,9,29
,324,2023-10-27 10:39:36.46,-162,-137,-2029,32,-2,26,-116,-62,-54,89
,325,2023-10-27 10:39:36.47,-166,-139,-2034,27,3,23,-24,-31,7,27
,326,2023-10-27 10:39:36.48,-172,-139,-2038,28,6,26,-148,-71,-77,109
,327,2023-10-27 10:39:36.49,-175,-126,-2054,27,11,21,-41,-35,-6,38
,328,2023-10-27 10:39:36.50,-169,-132,-2040,25,15,20,-148,-76,-72,112
,329,2023-10-27 10:39:36.51,-175,-133,-2038,24,19,16,-11,-33,22,22
,330,2023-10-27 10:39:36.52,-147,-135,-2039,27,19,8,-98,-69,-29,83
,331,2023-10-27 10:39:36.53,-152,-133,-2036,26,25,8,10,-30,40,10
,332,2023-10-27 10:39:36.54,-162,-134,-2028,25,28,1,-122,-83,-39,102
,333,2023-10-27 10:39:36.55,-141,-135,-2035,26,32,-4,-50,-31,-19,40
,334,2023-10-27 10:39:36.56,-140,-142,-2036,28,35,-5,-203,-78,-125,140
,335,2023-10-27 10:39:36.57,-138,-151,-2038,29,36,-4,-106,-31,-75,68
,336,2023-10-27 10:39:36.58,-142,-154,-2034,33,26,-5,-231,-83,-148,157
,337,2023-10-27 10:39:36.59,-149,-148,-2044,35,21,-1,-116,-29,-87,72
,338,2023-10-27 10:39:36.60,-127,-150,-2058,36,15,2,-231,-75,-156,153
,339,2023-10-27 10:39:36.61,-142,-157,-2038,34,5,8,-120,-31,-89,75
,340,2023-10-27 10:39:36.62,-133,-154,-2039,32,5,9,-244,-94,-150,169
,341,2023-10-27 10:39:36.63,-143,-145,-2043,27,1,12,-119,-33,-86,76
,342,2023-10-27 10:39:36.64,-144,-145,-2046,20,-2,19,-217,-84,-133,150
,343,2023-10-27 10:39:36.65,-139,-144,-2053,11,-4,24,-99,-30,-69,64
,344,2023-10-27 10:39:36.66,-141,-143,-2055,4,-7,29,-220,-100,-120,160
,345,2023-10-27 10:39:36.67,-155,-144,-2046,-2,-8,34,-46,-47,1,46
,346,2023-10-27 10:39:36.68,-142,-138,-2058,-3,-11,34,-121,-111,-10,116
,347,2023-10-27 10:39:36.69,-148,-134,-2063,-3,-16,33,-18,-29,11,23
,348,2023-10-27 10:39:36.70,-151,-124,-2053,-5,-18,33,-167,-87,-80,127
,349,2023-10-27 10:39:36.71,-155,-122,-2061,-7,-14,28,-60,-25,-35,42
,350,2023-10-27 10:39:36.72,-151,-123,-2057,-11,-7,22,-176,-96,-80,136
,351,2023-10-27 10:39:36.73,-157,-131,-2048,-9,-15,20,-58,-36,-22,47
,352,2023-10-27 10:39:36.74,-173,-129,-2051,-9,-14,18,-181,-110,-71,145
,353,2023-10-27 10:39:36.75,-160,-117,-2060,-7,-17,17,-47,-34,-13,40
,354,2023-10-27 10:39:36.76,-163,-118,-2058,-4,-24,10,-148,-101,-47,124
,355,2023-10-27 10:39:36.77,-155,-109,-2051,-4,-22,5,-31,-38,7,34
,356,2023-10-27 10:39:36.78,-161,-105,-2040,-11,-8,-4,-144,-115,-29,129
,357,2023-10-27 10:39:36.79,-163,-114,-2037,-8,4,-9,-62,-43,-19,52
,358,2023-10-27 10:39:36.80,-160,-129,-2039,-4,6,-12,-183,-117,-66,150
,359,2023-10-27 10:39:36.81,-178,-135,-2039,4,8,-14,-94,-43,-51,68
,360,2023-10-27 10:39:36.82,-174,-136,-2044,10,7,-11,-192,-113,-79,152
,361,2023-10-27 10:39:36.83,-164,-130,-2045,17,-2,-12,-92,-28,-64,60
,362,2023-10-27 10:39:36.84,-148,-121,-2032,22,-1,-11,-195,-100,-95,147
,363,2023-10-27 10:39:36.85,-146,-114,-2033,22,3,-16,-101,-15,-86,58
,364,2023-10-27 10:39:36.86,-137,-118,-2038,17,12,-18,-211,-104,-107,157
,365,2023-10-27 10:39:36.87,-160,-126,-2042,10,17,-19,-144,-31,-113,87
,366,2023-10-27 10:39:36.88,-156,-134,-2046,11,18,-16,-250,-118,-132,184
,367,2023-10-27 10:39:36.89,-160,-140,-2049,14,16,-15,-122,-29,-93,75
,368,2023-10-27 10:39:36.90,-154,-146,-2049,15,12,-9,-196,-110,-86,153
,369,2023-10-27 10:39:36.91,-153,-146,-2053,21,9,-6,-112,-38,-74,75
,370,2023-10-27 10:39:36.92,-159,-143,-2050,23,7,-2,-212,-131,-81,171
,371,2023-10-27 10:39:36.93,-153,-139,-2052,25,3,7,-128,-41,-87,84
,372,2023-10-27 10:39:36.94,-164,-142,-2051,23,5,11,-218,-118,-100,168
,373,2023-10-27 10:39:36.95,-160,-139,-2043,23,8,20,-146,-32,-114,89
,374,2023-10-27 10:39:36.96,-165,-136,-2052,17,10,24,-233,-132,-101,182
,375,2023-10-27 10:39:36.97,-156,-142,-2052,18,7,24,-171,-51,-120,111
,376,2023-10-27 10:39:36.98,-154,-135,-2041,19,7,28,-251,-144,-107,197
,377,2023-10-27 10:39:36.99,-165,-144,-2042,18,8,30,-156,-47,-109,101
,378,2023-10-27 10:39:37.00,-151,-139,-2041,18,10,31,-223,-136,-87,179
,379,2023-10-27 10:39:37.01,-158,-143,-2036,20,10,31,-95,-51,-44,73
,380,2023-10-27 10:39:37.02,-153,-139,-2032,23,11,31,-160,-140,-20,150
,381,2023-10-27 10:39:37.03,-153,-158,-2038,28,15,30,-52,-31,-21,41
,382,2023-10-27 10:39:37.04,-160,-126,-2044,35,14,29,-147,-116,-31,131
,383,2023-10-27 10:39:37.05,-165,-136,-2049,30,19,29,-112,-41,-71,76
,384,2023-10-27 10:39:37.06,-162,-137,-2061,26,19,25,-201,-142,-59,171
,385,2023-10-27 10:39:37.07,-157,-135,-2057,18,13,22,-140,-55,-85,97
,386,2023-10-27 10:39:37.08,-155,-132,-2040,12,16,19,-202,-138,-64,170
,387,2023-10-27 10:39:37.09,-152,-137,-2049,5,14,21,-128,-35,-93,81
,388,2023-10-27 10:39:37.10,-156,-132,-2047,3,14,19,-182,-122,-60,152
,389,2023-10-27 10:39:37.11,-150,-133,-2044,4,12,19,-125,-29,-96,77
,390,2023-10-27 10:39:37.12,-160,-132,-2044,3,8,18,-192,-133,-59,162
,391,2023-10-27 10:39:37.13,-161,-130,-2046,4,7,13,-151,-36,-115,93
,392,2023-10-27 10:39:37.14,-139,-126,-2050,4,7,10,-205,-133,-72,169
,393,2023-10-27 10:39:37.15,-136,-125,-2051,5,4,4,-134,-43,-91,88
,394,2023-10-27 10:39:37.16,-131,-128,-2043,4,3,4,-184,-140,-44,162
,395,2023-10-27 10:39:37.17,-132,-132,-2040,3,7,1,-127,-44,-83,85
,396,2023-10-27 10:39:37.18,-138,-132,-2042,7,9,0,-179,-136,-43,157
,397,2023-10-27 10:39:37.19,-133,-133,-2037,12,6,-4,-128,-39,-89,83
,398,2023-10-27 10:39:37.20,-137,-134,-2042,16,3,-3,-189,-140,-49,164
,399,2023-10-27 10:39:37.21,-149,-133,-2047,13,3,2,-135,-37,-98,86
,400,2023-10-27 10:39:37.22,-140,-140,-2061,16,2,7,-184,-135,-49,159
,401,2023-10-27 10:39:37.23,-145,-125,-2061,16,-1,10,-173,-45,-128,109
,402,2023-10-27 10:39:37.24,-129,-126,-2058,10,-4,16,-209,-135,-74,172
,403,2023-10-27 10:39:37.25,-142,-130,-2053,6,-4,21,-110,-49,-61,79
,404,2023-10-27 10:39:37.26,-141,-130,-2045,2,-3,26,-132,-138,6,135
,405,2023-10-27 10:39:37.27,-142,-142,-2047,5,-6,30,-145,-62,-83,103
,406,2023-10-27 10:39:37.28,-148,-136,-2048,8,-4,32,-188,-153,-35,170
,407,2023-10-27 10:39:37.29,-150,-131,-2053,12,-2,34,-125,-76,-49,100
,408,2023-10-27 10:39:37.30,-141,-128,-2060,15,1,32,-139,-149,10,144
,409,2023-10-27 10:39:37.31,-145,-122,-2050,19,3,34,-148,-53,-95,100
,410,2023-10-27 10:39:37.32,-149,-122,-2056,24,3,30,-178,-133,-45,155
,411,2023-10-27 10:39:37.33,-148,-121,-2053,32,3,27,-156,-62,-94,109
,412,2023-10-27 10:39:37.34,-144,-122,-2056,31,3,19,-169,-151,-18,160
,413,2023-10-27 10:39:37.35,-155,-123,-2053,28,3,11,-186,-79,-107,132
,414,2023-10-27 10:39:37.36,-153,-119,-2044,28,-1,7,-195,-154,-41,174
,415,2023-10-27 10:39:37.37,-159,-132,-2044,30,-3,-3,-134,-77,-57,105
,416,2023-10-27 10:39:37.38,-152,-131,-2043,31,-7,-5,-124,-147,23,135
,417,2023-10-27 10:39:37.39,-161,-138,-2044,33,-11,-11,-111,-72,-39,91
,418,2023-10-27 10:39:37.40,-156,-134,-2040,37,-16,-17,-134,-135,1,134
,419,2023-10-27 10:39:37.41,-150,-142,-2033,39,-15,-19,-147,-70,-77,108
,420,2023-10-27 10:39:37.42,-150,-147,-2039,42,-15,-26,-144,-139,-5,141
,421,2023-10-27 10:39:37.43,-162,-145,-2045,43,-9,-28,-138,-105,-33,121
,422,2023-10-27 10:39:37.44,-157,-155,-2041,39,-2,-31,-138,-168,30,153
,423,2023-10-27 10:39:37.45,-168,-155,-2046,34,3,-32,-160,-100,-60,130
,424,2023-10-27 10:39:37.46,-169,-159,-2043,31,1,-30,-155,-138,-17,146
,425,2023-10-27 10:39:37.47,-163,-168,-2044,27,1,-26,-211,-89,-122,150
,426,2023-10-27 10:39:37.48,-166,-172,-2037,20,-4,-17,-174,-141,-33,157
,427,2023-10-27 10:39:37.49,-167,-165,-2053,19,-9,-8,-146,-92,-54,119
,428,2023-10-27 10:39:37.50,-161,-164,-2044,16,-7,-3,-114,-129,15,121
,429,2023-10-27 10:39:37.51,-161,-162,-2039,9,-1,4,-173,-72,-101,122
,430,2023-10-27 10:39:37.52,-159,-152,-2054,9,4,12,-156,-126,-30,141
,431,2023-10-27 10:39:37.53,-173,-157,-2062,3,9,13,-214,-98,-116,156
,432,2023-10-27 10:39:37.54,-179,-161,-2053,4,13,14,-174,-136,-38,155
,433,2023-10-27 10:39:37.55,-166,-158,-2051,5,12,17,-226,-68,-158,147
,434,2023-10-27 10:39:37.56,-170,-161,-2054,6,10,20,-160,-116,-44,138
,435,2023-10-27 10:39:37.57,-169,-157,-2049,9,4,19,-162,-98,-64,130
,436,2023-10-27 10:39:37.58,-162,-147,-2046,12,2,18,-107,-134,27,120
,437,2023-10-27 10:39:37.59,-171,-142,-2041,14,0,20,-158,-88,-70,123
,438,2023-10-27 10:39:37.60,-165,-138,-2037,13,-1,15,-112,-110,-2,111
,439,2023-10-27 10:39:37.61,-161,-137,-2035,9,1,12,-171,-99,-72,135
,440,2023-10-27 10:39:37.62,-165,-141,-2043,8,6,12,-121,-127,6,124
,441,2023-10-27 10:39:37.63,-179,-148,-2045,6,5,13,-185,-128,-57,156
,442,2023-10-27 10:39:37.64,-172,-144,-2037,3,3,10,-106,-125,19,115
,443,2023-10-27 10:39:37.65,-169,-153,-2031,7,1,9,-124,-82,-42,103
,444,2023-10-27 10:39:37.66,-177,-150,-2036,7,0,10,-68,-87,19,77
,445,2023-10-27 10:39:37.67,-170,-150,-2024,1,7,10,-168,-85,-83,126
,446,2023-10-27 10:39:37.68,-167,-147,-2039,1,5,11,-125,-104,-21,114
,447,2023-10-27 10:39:37.69,-165,-137,-2045,0,6,9,-214,-86,-128,150
,448,2023-10-27 10:39:37.70,-175,-147,-2048,-5,7,8,-152,-95,-57,123
,449,2023-10-27 10:39:37.71,-158,-139,-2037,-8,8,7,-261,-92,-169,176
,450,2023-10-27 10:39:37.72,-163,-139,-2033,-14,15,7,-169,-104,-65,136
,451,2023-10-27 10:39:37.73,-167,-143,-2041,-14,22,6,-227,-99,-128,163
,452,2023-10-27 10:39:37.74,-172,-144,-2054,-11,23,7,-135,-104,-31,119
,453,2023-10-27 10:39:37.75,-161,-142,-2055,-13,22,4,-235,-110,-125,172
,454,2023-10-27 10:39:37.76,-163,-139,-2040,-7,19,3,-150,-103,-47,126
,455,2023-10-27 10:39:37.77,-154,-133,-2053,-8,21,2,-234,-95,-139,164
,456,2023-10-27 10:39:37.78,-148,-131,-2048,-8,21,1,-97,-87,-10,92
,457,2023-10-27 10:39:37.79,-154,-134,-2058,-8,27,-2,-108,-86,-22,97
,458,2023-10-27 10:39:37.80,-150,-134,-2065,-8,29,0,-28,-82,54,55
,459,2023-10-27 10:39:37.81,-132,-134,-2065,-5,26,1,-138,-88,-50,113
,460,2023-10-27 10:39:37.82,-151,-132,-2067,0,26,0,-70,-74,4,72
,461,2023-10-27 10:39:37.83,-149,-144,-2062,7,24,1,-169,-91,-78,130
,462,2023-10-27 10:39:37.84,-140,-130,-2037,15,26,-4,-98,-71,-27,84
,463,2023-10-27 10:39:37.85,-145,-131,-2046,20,29,-7,-223,-86,-137,154
,464,2023-10-27 10:39:37.86,-136,-127,-2043,24,33,-11,-125,-60,-65,92
,465,2023-10-27 10:39:37.87,-128,-130,-2024,28,29,-15,-218,-68,-150,143
,466,2023-10-27 10:39:37.88,-128,-139,-2033,25,27,-19,-118,-47,-71,82
,467,2023-10-27 10:39:37.89,-120,-154,-2032,31,23,-23,-235,-73,-162,154
,468,2023-10-27 10:39:37.90,-132,-150,-2029,40,19,-23,-122,-58,-64,90
,469,2023-10-27 10:39:37.91,-137,-149,-2041,49,8,-21,-215,-85,-130,150
,470,2023-10-27 10:39:37.92,-132,-153,-2041,41,7,-19,-84,-52,-32,68
,471,2023-10-27 10:39:37.93,-140,-160,-2044,39,1,-16,-168,-70,-98,119
,472,2023-10-27 10:39:37.94,-129,-158,-2038,31,1,-11,-46,-46,0,46
,473,2023-10-27 10:39:37.95,-139,-167,-2039,21,1,-5,-138,-84,-54,111
,474,2023-10-27 10:39:37.96,-143,-168,-2043,15,5,2,-46,-57,11,51
,475,2023-10-27 10:39:37.97,-144,-166,-2057,7,7,9,-171,-84,-87,127
,476,2023-10-27 10:39:37.98,-132,-160,-2055,3,4,17,-62,-60,-2,61
,477,2023-10-27 10:39:37.99,-147,-153,-2062,-2,-2,24,-158,-105,-53,131
,478,2023-10-27 10:39:38.00,-146,-145,-2065,-8,3,29,-81,-70,-11,75
,479,2023-10-27 10:39:38.01,-153,-149,-2070,-10,-1,36,-221,-94,-127,157
,480,2023-10-27 10:39:38.02,-139,-140,-2079,-17,-8,39,-100,-56,-44,78
,481,2023-10-27 10:39:38.03,-144,-134,-2063,-19,-13,38,-184,-92,-92,138
,482,2023-10-27 10:39:38.04,-146,-131,-2061,-23,-7,40,-69,-58,-11,63
,483,2023-10-27 10:39:38.05,-147,-119,-2057,-26,-8,37,-174,-94,-80,134
,484,2023-10-27 10:39:38.06,-152,-124,-2052,-24,-8,36,-67,-45,-22,56
,485,2023-10-27 10:39:38.07,-144,-124,-2039,-22,-7,32,-188,-88,-100,138
,486,2023-10-27 10:39:38.08,-151,-122,-2043,-17,-7,24,-60,-31,-29,45
,487,2023-10-27 10:39:38.09,-135,-123,-2036,-12,-1,19,-172,-81,-91,126
,488,2023-10-27 10:39:38.10,-155,-124,-2037,-8,2,9,-85,-31,-54,58
,489,2023-10-27 10:39:38.11,-153,-123,-2035,-1,5,3,-226,-85,-141,155
,490,2023-10-27 10:39:38.12,-147,-121,-2045,4,5,-1,-92,-29,-63,60
,491,2023-10-27 10:39:38.13,-144,-125,-2040,8,3,-2,-194,-89,-105,141
,492,2023-10-27 10:39:38.14,-157,-125,-2041,14,-4,-11,-73,-34,-39,53
,493,2023-10-27 10:39:38.15,-151,-122,-2038,16,-3,-12,-192,-91,-101,141
,494,2023-10-27 10:39:38.16,-149,-119,-2048,18,0,-17,-92,-42,-50,67
,495,2023-10-27 10:39:38.17,-148,-130,-2047,16,0,-18,-227,-109,-118,168
,496,2023-10-27 10:39:38.18,-141,-128,-2048,14,2,-17,-110,-40,-70,75
,497,2023-10-27 10:39:38.19,-135,-138,-2052,19,-2,-16,-218,-92,-126,155
,498,2023-10-27 10:39:38.20,-143,-142,-2050,22,-4,-16,-106,-36,-70,71
,499,2023-10-27 10:39:38.21,-146,-141,-2027,25,-5,-14,-227,-105,-122,166
,500,2023-10-27 10:39:38.22,-154,-154,-2037,22,2,-11,-105,-43,-62,74
,501,2023-10-27 10:39:38.23,-149,-153,-2050,30,5,-5,-205,-110,-95,157
,502,2023-10-27 10:39:38.24,-149,-144,-2041,36,3,-2,-126,-36,-90,81
,503,2023-10-27 10:39:38.25,-141,-144,-2038,35,3,-1,-252,-105,-147,178
,504,2023-10-27 10:39:38.26,-157,-133,-2039,29,1,1,-146,-38,-108,92
,505,2023-10-27 10:39:38.27,-139,-155,-2070,18,-3,0,-243,-111,-132,177
,506,2023-10-27 10:39:38.28,-147,-142,-2050,26,-10,3,-120,-37,-83,78
,507,2023-10-27 10:39:38.29,-148,-135,-2050,33,-10,-7,-220,-122,-98,171
,508,2023-10-27 10:39:38.30,-152,-133,-2053,29,-15,-14,-126,-34,-92,80
,509,2023-10-27 10:39:38.31,-151,-149,-2052,32,-16,-24,-237,-101,-136,169
,510,2023-10-27 10:39:38.32,-155,-143,-2058,31,-10,-36,-139,-29,-110,84
,511,2023-10-27 10:39:38.33,-162,-140,-2060,32,0,-49,-238,-117,-121,177
,512,2023-10-27 10:39:38.34,-154,-137,-2072,34,-16,-65,-106,-32,-74,69
,513,2023-10-27 10:39:38.35,-162,-121,-2067,27,-12,-86,-197,-108,-89,152
,514,2023-10-27 10:39:38.36,-150,-110,-2043,18,-11,-107,-61,-24,-37,42
,515,2023-10-27 10:39:38.37,-170,-114,-2011,8,2,-127,-155,-104,-51,129
,516,2023-10-27 10:39:38.38,-150,-113,-1998,0,14,-148,-72,-29,-43,50
,517,2023-10-27 10:39:38.39,-154,-117,-2014,-5,26,-171,-189,-114,-75,151
,518,2023-10-27 10:39:38.40,-145,-122,-2023,-11,38,-191,-130,-30,-100,80
,519,2023-10-27 10:39:38.41,-160,-121,-2004,-18,49,-211,-235,-114,-121,174
,520,2023-10-27 10:39:38.42,-151,-148,-2023,-19,52,-226,-147,-24,-123,85
,521,2023-10-27 10:39:38.43,-162,-151,-2023,-13,42,-235,-239,-125,-114,182
,522,2023-10-27 10:39:38.44,-150,-152,-2036,-12,48,-240,-154,-38,-116,96
,523,2023-10-27 10:39:38.45,-153,-157,-2043,-7,37,-248,-236,-134,-102,185
,524,2023-10-27 10:39:38.46,-158,-144,-2042,-3,31,-259,-156,-36,-120,96
,525,2023-10-27 10:39:38.47,-150,-148,-2050,-2,27,-267,-237,-124,-113,180
,526,2023-10-27 10:39:38.48,-163,-157,-2032,-5,21,-270,-166,-48,-118,107
,527,2023-10-27 10:39:38.49,-142,-158,-2071,3,1,-266,-236,-137,-99,186
,528,2023-10-27 10:39:38.50,-158,-166,-2060,10,-21,-265,-167,-51,-116,109
,529,2023-10-27 10:39:38.51,-157,-173,-2065,13,-39,-257,-233,-142,-91,187
,530,2023-10-27 10:39:38.52,-169,-161,-2081,8,-45,-255,-154,-33,-121,93
,531,2023-10-27 10:39:38.53,-174,-163,-2078,3,-48,-256,-216,-117,-99,166
,532,2023-10-27 10:39:38.54,-163,-153,-2070,0,-50,-260,-122,-18,-104,70
,533,2023-10-27 10:39:38.55,-178,-155,-2064,-9,-40,-267,-188,-118,-70,153
,534,2023-10-27 10:39:38.56,-164,-147,-2057,-14,-30,-273,-144,-20,-124,82
,535,2023-10-27 10:39:38.57,-164,-145,-2053,-21,-22,-284,-224,-120,-104,172
,536,2023-10-27 10:39:38.58,-160,-146,-2024,-20,-7,-298,-183,-44,-139,113
,537,2023-10-27 10:39:38.59,-152,-146,-2021,-25,4,-306,-247,-150,-97,198
,538,2023-10-27 10:39:38.60,-128,-141,-2007,-26,22,-318,-177,-87,-90,132
,539,2023-10-27 10:39:38.61,-108,-137,-1972,-34,50,-329,-224,-174,-50,199
,540,2023-10-27 10:39:38.62,-112,-147,-1985,-37,97,-349,-171,-52,-119,111
,541,2023-10-27 10:39:38.63,-97,-157,-1984,-42,127,-362,-225,-121,-104,173
,542,2023-10-27 10:39:38.64,-67,-149,-1963,-36,147,-371,-191,-31,-160,111
,543,2023-10-27 10:39:38.65,-51,-113,-1977,-36,190,-377,-237,-126,-111,181
,544,2023-10-27 10:39:38.66,-35,-118,-1987,-36,207,-380,-234,-37,-197,135
,545,2023-10-27 10:39:38.67,-33,-157,-2014,-51,253,-380,-271,-131,-140,201
,546,2023-10-27 10:39:38.68,-35,-142,-1991,-43,243,-371,-247,-64,-183,155
,547,2023-10-27 10:39:38.69,-38,-162,-2056,-41,252,-365,-260,-157,-103,208
,548,2023-10-27 10:39:38.70,-51,-199,-2109,-30,239,-346,-156,-50,-106,103
,549,2023-10-27 10:39:38.71,-55,-183,-2140,6,195,-327,-166,-126,-40,146
,550,2023-10-27 10:39:38.72,-55,-162,-2169,23,163,-317,-167,-56,-111,111
,551,2023-10-27 10:39:38.73,-41,-129,-2140,32,104,-316,-222,-150,-72,186
,552,2023-10-27 10:39:38.74,-55,-114,-2127,32,78,-313,-228,-49,-179,138
,553,2023-10-27 10:39:38.75,-78,-104,-2129,22,47,-316,-247,-132,-115,189
,554,2023-10-27 10:39:38.76,-86,-118,-2132,12,12,-319,-257,-60,-197,158
,555,2023-10-27 10:39:38.77,-92,-116,-2127,5,-22,-311,-259,-159,-100,209
,556,2023-10-27 10:39:38.78,-106,-123,-2095,-6,-71,-308,-163,-77,-86,120
,557,2023-10-27 10:39:38.79,-118,-148,-2082,-15,-92,-303,-153,-154,1,153
,558,2023-10-27 10:39:38.80,-99,-153,-2116,-8,-124,-294,-122,-80,-42,101
,559,2023-10-27 10:39:38.81,-126,-159,-2087,5,-162,-290,-154,-164,10,159
,560,2023-10-27 10:39:38.82,-120,-150,-2077,-8,-157,-288,-90,-68,-22,79
,561,2023-10-27 10:39:38.83,-120,-163,-2015,-20,-145,-293,-103,-134,31,118
,562,2023-10-27 10:39:38.84,-135,-162,-1978,-28,-120,-295,-116,-73,-43,94
,563,2023-10-27 10:39:38.85,-137,-170,-2002,-32,-94,-293,-160,-154,-6,157
,564,2023-10-27 10:39:38.86,-143,-163,-2021,-14,-90,-295,-194,-102,-92,148
,565,2023-10-27 10:39:38.87,-159,-211,-2024,13,-117,-303,-192,-164,-28,178
,566,2023-10-27 10:39:38.88,-154,-162,-2049,31,-110,-313,-182,-112,-70,147
,567,2023-10-27 10:39:38.89,-153,-131,-2070,30,-113,-330,-171,-172,1,171
,568,2023-10-27 10:39:38.90,-148,-106,-2049,-41,-84,-358,-122,-91,-31,106
,569,2023-10-27 10:39:38.91,-163,-123,-2026,-74,-70,-363,-135,-149,14,142
,570,2023-10-27 10:39:38.92,-140,-149,-2022,-103,-60,-355,-229,-124,-105,176
,571,2023-10-27 10:39:38.93,-141,-167,-2024,-124,-41,-346,-224,-194,-30,209
,572,2023-10-27 10:39:38.94,-148,-183,-2056,-145,-7,-327,-180,-143,-37,161
,573,2023-10-27 10:39:38.95,-158,-186,-2049,-156,8,-307,-155,-165,10,160
,574,2023-10-27 10:39:38.96,-136,-184,-2059,-140,19,-286,-227,-56,-171,141
,575,2023-10-27 10:39:38.97,-142,-173,-2058,-120,23,-262,-221,-144,-77,182
,576,2023-10-27 10:39:38.98,-144,-171,-2044,-99,12,-246,-288,-184,-104,236
,577,2023-10-27 10:39:38.99,-121,-154,-2010,-78,11,-232,-236,-244,8,240
,578,2023-10-27 10:39:39.00,-123,-173,-2003,-61,18,-212,-239,-204,-35,221
,579,2023-10-27 10:39:39.01,-132,-163,-2053,-37,23,-197,-176,-199,23,187
,580,2023-10-27 10:39:39.02,-128,-158,-2041,-6,21,-187,-179,-87,-92,133
,581,2023-10-27 10:39:39.03,-128,-163,-2059,13,27,-175,-147,-115,-32,131
,582,2023-10-27 10:39:39.04,-123,-169,-2043,26,18,-159,-205,-74,-131,139
,583,2023-10-27 10:39:39.05,-115,-169,-2036,31,24,-146,-162,-132,-30,147
,584,2023-10-27 10:39:39.06,-122,-166,-2033,43,29,-134,-159,-93,-66,126
,585,2023-10-27 10:39:39.07,-108,-156,-2052,40,50,-121,-104,-127,23,115
,586,2023-10-27 10:39:39.08,-107,-151,-2042,26,68,-113,-122,-59,-63,90
,587,2023-10-27 10:39:39.09,-104,-162,-2031,26,75,-107,-94,-91,-3,92
,588,2023-10-27 10:39:39.10,-86,-169,-2041,38,79,-106,-147,-59,-88,103
,589,2023-10-27 10:39:39.11,-89,-146,-2042,37,82,-104,-122,-100,-22,111
,590,2023-10-27 10:39:39.12,-76,-146,-2030,33,88,-107,-204,-69,-135,136
,591,2023-10-27 10:39:39.13,-72,-149,-2047,31,95,-105,-146,-98,-48,122
,592,2023-10-27 10:39:39.14,-79,-148,-2054,31,91,-106,-180,-59,-121,119
,593,2023-10-27 10:39:39.15,-68,-159,-2060,22,86,-104,-116,-80,-36,98
,594,2023-10-27 10:39:39.16,-77,-168,-2065,16,89,-102,-197,-46,-151,121
,595,2023-10-27 10:39:39.17,-62,-153,-2062,21,86,-107,-144,-72,-72,108
,596,2023-10-27 10:39:39.18,-58,-134,-2058,11,76,-111,-215,-59,-156,137
,597,2023-10-27 10:39:39.19,-35,-135,-2047,-10,86,-129,-132,-87,-45,109
,598,2023-10-27 10:39:39.20,-46,-137,-2058,-26,90,-130,-202,-82,-120,142
,599,2023-10-27 10:39:39.21,-46,-145,-2041,-28,82,-125,-130,-99,-31,114
,600,2023-10-27 10:39:39.22,-43,-174,-2063,-22,79,-117,-216,-86,-130,151
,601,2023-10-27 10:39:39.23,-40,-197,-2071,-13,63,-103,-133,-109,-24,121
,602,2023-10-27 10:39:39.24,-50,-199,-2081,6,54,-85,-197,-111,-86,154
,603,2023-10-27 10:39:39.25,-59,-204,-2077,23,31,-60,-113,-119,6,116
,604,2023-10-27 10:39:39.26,-47,-227,-2083,41,19,-41,-168,-100,-68,134
,605,2023-10-27 10:39:39.27,-59,-200,-2097,54,13,-23,-114,-107,-7,110
,606,2023-10-27 10:39:39.28,-53,-182,-2087,46,26,-14,-245,-104,-141,174
,607,2023-10-27 10:39:39.29,-45,-183,-2060,37,33,-12,-162,-103,-59,132
,608,2023-10-27 10:39:39.30,-51,-188,-2066,53,27,-3,-213,-83,-130,148
,609,2023-10-27 10:39:39.31,-60,-161,-2056,61,19,-5,-106,-74,-32,90
,610,2023-10-27 10:39:39.32,-70,-163,-2045,60,18,-1,-191,-89,-102,140
,611,2023-10-27 10:39:39.33,-79,-178,-2039,64,9,4,-93,-90,-3,91
,612,2023-10-27 10:39:39.34,-84,-180,-2027,66,3,4,-173,-109,-64,141
,613,2023-10-27 10:39:39.35,-80,-179,-2025,63,7,2,-71,-95,24,83
,614,2023-10-27 10:39:39.36,-72,-178,-2020,60,7,-1,-148,-114,-34,131
,615,2023-10-27 10:39:39.37,-86,-177,-2037,51,9,-2,-67,-75,8,71
,616,2023-10-27 10:39:39.38,-91,-170,-2033,42,6,-11,-187,-74,-113,130
,617,2023-10-27 10:39:39.39,-89,-171,-2022,30,11,-16,-98,-42,-56,70
,618,2023-10-27 10:39:39.40,-105,-171,-2020,16,18,-20,-202,-49,-153,125
,619,2023-10-27 10:39:39.41,-89,-168,-2016,5,23,-26,-124,-34,-90,79
,620,2023-10-27 10:39:39.42,-106,-171,-2011,-9,31,-30,-275,-82,-193,178
,621,2023-10-27 10:39:39.43,-96,-183,-2005,-15,38,-33,-151,-65,-86,108
,622,2023-10-27 10:39:39.44,-96,-194,-2010,-19,51,-31,-225,-87,-138,156
,623,2023-10-27 10:39:39.45,-85,-200,-2008,-16,60,-29,-118,-55,-63,86
,624,2023-10-27 10:39:39.46,-99,-197,-2014,-11,67,-26,-254,-84,-170,169
,625,2023-10-27 10:39:39.47,-77,-215,-2048,-7,75,-17,-138,-54,-84,96
,626,2023-10-27 10:39:39.48,-91,-194,-2063,-5,76,-3,-235,-80,-155,157
,627,2023-10-27 10:39:39.49,-70,-195,-2067,-11,82,3,-130,-52,-78,91
,628,2023-10-27 10:39:39.50,-73,-190,-2072,-22,85,18,-262,-102,-160,182
,629,2023-10-27 10:39:39.51,-67,-172,-2062,-27,81,25,-155,-72,-83,113
,630,2023-10-27 10:39:39.52,-62,-148,-2048,-34,73,28,-262,-105,-157,183
,631,2023-10-27 10:39:39.53,-56,-151,-2073,-40,68,28,-139,-68,-71,103
,632,2023-10-27 10:39:39.54,-59,-144,-2061,-47,62,27,-246,-114,-132,180
,633,2023-10-27 10:39:39.55,-61,-141,-2073,-50,48,21,-155,-72,-83,113
,634,2023-10-27 10:39:39.56,-49,-136,-2072,-49,37,22,-290,-124,-166,207
,635,2023-10-27 10:39:39.57,-69,-131,-2071,-59,29,20,-167,-70,-97,118
,636,2023-10-27 10:39:39.58,-70,-136,-2092,-83,31,20,-267,-116,-151,191
,637,2023-10-27 10:39:39.59,-68,-151,-2085,-92,27,26,-126,-55,-71,90
,638,2023-10-27 10:39:39.60,-66,-166,-2073,-89,13,31,-228,-104,-124,166
,639,2023-10-27 10:39:39.61,-56,-149,-2083,-92,8,43,-103,-40,-63,71
,640,2023-10-27 10:39:39.62,-49,-141,-2070,-99,8,51,-220,-87,-133,153
,641,2023-10-27 10:39:39.63,-46,-131,-2067,-99,12,58,-92,-42,-50,67
,642,2023-10-27 10:39:39.64,-41,-122,-2064,-101,15,63,-199,-103,-96,151
,643,2023-10-27 10:39:39.65,-53,-113,-2078,-100,19,70,-96,-43,-53,69
,644,2023-10-27 10:39:39.66,-45,-118,-2080,-93,19,74,-248,-112,-136,180
,645,2023-10-27 10:39:39.67,-47,-113,-2083,-86,23,81,-133,-37,-96,85
,646,2023-10-27 10:39:39.68,-29,-103,-2093,-81,25,85,-239,-98,-141,168
,647,2023-10-27 10:39:39.69,-42,-108,-2084,-76,27,88,-116,-39,-77,77
,648,2023-10-27 10:39:39.70,-31,-103,-2071,-65,29,86,-233,-112,-121,172
,649,2023-10-27 10:39:39.71,-20,-103,-2058,-50,33,84,-105,-55,-50,80
,650,2023-10-27 10:39:39.72,-28,-93,-2044,-34,36,84,-186,-104,-82,145
,651,2023-10-27 10:39:39.73,-16,-109,-2023,-32,50,78,-95,-53,-42,74
,652,2023-10-27 10:39:39.74,-12,-126,-2033,-14,57,84,-222,-128,-94,175
,653,2023-10-27 10:39:39.75,-17,-118,-2038,15,60,85,-100,-56,-44,78
,654,2023-10-27 10:39:39.76,-17,-115,-2025,28,58,83,-186,-109,-77,147
,655,2023-10-27 10:39:39.77,-34,-110,-2030,32,69,84,-98,-50,-48,74
,656,2023-10-27 10:39:39.78,-30,-120,-2043,36,69,82,-222,-134,-88,178
,657,2023-10-27 10:39:39.79,-43,-128,-2029,42,63,85,-122,-72,-50,97
,658,2023-10-27 10:39:39.80,-37,-129,-2039,47,56,87,-217,-139,-78,178
,659,2023-10-27 10:39:39.81,-45,-140,-2043,47,49,88,-147,-52,-95,99
,660,2023-10-27 10:39:39.82,-46,-131,-2031,48,41,83,-260,-122,-138,191
,661,2023-10-27 10:39:39.83,-45,-149,-2036,53,34,81,-128,-39,-89,83
,662,2023-10-27 10:39:39.84,-46,-147,-2045,59,15,80,-198,-106,-92,152
,663,2023-10-27 10:39:39.85,-44,-127,-2026,69,-3,77,-125,-9,-116,67
,664,2023-10-27 10:39:39.86,-46,-130,-2024,50,-1,68,-237,-84,-153,160
,665,2023-10-27 10:39:39.87,-56,-126,-2036,23,13,62,-140,-14,-126,77
,666,2023-10-27 10:39:39.88,-53,-127,-2030,6,24,56,-220,-111,-109,165
,667,2023-10-27 10:39:39.89,-45,-125,-2049,-15,37,49,-99,-32,-67,65
,668,2023-10-27 10:39:39.90,-39,-128,-2053,-39,48,47,-182,-119,-63,150
,669,2023-10-27 10:39:39.91,-39,-130,-2052,-59,59,46,-90,-38,-52,64
,670,2023-10-27 10:39:39.92,-31,-117,-2067,-68,67,44,-183,-129,-54,156
,671,2023-10-27 10:39:39.93,-22,-129,-2075,-76,72,42,-101,-38,-63,69
,672,2023-10-27 10:39:39.94,-20,-124,-2077,-81,73,50,-196,-122,-74,159
,673,2023-10-27 10:39:39.95,-27,-119,-2089,-79,66,51,-114,-29,-85,71
,674,2023-10-27 10:39:39.96,-14,-116,-2091,-78,58,58,-198,-118,-80,158
,675,2023-10-27 10:39:39.97,-2,-114,-2086,-75,56,64,-118,-27,-91,72
,676,2023-10-27 10:39:39.98,-2,-105,-2101,-69,52,70,-201,-119,-82,160
,677,2023-10-27 10:39:39.99,-2,-91,-2087,-64,45,77,-111,-46,-65,78
,678,2023-10-27 10:39:40.00,3,-92,-2084,-59,39,77,-190,-143,-47,166
,679,2023-10-27 10:39:40.01,-5,-95,-2079,-52,34,81,-115,-93,-22,104
,680,2023-10-27 10:39:40.02,-10,-90,-2058,-44,24,85,-192,-184,-8,188
,681,2023-10-27 10:39:40.03,6,-67,-2066,-41,28,80,-126,-66,-60,96
,682,2023-10-27 10:39:40.04,-12,-93,-2056,-37,22,79,-205,-134,-71,169
,683,2023-10-27 10:39:40.05,-5,-80,-2059,-28,16,78,-150,-72,-78,111
,684,2023-10-27 10:39:40.06,-6,-76,-2066,-17,14,76,-215,-163,-52,189
,685,2023-10-27 10:39:40.07,-23,-77,-2058,-10,6,70,-175,-103,-72,139
,686,2023-10-27 10:39:40.08,-10,-79,-2064,-5,4,65,-234,-172,-62,203
,687,2023-10-27 10:39:40.09,-17,-72,-2048,-3,3,59,-213,-52,-161,132
,688,2023-10-27 10:39:40.10,-19,-76,-2056,-3,4,53,-260,-116,-144,188
,689,2023-10-27 10:39:40.11,-19,-71,-2058,-6,-1,49,-145,-38,-107,91
,690,2023-10-27 10:39:40.12,-12,-74,-2050,-8,5,43,-173,-140,-33,156
,691,2023-10-27 10:39:40.13,-20,-72,-2051,-11,10,37,-108,-47,-61,77
,692,2023-10-27 10:39:40.14,-12,-87,-2056,-10,10,37,-178,-133,-45,155
,693,2023-10-27 10:39:40.15,-5,-78,-2056,-11,12,36,-195,-47,-148,121
,694,2023-10-27 10:39:40.16,-16,-88,-2060,-8,16,35,-250,-138,-112,194
,695,2023-10-27 10:39:40.17,-5,-88,-2060,-2,18,35,-176,-67,-109,121
,696,2023-10-27 10:39:40.18,-7,-89,-2065,11,17,38,-188,-150,-38,169
,697,2023-10-27 10:39:40.19,-6,-82,-2064,14,22,38,-93,-45,-48,69
,698,2023-10-27 10:39:40.20,-9,-89,-2065,20,21,41,-137,-128,-9,132
,699,2023-10-27 10:39:40.21,-10,-89,-2059,22,20,44,-137,-54,-83,95
,700,2023-10-27 10:39:40.22,-2,-93,-2075,29,18,48,-202,-148,-54,175
,701,2023-10-27 10:39:40.23,0,-86,-2077,37,16,53,-246,-64,-182,155
,702,2023-10-27 10:39:40.24,-2,-97,-2070,42,12,53,-271,-148,-123,209
,703,2023-10-27 10:39:40.25,5,-94,-2070,39,12,58,-268,-44,-224,156
,704,2023-10-27 10:39:40.26,9,-88,-2064,43,7,59,-270,-120,-150,195
,705,2023-10-27 10:39:40.27,2,-101,-2059,40,5,62,-315,-48,-267,181
,706,2023-10-27 10:39:40.28,11,-95,-2075,43,8,65,-312,-145,-167,228
,707,2023-10-27 10:39:40.29,-4,-102,-2065,45,5,64,-281,-57,-224,169
,708,2023-10-27 10:39:40.30,-7,-102,-2070,47,1,65,-241,-140,-101,190
,709,2023-10-27 10:39:40.31,-12,-99,-2068,47,0,62,-183,-82,-101,132
,710,2023-10-27 10:39:40.32,4,-97,-2063,46,1,60,-183,-160,-23,171
,711,2023-10-27 10:39:40.33,-15,-98,-2061,47,-4,56,-225,-62,-163,143
,712,2023-10-27 10:39:40.34,-9,-98,-2051,45,-5,54,-238,-139,-99,188
,713,2023-10-27 10:39:40.35,-17,-94,-2056,43,-8,50,-213,-83,-130,148
,714,2023-10-27 10:39:40.36,-12,-98,-2044,41,-10,46,-200,-166,-34,183
,715,2023-10-27 10:39:40.37,-20,-107,-2050,41,-10,47,-249,-122,-127,185
,716,2023-10-27 10:39:40.38,-25,-105,-2058,37,-12,47,-250,-178,-72,214
,717,2023-10-27 10:39:40.39,-14,-133,-2059,35,-15,47,-252,-85,-167,168
,718,2023-10-27 10:39:40.40,-33,-91,-2055,47,-21,48,-216,-146,-70,181
,719,2023-10-27 10:39:40.41,-25,-104,-2045,42,-18,41,-219,-109,-110,164
,720,2023-10-27 10:39:40.42,-22,-118,-2041,42,-11,38,-206,-171,-35,188
,721,2023-10-27 10:39:40.43,-26,-102,-2039,37,-4,27,-266,-94,-172,180
,722,2023-10-27 10:39:40.44,-25,-98,-2038,29,11,16,-242,-140,-102,191
,723,2023-10-27 10:39:40.45,-25,-113,-2044,23,22,11,-262,-84,-178,173
,724,2023-10-27 10:39:40.46,-23,-118,-2048,21,28,4,-224,-138,-86,181
,725,2023-10-27 10:39:40.47,-32,-123,-2043,17,30,-1,-267,-63,-204,165
,726,2023-10-27 10:39:40.48,-25,-124,-2047,17,35,-5,-224,-133,-91,178
,727,2023-10-27 10:39:40.49,-26,-125,-2062,18,30,-7,-219,-114,-105,166
,728,2023-10-27 10:39:40.50,-11,-118,-2063,17,29,-8,-176,-162,-14,169
,729,2023-10-27 10:39:40.51,-11,-116,-2058,15,31,-10,-232,-96,-136,164
,730,2023-10-27 10:39:40.52,-6,-114,-2065,10,39,-9,-191,-130,-61,160
,731,2023-10-27 10:39:40.53,-9,-121,-2066,11,37,-2,-221,-100,-121,160
,732,2023-10-27 10:39:40.54,-14,-131,-2068,8,33,7,-168,-134,-34,151
,733,2023-10-27 10:39:40.55,-18,-134,-2071,11,28,15,-226,-88,-138,157
,734,2023-10-27 10:39:40.56,-14,-135,-2069,12,23,29,-179,-130,-49,154
,735,2023-10-27 10:39:40.57,-5,-125,-2060,13,20,35,-227,-112,-115,169
,736,2023-10-27 10:39:40.58,-12,-133,-2049,18,14,42,-162,-142,-20,152
,737,2023-10-27 10:39:40.59,-6,-141,-2063,21,11,49,-220,-101,-119,160
,738,2023-10-27 10:39:40.60,-20,-125,-2050,32,6,53,-168,-121,-47,144
,739,2023-10-27 10:39:40.61,-8,-113,-2053,30,-2,53,-251,-95,-156,173
,740,2023-10-27 10:39:40.62,-19,-124,-2057,22,5,54,-195,-118,-77,156
,741,2023-10-27 10:39:40.63,-7,-123,-2060,23,2,57,-276,-67,-209,171
,742,2023-10-27 10:39:40.64,-25,-105,-2059,10,6,52,-195,-99,-96,147
,743,2023-10-27 10:39:40.65,-11,-109,-2065,1,2,51,-266,-90,-176,178
,744,2023-10-27 10:39:40.66,-36,-110,-2056,-8,4,46,-198,-114,-84,156
,745,2023-10-27 10:39:40.67,-31,-125,-2064,-11,-2,47,-306,-82,-224,194
,746,2023-10-27 10:39:40.68,-24,-115,-2067,-23,-4,47,-213,-94,-119,153
,747,2023-10-27 10:39:40.69,-17,-117,-2075,-23,-11,48,-259,-82,-177,170
,748,2023-10-27 10:39:40.70,-6,-122,-2065,-28,-14,51,-167,-108,-59,137
,749,2023-10-27 10:39:40.71,-13,-107,-2058,-37,-3,54,-258,-97,-161,177
,750,2023-10-27 10:39:40.72,-9,-116,-2050,-41,6,56,-174,-119,-55,146
,751,2023-10-27 10:39:40.73,-12,-111,-2050,-47,16,64,-248,-126,-122,187
,752,2023-10-27 10:39:40.74,-9,-112,-2062,-51,26,65,-155,-118,-37,136
,753,2023-10-27 10:39:40.75,-18,-111,-2073,-40,22,70,-231,-90,-141,160
,754,2023-10-27 10:39:40.76,0,-104,-2073,-28,16,75,-165,-102,-63,133
,755,2023-10-27 10:39:40.77,1,-94,-2067,-20,10,81,-291,-136,-155,213
,756,2023-10-27 10:39:40.78,-2,-95,-2070,-14,10,84,-158,-135,-23,146
,757,2023-10-27 10:39:40.79,-9,-89,-2070,-7,5,86,-175,-133,-42,154
,758,2023-10-27 10:39:40.80,-15,-93,-2074,3,1,86,-80,-101,21,90
,759,2023-10-27 10:39:40.81,-28,-88,-2064,8,-12,81,-192,-83,-109,137
,760,2023-10-27 10:39:40.82,-30,-84,-2067,15,-16,82,-145,-66,-79,105
,761,2023-10-27 10:39:40.83,-34,-75,-2066,18,-22,74,-281,-82,-199,181
,762,2023-10-27 10:39:40.84,-30,-83,-2058,16,-25,63,-179,-81,-98,130
,763,2023-10-27 10:39:40.85,-33,-95,-2046,21,-25,54,-270,-107,-163,188
,764,2023-10-27 10:39:40.86,-27,-91,-2027,27,-21,45,-153,-88,-65,120
,765,2023-10-27 10:39:40.87,-31,-90,-2028,29,-9,33,-248,-112,-136,180
,766,2023-10-27 10:39:40.88,-37,-103,-2023,31,4,27,-141,-86,-55,113
,767,2023-10-27 10:39:40.89,-34,-113,-2036,32,16,20,-261,-128,-133,194
,768,2023-10-27 10:39:40.90,-33,-122,-2030,29,30,15,-143,-114,-29,128
,769,2023-10-27 10:39:40.91,-28,-123,-2018,25,50,12,-237,-146,-91,191
,770,2023-10-27 10:39:40.92,-23,-128,-2022,25,64,10,-143,-98,-45,120
,771,2023-10-27 10:39:40.93,-24,-141,-2030,25,78,14,-277,-117,-160,197
,772,2023-10-27 10:39:40.94,-20,-135,-2035,27,87,15,-198,-87,-111,142
,773,2023-10-27 10:39:40.95,-2,-132,-2035,27,97,18,-336,-124,-212,230
,774,2023-10-27 10:39:40.96,0,-116,-2041,23,104,18,-200,-100,-100,150
,775,2023-10-27 10:39:40.97,-9,-124,-2043,17,108,23,-284,-134,-150,209
,776,2023-10-27 10:39:40.98,0,-129,-2052,18,111,31,-172,-95,-77,133
,777,2023-10-27 10:39:40.99,5,-130,-2056,14,107,36,-306,-133,-173,219
,778,2023-10-27 10:39:41.00,3,-125,-2067,8,108,45,-219,-73,-146,146
,779,2023-10-27 10:39:41.01,19,-115,-2062,1,92,57,-360,-91,-269,225
,780,2023-10-27 10:39:41.02,10,-118,-2069,-6,91,59,-264,-56,-208,160
,781,2023-10-27 10:39:41.03,24,-117,-2076,-12,94,63,-392,-108,-284,250
,782,2023-10-27 10:39:41.04,40,-108,-2066,-10,87,65,-268,-69,-199,168
,783,2023-10-27 10:39:41.05,36,-111,-2070,-10,77,63,-379,-115,-264,247
,784,2023-10-27 10:39:41.06,38,-105,-2064,-13,77,60,-247,-66,-181,156
,785,2023-10-27 10:39:41.07,28,-111,-2076,-10,74,57,-340,-103,-237,221
,786,2023-10-27 10:39:41.08,31,-97,-2080,-14,65,57,-229,-57,-172,143
,787,2023-10-27 10:39:41.09,42,-99,-2076,-14,55,53,-341,-109,-232,225
,788,2023-10-27 10:39:41.10,39,-101,-2085,-13,49,49,-212,-69,-143,140
,789,2023-10-27 10:39:41.11,42,-93,-2097,-20,43,47,-312,-126,-186,219
,790,2023-10-27 10:39:41.12,40,-84,-2093,-20,26,45,-175,-100,-75,137
,791,2023-10-27 10:39:41.13,52,-85,-2088,-24,13,44,-271,-155,-116,213
,792,2023-10-27 10:39:41.14,49,-82,-2076,-28,-1,46,-168,-89,-79,128
,793,2023-10-27 10:39:41.15,42,-86,-2080,-27,-7,47,-288,-136,-152,212
,794,2023-10-27 10:39:41.16,40,-92,-2064,-22,-17,49,-186,-60,-126,123
,795,2023-10-27 10:39:41.17,57,-90,-2048,-17,-23,52,-293,-102,-191,197
,796,2023-10-27 10:39:41.18,47,-82,-2056,-12,-26,58,-176,-55,-121,115
,797,2023-10-27 10:39:41.19,41,-86,-2049,-5,-26,60,-274,-121,-153,197
,798,2023-10-27 10:39:41.20,43,-96,-2042,0,-23,65,-203,-60,-143,131
,799,2023-10-27 10:39:41.21,26,-97,-2061,10,-27,71,-336,-115,-221,225
,800,2023-10-27 10:39:41.22,32,-95,-2074,17,-33,76,-201,-67,-134,134
,801,2023-10-27 10:39:41.23,19,-81,-2065,23,-36,78,-260,-136,-124,198
,802,2023-10-27 10:39:41.24,23,-87,-2062,24,-32,80,-132,-48,-84,90
,803,2023-10-27 10:39:41.25,18,-89,-2070,22,-32,81,-233,-98,-135,165
,804,2023-10-27 10:39:41.26,14,-93,-2069,21,-30,80,-163,-43,-120,103
,805,2023-10-27 10:39:41.27,12,-103,-2079,18,-33,82,-276,-119,-157,197
,806,2023-10-27 10:39:41.28,-16,-100,-2058,29,-41,88,-196,-82,-114,139
,807,2023-10-27 10:39:41.29,-29,-95,-2048,28,-46,88,-290,-152,-138,221
,808,2023-10-27 10:39:41.30,-23,-113,-2059,28,-51,92,-195,-99,-96,147
,809,2023-10-27 10:39:41.31,-24,-126,-2054,36,-56,93,-280,-165,-115,222
,810,2023-10-27 10:39:41.32,-21,-112,-2065,47,-61,91,-228,-75,-153,151
,811,2023-10-27 10:39:41.33,-31,-94,-2047,48,-73,89,-341,-145,-196,243
,812,2023-10-27 10:39:41.34,-11,-96,-2043,37,-66,83,-222,-88,-134,155
,813,2023-10-27 10:39:41.35,-11,-100,-2036,28,-49,77,-282,-184,-98,233
,814,2023-10-27 10:39:41.36,-3,-104,-2038,26,-37,70,-189,-107,-82,148
,815,2023-10-27 10:39:41.37,-10,-92,-2037,21,-20,69,-282,-175,-107,228
,816,2023-10-27 10:39:41.38,10,-81,-2035,15,-13,57,-226,-71,-155,148
,817,2023-10-27 10:39:41.39,7,-98,-2045,9,6,52,-312,-137,-175,224
,818,2023-10-27 10:39:41.40,7,-98,-2050,-1,20,49,-207,-75,-132,141
,819,2023-10-27 10:39:41.41,7,-109,-2054,-5,33,48,-276,-170,-106,223
,820,2023-10-27 10:39:41.42,9,-122,-2061,-5,43,50,-183,-89,-94,136
,821,2023-10-27 10:39:41.43,4,-129,-2057,-1,46,58,-255,-166,-89,210
,822,2023-10-27 10:39:41.44,26,-124,-2040,12,41,71,-172,-91,-81,131
,823,2023-10-27 10:39:41.45,18,-119,-2060,23,36,80,-250,-170,-80,210
,824,2023-10-27 10:39:41.46,19,-121,-2065,30,24,95,-198,-96,-102,147
,825,2023-10-27 10:39:41.47,22,-134,-2077,34,17,108,-278,-172,-106,225
,826,2023-10-27 10:39:41.48,-4,-126,-2069,53,2,134,-192,-97,-95,144
,827,2023-10-27 10:39:41.49,13,-117,-2065,68,-13,144,-248,-176,-72,212
,828,2023-10-27 10:39:41.50,9,-132,-2084,74,-21,155,-189,-114,-75,151
,829,2023-10-27 10:39:41.51,-1,-124,-2101,82,-36,172,-262,-190,-72,226
,830,2023-10-27 10:39:41.52,-4,-137,-2103,86,-57,181,-205,-171,-34,188
,831,2023-10-27 10:39:41.53,-18,-120,-2100,93,-75,184,-267,-256,-11,261
,832,2023-10-27 10:39:41.54,0,-113,-2096,97,-93,193,-262,-225,-37,243
,833,2023-10-27 10:39:41.55,-16,-119,-2085,99,-103,192,-319,-277,-42,298
,834,2023-10-27 10:39:41.56,6,-149,-2097,100,-112,183,-232,-223,-9,227
,835,2023-10-27 10:39:41.57,-29,-80,-2066,99,-105,179,-259,-278,19,268
,836,2023-10-27 10:39:41.58,-19,-135,-2082,88,-102,170,-245,-207,-38,226
,837,2023-10-27 10:39:41.59,-6,-97,-2044,79,-81,154,-309,-259,-50,284
,838,2023-10-27 10:39:41.60,-17,-91,-2037,71,-72,146,-288,-231,-57,259
,839,2023-10-27 10:39:41.61,-14,-114,-2029,69,-71,130,-317,-279,-38,298
,840,2023-10-27 10:39:41.62,-6,-109,-2022,69,-60,121,-298,-144,-154,221
,841,2023-10-27 10:39:41.63,-15,-109,-2060,67,-42,110,-323,-195,-128,259
,842,2023-10-27 10:39:41.64,-15,-109,-2048,58,-31,91,-328,-188,-140,258
,843,2023-10-27 10:39:41.65,-14,-131,-2039,41,-15,82,-351,-275,-76,313
,844,2023-10-27 10:39:41.66,2,-127,-2022,29,-2,70,-329,-216,-113,272
,845,2023-10-27 10:39:41.67,-9,-140,-2028,30,14,67,-328,-268,-60,298
,846,2023-10-27 10:39:41.68,2,-152,-2030,36,20,65,-277,-184,-93,230
,847,2023-10-27 10:39:41.69,7,-146,-2026,36,18,64,-277,-228,-49,252
,848,2023-10-27 10:39:41.70,-2,-151,-2030,37,16,66,-258,-110,-148,184
,849,2023-10-27 10:39:41.71,-8,-137,-2041,32,22,68,-260,-182,-78,221
,850,2023-10-27 10:39:41.72,13,-147,-2048,31,28,80,-191,-128,-63,159
,851,2023-10-27 10:39:41.73,7,-153,-2087,34,22,88,-200,-204,4,202
,852,2023-10-27 10:39:41.74,11,-144,-2082,27,17,94,-228,-139,-89,183
,853,2023-10-27 10:39:41.75,-2,-156,-2091,21,11,109,-256,-202,-54,229
,854,2023-10-27 10:39:41.76,8,-147,-2072,11,9,117,-221,-104,-117,162
,855,2023-10-27 10:39:41.77,-7,-142,-2073,9,-4,131,-215,-160,-55,187
,856,2023-10-27 10:39:41.78,11,-144,-2064,3,-16,144,-256,-91,-165,173
,857,2023-10-27 10:39:41.79,-21,-147,-2069,5,-23,150,-272,-175,-97,223
,858,2023-10-27 10:39:41.80,-15,-139,-2075,14,-43,155,-297,-111,-186,204
,859,2023-10-27 10:39:41.81,-28,-132,-2079,18,-63,165,-267,-183,-84,225
,860,2023-10-27 10:39:41.82,-25,-140,-2085,22,-86,168,-215,-120,-95,167
,861,2023-10-27 10:39:41.83,-41,-148,-2087,50,-116,180,-201,-180,-21,190
,862,2023-10-27 10:39:41.84,-39,-101,-2060,62,-138,180,-233,-73,-160,153
,863,2023-10-27 10:39:41.85,-44,-102,-2054,55,-142,168,-239,-141,-98,190
,864,2023-10-27 10:39:41.86,-65,-113,-2060,41,-134,156,-270,-100,-170,185
,865,2023-10-27 10:39:41.87,-70,-117,-2081,36,-129,146,-249,-184,-65,216
,866,2023-10-27 10:39:41.88,-66,-140,-2080,34,-140,133,-264,-138,-126,201
,867,2023-10-27 10:39:41.89,-83,-102,-2065,30,-131,119,-233,-187,-46,210
,868,2023-10-27 10:39:41.90,-76,-106,-2065,16,-128,101,-258,-108,-150,183
,869,2023-10-27 10:39:41.91,-80,-116,-2024,-1,-126,86,-231,-160,-71,195
,870,2023-10-27 10:39:41.92,-79,-103,-2027,-8,-121,69,-284,-91,-193,187
,871,2023-10-27 10:39:41.93,-72,-98,-2031,-5,-104,57,-245,-152,-93,198
,872,2023-10-27 10:39:41.94,-68,-119,-2037,-12,-78,39,-252,-94,-158,173
,873,2023-10-27 10:39:41.95,-54,-99,-2010,-29,-54,22,-202,-152,-50,177
,874,2023-10-27 10:39:41.96,-62,-85,-1996,-40,-22,4,-224,-95,-129,159
,875,2023-10-27 10:39:41.97,-47,-103,-2011,-44,21,-10,-186,-153,-33,169
,876,2023-10-27 10:39:41.98,-41,-124,-2030,-49,46,-22,-196,-116,-80,156
,877,2023-10-27 10:39:41.99,-52,-118,-1997,-62,71,-31,-166,-170,4,168
,878,2023-10-27 10:39:42.00,-45,-113,-2005,-76,106,-35,-248,-128,-120,188
,879,2023-10-27 10:39:42.01,-46,-145,-2042,-88,128,-27,-227,-169,-58,198
,880,2023-10-27 10:39:42.02,-52,-142,-2033,-72,126,-11,-316,-133,-183,224
,881,2023-10-27 10:39:42.03,-36,-169,-2053,-47,110,13,-239,-189,-50,214
,882,2023-10-27 10:39:42.04,-47,-158,-2064,-25,88,35,-245,-188,-57,216
,883,2023-10-27 10:39:42.05,-50,-131,-2056,-3,65,53,-187,-195,8,191
,884,2023-10-27 10:39:42.06,-38,-128,-2062,11,43,74,-294,-123,-171,208
,885,2023-10-27 10:39:42.07,-50,-129,-2060,12,34,85,-231,-148,-83,189
,886,2023-10-27 10:39:42.08,-36,-114,-2060,13,20,100,-258,-136,-122,197
,887,2023-10-27 10:39:42.09,-31,-112,-2049,14,11,104,-186,-189,3,187
,888,2023-10-27 10:39:42.10,-50,-112,-2053,18,3,108,-274,-202,-72,238
,889,2023-10-27 10:39:42.11,-56,-101,-2063,21,-9,103,-212,-218,6,215
,890,2023-10-27 10:39:42.12,-39,-91,-2074,21,-17,94,-291,-207,-84,249
,891,2023-10-27 10:39:42.13,-44,-95,-2083,14,-23,82,-236,-175,-61,205
,892,2023-10-27 10:39:42.14,-42,-89,-2090,9,-26,69,-351,-116,-235,233
,893,2023-10-27 10:39:42.15,-52,-94,-2083,4,-25,51,-276,-128,-148,202
,894,2023-10-27 10:39:42.16,-54,-91,-2092,-3,-21,34,-358,-123,-235,240
,895,2023-10-27 10:39:42.17,-48,-96,-2090,-6,-19,20,-251,-207,-44,229
,896,2023-10-27 10:39:42.18,-67,-96,-2090,-12,-21,7,-371,-278,-93,324
,897,2023-10-27 10:39:42.19,-54,-96,-2070,-12,-26,-6,-300,-222,-78,261
,898,2023-10-27 10:39:42.20,-53,-103,-2048,-19,-14,-15,-374,-89,-285,231
,899,2023-10-27 10:39:42.21,-43,-117,-2034,-17,-11,-25,-260,-95,-165,177
,900,2023-10-27 10:39:42.22,-43,-130,-2028,-9,-7,-31,-340,-165,-175,252
,901,2023-10-27 10:39:42.23,-46,-128,-2027,-3,13,-37,-239,-256,17,247
,902,2023-10-27 10:39:42.24,-48,-131,-2030,9,26,-38,-365,-354,-11,359
,903,2023-10-27 10:39:42.25,-35,-131,-2033,18,36,-40,-259,-283,24,271
,904,2023-10-27 10:39:42.26,-55,-129,-2039,23,47,-38,-354,-206,-148,280
,905,2023-10-27 10:39:42.27,-40,-130,-2038,31,46,-40,-228,-156,-72,192
,906,2023-10-27 10:39:42.28,-48,-131,-2045,34,37,-36,-319,-177,-142,248
,907,2023-10-27 10:39:42.29,-57,-136,-2040,39,33,-33,-227,-200,-27,213
,908,2023-10-27 10:39:42.30,-44,-142,-2054,41,23,-31,-353,-240,-113,296
,909,2023-10-27 10:39:42.31,-52,-138,-2070,42,18,-28,-256,-188,-68,222
,910,2023-10-27 10:39:42.32,-56,-145,-2066,39,7,-26,-372,-150,-222,261
,911,2023-10-27 10:39:42.33,-44,-143,-2070,36,-1,-24,-257,-117,-140,187
,912,2023-10-27 10:39:42.34,-61,-141,-2078,36,-13,-24,-367,-141,-226,254
,913,2023-10-27 10:39:42.35,-58,-139,-2081,38,-24,-28,-249,-120,-129,184
,914,2023-10-27 10:39:42.36,-50,-120,-2085,29,-36,-32,-362,-117,-245,239
,915,2023-10-27 10:39:42.37,-59,-123,-2073,17,-41,-41,-237,-115,-122,176
,916,2023-10-27 10:39:42.38,-64,-128,-2076,5,-39,-45,-346,-170,-176,258
,917,2023-10-27 10:39:42.39,-59,-134,-2085,-6,-39,-53,-223,-131,-92,177
,918,2023-10-27 10:39:42.40,-52,-137,-2102,-14,-38,-58,-321,-115,-206,218
,919,2023-10-27 10:39:42.41,-55,-129,-2091,-24,-40,-62,-209,-88,-121,148
,920,2023-10-27 10:39:42.42,-48,-113,-2076,-33,-35,-64,-325,-131,-194,228
,921,2023-10-27 10:39:42.43,-52,-109,-2067,-66,-21,-73,-196,-96,-100,146
,922,2023-10-27 10:39:42.44,-38,-125,-2072,-91,4,-70,-302,-104,-198,203
,923,2023-10-27 10:39:42.45,-40,-111,-2025,-86,9,-62,-209,-57,-152,133
,924,2023-10-27 10:39:42.46,-37,-129,-2006,-80,21,-50,-353,-80,-273,216
,925,2023-10-27 10:39:42.47,-24,-142,-2013,-82,42,-39,-210,-53,-157,131
,926,2023-10-27 10:39:42.48,-20,-164,-2003,-73,54,-22,-289,-90,-199,189
,927,2023-10-27 10:39:42.49,-35,-160,-2013,-44,50,-5,-166,-74,-92,120
,928,2023-10-27 10:39:42.50,-30,-186,-2014,-15,41,17,-297,-126,-171,211
,929,2023-10-27 10:39:42.51,-24,-181,-2023,19,37,40,-168,-90,-78,129
,930,2023-10-27 10:39:42.52,-24,-170,-2030,47,30,63,-274,-123,-151,198
,931,2023-10-27 10:39:42.53,-30,-165,-2029,68,23,83,-170,-82,-88,126
,932,2023-10-27 10:39:42.54,-26,-163,-2034,84,15,102,-295,-122,-173,208
,933,2023-10-27 10:39:42.55,-48,-156,-2046,89,13,125,-153,-99,-54,126
,934,2023-10-27 10:39:42.56,-41,-152,-2053,98,4,139,-245,-160,-85,202
,935,2023-10-27 10:39:42.57,-46,-140,-2063,92,-12,149,-126,-137,11,131
,936,2023-10-27 10:39:42.58,-41,-134,-2067,82,-19,159,-255,-193,-62,224
,937,2023-10-27 10:39:42.59,-54,-128,-2091,84,-44,164,-156,-105,-51,130
,938,2023-10-27 10:39:42.60,-76,-122,-2081,82,-74,165,-286,-131,-155,208
,939,2023-10-27 10:39:42.61,-60,-107,-2085,69,-90,157,-165,-105,-60,135
,940,2023-10-27 10:39:42.62,-70,-104,-2067,42,-96,146,-272,-173,-99,222
,941,2023-10-27 10:39:42.63,-60,-104,-2054,15,-95,130,-178,-94,-84,136
,942,2023-10-27 10:39:42.64,-80,-101,-2034,-12,-84,113,-307,-126,-181,216
,943,2023-10-27 10:39:42.65,-75,-122,-2041,-30,-72,93,-225,-72,-153,148
,944,2023-10-27 10:39:42.66,-79,-127,-2053,-36,-65,76,-346,-141,-205,243
,945,2023-10-27 10:39:42.67,-80,-122,-2045,-36,-52,60,-250,-87,-163,168
,946,2023-10-27 10:39:42.68,-96,-132,-2050,-31,-53,41,-357,-142,-215,249
,947,2023-10-27 10:39:42.69,-88,-132,-2069,-27,-44,30,-224,-101,-123,162
,948,2023-10-27 10:39:42.70,-85,-123,-2080,-22,-46,13,-311,-164,-147,237
,949,2023-10-27 10:39:42.71,-89,-128,-2085,-19,-51,-3,-195,-103,-92,149
,950,2023-10-27 10:39:42.72,-81,-129,-2077,-23,-45,-15,-298,-162,-136,230
,951,2023-10-27 10:39:42.73,-103,-98,-2075,-23,-43,-26,-196,-99,-97,147
,952,2023-10-27 10:39:42.74,-88,-106,-2088,-38,-41,-33,-299,-151,-148,225
,953,2023-10-27 10:39:42.75,-87,-99,-2070,-62,-37,-46,-218,-118,-100,168
,954,2023-10-27 10:39:42.76,-94,-107,-2070,-75,-43,-53,-330,-207,-123,268
,955,2023-10-27 10:39:42.77,-88,-102,-2055,-88,-40,-55,-220,-130,-90,175
,956,2023-10-27 10:39:42.78,-100,-98,-2047,-94,-43,-60,-304,-177,-127,240
,957,2023-10-27 10:39:42.79,-95,-87,-2059,-107,-41,-64,-217,-94,-123,155
,958,2023-10-27 10:39:42.80,-92,-89,-2057,-115,-51,-62,-315,-161,-154,238
,959,2023-10-27 10:39:42.81,-80,-87,-2053,-120,-62,-62,-212,-84,-128,148
,960,2023-10-27 10:39:42.82,-101,-91,-2059,-124,-72,-58,-292,-150,-142,221
,961,2023-10-27 10:39:42.83,-102,-76,-2065,-127,-81,-49,-177,-80,-97,128
,962,2023-10-27 10:39:42.84,-88,-95,-2068,-138,-84,-39,-260,-156,-104,208
,963,2023-10-27 10:39:42.85,-96,-93,-2062,-139,-86,-25,-160,-109,-51,134
,964,2023-10-27 10:39:42.86,-91,-85,-2064,-134,-93,-11,-250,-192,-58,221
,965,2023-10-27 10:39:42.87,-96,-77,-2045,-128,-93,1,-190,-160,-30,175
,966,2023-10-27 10:39:42.88,-95,-90,-2039,-127,-86,16,-293,-238,-55,265
,967,2023-10-27 10:39:42.89,-97,-80,-2043,-114,-77,34,-233,-137,-96,185
,968,2023-10-27 10:39:42.90,-89,-96,-2039,-100,-72,47,-309,-181,-128,245
,969,2023-10-27 10:39:42.91,-109,-92,-2052,-88,-63,64,-231,-105,-126,168
,970,2023-10-27 10:39:42.92,-96,-98,-2045,-67,-57,81,-304,-182,-122,243
,971,2023-10-27 10:39:42.93,-87,-93,-2040,-49,-47,97,-281,-95,-186,188
,972,2023-10-27 10:39:42.94,-110,-78,-2047,-30,-43,111,-354,-169,-185,261
,973,2023-10-27 10:39:42.95,-95,-91,-2054,-20,-37,132,-294,-128,-166,211
,974,2023-10-27 10:39:42.96,-111,-83,-2053,-4,-32,143,-346,-215,-131,280
,975,2023-10-27 10:39:42.97,-105,-77,-2036,4,-27,156,-279,-142,-137,210
,976,2023-10-27 10:39:42.98,-112,-75,-2037,12,-23,159,-327,-201,-126,264
,977,2023-10-27 10:39:42.99,-104,-59,-2042,16,-21,163,-322,-119,-203,220
,978,2023-10-27 10:39:43.00,-111,-48,-2052,17,-13,161,-380,-199,-181,289
,979,2023-10-27 10:39:43.01,-123,-48,-2064,17,-12,158,-277,-165,-112,221
,980,2023-10-27 10:39:43.02,-137,-58,-2058,25,-23,155,-297,-245,-52,271
,981,2023-10-27 10:39:43.03,-141,-54,-2063,23,-26,149,-252,-237,-15,244
,982,2023-10-27 10:39:43.04,-155,-59,-2056,19,-34,146,-311,-304,-7,307
,983,2023-10-27 10:39:43.05,-145,-58,-2053,12,-45,138,-268,-243,-25,255
,984,2023-10-27 10:39:43.06,-146,-50,-2046,1,-46,131,-310,-274,-36,292
,985,2023-10-27 10:39:43.07,-145,-43,-2037,-8,-38,119,-271,-140,-131,205
,986,2023-10-27 10:39:43.08,-140,-48,-2024,-13,-28,106,-317,-191,-126,254
,987,2023-10-27 10:39:43.09,-130,-33,-2013,-21,-11,94,-342,-159,-183,250
,988,2023-10-27 10:39:43.10,-122,-52,-2016,-24,7,77,-382,-250,-132,316
,989,2023-10-27 10:39:43.11,-137,-60,-2037,-17,17,64,-355,-207,-148,281
,990,2023-10-27 10:39:43.12,-139,-66,-2059,-2,33,43,-359,-269,-90,314
,991,2023-10-27 10:39:43.13,-120,-64,-2054,6,34,34,-303,-221,-82,262
,992,2023-10-27 10:39:43.14,-124,-68,-2062,12,35,28,-311,-276,-35,293
,993,2023-10-27 10:39:43.15,-126,-59,-2061,11,37,21,-364,-212,-152,288
,994,2023-10-27 10:39:43.16,-118,-70,-2075,12,37,25,-396,-275,-121,335
,995,2023-10-27 10:39:43.17,-124,-52,-2055,22,30,26,-332,-189,-143,260
,996,2023-10-27 10:39:43.18,-124,-56,-2047,14,19,24,-308,-225,-83,266
,997,2023-10-27 10:39:43.19,-111,-52,-2051,4,18,22,-328,-167,-161,247
,998,2023-10-27 10:39:43.20,-105,-56,-2059,-3,17,21,-349,-246,-103,297
,999,2023-10-27 10:39:43.21,-108,-51,-2051,-6,19,23,-358,-229,-129,293
,1000,2023-10-27 10:39:43.22,-117,-53,-2065,-10,23,22,-343,-290,-53,316
,1001,2023-10-27 10:39:43.23,-115,-63,-2066,-12,11,25,-325,-296,-29,310
,1002,2023-10-27 10:39:43.24,-120,-62,-2086,-10,6,32,-303,-350,47,326
,1003,2023-10-27 10:39:43.25,-126,-67,-2080,-9,-9,35,-326,-297,-29,311
,1004,2023-10-27 10:39:43.26,-125,-62,-2089,-3,-21,34,-336,-290,-46,313
,1005,2023-10-27 10:39:43.27,-127,-57,-2072,-6,-32,47,-355,-132,-223,243
,1006,2023-10-27 10:39:43.28,-132,-50,-2092,-9,-46,47,-324,-181,-143,252
,1007,2023-10-27 10:39:43.29,-132,-47,-2073,-15,-50,51,-289,-161,-128,225
,1008,2023-10-27 10:39:43.30,-129,-53,-2065,-25,-50,46,-270,-243,-27,256
,1009,2023-10-27 10:39:43.31,-138,-35,-2056,-38,-44,45,-308,-194,-114,251
,1010,2023-10-27 10:39:43.32,-141,-47,-2046,-38,-41,44,-305,-240,-65,272
,1011,2023-10-27 10:39:43.33,-142,-45,-2046,-42,-45,42,-339,-145,-194,242
,1012,2023-10-27 10:39:43.34,-128,-36,-2029,-40,-30,39,-316,-188,-128,252
,1013,2023-10-27 10:39:43.35,-138,-62,-2040,-35,-24,34,-376,-116,-260,246
,1014,2023-10-27 10:39:43.36,-120,-48,-2016,-32,-8,33,-330,-191,-139,260
,1015,2023-10-27 10:39:43.37,-135,-61,-2024,-19,-2,33,-281,-148,-133,214
,1016,2023-10-27 10:39:43.38,-136,-63,-2028,-8,9,29,-234,-208,-26,221
,1017,2023-10-27 10:39:43.39,-116,-63,-2033,9,16,30,-284,-144,-140,214
,1018,2023-10-27 10:39:43.40,-116,-69,-2028,11,30,28,-274,-191,-83,232
,1019,2023-10-27 10:39:43.41,-112,-67,-2026,16,36,27,-325,-130,-195,227
,1020,2023-10-27 10:39:43.42,-94,-57,-2040,16,52,25,-276,-196,-80,236
,1021,2023-10-27 10:39:43.43,-109,-62,-2016,23,67,29,-306,-185,-121,245
,1022,2023-10-27 10:39:43.44,-88,-75,-2044,28,72,30,-263,-218,-45,240
,1023,2023-10-27 10:39:43.45,-86,-73,-2028,30,70,39,-381,-151,-230,266
,1024,2023-10-27 10:39:43.46,-100,-64,-2022,32,68,45,-325,-187,-138,256
,1025,2023-10-27 10:39:43.47,-93,-66,-2037,30,72,51,-326,-162,-164,244
,1026,2023-10-27 10:39:43.48,-101,-57,-2061,26,71,57,-229,-214,-15,221
,1027,2023-10-27 10:39:43.49,-84,-42,-2075,21,58,57,-268,-203,-65,235
,1028,2023-10-27 10:39:43.50,-86,-35,-2077,14,41,58,-234,-230,-4,232
,1029,2023-10-27 10:39:43.51,-83,-34,-2072,6,33,53,-334,-182,-152,258
,1030,2023-10-27 10:39:43.52,-90,-20,-2082,-3,28,51,-267,-235,-32,251
,1031,2023-10-27 10:39:43.53,-89,-33,-2084,-1,20,53,-286,-281,-5,283
,1032,2023-10-27 10:39:43.54,-94,-7,-2084,-6,-2,44,-230,-291,61,260
,1033,2023-10-27 10:39:43.55,-94,-23,-2085,-26,-9,34,-352,-245,-107,298
,1034,2023-10-27 10:39:43.56,-109,-22,-2074,-42,-15,28,-291,-254,-37,272
,1035,2023-10-27 10:39:43.57,-98,-27,-2067,-44,-18,20,-357,-281,-76,319
,1036,2023-10-27 10:39:43.58,-91,-22,-2056,-40,-27,11,-265,-271,6,268
,1037,2023-10-27 10:39:43.59,-95,-8,-2039,-35,-21,1,-341,-211,-130,276
,1038,2023-10-27 10:39:43.60,-94,-11,-2041,-36,-19,-8,-256,-195,-61,225
,1039,2023-10-27 10:39:43.61,-86,-26,-2050,-28,-18,-16,-338,-172,-166,255
,1040,2023-10-27 10:39:43.62,-109,-23,-2059,-16,-16,-22,-257,-191,-66,224
,1041,2023-10-27 10:39:43.63,-93,-32,-2037,-10,-16,-20,-331,-190,-141,260
,1042,2023-10-27 10:39:43.64,-103,-56,-2045,-7,-8,-18,-249,-223,-26,236
,1043,2023-10-27 10:39:43.65,-91,-55,-2050,9,-4,-10,-346,-272,-74,309
,1044,2023-10-27 10:39:43.66,-106,-66,-2052,24,-6,-3,-274,-300,26,287
,1045,2023-10-27 10:39:43.67,-116,-57,-2056,33,-4,5,-390,-344,-46,367
,1046,2023-10-27 10:39:43.68,-118,-64,-2050,41,-4,18,-304,-324,20,314
,1047,2023-10-27 10:39:43.69,-121,-47,-2055,42,0,27,-417,-347,-70,382
,1048,2023-10-27 10:39:43.70,-115,-48,-2057,42,-3,35,-313,-300,-13,306
,1049,2023-10-27 10:39:43.71,-109,-45,-2052,41,0,38,-419,-273,-146,346
,1050,2023-10-27 10:39:43.72,-113,-48,-2056,37,2,42,-298,-241,-57,269
,1051,2023-10-27 10:39:43.73,-114,-54,-2057,34,7,43,-401,-272,-129,336
,1052,2023-10-27 10:39:43.74,-115,-63,-2048,37,10,45,-294,-261,-33,277
,1053,2023-10-27 10:39:43.75,-108,-53,-2046,38,14,43,-409,-288,-121,348
,1054,2023-10-27 10:39:43.76,-106,-52,-2052,40,21,36,-282,-244,-38,263
,1055,2023-10-27 10:39:43.77,-112,-60,-2057,40,22,28,-374,-237,-137,305
,1056,2023-10-27 10:39:43.78,-100,-48,-2055,41,30,25,-253,-185,-68,219
,1057,2023-10-27 10:39:43.79,-116,-52,-2056,41,34,21,-352,-175,-177,263
,1058,2023-10-27 10:39:43.80,-96,-55,-2061,44,35,15,-269,-207,-62,238
,1059,2023-10-27 10:39:43.81,-95,-66,-2064,45,33,14,-423,-309,-114,366
,1060,2023-10-27 10:39:43.82,-111,-64,-2059,44,33,14,-318,-308,-10,313
,1061,2023-10-27 10:39:43.83,-99,-57,-2059,41,28,7,-431,-328,-103,379
,1062,2023-10-27 10:39:43.84,-95,-63,-2055,38,24,6,-309,-287,-22,298
,1063,2023-10-27 10:39:43.85,-103,-60,-2053,35,16,2,-410,-292,-118,351
,1064,2023-10-27 10:39:43.86,-86,-70,-2067,31,12,4,-302,-228,-74,265
,1065,2023-10-27 10:39:43.87,-83,-66,-2053,26,17,3,-435,-228,-207,331
,1066,2023-10-27 10:39:43.88,-92,-52,-2044,14,20,-4,-332,-155,-177,243
,1067,2023-10-27 10:39:43.89,-86,-77,-2057,13,25,1,-460,-138,-322,299
,1068,2023-10-27 10:39:43.90,-73,-68,-2042,19,19,0,-313,-146,-167,229
,1069,2023-10-27 10:39:43.91,-66,-72,-2045,24,13,-2,-395,-219,-176,307
,1070,2023-10-27 10:39:43.92,-68,-70,-2047,29,13,-5,-255,-232,-23,243
,1071,2023-10-27 10:39:43.93,-73,-89,-2054,32,14,-5,-350,-286,-64,318
,1072,2023-10-27 10:39:43.94,-66,-70,-2065,40,6,-5,-258,-246,-12,252
,1073,2023-10-27 10:39:43.95,-77,-91,-2061,43,-2,1,-410,-282,-128,346
,1074,2023-10-27 10:39:43.96,-75,-80,-2065,45,-5,9,-324,-241,-83,282
,1075,2023-10-27 10:39:43.97,-75,-83,-2065,45,-10,13,-470,-283,-187,376
,1076,2023-10-27 10:39:43.98,-94,-78,-2061,41,-20,22,-310,-213,-97,261
,1077,2023-10-27 10:39:43.99,-88,-73,-2063,33,-28,29,-360,-209,-151,284
,1078,2023-10-27 10:39:44.00,-92,-76,-2056,26,-30,34,-244,-174,-70,209
,1079,2023-10-27 10:39:44.01,-105,-80,-2059,22,-37,41,-372,-229,-143,300
,1080,2023-10-27 10:39:44.02,-117,-78,-2067,21,-44,44,-293,-265,-28,279
