// Data mode  : Full
// Data quality  : High
// Acceleration sensor's range  : 16g
// Gyroscope sensor's range  : 2000dps
//
//ARTIFACT,NUM,DATE,ACC_X,ACC_Y,ACC_Z,GYRO_X,GYRO_Y,GYRO_Z,EOG_L,EOG_R,EOG_H,EOG_V
,1,2023-10-27 11:57:58.00,48,-230,-2049,4,16,23,-399,-741,342,570
,2,2023-10-27 11:57:58.01,53,-229,-2049,4,10,24,-343,-690,347,516
,3,2023-10-27 11:57:58.02,59,-230,-2050,6,6,28,-394,-737,343,565
,4,2023-10-27 11:57:58.03,47,-224,-2041,7,8,34,-334,-686,352,510
,5,2023-10-27 11:57:58.04,48,-215,-2049,6,7,34,-400,-745,345,572
,6,2023-10-27 11:57:58.05,33,-219,-2043,10,10,38,-335,-688,353,511
,7,2023-10-27 11:57:58.06,47,-227,-2046,15,18,44,-402,-747,345,574
,8,2023-10-27 11:57:58.07,51,-222,-2033,15,23,47,-331,-682,351,506
,9,2023-10-27 11:57:58.08,46,-219,-2040,15,29,48,-396,-744,348,570
,10,2023-10-27 11:57:58.09,44,-226,-2044,15,32,49,-325,-677,352,501
,11,2023-10-27 11:57:58.10,40,-220,-2045,14,32,49,-396,-747,351,571
,12,2023-10-27 11:57:58.11,49,-219,-2047,13,29,51,-333,-682,349,507
,13,2023-10-27 11:57:58.12,40,-217,-2050,12,29,50,-398,-748,350,573
,14,2023-10-27 11:57:58.13,36,-229,-2047,14,16,48,-323,-671,348,497
,15,2023-10-27 11:57:58.14,26,-222,-2055,26,-6,48,-401,-753,352,577
,16,2023-10-27 11:57:58.15,52,-217,-2049,31,-12,50,-324,-669,345,496
,17,2023-10-27 11:57:58.16,49,-211,-2050,17,7,49,-431,-738,307,584
,18,2023-10-27 11:57:58.17,60,-222,-2052,5,26,45,-324,-609,285,466
,19,2023-10-27 11:57:58.18,52,-234,-2043,7,18,43,-431,-729,298,580
,20,2023-10-27 11:57:58.19,49,-231,-2040,14,20,45,-363,-684,321,523
,21,2023-10-27 11:57:58.20,55,-222,-2043,18,22,47,-470,-806,336,638
,22,2023-10-27 11:57:58.21,55,-225,-2043,16,22,43,-373,-711,338,542
,23,2023-10-27 11:57:58.22,56,-227,-2044,17,27,47,-451,-795,344,623
,24,2023-10-27 11:57:58.23,53,-228,-2046,14,25,48,-346,-682,336,514
,25,2023-10-27 11:57:58.24,49,-236,-2058,19,27,51,-428,-776,348,602
,26,2023-10-27 11:57:58.25,55,-228,-2048,19,24,57,-330,-671,341,500
,27,2023-10-27 11:57:58.26,62,-232,-2043,17,21,60,-420,-776,356,598
,28,2023-10-27 11:57:58.27,56,-229,-2052,14,24,62,-321,-662,341,491
,29,2023-10-27 11:57:58.28,56,-224,-2045,10,25,65,-412,-770,358,591
,30,2023-10-27 11:57:58.29,63,-224,-2051,5,22,64,-310,-653,343,481
,31,2023-10-27 11:57:58.30,61,-218,-2052,1,22,63,-407,-767,360,587
,32,2023-10-27 11:57:58.31,65,-228,-2050,4,17,66,-311,-647,336,479
,33,2023-10-27 11:57:58.32,61,-229,-2063,14,2,69,-435,-737,302,586
,34,2023-10-27 11:57:58.33,65,-218,-2060,24,-6,74,-312,-585,273,448
,35,2023-10-27 11:57:58.34,56,-223,-2049,26,-1,74,-425,-704,279,564
,36,2023-10-27 11:57:58.35,59,-229,-2062,28,-3,77,-305,-581,276,443
,37,2023-10-27 11:57:58.36,61,-229,-2043,41,-3,80,-434,-726,292,580
,38,2023-10-27 11:57:58.37,70,-222,-2049,55,-4,82,-322,-605,283,463
,39,2023-10-27 11:57:58.38,74,-210,-2047,63,0,84,-454,-739,285,596
,40,2023-10-27 11:57:58.39,60,-220,-2036,68,3,82,-338,-605,267,471
,41,2023-10-27 11:57:58.40,52,-223,-2047,78,2,88,-456,-743,287,599
,42,2023-10-27 11:57:58.41,59,-223,-2049,82,1,93,-334,-607,273,470
,43,2023-10-27 11:57:58.42,39,-226,-2056,83,-2,95,-450,-740,290,595
,44,2023-10-27 11:57:58.43,58,-231,-2064,81,-3,107,-326,-597,271,461
,45,2023-10-27 11:57:58.44,46,-238,-2072,76,-16,112,-457,-740,283,598
,46,2023-10-27 11:57:58.45,40,-250,-2064,76,-26,125,-317,-593,276,455
,47,2023-10-27 11:57:58.46,54,-250,-2032,79,-21,130,-416,-758,342,587
,48,2023-10-27 11:57:58.47,61,-235,-2015,77,-2,133,-331,-664,333,497
,49,2023-10-27 11:57:58.48,53,-233,-2000,69,31,128,-479,-825,346,652
,50,2023-10-27 11:57:58.49,67,-239,-2011,64,64,124,-366,-682,316,524
,51,2023-10-27 11:57:58.50,63,-243,-2033,61,82,121,-435,-797,362,616
,52,2023-10-27 11:57:58.51,54,-255,-2051,62,83,122,-300,-642,342,471
,53,2023-10-27 11:57:58.52,45,-268,-2067,65,76,127,-411,-784,373,597
,54,2023-10-27 11:57:58.53,39,-275,-2081,68,56,139,-301,-638,337,469
,55,2023-10-27 11:57:58.54,48,-273,-2067,66,42,152,-421,-783,362,602
,56,2023-10-27 11:57:58.55,49,-266,-2040,66,34,162,-311,-643,332,477
,57,2023-10-27 11:57:58.56,78,-244,-2015,60,45,167,-408,-781,373,594
,58,2023-10-27 11:57:58.57,73,-238,-2014,49,63,162,-303,-627,324,465
,59,2023-10-27 11:57:58.58,78,-248,-2025,39,78,158,-426,-742,316,584
,60,2023-10-27 11:57:58.59,71,-258,-2034,36,83,155,-319,-591,272,455
,61,2023-10-27 11:57:58.60,68,-271,-2058,47,60,155,-443,-743,300,593
,62,2023-10-27 11:57:58.61,53,-277,-2078,59,26,157,-334,-608,274,471
,63,2023-10-27 11:57:58.62,62,-273,-2079,63,8,165,-448,-750,302,599
,64,2023-10-27 11:57:58.63,81,-275,-2057,61,4,170,-326,-591,265,458
,65,2023-10-27 11:57:58.64,80,-260,-2021,55,16,174,-437,-712,275,574
,66,2023-10-27 11:57:58.65,67,-252,-2006,54,24,169,-335,-590,255,462
,67,2023-10-27 11:57:58.66,65,-249,-2017,58,18,164,-461,-749,288,605
,68,2023-10-27 11:57:58.67,60,-258,-2030,72,12,165,-358,-626,268,492
,69,2023-10-27 11:57:58.68,63,-260,-2031,75,16,164,-460,-769,309,614
,70,2023-10-27 11:57:58.69,54,-265,-2039,66,31,163,-335,-625,290,480
,71,2023-10-27 11:57:58.70,55,-285,-2044,63,31,166,-437,-779,342,608
,72,2023-10-27 11:57:58.71,50,-299,-2039,74,19,172,-321,-653,332,487
,73,2023-10-27 11:57:58.72,54,-283,-2020,78,23,174,-386,-780,394,583
,74,2023-10-27 11:57:58.73,60,-261,-2016,74,41,172,-286,-635,349,460
,75,2023-10-27 11:57:58.74,61,-272,-2018,66,46,168,-389,-766,377,577
,76,2023-10-27 11:57:58.75,62,-279,-2033,72,42,169,-303,-635,332,469
,77,2023-10-27 11:57:58.76,52,-281,-2045,78,37,168,-400,-774,374,587
,78,2023-10-27 11:57:58.77,47,-290,-2067,88,26,170,-309,-642,333,475
,79,2023-10-27 11:57:58.78,31,-291,-2061,89,24,176,-394,-773,379,583
,80,2023-10-27 11:57:58.79,33,-310,-2061,101,11,187,-300,-638,338,469
,81,2023-10-27 11:57:58.80,36,-312,-2044,110,-3,194,-389,-769,380,579
,82,2023-10-27 11:57:58.81,43,-300,-2018,125,8,203,-303,-636,333,469
,83,2023-10-27 11:57:58.82,42,-295,-2009,132,21,208,-403,-767,364,585
,84,2023-10-27 11:57:58.83,51,-275,-2002,133,38,206,-320,-640,320,480
,85,2023-10-27 11:57:58.84,55,-279,-2018,128,56,202,-393,-761,368,577
,86,2023-10-27 11:57:58.85,39,-286,-2029,128,69,202,-298,-632,334,465
,87,2023-10-27 11:57:58.86,40,-291,-2041,125,64,200,-376,-754,378,565
,88,2023-10-27 11:57:58.87,38,-302,-2042,127,53,203,-290,-632,342,461
,89,2023-10-27 11:57:58.88,44,-322,-2028,133,46,208,-356,-752,396,554
,90,2023-10-27 11:57:58.89,32,-332,-2009,145,41,216,-268,-628,360,448
,91,2023-10-27 11:57:58.90,43,-325,-2013,151,50,218,-356,-747,391,551
,92,2023-10-27 11:57:58.91,48,-324,-2018,153,54,222,-286,-630,344,458
,93,2023-10-27 11:57:58.92,43,-328,-2019,154,61,223,-358,-744,386,551
,94,2023-10-27 11:57:58.93,55,-332,-2013,147,75,224,-281,-631,350,456
,95,2023-10-27 11:57:58.94,59,-333,-2005,140,86,219,-351,-741,390,546
,96,2023-10-27 11:57:58.95,69,-333,-2006,136,101,212,-292,-639,347,465
,97,2023-10-27 11:57:58.96,78,-336,-2016,122,124,203,-365,-746,381,555
,98,2023-10-27 11:57:58.97,82,-328,-2017,103,142,191,-301,-644,343,472
,99,2023-10-27 11:57:58.98,79,-329,-2038,82,156,180,-364,-745,381,554
,100,2023-10-27 11:57:58.99,94,-330,-2040,60,160,166,-310,-650,340,480
,101,2023-10-27 11:57:59.00,103,-335,-2051,40,148,152,-369,-747,378,558
,102,2023-10-27 11:57:59.01,109,-342,-2054,23,134,143,-316,-656,340,486
,103,2023-10-27 11:57:59.02,105,-341,-2058,8,112,129,-364,-749,385,556
,104,2023-10-27 11:57:59.03,118,-339,-2055,-9,81,122,-321,-663,342,492
,105,2023-10-27 11:57:59.04,117,-342,-2060,-28,51,111,-374,-755,381,564
,106,2023-10-27 11:57:59.05,102,-341,-2064,-46,14,101,-332,-668,336,500
,107,2023-10-27 11:57:59.06,105,-343,-2060,-64,-21,94,-370,-750,380,560
,108,2023-10-27 11:57:59.07,97,-342,-2066,-82,-52,88,-319,-660,341,489
,109,2023-10-27 11:57:59.08,90,-324,-2066,-108,-86,81,-356,-739,383,547
,110,2023-10-27 11:57:59.09,95,-307,-2067,-141,-113,75,-320,-662,342,491
,111,2023-10-27 11:57:59.10,74,-302,-2079,-177,-129,70,-370,-744,374,557
,112,2023-10-27 11:57:59.11,75,-302,-2087,-214,-152,61,-337,-672,335,504
,113,2023-10-27 11:57:59.12,69,-296,-2091,-251,-174,61,-371,-744,373,557
,114,2023-10-27 11:57:59.13,68,-277,-2078,-284,-200,57,-340,-679,339,509
,115,2023-10-27 11:57:59.14,65,-269,-2071,-317,-209,47,-382,-747,365,564
,116,2023-10-27 11:57:59.15,68,-261,-2048,-349,-208,45,-357,-688,331,522
,117,2023-10-27 11:57:59.16,73,-263,-2049,-374,-203,40,-381,-744,363,562
,118,2023-10-27 11:57:59.17,81,-266,-2032,-384,-193,40,-355,-688,333,521
,119,2023-10-27 11:57:59.18,76,-271,-2036,-385,-187,39,-376,-739,363,557
,120,2023-10-27 11:57:59.19,62,-268,-2049,-379,-183,40,-364,-694,330,529
,121,2023-10-27 11:57:59.20,60,-258,-2044,-371,-174,44,-378,-743,365,560
,122,2023-10-27 11:57:59.21,67,-267,-2046,-354,-173,46,-364,-696,332,530
,123,2023-10-27 11:57:59.22,45,-253,-2049,-329,-180,53,-366,-733,367,549
,124,2023-10-27 11:57:59.23,55,-234,-2046,-305,-176,59,-354,-691,337,522
,125,2023-10-27 11:57:59.24,48,-230,-2035,-284,-165,62,-357,-727,370,542
,126,2023-10-27 11:57:59.25,42,-223,-2033,-260,-158,63,-354,-690,336,522
,127,2023-10-27 11:57:59.26,34,-218,-2030,-228,-157,66,-359,-722,363,540
,128,2023-10-27 11:57:59.27,29,-209,-2025,-196,-153,68,-353,-692,339,522
,129,2023-10-27 11:57:59.28,31,-194,-2018,-171,-131,70,-349,-715,366,532
,130,2023-10-27 11:57:59.29,32,-183,-2011,-149,-111,74,-357,-697,340,527
,131,2023-10-27 11:57:59.30,6,-182,-2010,-122,-97,75,-350,-711,361,530
,132,2023-10-27 11:57:59.31,6,-191,-2035,-95,-87,85,-360,-700,340,530
,133,2023-10-27 11:57:59.32,-13,-194,-2043,-68,-87,94,-342,-704,362,523
,134,2023-10-27 11:57:59.33,-16,-196,-2040,-44,-75,109,-360,-698,338,529
,135,2023-10-27 11:57:59.34,-19,-192,-2038,-16,-68,123,-342,-700,358,521
,136,2023-10-27 11:57:59.35,-11,-197,-2032,17,-64,133,-368,-702,334,535
,137,2023-10-27 11:57:59.36,-12,-191,-2022,55,-60,145,-350,-704,354,527
,138,2023-10-27 11:57:59.37,-27,-185,-2007,94,-47,145,-376,-709,333,542
,139,2023-10-27 11:57:59.38,-29,-165,-1999,128,-15,143,-348,-701,353,524
,140,2023-10-27 11:57:59.39,-27,-162,-2014,156,13,136,-368,-703,335,535
,141,2023-10-27 11:57:59.40,-27,-165,-2029,180,27,128,-328,-690,362,509
,142,2023-10-27 11:57:59.41,-36,-164,-2033,200,37,119,-359,-701,342,530
,143,2023-10-27 11:57:59.42,-36,-173,-2038,212,41,117,-326,-683,357,504
,144,2023-10-27 11:57:59.43,-53,-175,-2048,222,39,112,-361,-703,342,532
,145,2023-10-27 11:57:59.44,-52,-184,-2057,223,34,105,-333,-686,353,509
,146,2023-10-27 11:57:59.45,-46,-192,-2072,215,31,102,-374,-717,343,545
,147,2023-10-27 11:57:59.46,-50,-197,-2062,201,31,101,-335,-686,351,510
,148,2023-10-27 11:57:59.47,-27,-199,-2059,181,43,96,-371,-715,344,543
,149,2023-10-27 11:57:59.48,-32,-207,-2041,158,53,91,-318,-675,357,496
,150,2023-10-27 11:57:59.49,-7,-203,-2035,133,65,86,-368,-715,347,541
,151,2023-10-27 11:57:59.50,-16,-207,-2032,112,71,78,-319,-675,356,497
,152,2023-10-27 11:57:59.51,-11,-216,-2054,98,66,71,-376,-724,348,550
,153,2023-10-27 11:57:59.52,-8,-224,-2063,82,62,60,-322,-679,357,500
,154,2023-10-27 11:57:59.53,-8,-229,-2061,76,54,53,-384,-731,347,557
,155,2023-10-27 11:57:59.54,4,-227,-2050,68,44,43,-328,-681,353,504
,156,2023-10-27 11:57:59.55,8,-230,-2057,66,31,28,-394,-736,342,565
,157,2023-10-27 11:57:59.56,8,-231,-2059,65,24,19,-328,-678,350,503
,158,2023-10-27 11:57:59.57,16,-228,-2049,64,13,8,-391,-738,347,564
,159,2023-10-27 11:57:59.58,26,-239,-2052,64,0,-3,-323,-677,354,500
,160,2023-10-27 11:57:59.59,26,-240,-2049,65,-1,-12,-392,-741,349,566
,161,2023-10-27 11:57:59.60,18,-236,-2037,61,1,-22,-320,-676,356,498
,162,2023-10-27 11:57:59.61,23,-252,-2033,55,5,-28,-391,-744,353,567
,163,2023-10-27 11:57:59.62,15,-265,-2040,60,-2,-31,-313,-671,358,492
,164,2023-10-27 11:57:59.63,9,-288,-2039,81,-29,-27,-388,-743,355,565
,165,2023-10-27 11:57:59.64,12,-298,-2041,101,-65,-22,-318,-671,353,494
,166,2023-10-27 11:57:59.65,11,-298,-2035,118,-80,-12,-394,-749,355,571
,167,2023-10-27 11:57:59.66,0,-304,-2029,127,-82,0,-310,-662,352,486
,168,2023-10-27 11:57:59.67,-12,-311,-2043,133,-77,14,-384,-745,361,564
,169,2023-10-27 11:57:59.68,-18,-320,-2038,133,-76,23,-299,-657,358,478
,170,2023-10-27 11:57:59.69,-31,-323,-2045,131,-71,31,-374,-741,367,557
,171,2023-10-27 11:57:59.70,-26,-321,-2052,126,-59,44,-298,-653,355,475
,172,2023-10-27 11:57:59.71,-35,-312,-2035,120,-49,55,-389,-748,359,568
,173,2023-10-27 11:57:59.72,-33,-309,-2031,112,-36,58,-312,-659,347,485
,174,2023-10-27 11:57:59.73,-30,-304,-2014,102,-29,60,-393,-752,359,572
,175,2023-10-27 11:57:59.74,-32,-294,-2020,90,-16,58,-303,-650,347,476
,176,2023-10-27 11:57:59.75,-37,-301,-2027,75,-7,55,-389,-749,360,569
,177,2023-10-27 11:57:59.76,-51,-302,-2026,60,-1,55,-297,-645,348,471
,178,2023-10-27 11:57:59.77,-32,-295,-2038,50,-8,50,-393,-753,360,573
,179,2023-10-27 11:57:59.78,-36,-297,-2032,35,-9,49,-303,-648,345,475
,180,2023-10-27 11:57:59.79,-54,-282,-2035,11,11,49,-403,-760,357,581
,181,2023-10-27 11:57:59.80,-42,-289,-2034,-7,13,45,-302,-646,344,474
,182,2023-10-27 11:57:59.81,-47,-289,-2033,-26,20,48,-401,-759,358,580
,183,2023-10-27 11:57:59.82,-43,-286,-2028,-35,19,46,-299,-645,346,472
,184,2023-10-27 11:57:59.83,-17,-259,-2034,-45,25,43,-404,-757,353,580
,185,2023-10-27 11:57:59.84,-26,-259,-2020,-60,46,35,-302,-642,340,472
,186,2023-10-27 11:57:59.85,-19,-245,-2039,-74,63,25,-404,-758,354,581
,187,2023-10-27 11:57:59.86,-15,-245,-2034,-82,74,16,-301,-639,338,470
,188,2023-10-27 11:57:59.87,-7,-247,-2041,-78,78,6,-399,-758,359,578
,189,2023-10-27 11:57:59.88,1,-257,-2041,-68,78,-2,-296,-636,340,466
,190,2023-10-27 11:57:59.89,2,-251,-2032,-40,67,-18,-398,-759,361,578
,191,2023-10-27 11:57:59.90,0,-255,-2039,-20,58,-23,-296,-637,341,466
,192,2023-10-27 11:57:59.91,20,-253,-2042,0,46,-30,-396,-764,368,580
,193,2023-10-27 11:57:59.92,7,-262,-2059,16,38,-32,-292,-635,343,463
,194,2023-10-27 11:57:59.93,-1,-269,-2062,29,23,-34,-399,-763,364,581
,195,2023-10-27 11:57:59.94,14,-273,-2059,35,14,-35,-293,-632,339,462
,196,2023-10-27 11:57:59.95,6,-280,-2062,41,5,-28,-396,-764,368,580
,197,2023-10-27 11:57:59.96,8,-285,-2062,46,-13,-22,-290,-628,338,459
,198,2023-10-27 11:57:59.97,5,-297,-2063,48,-22,-9,-393,-762,369,577
,199,2023-10-27 11:57:59.98,-2,-292,-2051,43,-29,2,-287,-626,339,456
,200,2023-10-27 11:57:59.99,-10,-294,-2045,39,-34,13,-393,-764,371,578
,201,2023-10-27 11:58:00.00,-2,-293,-2028,32,-32,23,-287,-626,339,456
,202,2023-10-27 11:58:00.01,4,-279,-2024,23,-25,28,-394,-763,369,578
,203,2023-10-27 11:58:00.02,-13,-276,-2025,14,-18,33,-285,-622,337,453
,204,2023-10-27 11:58:00.03,3,-268,-2020,8,-16,35,-398,-763,365,580
,205,2023-10-27 11:58:00.04,-14,-272,-2027,5,-13,32,-287,-624,337,455
,206,2023-10-27 11:58:00.05,-21,-270,-2029,1,-8,30,-398,-760,362,579
,207,2023-10-27 11:58:00.06,-13,-264,-2029,-3,-10,28,-287,-620,333,453
,208,2023-10-27 11:58:00.07,-4,-265,-2032,-4,-7,25,-396,-758,362,577
,209,2023-10-27 11:58:00.08,0,-263,-2036,-2,-7,21,-294,-624,330,459
,210,2023-10-27 11:58:00.09,-20,-266,-2036,4,-8,19,-401,-765,364,583
,211,2023-10-27 11:58:00.10,-15,-270,-2038,9,-11,12,-296,-628,332,462
,212,2023-10-27 11:58:00.11,-13,-275,-2038,19,-12,10,-408,-768,360,588
,213,2023-10-27 11:58:00.12,-15,-273,-2038,26,-6,4,-301,-628,327,464
,214,2023-10-27 11:58:00.13,-13,-272,-2033,34,0,3,-405,-767,362,586
,215,2023-10-27 11:58:00.14,-17,-278,-2032,41,8,0,-298,-626,328,462
,216,2023-10-27 11:58:00.15,-14,-281,-2036,45,16,-2,-404,-768,364,586
,217,2023-10-27 11:58:00.16,-8,-275,-2039,45,22,-5,-309,-637,328,473
,218,2023-10-27 11:58:00.17,-11,-282,-2038,43,25,-5,-406,-772,366,589
,219,2023-10-27 11:58:00.18,-4,-271,-2039,38,37,-4,-304,-630,326,467
,220,2023-10-27 11:58:00.19,-8,-285,-2043,33,37,-7,-405,-769,364,587
,221,2023-10-27 11:58:00.20,-7,-297,-2041,28,34,-6,-301,-628,327,464
,222,2023-10-27 11:58:00.21,-12,-290,-2034,26,31,-2,-400,-769,369,584
,223,2023-10-27 11:58:00.22,2,-287,-2047,21,24,2,-302,-630,328,466
,224,2023-10-27 11:58:00.23,-10,-296,-2037,16,22,3,-408,-773,365,590
,225,2023-10-27 11:58:00.24,-6,-295,-2036,12,19,8,-302,-629,327,465
,226,2023-10-27 11:58:00.25,1,-289,-2029,10,19,10,-401,-769,368,585
,227,2023-10-27 11:58:00.26,-3,-296,-2036,6,13,11,-299,-628,329,463
,228,2023-10-27 11:58:00.27,-4,-296,-2031,1,15,11,-401,-767,366,584
,229,2023-10-27 11:58:00.28,-6,-290,-2042,4,15,10,-306,-631,325,468
,230,2023-10-27 11:58:00.29,3,-285,-2033,3,16,9,-410,-773,363,591
,231,2023-10-27 11:58:00.30,0,-286,-2029,1,18,5,-318,-642,324,480
,232,2023-10-27 11:58:00.31,0,-280,-2038,-2,20,0,-419,-780,361,599
,233,2023-10-27 11:58:00.32,5,-279,-2045,-9,16,0,-321,-648,327,484
,234,2023-10-27 11:58:00.33,-11,-287,-2052,-10,9,-3,-414,-779,365,596
,235,2023-10-27 11:58:00.34,-1,-292,-2050,-11,4,0,-316,-646,330,481
,236,2023-10-27 11:58:00.35,0,-281,-2048,-9,-6,1,-406,-774,368,590
,237,2023-10-27 11:58:00.36,0,-294,-2045,-8,-8,2,-317,-644,327,480
,238,2023-10-27 11:58:00.37,-1,-293,-2044,-6,-8,10,-401,-769,368,585
,239,2023-10-27 11:58:00.38,11,-290,-2033,-2,-6,13,-316,-644,328,480
,240,2023-10-27 11:58:00.39,-3,-286,-2034,2,2,16,-397,-767,370,582
,241,2023-10-27 11:58:00.40,3,-276,-2025,1,5,17,-315,-643,328,479
,242,2023-10-27 11:58:00.41,-1,-273,-2032,5,16,16,-391,-762,371,576
,243,2023-10-27 11:58:00.42,7,-275,-2026,6,21,15,-312,-641,329,476
,244,2023-10-27 11:58:00.43,14,-270,-2031,7,26,10,-385,-757,372,571
,245,2023-10-27 11:58:00.44,3,-271,-2029,5,30,6,-309,-641,332,475
,246,2023-10-27 11:58:00.45,2,-274,-2033,7,26,2,-381,-757,376,569
,247,2023-10-27 11:58:00.46,6,-270,-2041,8,16,-3,-315,-643,328,479
,248,2023-10-27 11:58:00.47,8,-276,-2035,10,11,-5,-385,-757,372,571
,249,2023-10-27 11:58:00.48,4,-268,-2044,10,9,-6,-316,-644,328,480
,250,2023-10-27 11:58:00.49,10,-275,-2055,1,15,-10,-382,-758,376,570
,251,2023-10-27 11:58:00.50,5,-284,-2056,-1,12,-7,-320,-651,331,485
,252,2023-10-27 11:58:00.51,1,-289,-2051,0,4,-5,-383,-757,374,570
,253,2023-10-27 11:58:00.52,-2,-288,-2048,8,-4,2,-320,-652,332,486
,254,2023-10-27 11:58:00.53,-9,-291,-2042,9,-10,6,-378,-753,375,565
,255,2023-10-27 11:58:00.54,0,-291,-2045,14,-13,11,-320,-650,330,485
,256,2023-10-27 11:58:00.55,-2,-284,-2043,14,-12,17,-380,-750,370,565
,257,2023-10-27 11:58:00.56,-9,-285,-2036,14,1,25,-324,-655,331,489
,258,2023-10-27 11:58:00.57,-13,-286,-2037,13,-1,26,-384,-755,371,569
,259,2023-10-27 11:58:00.58,-12,-276,-2028,15,5,30,-323,-653,330,488
,260,2023-10-27 11:58:00.59,-16,-280,-2030,16,6,30,-374,-743,369,558
,261,2023-10-27 11:58:00.60,-6,-268,-2040,16,9,30,-325,-654,329,489
,262,2023-10-27 11:58:00.61,-3,-265,-2040,12,6,27,-377,-744,367,560
,263,2023-10-27 11:58:00.62,-4,-270,-2038,13,4,23,-334,-664,330,499
,264,2023-10-27 11:58:00.63,-12,-266,-2039,13,9,21,-379,-746,367,562
,265,2023-10-27 11:58:00.64,-2,-279,-2035,17,8,16,-336,-667,331,501
,266,2023-10-27 11:58:00.65,4,-282,-2026,21,8,17,-375,-743,368,559
,267,2023-10-27 11:58:00.66,-2,-281,-2031,27,6,13,-338,-669,331,503
,268,2023-10-27 11:58:00.67,2,-278,-2035,30,15,14,-373,-739,366,556
,269,2023-10-27 11:58:00.68,4,-285,-2038,30,18,11,-338,-670,332,504
,270,2023-10-27 11:58:00.69,1,-289,-2041,32,26,11,-369,-735,366,552
,271,2023-10-27 11:58:00.70,17,-286,-2037,29,35,12,-339,-672,333,505
,272,2023-10-27 11:58:00.71,1,-289,-2046,29,30,11,-367,-733,366,550
,273,2023-10-27 11:58:00.72,11,-289,-2044,28,22,10,-341,-677,336,509
,274,2023-10-27 11:58:00.73,11,-293,-2036,25,20,9,-362,-731,369,546
,275,2023-10-27 11:58:00.74,9,-285,-2039,24,16,5,-340,-680,340,510
,276,2023-10-27 11:58:00.75,19,-283,-2040,21,17,6,-360,-726,366,543
,277,2023-10-27 11:58:00.76,0,-289,-2041,19,15,3,-349,-681,332,515
,278,2023-10-27 11:58:00.77,5,-292,-2044,17,7,2,-362,-723,361,542
,279,2023-10-27 11:58:00.78,-1,-296,-2042,17,9,6,-352,-688,336,520
,280,2023-10-27 11:58:00.79,17,-303,-2046,15,1,10,-360,-721,361,540
,281,2023-10-27 11:58:00.80,6,-293,-2041,17,-5,12,-357,-691,334,524
,282,2023-10-27 11:58:00.81,11,-293,-2047,16,-2,19,-358,-720,362,539
,283,2023-10-27 11:58:00.82,11,-293,-2040,16,-5,24,-356,-690,334,523
,284,2023-10-27 11:58:00.83,14,-288,-2033,13,-4,26,-349,-711,362,530
,285,2023-10-27 11:58:00.84,12,-290,-2038,11,3,30,-356,-691,335,523
,286,2023-10-27 11:58:00.85,9,-275,-2037,11,3,29,-347,-713,366,530
,287,2023-10-27 11:58:00.86,21,-275,-2038,6,4,29,-357,-696,339,526
,288,2023-10-27 11:58:00.87,13,-275,-2042,4,4,27,-346,-707,361,526
,289,2023-10-27 11:58:00.88,1,-284,-2037,5,1,25,-363,-696,333,529
,290,2023-10-27 11:58:00.89,-1,-289,-2041,8,-2,26,-352,-704,352,528
,291,2023-10-27 11:58:00.90,13,-291,-2036,9,-5,28,-371,-701,330,536
,292,2023-10-27 11:58:00.91,-3,-286,-2037,15,-9,28,-358,-708,350,533
,293,2023-10-27 11:58:00.92,0,-291,-2045,17,-12,31,-378,-708,330,543
,294,2023-10-27 11:58:00.93,3,-293,-2033,21,-13,33,-356,-709,353,532
,295,2023-10-27 11:58:00.94,-2,-291,-2027,27,-3,35,-382,-714,332,548
,296,2023-10-27 11:58:00.95,-16,-284,-2029,26,-5,32,-354,-706,352,530
,297,2023-10-27 11:58:00.96,-2,-289,-2035,25,-6,31,-377,-714,337,545
,298,2023-10-27 11:58:00.97,9,-291,-2039,28,-5,28,-350,-704,354,527
,299,2023-10-27 11:58:00.98,0,-292,-2048,28,-13,28,-380,-721,341,550
,300,2023-10-27 11:58:00.99,-10,-288,-2038,27,-25,25,-342,-702,360,522
,301,2023-10-27 11:58:01.00,-12,-307,-2039,31,-30,28,-374,-723,349,548
,302,2023-10-27 11:58:01.01,-14,-307,-2043,33,-35,29,-334,-694,360,514
,303,2023-10-27 11:58:01.02,-13,-307,-2030,36,-36,31,-370,-722,352,546
,304,2023-10-27 11:58:01.03,-4,-303,-2025,34,-32,30,-321,-682,361,501
,305,2023-10-27 11:58:01.04,-1,-299,-2026,33,-25,28,-367,-717,350,542
,306,2023-10-27 11:58:01.05,-18,-300,-2030,27,-17,28,-318,-678,360,498
,307,2023-10-27 11:58:01.06,-19,-293,-2027,22,-3,27,-373,-725,352,549
,308,2023-10-27 11:58:01.07,-9,-299,-2034,21,3,23,-320,-679,359,499
,309,2023-10-27 11:58:01.08,-19,-294,-2035,22,7,19,-377,-727,350,552
,310,2023-10-27 11:58:01.09,-16,-288,-2032,18,5,15,-319,-675,356,497
,311,2023-10-27 11:58:01.10,-19,-283,-2030,13,9,13,-380,-730,350,555
,312,2023-10-27 11:58:01.11,-6,-281,-2037,6,13,5,-323,-677,354,500
,313,2023-10-27 11:58:01.12,-13,-285,-2033,-2,15,1,-390,-740,350,565
,314,2023-10-27 11:58:01.13,-15,-283,-2041,-11,23,-1,-324,-681,357,502
,315,2023-10-27 11:58:01.14,-12,-292,-2040,-18,20,-1,-388,-740,352,564
,316,2023-10-27 11:58:01.15,-27,-294,-2040,-19,19,-1,-318,-677,359,497
,317,2023-10-27 11:58:01.16,-7,-294,-2031,-22,25,2,-394,-743,349,568
,318,2023-10-27 11:58:01.17,-11,-289,-2031,-27,34,4,-327,-678,351,502
,319,2023-10-27 11:58:01.18,8,-287,-2028,-29,44,2,-402,-749,347,575
,320,2023-10-27 11:58:01.19,14,-273,-2024,-32,60,6,-324,-674,350,499
,321,2023-10-27 11:58:01.20,11,-272,-2037,-33,71,2,-401,-750,349,575
,322,2023-10-27 11:58:01.21,22,-269,-2048,-33,75,-4,-326,-674,348,500
,323,2023-10-27 11:58:01.22,19,-265,-2050,-29,68,-8,-403,-754,351,578
,324,2023-10-27 11:58:01.23,26,-275,-2053,-21,62,-14,-324,-672,348,498
,325,2023-10-27 11:58:01.24,12,-272,-2047,-13,44,-21,-398,-755,357,576
,326,2023-10-27 11:58:01.25,42,-278,-2047,-1,32,-26,-316,-669,353,492
,327,2023-10-27 11:58:01.26,28,-291,-2039,11,19,-28,-395,-760,365,577
,328,2023-10-27 11:58:01.27,24,-292,-2042,18,4,-28,-309,-666,357,487
,329,2023-10-27 11:58:01.28,22,-298,-2046,23,-5,-27,-396,-758,362,577
,330,2023-10-27 11:58:01.29,25,-308,-2041,25,-4,-21,-312,-660,348,486
,331,2023-10-27 11:58:01.30,8,-302,-2041,26,-11,-15,-400,-759,359,579
,332,2023-10-27 11:58:01.31,11,-301,-2035,24,-11,-9,-301,-653,352,477
,333,2023-10-27 11:58:01.32,9,-296,-2031,19,-8,-3,-391,-756,365,573
,334,2023-10-27 11:58:01.33,13,-294,-2038,14,-4,1,-288,-644,356,466
,335,2023-10-27 11:58:01.34,9,-291,-2051,9,7,9,-389,-756,367,572
,336,2023-10-27 11:58:01.35,7,-293,-2041,0,4,7,-295,-645,350,470
,337,2023-10-27 11:58:01.36,4,-288,-2040,-4,1,13,-399,-761,362,580
,338,2023-10-27 11:58:01.37,8,-284,-2041,-6,2,17,-298,-644,346,471
,339,2023-10-27 11:58:01.38,12,-290,-2031,-8,-5,19,-400,-760,360,580
,340,2023-10-27 11:58:01.39,6,-287,-2034,-10,-6,23,-297,-641,344,469
,341,2023-10-27 11:58:01.40,-14,-287,-2032,-10,-6,27,-400,-760,360,580
,342,2023-10-27 11:58:01.41,5,-282,-2026,-7,-7,29,-296,-643,347,469
,343,2023-10-27 11:58:01.42,0,-275,-2024,-8,-2,30,-400,-760,360,580
,344,2023-10-27 11:58:01.43,-11,-275,-2027,-5,5,30,-296,-638,342,467
,345,2023-10-27 11:58:01.44,-1,-269,-2027,-5,14,29,-408,-762,354,585
,346,2023-10-27 11:58:01.45,0,-269,-2022,-3,28,24,-307,-640,333,473
,347,2023-10-27 11:58:01.46,0,-264,-2028,-5,43,16,-411,-765,354,588
,348,2023-10-27 11:58:01.47,5,-266,-2032,-3,50,10,-304,-640,336,472
,349,2023-10-27 11:58:01.48,17,-272,-2038,-2,60,2,-410,-765,355,587
,350,2023-10-27 11:58:01.49,14,-272,-2031,-1,70,-2,-306,-640,334,473
,351,2023-10-27 11:58:01.50,14,-276,-2042,2,73,-8,-411,-768,357,589
,352,2023-10-27 11:58:01.51,28,-286,-2040,9,69,-16,-303,-638,335,470
,353,2023-10-27 11:58:01.52,25,-292,-2040,16,68,-13,-406,-769,363,587
,354,2023-10-27 11:58:01.53,32,-300,-2043,23,64,-11,-302,-638,336,470
,355,2023-10-27 11:58:01.54,29,-303,-2048,28,55,-7,-408,-772,364,590
,356,2023-10-27 11:58:01.55,32,-304,-2053,31,48,1,-303,-637,334,470
,357,2023-10-27 11:58:01.56,31,-308,-2047,28,34,7,-409,-772,363,590
,358,2023-10-27 11:58:01.57,34,-307,-2048,23,32,13,-300,-633,333,466
,359,2023-10-27 11:58:01.58,28,-304,-2045,17,24,21,-405,-770,365,587
,360,2023-10-27 11:58:01.59,37,-295,-2048,7,17,27,-297,-631,334,464
,361,2023-10-27 11:58:01.60,36,-291,-2043,0,9,30,-409,-770,361,589
,362,2023-10-27 11:58:01.61,33,-289,-2040,-2,7,29,-299,-629,330,464
,363,2023-10-27 11:58:01.62,40,-283,-2042,-8,1,26,-411,-771,360,591
,364,2023-10-27 11:58:01.63,35,-282,-2039,-5,-2,28,-298,-629,331,463
,365,2023-10-27 11:58:01.64,32,-289,-2041,1,-4,26,-410,-771,361,590
,366,2023-10-27 11:58:01.65,37,-283,-2037,7,-5,24,-304,-630,326,467
,367,2023-10-27 11:58:01.66,35,-281,-2036,10,-4,24,-416,-774,358,595
,368,2023-10-27 11:58:01.67,41,-277,-2037,11,-4,23,-302,-632,330,467
,369,2023-10-27 11:58:01.68,31,-285,-2035,10,7,22,-408,-769,361,588
,370,2023-10-27 11:58:01.69,35,-279,-2036,9,9,23,-300,-627,327,463
,371,2023-10-27 11:58:01.70,32,-280,-2037,4,9,21,-414,-774,360,594
,372,2023-10-27 11:58:01.71,23,-280,-2037,-1,16,25,-317,-641,324,479
,373,2023-10-27 11:58:01.72,24,-280,-2034,-3,10,22,-422,-779,357,600
,374,2023-10-27 11:58:01.73,31,-282,-2039,-4,7,29,-316,-640,324,478
,375,2023-10-27 11:58:01.74,32,-287,-2044,0,-2,31,-420,-778,358,599
,376,2023-10-27 11:58:01.75,30,-288,-2047,2,-12,35,-318,-641,323,479
,377,2023-10-27 11:58:01.76,24,-294,-2045,6,-19,45,-423,-777,354,600
,378,2023-10-27 11:58:01.77,21,-289,-2048,11,-22,48,-325,-644,319,484
,379,2023-10-27 11:58:01.78,30,-285,-2049,15,-26,53,-420,-777,357,598
,380,2023-10-27 11:58:01.79,12,-281,-2034,16,-22,53,-312,-634,322,473
,381,2023-10-27 11:58:01.80,21,-270,-2038,14,-18,53,-407,-770,363,588
,382,2023-10-27 11:58:01.81,15,-272,-2040,15,-15,51,-307,-632,325,469
,383,2023-10-27 11:58:01.82,0,-272,-2048,13,-13,50,-404,-772,368,588
,384,2023-10-27 11:58:01.83,26,-275,-2033,11,-15,46,-310,-636,326,473
,385,2023-10-27 11:58:01.84,27,-262,-2033,8,-7,37,-407,-772,365,589
,386,2023-10-27 11:58:01.85,20,-263,-2041,1,4,32,-311,-634,323,472
,387,2023-10-27 11:58:01.86,17,-272,-2046,-1,9,27,-405,-771,366,588
,388,2023-10-27 11:58:01.87,20,-271,-2051,1,4,22,-309,-633,324,471
,389,2023-10-27 11:58:01.88,13,-274,-2046,8,-3,16,-406,-772,366,589
,390,2023-10-27 11:58:01.89,20,-268,-2050,15,-10,18,-315,-639,324,477
,391,2023-10-27 11:58:01.90,15,-274,-2049,17,-12,11,-411,-777,366,594
,392,2023-10-27 11:58:01.91,19,-277,-2051,18,-17,11,-318,-641,323,479
,393,2023-10-27 11:58:01.92,20,-294,-2040,23,-24,9,-406,-774,368,590
,394,2023-10-27 11:58:01.93,11,-296,-2037,30,-29,12,-319,-643,324,481
,395,2023-10-27 11:58:01.94,11,-288,-2042,38,-24,17,-404,-772,368,588
,396,2023-10-27 11:58:01.95,17,-297,-2035,38,-22,17,-318,-645,327,481
,397,2023-10-27 11:58:01.96,11,-294,-2033,38,-25,18,-402,-774,372,588
,398,2023-10-27 11:58:01.97,6,-290,-2034,36,-15,23,-320,-648,328,484
,399,2023-10-27 11:58:01.98,20,-295,-2034,34,-15,24,-400,-771,371,585
,400,2023-10-27 11:58:01.99,22,-301,-2030,37,-16,24,-315,-645,330,480
,401,2023-10-27 11:58:02.00,23,-295,-2034,34,-26,21,-391,-766,375,578
,402,2023-10-27 11:58:02.01,12,-300,-2032,34,-24,30,-310,-643,333,476
,403,2023-10-27 11:58:02.02,6,-308,-2028,34,-27,30,-383,-766,383,574
,404,2023-10-27 11:58:02.03,3,-300,-2030,33,-31,32,-305,-644,339,474
,405,2023-10-27 11:58:02.04,12,-300,-2032,30,-22,36,-384,-761,377,572
,406,2023-10-27 11:58:02.05,3,-307,-2039,24,-21,39,-312,-644,332,478
,407,2023-10-27 11:58:02.06,1,-306,-2036,20,-12,45,-381,-757,376,569
,408,2023-10-27 11:58:02.07,10,-302,-2039,16,-11,46,-309,-645,336,477
,409,2023-10-27 11:58:02.08,-8,-290,-2039,10,-11,48,-380,-757,377,568
,410,2023-10-27 11:58:02.09,-7,-283,-2042,8,-10,46,-311,-647,336,479
,411,2023-10-27 11:58:02.10,-10,-286,-2040,6,-6,47,-384,-756,372,570
,412,2023-10-27 11:58:02.11,-4,-287,-2042,4,-5,43,-320,-650,330,485
,413,2023-10-27 11:58:02.12,-15,-282,-2044,7,-6,43,-394,-760,366,577
,414,2023-10-27 11:58:02.13,-10,-282,-2033,11,-8,39,-329,-657,328,493
,415,2023-10-27 11:58:02.14,5,-280,-2038,11,-7,38,-391,-759,368,575
,416,2023-10-27 11:58:02.15,-5,-284,-2037,13,-8,35,-330,-660,330,495
,417,2023-10-27 11:58:02.16,-5,-293,-2038,18,-11,34,-389,-757,368,573
,418,2023-10-27 11:58:02.17,-3,-289,-2033,23,-7,34,-335,-665,330,500
,419,2023-10-27 11:58:02.18,-3,-291,-2020,26,3,33,-386,-754,368,570
,420,2023-10-27 11:58:02.19,-8,-289,-2026,26,12,31,-326,-661,335,493
,421,2023-10-27 11:58:02.20,0,-287,-2035,26,27,25,-368,-741,373,554
,422,2023-10-27 11:58:02.21,7,-283,-2038,23,36,21,-322,-656,334,489
,423,2023-10-27 11:58:02.22,2,-282,-2050,20,33,18,-370,-741,371,555
,424,2023-10-27 11:58:02.23,-2,-286,-2051,17,31,15,-330,-669,339,499
,425,2023-10-27 11:58:02.24,7,-286,-2044,19,22,10,-368,-741,373,554
,426,2023-10-27 11:58:02.25,18,-286,-2035,17,16,7,-329,-666,337,497
,427,2023-10-27 11:58:02.26,9,-290,-2029,17,10,1,-365,-736,371,550
,428,2023-10-27 11:58:02.27,9,-292,-2026,19,9,2,-334,-673,339,503
,429,2023-10-27 11:58:02.28,10,-293,-2024,19,11,0,-366,-735,369,550
,430,2023-10-27 11:58:02.29,15,-300,-2027,16,17,-2,-339,-675,336,507
,431,2023-10-27 11:58:02.30,17,-302,-2028,18,21,0,-364,-733,369,548
,432,2023-10-27 11:58:02.31,21,-309,-2034,18,18,2,-342,-683,341,512
,433,2023-10-27 11:58:02.32,11,-312,-2034,18,18,5,-366,-734,368,550
,434,2023-10-27 11:58:02.33,14,-314,-2032,13,25,11,-351,-687,336,519
,435,2023-10-27 11:58:02.34,10,-300,-2040,8,32,11,-363,-731,368,547
,436,2023-10-27 11:58:02.35,25,-292,-2040,0,32,10,-349,-688,339,518
,437,2023-10-27 11:58:02.36,33,-290,-2046,-4,34,7,-359,-728,369,543
,438,2023-10-27 11:58:02.37,29,-293,-2040,1,15,4,-347,-690,343,518
,439,2023-10-27 11:58:02.38,25,-294,-2046,9,5,0,-347,-721,374,534
,440,2023-10-27 11:58:02.39,38,-293,-2048,10,3,-3,-344,-686,342,515
,441,2023-10-27 11:58:02.40,26,-292,-2052,7,0,-9,-347,-715,368,531
,442,2023-10-27 11:58:02.41,16,-300,-2048,5,1,-11,-352,-691,339,521
,443,2023-10-27 11:58:02.42,26,-312,-2052,16,-14,-6,-350,-716,366,533
,444,2023-10-27 11:58:02.43,11,-316,-2039,27,-32,0,-357,-695,338,526
,445,2023-10-27 11:58:02.44,4,-321,-2031,32,-37,7,-349,-710,361,529
,446,2023-10-27 11:58:02.45,9,-319,-2030,36,-40,14,-362,-698,336,530
,447,2023-10-27 11:58:02.46,4,-318,-2031,33,-41,19,-351,-710,359,530
,448,2023-10-27 11:58:02.47,0,-316,-2037,32,-40,29,-368,-701,333,534
,449,2023-10-27 11:58:02.48,-1,-312,-2037,27,-38,32,-350,-709,359,529
,450,2023-10-27 11:58:02.49,0,-306,-2030,23,-36,34,-368,-703,335,535
,451,2023-10-27 11:58:02.50,-10,-309,-2027,21,-23,39,-340,-700,360,520
,452,2023-10-27 11:58:02.51,-6,-298,-2027,15,-19,37,-369,-704,335,536
,453,2023-10-27 11:58:02.52,2,-299,-2029,11,-5,38,-342,-700,358,521
,454,2023-10-27 11:58:02.53,-7,-292,-2035,7,6,33,-382,-715,333,548
,455,2023-10-27 11:58:02.54,-5,-291,-2030,5,14,29,-346,-699,353,522
,456,2023-10-27 11:58:02.55,8,-286,-2036,5,21,26,-379,-711,332,545
,457,2023-10-27 11:58:02.56,-8,-300,-2032,7,22,22,-343,-693,350,518
,458,2023-10-27 11:58:02.57,-7,-300,-2032,6,18,16,-381,-716,335,548
,459,2023-10-27 11:58:02.58,5,-287,-2037,9,12,14,-336,-692,356,514
,460,2023-10-27 11:58:02.59,5,-288,-2040,8,10,15,-377,-717,340,547
,461,2023-10-27 11:58:02.60,-4,-295,-2046,7,-1,14,-338,-690,352,514
,462,2023-10-27 11:58:02.61,4,-303,-2052,4,-9,16,-381,-721,340,551
,463,2023-10-27 11:58:02.62,-1,-302,-2040,6,-14,17,-335,-691,356,513
,464,2023-10-27 11:58:02.63,-5,-292,-2032,5,-9,20,-380,-722,342,551
,465,2023-10-27 11:58:02.64,9,-287,-2033,5,-6,16,-334,-686,352,510
,466,2023-10-27 11:58:02.65,12,-277,-2029,0,0,9,-389,-726,337,557
,467,2023-10-27 11:58:02.66,0,-282,-2026,2,10,5,-338,-682,344,510
,468,2023-10-27 11:58:02.67,11,-280,-2035,1,13,-3,-387,-727,340,557
,469,2023-10-27 11:58:02.68,-4,-290,-2034,9,16,-4,-326,-680,354,503
,470,2023-10-27 11:58:02.69,0,-293,-2036,10,16,-4,-385,-729,344,557
,471,2023-10-27 11:58:02.70,12,-300,-2041,16,18,-5,-327,-677,350,502
,472,2023-10-27 11:58:02.71,10,-301,-2037,18,15,-5,-385,-732,347,558
,473,2023-10-27 11:58:02.72,16,-304,-2028,22,17,-2,-315,-670,355,492
,474,2023-10-27 11:58:02.73,10,-307,-2035,24,10,1,-380,-728,348,554
,475,2023-10-27 11:58:02.74,4,-308,-2027,24,13,6,-319,-667,348,493
,476,2023-10-27 11:58:02.75,13,-309,-2034,29,8,9,-392,-736,344,564
,477,2023-10-27 11:58:02.76,6,-316,-2034,30,11,16,-326,-669,343,497
,478,2023-10-27 11:58:02.77,20,-313,-2032,31,10,20,-396,-740,344,568
,479,2023-10-27 11:58:02.78,1,-314,-2039,32,12,20,-317,-666,349,491
,480,2023-10-27 11:58:02.79,1,-308,-2044,32,12,20,-392,-739,347,565
,481,2023-10-27 11:58:02.80,19,-310,-2040,31,10,18,-319,-664,345,491
,482,2023-10-27 11:58:02.81,6,-306,-2043,30,5,15,-395,-742,347,568
,483,2023-10-27 11:58:02.82,6,-305,-2045,28,7,12,-316,-660,344,488
,484,2023-10-27 11:58:02.83,14,-310,-2045,24,-2,8,-394,-742,348,568
,485,2023-10-27 11:58:02.84,18,-311,-2052,23,-7,5,-312,-656,344,484
,486,2023-10-27 11:58:02.85,1,-309,-2046,21,-19,4,-393,-745,352,569
,487,2023-10-27 11:58:02.86,7,-309,-2032,21,-21,7,-312,-654,342,483
,488,2023-10-27 11:58:02.87,-4,-318,-2034,18,-30,8,-394,-745,351,569
,489,2023-10-27 11:58:02.88,9,-317,-2026,21,-31,8,-307,-648,341,477
,490,2023-10-27 11:58:02.89,7,-315,-2030,21,-24,14,-391,-747,356,569
,491,2023-10-27 11:58:02.90,0,-322,-2021,20,-16,14,-305,-647,342,476
,492,2023-10-27 11:58:02.91,-5,-311,-2038,19,-10,16,-394,-752,358,573
,493,2023-10-27 11:58:02.92,2,-313,-2037,19,-3,17,-306,-649,343,477
,494,2023-10-27 11:58:02.93,0,-318,-2033,23,-8,19,-395,-753,358,574
,495,2023-10-27 11:58:02.94,1,-317,-2035,27,-6,23,-311,-653,342,482
,496,2023-10-27 11:58:02.95,11,-314,-2030,33,-8,23,-394,-751,357,572
,497,2023-10-27 11:58:02.96,9,-306,-2026,38,3,24,-304,-643,339,473
,498,2023-10-27 11:58:02.97,2,-303,-2024,41,4,19,-400,-754,354,577
,499,2023-10-27 11:58:02.98,3,-301,-2024,43,11,13,-303,-645,342,474
,500,2023-10-27 11:58:02.99,14,-302,-2032,41,9,3,-401,-759,358,580
,501,2023-10-27 11:58:03.00,4,-305,-2030,40,9,-6,-306,-645,339,475
,502,2023-10-27 11:58:03.01,5,-301,-2034,41,1,-12,-403,-762,359,582
,503,2023-10-27 11:58:03.02,-11,-304,-2038,38,-4,-12,-303,-640,337,471
,504,2023-10-27 11:58:03.03,7,-305,-2037,31,-8,-17,-398,-759,361,578
,505,2023-10-27 11:58:03.04,-4,-307,-2037,25,-12,-21,-296,-635,339,465
,506,2023-10-27 11:58:03.05,-1,-318,-2035,22,-11,-17,-400,-764,364,582
,507,2023-10-27 11:58:03.06,-2,-321,-2032,16,-7,-17,-299,-639,340,469
,508,2023-10-27 11:58:03.07,7,-318,-2032,13,-3,-17,-403,-766,363,584
,509,2023-10-27 11:58:03.08,4,-314,-2035,2,10,-14,-297,-638,341,467
,510,2023-10-27 11:58:03.09,-6,-313,-2049,-4,8,-15,-399,-769,370,584
,511,2023-10-27 11:58:03.10,3,-316,-2045,-7,4,-10,-292,-636,344,464
,512,2023-10-27 11:58:03.11,-7,-311,-2042,-4,-6,-3,-401,-768,367,584
,513,2023-10-27 11:58:03.12,-3,-312,-2035,-1,-16,2,-291,-633,342,462
,514,2023-10-27 11:58:03.13,-4,-307,-2029,-3,-16,3,-398,-766,368,582
,515,2023-10-27 11:58:03.14,-11,-309,-2019,2,-13,4,-289,-634,345,461
,516,2023-10-27 11:58:03.15,-15,-304,-2022,4,-11,2,-398,-766,368,582
,517,2023-10-27 11:58:03.16,4,-309,-2008,8,1,6,-285,-627,342,456
,518,2023-10-27 11:58:03.17,-7,-314,-2015,14,13,3,-392,-761,369,576
,519,2023-10-27 11:58:03.18,2,-316,-2013,21,23,0,-283,-622,339,452
,520,2023-10-27 11:58:03.19,12,-313,-2024,29,33,-3,-397,-765,368,581
,521,2023-10-27 11:58:03.20,6,-318,-2028,37,30,-4,-292,-631,339,461
,522,2023-10-27 11:58:03.21,7,-327,-2043,44,25,-6,-411,-772,361,591
,523,2023-10-27 11:58:03.22,4,-329,-2035,50,27,-8,-302,-633,331,467
,524,2023-10-27 11:58:03.23,10,-340,-2027,55,34,-7,-408,-773,365,590
,525,2023-10-27 11:58:03.24,9,-341,-2034,58,41,-14,-293,-630,337,461
,526,2023-10-27 11:58:03.25,3,-340,-2043,60,48,-14,-398,-770,372,584
,527,2023-10-27 11:58:03.26,8,-347,-2043,60,42,-18,-280,-624,344,452
,528,2023-10-27 11:58:03.27,11,-360,-2049,61,38,-18,-388,-764,376,576
,529,2023-10-27 11:58:03.28,-7,-373,-2037,64,29,-20,-285,-624,339,454
,530,2023-10-27 11:58:03.29,-2,-371,-2044,61,36,-16,-406,-774,368,590
,531,2023-10-27 11:58:03.30,-5,-357,-2038,51,44,-15,-305,-639,334,472
,532,2023-10-27 11:58:03.31,-8,-333,-2028,33,52,-22,-408,-778,370,593
,533,2023-10-27 11:58:03.32,-12,-327,-2001,9,65,-31,-290,-631,341,460
,534,2023-10-27 11:58:03.33,-4,-321,-1990,-4,45,-43,-406,-774,368,590
,535,2023-10-27 11:58:03.34,-9,-307,-2013,-7,23,-58,-305,-636,331,470
,536,2023-10-27 11:58:03.35,7,-300,-2018,-26,24,-71,-418,-782,364,600
,537,2023-10-27 11:58:03.36,18,-302,-2032,-48,30,-83,-298,-634,336,466
,538,2023-10-27 11:58:03.37,4,-311,-2045,-71,26,-91,-412,-777,365,594
,539,2023-10-27 11:58:03.38,15,-318,-2040,-81,18,-92,-311,-635,324,473
,540,2023-10-27 11:58:03.39,20,-320,-2041,-81,4,-89,-403,-774,371,588
,541,2023-10-27 11:58:03.40,23,-308,-2052,-79,-15,-83,-295,-633,338,464
,542,2023-10-27 11:58:03.41,16,-308,-2053,-87,-10,-78,-408,-777,369,592
,543,2023-10-27 11:58:03.42,29,-305,-2051,-94,-2,-69,-314,-642,328,478
,544,2023-10-27 11:58:03.43,28,-305,-2037,-96,0,-61,-402,-775,373,588
,545,2023-10-27 11:58:03.44,21,-303,-2042,-89,5,-56,-293,-634,341,463
,546,2023-10-27 11:58:03.45,33,-300,-2030,-70,0,-50,-388,-766,378,577
,547,2023-10-27 11:58:03.46,25,-314,-2024,-49,16,-44,-299,-632,333,465
,548,2023-10-27 11:58:03.47,31,-301,-2023,-29,30,-40,-407,-774,367,590
,549,2023-10-27 11:58:03.48,28,-309,-2024,-9,44,-37,-316,-643,327,479
,550,2023-10-27 11:58:03.49,27,-308,-2019,11,61,-36,-402,-773,371,587
,551,2023-10-27 11:58:03.50,17,-319,-2018,28,61,-33,-299,-635,336,467
,552,2023-10-27 11:58:03.51,25,-321,-2015,47,66,-29,-380,-764,384,572
,553,2023-10-27 11:58:03.52,21,-321,-2014,60,70,-27,-294,-630,336,462
,554,2023-10-27 11:58:03.53,14,-319,-2023,68,72,-27,-388,-761,373,574
,555,2023-10-27 11:58:03.54,25,-312,-2027,69,68,-29,-308,-635,327,471
,556,2023-10-27 11:58:03.55,35,-315,-2038,69,66,-31,-399,-768,369,583
,557,2023-10-27 11:58:03.56,36,-315,-2029,63,57,-37,-314,-639,325,476
,558,2023-10-27 11:58:03.57,41,-299,-2032,51,64,-45,-398,-765,367,581
,559,2023-10-27 11:58:03.58,49,-304,-2032,33,68,-52,-318,-641,323,479
,560,2023-10-27 11:58:03.59,44,-309,-2040,16,68,-64,-400,-765,365,582
,561,2023-10-27 11:58:03.60,49,-306,-2038,1,71,-74,-318,-639,321,478
,562,2023-10-27 11:58:03.61,49,-306,-2027,-4,62,-84,-391,-761,370,576
,563,2023-10-27 11:58:03.62,50,-293,-2034,-8,43,-93,-306,-640,334,473
,564,2023-10-27 11:58:03.63,67,-290,-2049,-19,41,-101,-374,-754,380,564
,565,2023-10-27 11:58:03.64,69,-293,-2056,-36,49,-110,-291,-633,342,462
,566,2023-10-27 11:58:03.65,66,-294,-2061,-51,47,-117,-356,-746,390,551
,567,2023-10-27 11:58:03.66,57,-299,-2077,-56,29,-118,-279,-630,351,454
,568,2023-10-27 11:58:03.67,52,-295,-2080,-62,10,-118,-346,-739,393,542
,569,2023-10-27 11:58:03.68,53,-289,-2062,-68,0,-113,-279,-628,349,453
,570,2023-10-27 11:58:03.69,59,-290,-2056,-74,-7,-109,-343,-736,393,539
,571,2023-10-27 11:58:03.70,68,-291,-2051,-76,-17,-103,-276,-631,355,453
,572,2023-10-27 11:58:03.71,79,-297,-2012,-70,-3,-96,-316,-726,410,521
,573,2023-10-27 11:58:03.72,70,-309,-1992,-59,10,-95,-230,-615,385,422
,574,2023-10-27 11:58:03.73,57,-328,-2002,-18,-23,-90,-264,-710,446,487
,575,2023-10-27 11:58:03.74,64,-337,-2022,36,-58,-84,-228,-619,391,423
,576,2023-10-27 11:58:03.75,53,-338,-2042,83,-73,-72,-298,-717,419,507
,577,2023-10-27 11:58:03.76,54,-328,-2059,103,-76,-66,-259,-629,370,444
,578,2023-10-27 11:58:03.77,31,-330,-2060,103,-76,-55,-300,-707,407,503
,579,2023-10-27 11:58:03.78,19,-326,-2061,91,-62,-50,-253,-622,369,437
,580,2023-10-27 11:58:03.79,26,-320,-2051,73,-47,-41,-291,-703,412,497
,581,2023-10-27 11:58:03.80,15,-314,-2025,52,-31,-41,-247,-627,380,437
,582,2023-10-27 11:58:03.81,10,-327,-2004,42,-36,-41,-292,-705,413,498
,583,2023-10-27 11:58:03.82,1,-327,-2007,39,-31,-43,-273,-636,363,454
,584,2023-10-27 11:58:03.83,6,-322,-2003,34,-24,-49,-322,-712,390,517
,585,2023-10-27 11:58:03.84,21,-313,-2004,25,-1,-53,-288,-644,356,466
,586,2023-10-27 11:58:03.85,18,-304,-2003,13,21,-62,-316,-709,393,512
,587,2023-10-27 11:58:03.86,23,-308,-2013,3,39,-71,-288,-644,356,466
,588,2023-10-27 11:58:03.87,17,-296,-2035,-5,30,-83,-319,-707,388,513
,589,2023-10-27 11:58:03.88,17,-295,-2057,-16,25,-88,-302,-650,348,476
,590,2023-10-27 11:58:03.89,27,-283,-2065,-33,18,-94,-334,-714,380,524
,591,2023-10-27 11:58:03.90,29,-282,-2057,-55,21,-100,-327,-668,341,497
,592,2023-10-27 11:58:03.91,42,-283,-2057,-73,17,-104,-357,-728,371,542
,593,2023-10-27 11:58:03.92,38,-300,-2048,-84,10,-105,-345,-680,335,512
,594,2023-10-27 11:58:03.93,35,-298,-2044,-81,16,-101,-355,-724,369,539
,595,2023-10-27 11:58:03.94,41,-283,-2044,-81,17,-100,-338,-681,343,509
,596,2023-10-27 11:58:03.95,39,-276,-2034,-85,36,-91,-356,-723,367,539
,597,2023-10-27 11:58:03.96,46,-271,-2039,-87,54,-90,-346,-683,337,514
,598,2023-10-27 11:58:03.97,68,-273,-2039,-83,65,-93,-346,-717,371,531
,599,2023-10-27 11:58:03.98,64,-264,-2033,-70,73,-95,-338,-681,343,509
,600,2023-10-27 11:58:03.99,60,-260,-2025,-51,73,-106,-342,-713,371,527
,601,2023-10-27 11:58:04.00,69,-256,-2016,-32,75,-110,-353,-693,340,523
,602,2023-10-27 11:58:04.01,81,-262,-1994,20,75,-131,-363,-726,363,544
,603,2023-10-27 11:58:04.02,99,-267,-1999,49,73,-144,-370,-709,339,539
,604,2023-10-27 11:58:04.03,116,-271,-2000,73,79,-157,-357,-724,367,540
,605,2023-10-27 11:58:04.04,115,-272,-2011,90,86,-178,-354,-704,350,529
,606,2023-10-27 11:58:04.05,118,-277,-2020,97,95,-195,-330,-708,378,519
,607,2023-10-27 11:58:04.06,125,-280,-2042,95,106,-207,-338,-694,356,516
,608,2023-10-27 11:58:04.07,114,-287,-2053,84,114,-218,-317,-697,380,507
,609,2023-10-27 11:58:04.08,124,-295,-2066,69,116,-228,-336,-688,352,512
,610,2023-10-27 11:58:04.09,125,-298,-2072,52,100,-237,-324,-693,369,508
,611,2023-10-27 11:58:04.10,116,-318,-2063,36,74,-235,-355,-699,344,527
,612,2023-10-27 11:58:04.11,116,-315,-2074,29,39,-227,-337,-699,362,518
,613,2023-10-27 11:58:04.12,112,-323,-2068,15,18,-218,-374,-710,336,542
,614,2023-10-27 11:58:04.13,100,-331,-2066,-12,9,-209,-353,-706,353,529
,615,2023-10-27 11:58:04.14,89,-336,-2060,-33,-10,-196,-376,-713,337,544
,616,2023-10-27 11:58:04.15,97,-346,-2055,-43,-34,-177,-346,-699,353,522
,617,2023-10-27 11:58:04.16,90,-339,-2052,-56,-50,-153,-379,-716,337,547
,618,2023-10-27 11:58:04.17,80,-343,-2055,-68,-61,-127,-357,-708,351,532
,619,2023-10-27 11:58:04.18,71,-343,-2064,-75,-82,-100,-386,-722,336,554
,620,2023-10-27 11:58:04.19,68,-336,-2052,-76,-91,-70,-339,-691,352,515
,621,2023-10-27 11:58:04.20,65,-318,-2045,-76,-103,-47,-372,-714,342,543
,622,2023-10-27 11:58:04.21,67,-302,-2047,-74,-105,-24,-324,-681,357,502
,623,2023-10-27 11:58:04.22,61,-293,-2044,-65,-106,-12,-364,-713,349,538
,624,2023-10-27 11:58:04.23,67,-290,-2036,-56,-101,3,-311,-674,363,492
,625,2023-10-27 11:58:04.24,44,-297,-2026,-35,-93,14,-365,-711,346,538
,626,2023-10-27 11:58:04.25,54,-299,-2021,-8,-90,21,-322,-673,351,497
,627,2023-10-27 11:58:04.26,51,-295,-2013,18,-77,31,-384,-722,338,553
,628,2023-10-27 11:58:04.27,46,-286,-2021,37,-58,35,-330,-675,345,502
,629,2023-10-27 11:58:04.28,56,-294,-2019,48,-25,37,-383,-724,341,553
,630,2023-10-27 11:58:04.29,55,-296,-2011,55,7,36,-323,-673,350,498
,631,2023-10-27 11:58:04.30,45,-302,-2011,69,21,33,-386,-727,341,556
,632,2023-10-27 11:58:04.31,57,-310,-2014,90,17,34,-324,-668,344,496
,633,2023-10-27 11:58:04.32,53,-305,-2025,105,23,33,-385,-728,343,556
,634,2023-10-27 11:58:04.33,62,-298,-2035,103,35,29,-320,-668,348,494
,635,2023-10-27 11:58:04.34,72,-307,-2027,94,53,24,-385,-733,348,559
,636,2023-10-27 11:58:04.35,84,-297,-2030,83,78,12,-312,-666,354,489
,637,2023-10-27 11:58:04.36,85,-302,-2029,67,102,4,-380,-733,353,556
,638,2023-10-27 11:58:04.37,86,-300,-2041,53,104,-6,-307,-660,353,483
,639,2023-10-27 11:58:04.38,83,-302,-2046,43,97,-16,-382,-736,354,559
,640,2023-10-27 11:58:04.39,71,-296,-2048,32,86,-24,-308,-661,353,484
,641,2023-10-27 11:58:04.40,96,-290,-2046,18,72,-31,-384,-742,358,563
,642,2023-10-27 11:58:04.41,95,-281,-2047,0,62,-41,-295,-656,361,475
,643,2023-10-27 11:58:04.42,99,-279,-2052,-18,55,-48,-370,-735,365,552
,644,2023-10-27 11:58:04.43,103,-280,-2042,-33,44,-54,-290,-647,357,468
,645,2023-10-27 11:58:04.44,88,-296,-2062,-41,29,-53,-375,-738,363,556
,646,2023-10-27 11:58:04.45,101,-303,-2047,-43,10,-51,-295,-651,356,473
,647,2023-10-27 11:58:04.46,81,-314,-2047,-44,1,-46,-384,-743,359,563
,648,2023-10-27 11:58:04.47,88,-326,-2048,-33,-13,-32,-297,-647,350,472
,649,2023-10-27 11:58:04.48,83,-324,-2050,-22,-29,-17,-387,-745,358,566
,650,2023-10-27 11:58:04.49,85,-329,-2046,-11,-36,-2,-296,-645,349,470
,651,2023-10-27 11:58:04.50,87,-332,-2037,-2,-36,17,-391,-748,357,569
,652,2023-10-27 11:58:04.51,78,-330,-2028,10,-31,33,-302,-649,347,475
,653,2023-10-27 11:58:04.52,80,-324,-2044,18,-28,47,-397,-753,356,575
,654,2023-10-27 11:58:04.53,70,-314,-2041,20,-21,55,-301,-645,344,473
,655,2023-10-27 11:58:04.54,61,-298,-2044,21,-12,60,-400,-754,354,577
,656,2023-10-27 11:58:04.55,72,-291,-2041,17,-6,59,-295,-642,347,468
,657,2023-10-27 11:58:04.56,69,-297,-2032,18,-2,56,-405,-759,354,582
,658,2023-10-27 11:58:04.57,70,-290,-2036,21,-7,53,-311,-649,338,480
,659,2023-10-27 11:58:04.58,82,-295,-2023,25,-4,48,-419,-769,350,594
,660,2023-10-27 11:58:04.59,82,-290,-2019,24,-6,38,-305,-645,340,475
,661,2023-10-27 11:58:04.60,89,-282,-2022,23,6,28,-406,-760,354,583
,662,2023-10-27 11:58:04.61,79,-291,-2015,16,15,19,-305,-642,337,473
,663,2023-10-27 11:58:04.62,82,-295,-2016,16,23,11,-418,-768,350,593
,664,2023-10-27 11:58:04.63,92,-298,-2013,15,36,2,-318,-648,330,483
,665,2023-10-27 11:58:04.64,88,-305,-2012,12,41,-7,-415,-769,354,592
,666,2023-10-27 11:58:04.65,96,-319,-2014,14,49,-13,-300,-642,342,471
,667,2023-10-27 11:58:04.66,102,-316,-2011,15,58,-16,-410,-768,358,589
,668,2023-10-27 11:58:04.67,103,-319,-2033,10,68,-18,-308,-645,337,476
,669,2023-10-27 11:58:04.68,91,-322,-2050,1,74,-17,-400,-768,368,584
,670,2023-10-27 11:58:04.69,99,-326,-2068,-9,66,-14,-285,-634,349,459
,671,2023-10-27 11:58:04.70,112,-316,-2061,-22,60,-8,-395,-763,368,579
,672,2023-10-27 11:58:04.71,100,-309,-2062,-30,53,-2,-294,-634,340,464
,673,2023-10-27 11:58:04.72,114,-306,-2060,-41,39,-1,-400,-766,366,583
,674,2023-10-27 11:58:04.73,96,-294,-2063,-48,33,0,-291,-632,341,461
,675,2023-10-27 11:58:04.74,126,-288,-2054,-54,18,-4,-401,-766,365,583
,676,2023-10-27 11:58:04.75,118,-287,-2060,-52,1,-7,-298,-635,337,466
,677,2023-10-27 11:58:04.76,106,-302,-2047,-45,-13,-3,-412,-771,359,591
,678,2023-10-27 11:58:04.77,101,-302,-2048,-36,-27,1,-307,-639,332,473
,679,2023-10-27 11:58:04.78,95,-306,-2038,-21,-36,10,-418,-776,358,597
,680,2023-10-27 11:58:04.79,97,-303,-2031,-13,-51,17,-311,-639,328,475
,681,2023-10-27 11:58:04.80,102,-301,-2023,-1,-55,22,-415,-775,360,595
,682,2023-10-27 11:58:04.81,101,-292,-2026,2,-58,24,-302,-637,335,469
,683,2023-10-27 11:58:04.82,97,-294,-2027,5,-56,28,-408,-771,363,589
,684,2023-10-27 11:58:04.83,96,-291,-2036,7,-56,33,-298,-629,331,463
,685,2023-10-27 11:58:04.84,81,-295,-2036,10,-60,34,-408,-768,360,588
,686,2023-10-27 11:58:04.85,74,-300,-2041,16,-68,37,-306,-629,323,467
,687,2023-10-27 11:58:04.86,69,-304,-2047,23,-82,42,-413,-770,357,591
,688,2023-10-27 11:58:04.87,61,-314,-2044,32,-99,47,-301,-631,330,466
,689,2023-10-27 11:58:04.88,53,-313,-2038,40,-109,55,-408,-769,361,588
,690,2023-10-27 11:58:04.89,51,-310,-2035,46,-109,59,-302,-630,328,466
,691,2023-10-27 11:58:04.90,47,-315,-2034,45,-87,67,-404,-770,366,587
,692,2023-10-27 11:58:04.91,39,-304,-2029,38,-69,69,-298,-629,331,463
,693,2023-10-27 11:58:04.92,52,-297,-2012,22,-32,71,-399,-769,370,584
,694,2023-10-27 11:58:04.93,52,-305,-2019,7,-1,72,-294,-627,333,460
,695,2023-10-27 11:58:04.94,31,-295,-2026,1,14,70,-393,-765,372,579
,696,2023-10-27 11:58:04.95,58,-281,-2023,-4,9,62,-289,-624,335,456
,697,2023-10-27 11:58:04.96,47,-284,-2013,-15,27,53,-380,-758,378,569
,698,2023-10-27 11:58:04.97,67,-268,-2016,-23,41,42,-287,-626,339,456
,699,2023-10-27 11:58:04.98,77,-262,-2010,-29,59,25,-389,-766,377,577
,700,2023-10-27 11:58:04.99,77,-255,-2023,-31,70,8,-300,-637,337,468
,701,2023-10-27 11:58:05.00,78,-266,-2033,-28,76,-10,-390,-767,377,578
,702,2023-10-27 11:58:05.01,87,-277,-2048,-22,69,-21,-293,-628,335,460
,703,2023-10-27 11:58:05.02,76,-281,-2056,-14,56,-31,-404,-771,367,587
,704,2023-10-27 11:58:05.03,75,-293,-2056,-5,44,-36,-305,-636,331,470
,705,2023-10-27 11:58:05.04,73,-299,-2054,1,35,-35,-399,-770,371,584
,706,2023-10-27 11:58:05.05,81,-309,-2054,5,25,-27,-300,-633,333,466
,707,2023-10-27 11:58:05.06,83,-313,-2046,8,21,-18,-390,-766,376,578
,708,2023-10-27 11:58:05.07,74,-305,-2041,10,23,-5,-299,-633,334,466
,709,2023-10-27 11:58:05.08,75,-306,-2039,2,20,9,-390,-766,376,578
,710,2023-10-27 11:58:05.09,87,-298,-2040,-4,32,23,-293,-630,337,461
,711,2023-10-27 11:58:05.10,79,-293,-2035,-19,41,31,-373,-760,387,566
,712,2023-10-27 11:58:05.11,77,-287,-2030,-28,49,35,-285,-629,344,457
,713,2023-10-27 11:58:05.12,101,-273,-2037,-33,46,38,-377,-760,383,568
,714,2023-10-27 11:58:05.13,101,-280,-2038,-33,51,41,-294,-633,339,463
,715,2023-10-27 11:58:05.14,94,-270,-2043,-30,48,43,-381,-761,380,571
,716,2023-10-27 11:58:05.15,103,-266,-2050,-27,41,36,-298,-636,338,467
,717,2023-10-27 11:58:05.16,104,-265,-2039,-19,31,31,-384,-764,380,574
,718,2023-10-27 11:58:05.17,102,-258,-2036,-10,20,24,-307,-642,335,474
,719,2023-10-27 11:58:05.18,104,-247,-2037,-5,16,15,-388,-766,378,577
,720,2023-10-27 11:58:05.19,108,-247,-2045,-3,10,4,-309,-645,336,477
,721,2023-10-27 11:58:05.20,96,-258,-2050,1,6,-6,-385,-764,379,574
,722,2023-10-27 11:58:05.21,105,-264,-2052,9,-5,-12,-309,-646,337,477
,723,2023-10-27 11:58:05.22,104,-272,-2040,16,-11,-15,-388,-765,377,576
,724,2023-10-27 11:58:05.23,98,-280,-2045,18,-13,-17,-319,-650,331,484
,725,2023-10-27 11:58:05.24,88,-292,-2040,20,-15,-14,-393,-764,371,578
,726,2023-10-27 11:58:05.25,90,-300,-2045,22,-20,-12,-322,-653,331,487
,727,2023-10-27 11:58:05.26,79,-304,-2039,23,-27,-3,-387,-761,374,574
,728,2023-10-27 11:58:05.27,92,-306,-2046,29,-33,6,-321,-654,333,487
,729,2023-10-27 11:58:05.28,81,-302,-2035,29,-35,14,-384,-759,375,571
,730,2023-10-27 11:58:05.29,90,-302,-2030,27,-31,19,-317,-653,336,485
,731,2023-10-27 11:58:05.30,83,-293,-2030,24,-21,22,-375,-753,378,564
,732,2023-10-27 11:58:05.31,92,-295,-2032,22,-21,24,-314,-653,339,483
,733,2023-10-27 11:58:05.32,82,-297,-2036,23,-19,26,-368,-749,381,558
,734,2023-10-27 11:58:05.33,72,-298,-2043,27,-28,29,-314,-653,339,483
,735,2023-10-27 11:58:05.34,74,-293,-2037,29,-31,32,-369,-748,379,558
,736,2023-10-27 11:58:05.35,73,-297,-2033,30,-34,35,-317,-656,339,486
,737,2023-10-27 11:58:05.36,74,-294,-2030,34,-36,34,-366,-747,381,556
,738,2023-10-27 11:58:05.37,74,-292,-2035,35,-33,36,-310,-654,344,482
,739,2023-10-27 11:58:05.38,60,-294,-2037,33,-36,37,-365,-749,384,557
,740,2023-10-27 11:58:05.39,60,-294,-2043,30,-35,37,-321,-663,342,492
,741,2023-10-27 11:58:05.40,58,-296,-2044,24,-25,39,-369,-752,383,560
,742,2023-10-27 11:58:05.41,66,-294,-2035,21,-23,40,-320,-664,344,492
,743,2023-10-27 11:58:05.42,64,-287,-2034,19,-18,40,-357,-743,386,550
,744,2023-10-27 11:58:05.43,61,-286,-2035,15,-9,39,-324,-669,345,496
,745,2023-10-27 11:58:05.44,64,-285,-2031,9,-3,36,-352,-738,386,545
,746,2023-10-27 11:58:05.45,63,-281,-2034,4,4,32,-322,-668,346,495
,747,2023-10-27 11:58:05.46,70,-283,-2032,-2,10,26,-357,-739,382,548
,748,2023-10-27 11:58:05.47,73,-281,-2032,-9,18,20,-328,-674,346,501
,749,2023-10-27 11:58:05.48,61,-273,-2026,-12,25,14,-355,-739,384,547
,750,2023-10-27 11:58:05.49,57,-275,-2029,-17,28,7,-326,-677,351,501
,751,2023-10-27 11:58:05.50,76,-278,-2029,-19,31,0,-346,-733,387,539
,752,2023-10-27 11:58:05.51,70,-283,-2030,-19,32,-4,-326,-677,351,501
,753,2023-10-27 11:58:05.52,66,-284,-2031,-15,36,-7,-342,-729,387,535
,754,2023-10-27 11:58:05.53,80,-279,-2026,-12,41,-11,-326,-678,352,502
,755,2023-10-27 11:58:05.54,87,-281,-2038,-10,48,-13,-344,-726,382,535
,756,2023-10-27 11:58:05.55,84,-281,-2044,-7,48,-15,-332,-681,349,506
,757,2023-10-27 11:58:05.56,86,-283,-2044,-6,51,-16,-342,-721,379,531
,758,2023-10-27 11:58:05.57,90,-278,-2050,-3,46,-19,-331,-680,349,505
,759,2023-10-27 11:58:05.58,86,-280,-2061,2,33,-19,-334,-717,383,525
,760,2023-10-27 11:58:05.59,91,-281,-2055,7,23,-15,-332,-683,351,507
,761,2023-10-27 11:58:05.60,93,-284,-2055,8,16,-11,-337,-714,377,525
,762,2023-10-27 11:58:05.61,92,-289,-2042,10,9,-8,-338,-685,347,511
,763,2023-10-27 11:58:05.62,77,-289,-2033,16,3,2,-336,-710,374,523
,764,2023-10-27 11:58:05.63,97,-289,-2036,19,-3,10,-344,-689,345,516
,765,2023-10-27 11:58:05.64,90,-289,-2026,18,-4,12,-337,-711,374,524
,766,2023-10-27 11:58:05.65,80,-288,-2030,19,-4,16,-349,-694,345,521
,767,2023-10-27 11:58:05.66,90,-284,-2035,19,3,23,-340,-710,370,525
,768,2023-10-27 11:58:05.67,84,-290,-2039,17,4,28,-360,-700,340,530
,769,2023-10-27 11:58:05.68,79,-292,-2042,17,4,31,-350,-708,358,529
,770,2023-10-27 11:58:05.69,87,-292,-2044,20,-4,34,-371,-705,334,538
,771,2023-10-27 11:58:05.70,84,-290,-2041,23,-9,35,-348,-707,359,527
,772,2023-10-27 11:58:05.71,77,-287,-2045,25,-14,38,-369,-706,337,537
,773,2023-10-27 11:58:05.72,80,-287,-2034,30,-20,38,-343,-701,358,522
,774,2023-10-27 11:58:05.73,86,-283,-2036,34,-18,40,-368,-708,340,538
,775,2023-10-27 11:58:05.74,80,-292,-2033,37,-16,35,-338,-698,360,518
,776,2023-10-27 11:58:05.75,83,-294,-2029,41,-16,32,-374,-710,336,542
,777,2023-10-27 11:58:05.76,83,-301,-2032,40,-12,30,-350,-699,349,524
,778,2023-10-27 11:58:05.77,81,-299,-2044,43,-14,27,-382,-716,334,549
,779,2023-10-27 11:58:05.78,71,-299,-2035,36,-16,26,-331,-688,357,509
,780,2023-10-27 11:58:05.79,76,-307,-2032,34,-11,29,-374,-712,338,543
,781,2023-10-27 11:58:05.80,82,-310,-2035,28,-2,31,-334,-688,354,511
,782,2023-10-27 11:58:05.81,77,-306,-2043,17,5,29,-382,-722,340,552
,783,2023-10-27 11:58:05.82,85,-296,-2034,9,12,29,-332,-683,351,507
,784,2023-10-27 11:58:05.83,82,-298,-2035,0,19,26,-374,-715,341,544
,785,2023-10-27 11:58:05.84,89,-292,-2038,-6,24,26,-331,-684,353,507
,786,2023-10-27 11:58:05.85,85,-294,-2042,-8,15,18,-380,-721,341,550
,787,2023-10-27 11:58:05.86,94,-293,-2046,-5,10,15,-332,-684,352,508
,788,2023-10-27 11:58:05.87,67,-294,-2052,-6,-5,10,-385,-729,344,557
,789,2023-10-27 11:58:05.88,80,-302,-2044,2,-14,15,-331,-681,350,506
,790,2023-10-27 11:58:05.89,87,-295,-2042,6,-25,17,-384,-726,342,555
,791,2023-10-27 11:58:05.90,84,-302,-2035,12,-26,19,-318,-670,352,494
,792,2023-10-27 11:58:05.91,79,-299,-2024,14,-28,20,-372,-719,347,545
,793,2023-10-27 11:58:05.92,76,-297,-2027,11,-24,20,-309,-663,354,486
,794,2023-10-27 11:58:05.93,81,-299,-2032,7,-6,27,-378,-724,346,551
,795,2023-10-27 11:58:05.94,77,-300,-2021,6,4,30,-316,-663,347,489
,796,2023-10-27 11:58:05.95,69,-300,-2026,6,12,35,-387,-731,344,559
,797,2023-10-27 11:58:05.96,78,-300,-2041,9,8,38,-319,-666,347,492
,798,2023-10-27 11:58:05.97,76,-302,-2050,16,9,40,-386,-735,349,560
,799,2023-10-27 11:58:05.98,79,-295,-2044,20,3,41,-311,-659,348,485
,800,2023-10-27 11:58:05.99,81,-289,-2046,19,3,42,-384,-731,347,557
,801,2023-10-27 11:58:06.00,65,-288,-2042,17,9,38,-312,-658,346,485
,802,2023-10-27 11:58:06.01,75,-285,-2041,15,13,37,-398,-740,342,569
,803,2023-10-27 11:58:06.02,75,-285,-2045,15,15,31,-326,-662,336,494
,804,2023-10-27 11:58:06.03,68,-280,-2044,9,16,26,-405,-744,339,574
,805,2023-10-27 11:58:06.04,72,-290,-2043,3,24,22,-320,-658,338,489
,806,2023-10-27 11:58:06.05,68,-294,-2042,-2,24,24,-395,-743,348,569
,807,2023-10-27 11:58:06.06,73,-289,-2028,-7,27,18,-312,-653,341,482
,808,2023-10-27 11:58:06.07,72,-292,-2024,-12,27,18,-399,-744,345,571
,809,2023-10-27 11:58:06.08,80,-287,-2024,-12,25,11,-314,-650,336,482
,810,2023-10-27 11:58:06.09,89,-297,-2037,-13,25,10,-396,-746,350,571
,811,2023-10-27 11:58:06.10,92,-297,-2032,-12,24,10,-298,-643,345,470
,812,2023-10-27 11:58:06.11,84,-302,-2035,-7,13,9,-384,-740,356,562
,813,2023-10-27 11:58:06.12,89,-300,-2045,4,4,16,-298,-638,340,468
,814,2023-10-27 11:58:06.13,95,-296,-2040,10,0,16,-388,-742,354,565
,815,2023-10-27 11:58:06.14,99,-289,-2046,12,10,21,-298,-637,339,467
,816,2023-10-27 11:58:06.15,80,-295,-2045,12,11,21,-398,-745,347,571
,817,2023-10-27 11:58:06.16,94,-296,-2043,16,8,24,-311,-641,330,476
,818,2023-10-27 11:58:06.17,95,-292,-2047,24,-6,25,-407,-751,344,579
,819,2023-10-27 11:58:06.18,97,-288,-2047,26,-8,32,-306,-637,331,471
,820,2023-10-27 11:58:06.19,83,-299,-2042,22,3,34,-390,-742,352,566
,821,2023-10-27 11:58:06.20,77,-291,-2052,17,4,39,-288,-628,340,458
,822,2023-10-27 11:58:06.21,81,-297,-2048,16,-4,46,-382,-742,360,562
,823,2023-10-27 11:58:06.22,72,-292,-2051,16,-19,48,-283,-628,345,455
,824,2023-10-27 11:58:06.23,73,-289,-2051,8,-26,50,-374,-739,365,556
,825,2023-10-27 11:58:06.24,84,-285,-2043,-3,-31,54,-273,-616,343,444
,826,2023-10-27 11:58:06.25,70,-293,-2048,-11,-34,58,-365,-734,369,549
,827,2023-10-27 11:58:06.26,75,-292,-2043,-14,-38,56,-253,-605,352,429
,828,2023-10-27 11:58:06.27,70,-289,-2033,-13,-45,58,-312,-726,414,519
,829,2023-10-27 11:58:06.28,79,-287,-2022,-11,-38,51,-180,-592,412,386
,830,2023-10-27 11:58:06.29,80,-294,-2022,-8,-25,51,-272,-717,445,494
,831,2023-10-27 11:58:06.30,71,-285,-2020,-3,-22,45,-192,-589,397,390
,832,2023-10-27 11:58:06.31,65,-299,-2016,8,-9,41,-312,-725,413,518
,833,2023-10-27 11:58:06.32,60,-308,-2025,16,-8,41,-223,-598,375,410
,834,2023-10-27 11:58:06.33,60,-303,-2027,28,-11,41,-336,-737,401,536
,835,2023-10-27 11:58:06.34,62,-293,-2036,29,-3,41,-233,-599,366,416
,836,2023-10-27 11:58:06.35,61,-296,-2049,26,6,43,-290,-720,430,505
,837,2023-10-27 11:58:06.36,67,-297,-2044,24,4,41,-161,-586,425,373
,838,2023-10-27 11:58:06.37,71,-299,-2049,25,-14,44,-212,-725,513,468
,839,2023-10-27 11:58:06.38,73,-284,-2048,23,-19,44,-108,-592,484,350
,840,2023-10-27 11:58:06.39,70,-281,-2042,17,-24,43,-198,-731,533,464
,841,2023-10-27 11:58:06.40,74,-293,-2038,6,-19,46,-120,-591,471,355
,842,2023-10-27 11:58:06.41,63,-290,-2043,-1,-17,43,-218,-729,511,473
,843,2023-10-27 11:58:06.42,66,-296,-2030,2,-23,44,-134,-585,451,359
,844,2023-10-27 11:58:06.43,59,-283,-2035,10,-25,45,-233,-724,491,478
,845,2023-10-27 11:58:06.44,67,-288,-2035,18,-30,43,-149,-586,437,367
,846,2023-10-27 11:58:06.45,50,-280,-2031,26,-40,43,-252,-731,479,491
,847,2023-10-27 11:58:06.46,47,-287,-2029,32,-42,39,-166,-588,422,377
,848,2023-10-27 11:58:06.47,40,-295,-2026,38,-36,38,-265,-728,463,496
,849,2023-10-27 11:58:06.48,53,-290,-2036,43,-32,38,-178,-585,407,381
,850,2023-10-27 11:58:06.49,42,-291,-2035,41,-35,34,-280,-729,449,504
,851,2023-10-27 11:58:06.50,56,-294,-2040,41,-36,32,-192,-587,395,389
,852,2023-10-27 11:58:06.51,40,-296,-2032,37,-34,32,-292,-733,441,512
,853,2023-10-27 11:58:06.52,56,-298,-2036,34,-26,33,-199,-590,391,394
,854,2023-10-27 11:58:06.53,43,-307,-2033,32,-22,31,-299,-732,433,515
,855,2023-10-27 11:58:06.54,51,-304,-2037,31,-20,28,-209,-592,383,400
,856,2023-10-27 11:58:06.55,52,-300,-2032,32,-12,28,-310,-736,426,523
,857,2023-10-27 11:58:06.56,57,-294,-2021,27,-7,26,-212,-592,380,402
,858,2023-10-27 11:58:06.57,55,-298,-2033,24,1,21,-314,-737,423,525
,859,2023-10-27 11:58:06.58,57,-291,-2031,23,7,18,-220,-596,376,408
,860,2023-10-27 11:58:06.59,53,-293,-2033,19,9,13,-320,-739,419,529
,861,2023-10-27 11:58:06.60,60,-296,-2029,13,14,14,-218,-590,372,404
,862,2023-10-27 11:58:06.61,61,-289,-2034,10,16,8,-324,-739,415,531
,863,2023-10-27 11:58:06.62,58,-302,-2040,10,12,5,-228,-598,370,413
,864,2023-10-27 11:58:06.63,56,-304,-2044,9,7,5,-327,-744,417,535
,865,2023-10-27 11:58:06.64,59,-298,-2046,10,1,4,-226,-597,371,411
,866,2023-10-27 11:58:06.65,59,-302,-2055,8,-4,1,-316,-734,418,525
,867,2023-10-27 11:58:06.66,55,-300,-2055,5,-16,3,-216,-589,373,402
,868,2023-10-27 11:58:06.67,54,-303,-2053,6,-24,4,-270,-722,452,496
,869,2023-10-27 11:58:06.68,55,-303,-2041,6,-32,7,-158,-581,423,369
,870,2023-10-27 11:58:06.69,57,-307,-2033,8,-35,9,-189,-704,515,446
,871,2023-10-27 11:58:06.70,57,-310,-2030,11,-39,13,-88,-566,478,327
,872,2023-10-27 11:58:06.71,50,-309,-2026,18,-38,18,-113,-688,575,400
,873,2023-10-27 11:58:06.72,60,-316,-2028,22,-38,24,-24,-552,528,288
,874,2023-10-27 11:58:06.73,57,-310,-2031,26,-34,28,-44,-668,624,356
,875,2023-10-27 11:58:06.74,40,-313,-2031,28,-29,30,16,-544,560,264
,876,2023-10-27 11:58:06.75,41,-310,-2027,29,-23,36,-90,-682,592,386
,877,2023-10-27 11:58:06.76,47,-311,-2027,28,-19,36,-66,-567,501,316
,878,2023-10-27 11:58:06.77,42,-305,-2037,30,-21,38,-167,-708,541,437
,879,2023-10-27 11:58:06.78,44,-302,-2032,29,-19,35,-127,-587,460,357
,880,2023-10-27 11:58:06.79,40,-300,-2038,24,-18,33,-216,-716,500,466
,881,2023-10-27 11:58:06.80,50,-301,-2037,19,-14,27,-167,-601,434,384
,882,2023-10-27 11:58:06.81,41,-294,-2028,13,-11,21,-261,-729,468,495
,883,2023-10-27 11:58:06.82,67,-296,-2033,11,-12,14,-205,-612,407,408
,884,2023-10-27 11:58:06.83,45,-303,-2031,8,-5,10,-282,-734,452,508
,885,2023-10-27 11:58:06.84,43,-306,-2037,8,-5,2,-209,-611,402,410
,886,2023-10-27 11:58:06.85,40,-309,-2046,8,-5,0,-235,-721,486,478
,887,2023-10-27 11:58:06.86,45,-324,-2039,9,-10,0,-148,-614,466,381
,888,2023-10-27 11:58:06.87,37,-315,-2046,7,-12,1,-201,-730,529,465
,889,2023-10-27 11:58:06.88,44,-324,-2040,5,-8,3,-144,-616,472,380
,890,2023-10-27 11:58:06.89,27,-317,-2044,1,-4,4,-206,-720,514,463
,891,2023-10-27 11:58:06.90,44,-314,-2037,0,-11,11,-170,-616,446,393
,892,2023-10-27 11:58:06.91,39,-324,-2027,0,-20,17,-241,-719,478,480
,893,2023-10-27 11:58:06.92,39,-313,-2041,0,-27,22,-199,-616,417,407
,894,2023-10-27 11:58:06.93,45,-307,-2040,-6,-21,28,-273,-724,451,498
,895,2023-10-27 11:58:06.94,30,-302,-2044,-18,-9,28,-245,-635,390,440
,896,2023-10-27 11:58:06.95,45,-299,-2041,-29,-6,28,-309,-735,426,522
,897,2023-10-27 11:58:06.96,37,-302,-2039,-23,-20,28,-254,-635,381,444
,898,2023-10-27 11:58:06.97,38,-297,-2030,-18,-33,30,-299,-725,426,512
,899,2023-10-27 11:58:06.98,27,-291,-2034,-13,-38,26,-261,-635,374,448
,900,2023-10-27 11:58:06.99,34,-279,-2031,-11,-30,22,-320,-726,406,523
,901,2023-10-27 11:58:07.00,30,-290,-2030,-12,-16,21,-290,-646,356,468
,902,2023-10-27 11:58:07.01,19,-296,-2026,-16,4,15,-345,-731,386,538
,903,2023-10-27 11:58:07.02,28,-310,-2030,-11,12,16,-314,-655,341,484
,904,2023-10-27 11:58:07.03,20,-321,-2020,5,3,18,-355,-732,377,543
,905,2023-10-27 11:58:07.04,26,-316,-2026,21,1,21,-331,-669,338,500
,906,2023-10-27 11:58:07.05,20,-298,-2025,22,9,18,-372,-738,366,555
,907,2023-10-27 11:58:07.06,32,-296,-2039,17,20,18,-334,-664,330,499
,908,2023-10-27 11:58:07.07,24,-299,-2040,6,31,17,-359,-729,370,544
,909,2023-10-27 11:58:07.08,33,-298,-2050,6,20,17,-334,-667,333,500
,910,2023-10-27 11:58:07.09,40,-295,-2044,9,4,16,-368,-732,364,550
,911,2023-10-27 11:58:07.10,38,-296,-2025,8,9,18,-342,-670,328,506
,912,2023-10-27 11:58:07.11,38,-309,-2024,5,18,15,-371,-728,357,549
,913,2023-10-27 11:58:07.12,38,-314,-2024,6,23,17,-360,-680,320,520
,914,2023-10-27 11:58:07.13,48,-317,-2043,14,20,23,-392,-735,343,563
,915,2023-10-27 11:58:07.14,32,-325,-2041,17,23,28,-374,-686,312,530
,916,2023-10-27 11:58:07.15,41,-310,-2030,18,29,33,-392,-734,342,563
,917,2023-10-27 11:58:07.16,47,-304,-2031,19,31,38,-378,-692,314,535
,918,2023-10-27 11:58:07.17,44,-305,-2030,16,30,39,-384,-729,345,556
,919,2023-10-27 11:58:07.18,49,-289,-2042,8,45,39,-367,-687,320,527
,920,2023-10-27 11:58:07.19,51,-284,-2043,-7,49,37,-368,-720,352,544
,921,2023-10-27 11:58:07.20,57,-285,-2046,-21,52,31,-364,-691,327,527
,922,2023-10-27 11:58:07.21,65,-275,-2058,-30,55,27,-367,-721,354,544
,923,2023-10-27 11:58:07.22,67,-273,-2046,-35,55,18,-364,-693,329,528
,924,2023-10-27 11:58:07.23,68,-281,-2045,-37,48,12,-363,-717,354,540
,925,2023-10-27 11:58:07.24,65,-287,-2041,-38,38,4,-363,-694,331,528
,926,2023-10-27 11:58:07.25,78,-291,-2044,-30,27,2,-357,-711,354,534
,927,2023-10-27 11:58:07.26,64,-298,-2035,-18,19,0,-358,-694,336,526
,928,2023-10-27 11:58:07.27,87,-296,-2033,-6,7,-6,-345,-706,361,525
,929,2023-10-27 11:58:07.28,54,-296,-2036,-1,1,-8,-360,-695,335,527
,930,2023-10-27 11:58:07.29,67,-293,-2036,4,-5,-5,-351,-701,350,526
,931,2023-10-27 11:58:07.30,70,-294,-2043,5,-10,-6,-363,-697,334,530
,932,2023-10-27 11:58:07.31,59,-299,-2054,8,-21,-5,-338,-698,360,518
,933,2023-10-27 11:58:07.32,46,-310,-2052,13,-38,-1,-364,-700,336,532
,934,2023-10-27 11:58:07.33,68,-304,-2060,23,-59,2,-346,-696,350,521
,935,2023-10-27 11:58:07.34,48,-310,-2050,29,-78,5,-378,-705,327,541
,936,2023-10-27 11:58:07.35,37,-316,-2034,34,-84,13,-358,-699,341,528
,937,2023-10-27 11:58:07.36,49,-313,-2030,40,-78,19,-395,-714,319,554
,938,2023-10-27 11:58:07.37,35,-312,-2026,38,-63,22,-368,-698,330,533
,939,2023-10-27 11:58:07.38,37,-318,-2031,36,-51,25,-400,-718,318,559
,940,2023-10-27 11:58:07.39,26,-314,-2026,29,-28,27,-365,-699,334,532
,941,2023-10-27 11:58:07.40,30,-315,-2027,22,-7,30,-407,-724,317,565
,942,2023-10-27 11:58:07.41,30,-305,-2029,20,-4,29,-368,-694,326,531
,943,2023-10-27 11:58:07.42,25,-315,-2028,18,-8,34,-397,-717,320,557
,944,2023-10-27 11:58:07.43,27,-321,-2036,20,-3,38,-349,-689,340,519
,945,2023-10-27 11:58:07.44,23,-316,-2048,8,8,38,-394,-724,330,559
,946,2023-10-27 11:58:07.45,22,-312,-2039,-8,24,42,-349,-690,341,519
,947,2023-10-27 11:58:07.46,16,-311,-2044,-24,34,44,-392,-725,333,558
,948,2023-10-27 11:58:07.47,14,-303,-2035,-31,30,47,-334,-679,345,506
,949,2023-10-27 11:58:07.48,12,-290,-2033,-34,20,47,-394,-730,336,562
,950,2023-10-27 11:58:07.49,32,-274,-2030,-42,23,44,-336,-677,341,506
,951,2023-10-27 11:58:07.50,29,-272,-2019,-51,37,36,-400,-731,331,565
,952,2023-10-27 11:58:07.51,41,-273,-2020,-51,54,26,-344,-680,336,512
,953,2023-10-27 11:58:07.52,43,-282,-2022,-49,69,16,-407,-736,329,571
,954,2023-10-27 11:58:07.53,38,-295,-2032,-35,74,9,-342,-675,333,508
,955,2023-10-27 11:58:07.54,34,-304,-2029,-20,70,8,-397,-735,338,566
,956,2023-10-27 11:58:07.55,44,-302,-2033,-5,74,3,-322,-667,345,494
,957,2023-10-27 11:58:07.56,58,-298,-2033,2,76,7,-393,-735,342,564
,958,2023-10-27 11:58:07.57,46,-287,-2038,2,80,6,-328,-663,335,495
,959,2023-10-27 11:58:07.58,49,-274,-2031,-6,85,4,-404,-736,332,570
,960,2023-10-27 11:58:07.59,65,-272,-2033,-19,84,3,-337,-666,329,501
,961,2023-10-27 11:58:07.60,67,-272,-2039,-30,79,3,-422,-749,327,585
,962,2023-10-27 11:58:07.61,76,-275,-2044,-43,76,-2,-344,-670,326,507
,963,2023-10-27 11:58:07.62,83,-271,-2061,-53,66,-4,-412,-749,337,580
,964,2023-10-27 11:58:07.63,87,-283,-2057,-56,54,-2,-319,-659,340,489
,965,2023-10-27 11:58:07.64,78,-278,-2057,-55,42,2,-400,-744,344,572
,966,2023-10-27 11:58:07.65,92,-278,-2060,-48,21,6,-322,-654,332,488
,967,2023-10-27 11:58:07.66,81,-280,-2048,-39,6,11,-407,-744,337,575
,968,2023-10-27 11:58:07.67,83,-282,-2051,-26,-8,20,-326,-656,330,491
,969,2023-10-27 11:58:07.68,80,-275,-2048,-14,-20,27,-420,-758,338,589
,970,2023-10-27 11:58:07.69,84,-269,-2044,-12,-11,34,-332,-658,326,495
,971,2023-10-27 11:58:07.70,77,-260,-2041,-10,1,36,-418,-753,335,585
,972,2023-10-27 11:58:07.71,75,-270,-2042,0,-3,40,-329,-652,323,490
,973,2023-10-27 11:58:07.72,69,-273,-2045,14,-17,43,-427,-757,330,592
,974,2023-10-27 11:58:07.73,65,-274,-2045,29,-29,47,-337,-656,319,496
,975,2023-10-27 11:58:07.74,63,-275,-2049,42,-28,47,-426,-758,332,592
,976,2023-10-27 11:58:07.75,65,-273,-2043,47,-25,46,-322,-644,322,483
,977,2023-10-27 11:58:07.76,51,-282,-2044,51,-27,48,-414,-753,339,583
,978,2023-10-27 11:58:07.77,34,-280,-2039,55,-30,48,-314,-638,324,476
,979,2023-10-27 11:58:07.78,43,-274,-2025,59,-27,44,-417,-750,333,583
,980,2023-10-27 11:58:07.79,46,-276,-2026,55,-24,44,-320,-636,316,478
,981,2023-10-27 11:58:07.80,48,-279,-2026,49,-14,42,-426,-756,330,591
,982,2023-10-27 11:58:07.81,32,-292,-2021,42,-7,44,-326,-638,312,482
,983,2023-10-27 11:58:07.82,29,-298,-2023,39,4,47,-425,-756,331,590
,984,2023-10-27 11:58:07.83,45,-305,-2023,37,12,48,-312,-626,314,469
,985,2023-10-27 11:58:07.84,37,-313,-2023,36,18,50,-424,-758,334,591
,986,2023-10-27 11:58:07.85,38,-319,-2026,41,15,57,-320,-635,315,477
,987,2023-10-27 11:58:07.86,42,-311,-2029,46,14,61,-429,-765,336,597
,988,2023-10-27 11:58:07.87,35,-318,-2037,51,10,63,-323,-634,311,478
,989,2023-10-27 11:58:07.88,49,-311,-2042,52,10,69,-430,-763,333,596
,990,2023-10-27 11:58:07.89,48,-308,-2045,55,2,71,-327,-639,312,483
,991,2023-10-27 11:58:07.90,42,-301,-2044,53,-5,71,-433,-766,333,599
,992,2023-10-27 11:58:07.91,38,-305,-2044,54,-9,72,-318,-630,312,474
,993,2023-10-27 11:58:07.92,32,-297,-2047,49,-13,71,-423,-760,337,591
,994,2023-10-27 11:58:07.93,32,-293,-2039,43,-13,70,-316,-629,313,472
,995,2023-10-27 11:58:07.94,40,-301,-2042,35,-10,65,-425,-763,338,594
,996,2023-10-27 11:58:07.95,47,-294,-2037,29,-4,63,-312,-625,313,468
,997,2023-10-27 11:58:07.96,51,-288,-2026,27,0,56,-420,-761,341,590
,998,2023-10-27 11:58:07.97,43,-292,-2030,19,6,51,-305,-623,318,464
,999,2023-10-27 11:58:07.98,30,-286,-2023,14,12,47,-419,-760,341,589
,1000,2023-10-27 11:58:07.99,43,-291,-2030,6,17,40,-309,-621,312,465
,1001,2023-10-27 11:58:08.00,44,-289,-2033,3,26,36,-423,-761,338,592
,1002,2023-10-27 11:58:08.01,56,-286,-2035,-10,33,32,-317,-625,308,471
,1003,2023-10-27 11:58:08.02,40,-288,-2033,-13,37,27,-430,-766,336,598
,1004,2023-10-27 11:58:08.03,45,-281,-2031,-16,43,24,-318,-626,308,472
,1005,2023-10-27 11:58:08.04,57,-278,-2033,-22,50,17,-430,-770,340,600
,1006,2023-10-27 11:58:08.05,52,-275,-2034,-23,55,10,-323,-632,309,477
,1007,2023-10-27 11:58:08.06,66,-278,-2035,-22,51,2,-437,-773,336,605
,1008,2023-10-27 11:58:08.07,68,-284,-2047,-13,44,-4,-320,-627,307,473
,1009,2023-10-27 11:58:08.08,65,-287,-2048,-1,29,-10,-428,-769,341,598
,1010,2023-10-27 11:58:08.09,58,-290,-2044,8,13,-16,-313,-628,315,470
,1011,2023-10-27 11:58:08.10,80,-294,-2048,19,7,-18,-422,-768,346,595
,1012,2023-10-27 11:58:08.11,66,-287,-2042,17,8,-19,-311,-624,313,467
,1013,2023-10-27 11:58:08.12,83,-292,-2036,16,9,-23,-413,-764,351,588
,1014,2023-10-27 11:58:08.13,76,-295,-2032,19,0,-20,-302,-618,316,460
,1015,2023-10-27 11:58:08.14,76,-295,-2042,16,-1,-20,-410,-760,350,585
,1016,2023-10-27 11:58:08.15,74,-303,-2051,12,-3,-17,-302,-617,315,459
,1017,2023-10-27 11:58:08.16,66,-308,-2048,13,-14,-14,-409,-763,354,586
,1018,2023-10-27 11:58:08.17,58,-312,-2046,16,-27,-7,-303,-621,318,462
,1019,2023-10-27 11:58:08.18,59,-317,-2047,23,-43,3,-407,-762,355,584
,1020,2023-10-27 11:58:08.19,58,-311,-2043,29,-59,14,-300,-618,318,459
,1021,2023-10-27 11:58:08.20,54,-316,-2043,33,-72,26,-400,-757,357,578
,1022,2023-10-27 11:58:08.21,51,-315,-2030,37,-75,38,-298,-619,321,458
,1023,2023-10-27 11:58:08.22,42,-305,-2033,33,-70,46,-405,-761,356,583
,1024,2023-10-27 11:58:08.23,49,-313,-2031,38,-68,54,-302,-618,316,460
,1025,2023-10-27 11:58:08.24,28,-319,-2020,39,-60,61,-396,-751,355,573
,1026,2023-10-27 11:58:08.25,38,-317,-2019,39,-46,63,-298,-616,318,457
,1027,2023-10-27 11:58:08.26,38,-315,-2027,42,-37,69,-402,-758,356,580
,1028,2023-10-27 11:58:08.27,34,-307,-2031,40,-22,73,-302,-623,321,462
,1029,2023-10-27 11:58:08.28,33,-304,-2037,42,-17,72,-398,-755,357,576
,1030,2023-10-27 11:58:08.29,31,-297,-2040,40,-12,68,-300,-622,322,461
,1031,2023-10-27 11:58:08.30,27,-288,-2042,35,0,64,-398,-756,358,577
,1032,2023-10-27 11:58:08.31,34,-290,-2042,24,7,54,-299,-618,319,458
,1033,2023-10-27 11:58:08.32,27,-281,-2042,18,10,47,-392,-750,358,571
,1034,2023-10-27 11:58:08.33,27,-285,-2034,13,8,39,-300,-620,320,460
,1035,2023-10-27 11:58:08.34,32,-289,-2032,12,6,30,-400,-754,354,577
,1036,2023-10-27 11:58:08.35,38,-295,-2034,10,10,20,-312,-624,312,468
,1037,2023-10-27 11:58:08.36,37,-292,-2031,9,16,17,-406,-758,352,582
,1038,2023-10-27 11:58:08.37,45,-288,-2028,5,22,9,-319,-632,313,475
,1039,2023-10-27 11:58:08.38,51,-296,-2041,1,28,5,-405,-761,356,583
,1040,2023-10-27 11:58:08.39,48,-299,-2040,1,31,2,-314,-631,317,472
,1041,2023-10-27 11:58:08.40,45,-297,-2035,2,28,2,-397,-751,354,574
,1042,2023-10-27 11:58:08.41,52,-302,-2041,2,25,2,-311,-631,320,471
,1043,2023-10-27 11:58:08.42,49,-306,-2041,6,21,6,-393,-753,360,573
,1044,2023-10-27 11:58:08.43,47,-308,-2035,6,23,6,-315,-634,319,474
,1045,2023-10-27 11:58:08.44,41,-319,-2049,6,18,10,-389,-749,360,569
,1046,2023-10-27 11:58:08.45,54,-309,-2047,9,10,11,-310,-632,322,471
,1047,2023-10-27 11:58:08.46,45,-311,-2039,12,8,16,-386,-751,365,568
,1048,2023-10-27 11:58:08.47,66,-304,-2034,17,6,18,-317,-639,322,478
,1049,2023-10-27 11:58:08.48,54,-299,-2037,20,5,19,-390,-749,359,569
,1050,2023-10-27 11:58:08.49,47,-300,-2038,24,3,19,-322,-640,318,481
,1051,2023-10-27 11:58:08.50,53,-299,-2043,27,-1,17,-389,-748,359,568
,1052,2023-10-27 11:58:08.51,54,-312,-2031,32,-4,20,-324,-644,320,484
,1053,2023-10-27 11:58:08.52,50,-308,-2032,32,-4,21,-382,-744,362,563
,1054,2023-10-27 11:58:08.53,49,-317,-2033,32,-3,22,-315,-640,325,477
,1055,2023-10-27 11:58:08.54,51,-310,-2033,28,-3,24,-373,-738,365,555
,1056,2023-10-27 11:58:08.55,48,-317,-2033,23,-1,26,-317,-640,323,478
,1057,2023-10-27 11:58:08.56,42,-314,-2032,19,-2,24,-373,-733,360,553
,1058,2023-10-27 11:58:08.57,45,-312,-2036,13,0,22,-316,-640,324,478
,1059,2023-10-27 11:58:08.58,51,-309,-2029,10,-1,24,-368,-732,364,550
,1060,2023-10-27 11:58:08.59,51,-316,-2030,7,-1,22,-314,-642,328,478
,1061,2023-10-27 11:58:08.60,45,-317,-2035,9,1,21,-358,-724,366,541
,1062,2023-10-27 11:58:08.61,44,-310,-2037,6,3,23,-309,-640,331,474
,1063,2023-10-27 11:58:08.62,47,-317,-2043,5,-3,26,-353,-722,369,537
,1064,2023-10-27 11:58:08.63,47,-328,-2041,9,-9,30,-317,-647,330,482
,1065,2023-10-27 11:58:08.64,34,-320,-2032,13,-15,37,-359,-723,364,541
,1066,2023-10-27 11:58:08.65,39,-315,-2030,13,-15,39,-315,-644,329,479
,1067,2023-10-27 11:58:08.66,51,-306,-2027,15,-10,42,-353,-720,367,536
,1068,2023-10-27 11:58:08.67,41,-298,-2030,15,-5,40,-320,-652,332,486
,1069,2023-10-27 11:58:08.68,50,-300,-2036,16,3,38,-355,-720,365,537
,1070,2023-10-27 11:58:08.69,35,-304,-2044,19,-2,37,-329,-657,328,493
,1071,2023-10-27 11:58:08.70,27,-314,-2048,26,-11,33,-355,-718,363,536
,1072,2023-10-27 11:58:08.71,37,-310,-2053,30,-19,35,-332,-660,328,496
,1073,2023-10-27 11:58:08.72,45,-314,-2039,37,-29,33,-351,-711,360,531
,1074,2023-10-27 11:58:08.73,28,-313,-2036,38,-30,35,-328,-657,329,492
,1075,2023-10-27 11:58:08.74,38,-313,-2029,32,-31,37,-347,-709,362,528
,1076,2023-10-27 11:58:08.75,33,-310,-2028,27,-25,39,-336,-666,330,501
,1077,2023-10-27 11:58:08.76,30,-305,-2034,17,-17,40,-348,-707,359,527
,1078,2023-10-27 11:58:08.77,24,-306,-2026,7,-6,39,-330,-662,332,496
,1079,2023-10-27 11:58:08.78,30,-305,-2025,-3,2,39,-338,-698,360,518
,1080,2023-10-27 11:58:08.79,29,-302,-2030,-12,13,36,-334,-665,331,499
,1081,2023-10-27 11:58:08.80,29,-306,-2034,-14,17,33,-341,-698,357,519
,1082,2023-10-27 11:58:08.81,28,-301,-2038,-13,16,29,-338,-670,332,504
,1083,2023-10-27 11:58:08.82,37,-296,-2038,-8,17,25,-339,-698,359,518
,1084,2023-10-27 11:58:08.83,37,-295,-2039,-1,16,19,-338,-674,336,506
,1085,2023-10-27 11:58:08.84,55,-300,-2036,8,12,15,-332,-692,360,512
,1086,2023-10-27 11:58:08.85,53,-299,-2044,17,8,11,-336,-673,337,504
,1087,2023-10-27 11:58:08.86,53,-305,-2045,24,8,7,-326,-689,363,507
,1088,2023-10-27 11:58:08.87,46,-316,-2046,26,2,4,-338,-675,337,506
,1089,2023-10-27 11:58:08.88,58,-319,-2043,31,-2,7,-325,-681,356,503
,1090,2023-10-27 11:58:08.89,49,-317,-2035,34,-7,10,-340,-676,336,508
,1091,2023-10-27 11:58:08.90,46,-317,-2031,32,-7,13,-324,-683,359,503
,1092,2023-10-27 11:58:08.91,49,-325,-2032,31,-9,22,-346,-681,335,513
,1093,2023-10-27 11:58:08.92,36,-333,-2038,28,-8,26,-322,-676,354,499
,1094,2023-10-27 11:58:08.93,43,-320,-2031,26,-6,31,-343,-682,339,512
,1095,2023-10-27 11:58:08.94,42,-320,-2043,20,-3,32,-317,-673,356,495
,1096,2023-10-27 11:58:08.95,30,-313,-2044,17,-3,38,-348,-687,339,517
,1097,2023-10-27 11:58:08.96,43,-314,-2046,14,-2,37,-319,-671,352,495
,1098,2023-10-27 11:58:08.97,48,-312,-2037,12,-3,40,-343,-687,344,515
,1099,2023-10-27 11:58:08.98,41,-307,-2035,8,-3,40,-302,-664,362,483
,1100,2023-10-27 11:58:08.99,39,-308,-2035,7,-6,39,-335,-688,353,511
,1101,2023-10-27 11:58:09.00,17,-311,-2032,9,-4,39,-297,-659,362,478
,1102,2023-10-27 11:58:09.01,32,-316,-2031,8,-5,39,-329,-683,354,506
,1103,2023-10-27 11:58:09.02,39,-307,-2034,1,-1,41,-283,-648,365,465
,1104,2023-10-27 11:58:09.03,36,-304,-2032,-4,8,40,-326,-687,361,506
,1105,2023-10-27 11:58:09.04,33,-304,-2029,-6,14,35,-281,-648,367,464
,1106,2023-10-27 11:58:09.05,42,-311,-2028,-7,21,35,-290,-679,389,484
,1107,2023-10-27 11:58:09.06,46,-313,-2031,0,25,33,-200,-623,423,411
,1108,2023-10-27 11:58:09.07,36,-303,-2034,0,29,31,-204,-671,467,437
