// Data mode  : Full
// Data quality  : High
// Acceleration sensor's range  : 16g
// Gyroscope sensor's range  : 2000dps
//
//ARTIFACT,NUM,DATE,ACC_X,ACC_Y,ACC_Z,GYRO_X,GYRO_Y,GYRO_Z,EOG_L,EOG_R,EOG_H,EOG_V
,1,2023-10-27 11:16:07.66,152,-116,-2033,-5,12,28,-255,-357,102,306
,2,2023-10-27 11:16:07.67,180,-116,-2067,4,-10,38,-144,-247,103,195
,3,2023-10-27 11:16:07.68,178,-126,-2064,0,17,38,-255,-381,126,318
,4,2023-10-27 11:16:07.69,166,-120,-2048,-4,21,39,-164,-357,193,260
,5,2023-10-27 11:16:07.70,173,-122,-2050,-1,10,47,-282,-492,210,387
,6,2023-10-27 11:16:07.71,180,-109,-2051,2,13,45,-156,-382,226,269
,7,2023-10-27 11:16:07.72,169,-105,-2046,3,20,44,-266,-453,187,359
,8,2023-10-27 11:16:07.73,169,-100,-2044,5,16,45,-130,-285,155,207
,9,2023-10-27 11:16:07.74,199,-104,-2051,0,30,36,-254,-382,128,318
,10,2023-10-27 11:16:07.75,159,-107,-2047,-3,40,32,-129,-265,136,197
,11,2023-10-27 11:16:07.76,182,-90,-2057,8,20,32,-264,-389,125,326
,12,2023-10-27 11:16:07.77,191,-92,-2056,6,31,25,-126,-245,119,185
,13,2023-10-27 11:16:07.78,172,-108,-2056,3,43,18,-264,-380,116,322
,14,2023-10-27 11:16:07.79,167,-118,-2060,4,35,18,-123,-275,152,199
,15,2023-10-27 11:16:07.80,190,-114,-2062,8,27,17,-264,-414,150,339
,16,2023-10-27 11:16:07.81,199,-103,-2057,12,30,13,-114,-259,145,186
,17,2023-10-27 11:16:07.82,186,-103,-2045,13,24,11,-264,-396,132,330
,18,2023-10-27 11:16:07.83,186,-99,-2048,10,20,8,-120,-273,153,196
,19,2023-10-27 11:16:07.84,202,-98,-2069,7,31,2,-280,-441,161,360
,20,2023-10-27 11:16:07.85,176,-101,-2061,3,40,-2,-127,-336,209,231
,21,2023-10-27 11:16:07.86,160,-108,-2043,4,29,-3,-286,-478,192,382
,22,2023-10-27 11:16:07.87,181,-108,-2052,17,10,0,-120,-315,195,217
,23,2023-10-27 11:16:07.88,188,-112,-2066,19,7,-3,-293,-466,173,379
,24,2023-10-27 11:16:07.89,177,-108,-2052,16,20,-6,-139,-374,235,256
,25,2023-10-27 11:16:07.90,183,-99,-2055,15,16,-5,-310,-515,205,412
,26,2023-10-27 11:16:07.91,186,-101,-2056,11,23,-8,-126,-315,189,220
,27,2023-10-27 11:16:07.92,175,-108,-2058,13,22,-12,-290,-423,133,356
,28,2023-10-27 11:16:07.93,178,-115,-2056,17,5,-9,-106,-244,138,175
,29,2023-10-27 11:16:07.94,196,-113,-2064,23,7,-6,-288,-409,121,348
,30,2023-10-27 11:16:07.95,171,-127,-2058,21,28,-10,-115,-277,162,196
,31,2023-10-27 11:16:07.96,166,-114,-2061,26,16,-6,-298,-453,155,375
,32,2023-10-27 11:16:07.97,181,-120,-2072,32,4,-7,-119,-312,193,215
,33,2023-10-27 11:16:07.98,187,-111,-2068,42,6,-11,-302,-467,165,384
,34,2023-10-27 11:16:07.99,189,-96,-2060,45,5,-17,-122,-311,189,216
,35,2023-10-27 11:16:08.00,188,-88,-2048,43,0,-30,-307,-481,174,394
,36,2023-10-27 11:16:08.01,184,-95,-2050,41,3,-34,-116,-350,234,233
,37,2023-10-27 11:16:08.02,202,-94,-2042,35,2,-45,-301,-517,216,409
,38,2023-10-27 11:16:08.03,185,-103,-2047,39,13,-52,-110,-365,255,237
,39,2023-10-27 11:16:08.04,191,-102,-2039,35,18,-62,-301,-503,202,402
,40,2023-10-27 11:16:08.05,208,-99,-2033,33,28,-73,-97,-297,200,197
,41,2023-10-27 11:16:08.06,195,-104,-2031,28,39,-85,-288,-435,147,361
,42,2023-10-27 11:16:08.07,195,-113,-2051,37,8,-86,-90,-242,152,166
,43,2023-10-27 11:16:08.08,208,-111,-2061,35,22,-92,-291,-417,126,354
,44,2023-10-27 11:16:08.09,201,-105,-2050,31,32,-98,-85,-248,163,166
,45,2023-10-27 11:16:08.10,190,-113,-2048,26,29,-99,-291,-433,142,362
,46,2023-10-27 11:16:08.11,215,-116,-2048,22,29,-98,-86,-258,172,172
,47,2023-10-27 11:16:08.12,182,-127,-2053,21,35,-96,-295,-432,137,363
,48,2023-10-27 11:16:08.13,198,-130,-2042,31,28,-91,-88,-248,160,168
,49,2023-10-27 11:16:08.14,215,-129,-2039,34,27,-84,-296,-418,122,357
,50,2023-10-27 11:16:08.15,194,-148,-2049,39,39,-79,-93,-229,136,161
,51,2023-10-27 11:16:08.16,193,-153,-2042,44,33,-68,-310,-431,121,370
,52,2023-10-27 11:16:08.17,192,-158,-2049,49,43,-52,-115,-302,187,208
,53,2023-10-27 11:16:08.18,204,-158,-2056,52,43,-36,-318,-478,160,398
,54,2023-10-27 11:16:08.19,175,-161,-2061,47,55,-21,-115,-288,173,201
,55,2023-10-27 11:16:08.20,192,-152,-2063,50,41,1,-321,-477,156,399
,56,2023-10-27 11:16:08.21,215,-151,-2067,46,39,17,-124,-356,232,240
,57,2023-10-27 11:16:08.22,191,-139,-2057,37,48,26,-334,-542,208,438
,58,2023-10-27 11:16:08.23,194,-133,-2064,32,32,42,-132,-372,240,252
,59,2023-10-27 11:16:08.24,205,-129,-2071,20,41,51,-333,-520,187,426
,60,2023-10-27 11:16:08.25,180,-134,-2067,12,34,58,-124,-326,202,225
,61,2023-10-27 11:16:08.26,184,-130,-2063,14,18,65,-326,-499,173,412
,62,2023-10-27 11:16:08.27,188,-125,-2065,15,8,72,-116,-345,229,230
,63,2023-10-27 11:16:08.28,192,-120,-2046,11,0,74,-321,-500,179,410
,64,2023-10-27 11:16:08.29,191,-113,-2049,9,-7,73,-109,-294,185,201
,65,2023-10-27 11:16:08.30,202,-101,-2049,6,-10,68,-315,-439,124,377
,66,2023-10-27 11:16:08.31,204,-94,-2044,2,-13,62,-104,-249,145,176
,67,2023-10-27 11:16:08.32,202,-95,-2045,-1,-12,54,-308,-406,98,357
,68,2023-10-27 11:16:08.33,194,-92,-2046,-8,-14,42,-100,-221,121,160
,69,2023-10-27 11:16:08.34,196,-111,-2041,-15,-2,39,-310,-386,76,348
,70,2023-10-27 11:16:08.35,201,-96,-2051,-22,2,29,-106,-204,98,155
,71,2023-10-27 11:16:08.36,207,-111,-2044,-33,6,28,-305,-372,67,338
,72,2023-10-27 11:16:08.37,195,-92,-2057,-35,13,23,-96,-205,109,150
,73,2023-10-27 11:16:08.38,203,-94,-2049,-39,15,20,-301,-393,92,347
,74,2023-10-27 11:16:08.39,191,-102,-2050,-40,21,15,-101,-252,151,176
,75,2023-10-27 11:16:08.40,204,-111,-2053,-39,25,14,-301,-408,107,354
,76,2023-10-27 11:16:08.41,199,-109,-2054,-33,27,13,-98,-229,131,163
,77,2023-10-27 11:16:08.42,200,-112,-2044,-28,24,10,-295,-374,79,334
,78,2023-10-27 11:16:08.43,208,-113,-2046,-20,25,12,-101,-207,106,154
,79,2023-10-27 11:16:08.44,204,-115,-2049,-11,24,11,-288,-354,66,321
,80,2023-10-27 11:16:08.45,215,-108,-2042,-5,27,14,-93,-186,93,139
,81,2023-10-27 11:16:08.46,224,-107,-2039,1,31,13,-290,-388,98,339
,82,2023-10-27 11:16:08.47,212,-110,-2034,6,33,13,-115,-280,165,197
,83,2023-10-27 11:16:08.48,215,-120,-2040,13,39,10,-303,-443,140,373
,84,2023-10-27 11:16:08.49,202,-119,-2042,18,40,13,-115,-277,162,196
,85,2023-10-27 11:16:08.50,208,-123,-2028,35,18,23,-285,-419,134,352
,86,2023-10-27 11:16:08.51,247,-125,-2042,50,8,27,-100,-270,170,185
,87,2023-10-27 11:16:08.52,215,-112,-2044,47,29,24,-293,-436,143,364
,88,2023-10-27 11:16:08.53,221,-118,-2041,41,37,25,-120,-304,184,212
,89,2023-10-27 11:16:08.54,225,-113,-2068,42,32,27,-296,-445,149,370
,90,2023-10-27 11:16:08.55,227,-120,-2064,37,50,27,-110,-295,185,202
,91,2023-10-27 11:16:08.56,225,-117,-2051,40,30,30,-284,-420,136,352
,92,2023-10-27 11:16:08.57,242,-119,-2054,41,19,31,-110,-269,159,189
,93,2023-10-27 11:16:08.58,255,-117,-2065,32,35,28,-290,-434,144,362
,94,2023-10-27 11:16:08.59,211,-128,-2052,27,36,28,-122,-328,206,225
,95,2023-10-27 11:16:08.60,239,-124,-2059,36,20,29,-288,-442,154,365
,96,2023-10-27 11:16:08.61,239,-120,-2070,42,19,27,-117,-283,166,200
,97,2023-10-27 11:16:08.62,232,-123,-2055,45,6,29,-275,-380,105,327
,98,2023-10-27 11:16:08.63,219,-119,-2078,45,-6,27,-111,-245,134,178
,99,2023-10-27 11:16:08.64,214,-119,-2061,38,-1,27,-278,-393,115,335
,100,2023-10-27 11:16:08.65,222,-109,-2065,37,-11,32,-129,-297,168,213
,101,2023-10-27 11:16:08.66,221,-126,-2057,37,-14,31,-294,-445,151,369
,102,2023-10-27 11:16:08.67,202,-138,-2058,34,-23,34,-152,-342,190,247
,103,2023-10-27 11:16:08.68,204,-138,-2075,33,-34,42,-296,-459,163,377
,104,2023-10-27 11:16:08.69,201,-135,-2061,39,-53,48,-150,-349,199,249
,105,2023-10-27 11:16:08.70,215,-128,-2041,48,-64,54,-287,-440,153,363
,106,2023-10-27 11:16:08.71,219,-135,-2036,49,-64,57,-149,-323,174,236
,107,2023-10-27 11:16:08.72,213,-139,-2039,42,-56,56,-287,-437,150,362
,108,2023-10-27 11:16:08.73,200,-138,-2044,35,-49,57,-156,-343,187,249
,109,2023-10-27 11:16:08.74,206,-147,-2054,36,-46,59,-280,-432,152,356
,110,2023-10-27 11:16:08.75,191,-152,-2063,40,-52,64,-150,-321,171,235
,111,2023-10-27 11:16:08.76,191,-146,-2057,39,-57,66,-268,-409,141,338
,112,2023-10-27 11:16:08.77,202,-146,-2052,34,-52,73,-142,-314,172,228
,113,2023-10-27 11:16:08.78,183,-151,-2060,29,-49,74,-255,-378,123,316
,114,2023-10-27 11:16:08.79,198,-150,-2028,25,-49,76,-140,-272,132,206
,115,2023-10-27 11:16:08.80,178,-133,-2030,36,-34,77,-256,-384,128,320
,116,2023-10-27 11:16:08.81,165,-137,-2099,30,-38,79,-148,-331,183,239
,117,2023-10-27 11:16:08.82,185,-151,-2055,16,-53,81,-256,-410,154,333
,118,2023-10-27 11:16:08.83,188,-125,-2050,14,-43,81,-150,-318,168,234
,119,2023-10-27 11:16:08.84,184,-138,-2039,13,-34,75,-248,-356,108,302
,120,2023-10-27 11:16:08.85,176,-134,-2032,17,-36,73,-149,-274,125,211
,121,2023-10-27 11:16:08.86,176,-144,-2020,17,-21,71,-244,-325,81,284
,122,2023-10-27 11:16:08.87,173,-146,-2072,19,-7,69,-152,-263,111,207
,123,2023-10-27 11:16:08.88,191,-156,-2054,13,-9,69,-240,-310,70,275
,124,2023-10-27 11:16:08.89,169,-150,-2036,20,5,67,-152,-262,110,207
,125,2023-10-27 11:16:08.90,181,-148,-2035,28,6,64,-237,-346,109,291
,126,2023-10-27 11:16:08.91,183,-133,-2041,27,17,64,-162,-321,159,241
,127,2023-10-27 11:16:08.92,190,-129,-2045,25,25,57,-248,-376,128,312
,128,2023-10-27 11:16:08.93,183,-132,-2062,26,27,51,-179,-330,151,254
,129,2023-10-27 11:16:08.94,178,-131,-2064,22,25,47,-229,-326,97,277
,130,2023-10-27 11:16:08.95,171,-128,-2058,20,18,45,-158,-264,106,211
,131,2023-10-27 11:16:08.96,177,-130,-2051,16,13,42,-214,-284,70,249
,132,2023-10-27 11:16:08.97,175,-137,-2056,11,10,40,-169,-269,100,219
,133,2023-10-27 11:16:08.98,188,-134,-2048,2,11,39,-227,-323,96,275
,134,2023-10-27 11:16:08.99,175,-137,-2046,-1,10,36,-186,-322,136,254
,135,2023-10-27 11:16:09.00,194,-130,-2036,-2,9,31,-226,-330,104,278
,136,2023-10-27 11:16:09.01,198,-126,-2040,-2,11,29,-186,-310,124,248
,137,2023-10-27 11:16:09.02,192,-135,-2043,-3,12,21,-227,-367,140,297
,138,2023-10-27 11:16:09.03,196,-136,-2044,-5,15,16,-200,-383,183,291
,139,2023-10-27 11:16:09.04,198,-139,-2051,-6,18,12,-232,-378,146,305
,140,2023-10-27 11:16:09.05,181,-135,-2059,0,15,10,-207,-347,140,277
,141,2023-10-27 11:16:09.06,190,-142,-2059,2,9,6,-226,-319,93,272
,142,2023-10-27 11:16:09.07,183,-138,-2059,2,6,9,-208,-314,106,261
,143,2023-10-27 11:16:09.08,190,-143,-2061,0,1,8,-226,-325,99,275
,144,2023-10-27 11:16:09.09,195,-139,-2057,1,-2,7,-219,-346,127,282
,145,2023-10-27 11:16:09.10,197,-140,-2052,2,-3,8,-225,-323,98,274
,146,2023-10-27 11:16:09.11,200,-145,-2047,2,-1,8,-224,-326,102,275
,147,2023-10-27 11:16:09.12,195,-154,-2050,2,1,8,-216,-283,67,249
,148,2023-10-27 11:16:09.13,213,-149,-2041,0,6,9,-220,-309,89,264
,149,2023-10-27 11:16:09.14,204,-152,-2050,5,6,10,-214,-341,127,277
,150,2023-10-27 11:16:09.15,203,-146,-2050,6,5,14,-227,-398,171,312
,151,2023-10-27 11:16:09.16,194,-144,-2054,8,8,15,-213,-386,173,299
,152,2023-10-27 11:16:09.17,201,-142,-2049,7,7,15,-232,-412,180,322
,153,2023-10-27 11:16:09.18,199,-156,-2056,7,6,18,-212,-407,195,309
,154,2023-10-27 11:16:09.19,192,-157,-2059,12,1,21,-240,-444,204,342
,155,2023-10-27 11:16:09.20,197,-150,-2040,15,-3,23,-202,-372,170,287
,156,2023-10-27 11:16:09.21,191,-154,-2049,15,0,21,-234,-386,152,310
,157,2023-10-27 11:16:09.22,196,-150,-2047,12,2,24,-198,-312,114,255
,158,2023-10-27 11:16:09.23,205,-142,-2053,5,3,23,-242,-362,120,302
,159,2023-10-27 11:16:09.24,193,-148,-2054,5,0,21,-187,-282,95,234
,160,2023-10-27 11:16:09.25,199,-150,-2055,4,-5,21,-236,-340,104,288
,161,2023-10-27 11:16:09.26,187,-151,-2052,6,-8,24,-184,-269,85,226
,162,2023-10-27 11:16:09.27,196,-147,-2048,1,-10,23,-248,-344,96,296
,163,2023-10-27 11:16:09.28,201,-147,-2050,-3,-10,24,-187,-262,75,224
,164,2023-10-27 11:16:09.29,185,-146,-2047,-4,-13,21,-260,-345,85,302
,165,2023-10-27 11:16:09.30,192,-147,-2049,-7,-11,22,-193,-309,116,251
,166,2023-10-27 11:16:09.31,186,-142,-2043,-9,-11,22,-268,-405,137,336
,167,2023-10-27 11:16:09.32,188,-143,-2043,-12,-10,22,-188,-302,114,245
,168,2023-10-27 11:16:09.33,181,-143,-2054,-12,-8,20,-270,-379,109,324
,169,2023-10-27 11:16:09.34,184,-149,-2050,-14,-10,21,-173,-281,108,227
,170,2023-10-27 11:16:09.35,194,-145,-2050,-14,-8,22,-260,-377,117,318
,171,2023-10-27 11:16:09.36,185,-147,-2047,-18,-6,25,-159,-258,99,208
,172,2023-10-27 11:16:09.37,192,-144,-2039,-23,0,23,-262,-357,95,309
,173,2023-10-27 11:16:09.38,192,-146,-2051,-23,9,23,-165,-251,86,208
,174,2023-10-27 11:16:09.39,197,-145,-2050,-26,11,23,-268,-354,86,311
,175,2023-10-27 11:16:09.40,196,-144,-2051,-25,18,21,-158,-233,75,195
,176,2023-10-27 11:16:09.41,167,-136,-2051,-26,19,22,-274,-348,74,311
,177,2023-10-27 11:16:09.42,182,-144,-2059,-25,17,20,-158,-224,66,191
,178,2023-10-27 11:16:09.43,179,-137,-2054,-25,16,23,-282,-360,78,321
,179,2023-10-27 11:16:09.44,191,-130,-2050,-25,17,21,-166,-299,133,232
,180,2023-10-27 11:16:09.45,196,-142,-2052,-25,17,20,-284,-434,150,359
,181,2023-10-27 11:16:09.46,186,-127,-2050,-28,21,17,-138,-296,158,217
,182,2023-10-27 11:16:09.47,183,-126,-2048,-28,24,14,-267,-412,145,339
,183,2023-10-27 11:16:09.48,193,-125,-2053,-28,24,12,-147,-331,184,239
,184,2023-10-27 11:16:09.49,179,-125,-2054,-29,22,8,-286,-457,171,371
,185,2023-10-27 11:16:09.50,183,-126,-2057,-28,23,8,-138,-291,153,214
,186,2023-10-27 11:16:09.51,186,-123,-2057,-31,21,6,-276,-386,110,331
,187,2023-10-27 11:16:09.52,185,-125,-2057,-32,19,5,-132,-227,95,179
,188,2023-10-27 11:16:09.53,162,-127,-2041,-32,9,5,-280,-356,76,318
,189,2023-10-27 11:16:09.54,167,-128,-2055,-9,-35,16,-130,-204,74,167
,190,2023-10-27 11:16:09.55,227,-133,-2080,-15,-8,12,-280,-351,71,315
,191,2023-10-27 11:16:09.56,174,-122,-2051,-29,8,8,-126,-205,79,165
,192,2023-10-27 11:16:09.57,195,-126,-2033,-34,10,8,-288,-377,89,332
,193,2023-10-27 11:16:09.58,169,-131,-2040,-24,3,8,-142,-267,125,204
,194,2023-10-27 11:16:09.59,215,-128,-2038,-13,3,14,-304,-423,119,363
,195,2023-10-27 11:16:09.60,196,-132,-2047,-9,10,10,-135,-247,112,191
,196,2023-10-27 11:16:09.61,215,-128,-2053,-10,21,10,-298,-400,102,349
,197,2023-10-27 11:16:09.62,190,-117,-2037,-13,30,10,-135,-272,137,203
,198,2023-10-27 11:16:09.63,181,-122,-2051,-5,21,11,-307,-448,141,377
,199,2023-10-27 11:16:09.64,175,-141,-2067,2,6,17,-133,-317,184,225
,200,2023-10-27 11:16:09.65,178,-128,-2070,3,-4,20,-306,-475,169,390
,201,2023-10-27 11:16:09.66,200,-114,-2068,5,3,19,-130,-320,190,225
,202,2023-10-27 11:16:09.67,182,-104,-2049,0,19,16,-310,-481,171,395
,203,2023-10-27 11:16:09.68,197,-100,-2057,-10,21,8,-128,-348,220,238
,204,2023-10-27 11:16:09.69,180,-121,-2067,-16,18,3,-306,-496,190,401
,205,2023-10-27 11:16:09.70,176,-119,-2073,-10,9,6,-120,-300,180,210
,206,2023-10-27 11:16:09.71,183,-122,-2056,1,-8,8,-305,-444,139,374
,207,2023-10-27 11:16:09.72,191,-117,-2046,3,-12,9,-112,-269,157,190
,208,2023-10-27 11:16:09.73,179,-122,-2042,-8,-3,8,-302,-442,140,372
,209,2023-10-27 11:16:09.74,187,-115,-2037,-14,12,7,-108,-288,180,198
,210,2023-10-27 11:16:09.75,199,-111,-2036,-17,19,6,-306,-482,176,394
,211,2023-10-27 11:16:09.76,189,-114,-2031,-15,23,6,-119,-369,250,244
,212,2023-10-27 11:16:09.77,191,-117,-2037,-19,28,4,-314,-521,207,417
,213,2023-10-27 11:16:09.78,188,-123,-2042,-23,32,8,-106,-321,215,213
,214,2023-10-27 11:16:09.79,165,-127,-2011,-25,28,9,-303,-451,148,377
,215,2023-10-27 11:16:09.80,178,-111,-2062,7,-24,32,-97,-243,146,170
,216,2023-10-27 11:16:09.81,228,-115,-2065,0,6,29,-301,-397,96,349
,217,2023-10-27 11:16:09.82,179,-104,-2038,-15,38,22,-102,-214,112,158
,218,2023-10-27 11:16:09.83,183,-111,-2034,-17,25,29,-303,-388,85,345
,219,2023-10-27 11:16:09.84,227,-110,-2072,-23,36,30,-96,-203,107,149
,220,2023-10-27 11:16:09.85,190,-116,-2070,-21,44,28,-313,-409,96,361
,221,2023-10-27 11:16:09.86,180,-110,-2059,-12,28,31,-123,-279,156,201
,222,2023-10-27 11:16:09.87,201,-98,-2060,-5,16,31,-331,-460,129,395
,223,2023-10-27 11:16:09.88,203,-108,-2060,-16,40,25,-120,-268,148,194
,224,2023-10-27 11:16:09.89,192,-89,-2052,-15,39,23,-326,-423,97,374
,225,2023-10-27 11:16:09.90,202,-93,-2052,-8,29,22,-116,-237,121,176
,226,2023-10-27 11:16:09.91,223,-91,-2055,-5,31,17,-323,-407,84,365
,227,2023-10-27 11:16:09.92,202,-98,-2046,-6,45,10,-114,-221,107,167
,228,2023-10-27 11:16:09.93,181,-115,-2032,2,31,9,-325,-396,71,360
,229,2023-10-27 11:16:09.94,218,-119,-2059,13,27,8,-124,-219,95,171
,230,2023-10-27 11:16:09.95,194,-100,-2049,15,34,10,-330,-397,67,363
,231,2023-10-27 11:16:09.96,213,-95,-2028,20,31,5,-124,-216,92,170
,232,2023-10-27 11:16:09.97,205,-94,-2048,27,26,4,-326,-385,59,355
,233,2023-10-27 11:16:09.98,208,-106,-2055,24,39,1,-114,-201,87,157
,234,2023-10-27 11:16:09.99,209,-105,-2059,19,48,0,-323,-379,56,351
,235,2023-10-27 11:16:10.00,193,-111,-2059,21,36,2,-122,-201,79,161
,236,2023-10-27 11:16:10.01,213,-107,-2052,25,26,5,-332,-379,47,355
,237,2023-10-27 11:16:10.02,209,-117,-2056,21,30,6,-121,-198,77,159
,238,2023-10-27 11:16:10.03,208,-114,-2051,15,30,10,-322,-370,48,346
,239,2023-10-27 11:16:10.04,212,-113,-2054,13,30,13,-114,-191,77,152
,240,2023-10-27 11:16:10.05,217,-120,-2051,16,29,19,-325,-370,45,347
,241,2023-10-27 11:16:10.06,215,-113,-2046,15,26,23,-119,-196,77,157
,242,2023-10-27 11:16:10.07,207,-103,-2043,15,24,24,-323,-369,46,346
,243,2023-10-27 11:16:10.08,216,-106,-2053,8,27,26,-111,-192,81,151
,244,2023-10-27 11:16:10.09,219,-108,-2058,1,35,27,-326,-368,42,347
,245,2023-10-27 11:16:10.10,219,-107,-2058,-1,35,31,-126,-198,72,162
,246,2023-10-27 11:16:10.11,216,-104,-2054,-6,26,31,-336,-376,40,356
,247,2023-10-27 11:16:10.12,211,-98,-2054,-7,19,34,-125,-213,88,169
,248,2023-10-27 11:16:10.13,230,-105,-2053,-13,16,33,-322,-376,54,349
,249,2023-10-27 11:16:10.14,211,-105,-2057,-18,16,34,-113,-206,93,159
,250,2023-10-27 11:16:10.15,211,-101,-2055,-21,17,33,-314,-365,51,339
,251,2023-10-27 11:16:10.16,218,-102,-2052,-17,12,35,-116,-208,92,162
,252,2023-10-27 11:16:10.17,228,-100,-2047,-21,14,34,-316,-364,48,340
,253,2023-10-27 11:16:10.18,233,-98,-2047,-23,24,31,-119,-201,82,160
,254,2023-10-27 11:16:10.19,219,-99,-2039,-22,20,29,-309,-349,40,329
,255,2023-10-27 11:16:10.20,244,-96,-2043,-18,17,27,-122,-196,74,159
,256,2023-10-27 11:16:10.21,235,-94,-2045,-18,20,26,-319,-360,41,339
,257,2023-10-27 11:16:10.22,220,-100,-2056,-21,29,22,-138,-212,74,175
,258,2023-10-27 11:16:10.23,227,-101,-2063,-18,21,22,-322,-362,40,342
,259,2023-10-27 11:16:10.24,229,-99,-2064,-13,15,19,-136,-218,82,177
,260,2023-10-27 11:16:10.25,230,-102,-2060,-10,11,21,-319,-363,44,341
,261,2023-10-27 11:16:10.26,225,-92,-2053,-4,-1,23,-134,-216,82,175
,262,2023-10-27 11:16:10.27,230,-102,-2052,-1,-1,20,-305,-349,44,327
,263,2023-10-27 11:16:10.28,221,-103,-2051,2,0,21,-120,-206,86,163
,264,2023-10-27 11:16:10.29,233,-108,-2051,4,-3,25,-299,-345,46,322
,265,2023-10-27 11:16:10.30,236,-112,-2051,10,-2,28,-129,-209,80,169
,266,2023-10-27 11:16:10.31,225,-110,-2053,16,-3,32,-307,-336,29,321
,267,2023-10-27 11:16:10.32,235,-110,-2050,17,-2,38,-140,-209,69,174
,268,2023-10-27 11:16:10.33,230,-106,-2042,19,3,38,-307,-341,34,324
,269,2023-10-27 11:16:10.34,216,-111,-2048,19,6,40,-148,-227,79,187
,270,2023-10-27 11:16:10.35,239,-108,-2045,21,5,42,-301,-347,46,324
,271,2023-10-27 11:16:10.36,209,-111,-2062,26,4,44,-137,-226,89,181
,272,2023-10-27 11:16:10.37,223,-113,-2056,31,-3,46,-291,-335,44,313
,273,2023-10-27 11:16:10.38,229,-114,-2049,33,-7,50,-144,-222,78,183
,274,2023-10-27 11:16:10.39,235,-108,-2055,38,-15,50,-292,-331,39,311
,275,2023-10-27 11:16:10.40,224,-106,-2050,41,-19,47,-148,-221,73,184
,276,2023-10-27 11:16:10.41,230,-109,-2049,46,-19,43,-294,-330,36,312
,277,2023-10-27 11:16:10.42,224,-117,-2056,46,-19,44,-154,-232,78,193
,278,2023-10-27 11:16:10.43,215,-120,-2053,48,-23,47,-294,-331,37,312
,279,2023-10-27 11:16:10.44,214,-116,-2057,43,-28,47,-163,-232,69,197
,280,2023-10-27 11:16:10.45,218,-119,-2044,42,-27,46,-298,-328,30,313
,281,2023-10-27 11:16:10.46,195,-111,-2043,39,-25,45,-170,-235,65,202
,282,2023-10-27 11:16:10.47,219,-107,-2031,31,-20,43,-299,-329,30,314
,283,2023-10-27 11:16:10.48,221,-110,-2040,29,-11,40,-179,-245,66,212
,284,2023-10-27 11:16:10.49,218,-111,-2035,23,-5,36,-300,-330,30,315
,285,2023-10-27 11:16:10.50,220,-104,-2046,20,-5,34,-182,-248,66,215
,286,2023-10-27 11:16:10.51,206,-114,-2054,19,-6,31,-284,-320,36,302
,287,2023-10-27 11:16:10.52,196,-113,-2052,18,-7,30,-171,-248,77,209
,288,2023-10-27 11:16:10.53,208,-115,-2060,20,-4,28,-271,-314,43,292
,289,2023-10-27 11:16:10.54,222,-118,-2072,17,0,25,-169,-247,78,208
,290,2023-10-27 11:16:10.55,186,-120,-2059,16,-2,25,-268,-351,83,309
,291,2023-10-27 11:16:10.56,222,-121,-2050,17,-2,25,-174,-314,140,244
,292,2023-10-27 11:16:10.57,210,-124,-2058,18,0,25,-283,-416,133,349
,293,2023-10-27 11:16:10.58,201,-132,-2049,21,-1,29,-197,-366,169,281
,294,2023-10-27 11:16:10.59,212,-127,-2048,22,0,30,-287,-399,112,343
,295,2023-10-27 11:16:10.60,211,-133,-2041,20,11,31,-195,-318,123,256
,296,2023-10-27 11:16:10.61,204,-133,-2043,21,15,38,-271,-342,71,306
,297,2023-10-27 11:16:10.62,201,-130,-2043,26,12,42,-190,-292,102,241
,298,2023-10-27 11:16:10.63,213,-132,-2047,23,23,45,-264,-344,80,304
,299,2023-10-27 11:16:10.64,194,-126,-2040,23,11,50,-196,-317,121,256
,300,2023-10-27 11:16:10.65,218,-125,-2040,26,9,54,-276,-387,111,331
,301,2023-10-27 11:16:10.66,196,-143,-2049,26,9,60,-216,-367,151,291
,302,2023-10-27 11:16:10.67,202,-144,-2072,26,11,69,-277,-384,107,330
,303,2023-10-27 11:16:10.68,209,-141,-2046,15,36,71,-218,-339,121,278
,304,2023-10-27 11:16:10.69,215,-123,-2036,21,2,83,-259,-347,88,303
,305,2023-10-27 11:16:10.70,221,-111,-2053,18,12,84,-206,-323,117,264
,306,2023-10-27 11:16:10.71,203,-111,-2049,13,19,81,-253,-333,80,293
,307,2023-10-27 11:16:10.72,205,-101,-2049,11,11,75,-218,-321,103,269
,308,2023-10-27 11:16:10.73,211,-99,-2051,4,22,67,-263,-345,82,304
,309,2023-10-27 11:16:10.74,215,-103,-2058,4,15,62,-227,-342,115,284
,310,2023-10-27 11:16:10.75,210,-103,-2061,6,6,54,-249,-331,82,290
,311,2023-10-27 11:16:10.76,221,-99,-2059,5,5,46,-218,-316,98,267
,312,2023-10-27 11:16:10.77,211,-98,-2046,7,10,33,-244,-302,58,273
,313,2023-10-27 11:16:10.78,220,-97,-2054,9,8,28,-226,-312,86,269
,314,2023-10-27 11:16:10.79,216,-107,-2053,1,30,14,-246,-302,56,274
,315,2023-10-27 11:16:10.80,210,-111,-2057,6,18,13,-233,-318,85,275
,316,2023-10-27 11:16:10.81,234,-110,-2063,11,10,12,-249,-318,69,283
,317,2023-10-27 11:16:10.82,208,-108,-2051,15,10,9,-242,-344,102,293
,318,2023-10-27 11:16:10.83,209,-109,-2043,17,2,7,-238,-309,71,273
,319,2023-10-27 11:16:10.84,220,-122,-2052,12,10,5,-235,-335,100,285
,320,2023-10-27 11:16:10.85,214,-116,-2069,17,6,3,-237,-343,106,290
,321,2023-10-27 11:16:10.86,214,-130,-2048,21,6,3,-252,-392,140,322
,322,2023-10-27 11:16:10.87,225,-127,-2055,31,2,2,-242,-352,110,297
,323,2023-10-27 11:16:10.88,226,-130,-2056,38,3,2,-257,-377,120,317
,324,2023-10-27 11:16:10.89,205,-138,-2046,42,8,1,-232,-307,75,269
,325,2023-10-27 11:16:10.90,219,-128,-2052,47,7,4,-254,-351,97,302
,326,2023-10-27 11:16:10.91,221,-131,-2055,55,7,2,-237,-345,108,291
,327,2023-10-27 11:16:10.92,210,-125,-2053,60,-6,3,-276,-414,138,345
,328,2023-10-27 11:16:10.93,226,-121,-2054,62,-6,1,-244,-352,108,298
,329,2023-10-27 11:16:10.94,203,-123,-2047,51,4,-4,-272,-384,112,328
,330,2023-10-27 11:16:10.95,215,-120,-2051,47,-1,-1,-217,-291,74,254
,331,2023-10-27 11:16:10.96,201,-135,-2053,42,2,-2,-267,-351,84,309
,332,2023-10-27 11:16:10.97,191,-138,-2042,39,0,2,-214,-271,57,242
,333,2023-10-27 11:16:10.98,199,-145,-2057,43,-6,8,-267,-343,76,305
,334,2023-10-27 11:16:10.99,191,-163,-2052,41,-6,13,-194,-255,61,224
,335,2023-10-27 11:16:11.00,209,-152,-2043,38,-2,19,-261,-335,74,298
,336,2023-10-27 11:16:11.01,194,-149,-2039,36,-2,23,-186,-243,57,214
,337,2023-10-27 11:16:11.02,205,-137,-2038,34,1,28,-269,-333,64,301
,338,2023-10-27 11:16:11.03,197,-147,-2047,33,-7,30,-186,-233,47,209
,339,2023-10-27 11:16:11.04,220,-140,-2054,34,-12,34,-274,-341,67,307
,340,2023-10-27 11:16:11.05,212,-134,-2053,30,-3,36,-190,-282,92,236
,341,2023-10-27 11:16:11.06,219,-133,-2041,16,15,37,-288,-394,106,341
,342,2023-10-27 11:16:11.07,196,-141,-2034,7,26,34,-198,-288,90,243
,343,2023-10-27 11:16:11.08,216,-142,-2047,3,19,36,-290,-373,83,331
,344,2023-10-27 11:16:11.09,230,-130,-2045,5,19,36,-180,-250,70,215
,345,2023-10-27 11:16:11.10,226,-135,-2052,8,10,36,-283,-352,69,317
,346,2023-10-27 11:16:11.11,228,-132,-2051,5,8,35,-174,-234,60,204
,347,2023-10-27 11:16:11.12,210,-132,-2056,1,8,36,-282,-347,65,314
,348,2023-10-27 11:16:11.13,248,-131,-2079,-8,19,39,-168,-228,60,198
,349,2023-10-27 11:16:11.14,215,-145,-2049,-21,21,33,-290,-350,60,320
,350,2023-10-27 11:16:11.15,233,-129,-2043,-18,12,39,-174,-228,54,201
,351,2023-10-27 11:16:11.16,225,-142,-2044,-18,10,41,-297,-367,70,332
,352,2023-10-27 11:16:11.17,213,-137,-2034,-20,8,39,-179,-290,111,234
,353,2023-10-27 11:16:11.18,205,-134,-2043,-13,-9,48,-306,-428,122,367
,354,2023-10-27 11:16:11.19,230,-128,-2052,-9,-16,54,-168,-272,104,220
,355,2023-10-27 11:16:11.20,227,-124,-2044,-23,11,54,-297,-382,85,339
,356,2023-10-27 11:16:11.21,210,-122,-2038,-28,6,55,-159,-226,67,192
,357,2023-10-27 11:16:11.22,243,-126,-2059,-31,1,59,-294,-370,76,332
,358,2023-10-27 11:16:11.23,219,-120,-2057,-33,8,61,-143,-243,100,193
,359,2023-10-27 11:16:11.24,208,-126,-2057,-28,-9,63,-293,-406,113,349
,360,2023-10-27 11:16:11.25,233,-120,-2067,-27,-12,67,-151,-290,139,220
,361,2023-10-27 11:16:11.26,228,-118,-2067,-26,-13,66,-307,-432,125,369
,362,2023-10-27 11:16:11.27,207,-121,-2052,-20,-13,62,-146,-265,119,205
,363,2023-10-27 11:16:11.28,221,-112,-2048,-13,-13,57,-304,-404,100,354
,364,2023-10-27 11:16:11.29,212,-119,-2057,-5,-19,57,-138,-253,115,195
,365,2023-10-27 11:16:11.30,218,-128,-2055,2,-15,56,-304,-402,98,353
,366,2023-10-27 11:16:11.31,212,-127,-2050,7,-17,58,-130,-231,101,180
,367,2023-10-27 11:16:11.32,209,-140,-2053,15,-14,61,-300,-387,87,343
,368,2023-10-27 11:16:11.33,219,-135,-2053,21,-16,60,-109,-212,103,160
,369,2023-10-27 11:16:11.34,204,-122,-2043,28,-17,62,-296,-378,82,337
,370,2023-10-27 11:16:11.35,214,-125,-2044,35,-18,58,-112,-196,84,154
,371,2023-10-27 11:16:11.36,211,-136,-2056,40,-16,59,-300,-371,71,335
,372,2023-10-27 11:16:11.37,197,-142,-2060,46,-13,55,-116,-209,93,162
,373,2023-10-27 11:16:11.38,200,-137,-2048,53,-27,55,-306,-388,82,347
,374,2023-10-27 11:16:11.39,214,-131,-2042,57,-22,53,-116,-225,109,170
,375,2023-10-27 11:16:11.40,187,-132,-2047,54,-23,49,-297,-390,93,343
,376,2023-10-27 11:16:11.41,215,-133,-2041,46,-12,41,-92,-202,110,147
,377,2023-10-27 11:16:11.42,193,-139,-2057,43,-14,39,-289,-396,107,342
,378,2023-10-27 11:16:11.43,187,-145,-2048,43,-20,38,-100,-270,170,185
,379,2023-10-27 11:16:11.44,200,-141,-2044,44,-22,37,-300,-440,140,370
,380,2023-10-27 11:16:11.45,190,-127,-1958,53,-27,33,-98,-238,140,168
,381,2023-10-27 11:16:11.46,186,-139,-2056,56,-6,34,-302,-445,143,373
,382,2023-10-27 11:16:11.47,194,-155,-2083,42,-16,36,-128,-393,265,260
,383,2023-10-27 11:16:11.48,206,-150,-2096,11,-8,38,-323,-558,235,440
,384,2023-10-27 11:16:11.49,196,-142,-2048,2,-22,41,-108,-333,225,220
,385,2023-10-27 11:16:11.50,207,-146,-2034,2,-19,44,-292,-434,142,363
,386,2023-10-27 11:16:11.51,202,-148,-2027,-4,-12,41,-83,-219,136,151
,387,2023-10-27 11:16:11.52,194,-143,-2049,-8,-10,45,-275,-381,106,328
,388,2023-10-27 11:16:11.53,203,-143,-2043,-9,-2,44,-60,-186,126,123
,389,2023-10-27 11:16:11.54,195,-139,-2043,-9,-1,42,-274,-413,139,343
,390,2023-10-27 11:16:11.55,189,-128,-2039,-8,2,40,-87,-313,226,200
,391,2023-10-27 11:16:11.56,200,-127,-2035,-12,9,40,-296,-523,227,409
,392,2023-10-27 11:16:11.57,192,-126,-2054,-17,13,36,-84,-360,276,222
,393,2023-10-27 11:16:11.58,200,-114,-2046,-19,11,31,-276,-480,204,378
,394,2023-10-27 11:16:11.59,198,-126,-2058,-20,11,30,-50,-221,171,135
,395,2023-10-27 11:16:11.60,197,-133,-2058,-15,4,28,-252,-383,131,317
,396,2023-10-27 11:16:11.61,209,-133,-2055,-12,0,26,-42,-214,172,128
,397,2023-10-27 11:16:11.62,198,-136,-2057,-7,-6,27,-264,-433,169,348
,398,2023-10-27 11:16:11.63,195,-135,-2050,-5,-7,26,-61,-285,224,173
,399,2023-10-27 11:16:11.64,194,-132,-2051,-1,-8,27,-290,-496,206,393
,400,2023-10-27 11:16:11.65,223,-134,-2063,-1,5,27,-90,-356,266,223
,401,2023-10-27 11:16:11.66,185,-142,-2047,0,8,25,-305,-526,221,415
,402,2023-10-27 11:16:11.67,196,-142,-2043,8,-1,31,-87,-334,247,210
,403,2023-10-27 11:16:11.68,211,-136,-2042,10,8,31,-289,-463,174,376
,404,2023-10-27 11:16:11.69,212,-131,-2039,10,18,31,-72,-249,177,160
,405,2023-10-27 11:16:11.70,201,-136,-2037,8,17,34,-288,-428,140,358
,406,2023-10-27 11:16:11.71,207,-133,-2045,8,21,35,-85,-274,189,179
,407,2023-10-27 11:16:11.72,195,-133,-2051,8,27,37,-293,-478,185,385
,408,2023-10-27 11:16:11.73,209,-133,-2052,4,25,38,-99,-346,247,222
,409,2023-10-27 11:16:11.74,206,-124,-2055,3,22,39,-315,-554,239,434
,410,2023-10-27 11:16:11.75,199,-125,-2054,-2,20,40,-132,-441,309,286
,411,2023-10-27 11:16:11.76,208,-122,-2048,-6,16,41,-319,-646,327,482
,412,2023-10-27 11:16:11.77,212,-125,-2060,-6,15,40,-112,-553,441,332
,413,2023-10-27 11:16:11.78,205,-130,-2065,-5,7,42,-308,-725,417,516
,414,2023-10-27 11:16:11.79,199,-121,-2050,-3,3,40,-97,-575,478,336
,415,2023-10-27 11:16:11.80,207,-140,-2061,2,-1,40,-313,-692,379,502
,416,2023-10-27 11:16:11.81,208,-134,-2055,6,-6,41,-130,-498,368,314
,417,2023-10-27 11:16:11.82,212,-135,-2057,16,-13,39,-357,-619,262,488
,418,2023-10-27 11:16:11.83,197,-133,-2061,22,-20,39,-166,-438,272,302
,419,2023-10-27 11:16:11.84,205,-123,-2055,32,-25,38,-378,-579,201,478
,420,2023-10-27 11:16:11.85,189,-124,-2061,39,-32,37,-182,-399,217,290
,421,2023-10-27 11:16:11.86,200,-131,-2057,42,-30,39,-387,-542,155,464
,422,2023-10-27 11:16:11.87,255,-121,-2010,47,-17,35,-186,-368,182,277
,423,2023-10-27 11:16:11.88,133,-147,-2075,47,-6,25,-384,-514,130,449
,424,2023-10-27 11:16:11.89,205,-149,-2037,51,-46,38,-184,-350,166,267
,425,2023-10-27 11:16:11.90,196,-144,-2040,60,-33,42,-380,-494,114,437
,426,2023-10-27 11:16:11.91,182,-147,-2083,53,-30,41,-180,-326,146,253
,427,2023-10-27 11:16:11.92,201,-140,-2061,34,-31,50,-374,-470,96,422
,428,2023-10-27 11:16:11.93,189,-139,-2047,26,-17,48,-178,-308,130,243
,429,2023-10-27 11:16:11.94,191,-150,-2047,27,-14,51,-358,-489,131,423
,430,2023-10-27 11:16:11.95,183,-146,-2042,30,-35,55,-168,-376,208,272
,431,2023-10-27 11:16:11.96,197,-151,-2050,32,-29,58,-332,-667,335,499
,432,2023-10-27 11:16:11.97,174,-148,-2041,31,-19,57,-147,-672,525,409
,433,2023-10-27 11:16:11.98,181,-151,-2045,33,-18,56,-310,-857,547,583
,434,2023-10-27 11:16:11.99,197,-146,-2042,32,-15,54,-135,-737,602,436
,435,2023-10-27 11:16:12.00,190,-146,-2046,39,-16,54,-317,-844,527,580
,436,2023-10-27 11:16:12.01,197,-149,-2046,41,-15,50,-159,-695,536,427
,437,2023-10-27 11:16:12.02,194,-144,-2045,42,-4,44,-323,-742,419,532
,438,2023-10-27 11:16:12.03,181,-151,-2057,37,-3,42,-152,-536,384,344
,439,2023-10-27 11:16:12.04,193,-146,-2054,38,-3,40,-290,-575,285,432
,440,2023-10-27 11:16:12.05,197,-142,-2056,42,-4,36,-124,-397,273,260
,441,2023-10-27 11:16:12.06,193,-151,-2043,41,-5,33,-275,-497,222,386
,442,2023-10-27 11:16:12.07,186,-150,-2049,40,-4,29,-127,-368,241,247
,443,2023-10-27 11:16:12.08,186,-151,-2052,38,-11,28,-292,-524,232,408
,444,2023-10-27 11:16:12.09,187,-150,-2045,40,-22,27,-154,-427,273,290
,445,2023-10-27 11:16:12.10,182,-161,-2050,45,-28,29,-307,-588,281,447
,446,2023-10-27 11:16:12.11,206,-161,-1966,58,-38,28,-163,-494,331,328
,447,2023-10-27 11:16:12.12,168,-149,-2057,72,-9,27,-295,-576,281,435
,448,2023-10-27 11:16:12.13,168,-181,-2093,55,-24,30,-144,-416,272,280
,449,2023-10-27 11:16:12.14,191,-176,-2038,48,-33,37,-292,-530,238,411
,450,2023-10-27 11:16:12.15,170,-166,-2051,58,-22,38,-162,-432,270,297
,451,2023-10-27 11:16:12.16,180,-176,-2082,52,-22,47,-303,-531,228,417
,452,2023-10-27 11:16:12.17,167,-187,-2076,28,-6,52,-163,-395,232,279
,453,2023-10-27 11:16:12.18,158,-170,-2041,19,-13,59,-274,-451,177,362
,454,2023-10-27 11:16:12.19,175,-183,-2041,25,-21,68,-147,-334,187,240
,455,2023-10-27 11:16:12.20,157,-175,-2042,20,-21,70,-253,-405,152,329
,456,2023-10-27 11:16:12.21,174,-166,-2037,21,-29,77,-137,-315,178,226
,457,2023-10-27 11:16:12.22,170,-163,-2046,13,-21,74,-261,-405,144,333
,458,2023-10-27 11:16:12.23,171,-157,-2044,11,-16,76,-150,-321,171,235
,459,2023-10-27 11:16:12.24,177,-157,-2052,5,-10,70,-254,-388,134,321
,460,2023-10-27 11:16:12.25,174,-156,-2054,-1,-3,68,-151,-304,153,227
,461,2023-10-27 11:16:12.26,166,-156,-2052,-2,-5,62,-241,-334,93,287
,462,2023-10-27 11:16:12.27,164,-153,-2051,-1,-17,57,-142,-251,109,196
,463,2023-10-27 11:16:12.28,165,-151,-2052,3,-18,53,-236,-317,81,276
,464,2023-10-27 11:16:12.29,173,-145,-2048,4,-21,44,-154,-275,121,214
,465,2023-10-27 11:16:12.30,177,-150,-2051,1,-19,36,-238,-350,112,294
,466,2023-10-27 11:16:12.31,178,-153,-2058,-1,-15,26,-159,-308,149,233
,467,2023-10-27 11:16:12.32,162,-158,-2058,0,-16,21,-242,-378,136,310
,468,2023-10-27 11:16:12.33,175,-153,-2058,9,-22,14,-174,-335,161,254
,469,2023-10-27 11:16:12.34,167,-155,-2057,12,-20,9,-240,-340,100,290
,470,2023-10-27 11:16:12.35,169,-159,-2051,15,-23,2,-175,-283,108,229
,471,2023-10-27 11:16:12.36,174,-158,-2051,20,-21,0,-254,-384,130,319
,472,2023-10-27 11:16:12.37,166,-160,-2043,19,-9,-3,-204,-394,190,299
,473,2023-10-27 11:16:12.38,172,-165,-2038,24,-13,-2,-274,-485,211,379
,474,2023-10-27 11:16:12.39,163,-172,-2032,26,-9,-5,-218,-453,235,335
,475,2023-10-27 11:16:12.40,181,-162,-2044,31,-11,-1,-252,-422,170,337
,476,2023-10-27 11:16:12.41,185,-174,-2042,32,-9,3,-199,-352,153,275
,477,2023-10-27 11:16:12.42,170,-175,-2048,33,-3,6,-234,-387,153,310
,478,2023-10-27 11:16:12.43,177,-175,-2049,31,2,6,-199,-384,185,291
,479,2023-10-27 11:16:12.44,173,-172,-2043,30,7,10,-229,-422,193,325
,480,2023-10-27 11:16:12.45,175,-170,-2041,29,11,14,-198,-401,203,299
,481,2023-10-27 11:16:12.46,168,-168,-2051,23,16,18,-218,-393,175,305
,482,2023-10-27 11:16:12.47,166,-173,-2061,18,20,18,-200,-373,173,286
,483,2023-10-27 11:16:12.48,169,-167,-2065,12,17,24,-234,-412,178,323
,484,2023-10-27 11:16:12.49,167,-172,-2065,11,12,26,-222,-423,201,322
,485,2023-10-27 11:16:12.50,177,-160,-2056,11,6,32,-235,-428,193,331
,486,2023-10-27 11:16:12.51,172,-169,-2049,6,4,31,-220,-417,197,318
,487,2023-10-27 11:16:12.52,167,-163,-2054,-1,3,30,-220,-418,198,319
,488,2023-10-27 11:16:12.53,170,-162,-2049,-4,0,33,-216,-424,208,320
,489,2023-10-27 11:16:12.54,163,-162,-2058,-2,-5,33,-206,-397,191,301
,490,2023-10-27 11:16:12.55,160,-161,-2054,5,-18,40,-220,-406,186,313
,491,2023-10-27 11:16:12.56,176,-160,-2033,8,-20,40,-216,-399,183,307
,492,2023-10-27 11:16:12.57,175,-177,-2038,9,-17,39,-240,-439,199,339
,493,2023-10-27 11:16:12.58,165,-166,-2052,7,-18,40,-216,-421,205,318
,494,2023-10-27 11:16:12.59,160,-174,-2050,10,-16,44,-236,-443,207,339
,495,2023-10-27 11:16:12.60,199,-168,-2075,15,-5,42,-205,-385,180,295
,496,2023-10-27 11:16:12.61,152,-162,-2058,7,11,33,-226,-409,183,317
,497,2023-10-27 11:16:12.62,153,-167,-2063,11,-5,34,-198,-420,222,309
,498,2023-10-27 11:16:12.63,176,-168,-2085,13,-2,33,-242,-484,242,363
,499,2023-10-27 11:16:12.64,139,-185,-2075,14,-2,32,-198,-457,259,327
,500,2023-10-27 11:16:12.65,170,-172,-2056,27,-28,34,-246,-501,255,373
,501,2023-10-27 11:16:12.66,173,-170,-2048,30,-23,33,-218,-526,308,372
,502,2023-10-27 11:16:12.67,153,-164,-2043,26,-10,26,-279,-597,318,438
,503,2023-10-27 11:16:12.68,166,-173,-2048,30,-12,24,-228,-580,352,404
,504,2023-10-27 11:16:12.69,171,-170,-2041,28,2,17,-276,-602,326,439
,505,2023-10-27 11:16:12.70,149,-173,-2025,36,-7,14,-195,-484,289,339
,506,2023-10-27 11:16:12.71,170,-169,-2051,45,-16,13,-255,-491,236,373
,507,2023-10-27 11:16:12.72,158,-175,-2034,42,-9,7,-176,-380,204,278
,508,2023-10-27 11:16:12.73,172,-175,-2034,45,-7,6,-253,-436,183,344
,509,2023-10-27 11:16:12.74,166,-187,-2041,39,14,1,-161,-322,161,241
,510,2023-10-27 11:16:12.75,141,-182,-2040,42,5,0,-253,-412,159,332
,511,2023-10-27 11:16:12.76,171,-185,-2049,38,6,1,-165,-355,190,260
,512,2023-10-27 11:16:12.77,165,-176,-2049,35,19,6,-264,-453,189,358
,513,2023-10-27 11:16:12.78,185,-180,-2033,24,29,7,-174,-344,170,259
,514,2023-10-27 11:16:12.79,186,-172,-2030,13,45,3,-282,-435,153,358
,515,2023-10-27 11:16:12.80,186,-167,-2034,3,56,-3,-195,-381,186,288
,516,2023-10-27 11:16:12.81,185,-171,-2049,-2,67,-7,-310,-523,213,416
,517,2023-10-27 11:16:12.82,182,-169,-2057,-9,69,-12,-219,-537,318,378
,518,2023-10-27 11:16:12.83,191,-172,-2062,-9,61,-11,-330,-646,316,488
,519,2023-10-27 11:16:12.84,193,-156,-2043,-8,58,-10,-211,-551,340,381
,520,2023-10-27 11:16:12.85,191,-149,-2036,-11,59,-17,-319,-604,285,461
,521,2023-10-27 11:16:12.86,192,-166,-2042,-14,61,-23,-194,-447,253,320
,522,2023-10-27 11:16:12.87,192,-150,-2062,-14,55,-25,-314,-513,199,413
,523,2023-10-27 11:16:12.88,187,-163,-2060,-12,44,-27,-188,-386,198,287
,524,2023-10-27 11:16:12.89,192,-167,-2061,-6,35,-26,-314,-482,168,398
,525,2023-10-27 11:16:12.90,184,-166,-2067,-2,18,-28,-173,-320,147,246
,526,2023-10-27 11:16:12.91,189,-175,-2079,0,3,-24,-301,-418,117,359
,527,2023-10-27 11:16:12.92,181,-177,-2074,6,-16,-19,-156,-266,110,211
,528,2023-10-27 11:16:12.93,173,-187,-2073,13,-37,-16,-302,-422,120,362
,529,2023-10-27 11:16:12.94,182,-174,-2064,22,-53,-8,-173,-361,188,267
,530,2023-10-27 11:16:12.95,166,-178,-2058,23,-63,-5,-312,-503,191,407
,531,2023-10-27 11:16:12.96,164,-186,-2069,20,-69,0,-170,-345,175,257
,532,2023-10-27 11:16:12.97,194,-190,-2102,16,-62,4,-310,-442,132,376
,533,2023-10-27 11:16:12.98,160,-191,-2058,18,-23,-8,-158,-270,112,214
,534,2023-10-27 11:16:12.99,143,-193,-2122,13,-36,-5,-301,-399,98,350
,535,2023-10-27 11:16:13.00,192,-201,-2128,-19,-31,3,-142,-257,115,199
,536,2023-10-27 11:16:13.01,139,-193,-2049,-32,-26,3,-306,-437,131,371
,537,2023-10-27 11:16:13.02,150,-203,-2050,-16,-47,17,-169,-364,195,266
,538,2023-10-27 11:16:13.03,147,-207,-2041,-9,-59,25,-332,-513,181,422
,539,2023-10-27 11:16:13.04,144,-206,-2015,-15,-40,27,-159,-329,170,244
,540,2023-10-27 11:16:13.05,160,-208,-2031,-11,-35,33,-311,-459,148,385
,541,2023-10-27 11:16:13.06,143,-206,-2028,-10,-33,38,-135,-325,190,230
,542,2023-10-27 11:16:13.07,149,-195,-2007,-8,-20,38,-301,-501,200,401
,543,2023-10-27 11:16:13.08,136,-192,-1998,4,-25,43,-135,-392,257,263
,544,2023-10-27 11:16:13.09,169,-182,-2000,5,-9,41,-314,-543,229,428
,545,2023-10-27 11:16:13.10,145,-163,-2001,2,6,33,-134,-376,242,255
,546,2023-10-27 11:16:13.11,156,-157,-2016,-10,29,24,-320,-540,220,430
,547,2023-10-27 11:16:13.12,167,-158,-2045,-30,47,19,-144,-443,299,293
,548,2023-10-27 11:16:13.13,164,-171,-2054,-46,59,9,-320,-582,262,451
,549,2023-10-27 11:16:13.14,160,-159,-2064,-53,69,3,-120,-369,249,244
,550,2023-10-27 11:16:13.15,169,-158,-2057,-55,65,0,-305,-477,172,391
,551,2023-10-27 11:16:13.16,180,-141,-2042,-62,61,-3,-110,-266,156,188
,552,2023-10-27 11:16:13.17,177,-135,-2034,-68,70,-10,-303,-415,112,359
,553,2023-10-27 11:16:13.18,204,-135,-2043,-77,79,-17,-101,-224,123,162
,554,2023-10-27 11:16:13.19,200,-135,-2038,-79,85,-29,-300,-414,114,357
,555,2023-10-27 11:16:13.20,187,-139,-2040,-73,90,-36,-106,-263,157,184
,556,2023-10-27 11:16:13.21,180,-149,-2055,-71,83,-38,-310,-464,154,387
,557,2023-10-27 11:16:13.22,188,-159,-2006,-53,63,-39,-109,-315,206,212
,558,2023-10-27 11:16:13.23,206,-123,-2057,-36,68,-39,-306,-469,163,387
,559,2023-10-27 11:16:13.24,174,-130,-2080,-43,65,-47,-94,-249,155,171
,560,2023-10-27 11:16:13.25,193,-130,-2068,-47,58,-43,-297,-400,103,348
,561,2023-10-27 11:16:13.26,188,-130,-2059,-44,51,-45,-92,-215,123,153
,562,2023-10-27 11:16:13.27,182,-141,-2062,-46,24,-34,-296,-392,96,344
,563,2023-10-27 11:16:13.28,200,-136,-2069,-58,22,-28,-83,-204,121,143
,564,2023-10-27 11:16:13.29,177,-148,-2064,-69,23,-21,-295,-415,120,355
,565,2023-10-27 11:16:13.30,193,-146,-2070,-66,6,-9,-101,-295,194,198
,566,2023-10-27 11:16:13.31,190,-154,-2071,-64,-5,5,-308,-474,166,391
,567,2023-10-27 11:16:13.32,193,-142,-2052,-60,-13,19,-97,-274,177,185
,568,2023-10-27 11:16:13.33,191,-142,-2052,-59,-13,26,-297,-414,117,355
,569,2023-10-27 11:16:13.34,193,-145,-2064,-63,-14,38,-91,-210,119,150
,570,2023-10-27 11:16:13.35,172,-136,-2070,-62,-20,46,-304,-398,94,351
,571,2023-10-27 11:16:13.36,181,-137,-2068,-54,-30,59,-96,-240,144,168
,572,2023-10-27 11:16:13.37,187,-129,-2056,-48,-36,70,-313,-424,111,368
,573,2023-10-27 11:16:13.38,179,-128,-2058,-45,-41,77,-106,-232,126,169
,574,2023-10-27 11:16:13.39,190,-121,-2044,-43,-42,82,-320,-397,77,358
,575,2023-10-27 11:16:13.40,185,-112,-2041,-38,-40,80,-100,-203,103,151
,576,2023-10-27 11:16:13.41,185,-112,-2040,-36,-36,79,-304,-380,76,342
,577,2023-10-27 11:16:13.42,190,-114,-2035,-36,-35,78,-92,-205,113,148
,578,2023-10-27 11:16:13.43,183,-122,-2046,-31,-28,77,-300,-382,82,341
,579,2023-10-27 11:16:13.44,174,-118,-2057,-24,-29,73,-97,-208,111,152
,580,2023-10-27 11:16:13.45,183,-121,-2054,-20,-26,73,-308,-406,98,357
,581,2023-10-27 11:16:13.46,174,-108,-2059,-13,-29,67,-98,-255,157,176
,582,2023-10-27 11:16:13.47,181,-112,-2054,-4,-32,63,-294,-416,122,355
,583,2023-10-27 11:16:13.48,171,-109,-2058,1,-29,57,-90,-226,136,158
,584,2023-10-27 11:16:13.49,165,-114,-2062,6,-29,51,-290,-384,94,337
,585,2023-10-27 11:16:13.50,173,-113,-2055,12,-30,46,-95,-223,128,159
,586,2023-10-27 11:16:13.51,169,-114,-2053,24,-32,42,-293,-404,111,348
,587,2023-10-27 11:16:13.52,163,-118,-2061,31,-32,37,-95,-248,153,171
,588,2023-10-27 11:16:13.53,168,-123,-2048,36,-30,34,-296,-408,112,352
,589,2023-10-27 11:16:13.54,167,-127,-2046,41,-28,31,-104,-237,133,170
,590,2023-10-27 11:16:13.55,175,-130,-2041,49,-25,28,-298,-401,103,349
,591,2023-10-27 11:16:13.56,153,-126,-2051,52,-17,25,-106,-251,145,178
,592,2023-10-27 11:16:13.57,164,-125,-2040,51,-16,22,-318,-492,174,405
,593,2023-10-27 11:16:13.58,169,-134,-2047,50,-8,21,-143,-416,273,279
,594,2023-10-27 11:16:13.59,159,-145,-2060,51,-8,21,-330,-572,242,451
,595,2023-10-27 11:16:13.60,169,-141,-2047,52,-4,22,-136,-390,254,263
,596,2023-10-27 11:16:13.61,156,-139,-2040,53,2,22,-313,-493,180,403
,597,2023-10-27 11:16:13.62,172,-137,-2038,48,15,20,-123,-312,189,217
,598,2023-10-27 11:16:13.63,177,-139,-2034,42,27,18,-312,-504,192,408
,599,2023-10-27 11:16:13.64,171,-139,-2046,35,36,16,-135,-409,274,272
,600,2023-10-27 11:16:13.65,157,-139,-2051,30,40,17,-323,-585,262,454
,601,2023-10-27 11:16:13.66,152,-148,-2050,29,42,17,-148,-448,300,298
,602,2023-10-27 11:16:13.67,158,-140,-2053,21,45,18,-320,-549,229,434
,603,2023-10-27 11:16:13.68,166,-146,-2054,15,47,21,-134,-368,234,251
,604,2023-10-27 11:16:13.69,158,-143,-2056,9,45,24,-307,-480,173,393
,605,2023-10-27 11:16:13.70,159,-142,-2055,7,41,25,-138,-331,193,234
,606,2023-10-27 11:16:13.71,171,-136,-2059,6,37,27,-312,-451,139,381
,607,2023-10-27 11:16:13.72,170,-132,-2054,2,30,26,-138,-301,163,219
,608,2023-10-27 11:16:13.73,166,-135,-2048,-4,28,27,-308,-476,168,392
,609,2023-10-27 11:16:13.74,169,-137,-2058,-4,29,23,-145,-383,238,264
,610,2023-10-27 11:16:13.75,169,-135,-2056,-3,26,20,-295,-478,183,386
,611,2023-10-27 11:16:13.76,180,-123,-2055,-3,22,18,-128,-309,181,218
,612,2023-10-27 11:16:13.77,175,-131,-2040,-5,21,10,-277,-388,111,332
,613,2023-10-27 11:16:13.78,180,-125,-2042,0,25,9,-133,-261,128,197
,614,2023-10-27 11:16:13.79,173,-132,-2048,1,24,3,-291,-379,88,335
,615,2023-10-27 11:16:13.80,171,-136,-2049,3,23,-1,-152,-278,126,215
,616,2023-10-27 11:16:13.81,175,-128,-2049,6,21,-5,-290,-412,122,351
,617,2023-10-27 11:16:13.82,167,-139,-2059,8,20,-5,-142,-322,180,232
,618,2023-10-27 11:16:13.83,164,-138,-2055,7,22,-4,-294,-451,157,372
,619,2023-10-27 11:16:13.84,171,-151,-2057,7,16,0,-161,-353,192,257
,620,2023-10-27 11:16:13.85,181,-145,-2056,8,20,3,-291,-442,151,366
,621,2023-10-27 11:16:13.86,179,-146,-2049,7,17,6,-160,-330,170,245
,622,2023-10-27 11:16:13.87,185,-147,-2047,4,20,8,-290,-442,152,366
,623,2023-10-27 11:16:13.88,181,-144,-2050,-1,24,12,-164,-360,196,262
,624,2023-10-27 11:16:13.89,164,-114,-2097,-9,26,17,-299,-497,198,398
,625,2023-10-27 11:16:13.90,199,-152,-2039,-11,12,21,-179,-425,246,302
,626,2023-10-27 11:16:13.91,199,-146,-2037,-7,27,23,-283,-468,185,375
,627,2023-10-27 11:16:13.92,185,-131,-2048,-5,30,21,-152,-332,180,242
,628,2023-10-27 11:16:13.93,184,-128,-2055,-11,28,19,-257,-385,128,321
,629,2023-10-27 11:16:13.94,174,-138,-2049,-12,20,19,-151,-304,153,227
,630,2023-10-27 11:16:13.95,171,-148,-2027,15,-17,22,-258,-391,133,324
,631,2023-10-27 11:16:13.96,231,-123,-2083,18,1,18,-157,-325,168,241
,632,2023-10-27 11:16:13.97,191,-136,-2049,1,20,9,-271,-447,176,359
,633,2023-10-27 11:16:13.98,179,-136,-2046,-5,26,9,-181,-407,226,294
,634,2023-10-27 11:16:13.99,192,-145,-2060,-5,27,4,-275,-466,191,370
,635,2023-10-27 11:16:14.00,192,-144,-2046,3,19,3,-178,-376,198,277
,636,2023-10-27 11:16:14.01,174,-153,-2032,10,14,5,-254,-394,140,324
,637,2023-10-27 11:16:14.02,178,-155,-2051,28,-12,11,-167,-321,154,244
,638,2023-10-27 11:16:14.03,192,-157,-2054,22,11,12,-259,-407,148,333
,639,2023-10-27 11:16:14.04,181,-153,-2036,16,29,12,-189,-382,193,285
,640,2023-10-27 11:16:14.05,174,-163,-2037,18,22,19,-280,-424,144,352
,641,2023-10-27 11:16:14.06,194,-154,-2055,21,19,25,-208,-363,155,285
,642,2023-10-27 11:16:14.07,188,-155,-2049,26,13,31,-272,-377,105,324
,643,2023-10-27 11:16:14.08,191,-136,-2042,27,7,37,-201,-327,126,264
,644,2023-10-27 11:16:14.09,190,-140,-2048,16,24,35,-255,-364,109,309
,645,2023-10-27 11:16:14.10,189,-129,-2052,0,34,35,-197,-343,146,270
,646,2023-10-27 11:16:14.11,176,-130,-2054,-13,38,31,-249,-377,128,313
,647,2023-10-27 11:16:14.12,197,-120,-2048,-18,35,32,-198,-352,154,275
,648,2023-10-27 11:16:14.13,187,-119,-2043,-20,26,27,-247,-397,150,322
,649,2023-10-27 11:16:14.14,212,-118,-2039,-26,25,22,-205,-383,178,294
,650,2023-10-27 11:16:14.15,184,-113,-2043,-42,40,14,-238,-372,134,305
,651,2023-10-27 11:16:14.16,209,-100,-2041,-42,24,5,-199,-338,139,268
,652,2023-10-27 11:16:14.17,217,-92,-2052,-43,22,-4,-234,-326,92,280
,653,2023-10-27 11:16:14.18,208,-86,-2057,-47,16,-15,-200,-313,113,256
,654,2023-10-27 11:16:14.19,197,-92,-2061,-57,21,-23,-230,-309,79,269
,655,2023-10-27 11:16:14.20,195,-101,-2067,-69,20,-29,-208,-321,113,264
,656,2023-10-27 11:16:14.21,189,-115,-2089,-76,9,-28,-240,-388,148,314
,657,2023-10-27 11:16:14.22,181,-119,-2091,-70,-12,-25,-228,-423,195,325
,658,2023-10-27 11:16:14.23,187,-116,-2072,-64,-35,-17,-248,-421,173,334
,659,2023-10-27 11:16:14.24,187,-121,-2062,-62,-47,-8,-243,-419,176,331
,660,2023-10-27 11:16:14.25,191,-124,-2062,-63,-52,1,-265,-461,196,363
,661,2023-10-27 11:16:14.26,191,-129,-2061,-57,-52,9,-266,-496,230,381
,662,2023-10-27 11:16:14.27,205,-132,-2057,-49,-51,17,-256,-440,184,348
,663,2023-10-27 11:16:14.28,187,-138,-2045,-37,-53,25,-252,-416,164,334
,664,2023-10-27 11:16:14.29,204,-126,-2035,-32,-41,30,-233,-344,111,288
,665,2023-10-27 11:16:14.30,188,-126,-2041,-28,-32,34,-241,-355,114,298
,666,2023-10-27 11:16:14.31,191,-125,-2047,-24,-23,37,-204,-280,76,242
,667,2023-10-27 11:16:14.32,176,-138,-2058,-19,-12,39,-227,-319,92,273
,668,2023-10-27 11:16:14.33,174,-133,-2060,-12,-12,42,-198,-282,84,240
,669,2023-10-27 11:16:14.34,170,-120,-2048,-11,-9,45,-234,-347,113,290
,670,2023-10-27 11:16:14.35,169,-135,-2061,-4,-5,48,-194,-280,86,237
,671,2023-10-27 11:16:14.36,172,-109,-2048,-5,-3,49,-236,-334,98,285
,672,2023-10-27 11:16:14.37,175,-119,-2034,-4,-3,49,-188,-267,79,227
,673,2023-10-27 11:16:14.38,177,-111,-2043,-6,3,51,-239,-343,104,291
,674,2023-10-27 11:16:14.39,183,-97,-2035,-8,14,45,-196,-290,94,243
,675,2023-10-27 11:16:14.40,171,-104,-2049,-21,32,38,-257,-378,121,317
,676,2023-10-27 11:16:14.41,169,-108,-2059,-29,43,34,-208,-346,138,277
,677,2023-10-27 11:16:14.42,185,-100,-2056,-36,48,31,-273,-431,158,352
,678,2023-10-27 11:16:14.43,177,-102,-2049,-37,51,27,-195,-339,144,267
,679,2023-10-27 11:16:14.44,179,-101,-2046,-40,53,22,-261,-398,137,329
,680,2023-10-27 11:16:14.45,187,-95,-2045,-44,55,22,-176,-282,106,229
,681,2023-10-27 11:16:14.46,187,-87,-2037,-50,62,19,-263,-391,128,327
,682,2023-10-27 11:16:14.47,171,-21,-2120,-59,66,17,-199,-463,264,331
,683,2023-10-27 11:16:14.48,191,-110,-2025,-74,31,15,-290,-600,310,445
,684,2023-10-27 11:16:14.49,209,-128,-1962,-45,25,13,-193,-502,309,347
,685,2023-10-27 11:16:14.50,187,-81,-2082,-22,31,11,-280,-529,249,404
,686,2023-10-27 11:16:14.51,182,-117,-2067,-30,12,8,-174,-374,200,274
,687,2023-10-27 11:16:14.52,196,-92,-2070,-33,23,7,-275,-438,163,356
,688,2023-10-27 11:16:14.53,186,-97,-2073,-38,34,5,-166,-324,158,245
,689,2023-10-27 11:16:14.54,184,-103,-2072,-44,27,10,-273,-440,167,356
,690,2023-10-27 11:16:14.55,185,-106,-2062,-42,15,15,-162,-394,232,278
,691,2023-10-27 11:16:14.56,181,-109,-2052,-39,17,15,-277,-515,238,396
,692,2023-10-27 11:16:14.57,201,-105,-2044,-37,13,20,-154,-379,225,266
,693,2023-10-27 11:16:14.58,207,-90,-2049,-43,19,23,-279,-464,185,371
,694,2023-10-27 11:16:14.59,196,-94,-2045,-51,30,24,-150,-338,188,244
,695,2023-10-27 11:16:14.60,194,-87,-2031,-56,32,25,-292,-484,192,388
,696,2023-10-27 11:16:14.61,204,-84,-2032,-56,27,29,-169,-456,287,312
,697,2023-10-27 11:16:14.62,204,-91,-2055,-53,21,37,-314,-598,284,456
,698,2023-10-27 11:16:14.63,213,-80,-2039,-54,27,38,-179,-469,290,324
,699,2023-10-27 11:16:14.64,216,-77,-2044,-53,31,40,-310,-544,234,427
,700,2023-10-27 11:16:14.65,213,-74,-2042,-53,40,42,-155,-366,211,260
,701,2023-10-27 11:16:14.66,228,-67,-2047,-54,49,41,-287,-467,180,377
,702,2023-10-27 11:16:14.67,206,-65,-2039,-52,49,40,-133,-355,222,244
,703,2023-10-27 11:16:14.68,222,-62,-2047,-50,46,39,-297,-500,203,398
,704,2023-10-27 11:16:14.69,211,-61,-2058,-43,44,38,-138,-352,214,245
,705,2023-10-27 11:16:14.70,219,-58,-2054,-45,47,35,-302,-489,187,395
,706,2023-10-27 11:16:14.71,225,-47,-2076,-42,34,37,-155,-394,239,274
,707,2023-10-27 11:16:14.72,222,-46,-2062,-45,39,31,-320,-532,212,426
,708,2023-10-27 11:16:14.73,222,-32,-2064,-46,30,24,-162,-364,202,263
,709,2023-10-27 11:16:14.74,211,-25,-2074,-44,12,18,-317,-467,150,392
,710,2023-10-27 11:16:14.75,221,-24,-2077,-48,8,16,-145,-285,140,215
,711,2023-10-27 11:16:14.76,210,-23,-2063,-52,-2,11,-306,-419,113,362
,712,2023-10-27 11:16:14.77,221,-28,-2069,-55,-14,5,-133,-268,135,200
,713,2023-10-27 11:16:14.78,200,-26,-2076,-51,-27,2,-306,-432,126,369
,714,2023-10-27 11:16:14.79,212,-23,-2060,-46,-42,-1,-138,-284,146,211
,715,2023-10-27 11:16:14.80,223,-21,-2059,-42,-53,-7,-311,-449,138,380
,716,2023-10-27 11:16:14.81,215,-31,-2057,-34,-62,-11,-136,-313,177,224
,717,2023-10-27 11:16:14.82,203,-32,-2054,-22,-72,-12,-311,-463,152,387
,718,2023-10-27 11:16:14.83,198,-51,-2069,-9,-75,-12,-136,-276,140,206
,719,2023-10-27 11:16:14.84,185,-72,-2075,8,-84,-7,-316,-418,102,367
,720,2023-10-27 11:16:14.85,207,-102,-2026,41,-91,10,-129,-238,109,183
,721,2023-10-27 11:16:14.86,218,-93,-2056,62,-58,12,-312,-401,89,356
,722,2023-10-27 11:16:14.87,153,-70,-2145,51,-45,21,-131,-225,94,178
,723,2023-10-27 11:16:14.88,202,-107,-2048,29,-58,37,-321,-400,79,360
,724,2023-10-27 11:16:14.89,165,-70,-2015,43,-34,46,-139,-242,103,190
,725,2023-10-27 11:16:14.90,190,-70,-2030,50,-47,58,-329,-424,95,376
,726,2023-10-27 11:16:14.91,183,-75,-2037,39,-26,62,-140,-265,125,202
,727,2023-10-27 11:16:14.92,174,-49,-2034,30,-13,65,-334,-453,119,393
,728,2023-10-27 11:16:14.93,180,-53,-2044,24,-7,69,-141,-296,155,218
,729,2023-10-27 11:16:14.94,187,-49,-2048,19,-12,69,-329,-473,144,401
,730,2023-10-27 11:16:14.95,162,-47,-2056,8,-14,71,-129,-312,183,220
,731,2023-10-27 11:16:14.96,178,-55,-2057,1,-15,71,-321,-466,145,393
,732,2023-10-27 11:16:14.97,181,-53,-2061,3,-20,70,-122,-261,139,191
,733,2023-10-27 11:16:14.98,183,-51,-2044,4,-24,68,-325,-433,108,379
,734,2023-10-27 11:16:14.99,181,-51,-2040,6,-21,61,-128,-271,143,199
,735,2023-10-27 11:16:15.00,185,-50,-2047,5,-11,55,-325,-472,147,398
,736,2023-10-27 11:16:15.01,178,-45,-2054,6,-12,46,-135,-345,210,240
,737,2023-10-27 11:16:15.02,172,-52,-2069,14,-17,45,-332,-513,181,422
,738,2023-10-27 11:16:15.03,178,-51,-2071,17,-23,40,-125,-319,194,222
,739,2023-10-27 11:16:15.04,177,-51,-2062,19,-19,35,-325,-466,141,395
,740,2023-10-27 11:16:15.05,179,-60,-2061,17,-16,34,-120,-284,164,202
,741,2023-10-27 11:16:15.06,172,-64,-2065,16,-13,32,-317,-440,123,378
,742,2023-10-27 11:16:15.07,168,-62,-2058,23,-23,31,-106,-231,125,168
,743,2023-10-27 11:16:15.08,173,-79,-2048,29,-18,32,-311,-411,100,361
,744,2023-10-27 11:16:15.09,188,-77,-2051,34,-19,35,-117,-257,140,187
,745,2023-10-27 11:16:15.10,191,-80,-2054,37,-7,33,-315,-465,150,390
,746,2023-10-27 11:16:15.11,164,-83,-2041,39,7,31,-113,-326,213,219
,747,2023-10-27 11:16:15.12,187,-81,-2050,49,-4,34,-322,-503,181,412
,748,2023-10-27 11:16:15.13,183,-78,-2050,55,-4,36,-118,-314,196,216
,749,2023-10-27 11:16:15.14,163,-76,-2047,60,0,33,-326,-479,153,402
,750,2023-10-27 11:16:15.15,159,-78,-2054,61,2,33,-121,-308,187,214
,751,2023-10-27 11:16:15.16,162,-85,-2069,59,0,36,-335,-490,155,412
,752,2023-10-27 11:16:15.17,169,-82,-2059,59,-5,38,-128,-327,199,227
,753,2023-10-27 11:16:15.18,178,-81,-2053,59,0,39,-333,-482,149,407
,754,2023-10-27 11:16:15.19,182,-76,-2042,52,4,41,-122,-288,166,205
,755,2023-10-27 11:16:15.20,179,-81,-2050,46,10,37,-318,-429,111,373
,756,2023-10-27 11:16:15.21,169,-80,-2054,40,15,34,-108,-240,132,174
,757,2023-10-27 11:16:15.22,172,-89,-2060,39,14,33,-313,-416,103,364
,758,2023-10-27 11:16:15.23,181,-83,-2061,38,11,35,-114,-266,152,190
,759,2023-10-27 11:16:15.24,163,-85,-2054,36,10,34,-314,-432,118,373
,760,2023-10-27 11:16:15.25,171,-87,-2056,32,10,37,-108,-253,145,180
,761,2023-10-27 11:16:15.26,175,-84,-2060,29,8,38,-310,-420,110,365
,762,2023-10-27 11:16:15.27,164,-84,-2058,30,1,38,-114,-265,151,189
,763,2023-10-27 11:16:15.28,175,-75,-2052,30,-4,37,-321,-441,120,381
,764,2023-10-27 11:16:15.29,176,-82,-2045,28,-9,35,-132,-289,157,210
,765,2023-10-27 11:16:15.30,173,-85,-2048,25,-4,34,-336,-493,157,414
,766,2023-10-27 11:16:15.31,183,-79,-2050,23,-4,29,-146,-385,239,265
,767,2023-10-27 11:16:15.32,169,-85,-2052,27,-4,28,-332,-538,206,435
,768,2023-10-27 11:16:15.33,172,-82,-2052,29,-4,27,-134,-369,235,251
,769,2023-10-27 11:16:15.34,180,-93,-2052,31,-8,23,-329,-508,179,418
,770,2023-10-27 11:16:15.35,175,-89,-2057,35,-11,24,-146,-359,213,252
,771,2023-10-27 11:16:15.36,180,-87,-2054,37,-11,22,-332,-527,195,429
,772,2023-10-27 11:16:15.37,168,-92,-2064,36,-11,24,-145,-399,254,272
,773,2023-10-27 11:16:15.38,178,-92,-2057,38,-12,25,-329,-550,221,439
,774,2023-10-27 11:16:15.39,174,-97,-2063,40,-13,25,-150,-404,254,277
,775,2023-10-27 11:16:15.40,177,-102,-2056,40,-9,28,-326,-532,206,429
,776,2023-10-27 11:16:15.41,174,-97,-2054,41,-8,27,-136,-373,237,254
,777,2023-10-27 11:16:15.42,193,-101,-2069,36,2,30,-317,-486,169,401
,778,2023-10-27 11:16:15.43,171,-105,-2049,20,23,24,-146,-325,179,235
,779,2023-10-27 11:16:15.44,166,-100,-2052,30,0,36,-329,-509,180,419
,780,2023-10-27 11:16:15.45,180,-109,-2064,42,-13,43,-166,-416,250,291
,781,2023-10-27 11:16:15.46,168,-104,-2055,42,-15,45,-337,-574,237,455
,782,2023-10-27 11:16:15.47,182,-93,-2051,39,-11,47,-172,-449,277,310
,783,2023-10-27 11:16:15.48,178,-91,-2046,33,-4,46,-329,-529,200,429
,784,2023-10-27 11:16:15.49,189,-99,-2053,24,11,41,-165,-358,193,261
,785,2023-10-27 11:16:15.50,170,-95,-2048,26,7,38,-338,-481,143,409
,786,2023-10-27 11:16:15.51,176,-94,-2054,29,-6,41,-178,-363,185,270
,787,2023-10-27 11:16:15.52,171,-89,-2053,29,-9,38,-327,-474,147,400
,788,2023-10-27 11:16:15.53,181,-92,-2045,28,-13,37,-168,-344,176,256
,789,2023-10-27 11:16:15.54,178,-86,-2054,31,-14,33,-312,-433,121,372
,790,2023-10-27 11:16:15.55,190,-85,-2065,25,-4,26,-163,-301,138,232
,791,2023-10-27 11:16:15.56,157,-98,-2049,17,4,17,-309,-432,123,370
,792,2023-10-27 11:16:15.57,175,-88,-2058,23,-13,14,-171,-346,175,258
,793,2023-10-27 11:16:15.58,179,-102,-2071,25,-12,10,-304,-431,127,367
,794,2023-10-27 11:16:15.59,173,-89,-2066,27,-24,5,-160,-296,136,228
,795,2023-10-27 11:16:15.60,180,-111,-2050,25,-16,2,-295,-427,132,361
,796,2023-10-27 11:16:15.61,161,-109,-2065,28,-17,-1,-170,-362,192,266
,797,2023-10-27 11:16:15.62,183,-121,-2049,30,-17,0,-280,-435,155,357
,798,2023-10-27 11:16:15.63,165,-117,-2036,35,-20,2,-151,-310,159,230
,799,2023-10-27 11:16:15.64,157,-112,-2055,35,-24,4,-269,-379,110,324
,800,2023-10-27 11:16:15.65,168,-117,-2066,26,-10,2,-160,-291,131,225
,801,2023-10-27 11:16:15.66,144,-141,-2069,21,-8,8,-280,-392,112,336
,802,2023-10-27 11:16:15.67,157,-137,-2068,24,-11,17,-170,-321,151,245
,803,2023-10-27 11:16:15.68,148,-142,-2062,30,-17,25,-270,-399,129,334
,804,2023-10-27 11:16:15.69,142,-139,-2049,35,-17,32,-165,-322,157,243
,805,2023-10-27 11:16:15.70,157,-119,-2041,37,-17,33,-268,-395,127,331
,806,2023-10-27 11:16:15.71,161,-124,-2040,42,-11,33,-176,-322,146,249
,807,2023-10-27 11:16:15.72,157,-125,-2058,37,-4,33,-268,-365,97,316
,808,2023-10-27 11:16:15.73,162,-128,-2056,33,-3,37,-179,-294,115,236
,809,2023-10-27 11:16:15.74,153,-125,-2045,31,-1,40,-277,-380,103,328
,810,2023-10-27 11:16:15.75,149,-119,-2040,26,-5,43,-196,-341,145,268
,811,2023-10-27 11:16:15.76,146,-106,-2037,15,-2,44,-280,-393,113,336
,812,2023-10-27 11:16:15.77,148,-104,-2042,-1,9,43,-196,-332,136,264
,813,2023-10-27 11:16:15.78,150,-109,-2041,-16,14,43,-273,-368,95,320
,814,2023-10-27 11:16:15.79,164,-99,-2044,-28,20,39,-201,-319,118,260
,815,2023-10-27 11:16:15.80,167,-92,-2035,-39,24,34,-274,-365,91,319
,816,2023-10-27 11:16:15.81,171,-79,-2042,-52,30,29,-205,-327,122,266
,817,2023-10-27 11:16:15.82,162,-78,-2047,-66,36,21,-260,-347,87,303
,818,2023-10-27 11:16:15.83,164,-78,-2066,-71,38,15,-205,-324,119,264
,819,2023-10-27 11:16:15.84,159,-83,-2060,-70,32,10,-265,-362,97,313
,820,2023-10-27 11:16:15.85,169,-82,-2063,-66,28,7,-214,-352,138,283
,821,2023-10-27 11:16:15.86,171,-80,-2058,-62,23,0,-284,-437,153,360
,822,2023-10-27 11:16:15.87,183,-76,-2050,-56,24,-6,-243,-442,199,342
,823,2023-10-27 11:16:15.88,172,-83,-2059,-49,23,-12,-291,-451,160,371
,824,2023-10-27 11:16:15.89,185,-88,-2061,-40,22,-17,-240,-405,165,322
,825,2023-10-27 11:16:15.90,185,-83,-2065,-26,19,-19,-283,-422,139,352
,826,2023-10-27 11:16:15.91,176,-88,-2056,-12,14,-20,-257,-422,165,339
,827,2023-10-27 11:16:15.92,186,-91,-2051,-4,13,-20,-270,-409,139,339
,828,2023-10-27 11:16:15.93,168,-81,-2062,-1,9,-21,-235,-394,159,314
,829,2023-10-27 11:16:15.94,172,-84,-2056,4,7,-16,-247,-378,131,312
,830,2023-10-27 11:16:15.95,166,-94,-2051,12,1,-13,-230,-379,149,304
,831,2023-10-27 11:16:15.96,164,-117,-2066,16,1,-5,-240,-343,103,291
,832,2023-10-27 11:16:15.97,171,-114,-2052,21,-5,8,-227,-336,109,281
,833,2023-10-27 11:16:15.98,173,-112,-2044,27,1,17,-234,-302,68,268
,834,2023-10-27 11:16:15.99,186,-113,-2047,27,7,25,-232,-329,97,280
,835,2023-10-27 11:16:16.00,174,-106,-2051,28,14,31,-246,-335,89,290
,836,2023-10-27 11:16:16.01,175,-105,-2051,28,21,38,-255,-383,128,319
,837,2023-10-27 11:16:16.02,179,-100,-2061,27,21,44,-248,-382,134,315
,838,2023-10-27 11:16:16.03,181,-103,-2063,29,17,48,-257,-416,159,336
,839,2023-10-27 11:16:16.04,163,-93,-2058,32,13,52,-232,-376,144,304
,840,2023-10-27 11:16:16.05,174,-98,-2060,30,8,54,-250,-398,148,324
,841,2023-10-27 11:16:16.06,171,-91,-2062,31,6,55,-211,-334,123,272
,842,2023-10-27 11:16:16.07,160,-90,-2061,33,-2,53,-242,-378,136,310
,843,2023-10-27 11:16:16.08,170,-85,-2061,35,-9,50,-214,-370,156,292
,844,2023-10-27 11:16:16.09,174,-82,-2057,34,-14,46,-254,-435,181,344
,845,2023-10-27 11:16:16.10,164,-81,-2057,34,-14,42,-222,-405,183,313
,846,2023-10-27 11:16:16.11,162,-83,-2057,31,-18,37,-268,-442,174,355
,847,2023-10-27 11:16:16.12,165,-82,-2055,31,-18,32,-214,-342,128,278
,848,2023-10-27 11:16:16.13,164,-92,-2053,30,-15,26,-257,-372,115,314
,849,2023-10-27 11:16:16.14,172,-91,-2049,26,-16,21,-202,-280,78,241
,850,2023-10-27 11:16:16.15,169,-91,-2046,23,-11,19,-258,-346,88,302
,851,2023-10-27 11:16:16.16,172,-99,-2044,21,-8,17,-193,-262,69,227
,852,2023-10-27 11:16:16.17,178,-100,-2052,20,-7,12,-257,-356,99,306
,853,2023-10-27 11:16:16.18,163,-105,-2054,22,-4,14,-208,-358,150,283
,854,2023-10-27 11:16:16.19,169,-105,-2054,21,-2,11,-287,-462,175,374
,855,2023-10-27 11:16:16.20,156,-106,-2060,21,-1,12,-211,-360,149,285
,856,2023-10-27 11:16:16.21,162,-105,-2072,20,2,13,-282,-412,130,347
,857,2023-10-27 11:16:16.22,169,-107,-2065,19,5,17,-203,-298,95,250
,858,2023-10-27 11:16:16.23,166,-110,-2055,21,4,18,-278,-382,104,330
,859,2023-10-27 11:16:16.24,162,-113,-2053,24,1,21,-197,-319,122,258
,860,2023-10-27 11:16:16.25,165,-101,-2058,25,3,22,-287,-432,145,359
,861,2023-10-27 11:16:16.26,163,-101,-2053,26,5,24,-200,-372,172,286
,862,2023-10-27 11:16:16.27,166,-103,-2060,28,6,25,-292,-455,163,373
,863,2023-10-27 11:16:16.28,168,-100,-2054,30,4,26,-178,-306,128,242
,864,2023-10-27 11:16:16.29,164,-98,-2052,33,1,24,-284,-402,118,343
,865,2023-10-27 11:16:16.30,161,-102,-2061,33,0,25,-181,-322,141,251
,866,2023-10-27 11:16:16.31,175,-94,-2064,34,-2,22,-296,-442,146,369
,867,2023-10-27 11:16:16.32,202,-90,-2087,31,6,22,-186,-324,138,255
,868,2023-10-27 11:16:16.33,160,-96,-2067,23,10,17,-292,-416,124,354
,869,2023-10-27 11:16:16.34,171,-89,-2065,22,0,19,-177,-303,126,240
,870,2023-10-27 11:16:16.35,165,-95,-2069,20,-1,20,-296,-422,126,359
,871,2023-10-27 11:16:16.36,170,-98,-2066,24,-9,24,-148,-281,133,214
,872,2023-10-27 11:16:16.37,163,-104,-2052,20,0,21,-276,-410,134,343
,873,2023-10-27 11:16:16.38,158,-106,-2038,22,-1,19,-150,-320,170,235
,874,2023-10-27 11:16:16.39,171,-115,-2035,31,-1,20,-303,-496,193,399
,875,2023-10-27 11:16:16.40,178,-105,-2025,41,0,20,-185,-505,320,345
,876,2023-10-27 11:16:16.41,184,-103,-2016,47,14,12,-329,-639,310,484
,877,2023-10-27 11:16:16.42,177,-107,-2026,48,27,7,-174,-474,300,324
,878,2023-10-27 11:16:16.43,172,-107,-2018,48,40,1,-314,-542,228,428
,879,2023-10-27 11:16:16.44,184,-119,-2052,52,46,-6,-160,-398,238,279
,880,2023-10-27 11:16:16.45,170,-104,-2045,58,39,-12,-314,-509,195,411
,881,2023-10-27 11:16:16.46,164,-98,-2044,63,29,-16,-151,-338,187,244
,882,2023-10-27 11:16:16.47,169,-116,-2066,62,20,-18,-315,-464,149,389
,883,2023-10-27 11:16:16.48,151,-112,-2083,59,6,-20,-165,-334,169,249
,884,2023-10-27 11:16:16.49,156,-119,-2080,61,-17,-19,-335,-487,152,411
,885,2023-10-27 11:16:16.50,154,-128,-2073,71,-36,-19,-176,-334,158,255
,886,2023-10-27 11:16:16.51,152,-138,-2053,74,-48,-14,-336,-475,139,405
,887,2023-10-27 11:16:16.52,167,-151,-2051,72,-46,-13,-160,-318,158,239
,888,2023-10-27 11:16:16.53,167,-148,-2041,70,-36,-12,-326,-470,144,398
,889,2023-10-27 11:16:16.54,166,-153,-2045,71,-27,-10,-148,-300,152,224
,890,2023-10-27 11:16:16.55,204,-152,-2083,56,12,-12,-329,-473,144,401
,891,2023-10-27 11:16:16.56,137,-169,-2045,33,34,-13,-159,-362,203,260
,892,2023-10-27 11:16:16.57,149,-158,-2054,34,18,5,-335,-529,194,432
,893,2023-10-27 11:16:16.58,167,-164,-2060,40,11,16,-142,-360,218,251
,894,2023-10-27 11:16:16.59,144,-153,-2041,43,5,25,-318,-516,198,417
,895,2023-10-27 11:16:16.60,170,-150,-2039,31,16,35,-137,-385,248,261
,896,2023-10-27 11:16:16.61,163,-141,-2050,13,33,36,-329,-576,247,452
,897,2023-10-27 11:16:16.62,174,-135,-2052,-1,41,34,-157,-490,333,323
,898,2023-10-27 11:16:16.63,171,-132,-2047,-5,43,35,-333,-608,275,470
,899,2023-10-27 11:16:16.64,176,-126,-2048,-8,47,32,-119,-354,235,236
,900,2023-10-27 11:16:16.65,176,-128,-2035,-13,50,30,-316,-488,172,402
,901,2023-10-27 11:16:16.66,177,-121,-2036,-22,57,26,-138,-361,223,249
,902,2023-10-27 11:16:16.67,184,-116,-2041,-27,61,22,-338,-544,206,441
,903,2023-10-27 11:16:16.68,187,-117,-2036,-26,65,15,-148,-377,229,262
,904,2023-10-27 11:16:16.69,178,-126,-2045,-27,65,12,-332,-526,194,429
,905,2023-10-27 11:16:16.70,166,-119,-2049,-25,60,9,-130,-358,228,244
,906,2023-10-27 11:16:16.71,179,-108,-2034,-18,47,11,-319,-507,188,413
,907,2023-10-27 11:16:16.72,181,-133,-2060,-9,36,10,-123,-333,210,228
,908,2023-10-27 11:16:16.73,180,-125,-2071,-2,23,13,-340,-540,200,440
,909,2023-10-27 11:16:16.74,192,-114,-2072,-2,17,11,-159,-464,305,311
,910,2023-10-27 11:16:16.75,186,-116,-2068,2,10,9,-349,-612,263,480
,911,2023-10-27 11:16:16.76,199,-107,-2070,9,11,5,-132,-380,248,256
,912,2023-10-27 11:16:16.77,189,-117,-2044,13,17,-2,-322,-484,162,403
,913,2023-10-27 11:16:16.78,187,-120,-2044,26,10,-6,-111,-273,162,192
,914,2023-10-27 11:16:16.79,197,-134,-2058,35,13,-14,-326,-477,151,401
,915,2023-10-27 11:16:16.80,177,-130,-2061,40,16,-14,-133,-364,231,248
,916,2023-10-27 11:16:16.81,189,-124,-2068,48,10,-15,-348,-554,206,451
,917,2023-10-27 11:16:16.82,178,-128,-2067,49,14,-16,-144,-374,230,259
,918,2023-10-27 11:16:16.83,168,-124,-2071,49,5,-13,-351,-531,180,441
,919,2023-10-27 11:16:16.84,185,-134,-2056,53,-1,-8,-144,-356,212,250
,920,2023-10-27 11:16:16.85,185,-134,-2047,49,-2,-1,-349,-525,176,437
,921,2023-10-27 11:16:16.86,183,-140,-2038,49,1,2,-153,-352,199,252
,922,2023-10-27 11:16:16.87,177,-146,-2031,44,6,9,-348,-496,148,422
,923,2023-10-27 11:16:16.88,167,-157,-2034,40,11,16,-136,-287,151,211
,924,2023-10-27 11:16:16.89,176,-148,-2034,41,16,22,-326,-433,107,379
,925,2023-10-27 11:16:16.90,166,-153,-2047,39,15,27,-118,-245,127,181
,926,2023-10-27 11:16:16.91,162,-144,-2038,38,10,38,-329,-466,137,397
,927,2023-10-27 11:16:16.92,178,-150,-2051,35,12,41,-138,-361,223,249
,928,2023-10-27 11:16:16.93,175,-137,-2046,33,22,46,-334,-524,190,429
,929,2023-10-27 11:16:16.94,178,-123,-2047,27,20,48,-124,-323,199,223
,930,2023-10-27 11:16:16.95,174,-130,-2052,24,21,43,-319,-462,143,390
,931,2023-10-27 11:16:16.96,201,-132,-2052,18,17,46,-119,-288,169,203
,932,2023-10-27 11:16:16.97,182,-136,-2072,16,25,43,-324,-443,119,383
,933,2023-10-27 11:16:16.98,196,-136,-2053,11,31,41,-131,-269,138,200
,934,2023-10-27 11:16:16.99,195,-136,-2063,17,22,40,-329,-415,86,372
,935,2023-10-27 11:16:17.00,183,-143,-2080,17,21,42,-118,-225,107,171
,936,2023-10-27 11:16:17.01,194,-145,-2054,18,22,42,-333,-448,115,390
,937,2023-10-27 11:16:17.02,188,-135,-2023,23,11,46,-150,-360,210,255
,938,2023-10-27 11:16:17.03,207,-125,-2011,28,4,47,-344,-561,217,452
,939,2023-10-27 11:16:17.04,209,-121,-2011,19,31,37,-131,-413,282,272
,940,2023-10-27 11:16:17.05,203,-98,-2020,11,33,34,-323,-526,203,424
,941,2023-10-27 11:16:17.06,204,-99,-2027,7,35,26,-132,-326,194,229
,942,2023-10-27 11:16:17.07,219,-103,-2060,5,36,18,-328,-477,149,402
,943,2023-10-27 11:16:17.08,228,-101,-2063,-6,49,7,-134,-339,205,236
,944,2023-10-27 11:16:17.09,194,-92,-2070,-16,54,-6,-324,-488,164,406
,945,2023-10-27 11:16:17.10,202,-93,-2100,-16,35,-12,-128,-309,181,218
,946,2023-10-27 11:16:17.11,179,-112,-2105,-17,17,-19,-323,-437,114,380
,947,2023-10-27 11:16:17.12,168,-116,-2119,-7,-20,-21,-138,-266,128,202
,948,2023-10-27 11:16:17.13,177,-119,-2099,2,-60,-21,-320,-396,76,358
,949,2023-10-27 11:16:17.14,170,-117,-2093,11,-94,-19,-141,-240,99,190
,950,2023-10-27 11:16:17.15,176,-129,-2080,20,-119,-19,-320,-396,76,358
,951,2023-10-27 11:16:17.16,175,-123,-2087,27,-127,-25,-144,-261,117,202
,952,2023-10-27 11:16:17.17,178,-121,-2085,27,-131,-31,-323,-422,99,372
,953,2023-10-27 11:16:17.18,188,-114,-2068,24,-125,-42,-140,-277,137,208
,954,2023-10-27 11:16:17.19,173,-107,-2047,19,-114,-54,-301,-389,88,345
,955,2023-10-27 11:16:17.20,170,-117,-2046,13,-102,-64,-117,-222,105,169
,956,2023-10-27 11:16:17.21,175,-110,-2031,9,-97,-74,-316,-366,50,341
,957,2023-10-27 11:16:17.22,180,-121,-2007,14,-84,-83,-170,-248,78,209
,958,2023-10-27 11:16:17.23,179,-133,-1997,19,-68,-94,-339,-399,60,369
,959,2023-10-27 11:16:17.24,198,-127,-1982,23,-44,-104,-156,-269,113,212
,960,2023-10-27 11:16:17.25,172,-146,-2006,24,-10,-112,-306,-391,85,348
,961,2023-10-27 11:16:17.26,180,-166,-2013,24,15,-113,-138,-261,123,199
,962,2023-10-27 11:16:17.27,178,-165,-2020,26,41,-112,-281,-350,69,315
,963,2023-10-27 11:16:17.28,180,-180,-2020,38,45,-101,-109,-205,96,157
,964,2023-10-27 11:16:17.29,176,-169,-2033,42,54,-94,-263,-375,112,319
,965,2023-10-27 11:16:17.30,155,-188,-2031,41,60,-83,-111,-299,188,205
,966,2023-10-27 11:16:17.31,156,-193,-2037,47,53,-64,-248,-392,144,320
,967,2023-10-27 11:16:17.32,182,-190,-2038,67,29,-46,-92,-245,153,168
,968,2023-10-27 11:16:17.33,188,-173,-2049,87,19,-36,-236,-348,112,292
,969,2023-10-27 11:16:17.34,172,-164,-2050,100,7,-28,-97,-243,146,170
,970,2023-10-27 11:16:17.35,197,-156,-2064,95,10,-24,-228,-328,100,278
,971,2023-10-27 11:16:17.36,201,-161,-2061,77,34,-22,-98,-210,112,154
,972,2023-10-27 11:16:17.37,186,-163,-2085,59,55,-20,-247,-377,130,312
,973,2023-10-27 11:16:17.38,184,-178,-2110,52,52,-18,-136,-327,191,231
,974,2023-10-27 11:16:17.39,181,-178,-2108,43,51,-8,-250,-388,138,319
,975,2023-10-27 11:16:17.40,154,-187,-2102,42,31,-2,-123,-253,130,188
,976,2023-10-27 11:16:17.41,156,-194,-2125,48,-7,11,-235,-301,66,268
,977,2023-10-27 11:16:17.42,145,-187,-2103,60,-49,22,-133,-229,96,181
,978,2023-10-27 11:16:17.43,141,-191,-2087,76,-98,31,-250,-366,116,308
,979,2023-10-27 11:16:17.44,149,-175,-2073,85,-127,41,-152,-330,178,241
,980,2023-10-27 11:16:17.45,150,-169,-2058,86,-139,41,-250,-385,135,317
,981,2023-10-27 11:16:17.46,141,-170,-2053,79,-139,37,-152,-288,136,220
,982,2023-10-27 11:16:17.47,146,-165,-2055,69,-135,29,-266,-348,82,307
,983,2023-10-27 11:16:17.48,138,-175,-2055,59,-135,20,-178,-290,112,234
,984,2023-10-27 11:16:17.49,135,-162,-2050,46,-137,11,-286,-360,74,323
,985,2023-10-27 11:16:17.50,138,-170,-2055,25,-132,6,-198,-310,112,254
,986,2023-10-27 11:16:17.51,114,-173,-2042,-2,-112,-5,-292,-374,82,333
,987,2023-10-27 11:16:17.52,118,-146,-2030,-27,-109,-8,-201,-324,123,262
,988,2023-10-27 11:16:17.53,115,-160,-2019,-45,-101,-14,-288,-368,80,328
,989,2023-10-27 11:16:17.54,113,-166,-2021,-52,-105,-16,-207,-319,112,263
,990,2023-10-27 11:16:17.55,141,-182,-2030,-44,-107,-17,-299,-367,68,333
,991,2023-10-27 11:16:17.56,144,-197,-2021,-39,-82,-16,-219,-315,96,267
,992,2023-10-27 11:16:17.57,144,-199,-2023,-44,-50,-18,-292,-347,55,319
,993,2023-10-27 11:16:17.58,136,-188,-2024,-52,-13,-18,-219,-306,87,262
,994,2023-10-27 11:16:17.59,126,-189,-2043,-56,15,-15,-290,-344,54,317
,995,2023-10-27 11:16:17.60,128,-190,-2052,-53,24,-11,-230,-322,92,276
,996,2023-10-27 11:16:17.61,128,-178,-2057,-48,21,-6,-302,-395,93,348
,997,2023-10-27 11:16:17.62,128,-163,-2045,-43,26,-3,-254,-395,141,324
,998,2023-10-27 11:16:17.63,138,-166,-2034,-48,37,-3,-296,-399,103,347
,999,2023-10-27 11:16:17.64,138,-163,-2033,-54,50,-5,-241,-358,117,299
,1000,2023-10-27 11:16:17.65,139,-162,-2033,-57,63,-2,-270,-333,63,301
,1001,2023-10-27 11:16:17.66,147,-161,-2023,-54,72,-3,-229,-317,88,273
,1002,2023-10-27 11:16:17.67,146,-152,-2023,-54,75,-3,-253,-312,59,282
,1003,2023-10-27 11:16:17.68,135,-149,-2022,-55,76,-3,-220,-311,91,265
,1004,2023-10-27 11:16:17.69,144,-140,-2020,-58,80,-1,-244,-291,47,267
,1005,2023-10-27 11:16:17.70,141,-146,-2031,-64,81,6,-222,-298,76,260
,1006,2023-10-27 11:16:17.71,144,-145,-2052,-71,79,14,-230,-273,43,251
,1007,2023-10-27 11:16:17.72,138,-149,-2066,-73,66,27,-212,-292,80,252
,1008,2023-10-27 11:16:17.73,131,-153,-2071,-79,49,40,-222,-270,48,246
,1009,2023-10-27 11:16:17.74,138,-146,-2079,-84,33,54,-217,-305,88,261
,1010,2023-10-27 11:16:17.75,143,-142,-2071,-94,20,67,-227,-316,89,271
,1011,2023-10-27 11:16:17.76,144,-125,-2072,-103,13,75,-226,-359,133,292
,1012,2023-10-27 11:16:17.77,152,-102,-2067,-112,5,80,-218,-316,98,267
,1013,2023-10-27 11:16:17.78,163,-96,-2063,-120,-1,77,-220,-332,112,276
,1014,2023-10-27 11:16:17.79,161,-92,-2056,-119,-3,73,-201,-303,102,252
,1015,2023-10-27 11:16:17.80,171,-76,-2049,-115,-3,61,-215,-347,132,281
,1016,2023-10-27 11:16:17.81,176,-85,-2034,-109,8,47,-206,-340,134,273
,1017,2023-10-27 11:16:17.82,181,-93,-2047,-101,19,26,-234,-389,155,311
,1018,2023-10-27 11:16:17.83,181,-97,-2048,-88,31,15,-202,-335,133,268
,1019,2023-10-27 11:16:17.84,178,-105,-2049,-75,37,1,-228,-368,140,298
,1020,2023-10-27 11:16:17.85,183,-98,-2053,-61,44,-10,-181,-308,127,244
,1021,2023-10-27 11:16:17.86,160,-93,-2020,-44,45,-26,-225,-357,132,291
,1022,2023-10-27 11:16:17.87,154,-100,-2055,-4,-4,-25,-173,-263,90,218
,1023,2023-10-27 11:16:17.88,245,-91,-2067,17,3,-32,-225,-320,95,272
,1024,2023-10-27 11:16:17.89,170,-99,-2022,12,47,-53,-164,-244,80,204
,1025,2023-10-27 11:16:17.90,184,-90,-2022,9,45,-62,-222,-322,100,272
,1026,2023-10-27 11:16:17.91,214,-94,-2041,0,65,-69,-166,-245,79,205
,1027,2023-10-27 11:16:17.92,166,-108,-2039,-3,87,-81,-239,-334,95,286
,1028,2023-10-27 11:16:17.93,174,-122,-2042,13,52,-77,-170,-280,110,225
,1029,2023-10-27 11:16:17.94,218,-108,-2042,18,53,-76,-249,-385,136,317
,1030,2023-10-27 11:16:17.95,199,-110,-2034,7,87,-80,-169,-316,147,242
,1031,2023-10-27 11:16:17.96,185,-118,-2071,-9,96,-77,-257,-412,155,334
,1032,2023-10-27 11:16:17.97,179,-120,-2066,-17,89,-70,-161,-322,161,241
,1033,2023-10-27 11:16:17.98,204,-115,-2069,-9,72,-61,-251,-417,166,334
,1034,2023-10-27 11:16:17.99,183,-128,-2082,-2,58,-49,-157,-328,171,242
,1035,2023-10-27 11:16:18.00,193,-128,-2083,-11,47,-37,-257,-420,163,338
,1036,2023-10-27 11:16:18.01,191,-122,-2087,-23,52,-25,-141,-270,129,205
,1037,2023-10-27 11:16:18.02,176,-103,-2094,-23,35,-15,-246,-359,113,302
,1038,2023-10-27 11:16:18.03,192,-100,-2079,-20,13,-8,-148,-264,116,206
,1039,2023-10-27 11:16:18.04,173,-98,-2080,-16,-3,-2,-268,-393,125,330
,1040,2023-10-27 11:16:18.05,170,-110,-2081,-16,-33,6,-154,-278,124,216
,1041,2023-10-27 11:16:18.06,161,-111,-2066,-9,-46,15,-267,-395,128,331
,1042,2023-10-27 11:16:18.07,173,-110,-2067,-4,-58,23,-147,-285,138,216
,1043,2023-10-27 11:16:18.08,173,-107,-2057,0,-69,30,-269,-409,140,339
,1044,2023-10-27 11:16:18.09,179,-101,-2044,-1,-70,37,-139,-267,128,203
,1045,2023-10-27 11:16:18.10,178,-97,-2033,-3,-64,38,-265,-383,118,324
,1046,2023-10-27 11:16:18.11,170,-82,-2031,-13,-56,36,-134,-239,105,186
,1047,2023-10-27 11:16:18.12,166,-91,-2034,-22,-46,36,-267,-367,100,317
,1048,2023-10-27 11:16:18.13,161,-100,-2041,-26,-40,36,-134,-216,82,175
,1049,2023-10-27 11:16:18.14,158,-102,-2054,-27,-32,37,-269,-354,85,311
,1050,2023-10-27 11:16:18.15,156,-99,-2063,-25,-27,38,-130,-208,78,169
,1051,2023-10-27 11:16:18.16,156,-91,-2052,-27,-26,36,-276,-354,78,315
,1052,2023-10-27 11:16:18.17,161,-83,-2046,-26,-22,35,-136,-207,71,171
,1053,2023-10-27 11:16:18.18,159,-77,-2043,-26,-21,28,-283,-349,66,316
,1054,2023-10-27 11:16:18.19,171,-72,-2044,-25,-18,20,-131,-192,61,161
,1055,2023-10-27 11:16:18.20,165,-77,-2050,-23,-17,14,-282,-343,61,312
,1056,2023-10-27 11:16:18.21,167,-90,-2061,-17,-15,7,-129,-188,59,158
,1057,2023-10-27 11:16:18.22,156,-93,-2067,-7,-18,0,-287,-350,63,318
,1058,2023-10-27 11:16:18.23,166,-112,-2072,4,-23,-3,-132,-205,73,168
,1059,2023-10-27 11:16:18.24,161,-103,-2070,14,-27,-5,-293,-370,77,331
,1060,2023-10-27 11:16:18.25,155,-96,-2054,22,-31,-5,-127,-227,100,177
,1061,2023-10-27 11:16:18.26,159,-96,-2052,24,-27,-6,-294,-385,91,339
,1062,2023-10-27 11:16:18.27,169,-99,-2043,26,-24,-8,-125,-208,83,166
,1063,2023-10-27 11:16:18.28,168,-105,-2038,23,-19,-7,-301,-368,67,334
,1064,2023-10-27 11:16:18.29,154,-125,-2063,21,-11,-5,-124,-224,100,174
,1065,2023-10-27 11:16:18.30,151,-108,-2069,20,-17,-2,-299,-391,92,345
,1066,2023-10-27 11:16:18.31,170,-99,-2047,15,-20,1,-114,-216,102,165
,1067,2023-10-27 11:16:18.32,173,-98,-2048,11,-19,3,-300,-374,74,337
,1068,2023-10-27 11:16:18.33,177,-98,-2031,4,-16,5,-124,-197,73,160
,1069,2023-10-27 11:16:18.34,175,-97,-2041,-9,-7,2,-312,-367,55,339
,1070,2023-10-27 11:16:18.35,175,-98,-2052,-21,-3,5,-120,-191,71,155
,1071,2023-10-27 11:16:18.36,185,-90,-2036,-23,-2,7,-310,-376,66,343
,1072,2023-10-27 11:16:18.37,174,-98,-2037,-23,-2,13,-112,-218,106,165
,1073,2023-10-27 11:16:18.38,159,-106,-2049,-28,1,17,-305,-394,89,349
,1074,2023-10-27 11:16:18.39,166,-112,-2078,-41,5,25,-112,-209,97,160
,1075,2023-10-27 11:16:18.40,169,-116,-2076,-69,32,30,-305,-397,92,351
,1076,2023-10-27 11:16:18.41,125,-111,-2075,-63,8,44,-114,-269,155,191
,1077,2023-10-27 11:16:18.42,182,-115,-2064,-58,-20,58,-310,-442,132,376
,1078,2023-10-27 11:16:18.43,163,-110,-2068,-54,-20,64,-102,-242,140,172
,1079,2023-10-27 11:16:18.44,148,-98,-2064,-61,-28,66,-299,-390,91,344
,1080,2023-10-27 11:16:18.45,155,-82,-2089,-69,-36,70,-90,-189,99,139
,1081,2023-10-27 11:16:18.46,135,-82,-2087,-71,-44,67,-300,-377,77,338
,1082,2023-10-27 11:16:18.47,141,-69,-2081,-66,-65,63,-102,-210,108,156
,1083,2023-10-27 11:16:18.48,177,-58,-2069,-63,-82,58,-320,-434,114,377
,1084,2023-10-27 11:16:18.49,160,-43,-2057,-62,-84,45,-125,-304,179,214
,1085,2023-10-27 11:16:18.50,164,-44,-2038,-67,-78,30,-329,-476,147,402
,1086,2023-10-27 11:16:18.51,168,-54,-1962,-31,-76,4,-112,-263,151,187
,1087,2023-10-27 11:16:18.52,146,-14,-2059,-5,-59,-11,-314,-407,93,360
,1088,2023-10-27 11:16:18.53,123,-64,-2131,-12,-72,-27,-101,-206,105,153
,1089,2023-10-27 11:16:18.54,152,-61,-2172,-47,-53,-39,-310,-393,83,351
,1090,2023-10-27 11:16:18.55,133,-51,-2060,-64,-62,-50,-102,-214,112,158
,1091,2023-10-27 11:16:18.56,117,-63,-2032,-51,-65,-54,-318,-419,101,368
,1092,2023-10-27 11:16:18.57,157,-67,-2054,-54,-62,-60,-116,-260,144,188
,1093,2023-10-27 11:16:18.58,114,-70,-2043,-47,-59,-62,-319,-426,107,372
,1094,2023-10-27 11:16:18.59,128,-72,-2048,-29,-69,-56,-98,-213,115,155
,1095,2023-10-27 11:16:18.60,132,-79,-2048,-14,-73,-49,-297,-377,80,337
,1096,2023-10-27 11:16:18.61,124,-79,-2027,-16,-55,-45,-91,-190,99,140
,1097,2023-10-27 11:16:18.62,122,-76,-2046,-22,-48,-38,-297,-372,75,334
,1098,2023-10-27 11:16:18.63,118,-87,-2050,-21,-45,-24,-83,-184,101,133
,1099,2023-10-27 11:16:18.64,133,-87,-2048,-15,-36,-13,-297,-416,119,356
,1100,2023-10-27 11:16:18.65,109,-87,-2034,-12,-36,0,-96,-300,204,198
,1101,2023-10-27 11:16:18.66,122,-87,-2044,-13,-30,14,-308,-512,204,410
,1102,2023-10-27 11:16:18.67,104,-76,-2049,-13,-21,25,-110,-366,256,238
,1103,2023-10-27 11:16:18.68,115,-74,-2049,-11,-17,37,-308,-504,196,406
,1104,2023-10-27 11:16:18.69,118,-79,-2055,-13,-9,46,-106,-291,185,198
,1105,2023-10-27 11:16:18.70,102,-67,-2057,-19,5,51,-306,-442,136,374
,1106,2023-10-27 11:16:18.71,104,-61,-2058,-24,11,51,-111,-274,163,192
,1107,2023-10-27 11:16:18.72,126,-54,-2056,-26,16,55,-318,-473,155,395
,1108,2023-10-27 11:16:18.73,111,-58,-2073,-23,17,53,-123,-344,221,233
,1109,2023-10-27 11:16:18.74,121,-47,-2064,-21,16,54,-320,-502,182,411
,1110,2023-10-27 11:16:18.75,124,-36,-2052,-19,26,45,-122,-322,200,222
,1111,2023-10-27 11:16:18.76,122,-28,-2051,-19,26,38,-316,-452,136,384
,1112,2023-10-27 11:16:18.77,121,-21,-2055,-20,26,27,-121,-271,150,196
,1113,2023-10-27 11:16:18.78,118,-33,-2061,-19,21,18,-323,-445,122,384
,1114,2023-10-27 11:16:18.79,119,-23,-2056,-9,13,11,-135,-311,176,223
,1115,2023-10-27 11:16:18.80,129,-43,-2047,-5,8,5,-332,-460,128,396
,1116,2023-10-27 11:16:18.81,121,-46,-2044,1,7,2,-131,-283,152,207
,1117,2023-10-27 11:16:18.82,118,-45,-2040,-2,10,-2,-330,-440,110,385
,1118,2023-10-27 11:16:18.83,108,-58,-2056,-2,12,0,-137,-295,158,216
,1119,2023-10-27 11:16:18.84,112,-64,-2051,2,5,9,-326,-436,110,381
,1120,2023-10-27 11:16:18.85,121,-62,-2062,2,5,20,-132,-266,134,199
,1121,2023-10-27 11:16:18.86,123,-68,-2061,-1,9,30,-322,-406,84,364
,1122,2023-10-27 11:16:18.87,118,-62,-2055,-8,17,41,-131,-255,124,193
,1123,2023-10-27 11:16:18.88,120,-61,-2069,-20,25,52,-312,-384,72,348
,1124,2023-10-27 11:16:18.89,109,-56,-2067,-29,29,62,-123,-223,100,173
,1125,2023-10-27 11:16:18.90,127,-50,-2068,-30,26,69,-300,-371,71,335
,1126,2023-10-27 11:16:18.91,129,-39,-2067,-26,25,72,-118,-239,121,178
,1127,2023-10-27 11:16:18.92,131,-28,-2053,-22,23,71,-295,-377,82,336
,1128,2023-10-27 11:16:18.93,131,-32,-2063,-21,25,68,-119,-237,118,178
,1129,2023-10-27 11:16:18.94,127,-38,-2066,-11,21,63,-303,-433,130,368
,1130,2023-10-27 11:16:18.95,131,-36,-2073,2,13,60,-135,-352,217,243
,1131,2023-10-27 11:16:18.96,121,-36,-2073,17,7,52,-309,-491,182,400
,1132,2023-10-27 11:16:18.97,129,-39,-2070,33,1,46,-138,-345,207,241
,1133,2023-10-27 11:16:18.98,130,-26,-2061,45,-7,37,-299,-435,136,367
,1134,2023-10-27 11:16:18.99,136,-17,-2055,52,-10,29,-130,-282,152,206
,1135,2023-10-27 11:16:19.00,138,-23,-2040,60,-16,22,-291,-386,95,338
,1136,2023-10-27 11:16:19.01,132,-59,-2049,66,-13,18,-132,-260,128,196
,1137,2023-10-27 11:16:19.02,132,-53,-2045,76,-14,14,-288,-376,88,332
,1138,2023-10-27 11:16:19.03,125,-66,-2059,74,-6,18,-135,-258,123,196
,1139,2023-10-27 11:16:19.04,119,-63,-2047,71,-2,21,-285,-362,77,323
,1140,2023-10-27 11:16:19.05,120,-65,-2049,67,5,26,-138,-245,107,191
,1141,2023-10-27 11:16:19.06,117,-70,-2063,62,12,30,-296,-366,70,331
,1142,2023-10-27 11:16:19.07,129,-73,-2063,62,10,36,-154,-268,114,211
,1143,2023-10-27 11:16:19.08,131,-66,-2056,59,9,45,-299,-371,72,335
,1144,2023-10-27 11:16:19.09,135,-71,-2056,54,14,50,-154,-260,106,207
,1145,2023-10-27 11:16:19.10,117,-63,-2064,47,20,50,-297,-361,64,329
,1146,2023-10-27 11:16:19.11,120,-62,-2062,42,20,55,-153,-258,105,205
,1147,2023-10-27 11:16:19.12,125,-67,-2056,39,21,59,-288,-347,59,317
,1148,2023-10-27 11:16:19.13,125,-54,-2052,40,16,59,-161,-251,90,206
,1149,2023-10-27 11:16:19.14,133,-48,-2049,35,18,56,-287,-337,50,312
,1150,2023-10-27 11:16:19.15,139,-60,-2047,33,20,53,-162,-256,94,209
,1151,2023-10-27 11:16:19.16,137,-58,-2059,31,22,50,-276,-375,99,325
,1152,2023-10-27 11:16:19.17,126,-55,-2061,33,16,44,-161,-312,151,236
,1153,2023-10-27 11:16:19.18,125,-57,-2055,36,14,43,-271,-377,106,324
,1154,2023-10-27 11:16:19.19,131,-66,-2061,41,14,44,-157,-286,129,221
,1155,2023-10-27 11:16:19.20,128,-65,-2050,39,12,42,-266,-338,72,302
,1156,2023-10-27 11:16:19.21,126,-71,-2065,40,10,41,-165,-268,103,216
,1157,2023-10-27 11:16:19.22,118,-75,-2058,45,11,42,-265,-329,64,297
,1158,2023-10-27 11:16:19.23,129,-74,-2063,49,8,43,-175,-268,93,221
,1159,2023-10-27 11:16:19.24,127,-72,-2058,55,3,40,-274,-355,81,314
,1160,2023-10-27 11:16:19.25,129,-82,-2057,57,3,43,-192,-320,128,256
,1161,2023-10-27 11:16:19.26,131,-83,-2055,62,4,44,-274,-372,98,323
,1162,2023-10-27 11:16:19.27,133,-85,-2062,62,4,42,-192,-319,127,255
,1163,2023-10-27 11:16:19.28,121,-84,-2060,65,6,45,-281,-396,115,338
,1164,2023-10-27 11:16:19.29,133,-80,-2065,62,9,42,-208,-371,163,289
,1165,2023-10-27 11:16:19.30,132,-87,-2057,58,16,40,-275,-397,122,336
,1166,2023-10-27 11:16:19.31,121,-79,-2068,61,-2,42,-204,-340,136,272
,1167,2023-10-27 11:16:19.32,126,-80,-2064,61,-10,43,-264,-345,81,304
,1168,2023-10-27 11:16:19.33,123,-84,-2065,61,-5,42,-203,-306,103,254
,1169,2023-10-27 11:16:19.34,126,-85,-2051,53,4,35,-257,-332,75,294
,1170,2023-10-27 11:16:19.35,112,-91,-2053,51,-5,35,-202,-319,117,260
,1171,2023-10-27 11:16:19.36,136,-98,-2041,52,-13,40,-258,-353,95,305
,1172,2023-10-27 11:16:19.37,116,-97,-2059,56,-9,37,-209,-339,130,274
,1173,2023-10-27 11:16:19.38,132,-99,-2050,53,-7,33,-258,-338,80,298
,1174,2023-10-27 11:16:19.39,144,-93,-2041,47,10,31,-218,-319,101,268
,1175,2023-10-27 11:16:19.40,113,-103,-2048,45,10,30,-252,-306,54,279
,1176,2023-10-27 11:16:19.41,134,-108,-2055,47,5,33,-213,-296,83,254
,1177,2023-10-27 11:16:19.42,122,-102,-2053,47,8,34,-235,-281,46,258
,1178,2023-10-27 11:16:19.43,128,-109,-2054,50,5,37,-207,-292,85,249
,1179,2023-10-27 11:16:19.44,115,-112,-2057,47,3,39,-251,-348,97,299
,1180,2023-10-27 11:16:19.45,125,-115,-2066,44,4,41,-235,-386,151,310
,1181,2023-10-27 11:16:19.46,129,-108,-2062,41,0,42,-252,-374,122,313
,1182,2023-10-27 11:16:19.47,140,-96,-2058,36,3,39,-232,-369,137,300
,1183,2023-10-27 11:16:19.48,129,-93,-2067,29,8,34,-238,-367,129,302
,1184,2023-10-27 11:16:19.49,108,-90,-2067,22,4,26,-232,-387,155,309
,1185,2023-10-27 11:16:19.50,120,-85,-2062,22,-4,23,-240,-359,119,299
,1186,2023-10-27 11:16:19.51,137,-94,-2070,22,-11,15,-247,-370,123,308
,1187,2023-10-27 11:16:19.52,116,-100,-2044,16,2,7,-238,-334,96,286
,1188,2023-10-27 11:16:19.53,105,-94,-2055,21,-21,6,-244,-357,113,300
,1189,2023-10-27 11:16:19.54,117,-104,-2054,23,-30,5,-224,-305,81,264
,1190,2023-10-27 11:16:19.55,116,-89,-2063,13,-16,1,-243,-340,97,291
,1191,2023-10-27 11:16:19.56,109,-90,-2038,10,-10,-5,-221,-290,69,255
,1192,2023-10-27 11:16:19.57,127,-91,-2040,10,-25,-7,-248,-334,86,291
,1193,2023-10-27 11:16:19.58,137,-97,-2037,4,-16,-7,-213,-269,56,241
,1194,2023-10-27 11:16:19.59,127,-105,-2043,-4,0,-11,-248,-324,76,286
,1195,2023-10-27 11:16:19.60,125,-104,-2041,-8,11,-9,-212,-272,60,242
,1196,2023-10-27 11:16:19.61,119,-113,-2050,-10,13,-7,-252,-335,83,293
,1197,2023-10-27 11:16:19.62,117,-114,-2048,-9,22,-2,-199,-262,63,230
,1198,2023-10-27 11:16:19.63,119,-112,-2054,-8,28,4,-249,-331,82,290
,1199,2023-10-27 11:16:19.64,127,-120,-2051,-12,32,8,-193,-274,81,233
,1200,2023-10-27 11:16:19.65,139,-121,-2057,-10,40,16,-256,-355,99,305
,1201,2023-10-27 11:16:19.66,141,-113,-2059,-7,46,20,-194,-280,86,237
,1202,2023-10-27 11:16:19.67,136,-107,-2061,-7,49,25,-263,-359,96,311
,1203,2023-10-27 11:16:19.68,147,-109,-2055,-4,54,28,-192,-260,68,226
,1204,2023-10-27 11:16:19.69,140,-103,-2061,-1,55,29,-269,-348,79,308
,1205,2023-10-27 11:16:19.70,134,-86,-2060,-4,55,27,-192,-291,99,241
,1206,2023-10-27 11:16:19.71,153,-88,-2060,-2,52,23,-275,-392,117,333
,1207,2023-10-27 11:16:19.72,137,-87,-2060,1,47,24,-189,-278,89,233
,1208,2023-10-27 11:16:19.73,148,-95,-2058,4,41,19,-276,-361,85,318
,1209,2023-10-27 11:16:19.74,145,-91,-2065,11,34,13,-189,-246,57,217
,1210,2023-10-27 11:16:19.75,136,-98,-2069,13,24,11,-284,-352,68,318
,1211,2023-10-27 11:16:19.76,151,-89,-2049,17,18,8,-186,-239,53,212
,1212,2023-10-27 11:16:19.77,159,-87,-2055,23,15,1,-284,-359,75,321
,1213,2023-10-27 11:16:19.78,148,-83,-2052,22,13,2,-174,-257,83,215
,1214,2023-10-27 11:16:19.79,139,-95,-2053,19,14,-7,-280,-378,98,329
,1215,2023-10-27 11:16:19.80,153,-93,-2064,19,11,-7,-174,-257,83,215
,1216,2023-10-27 11:16:19.81,145,-95,-2063,23,1,-8,-285,-380,95,332
,1217,2023-10-27 11:16:19.82,143,-98,-2059,22,-6,-5,-170,-278,108,224
,1218,2023-10-27 11:16:19.83,134,-107,-2054,20,-10,-2,-285,-405,120,345
,1219,2023-10-27 11:16:19.84,141,-103,-2056,16,-10,4,-162,-263,101,212
,1220,2023-10-27 11:16:19.85,150,-110,-2059,12,-11,10,-287,-386,99,336
,1221,2023-10-27 11:16:19.86,132,-112,-2064,13,-9,12,-164,-274,110,219
,1222,2023-10-27 11:16:19.87,145,-101,-2060,9,-12,18,-296,-408,112,352
,1223,2023-10-27 11:16:19.88,136,-99,-2049,4,-7,24,-163,-258,95,210
,1224,2023-10-27 11:16:19.89,135,-104,-2051,1,-4,27,-290,-378,88,334
,1225,2023-10-27 11:16:19.90,148,-111,-2054,1,-3,32,-146,-224,78,185
,1226,2023-10-27 11:16:19.91,147,-109,-2050,3,-1,34,-286,-362,76,324
,1227,2023-10-27 11:16:19.92,137,-106,-2057,5,-2,36,-153,-213,60,183
,1228,2023-10-27 11:16:19.93,146,-103,-2057,4,1,38,-296,-368,72,332
,1229,2023-10-27 11:16:19.94,140,-96,-2054,5,0,41,-156,-259,103,207
,1230,2023-10-27 11:16:19.95,134,-88,-2057,8,0,38,-305,-418,113,361
,1231,2023-10-27 11:16:19.96,139,-88,-2059,10,1,34,-154,-286,132,220
,1232,2023-10-27 11:16:19.97,135,-94,-2055,12,-3,34,-305,-424,119,364
,1233,2023-10-27 11:16:19.98,143,-97,-2058,17,-6,32,-148,-261,113,204
,1234,2023-10-27 11:16:19.99,154,-105,-2051,18,-8,32,-307,-399,92,353
,1235,2023-10-27 11:16:20.00,139,-106,-2057,19,-5,29,-147,-242,95,194
,1236,2023-10-27 11:16:20.01,143,-97,-2051,19,-3,28,-311,-389,78,350
,1237,2023-10-27 11:16:20.02,133,-99,-2061,21,-3,27,-143,-218,75,180
,1238,2023-10-27 11:16:20.03,134,-105,-2065,20,-4,30,-310,-378,68,344
,1239,2023-10-27 11:16:20.04,128,-98,-2065,20,-6,29,-138,-219,81,178
,1240,2023-10-27 11:16:20.05,141,-99,-2061,20,-8,31,-311,-390,79,350
,1241,2023-10-27 11:16:20.06,127,-97,-2062,15,-13,31,-133,-240,107,186
,1242,2023-10-27 11:16:20.07,140,-97,-2059,15,-15,32,-313,-405,92,359
,1243,2023-10-27 11:16:20.08,144,-92,-2056,15,-19,30,-130,-235,105,182
,1244,2023-10-27 11:16:20.09,121,-100,-2056,13,-21,26,-317,-412,95,364
,1245,2023-10-27 11:16:20.10,121,-104,-2058,14,-22,28,-132,-260,128,196
,1246,2023-10-27 11:16:20.11,133,-104,-2049,15,-20,26,-320,-431,111,375
,1247,2023-10-27 11:16:20.12,119,-107,-2050,19,-20,25,-124,-243,119,183
,1248,2023-10-27 11:16:20.13,122,-108,-2051,21,-19,23,-314,-405,91,359
,1249,2023-10-27 11:16:20.14,158,-100,-2073,18,-11,23,-117,-221,104,169
,1250,2023-10-27 11:16:20.15,96,-121,-2014,0,32,7,-313,-396,83,354
,1251,2023-10-27 11:16:20.16,111,-96,-2063,13,-2,18,-120,-223,103,171
,1252,2023-10-27 11:16:20.17,147,-116,-2046,16,1,23,-318,-400,82,359
,1253,2023-10-27 11:16:20.18,135,-109,-2046,20,4,22,-119,-208,89,163
,1254,2023-10-27 11:16:20.19,113,-129,-2053,21,10,24,-317,-384,67,350
,1255,2023-10-27 11:16:20.20,131,-113,-2051,18,14,26,-114,-198,84,156
,1256,2023-10-27 11:16:20.21,131,-113,-2068,18,22,32,-316,-380,64,348
,1257,2023-10-27 11:16:20.22,140,-110,-2065,21,22,32,-116,-191,75,153
,1258,2023-10-27 11:16:20.23,133,-97,-2055,20,24,33,-321,-379,58,350
,1259,2023-10-27 11:16:20.24,124,-106,-2062,11,24,30,-118,-197,79,157
,1260,2023-10-27 11:16:20.25,131,-95,-2071,9,18,28,-323,-381,58,352
,1261,2023-10-27 11:16:20.26,123,-103,-2075,10,8,27,-118,-191,73,154
,1262,2023-10-27 11:16:20.27,125,-93,-2059,9,-5,26,-326,-377,51,351
,1263,2023-10-27 11:16:20.28,121,-102,-2054,6,-7,23,-121,-193,72,157
,1264,2023-10-27 11:16:20.29,133,-104,-2042,4,-9,21,-322,-372,50,347
,1265,2023-10-27 11:16:20.30,122,-93,-2047,1,-6,19,-103,-170,67,136
,1266,2023-10-27 11:16:20.31,136,-91,-2048,2,-6,16,-317,-392,75,354
,1267,2023-10-27 11:16:20.32,133,-90,-2046,2,-5,15,-119,-260,141,189
,1268,2023-10-27 11:16:20.33,129,-102,-2053,-2,-4,13,-340,-456,116,398
,1269,2023-10-27 11:16:20.34,132,-101,-2057,-5,-1,12,-121,-251,130,186
,1270,2023-10-27 11:16:20.35,132,-104,-2066,-7,1,12,-324,-416,92,370
,1271,2023-10-27 11:16:20.36,125,-109,-2054,-5,1,13,-117,-229,112,173
,1272,2023-10-27 11:16:20.37,131,-108,-2060,-1,4,18,-324,-408,84,366
,1273,2023-10-27 11:16:20.38,127,-115,-2058,0,4,21,-119,-223,104,171
,1274,2023-10-27 11:16:20.39,131,-115,-2058,3,9,23,-318,-391,73,354
,1275,2023-10-27 11:16:20.40,139,-117,-2063,7,15,27,-107,-194,87,150
,1276,2023-10-27 11:16:20.41,145,-113,-2060,11,17,31,-316,-386,70,351
,1277,2023-10-27 11:16:20.42,132,-109,-2054,14,19,33,-117,-236,119,176
,1278,2023-10-27 11:16:20.43,139,-103,-2054,13,23,33,-318,-405,87,361
,1279,2023-10-27 11:16:20.44,133,-104,-2058,16,23,33,-110,-211,101,160
,1280,2023-10-27 11:16:20.45,137,-103,-2062,19,21,34,-313,-390,77,351
,1281,2023-10-27 11:16:20.46,136,-97,-2055,21,16,32,-117,-233,116,175
,1282,2023-10-27 11:16:20.47,146,-101,-2054,25,10,32,-318,-400,82,359
,1283,2023-10-27 11:16:20.48,142,-97,-2054,25,4,31,-114,-217,103,165
,1284,2023-10-27 11:16:20.49,127,-117,-2075,30,-2,31,-310,-380,70,345
,1285,2023-10-27 11:16:20.50,130,-105,-2058,31,-11,34,-110,-220,110,165
,1286,2023-10-27 11:16:20.51,143,-105,-2045,32,-14,34,-306,-411,105,358
,1287,2023-10-27 11:16:20.52,146,-107,-2051,34,-12,29,-111,-272,161,191
,1288,2023-10-27 11:16:20.53,132,-104,-2054,32,-11,28,-306,-427,121,366
,1289,2023-10-27 11:16:20.54,133,-106,-2053,27,-6,23,-109,-249,140,179
,1290,2023-10-27 11:16:20.55,131,-102,-2060,29,-6,22,-303,-394,91,348
,1291,2023-10-27 11:16:20.56,145,-120,-2072,28,-10,20,-113,-228,115,170
,1292,2023-10-27 11:16:20.57,158,-114,-2040,8,40,11,-303,-381,78,342
,1293,2023-10-27 11:16:20.58,103,-110,-2070,11,-1,18,-114,-227,113,170
,1294,2023-10-27 11:16:20.59,145,-129,-2055,17,-14,25,-303,-373,70,338
,1295,2023-10-27 11:16:20.60,125,-113,-2065,18,-14,24,-112,-213,101,162
,1296,2023-10-27 11:16:20.61,126,-117,-2048,12,-7,27,-309,-369,60,339
,1297,2023-10-27 11:16:20.62,148,-104,-2040,8,3,27,-133,-232,99,182
,1298,2023-10-27 11:16:20.63,136,-120,-2040,1,8,28,-310,-388,78,349
,1299,2023-10-27 11:16:20.64,129,-117,-2048,4,5,31,-120,-245,125,182
,1300,2023-10-27 11:16:20.65,147,-116,-2051,9,4,34,-295,-414,119,354
,1301,2023-10-27 11:16:20.66,140,-118,-2049,6,12,31,-118,-293,175,205
,1302,2023-10-27 11:16:20.67,125,-116,-2055,1,17,35,-298,-421,123,359
,1303,2023-10-27 11:16:20.68,130,-116,-2062,0,9,36,-127,-265,138,196
,1304,2023-10-27 11:16:20.69,132,-115,-2068,4,4,37,-305,-409,104,357
,1305,2023-10-27 11:16:20.70,123,-108,-2065,5,1,40,-138,-288,150,213
,1306,2023-10-27 11:16:20.71,124,-109,-2062,5,-12,40,-293,-396,103,344
,1307,2023-10-27 11:16:20.72,129,-100,-2057,3,-15,39,-124,-246,122,185
,1308,2023-10-27 11:16:20.73,155,-96,-2059,7,-15,35,-285,-360,75,322
,1309,2023-10-27 11:16:20.74,121,-103,-2058,7,-19,34,-136,-244,108,190
,1310,2023-10-27 11:16:20.75,136,-109,-2061,12,-31,32,-291,-361,70,326
,1311,2023-10-27 11:16:20.76,131,-107,-2049,9,-20,29,-137,-245,108,191
,1312,2023-10-27 11:16:20.77,118,-110,-2056,13,-23,29,-282,-367,85,324
,1313,2023-10-27 11:16:20.78,134,-115,-2054,17,-27,33,-130,-265,135,197
,1314,2023-10-27 11:16:20.79,129,-119,-2059,22,-25,34,-284,-374,90,329
,1315,2023-10-27 11:16:20.80,125,-116,-2047,22,-22,34,-142,-261,119,201
,1316,2023-10-27 11:16:20.81,121,-112,-2046,20,-19,39,-279,-348,69,313
,1317,2023-10-27 11:16:20.82,124,-111,-2042,19,-11,41,-134,-232,98,183
,1318,2023-10-27 11:16:20.83,130,-114,-2032,13,0,44,-280,-359,79,319
,1319,2023-10-27 11:16:20.84,145,-113,-2046,16,6,46,-147,-282,135,214
,1320,2023-10-27 11:16:20.85,117,-130,-2042,14,17,49,-294,-382,88,338
,1321,2023-10-27 11:16:20.86,134,-128,-2073,20,7,53,-159,-277,118,218
,1322,2023-10-27 11:16:20.87,142,-137,-2057,24,12,57,-297,-358,61,327
,1323,2023-10-27 11:16:20.88,128,-111,-2052,35,19,54,-166,-256,90,211
,1324,2023-10-27 11:16:20.89,114,-122,-2058,42,5,55,-281,-326,45,303
,1325,2023-10-27 11:16:20.90,144,-109,-2082,38,2,54,-152,-240,88,196
,1326,2023-10-27 11:16:20.91,123,-98,-2083,37,-6,51,-277,-323,46,300
,1327,2023-10-27 11:16:20.92,108,-99,-2083,39,-30,53,-158,-248,90,203
,1328,2023-10-27 11:16:20.93,132,-112,-2076,37,-32,50,-271,-332,61,301
,1329,2023-10-27 11:16:20.94,115,-130,-2060,38,-32,54,-156,-262,106,209
,1330,2023-10-27 11:16:20.95,118,-141,-2045,41,-32,60,-263,-326,63,294
,1331,2023-10-27 11:16:20.96,112,-144,-2059,48,-26,61,-159,-247,88,203
,1332,2023-10-27 11:16:20.97,106,-133,-2072,50,-28,67,-260,-304,44,282
,1333,2023-10-27 11:16:20.98,90,-136,-2067,65,-50,79,-161,-243,82,202
,1334,2023-10-27 11:16:20.99,109,-133,-2081,70,-56,82,-244,-281,37,262
,1335,2023-10-27 11:16:21.00,90,-129,-2058,69,-52,86,-147,-215,68,181
,1336,2023-10-27 11:16:21.01,96,-118,-2052,65,-49,87,-231,-306,75,268
,1337,2023-10-27 11:16:21.02,109,-115,-2052,54,-28,86,-151,-282,131,216
,1338,2023-10-27 11:16:21.03,98,-125,-2043,52,-24,83,-260,-353,93,306
,1339,2023-10-27 11:16:21.04,100,-126,-2046,52,-28,81,-195,-307,112,251
,1340,2023-10-27 11:16:21.05,92,-128,-2041,54,-12,75,-267,-325,58,296
,1341,2023-10-27 11:16:21.06,97,-121,-2031,53,2,68,-187,-270,83,228
,1342,2023-10-27 11:16:21.07,93,-127,-2050,47,15,61,-246,-315,69,280
,1343,2023-10-27 11:16:21.08,99,-138,-2054,37,31,54,-182,-300,118,241
,1344,2023-10-27 11:16:21.09,113,-129,-2036,38,40,49,-260,-383,123,321
,1345,2023-10-27 11:16:21.10,131,-113,-2030,36,48,41,-214,-378,164,296
,1346,2023-10-27 11:16:21.11,128,-102,-2031,26,62,33,-279,-462,183,370
,1347,2023-10-27 11:16:21.12,128,-105,-2045,12,76,22,-220,-447,227,333
,1348,2023-10-27 11:16:21.13,111,-52,-2117,-3,92,16,-258,-435,177,346
,1349,2023-10-27 11:16:21.14,122,-129,-2041,-8,61,11,-207,-376,169,291
,1350,2023-10-27 11:16:21.15,132,-146,-1978,18,55,8,-257,-414,157,335
,1351,2023-10-27 11:16:21.16,141,-95,-2066,44,52,6,-210,-398,188,304
,1352,2023-10-27 11:16:21.17,131,-135,-2047,37,44,-2,-233,-385,152,309
,1353,2023-10-27 11:16:21.18,146,-127,-2056,40,46,-2,-199,-353,154,276
,1354,2023-10-27 11:16:21.19,154,-138,-2064,48,52,-6,-221,-334,113,277
,1355,2023-10-27 11:16:21.20,132,-150,-2047,51,41,-2,-207,-326,119,266
,1356,2023-10-27 11:16:21.21,133,-150,-2055,54,36,7,-221,-310,89,265
,1357,2023-10-27 11:16:21.22,138,-160,-2058,54,35,14,-210,-322,112,266
,1358,2023-10-27 11:16:21.23,134,-151,-2062,50,42,21,-218,-333,115,275
,1359,2023-10-27 11:16:21.24,147,-144,-2060,41,42,28,-217,-366,149,291
,1360,2023-10-27 11:16:21.25,138,-134,-2062,30,40,37,-211,-328,117,269
,1361,2023-10-27 11:16:21.26,139,-140,-2064,19,37,43,-218,-339,121,278
,1362,2023-10-27 11:16:21.27,129,-132,-2060,6,32,48,-212,-325,113,268
,1363,2023-10-27 11:16:21.28,143,-153,-2069,-3,36,51,-225,-362,137,293
,1364,2023-10-27 11:16:21.29,134,-143,-2074,-11,32,57,-206,-319,113,262
,1365,2023-10-27 11:16:21.30,142,-125,-2051,-11,15,59,-222,-343,121,282
,1366,2023-10-27 11:16:21.31,150,-130,-2068,-5,6,57,-198,-290,92,244
,1367,2023-10-27 11:16:21.32,145,-132,-2055,-5,10,51,-227,-329,102,278
,1368,2023-10-27 11:16:21.33,136,-133,-2057,4,-6,47,-203,-272,69,237
,1369,2023-10-27 11:16:21.34,148,-127,-2070,15,-14,42,-237,-323,86,280
,1370,2023-10-27 11:16:21.35,119,-135,-2057,24,-22,34,-185,-246,61,215
,1371,2023-10-27 11:16:21.36,128,-140,-2049,38,-40,35,-230,-318,88,274
,1372,2023-10-27 11:16:21.37,119,-141,-2054,48,-56,36,-197,-355,158,276
,1373,2023-10-27 11:16:21.38,104,-144,-2061,55,-72,35,-257,-453,196,355
,1374,2023-10-27 11:16:21.39,114,-153,-2067,62,-84,44,-196,-359,163,277
,1375,2023-10-27 11:16:21.40,117,-160,-2058,69,-90,50,-250,-388,138,319
,1376,2023-10-27 11:16:21.41,108,-170,-2070,67,-93,53,-188,-291,103,239
,1377,2023-10-27 11:16:21.42,144,-170,-2084,52,-79,52,-258,-363,105,310
,1378,2023-10-27 11:16:21.43,86,-167,-2079,38,-53,50,-188,-280,92,234
,1379,2023-10-27 11:16:21.44,91,-156,-2085,28,-64,59,-260,-364,104,312
,1380,2023-10-27 11:16:21.45,108,-171,-2048,18,-53,61,-181,-284,103,232
,1381,2023-10-27 11:16:21.46,67,-152,-2041,18,-59,66,-264,-384,120,324
,1382,2023-10-27 11:16:21.47,114,-156,-2046,19,-67,73,-184,-324,140,254
,1383,2023-10-27 11:16:21.48,102,-156,-2046,7,-32,65,-276,-431,155,353
,1384,2023-10-27 11:16:21.49,82,-153,-2027,0,-25,62,-184,-367,183,275
,1385,2023-10-27 11:16:21.50,98,-148,-2035,-3,-21,61,-279,-460,181,369
,1386,2023-10-27 11:16:21.51,88,-137,-2045,-8,-9,53,-171,-369,198,270
,1387,2023-10-27 11:16:21.52,102,-135,-2049,-10,-8,47,-278,-468,190,373
,1388,2023-10-27 11:16:21.53,105,-128,-2049,-15,6,34,-174,-400,226,287
,1389,2023-10-27 11:16:21.54,117,-123,-2048,-23,19,23,-294,-513,219,403
,1390,2023-10-27 11:16:21.55,119,-134,-2040,-28,30,12,-178,-421,243,299
,1391,2023-10-27 11:16:21.56,107,-133,-2048,-30,38,2,-299,-508,209,403
,1392,2023-10-27 11:16:21.57,119,-143,-2043,-29,43,-8,-164,-340,176,252
,1393,2023-10-27 11:16:21.58,120,-137,-2048,-29,49,-19,-292,-438,146,365
,1394,2023-10-27 11:16:21.59,121,-132,-2052,-27,56,-26,-201,-367,166,284
,1395,2023-10-27 11:16:21.60,122,-135,-2038,-26,58,-33,-316,-540,224,428
,1396,2023-10-27 11:16:21.61,113,-141,-2049,-22,57,-33,-259,-834,575,546
,1397,2023-10-27 11:16:21.62,111,-142,-2046,-17,53,-36,-407,-1064,657,735
,1398,2023-10-27 11:16:21.63,127,-152,-2055,-14,49,-34,-362,-1083,721,722
,1399,2023-10-27 11:16:21.64,125,-138,-2058,-12,45,-34,-485,-1084,599,784
,1400,2023-10-27 11:16:21.65,121,-146,-2065,-5,33,-30,-412,-1011,599,711
,1401,2023-10-27 11:16:21.66,126,-142,-2074,-3,27,-26,-544,-1034,490,789
,1402,2023-10-27 11:16:21.67,115,-147,-2073,-7,27,-23,-498,-993,495,745
,1403,2023-10-27 11:16:21.68,117,-149,-2078,-6,13,-19,-622,-1035,413,828
,1404,2023-10-27 11:16:21.69,118,-156,-2075,-4,-1,-13,-514,-986,472,750
,1405,2023-10-27 11:16:21.70,107,-152,-2079,1,-8,-6,-582,-1022,440,802
,1406,2023-10-27 11:16:21.71,113,-142,-2070,-3,-12,0,-439,-968,529,703
,1407,2023-10-27 11:16:21.72,125,-127,-2051,-7,-13,5,-532,-1005,473,768
,1408,2023-10-27 11:16:21.73,124,-139,-2035,-14,-10,4,-395,-949,554,672
,1409,2023-10-27 11:16:21.74,133,-151,-2033,-16,-1,6,-509,-996,487,752
,1410,2023-10-27 11:16:21.75,134,-153,-2023,-15,14,7,-426,-948,522,687
,1411,2023-10-27 11:16:21.76,125,-160,-2029,-8,20,8,-578,-1006,428,792
,1412,2023-10-27 11:16:21.77,119,-164,-2054,2,18,14,-485,-954,469,719
,1413,2023-10-27 11:16:21.78,123,-169,-2068,5,28,14,-648,-1028,380,838
,1414,2023-10-27 11:16:21.79,102,-156,-2069,17,20,23,-581,-966,385,773
,1415,2023-10-27 11:16:21.80,125,-154,-2064,25,15,26,-672,-1008,336,840
,1416,2023-10-27 11:16:21.81,122,-141,-2067,23,9,25,-490,-930,440,710
,1417,2023-10-27 11:16:21.82,117,-128,-2056,14,6,22,-587,-994,407,790
,1418,2023-10-27 11:16:21.83,117,-127,-2063,3,8,18,-454,-938,484,696
,1419,2023-10-27 11:16:21.84,116,-125,-2060,-5,10,13,-620,-1012,392,816
,1420,2023-10-27 11:16:21.85,126,-124,-2052,-14,5,9,-518,-951,433,734
,1421,2023-10-27 11:16:21.86,125,-131,-2026,-21,9,5,-651,-1015,364,833
,1422,2023-10-27 11:16:21.87,98,-128,-2025,-21,-9,7,-517,-944,427,730
,1423,2023-10-27 11:16:21.88,132,-156,-2048,-23,0,8,-701,-1035,334,868
,1424,2023-10-27 11:16:21.89,123,-145,-2045,-29,22,7,-656,-975,319,815
,1425,2023-10-27 11:16:21.90,128,-143,-2047,-23,20,11,-757,-1034,277,895
,1426,2023-10-27 11:16:21.91,128,-132,-2037,-27,32,14,-523,-954,431,738
,1427,2023-10-27 11:16:21.92,129,-132,-2053,-32,38,13,-571,-1017,446,794
,1428,2023-10-27 11:16:21.93,129,-150,-2056,-36,46,13,-377,-950,573,663
,1429,2023-10-27 11:16:21.94,116,-141,-2066,-33,41,16,-508,-1032,524,770
,1430,2023-10-27 11:16:21.95,125,-143,-2065,-26,38,21,-354,-970,616,662
,1431,2023-10-27 11:16:21.96,94,-144,-2056,-22,29,21,-482,-1046,564,764
,1432,2023-10-27 11:16:21.97,133,-123,-2061,-14,18,23,-308,-969,661,638
,1433,2023-10-27 11:16:21.98,121,-120,-2064,-11,13,20,-505,-1044,539,774
,1434,2023-10-27 11:16:21.99,133,-108,-2050,-18,18,12,-405,-965,560,685
,1435,2023-10-27 11:16:22.00,124,-98,-2043,-24,17,3,-594,-1039,445,816
,1436,2023-10-27 11:16:22.01,161,-107,-2069,-19,-2,-4,-446,-957,511,701
,1437,2023-10-27 11:16:22.02,144,-113,-2052,-21,16,-20,-598,-1045,447,821
,1438,2023-10-27 11:16:22.03,140,-102,-2047,-23,28,-31,-434,-961,527,697
,1439,2023-10-27 11:16:22.04,151,-107,-2062,-24,26,-39,-590,-1036,446,813
,1440,2023-10-27 11:16:22.05,140,-126,-2048,-27,46,-48,-424,-947,523,685
,1441,2023-10-27 11:16:22.06,120,-144,-2074,-21,38,-51,-600,-1105,505,852
,1442,2023-10-27 11:16:22.07,122,-139,-2078,-7,19,-46,-376,-1106,730,741
,1443,2023-10-27 11:16:22.08,124,-145,-2070,5,-1,-39,-520,-1217,697,868
,1444,2023-10-27 11:16:22.09,128,-142,-2059,15,-14,-29,-286,-1123,837,704
,1445,2023-10-27 11:16:22.10,147,-145,-2049,15,-14,-22,-463,-1178,715,820
,1446,2023-10-27 11:16:22.11,125,-143,-2052,6,-6,-12,-246,-1034,788,640
,1447,2023-10-27 11:16:22.12,140,-151,-2053,1,1,-2,-429,-1060,631,744
,1448,2023-10-27 11:16:22.13,132,-155,-2046,-1,3,8,-209,-817,608,513
,1449,2023-10-27 11:16:22.14,104,-157,-2036,5,-21,22,-402,-872,470,637
,1450,2023-10-27 11:16:22.15,159,-149,-2061,2,-10,36,-194,-715,521,454
,1451,2023-10-27 11:16:22.16,121,-145,-2068,-15,21,42,-383,-801,418,592
,1452,2023-10-27 11:16:22.17,120,-135,-2054,-23,10,51,-168,-578,410,373
,1453,2023-10-27 11:16:22.18,132,-127,-2066,-30,19,52,-360,-666,306,513
,1454,2023-10-27 11:16:22.19,121,-128,-2059,-29,17,52,-155,-480,325,317
,1455,2023-10-27 11:16:22.20,146,-111,-2058,-35,21,47,-357,-623,266,490
,1456,2023-10-27 11:16:22.21,134,-99,-2052,-41,26,39,-153,-461,308,307
,1457,2023-10-27 11:16:22.22,127,-108,-2055,-41,21,33,-350,-619,269,484
,1458,2023-10-27 11:16:22.23,135,-107,-2061,-35,14,23,-150,-471,321,310
,1459,2023-10-27 11:16:22.24,148,-94,-2070,-29,9,12,-346,-621,275,483
,1460,2023-10-27 11:16:22.25,140,-95,-2061,-31,14,-1,-148,-462,314,305
,1461,2023-10-27 11:16:22.26,133,-99,-2051,-31,4,-11,-339,-587,248,463
,1462,2023-10-27 11:16:22.27,132,-102,-2064,-28,-8,-20,-138,-413,275,275
,1463,2023-10-27 11:16:22.28,130,-107,-2064,-21,-18,-26,-333,-568,235,450
,1464,2023-10-27 11:16:22.29,132,-109,-2052,-12,-28,-28,-138,-425,287,281
,1465,2023-10-27 11:16:22.30,134,-115,-2059,-14,-29,-27,-323,-549,226,436
,1466,2023-10-27 11:16:22.31,135,-127,-2064,-17,-29,-19,-125,-366,241,245
,1467,2023-10-27 11:16:22.32,116,-119,-2061,-22,-33,-11,-326,-534,208,430
,1468,2023-10-27 11:16:22.33,131,-124,-2052,-26,-34,-4,-146,-421,275,283
,1469,2023-10-27 11:16:22.34,133,-117,-2050,-29,-31,6,-329,-542,213,435
,1470,2023-10-27 11:16:22.35,127,-118,-2054,-34,-25,18,-120,-341,221,230
,1471,2023-10-27 11:16:22.36,117,-119,-2059,-40,-21,28,-312,-462,150,387
,1472,2023-10-27 11:16:22.37,127,-114,-2058,-44,-16,40,-127,-314,187,220
,1473,2023-10-27 11:16:22.38,126,-105,-2049,-48,-16,44,-325,-494,169,409
,1474,2023-10-27 11:16:22.39,128,-109,-2055,-47,-12,49,-138,-363,225,250
,1475,2023-10-27 11:16:22.40,128,-99,-2063,-47,-8,55,-308,-485,177,396
,1476,2023-10-27 11:16:22.41,136,-85,-2055,-44,-7,54,-125,-320,195,222
,1477,2023-10-27 11:16:22.42,123,-81,-2055,-42,-10,52,-302,-454,152,378
,1478,2023-10-27 11:16:22.43,132,-80,-2053,-37,-5,47,-130,-324,194,227
,1479,2023-10-27 11:16:22.44,132,-78,-2042,-36,-2,40,-307,-443,136,375
,1480,2023-10-27 11:16:22.45,136,-78,-2040,-31,5,31,-132,-291,159,211
,1481,2023-10-27 11:16:22.46,126,-75,-2054,-27,6,25,-294,-413,119,353
,1482,2023-10-27 11:16:22.47,122,-77,-2066,-20,3,17,-123,-284,161,203
,1483,2023-10-27 11:16:22.48,110,-79,-2060,-13,-5,10,-282,-411,129,346
,1484,2023-10-27 11:16:22.49,122,-77,-2061,-7,-8,9,-118,-283,165,200
,1485,2023-10-27 11:16:22.50,115,-90,-2057,1,-17,4,-286,-414,128,350
,1486,2023-10-27 11:16:22.51,126,-83,-2060,3,-16,3,-132,-295,163,213
,1487,2023-10-27 11:16:22.52,122,-80,-2060,7,-14,0,-285,-404,119,344
,1488,2023-10-27 11:16:22.53,126,-87,-2058,8,-14,-4,-129,-275,146,202
,1489,2023-10-27 11:16:22.54,117,-96,-2068,10,-15,-4,-275,-372,97,323
,1490,2023-10-27 11:16:22.55,111,-94,-2073,8,-18,2,-128,-254,126,191
,1491,2023-10-27 11:16:22.56,113,-95,-2063,12,-23,2,-274,-370,96,322
,1492,2023-10-27 11:16:22.57,114,-93,-2055,12,-27,7,-133,-270,137,201
,1493,2023-10-27 11:16:22.58,107,-92,-2044,8,-25,10,-272,-358,86,315
,1494,2023-10-27 11:16:22.59,98,-88,-2038,2,-21,13,-136,-245,109,190
,1495,2023-10-27 11:16:22.60,113,-91,-2037,-5,-19,16,-266,-329,63,297
,1496,2023-10-27 11:16:22.61,108,-94,-2045,-5,-10,20,-139,-232,93,185
,1497,2023-10-27 11:16:22.62,111,-97,-2047,-2,-6,21,-274,-383,109,328
,1498,2023-10-27 11:16:22.63,115,-102,-2044,-1,0,25,-157,-333,176,245
,1499,2023-10-27 11:16:22.64,117,-95,-2050,0,7,30,-278,-411,133,344
,1500,2023-10-27 11:16:22.65,116,-98,-2056,0,12,32,-158,-303,145,230
,1501,2023-10-27 11:16:22.66,107,-93,-2061,3,14,36,-279,-426,147,352
,1502,2023-10-27 11:16:22.67,117,-93,-2062,9,14,38,-174,-377,203,275
,1503,2023-10-27 11:16:22.68,118,-86,-2057,8,17,39,-280,-469,189,374
,1504,2023-10-27 11:16:22.69,125,-85,-2057,9,19,37,-173,-381,208,277
,1505,2023-10-27 11:16:22.70,130,-86,-2058,10,21,33,-282,-473,191,377
,1506,2023-10-27 11:16:22.71,110,-89,-2066,15,20,35,-186,-411,225,298
,1507,2023-10-27 11:16:22.72,126,-83,-2059,18,19,32,-271,-462,191,366
,1508,2023-10-27 11:16:22.73,133,-81,-2056,21,16,28,-175,-377,202,276
,1509,2023-10-27 11:16:22.74,133,-87,-2051,21,14,23,-258,-425,167,341
,1510,2023-10-27 11:16:22.75,124,-87,-2058,24,12,19,-161,-344,183,252
,1511,2023-10-27 11:16:22.76,126,-81,-2058,25,4,19,-263,-746,483,504
,1512,2023-10-27 11:16:22.77,120,-87,-2060,28,-5,15,-221,-953,732,587
,1513,2023-10-27 11:16:22.78,140,-89,-2046,29,-8,11,-280,-1128,848,704
,1514,2023-10-27 11:16:22.79,119,-110,-2068,33,-12,13,-222,-1048,826,635
,1515,2023-10-27 11:16:22.80,130,-96,-2061,35,-17,13,-304,-1067,763,685
,1516,2023-10-27 11:16:22.81,138,-95,-2062,35,-14,16,-264,-985,721,624
,1517,2023-10-27 11:16:22.82,131,-114,-2052,29,4,14,-346,-1062,716,704
,1518,2023-10-27 11:16:22.83,110,-97,-2053,33,-7,17,-289,-1008,719,648
,1519,2023-10-27 11:16:22.84,136,-109,-2053,33,-8,20,-369,-1075,706,722
,1520,2023-10-27 11:16:22.85,134,-102,-2065,24,3,19,-323,-1007,684,665
,1521,2023-10-27 11:16:22.86,105,-107,-2066,22,-2,21,-369,-1049,680,709
,1522,2023-10-27 11:16:22.87,115,-99,-2066,21,-11,28,-333,-982,649,657
,1523,2023-10-27 11:16:22.88,126,-96,-2069,19,-9,35,-423,-1034,611,728
,1524,2023-10-27 11:16:22.89,115,-101,-2056,10,-6,31,-377,-972,595,674
,1525,2023-10-27 11:16:22.90,113,-97,-2056,9,-8,35,-381,-1018,637,699
,1526,2023-10-27 11:16:22.91,124,-93,-2062,6,-8,33,-327,-961,634,644
,1527,2023-10-27 11:16:22.92,116,-97,-2053,7,-11,31,-359,-1002,643,680
,1528,2023-10-27 11:16:22.93,106,-102,-2051,6,-7,30,-343,-960,617,651
,1529,2023-10-27 11:16:22.94,126,-92,-2052,11,-7,29,-409,-1013,604,711
,1530,2023-10-27 11:16:22.95,111,-96,-2051,13,-6,26,-387,-966,579,676
,1531,2023-10-27 11:16:22.96,119,-96,-2056,13,-6,24,-393,-1001,608,697
,1532,2023-10-27 11:16:22.97,101,-97,-2054,11,-5,20,-357,-959,602,658
,1533,2023-10-27 11:16:22.98,104,-86,-2049,10,-7,18,-380,-997,617,688
,1534,2023-10-27 11:16:22.99,114,-93,-2045,13,-9,14,-385,-969,584,677
,1535,2023-10-27 11:16:23.00,115,-101,-2051,12,-6,13,-463,-1010,547,736
,1536,2023-10-27 11:16:23.01,112,-103,-2058,8,-6,9,-482,-980,498,731
,1537,2023-10-27 11:16:23.02,112,-103,-2061,10,-10,10,-507,-1009,502,758
,1538,2023-10-27 11:16:23.03,112,-101,-2059,15,-9,10,-491,-987,496,739
,1539,2023-10-27 11:16:23.04,114,-99,-2059,16,-11,11,-526,-1022,496,774
,1540,2023-10-27 11:16:23.05,116,-104,-2063,14,-9,11,-523,-998,475,760
,1541,2023-10-27 11:16:23.06,122,-142,-2007,20,-13,10,-535,-1018,483,776
,1542,2023-10-27 11:16:23.07,104,-95,-2041,35,16,10,-544,-995,451,769
,1543,2023-10-27 11:16:23.08,98,-92,-2116,25,7,12,-612,-1011,399,811
,1544,2023-10-27 11:16:23.09,115,-126,-2059,14,-18,18,-610,-986,376,798
,1545,2023-10-27 11:16:23.10,117,-107,-2050,23,-7,22,-512,-995,483,753
,1546,2023-10-27 11:16:23.11,114,-115,-2043,35,-7,20,-466,-980,514,723
,1547,2023-10-27 11:16:23.12,113,-101,-2092,26,3,22,-454,-1002,548,728
,1548,2023-10-27 11:16:23.13,92,-129,-2055,10,7,25,-495,-989,494,742
,1549,2023-10-27 11:16:23.14,96,-102,-2050,15,-6,30,-526,-998,472,762
,1550,2023-10-27 11:16:23.15,123,-103,-2067,19,-12,33,-558,-991,433,774
,1551,2023-10-27 11:16:23.16,103,-100,-2042,6,3,31,-520,-1002,482,761
,1552,2023-10-27 11:16:23.17,112,-107,-2067,-3,-1,33,-522,-987,465,754
,1553,2023-10-27 11:16:23.18,114,-104,-2063,-5,7,33,-494,-989,495,741
,1554,2023-10-27 11:16:23.19,90,-105,-2053,1,-5,36,-517,-983,466,750
,1555,2023-10-27 11:16:23.20,117,-104,-2050,-2,-4,34,-453,-988,535,720
,1556,2023-10-27 11:16:23.21,116,-99,-2041,-9,17,27,-482,-998,516,740
,1557,2023-10-27 11:16:23.22,115,-94,-2042,-4,11,26,-416,-1000,584,708
,1558,2023-10-27 11:16:23.23,128,-103,-2053,-3,17,25,-456,-988,532,722
,1559,2023-10-27 11:16:23.24,108,-97,-2052,-1,23,19,-398,-970,572,684
,1560,2023-10-27 11:16:23.25,124,-103,-2047,-2,29,19,-448,-972,524,710
,1561,2023-10-27 11:16:23.26,124,-109,-2053,1,34,18,-364,-967,603,665
,1562,2023-10-27 11:16:23.27,111,-108,-2058,1,32,18,-439,-993,554,716
,1563,2023-10-27 11:16:23.28,123,-105,-2061,4,34,19,-414,-989,575,701
,1564,2023-10-27 11:16:23.29,131,-88,-2062,7,33,22,-514,-997,483,755
,1565,2023-10-27 11:16:23.30,118,-93,-2053,7,31,21,-454,-970,516,712
,1566,2023-10-27 11:16:23.31,123,-95,-2061,2,34,19,-532,-984,452,758
,1567,2023-10-27 11:16:23.32,119,-97,-2065,1,24,23,-455,-964,509,709
,1568,2023-10-27 11:16:23.33,118,-104,-2066,3,17,26,-514,-988,474,751
,1569,2023-10-27 11:16:23.34,123,-102,-2056,4,8,30,-400,-963,563,681
,1570,2023-10-27 11:16:23.35,123,-105,-2055,2,3,33,-497,-995,498,746
,1571,2023-10-27 11:16:23.36,118,-101,-2059,-2,1,35,-419,-968,549,693
,1572,2023-10-27 11:16:23.37,114,-95,-2058,-3,-2,37,-541,-1004,463,772
,1573,2023-10-27 11:16:23.38,130,-92,-2052,1,-8,43,-472,-972,500,722
,1574,2023-10-27 11:16:23.39,132,-91,-2052,2,-11,42,-561,-1014,453,787
,1575,2023-10-27 11:16:23.40,162,-77,-2056,-11,12,37,-460,-979,519,719
,1576,2023-10-27 11:16:23.41,95,-97,-2056,-18,15,36,-566,-1022,456,794
,1577,2023-10-27 11:16:23.42,127,-94,-2055,-6,-21,42,-486,-979,493,732
,1578,2023-10-27 11:16:23.43,141,-86,-2080,1,-11,40,-608,-1019,411,813
,1579,2023-10-27 11:16:23.44,106,-92,-2055,1,-9,39,-544,-974,430,759
,1580,2023-10-27 11:16:23.45,120,-84,-2052,5,-28,43,-618,-1007,389,812
,1581,2023-10-27 11:16:23.46,141,-95,-2073,5,-11,42,-456,-957,501,706
,1582,2023-10-27 11:16:23.47,98,-103,-2055,7,-6,37,-553,-1003,450,778
,1583,2023-10-27 11:16:23.48,114,-104,-2057,21,-34,48,-474,-959,485,716
,1584,2023-10-27 11:16:23.49,132,-99,-2066,27,-23,45,-611,-1015,404,813
,1585,2023-10-27 11:16:23.50,116,-94,-2052,24,-8,42,-520,-967,447,743
,1586,2023-10-27 11:16:23.51,130,-92,-2049,26,-10,44,-659,-1023,364,841
,1587,2023-10-27 11:16:23.52,132,-104,-2055,25,2,41,-542,-967,425,754
,1588,2023-10-27 11:16:23.53,117,-97,-2048,26,13,40,-662,-1023,361,842
,1589,2023-10-27 11:16:23.54,100,-103,-2051,36,-12,41,-582,-964,382,773
,1590,2023-10-27 11:16:23.55,117,-97,-2050,47,-26,47,-719,-1031,312,875
,1591,2023-10-27 11:16:23.56,122,-123,-2063,47,-13,44,-592,-967,375,779
,1592,2023-10-27 11:16:23.57,104,-105,-2070,37,-1,43,-711,-1030,319,870
,1593,2023-10-27 11:16:23.58,107,-113,-2045,28,4,45,-552,-953,401,752
,1594,2023-10-27 11:16:23.59,102,-116,-2056,36,-14,48,-664,-1013,349,838
,1595,2023-10-27 11:16:23.60,113,-117,-2054,46,-30,52,-522,-935,413,728
,1596,2023-10-27 11:16:23.61,112,-115,-2048,46,-25,52,-647,-1002,355,824
,1597,2023-10-27 11:16:23.62,121,-113,-2045,39,-13,52,-470,-926,456,698
,1598,2023-10-27 11:16:23.63,115,-118,-2056,25,6,51,-600,-1006,406,803
,1599,2023-10-27 11:16:23.64,101,-118,-2056,21,6,49,-463,-940,477,701
,1600,2023-10-27 11:16:23.65,103,-122,-2073,26,-13,55,-623,-1024,401,823
,1601,2023-10-27 11:16:23.66,101,-116,-2068,30,-25,57,-485,-951,466,718
,1602,2023-10-27 11:16:23.67,120,-112,-2072,27,-24,59,-632,-1027,395,829
,1603,2023-10-27 11:16:23.68,106,-106,-2050,10,-4,53,-450,-941,491,695
,1604,2023-10-27 11:16:23.69,99,-106,-2046,7,-10,51,-560,-1022,462,791
,1605,2023-10-27 11:16:23.70,111,-115,-2058,9,-20,49,-392,-941,549,666
,1606,2023-10-27 11:16:23.71,117,-106,-2050,13,-18,46,-549,-1025,476,787
,1607,2023-10-27 11:16:23.72,103,-112,-2050,16,-17,43,-384,-939,555,661
,1608,2023-10-27 11:16:23.73,124,-110,-2049,14,-7,41,-574,-1022,448,798
,1609,2023-10-27 11:16:23.74,100,-109,-2050,8,3,34,-443,-938,495,690
,1610,2023-10-27 11:16:23.75,103,-112,-2054,13,-11,32,-659,-1038,379,848
,1611,2023-10-27 11:16:23.76,103,-113,-2060,23,-22,32,-552,-951,399,751
,1612,2023-10-27 11:16:23.77,109,-107,-2047,26,-18,33,-750,-1044,294,897
,1613,2023-10-27 11:16:23.78,101,-116,-2043,18,1,28,-637,-945,308,791
,1614,2023-10-27 11:16:23.79,97,-118,-2048,11,-3,31,-794,-1031,237,912
,1615,2023-10-27 11:16:23.80,113,-126,-2055,11,5,33,-624,-930,306,777
,1616,2023-10-27 11:16:23.81,100,-118,-2054,15,6,36,-715,-1022,307,868
,1617,2023-10-27 11:16:23.82,101,-115,-2052,21,-6,38,-483,-932,449,707
,1618,2023-10-27 11:16:23.83,121,-117,-2052,19,5,40,-583,-1027,444,805
