// Data mode  : Full
// Data quality  : High
// Acceleration sensor's range  : 16g
// Gyroscope sensor's range  : 2000dps
//
//ARTIFACT,NUM,DATE,ACC_X,ACC_Y,ACC_Z,GYRO_X,GYRO_Y,GYRO_Z,EOG_L,EOG_R,EOG_H,EOG_V
,1,2023-10-27 11:01:28.27,295,-268,-2030,-3,-42,54,-93,127,-220,-17
,2,2023-10-27 11:01:28.28,299,-272,-2038,-5,-43,58,-95,56,-151,19
,3,2023-10-27 11:01:28.29,295,-266,-2025,-6,-45,57,-90,137,-227,-23
,4,2023-10-27 11:01:28.30,303,-262,-2013,-13,-41,58,-98,53,-151,22
,5,2023-10-27 11:01:28.31,295,-252,-2025,-24,-35,56,-94,140,-234,-23
,6,2023-10-27 11:01:28.32,295,-256,-2028,-30,-30,56,-107,53,-160,27
,7,2023-10-27 11:01:28.33,286,-243,-2030,-34,-29,54,-97,138,-235,-20
,8,2023-10-27 11:01:28.34,284,-251,-2024,-39,-33,51,-118,42,-160,38
,9,2023-10-27 11:01:28.35,292,-253,-2021,-42,-30,50,-115,126,-241,-5
,10,2023-10-27 11:01:28.36,283,-249,-2025,-48,-25,49,-141,22,-163,59
,11,2023-10-27 11:01:28.37,293,-250,-2022,-50,-20,46,-117,113,-230,2
,12,2023-10-27 11:01:28.38,295,-246,-2011,-52,-11,42,-141,16,-157,62
,13,2023-10-27 11:01:28.39,296,-236,-2015,-53,-2,36,-119,115,-234,2
,14,2023-10-27 11:01:28.40,290,-247,-2027,-57,9,32,-149,12,-161,68
,15,2023-10-27 11:01:28.41,281,-241,-2030,-58,8,29,-112,126,-238,-7
,16,2023-10-27 11:01:28.42,298,-242,-2024,-55,10,28,-150,14,-164,68
,17,2023-10-27 11:01:28.43,289,-245,-2024,-49,9,28,-112,128,-240,-8
,18,2023-10-27 11:01:28.44,290,-242,-2039,-49,9,23,-154,10,-164,72
,19,2023-10-27 11:01:28.45,283,-238,-2040,-47,10,23,-110,131,-241,-10
,20,2023-10-27 11:01:28.46,292,-232,-2044,-42,9,20,-156,8,-164,74
,21,2023-10-27 11:01:28.47,305,-232,-2034,-37,3,15,-109,123,-232,-7
,22,2023-10-27 11:01:28.48,297,-230,-2032,-33,4,13,-158,6,-164,76
,23,2023-10-27 11:01:28.49,285,-229,-2040,-30,5,8,-104,135,-239,-15
,24,2023-10-27 11:01:28.50,289,-237,-2040,-29,5,5,-155,4,-159,75
,25,2023-10-27 11:01:28.51,291,-233,-2022,-28,2,8,-96,135,-231,-19
,26,2023-10-27 11:01:28.52,285,-232,-2024,-24,5,10,-161,-5,-156,83
,27,2023-10-27 11:01:28.53,281,-237,-2024,-28,5,13,-98,137,-235,-19
,28,2023-10-27 11:01:28.54,288,-236,-2038,-33,9,23,-163,-1,-162,82
,29,2023-10-27 11:01:28.55,278,-235,-2039,-33,-1,31,-89,150,-239,-30
,30,2023-10-27 11:01:28.56,265,-229,-2048,-27,-9,40,-159,6,-165,76
,31,2023-10-27 11:01:28.57,280,-220,-2033,-23,-16,47,-79,154,-233,-37
,32,2023-10-27 11:01:28.58,275,-223,-2026,-26,-21,51,-151,5,-156,73
,33,2023-10-27 11:01:28.59,286,-230,-2034,-30,-25,55,-70,163,-233,-46
,34,2023-10-27 11:01:28.60,259,-246,-2050,-23,-30,59,-159,5,-164,77
,35,2023-10-27 11:01:28.61,258,-238,-2061,-18,-39,65,-78,164,-242,-43
,36,2023-10-27 11:01:28.62,265,-234,-2063,-11,-52,75,-166,1,-167,82
,37,2023-10-27 11:01:28.63,262,-222,-2051,-10,-59,77,-78,160,-238,-41
,38,2023-10-27 11:01:28.64,276,-213,-2033,-11,-57,79,-167,3,-170,82
,39,2023-10-27 11:01:28.65,270,-215,-2029,-15,-55,74,-77,172,-249,-47
,40,2023-10-27 11:01:28.66,279,-203,-2032,-20,-47,70,-177,5,-182,86
,41,2023-10-27 11:01:28.67,267,-205,-2024,-20,-40,65,-84,177,-261,-46
,42,2023-10-27 11:01:28.68,271,-205,-2021,-18,-33,57,-186,8,-194,89
,43,2023-10-27 11:01:28.69,277,-206,-2013,-15,-27,50,-86,186,-272,-50
,44,2023-10-27 11:01:28.70,287,-202,-2016,-13,-14,45,-196,11,-207,92
,45,2023-10-27 11:01:28.71,268,-208,-2016,-14,-4,39,-96,188,-284,-46
,46,2023-10-27 11:01:28.72,272,-213,-2022,-15,9,32,-205,10,-215,97
,47,2023-10-27 11:01:28.73,275,-218,-2027,-15,20,29,-97,190,-287,-46
,48,2023-10-27 11:01:28.74,278,-214,-2020,-14,26,23,-213,5,-218,104
,49,2023-10-27 11:01:28.75,286,-209,-2023,-9,33,18,-100,189,-289,-44
,50,2023-10-27 11:01:28.76,283,-213,-2033,-4,38,11,-208,10,-218,99
,51,2023-10-27 11:01:28.77,274,-208,-2044,-2,31,6,-92,197,-289,-52
,52,2023-10-27 11:01:28.78,264,-208,-2043,5,23,2,-212,6,-218,103
,53,2023-10-27 11:01:28.79,269,-215,-2044,14,11,4,-91,199,-290,-54
,54,2023-10-27 11:01:28.80,276,-213,-2044,18,-4,2,-212,2,-214,105
,55,2023-10-27 11:01:28.81,290,-214,-2041,17,-8,3,-90,192,-282,-51
,56,2023-10-27 11:01:28.82,275,-223,-2044,18,-15,4,-211,2,-213,104
,57,2023-10-27 11:01:28.83,277,-218,-2038,25,-21,6,-81,190,-271,-54
,58,2023-10-27 11:01:28.84,274,-231,-2037,30,-28,7,-209,3,-212,103
,59,2023-10-27 11:01:28.85,277,-232,-2029,34,-27,9,-77,197,-274,-60
,60,2023-10-27 11:01:28.86,283,-239,-2025,36,-24,12,-213,3,-216,105
,61,2023-10-27 11:01:28.87,285,-238,-2027,39,-17,12,-76,195,-271,-59
,62,2023-10-27 11:01:28.88,292,-235,-2034,36,-14,13,-220,-8,-212,114
,63,2023-10-27 11:01:28.89,279,-232,-2037,34,-10,13,-68,201,-269,-66
,64,2023-10-27 11:01:28.90,263,-229,-2042,31,-10,15,-210,7,-217,101
,65,2023-10-27 11:01:28.91,273,-228,-2035,29,-11,16,-64,206,-270,-71
,66,2023-10-27 11:01:28.92,271,-225,-2029,22,-11,18,-203,6,-209,98
,67,2023-10-27 11:01:28.93,272,-231,-2037,15,-12,20,-50,201,-251,-75
,68,2023-10-27 11:01:28.94,270,-220,-2038,7,-12,21,-201,1,-202,100
,69,2023-10-27 11:01:28.95,277,-226,-2036,-1,-12,19,-56,194,-250,-69
,70,2023-10-27 11:01:28.96,267,-224,-2036,-6,-15,21,-206,0,-206,103
,71,2023-10-27 11:01:28.97,264,-222,-2033,-6,-16,22,-57,195,-252,-69
,72,2023-10-27 11:01:28.98,267,-229,-2035,-9,-18,22,-201,4,-205,98
,73,2023-10-27 11:01:28.99,269,-225,-2033,-15,-19,26,-48,198,-246,-75
,74,2023-10-27 11:01:29.00,263,-223,-2038,-16,-22,25,-210,-4,-206,107
,75,2023-10-27 11:01:29.01,267,-233,-2028,-18,-24,29,-61,180,-241,-59
,76,2023-10-27 11:01:29.02,268,-222,-2057,-16,-9,28,-222,-18,-204,120
,77,2023-10-27 11:01:29.03,254,-229,-2057,-21,-29,32,-68,174,-242,-53
,78,2023-10-27 11:01:29.04,273,-236,-2034,-24,-34,38,-231,-23,-208,127
,79,2023-10-27 11:01:29.05,270,-219,-2031,-18,-31,38,-79,158,-237,-39
,80,2023-10-27 11:01:29.06,268,-218,-2037,-19,-29,37,-241,-38,-203,139
,81,2023-10-27 11:01:29.07,276,-224,-2030,-21,-35,35,-89,147,-236,-29
,82,2023-10-27 11:01:29.08,268,-216,-2037,-19,-35,37,-248,-44,-204,146
,83,2023-10-27 11:01:29.09,256,-215,-2028,-13,-41,35,-86,142,-228,-28
,84,2023-10-27 11:01:29.10,248,-216,-2048,-12,-41,39,-245,-48,-197,146
,85,2023-10-27 11:01:29.11,261,-210,-2061,-20,-38,40,-89,138,-227,-24
,86,2023-10-27 11:01:29.12,271,-214,-2044,-39,-14,37,-253,-51,-202,152
,87,2023-10-27 11:01:29.13,254,-215,-2032,-33,-23,39,-99,132,-231,-16
,88,2023-10-27 11:01:29.14,251,-215,-2035,-30,-20,38,-261,-58,-203,159
,89,2023-10-27 11:01:29.15,256,-208,-2026,-23,-28,39,-100,116,-216,-8
,90,2023-10-27 11:01:29.16,255,-211,-2028,-22,-24,37,-258,-64,-194,161
,91,2023-10-27 11:01:29.17,254,-215,-2035,-17,-25,36,-94,119,-213,-12
,92,2023-10-27 11:01:29.18,252,-208,-2032,-13,-25,35,-261,-60,-201,160
,93,2023-10-27 11:01:29.19,256,-211,-2040,-15,-14,37,-105,115,-220,-5
,94,2023-10-27 11:01:29.20,244,-217,-2024,-21,-11,34,-265,-60,-205,162
,95,2023-10-27 11:01:29.21,268,-212,-2037,-19,-13,38,-91,118,-209,-13
,96,2023-10-27 11:01:29.22,259,-215,-2049,-20,-4,36,-250,-50,-200,150
,97,2023-10-27 11:01:29.23,252,-215,-2044,-20,-8,42,-82,130,-212,-24
,98,2023-10-27 11:01:29.24,255,-199,-2042,-19,-7,47,-241,-21,-220,131
,99,2023-10-27 11:01:29.25,257,-205,-2058,-24,-10,44,-70,155,-225,-42
,100,2023-10-27 11:01:29.26,242,-198,-2057,-31,-9,48,-253,10,-263,121
,101,2023-10-27 11:01:29.27,260,-202,-2054,-38,-9,53,-83,183,-266,-50
,102,2023-10-27 11:01:29.28,251,-201,-2034,-48,-1,54,-258,37,-295,110
,103,2023-10-27 11:01:29.29,228,-211,-2032,-43,-16,60,-90,191,-281,-50
,104,2023-10-27 11:01:29.30,247,-219,-2052,-38,-26,67,-261,40,-301,110
,105,2023-10-27 11:01:29.31,246,-216,-2027,-38,-17,72,-91,179,-270,-44
,106,2023-10-27 11:01:29.32,245,-208,-2026,-31,-22,77,-257,42,-299,107
,107,2023-10-27 11:01:29.33,235,-209,-2030,-23,-31,79,-94,180,-274,-43
,108,2023-10-27 11:01:29.34,253,-196,-2045,-22,-13,77,-262,47,-309,107
,109,2023-10-27 11:01:29.35,221,-207,-2040,-20,-15,74,-101,178,-279,-38
,110,2023-10-27 11:01:29.36,244,-207,-2050,-8,-30,75,-261,51,-312,105
,111,2023-10-27 11:01:29.37,237,-211,-2042,-2,-24,72,-98,181,-279,-41
,112,2023-10-27 11:01:29.38,241,-203,-2040,10,-33,67,-259,57,-316,101
,113,2023-10-27 11:01:29.39,244,-199,-2043,16,-29,54,-99,182,-281,-41
,114,2023-10-27 11:01:29.40,232,-203,-2040,23,-17,45,-261,58,-319,101
,115,2023-10-27 11:01:29.41,233,-206,-2027,35,-22,36,-112,169,-281,-28
,116,2023-10-27 11:01:29.42,245,-203,-2024,52,-22,26,-269,53,-322,108
,117,2023-10-27 11:01:29.43,241,-208,-2007,65,-11,12,-114,164,-278,-25
,118,2023-10-27 11:01:29.44,232,-221,-2009,80,-15,0,-268,61,-329,103
,119,2023-10-27 11:01:29.45,254,-215,-2020,87,1,-12,-123,164,-287,-20
,120,2023-10-27 11:01:29.46,252,-214,-2025,94,10,-23,-267,63,-330,102
,121,2023-10-27 11:01:29.47,257,-212,-2020,96,18,-32,-120,156,-276,-18
,122,2023-10-27 11:01:29.48,263,-205,-2015,95,33,-40,-269,64,-333,102
,123,2023-10-27 11:01:29.49,255,-236,-2022,85,47,-46,-131,155,-286,-12
,124,2023-10-27 11:01:29.50,241,-239,-2036,78,55,-52,-286,56,-342,115
,125,2023-10-27 11:01:29.51,241,-238,-2039,75,57,-53,-133,150,-283,-8
,126,2023-10-27 11:01:29.52,248,-229,-2036,70,58,-53,-283,42,-325,120
,127,2023-10-27 11:01:29.53,262,-217,-2034,62,57,-54,-157,122,-279,17
,128,2023-10-27 11:01:29.54,247,-231,-2035,54,60,-58,-286,55,-341,115
,129,2023-10-27 11:01:29.55,255,-228,-2052,45,58,-56,-147,137,-284,5
,130,2023-10-27 11:01:29.56,252,-226,-2051,38,50,-58,-290,42,-332,124
,131,2023-10-27 11:01:29.57,252,-227,-2049,33,41,-56,-137,138,-275,0
,132,2023-10-27 11:01:29.58,253,-227,-2040,29,37,-59,-252,85,-337,83
,133,2023-10-27 11:01:29.59,246,-232,-2040,23,39,-63,-128,140,-268,-6
,134,2023-10-27 11:01:29.60,261,-219,-2038,17,39,-65,-319,-41,-278,180
,135,2023-10-27 11:01:29.61,257,-217,-2032,15,40,-66,-200,29,-229,85
,136,2023-10-27 11:01:29.62,235,-222,-2045,10,37,-69,-281,-9,-272,145
,137,2023-10-27 11:01:29.63,258,-237,-2029,11,30,-71,-116,116,-232,0
,138,2023-10-27 11:01:29.64,242,-228,-2045,15,31,-69,-205,81,-286,62
,139,2023-10-27 11:01:29.65,246,-233,-2030,13,24,-72,-66,167,-233,-50
,140,2023-10-27 11:01:29.66,253,-236,-2034,22,16,-67,-188,68,-256,60
,141,2023-10-27 11:01:29.67,251,-227,-2031,25,17,-67,-83,111,-194,-14
,142,2023-10-27 11:01:29.68,258,-222,-2025,30,9,-64,-200,43,-243,78
,143,2023-10-27 11:01:29.69,256,-229,-2027,24,21,-61,-84,114,-198,-15
,144,2023-10-27 11:01:29.70,255,-222,-2025,26,22,-61,-194,54,-248,70
,145,2023-10-27 11:01:29.71,260,-222,-2037,26,23,-56,-85,111,-196,-13
,146,2023-10-27 11:01:29.72,267,-225,-2041,24,29,-54,-190,56,-246,67
,147,2023-10-27 11:01:29.73,238,-229,-2031,23,31,-51,-83,108,-191,-12
,148,2023-10-27 11:01:29.74,262,-225,-2037,25,29,-43,-186,61,-247,62
,149,2023-10-27 11:01:29.75,245,-229,-2045,29,26,-42,-85,103,-188,-9
,150,2023-10-27 11:01:29.76,270,-228,-2041,33,36,-37,-179,61,-240,59
,151,2023-10-27 11:01:29.77,266,-226,-2028,32,44,-35,-77,103,-180,-13
,152,2023-10-27 11:01:29.78,260,-232,-2027,40,31,-31,-174,70,-244,52
,153,2023-10-27 11:01:29.79,280,-222,-2034,41,45,-30,-82,104,-186,-11
,154,2023-10-27 11:01:29.80,268,-227,-2027,45,45,-29,-176,70,-246,53
,155,2023-10-27 11:01:29.81,269,-229,-2033,40,57,-26,-121,101,-222,10
,156,2023-10-27 11:01:29.82,250,-233,-2020,37,62,-27,-190,156,-346,17
,157,2023-10-27 11:01:29.83,289,-231,-2033,50,43,-21,-139,134,-273,2
,158,2023-10-27 11:01:29.84,272,-232,-2026,48,63,-25,-207,142,-349,32
,159,2023-10-27 11:01:29.85,279,-232,-2014,47,66,-25,-162,102,-264,30
,160,2023-10-27 11:01:29.86,282,-237,-2028,53,55,-23,-221,131,-352,45
,161,2023-10-27 11:01:29.87,292,-232,-2027,53,67,-27,-168,103,-271,32
,162,2023-10-27 11:01:29.88,288,-227,-2026,53,67,-27,-217,137,-354,40
,163,2023-10-27 11:01:29.89,283,-228,-2042,51,62,-28,-173,93,-266,40
,164,2023-10-27 11:01:29.90,296,-221,-2060,55,47,-25,-215,140,-355,37
,165,2023-10-27 11:01:29.91,292,-219,-2037,44,69,-30,-179,93,-272,43
,166,2023-10-27 11:01:29.92,283,-242,-2033,44,49,-25,-226,132,-358,47
,167,2023-10-27 11:01:29.93,304,-231,-2046,43,37,-22,-193,80,-273,56
,168,2023-10-27 11:01:29.94,306,-223,-2045,43,39,-18,-233,129,-362,52
,169,2023-10-27 11:01:29.95,289,-232,-2044,33,44,-18,-201,74,-275,63
,170,2023-10-27 11:01:29.96,280,-240,-2053,21,34,-12,-229,136,-365,46
,171,2023-10-27 11:01:29.97,289,-236,-2055,18,28,-7,-204,75,-279,64
,172,2023-10-27 11:01:29.98,284,-237,-2043,15,22,-1,-228,142,-370,43
,173,2023-10-27 11:01:29.99,294,-236,-2031,10,12,6,-203,78,-281,62
,174,2023-10-27 11:01:30.00,298,-238,-2031,5,4,14,-215,155,-370,30
,175,2023-10-27 11:01:30.01,303,-224,-2029,-2,11,17,-198,80,-278,59
,176,2023-10-27 11:01:30.02,299,-232,-2027,-12,7,23,-215,158,-373,28
,177,2023-10-27 11:01:30.03,290,-221,-2029,-16,8,28,-200,74,-274,63
,178,2023-10-27 11:01:30.04,304,-225,-2029,-18,6,32,-203,165,-368,19
,179,2023-10-27 11:01:30.05,298,-232,-2035,-20,4,39,-193,87,-280,53
,180,2023-10-27 11:01:30.06,284,-232,-2032,-22,6,42,-193,177,-370,8
,181,2023-10-27 11:01:30.07,292,-235,-2035,-23,8,46,-196,81,-277,57
,182,2023-10-27 11:01:30.08,296,-232,-2037,-20,7,49,-188,176,-364,6
,183,2023-10-27 11:01:30.09,291,-245,-2027,-17,9,53,-204,76,-280,64
,184,2023-10-27 11:01:30.10,297,-226,-2036,-12,7,54,-192,182,-374,5
,185,2023-10-27 11:01:30.11,298,-232,-2036,-11,7,58,-211,67,-278,72
,186,2023-10-27 11:01:30.12,308,-227,-2035,-4,3,57,-182,197,-379,-7
,187,2023-10-27 11:01:30.13,300,-222,-2026,4,-2,59,-204,82,-286,61
,188,2023-10-27 11:01:30.14,299,-230,-2030,8,1,57,-169,210,-379,-20
,189,2023-10-27 11:01:30.15,301,-234,-2029,13,2,55,-198,85,-283,56
,190,2023-10-27 11:01:30.16,295,-241,-2033,18,4,53,-164,210,-374,-23
,191,2023-10-27 11:01:30.17,288,-228,-2031,23,2,54,-203,79,-282,62
,192,2023-10-27 11:01:30.18,302,-225,-2027,29,-2,48,-160,217,-377,-28
,193,2023-10-27 11:01:30.19,299,-227,-2030,33,-3,47,-203,82,-285,60
,194,2023-10-27 11:01:30.20,289,-241,-2039,41,-12,48,-163,212,-375,-24
,195,2023-10-27 11:01:30.21,294,-242,-2034,46,-18,47,-215,68,-283,73
,196,2023-10-27 11:01:30.22,281,-236,-2034,48,-20,47,-169,204,-373,-17
,197,2023-10-27 11:01:30.23,287,-233,-2034,47,-26,45,-222,64,-286,79
,198,2023-10-27 11:01:30.24,292,-237,-2030,48,-31,46,-168,206,-374,-19
,199,2023-10-27 11:01:30.25,285,-241,-2039,52,-31,43,-227,59,-286,84
,200,2023-10-27 11:01:30.26,286,-246,-2024,51,-35,42,-171,202,-373,-15
,201,2023-10-27 11:01:30.27,277,-254,-2027,53,-36,41,-236,52,-288,92
,202,2023-10-27 11:01:30.28,283,-257,-2027,50,-28,40,-175,197,-372,-11
,203,2023-10-27 11:01:30.29,293,-262,-2026,45,-20,42,-239,45,-284,97
,204,2023-10-27 11:01:30.30,277,-257,-2031,44,-14,43,-172,200,-372,-14
,205,2023-10-27 11:01:30.31,283,-258,-2024,36,-9,40,-251,41,-292,105
,206,2023-10-27 11:01:30.32,296,-247,-2029,32,-4,39,-175,200,-375,-12
,207,2023-10-27 11:01:30.33,282,-247,-2017,27,4,39,-250,41,-291,104
,208,2023-10-27 11:01:30.34,282,-256,-2028,22,4,38,-172,203,-375,-15
,209,2023-10-27 11:01:30.35,270,-258,-2040,18,7,38,-260,34,-294,113
,210,2023-10-27 11:01:30.36,277,-256,-2039,14,4,37,-178,195,-373,-8
,211,2023-10-27 11:01:30.37,267,-252,-2033,13,-2,40,-264,28,-292,118
,212,2023-10-27 11:01:30.38,275,-251,-2030,13,-2,42,-136,243,-379,-53
,213,2023-10-27 11:01:30.39,279,-254,-2030,9,-2,43,-156,82,-238,37
,214,2023-10-27 11:01:30.40,276,-259,-2025,5,0,41,-94,185,-279,-45
,215,2023-10-27 11:01:30.41,268,-257,-2036,5,-1,42,-189,4,-193,92
,216,2023-10-27 11:01:30.42,281,-256,-2031,5,-1,42,-124,158,-282,-17
,217,2023-10-27 11:01:30.43,270,-259,-2028,7,-2,41,-200,4,-204,98
,218,2023-10-27 11:01:30.44,266,-250,-2021,9,0,41,-110,173,-283,-31
,219,2023-10-27 11:01:30.45,279,-255,-2026,4,5,40,-216,53,-269,81
,220,2023-10-27 11:01:30.46,278,-252,-2031,3,10,37,-138,220,-358,-41
,221,2023-10-27 11:01:30.47,274,-253,-2032,2,16,38,-285,6,-291,139
,222,2023-10-27 11:01:30.48,277,-250,-2028,0,13,36,-168,187,-355,-9
,223,2023-10-27 11:01:30.49,274,-248,-2033,1,17,35,-273,15,-288,129
,224,2023-10-27 11:01:30.50,276,-247,-2037,0,14,34,-141,216,-357,-37
,225,2023-10-27 11:01:30.51,276,-247,-2038,-3,9,33,-257,37,-294,110
,226,2023-10-27 11:01:30.52,276,-247,-2036,-4,6,35,-132,221,-353,-44
,227,2023-10-27 11:01:30.53,277,-252,-2038,-4,0,34,-258,39,-297,109
,228,2023-10-27 11:01:30.54,278,-254,-2037,-2,-4,32,-124,236,-360,-56
,229,2023-10-27 11:01:30.55,286,-252,-2025,-1,-3,31,-259,35,-294,112
,230,2023-10-27 11:01:30.56,280,-251,-2027,0,-5,34,-114,239,-353,-62
,231,2023-10-27 11:01:30.57,278,-241,-2025,4,-1,31,-254,42,-296,106
,232,2023-10-27 11:01:30.58,287,-251,-2023,4,3,31,-116,236,-352,-60
,233,2023-10-27 11:01:30.59,282,-254,-2025,7,10,27,-257,40,-297,108
,234,2023-10-27 11:01:30.60,286,-253,-2022,9,14,26,-118,235,-353,-58
,235,2023-10-27 11:01:30.61,289,-251,-2022,14,21,24,-266,36,-302,115
,236,2023-10-27 11:01:30.62,291,-258,-2022,19,29,21,-119,234,-353,-57
,237,2023-10-27 11:01:30.63,288,-260,-2023,23,38,19,-268,35,-303,116
,238,2023-10-27 11:01:30.64,286,-250,-2024,25,45,17,-121,228,-349,-53
,239,2023-10-27 11:01:30.65,300,-238,-2028,31,47,14,-275,27,-302,124
,240,2023-10-27 11:01:30.66,294,-244,-2038,31,52,9,-125,221,-346,-48
,241,2023-10-27 11:01:30.67,290,-252,-2040,35,43,6,-279,23,-302,128
,242,2023-10-27 11:01:30.68,295,-252,-2034,42,35,4,-123,220,-343,-48
,243,2023-10-27 11:01:30.69,296,-259,-2033,51,30,7,-278,26,-304,126
,244,2023-10-27 11:01:30.70,302,-260,-2022,61,28,6,-119,224,-343,-52
,245,2023-10-27 11:01:30.71,296,-271,-2019,66,27,9,-283,24,-307,129
,246,2023-10-27 11:01:30.72,289,-284,-2012,80,16,14,-127,215,-342,-44
,247,2023-10-27 11:01:30.73,303,-285,-2021,93,24,23,-291,18,-309,136
,248,2023-10-27 11:01:30.74,301,-282,-2015,104,30,32,-129,211,-340,-41
,249,2023-10-27 11:01:30.75,289,-268,-2011,109,34,37,-290,13,-303,138
,250,2023-10-27 11:01:30.76,300,-269,-2016,107,40,38,-126,207,-333,-40
,251,2023-10-27 11:01:30.77,307,-254,-2020,105,40,47,-290,15,-305,137
,252,2023-10-27 11:01:30.78,298,-289,-2015,101,38,57,-131,208,-339,-38
,253,2023-10-27 11:01:30.79,288,-291,-2037,98,42,64,-292,22,-314,135
,254,2023-10-27 11:01:30.80,302,-277,-2030,93,32,73,-119,220,-339,-50
,255,2023-10-27 11:01:30.81,296,-276,-2033,87,33,81,-280,36,-316,122
,256,2023-10-27 11:01:30.82,310,-266,-2031,75,42,90,-116,225,-341,-54
,257,2023-10-27 11:01:30.83,281,-275,-2029,59,57,90,-285,34,-319,125
,258,2023-10-27 11:01:30.84,287,-275,-2029,52,54,93,-120,220,-340,-50
,259,2023-10-27 11:01:30.85,309,-280,-2028,55,41,100,-276,43,-319,116
,260,2023-10-27 11:01:30.86,317,-279,-2030,52,56,101,-104,231,-335,-63
,261,2023-10-27 11:01:30.87,291,-278,-2031,51,47,102,-266,52,-318,107
,262,2023-10-27 11:01:30.88,299,-276,-2026,47,51,106,-95,235,-330,-70
,263,2023-10-27 11:01:30.89,311,-277,-2033,42,61,104,-265,53,-318,106
,264,2023-10-27 11:01:30.90,287,-271,-2021,47,41,106,-95,235,-330,-70
,265,2023-10-27 11:01:30.91,310,-283,-2039,53,37,107,-262,55,-317,103
,266,2023-10-27 11:01:30.92,288,-290,-2041,51,36,107,-84,234,-318,-75
,267,2023-10-27 11:01:30.93,309,-281,-2031,51,25,105,-258,54,-312,102
,268,2023-10-27 11:01:30.94,302,-285,-2038,44,24,104,-79,243,-322,-82
,269,2023-10-27 11:01:30.95,291,-287,-2036,40,15,102,-254,67,-321,93
,270,2023-10-27 11:01:30.96,301,-275,-2033,33,11,102,-82,235,-317,-76
,271,2023-10-27 11:01:30.97,302,-280,-2043,28,1,97,-252,67,-319,92
,272,2023-10-27 11:01:30.98,299,-280,-2038,25,-4,94,-81,235,-316,-77
,273,2023-10-27 11:01:30.99,309,-282,-2035,20,-14,89,-257,66,-323,95
,274,2023-10-27 11:01:31.00,286,-286,-2018,21,-23,85,-86,223,-309,-68
,275,2023-10-27 11:01:31.01,303,-289,-2027,17,-26,82,-259,60,-319,99
,276,2023-10-27 11:01:31.02,289,-289,-2025,14,-28,79,-90,220,-310,-65
,277,2023-10-27 11:01:31.03,300,-292,-2022,14,-33,75,-262,57,-319,102
,278,2023-10-27 11:01:31.04,294,-291,-2029,15,-34,73,-93,213,-306,-60
,279,2023-10-27 11:01:31.05,295,-294,-2020,18,-36,69,-267,58,-325,104
,280,2023-10-27 11:01:31.06,299,-294,-2020,14,-30,68,-106,203,-309,-48
,281,2023-10-27 11:01:31.07,294,-295,-2015,16,-27,63,-273,52,-325,110
,282,2023-10-27 11:01:31.08,305,-290,-2005,16,-18,55,-102,198,-300,-48
,283,2023-10-27 11:01:31.09,293,-286,-2007,13,-9,49,-268,56,-324,106
,284,2023-10-27 11:01:31.10,297,-286,-2008,9,1,43,-104,198,-302,-47
,285,2023-10-27 11:01:31.11,303,-289,-2006,8,8,36,-274,50,-324,112
,286,2023-10-27 11:01:31.12,308,-289,-2017,9,15,30,-116,187,-303,-35
,287,2023-10-27 11:01:31.13,294,-299,-2025,9,15,27,-281,50,-331,115
,288,2023-10-27 11:01:31.14,284,-304,-2034,8,15,31,-120,182,-302,-31
,289,2023-10-27 11:01:31.15,281,-304,-2033,14,5,33,-282,53,-335,114
,290,2023-10-27 11:01:31.16,293,-302,-2025,16,4,34,-120,183,-303,-31
,291,2023-10-27 11:01:31.17,293,-303,-2028,15,0,35,-277,57,-334,110
,292,2023-10-27 11:01:31.18,284,-292,-2030,15,-5,33,-115,187,-302,-36
,293,2023-10-27 11:01:31.19,290,-293,-2032,17,-9,37,-270,65,-335,102
,294,2023-10-27 11:01:31.20,276,-305,-2029,21,-15,39,-112,184,-296,-36
,295,2023-10-27 11:01:31.21,281,-305,-2032,20,-18,40,-265,71,-336,97
,296,2023-10-27 11:01:31.22,290,-299,-2025,19,-20,43,-103,190,-293,-43
,297,2023-10-27 11:01:31.23,282,-300,-2024,17,-20,46,-255,79,-334,88
,298,2023-10-27 11:01:31.24,286,-301,-2028,12,-16,46,-105,186,-291,-40
,299,2023-10-27 11:01:31.25,282,-311,-2025,11,-12,49,-261,78,-339,91
,300,2023-10-27 11:01:31.26,279,-307,-2028,5,-5,51,-102,190,-292,-44
,301,2023-10-27 11:01:31.27,294,-298,-2027,1,-2,53,-244,95,-339,74
,302,2023-10-27 11:01:31.28,285,-291,-2017,0,5,53,-93,191,-284,-49
,303,2023-10-27 11:01:31.29,291,-289,-2012,2,1,51,-237,95,-332,71
,304,2023-10-27 11:01:31.30,290,-295,-2015,-1,6,47,-96,182,-278,-43
,305,2023-10-27 11:01:31.31,288,-293,-2027,-3,9,44,-237,93,-330,72
,306,2023-10-27 11:01:31.32,279,-290,-2025,1,8,44,-96,182,-278,-43
,307,2023-10-27 11:01:31.33,280,-295,-2024,8,5,43,-226,106,-332,60
,308,2023-10-27 11:01:31.34,283,-295,-2028,14,4,37,-92,184,-276,-46
,309,2023-10-27 11:01:31.35,290,-294,-2023,15,7,33,-225,107,-332,59
,310,2023-10-27 11:01:31.36,287,-300,-2024,21,9,32,-95,176,-271,-40
,311,2023-10-27 11:01:31.37,293,-304,-2026,30,10,25,-228,105,-333,61
,312,2023-10-27 11:01:31.38,290,-304,-2017,36,9,25,-106,166,-272,-30
,313,2023-10-27 11:01:31.39,290,-311,-2016,36,14,20,-231,104,-335,63
,314,2023-10-27 11:01:31.40,291,-313,-2024,38,18,19,-109,162,-271,-26
,315,2023-10-27 11:01:31.41,293,-309,-2019,42,22,19,-232,103,-335,64
,316,2023-10-27 11:01:31.42,291,-308,-2018,44,22,15,-118,153,-271,-17
,317,2023-10-27 11:01:31.43,307,-306,-2015,41,29,14,-237,104,-341,66
,318,2023-10-27 11:01:31.44,312,-292,-2014,39,30,12,-125,149,-274,-12
,319,2023-10-27 11:01:31.45,292,-296,-2031,32,32,9,-238,102,-340,68
,320,2023-10-27 11:01:31.46,288,-296,-2025,27,23,8,-130,141,-271,-5
,321,2023-10-27 11:01:31.47,292,-314,-2036,24,14,6,-240,102,-342,69
,322,2023-10-27 11:01:31.48,287,-311,-2028,17,4,11,-137,135,-272,1
,323,2023-10-27 11:01:31.49,287,-312,-2027,9,-1,15,-242,103,-345,69
,324,2023-10-27 11:01:31.50,275,-318,-2027,2,-7,21,-141,132,-273,4
,325,2023-10-27 11:01:31.51,284,-318,-2022,-3,-14,27,-246,101,-347,72
,326,2023-10-27 11:01:31.52,299,-311,-2021,-4,-18,30,-150,122,-272,14
,327,2023-10-27 11:01:31.53,305,-301,-2012,-8,-20,34,-242,101,-343,70
,328,2023-10-27 11:01:31.54,299,-303,-2014,-10,-23,34,-149,121,-270,14
,329,2023-10-27 11:01:31.55,290,-309,-2022,-14,-20,35,-239,105,-344,67
,330,2023-10-27 11:01:31.56,287,-314,-2026,-14,-20,37,-148,115,-263,16
,331,2023-10-27 11:01:31.57,294,-304,-2025,-15,-19,40,-232,115,-347,58
,332,2023-10-27 11:01:31.58,287,-306,-2025,-16,-16,41,-148,118,-266,15
,333,2023-10-27 11:01:31.59,297,-306,-2024,-18,-14,43,-223,118,-341,52
,334,2023-10-27 11:01:31.60,277,-307,-2033,-20,-14,45,-145,114,-259,15
,335,2023-10-27 11:01:31.61,281,-313,-2034,-18,-15,47,-218,127,-345,45
,336,2023-10-27 11:01:31.62,290,-311,-2037,-16,-14,49,-149,115,-264,17
,337,2023-10-27 11:01:31.63,303,-300,-2043,-20,-8,50,-207,133,-340,37
,338,2023-10-27 11:01:31.64,259,-303,-2020,-19,-3,50,-143,114,-257,14
,339,2023-10-27 11:01:31.65,291,-302,-2021,-8,-21,50,-203,142,-345,30
,340,2023-10-27 11:01:31.66,285,-303,-2019,-8,-13,48,-154,108,-262,23
,341,2023-10-27 11:01:31.67,277,-301,-2020,-8,-11,46,-196,149,-345,23
,342,2023-10-27 11:01:31.68,284,-300,-2023,-10,-4,41,-143,117,-260,13
,343,2023-10-27 11:01:31.69,270,-297,-2006,-8,-9,43,-191,160,-351,15
,344,2023-10-27 11:01:31.70,277,-309,-2022,-5,-15,42,-147,114,-261,16
,345,2023-10-27 11:01:31.71,280,-307,-2033,-8,-7,40,-191,157,-348,17
,346,2023-10-27 11:01:31.72,281,-303,-2019,-11,-7,39,-149,110,-259,19
,347,2023-10-27 11:01:31.73,275,-296,-2012,-13,-6,38,-186,160,-346,13
,348,2023-10-27 11:01:31.74,286,-289,-2015,-16,-11,41,-152,106,-258,23
,349,2023-10-27 11:01:31.75,287,-295,-2018,-19,-2,38,-188,160,-348,14
,350,2023-10-27 11:01:31.76,290,-297,-2020,-26,0,37,-162,98,-260,32
,351,2023-10-27 11:01:31.77,273,-296,-2036,-33,2,37,-192,156,-348,18
,352,2023-10-27 11:01:31.78,276,-290,-2036,-40,-3,36,-165,92,-257,36
,353,2023-10-27 11:01:31.79,275,-283,-2042,-50,-12,37,-192,157,-349,17
,354,2023-10-27 11:01:31.80,279,-277,-2044,-53,-24,42,-174,86,-260,44
,355,2023-10-27 11:01:31.81,278,-278,-2030,-60,-35,45,-193,156,-349,18
,356,2023-10-27 11:01:31.82,286,-276,-2029,-63,-42,52,-181,80,-261,50
,357,2023-10-27 11:01:31.83,285,-288,-2029,-67,-45,56,-194,153,-347,20
,358,2023-10-27 11:01:31.84,305,-285,-2053,-78,-30,61,-189,73,-262,58
,359,2023-10-27 11:01:31.85,273,-298,-2017,-93,-9,58,-196,155,-351,20
,360,2023-10-27 11:01:31.86,287,-294,-2026,-87,-25,68,-194,71,-265,61
,361,2023-10-27 11:01:31.87,276,-296,-2016,-77,-24,69,-202,155,-357,23
,362,2023-10-27 11:01:31.88,285,-300,-2019,-63,-36,77,-207,62,-269,72
,363,2023-10-27 11:01:31.89,261,-306,-2016,-52,-36,83,-210,148,-358,31
,364,2023-10-27 11:01:31.90,275,-292,-2021,-46,-31,85,-211,55,-266,78
,365,2023-10-27 11:01:31.91,276,-290,-2020,-41,-17,89,-201,156,-357,22
,366,2023-10-27 11:01:31.92,275,-287,-2015,-38,-18,92,-215,54,-269,80
,367,2023-10-27 11:01:31.93,265,-296,-2032,-32,-22,95,-202,158,-360,22
,368,2023-10-27 11:01:31.94,270,-283,-2042,-29,-20,95,-216,55,-271,80
,369,2023-10-27 11:01:31.95,268,-288,-2037,-27,-18,99,-193,168,-361,12
,370,2023-10-27 11:01:31.96,274,-277,-2040,-29,-16,101,-215,57,-272,79
,371,2023-10-27 11:01:31.97,270,-271,-2033,-29,-13,98,-185,173,-358,6
,372,2023-10-27 11:01:31.98,266,-274,-2030,-31,-20,97,-214,58,-272,78
,373,2023-10-27 11:01:31.99,273,-275,-2037,-35,-13,93,-182,180,-362,1
,374,2023-10-27 11:01:32.00,256,-268,-2031,-34,-19,91,-218,49,-267,84
,375,2023-10-27 11:01:32.01,268,-267,-2038,-41,-24,89,-175,183,-358,-4
,376,2023-10-27 11:01:32.02,275,-263,-2040,-52,-8,81,-210,16,-226,97
,377,2023-10-27 11:01:32.03,241,-264,-2039,-56,-20,80,-254,16,-270,119
,378,2023-10-27 11:01:32.04,272,-266,-2041,-54,-39,78,-254,-70,-184,162
,379,2023-10-27 11:01:32.05,250,-261,-2043,-59,-36,78,-202,73,-275,64
,380,2023-10-27 11:01:32.06,255,-251,-2032,-62,-35,74,-193,5,-198,94
,381,2023-10-27 11:01:32.07,262,-256,-2034,-69,-37,75,-158,116,-274,21
,382,2023-10-27 11:01:32.08,253,-257,-2033,-75,-39,72,-173,20,-193,76
,383,2023-10-27 11:01:32.09,253,-263,-2032,-77,-37,74,-134,138,-272,-2
,384,2023-10-27 11:01:32.10,256,-263,-2028,-67,-62,78,-163,24,-187,69
,385,2023-10-27 11:01:32.11,247,-256,-2026,-65,-57,77,-125,143,-268,-9
,386,2023-10-27 11:01:32.12,246,-263,-2021,-64,-55,80,-166,24,-190,71
,387,2023-10-27 11:01:32.13,251,-261,-2027,-66,-57,81,-125,146,-271,-10
,388,2023-10-27 11:01:32.14,255,-247,-2031,-67,-50,81,-168,16,-184,76
,389,2023-10-27 11:01:32.15,215,-249,-2031,-65,-58,86,-120,142,-262,-11
,390,2023-10-27 11:01:32.16,252,-247,-2041,-59,-65,85,-174,5,-179,84
,391,2023-10-27 11:01:32.17,243,-248,-2037,-60,-50,88,-117,143,-260,-13
,392,2023-10-27 11:01:32.18,233,-247,-2039,-65,-50,88,-175,7,-182,84
,393,2023-10-27 11:01:32.19,241,-249,-2039,-59,-53,91,-123,136,-259,-6
,394,2023-10-27 11:01:32.20,226,-256,-2038,-57,-43,93,-202,23,-225,89
,395,2023-10-27 11:01:32.21,231,-248,-2023,-50,-47,95,-83,254,-337,-85
,396,2023-10-27 11:01:32.22,241,-253,-2026,-42,-48,101,-187,86,-273,50
,397,2023-10-27 11:01:32.23,242,-236,-2020,-37,-36,100,-101,242,-343,-70
,398,2023-10-27 11:01:32.24,237,-236,-2015,-39,-21,97,-224,40,-264,92
,399,2023-10-27 11:01:32.25,234,-248,-2024,-35,-20,99,-130,208,-338,-39
,400,2023-10-27 11:01:32.26,239,-241,-2040,-37,-14,100,-246,26,-272,110
,401,2023-10-27 11:01:32.27,234,-225,-2033,-34,-11,103,-144,202,-346,-29
,402,2023-10-27 11:01:32.28,245,-221,-2025,-35,-7,99,-257,21,-278,118
,403,2023-10-27 11:01:32.29,238,-206,-2029,-38,-1,96,-151,196,-347,-22
,404,2023-10-27 11:01:32.30,237,-213,-2045,-44,0,90,-268,12,-280,128
,405,2023-10-27 11:01:32.31,230,-220,-2054,-45,-6,91,-150,197,-347,-23
,406,2023-10-27 11:01:32.32,224,-219,-2058,-44,-15,87,-270,17,-287,126
,407,2023-10-27 11:01:32.33,215,-220,-2053,-41,-29,91,-151,203,-354,-26
,408,2023-10-27 11:01:32.34,218,-212,-2040,-39,-39,89,-273,18,-291,127
,409,2023-10-27 11:01:32.35,237,-215,-2040,-41,-43,90,-145,208,-353,-31
,410,2023-10-27 11:01:32.36,232,-216,-2040,-41,-44,88,-270,19,-289,125
,411,2023-10-27 11:01:32.37,236,-213,-2047,-40,-43,84,-137,208,-345,-35
,412,2023-10-27 11:01:32.38,226,-225,-2025,-51,-1,77,-269,22,-291,123
,413,2023-10-27 11:01:32.39,214,-226,-2041,-44,-29,74,-133,216,-349,-41
,414,2023-10-27 11:01:32.40,243,-219,-2042,-40,-32,74,-265,23,-288,121
,415,2023-10-27 11:01:32.41,221,-215,-2040,-29,-35,72,-126,220,-346,-47
,416,2023-10-27 11:01:32.42,220,-229,-2051,-16,-48,72,-265,26,-291,119
,417,2023-10-27 11:01:32.43,234,-228,-2055,-13,-39,71,-123,218,-341,-47
,418,2023-10-27 11:01:32.44,227,-227,-2056,-15,-26,70,-267,25,-292,121
,419,2023-10-27 11:01:32.45,205,-230,-2047,-8,-32,67,-110,233,-343,-61
,420,2023-10-27 11:01:32.46,224,-229,-2041,-1,-39,72,-263,32,-295,115
,421,2023-10-27 11:01:32.47,235,-227,-2042,6,-36,69,-110,230,-340,-60
,422,2023-10-27 11:01:32.48,210,-236,-2030,9,-23,70,-269,25,-294,122
,423,2023-10-27 11:01:32.49,199,-245,-2025,12,-23,71,-105,238,-343,-66
,424,2023-10-27 11:01:32.50,247,-234,-2030,17,-18,75,-259,34,-293,112
,425,2023-10-27 11:01:32.51,196,-236,-2019,25,-17,77,-100,240,-340,-70
,426,2023-10-27 11:01:32.52,214,-234,-2025,34,-23,78,-260,38,-298,111
,427,2023-10-27 11:01:32.53,224,-221,-2019,34,-14,80,-43,294,-337,-125
,428,2023-10-27 11:01:32.54,221,-218,-2015,30,0,78,-147,70,-217,38
,429,2023-10-27 11:01:32.55,210,-229,-2044,23,7,77,-19,220,-239,-100
,430,2023-10-27 11:01:32.56,208,-219,-2048,17,8,79,-199,-13,-186,106
,431,2023-10-27 11:01:32.57,197,-223,-2043,18,0,83,-73,168,-241,-47
,432,2023-10-27 11:01:32.58,232,-220,-2046,22,-4,86,-220,-21,-199,120
,433,2023-10-27 11:01:32.59,209,-226,-2040,19,3,83,-77,172,-249,-47
,434,2023-10-27 11:01:32.60,219,-231,-2045,17,-2,82,-229,-31,-198,130
,435,2023-10-27 11:01:32.61,215,-232,-2061,16,-2,83,-85,156,-241,-35
,436,2023-10-27 11:01:32.62,206,-225,-2050,17,-5,82,-242,-42,-200,142
,437,2023-10-27 11:01:32.63,213,-214,-2042,26,-14,80,-96,148,-244,-26
,438,2023-10-27 11:01:32.64,211,-223,-2037,25,-15,78,-248,-45,-203,146
,439,2023-10-27 11:01:32.65,212,-225,-2037,23,-8,77,-99,146,-245,-23
,440,2023-10-27 11:01:32.66,205,-226,-2031,19,1,74,-254,-48,-206,151
,441,2023-10-27 11:01:32.67,208,-226,-2040,18,0,71,-104,140,-244,-18
,442,2023-10-27 11:01:32.68,219,-218,-2040,16,3,70,-262,-57,-205,159
,443,2023-10-27 11:01:32.69,190,-228,-2041,16,2,66,-112,125,-237,-6
,444,2023-10-27 11:01:32.70,212,-244,-2041,22,-7,68,-271,-66,-205,168
,445,2023-10-27 11:01:32.71,204,-243,-2055,28,-10,65,-118,123,-241,-2
,446,2023-10-27 11:01:32.72,195,-245,-2047,36,-15,66,-264,-53,-211,158
,447,2023-10-27 11:01:32.73,203,-250,-2048,38,-18,69,-92,153,-245,-30
,448,2023-10-27 11:01:32.74,204,-250,-2049,41,-22,70,-234,-19,-215,126
,449,2023-10-27 11:01:32.75,201,-242,-2055,41,-25,75,-60,180,-240,-60
,450,2023-10-27 11:01:32.76,203,-234,-2057,37,-26,75,-216,-9,-207,112
,451,2023-10-27 11:01:32.77,197,-229,-2047,26,-18,77,-56,176,-232,-60
,452,2023-10-27 11:01:32.78,214,-224,-2039,18,-29,74,-218,-12,-206,115
,453,2023-10-27 11:01:32.79,211,-219,-2023,12,-24,69,-55,173,-228,-59
,454,2023-10-27 11:01:32.80,213,-214,-2021,6,-11,61,-224,-16,-208,120
,455,2023-10-27 11:01:32.81,222,-221,-2016,5,-5,55,-63,167,-230,-52
,456,2023-10-27 11:01:32.82,200,-215,-2020,-3,4,44,-225,-15,-210,120
,457,2023-10-27 11:01:32.83,217,-205,-2022,2,-3,36,-61,166,-227,-52
,458,2023-10-27 11:01:32.84,206,-219,-2023,2,-3,33,-221,-10,-211,115
,459,2023-10-27 11:01:32.85,200,-220,-2010,2,-7,26,-57,166,-223,-54
,460,2023-10-27 11:01:32.86,213,-208,-2022,1,-13,21,-210,-3,-207,106
,461,2023-10-27 11:01:32.87,208,-207,-2021,-3,-11,16,-49,169,-218,-60
,462,2023-10-27 11:01:32.88,222,-210,-2022,-4,-17,11,-210,-2,-208,106
,463,2023-10-27 11:01:32.89,217,-209,-2036,-6,-18,9,-55,158,-213,-51
,464,2023-10-27 11:01:32.90,217,-222,-2041,-8,-23,6,-212,-4,-208,108
,465,2023-10-27 11:01:32.91,204,-220,-2052,-8,-26,5,-50,166,-216,-58
,466,2023-10-27 11:01:32.92,217,-221,-2063,-7,-30,8,-212,1,-213,105
,467,2023-10-27 11:01:32.93,189,-231,-2063,1,-50,10,-51,166,-217,-57
,468,2023-10-27 11:01:32.94,211,-232,-2070,3,-47,14,-220,-4,-216,112
,469,2023-10-27 11:01:32.95,192,-235,-2071,5,-51,18,-62,156,-218,-47
,470,2023-10-27 11:01:32.96,192,-251,-2074,5,-59,25,-225,-7,-218,116
,471,2023-10-27 11:01:32.97,188,-256,-2072,10,-57,33,-67,150,-217,-41
,472,2023-10-27 11:01:32.98,186,-259,-2065,18,-62,39,-237,-14,-223,125
,473,2023-10-27 11:01:32.99,202,-258,-2066,30,-69,51,-77,143,-220,-33
,474,2023-10-27 11:01:33.00,187,-253,-2047,32,-65,56,-238,-13,-225,125
,475,2023-10-27 11:01:33.01,193,-247,-2061,35,-65,60,-74,143,-217,-34
,476,2023-10-27 11:01:33.02,180,-250,-2032,36,-59,63,-234,-6,-228,120
,477,2023-10-27 11:01:33.03,172,-254,-2040,42,-60,68,-79,134,-213,-27
,478,2023-10-27 11:01:33.04,188,-251,-2032,50,-68,75,-242,-12,-230,127
,479,2023-10-27 11:01:33.05,190,-247,-2014,56,-69,74,-92,123,-215,-15
,480,2023-10-27 11:01:33.06,188,-252,-2014,59,-64,73,-250,-19,-231,134
,481,2023-10-27 11:01:33.07,196,-243,-1994,58,-55,71,-93,121,-214,-14
,482,2023-10-27 11:01:33.08,197,-233,-2001,61,-43,65,-244,-12,-232,128
,483,2023-10-27 11:01:33.09,180,-240,-2004,57,-34,63,-91,123,-214,-16
,484,2023-10-27 11:01:33.10,181,-244,-2029,54,-34,62,-236,16,-252,110
,485,2023-10-27 11:01:33.11,173,-246,-2049,42,-16,63,-65,166,-231,-50
,486,2023-10-27 11:01:33.12,143,-240,-2049,30,-19,65,-215,29,-244,93
,487,2023-10-27 11:01:33.13,150,-252,-2051,15,-25,74,-76,132,-208,-28
,488,2023-10-27 11:01:33.14,137,-263,-2036,9,-40,85,-240,-3,-237,121
,489,2023-10-27 11:01:33.15,156,-254,-2021,7,-54,92,-99,116,-215,-8
,490,2023-10-27 11:01:33.16,155,-240,-2016,0,-56,94,-255,-4,-251,129
,491,2023-10-27 11:01:33.17,147,-240,-2012,-5,-60,97,-115,106,-221,4
,492,2023-10-27 11:01:33.18,167,-242,-2034,-11,-55,97,-258,-3,-255,130
,493,2023-10-27 11:01:33.19,142,-249,-2048,-16,-44,95,-114,107,-221,3
,494,2023-10-27 11:01:33.20,150,-248,-2044,-19,-39,93,-254,2,-256,126
,495,2023-10-27 11:01:33.21,132,-254,-2050,-20,-36,95,-113,104,-217,4
,496,2023-10-27 11:01:33.22,132,-251,-2053,-14,-45,94,-243,16,-259,113
,497,2023-10-27 11:01:33.23,150,-259,-2053,-13,-40,94,-146,70,-216,38
,498,2023-10-27 11:01:33.24,132,-245,-2059,-6,-40,91,-372,-103,-269,237
,499,2023-10-27 11:01:33.25,135,-243,-2061,-5,-38,88,-250,-14,-236,132
,500,2023-10-27 11:01:33.26,128,-253,-2061,-4,-36,84,-332,-52,-280,192
,501,2023-10-27 11:01:33.27,135,-256,-2050,1,-39,84,-147,86,-233,30
,502,2023-10-27 11:01:33.28,148,-265,-2048,9,-42,80,-260,13,-273,123
,503,2023-10-27 11:01:33.29,136,-252,-2035,24,-41,80,-124,96,-220,14
,504,2023-10-27 11:01:33.30,140,-260,-2025,37,-39,76,-255,9,-264,123
,505,2023-10-27 11:01:33.31,156,-258,-2050,40,-30,72,-115,100,-215,7
,506,2023-10-27 11:01:33.32,148,-260,-2006,40,-27,67,-223,41,-264,91
,507,2023-10-27 11:01:33.33,158,-269,-2028,53,-22,65,-101,112,-213,-5
,508,2023-10-27 11:01:33.34,155,-265,-2031,55,-5,57,-205,52,-257,76
,509,2023-10-27 11:01:33.35,155,-252,-2031,58,-5,56,-88,119,-207,-15
,510,2023-10-27 11:01:33.36,159,-237,-2037,57,-1,51,-201,61,-262,70
,511,2023-10-27 11:01:33.37,134,-241,-2045,52,-1,46,-90,111,-201,-10
,512,2023-10-27 11:01:33.38,128,-252,-2065,44,-7,44,-194,62,-256,66
,513,2023-10-27 11:01:33.39,118,-245,-2080,29,-10,49,-83,110,-193,-13
,514,2023-10-27 11:01:33.40,104,-256,-2095,19,-25,56,-184,60,-244,62
,515,2023-10-27 11:01:33.41,108,-281,-2088,3,-32,68,-80,100,-180,-10
,516,2023-10-27 11:01:33.42,111,-267,-2066,1,-51,80,-186,58,-244,64
,517,2023-10-27 11:01:33.43,122,-265,-2025,3,-65,86,-98,90,-188,4
,518,2023-10-27 11:01:33.44,136,-261,-2009,6,-64,89,-203,52,-255,75
,519,2023-10-27 11:01:33.45,150,-265,-2005,13,-52,88,-99,81,-180,9
,520,2023-10-27 11:01:33.46,147,-261,-1988,21,-35,85,-178,60,-238,59
,521,2023-10-27 11:01:33.47,157,-270,-1979,31,-23,77,-89,83,-172,3
,522,2023-10-27 11:01:33.48,163,-272,-1998,44,-2,75,-170,64,-234,53
,523,2023-10-27 11:01:33.49,163,-275,-2014,56,14,67,-77,81,-158,-2
,524,2023-10-27 11:01:33.50,158,-276,-2021,60,37,64,-168,57,-225,55
,525,2023-10-27 11:01:33.51,169,-271,-2022,63,53,61,-96,60,-156,18
,526,2023-10-27 11:01:33.52,185,-251,-2021,61,70,59,-171,55,-226,58
,527,2023-10-27 11:01:33.53,212,-226,-1983,54,93,49,-100,66,-166,17
,528,2023-10-27 11:01:33.54,221,-217,-1962,36,135,34,-175,62,-237,56
,529,2023-10-27 11:01:33.55,218,-219,-1972,17,159,12,-114,56,-170,29
,530,2023-10-27 11:01:33.56,216,-244,-2002,-2,187,2,-178,65,-243,56
,531,2023-10-27 11:01:33.57,172,-246,-1996,6,167,2,-110,63,-173,23
,532,2023-10-27 11:01:33.58,230,-227,-2015,24,125,8,-168,81,-249,43
,533,2023-10-27 11:01:33.59,236,-239,-2015,27,117,4,-130,87,-217,21
,534,2023-10-27 11:01:33.60,254,-229,-2038,18,127,4,-137,208,-345,-35
,535,2023-10-27 11:01:33.61,230,-237,-2050,-3,146,1,-126,136,-262,-5
,536,2023-10-27 11:01:33.62,238,-234,-2079,-26,165,2,-170,179,-349,-4
,537,2023-10-27 11:01:33.63,223,-250,-2099,-29,143,10,-165,62,-227,51
,538,2023-10-27 11:01:33.64,198,-258,-2106,-22,101,19,-285,-16,-269,150
,539,2023-10-27 11:01:33.65,211,-257,-2115,-27,84,36,-237,-46,-191,141
,540,2023-10-27 11:01:33.66,180,-273,-2138,-40,76,50,-245,38,-283,103
,541,2023-10-27 11:01:33.67,153,-285,-2135,-51,35,72,-180,33,-213,73
,542,2023-10-27 11:01:33.68,132,-303,-2150,-40,-41,101,-200,96,-296,52
,543,2023-10-27 11:01:33.69,115,-305,-2143,-21,-109,133,-168,45,-213,61
,544,2023-10-27 11:01:33.70,108,-296,-2109,5,-175,167,-200,92,-292,54
,545,2023-10-27 11:01:33.71,108,-298,-2082,24,-228,194,-177,25,-202,76
,546,2023-10-27 11:01:33.72,201,-269,-2161,24,-224,212,-185,106,-291,39
,547,2023-10-27 11:01:33.73,137,-271,-2079,-26,-148,193,-158,53,-211,52
,548,2023-10-27 11:01:33.74,84,-258,-2053,-41,-154,195,-178,123,-301,27
,549,2023-10-27 11:01:33.75,111,-283,-2037,-53,-147,197,-155,59,-214,48
,550,2023-10-27 11:01:33.76,69,-279,-2045,-34,-182,201,-157,138,-295,9
,551,2023-10-27 11:01:33.77,97,-288,-2034,4,-213,210,-142,59,-201,41
,552,2023-10-27 11:01:33.78,99,-295,-2031,31,-221,210,-146,139,-285,3
,553,2023-10-27 11:01:33.79,96,-293,-2012,36,-195,209,-147,52,-199,47
,554,2023-10-27 11:01:33.80,86,-280,-2000,45,-195,206,-153,128,-281,12
,555,2023-10-27 11:01:33.81,109,-281,-2005,64,-190,203,-157,40,-197,58
,556,2023-10-27 11:01:33.82,88,-277,-2008,82,-179,196,-145,133,-278,6
,557,2023-10-27 11:01:33.83,92,-273,-2008,96,-173,187,-150,41,-191,54
,558,2023-10-27 11:01:33.84,94,-268,-2024,100,-166,177,-136,134,-270,1
,559,2023-10-27 11:01:33.85,74,-272,-2021,92,-143,165,-156,32,-188,62
,560,2023-10-27 11:01:33.86,69,-265,-2022,86,-130,159,-147,125,-272,11
,561,2023-10-27 11:01:33.87,65,-267,-2022,83,-134,155,-173,18,-191,77
,562,2023-10-27 11:01:33.88,71,-273,-2012,79,-132,147,-158,115,-273,21
,563,2023-10-27 11:01:33.89,71,-279,-2022,72,-127,142,-188,6,-194,91
,564,2023-10-27 11:01:33.90,67,-280,-2015,61,-121,137,-159,119,-278,20
,565,2023-10-27 11:01:33.91,78,-272,-2007,52,-113,131,-191,9,-200,91
,566,2023-10-27 11:01:33.92,85,-273,-2012,39,-103,128,-174,118,-292,28
,567,2023-10-27 11:01:33.93,69,-277,-2008,28,-90,122,-214,0,-214,107
,568,2023-10-27 11:01:33.94,76,-280,-2017,19,-78,117,-184,109,-293,37
,569,2023-10-27 11:01:33.95,85,-271,-2017,7,-62,113,-224,-15,-209,119
,570,2023-10-27 11:01:33.96,63,-269,-2013,0,-55,108,-172,111,-283,30
,571,2023-10-27 11:01:33.97,70,-283,-2014,-5,-46,102,-210,-11,-199,110
,572,2023-10-27 11:01:33.98,74,-275,-2018,-9,-39,95,-154,122,-276,16
,573,2023-10-27 11:01:33.99,82,-266,-2022,-15,-25,86,-202,-9,-193,105
,574,2023-10-27 11:01:34.00,86,-257,-2019,-22,-15,77,-145,131,-276,7
,575,2023-10-27 11:01:34.01,78,-255,-2020,-32,-1,70,-201,-4,-197,102
,576,2023-10-27 11:01:34.02,81,-252,-2025,-42,13,57,-138,135,-273,1
,577,2023-10-27 11:01:34.03,91,-243,-2021,-55,31,48,-200,-7,-193,103
,578,2023-10-27 11:01:34.04,81,-258,-2030,-68,43,39,-134,135,-269,0
,579,2023-10-27 11:01:34.05,70,-242,-2047,-88,39,26,-199,-11,-188,105
,580,2023-10-27 11:01:34.06,67,-247,-2061,-100,34,22,-120,142,-262,-11
,581,2023-10-27 11:01:34.07,65,-254,-2071,-108,21,26,-192,-8,-184,100
,582,2023-10-27 11:01:34.08,72,-243,-2068,-111,8,30,-115,141,-256,-13
,583,2023-10-27 11:01:34.09,76,-247,-2059,-118,-4,33,-182,-1,-181,91
,584,2023-10-27 11:01:34.10,65,-244,-2066,-120,-16,38,-96,158,-254,-31
,585,2023-10-27 11:01:34.11,72,-238,-2061,-120,-31,45,-177,-1,-176,89
,586,2023-10-27 11:01:34.12,69,-234,-2047,-120,-36,49,-91,157,-248,-33
,587,2023-10-27 11:01:34.13,71,-236,-2051,-116,-39,50,-172,2,-174,85
,588,2023-10-27 11:01:34.14,66,-235,-2047,-114,-41,55,-77,171,-248,-47
,589,2023-10-27 11:01:34.15,62,-232,-2045,-105,-42,55,-172,5,-177,83
,590,2023-10-27 11:01:34.16,60,-240,-2050,-95,-40,59,-79,169,-248,-45
,591,2023-10-27 11:01:34.17,39,-238,-2041,-83,-43,60,-183,-8,-175,95
,592,2023-10-27 11:01:34.18,44,-226,-2045,-74,-42,63,-88,160,-248,-36
,593,2023-10-27 11:01:34.19,47,-217,-2051,-64,-49,63,-194,-13,-181,103
,594,2023-10-27 11:01:34.20,52,-208,-2042,-53,-51,64,-95,156,-251,-30
,595,2023-10-27 11:01:34.21,43,-208,-2051,-51,-47,64,-211,-25,-186,118
,596,2023-10-27 11:01:34.22,30,-213,-2043,-53,-34,58,-106,146,-252,-20
,597,2023-10-27 11:01:34.23,45,-208,-2036,-46,-43,56,-218,-30,-188,124
,598,2023-10-27 11:01:34.24,37,-216,-2055,-43,-36,56,-102,149,-251,-23
,599,2023-10-27 11:01:34.25,30,-217,-2040,-40,-20,53,-219,-28,-191,123
,600,2023-10-27 11:01:34.26,47,-208,-2035,-35,-20,47,-101,152,-253,-25
,601,2023-10-27 11:01:34.27,44,-209,-2033,-29,-12,43,-221,-27,-194,124
,602,2023-10-27 11:01:34.28,51,-197,-2038,-29,-4,36,-94,157,-251,-31
,603,2023-10-27 11:01:34.29,44,-206,-2042,-27,7,31,-219,-25,-194,122
,604,2023-10-27 11:01:34.30,44,-205,-2040,-24,16,26,-95,156,-251,-30
,605,2023-10-27 11:01:34.31,55,-199,-2037,-18,15,18,-224,-34,-190,129
,606,2023-10-27 11:01:34.32,47,-209,-2053,-14,19,14,-94,152,-246,-29
,607,2023-10-27 11:01:34.33,47,-212,-2052,-12,20,11,-229,-36,-193,132
,608,2023-10-27 11:01:34.34,42,-215,-2051,-9,15,11,-97,145,-242,-24
,609,2023-10-27 11:01:34.35,48,-215,-2051,-2,10,6,-235,-38,-197,136
,610,2023-10-27 11:01:34.36,46,-210,-2056,6,4,7,-101,148,-249,-23
,611,2023-10-27 11:01:34.37,47,-222,-2059,8,0,8,-237,-39,-198,138
,612,2023-10-27 11:01:34.38,39,-221,-2053,10,-2,8,-92,154,-246,-31
,613,2023-10-27 11:01:34.39,53,-223,-2051,15,-1,10,-232,-36,-196,134
,614,2023-10-27 11:01:34.40,42,-223,-2043,14,0,12,-85,153,-238,-34
,615,2023-10-27 11:01:34.41,51,-213,-2036,11,1,12,-232,-36,-196,134
,616,2023-10-27 11:01:34.42,52,-225,-2033,7,7,13,-82,157,-239,-37
,617,2023-10-27 11:01:34.43,50,-226,-2042,5,12,16,-226,-32,-194,129
,618,2023-10-27 11:01:34.44,47,-227,-2038,4,17,16,-74,160,-234,-43
,619,2023-10-27 11:01:34.45,48,-225,-2047,3,23,19,-224,-32,-192,128
,620,2023-10-27 11:01:34.46,56,-225,-2040,1,30,23,-70,161,-231,-45
,621,2023-10-27 11:01:34.47,63,-223,-2033,-4,33,20,-219,-22,-197,120
,622,2023-10-27 11:01:34.48,69,-217,-2020,-4,42,24,-60,172,-232,-56
,623,2023-10-27 11:01:34.49,57,-226,-2037,-8,52,20,-215,-19,-196,117
,624,2023-10-27 11:01:34.50,60,-224,-2040,-15,55,20,-47,184,-231,-68
,625,2023-10-27 11:01:34.51,71,-217,-2033,-16,62,19,-212,-16,-196,114
,626,2023-10-27 11:01:34.52,57,-222,-2046,-18,68,19,-50,178,-228,-64
,627,2023-10-27 11:01:34.53,64,-218,-2047,-20,66,21,-214,-19,-195,116
,628,2023-10-27 11:01:34.54,65,-211,-2047,-25,63,23,-44,183,-227,-69
,629,2023-10-27 11:01:34.55,70,-209,-2056,-22,62,21,-201,-3,-198,102
,630,2023-10-27 11:01:34.56,60,-206,-2042,-22,51,20,-32,193,-225,-80
,631,2023-10-27 11:01:34.57,77,-201,-2063,-16,30,23,-200,-5,-195,102
,632,2023-10-27 11:01:34.58,93,-204,-2071,-18,25,21,-44,175,-219,-65
,633,2023-10-27 11:01:34.59,82,-202,-2073,-21,38,15,-214,-15,-199,114
,634,2023-10-27 11:01:34.60,77,-206,-2064,-25,39,12,-44,173,-217,-64
,635,2023-10-27 11:01:34.61,69,-203,-2052,-25,30,8,-213,-16,-197,114
,636,2023-10-27 11:01:34.62,79,-216,-2046,-22,22,13,-53,161,-214,-54
,637,2023-10-27 11:01:34.63,62,-210,-2033,-18,15,9,-224,-23,-201,123
,638,2023-10-27 11:01:34.64,78,-210,-2044,-10,1,12,-59,157,-216,-49
,639,2023-10-27 11:01:34.65,81,-201,-2036,-13,18,10,-222,-18,-204,120
,640,2023-10-27 11:01:34.66,77,-198,-2040,-8,14,8,-61,153,-214,-46
,641,2023-10-27 11:01:34.67,75,-201,-2049,-8,14,6,-229,-27,-202,128
,642,2023-10-27 11:01:34.68,70,-207,-2057,-6,9,7,-64,147,-211,-41
,643,2023-10-27 11:01:34.69,68,-199,-2058,-7,7,7,-231,-29,-202,130
,644,2023-10-27 11:01:34.70,78,-204,-2054,-4,0,8,-70,139,-209,-34
,645,2023-10-27 11:01:34.71,70,-210,-2052,-5,-7,10,-240,-32,-208,136
,646,2023-10-27 11:01:34.72,80,-205,-2046,-5,-8,12,-79,136,-215,-28
,647,2023-10-27 11:01:34.73,67,-202,-2050,-5,-9,13,-247,-32,-215,139
,648,2023-10-27 11:01:34.74,65,-207,-2043,-6,-10,17,-88,129,-217,-20
,649,2023-10-27 11:01:34.75,67,-206,-2043,-5,-8,18,-252,-32,-220,142
,650,2023-10-27 11:01:34.76,84,-213,-2047,-3,-5,23,-86,132,-218,-23
,651,2023-10-27 11:01:34.77,74,-211,-2048,-3,-4,24,-243,-21,-222,132
,652,2023-10-27 11:01:34.78,69,-208,-2053,-1,2,27,-76,140,-216,-32
,653,2023-10-27 11:01:34.79,77,-205,-2052,-1,5,30,-234,-14,-220,124
,654,2023-10-27 11:01:34.80,77,-203,-2049,-3,9,28,-71,141,-212,-35
,655,2023-10-27 11:01:34.81,76,-196,-2040,-2,11,29,-227,-4,-223,115
,656,2023-10-27 11:01:34.82,76,-215,-2052,-3,22,28,-66,148,-214,-41
,657,2023-10-27 11:01:34.83,67,-203,-2047,-1,19,29,-224,1,-225,111
,658,2023-10-27 11:01:34.84,62,-202,-2043,1,21,32,-56,154,-210,-49
,659,2023-10-27 11:01:34.85,68,-205,-2052,1,21,31,-211,9,-220,101
,660,2023-10-27 11:01:34.86,66,-195,-2045,1,20,31,-54,150,-204,-48
,661,2023-10-27 11:01:34.87,69,-204,-2049,-1,19,30,-207,17,-224,95
,662,2023-10-27 11:01:34.88,61,-201,-2053,0,15,30,-53,154,-207,-50
,663,2023-10-27 11:01:34.89,72,-203,-2052,2,7,30,-203,24,-227,89
,664,2023-10-27 11:01:34.90,71,-196,-2043,3,7,28,-48,157,-205,-54
,665,2023-10-27 11:01:34.91,69,-198,-2051,0,5,26,-187,41,-228,73
,666,2023-10-27 11:01:34.92,56,-201,-2050,-1,3,28,-43,158,-201,-57
,667,2023-10-27 11:01:34.93,66,-205,-2053,4,3,26,-186,38,-224,74
,668,2023-10-27 11:01:34.94,72,-203,-2053,3,-1,25,-46,145,-191,-49
,669,2023-10-27 11:01:34.95,80,-195,-2046,4,0,22,-185,38,-223,73
,670,2023-10-27 11:01:34.96,65,-196,-2044,5,0,22,-41,151,-192,-55
,671,2023-10-27 11:01:34.97,70,-196,-2041,5,2,17,-185,36,-221,74
,672,2023-10-27 11:01:34.98,82,-200,-2046,5,4,18,-52,136,-188,-42
,673,2023-10-27 11:01:34.99,66,-198,-2044,4,7,16,-199,24,-223,87
,674,2023-10-27 11:01:35.00,66,-203,-2041,7,10,14,-72,118,-190,-23
,675,2023-10-27 11:01:35.01,62,-203,-2047,7,7,13,-207,18,-225,94
,676,2023-10-27 11:01:35.02,71,-204,-2046,5,11,16,-73,114,-187,-20
,677,2023-10-27 11:01:35.03,73,-207,-2044,6,10,18,-210,11,-221,99
,678,2023-10-27 11:01:35.04,82,-206,-2045,9,10,18,-82,101,-183,-9
,679,2023-10-27 11:01:35.05,76,-211,-2049,8,2,19,-216,5,-221,105
,680,2023-10-27 11:01:35.06,72,-207,-2051,5,18,19,-86,94,-180,-4
,681,2023-10-27 11:01:35.07,69,-209,-2045,5,14,21,-216,9,-225,103
,682,2023-10-27 11:01:35.08,65,-210,-2031,8,10,23,-87,98,-185,-5
,683,2023-10-27 11:01:35.09,76,-204,-2042,8,1,26,-216,14,-230,101
,684,2023-10-27 11:01:35.10,73,-208,-2052,6,1,27,-100,84,-184,8
,685,2023-10-27 11:01:35.11,101,-200,-2049,3,13,29,-225,5,-230,110
,686,2023-10-27 11:01:35.12,87,-191,-2056,-2,32,26,-105,78,-183,13
,687,2023-10-27 11:01:35.13,67,-200,-2044,-8,24,22,-227,8,-235,109
,688,2023-10-27 11:01:35.14,77,-202,-2062,-5,6,24,-112,73,-185,19
,689,2023-10-27 11:01:35.15,83,-210,-2063,-5,9,28,-227,7,-234,110
,690,2023-10-27 11:01:35.16,76,-215,-2055,-5,21,27,-111,70,-181,20
,691,2023-10-27 11:01:35.17,77,-210,-2046,-8,26,28,-216,17,-233,99
,692,2023-10-27 11:01:35.18,93,-207,-2048,-8,18,27,-104,76,-180,14
,693,2023-10-27 11:01:35.19,66,-207,-2038,-1,16,24,-207,27,-234,90
,694,2023-10-27 11:01:35.20,69,-204,-2052,5,-4,26,-105,75,-180,15
,695,2023-10-27 11:01:35.21,87,-210,-2047,3,16,23,-207,30,-237,88
,696,2023-10-27 11:01:35.22,67,-203,-2049,-1,14,22,-104,75,-179,14
,697,2023-10-27 11:01:35.23,79,-213,-2053,-3,16,22,-198,40,-238,79
,698,2023-10-27 11:01:35.24,68,-207,-2048,-2,8,22,-104,73,-177,15
,699,2023-10-27 11:01:35.25,81,-202,-2047,-1,8,24,-189,46,-235,71
,700,2023-10-27 11:01:35.26,75,-205,-2047,-3,8,22,-91,78,-169,6
,701,2023-10-27 11:01:35.27,70,-207,-2046,-7,7,22,-176,57,-233,59
,702,2023-10-27 11:01:35.28,74,-210,-2048,-7,15,20,-90,79,-169,5
,703,2023-10-27 11:01:35.29,81,-207,-2043,-9,18,21,-174,62,-236,56
,704,2023-10-27 11:01:35.30,86,-206,-2026,-9,20,14,-96,75,-171,10
,705,2023-10-27 11:01:35.31,43,-230,-2035,0,1,13,-174,66,-240,54
,706,2023-10-27 11:01:35.32,105,-215,-2053,5,-14,19,-92,84,-176,4
,707,2023-10-27 11:01:35.33,84,-210,-2060,-3,16,17,-171,74,-245,48
,708,2023-10-27 11:01:35.34,71,-203,-2064,-13,33,17,-97,80,-177,8
,709,2023-10-27 11:01:35.35,77,-196,-2044,-18,20,17,-158,78,-236,40
,710,2023-10-27 11:01:35.36,75,-195,-2057,-14,2,20,-85,83,-168,1
,711,2023-10-27 11:01:35.37,80,-195,-2051,-19,10,17,-146,90,-236,28
,712,2023-10-27 11:01:35.38,83,-188,-2049,-31,19,14,-93,77,-170,8
,713,2023-10-27 11:01:35.39,71,-190,-2052,-46,29,12,-163,78,-241,42
,714,2023-10-27 11:01:35.40,57,-188,-2031,-48,25,9,-114,56,-170,29
,715,2023-10-27 11:01:35.41,80,-192,-2042,-36,-6,15,-169,70,-239,49
,716,2023-10-27 11:01:35.42,96,-179,-2033,-31,2,13,-126,44,-170,41
,717,2023-10-27 11:01:35.43,98,-161,-2032,-44,30,9,-178,63,-241,57
,718,2023-10-27 11:01:35.44,65,-160,-2013,-59,37,0,-136,29,-165,53
,719,2023-10-27 11:01:35.45,107,-162,-2037,-54,11,-2,-167,68,-235,49
,720,2023-10-27 11:01:35.46,97,-165,-2057,-48,11,-5,-123,39,-162,42
,721,2023-10-27 11:01:35.47,87,-188,-2066,-50,26,-8,-162,76,-238,43
,722,2023-10-27 11:01:35.48,81,-190,-2067,-53,26,-4,-136,26,-162,55
,723,2023-10-27 11:01:35.49,82,-182,-2059,-60,36,-1,-170,66,-236,52
,724,2023-10-27 11:01:35.50,83,-169,-2048,-48,15,1,-139,20,-159,59
,725,2023-10-27 11:01:35.51,100,-159,-2056,-43,9,5,-166,70,-236,48
,726,2023-10-27 11:01:35.52,93,-158,-2064,-49,24,3,-148,14,-162,67
,727,2023-10-27 11:01:35.53,80,-167,-2071,-59,37,3,-176,64,-240,56
,728,2023-10-27 11:01:35.54,90,-172,-2073,-52,19,6,-160,2,-162,79
,729,2023-10-27 11:01:35.55,107,-168,-2067,-39,0,11,-180,62,-242,59
,730,2023-10-27 11:01:35.56,104,-160,-2043,-32,20,14,-165,1,-166,82
,731,2023-10-27 11:01:35.57,103,-159,-2042,-31,16,12,-176,69,-245,53
,732,2023-10-27 11:01:35.58,106,-154,-2052,-31,15,10,-168,-1,-167,84
,733,2023-10-27 11:01:35.59,103,-153,-2058,-25,4,14,-170,78,-248,46
,734,2023-10-27 11:01:35.60,88,-155,-2055,-19,4,15,-164,3,-167,80
,735,2023-10-27 11:01:35.61,87,-166,-2067,-12,2,18,-162,85,-247,38
,736,2023-10-27 11:01:35.62,94,-174,-2066,-9,-5,21,-163,3,-166,80
,737,2023-10-27 11:01:35.63,92,-176,-2085,-6,-16,27,-156,90,-246,33
,738,2023-10-27 11:01:35.64,78,-175,-2116,2,-27,32,-166,2,-168,82
,739,2023-10-27 11:01:35.65,88,-140,-2088,10,-38,35,-152,98,-250,27
,740,2023-10-27 11:01:35.66,102,-147,-2074,12,-31,36,-169,1,-170,84
,741,2023-10-27 11:01:35.67,80,-182,-2093,8,-30,39,-152,99,-251,26
,742,2023-10-27 11:01:35.68,91,-181,-2118,8,-36,40,-173,0,-173,86
,743,2023-10-27 11:01:35.69,88,-159,-2134,15,-40,46,-145,112,-257,16
,744,2023-10-27 11:01:35.70,86,-151,-2142,21,-51,48,-168,9,-177,79
,745,2023-10-27 11:01:35.71,83,-154,-2165,25,-57,50,-124,146,-270,-11
,746,2023-10-27 11:01:35.72,113,-150,-2022,57,-57,39,-129,51,-180,39
,747,2023-10-27 11:01:35.73,71,-167,-2133,79,-36,43,-40,236,-276,-98
,748,2023-10-27 11:01:35.74,81,-173,-2250,36,-34,41,-51,126,-177,-37
,749,2023-10-27 11:01:35.75,83,-177,-2143,-29,-30,44,24,277,-253,-150
,750,2023-10-27 11:01:35.76,66,-149,-2130,-26,-11,47,-58,97,-155,-19
,751,2023-10-27 11:01:35.77,62,-139,-2108,-13,-21,45,-34,201,-235,-83
,752,2023-10-27 11:01:35.78,52,-150,-2048,-9,-33,47,-121,39,-160,41
,753,2023-10-27 11:01:35.79,57,-179,-2033,-5,-29,52,-85,156,-241,-35
,754,2023-10-27 11:01:35.80,50,-186,-2007,14,-36,57,-149,13,-162,68
,755,2023-10-27 11:01:35.81,54,-166,-1981,43,-34,60,-99,142,-241,-21
,756,2023-10-27 11:01:35.82,56,-165,-1954,66,-34,59,-169,-8,-161,88
,757,2023-10-27 11:01:35.83,57,-169,-1940,86,-34,59,-116,123,-239,-3
,758,2023-10-27 11:01:35.84,78,-165,-1941,102,-22,57,-196,-28,-168,112
,759,2023-10-27 11:01:35.85,69,-152,-1934,116,-8,54,-133,107,-240,13
,760,2023-10-27 11:01:35.86,60,-159,-1938,129,-9,50,-210,-43,-167,126
,761,2023-10-27 11:01:35.87,46,-182,-1959,132,-4,52,-142,102,-244,20
,762,2023-10-27 11:01:35.88,30,-190,-1968,140,-20,56,-220,-48,-172,134
,763,2023-10-27 11:01:35.89,64,-185,-1993,146,-29,61,-146,95,-241,25
,764,2023-10-27 11:01:35.90,42,-191,-1990,142,-7,65,-234,-59,-175,146
,765,2023-10-27 11:01:35.91,59,-202,-2010,132,-5,71,-153,89,-242,32
,766,2023-10-27 11:01:35.92,47,-218,-2004,123,0,78,-234,-62,-172,148
,767,2023-10-27 11:01:35.93,60,-226,-2018,131,-10,85,-146,96,-242,25
,768,2023-10-27 11:01:35.94,72,-238,-2021,131,-1,90,-228,-56,-172,142
,769,2023-10-27 11:01:35.95,74,-228,-2029,124,16,95,-132,111,-243,10
,770,2023-10-27 11:01:35.96,74,-223,-2030,108,43,94,-226,-49,-177,137
,771,2023-10-27 11:01:35.97,85,-227,-2040,90,66,93,-122,118,-240,2
,772,2023-10-27 11:01:35.98,87,-223,-2058,78,71,91,-217,-43,-174,130
,773,2023-10-27 11:01:35.99,85,-213,-2062,66,73,87,-108,136,-244,-14
,774,2023-10-27 11:01:36.00,83,-214,-2061,52,73,86,-208,-33,-175,120
,775,2023-10-27 11:01:36.01,69,-199,-2071,31,75,81,-88,153,-241,-32
,776,2023-10-27 11:01:36.02,74,-191,-2067,7,73,77,-187,-13,-174,100
,777,2023-10-27 11:01:36.03,67,-191,-2074,-12,74,72,-61,171,-232,-55
,778,2023-10-27 11:01:36.04,73,-178,-2069,-29,65,67,-180,-11,-169,95
,779,2023-10-27 11:01:36.05,75,-178,-2041,-45,56,62,-66,162,-228,-48
,780,2023-10-27 11:01:36.06,75,-185,-2036,-53,55,57,-197,-33,-164,115
,781,2023-10-27 11:01:36.07,78,-205,-2016,-57,50,54,-83,144,-227,-30
,782,2023-10-27 11:01:36.08,73,-206,-1998,-60,54,47,-212,-41,-171,126
,783,2023-10-27 11:01:36.09,71,-207,-1998,-57,58,42,-88,138,-226,-25
,784,2023-10-27 11:01:36.10,103,-204,-2010,-30,52,38,-220,-47,-173,133
,785,2023-10-27 11:01:36.11,64,-201,-2025,-22,63,32,-92,132,-224,-20
,786,2023-10-27 11:01:36.12,75,-203,-2036,-7,32,31,-222,-50,-172,136
,787,2023-10-27 11:01:36.13,79,-206,-2037,0,32,27,-90,133,-223,-21
,788,2023-10-27 11:01:36.14,80,-196,-2058,0,19,27,-216,-40,-176,128
,789,2023-10-27 11:01:36.15,57,-188,-2070,-6,19,22,-80,147,-227,-33
,790,2023-10-27 11:01:36.16,68,-178,-2071,-15,13,21,-213,-38,-175,125
,791,2023-10-27 11:01:36.17,76,-183,-2081,-24,14,18,-65,153,-218,-44
,792,2023-10-27 11:01:36.18,92,-178,-2068,-29,14,14,-202,-26,-176,114
,793,2023-10-27 11:01:36.19,84,-182,-2078,-32,9,11,-56,166,-222,-55
,794,2023-10-27 11:01:36.20,71,-195,-2075,-28,3,6,-200,-21,-179,110
,795,2023-10-27 11:01:36.21,72,-212,-2082,-18,-3,6,-52,168,-220,-58
,796,2023-10-27 11:01:36.22,63,-238,-2083,1,-14,12,-203,-26,-177,114
,797,2023-10-27 11:01:36.23,61,-245,-2076,23,-20,18,-71,141,-212,-35
,798,2023-10-27 11:01:36.24,68,-246,-2061,45,-19,23,-216,-45,-171,130
,799,2023-10-27 11:01:36.25,79,-254,-2046,65,-7,28,-71,140,-211,-34
,800,2023-10-27 11:01:36.26,86,-233,-2035,77,2,30,-224,-50,-174,137
,801,2023-10-27 11:01:36.27,83,-220,-2026,91,17,29,-69,137,-206,-34
,802,2023-10-27 11:01:36.28,80,-226,-2032,99,32,25,-230,-53,-177,141
,803,2023-10-27 11:01:36.29,79,-226,-2042,96,37,23,-82,124,-206,-21
,804,2023-10-27 11:01:36.30,64,-218,-2046,89,36,23,-242,-66,-176,154
,805,2023-10-27 11:01:36.31,70,-210,-2048,80,35,22,-92,119,-211,-13
,806,2023-10-27 11:01:36.32,61,-207,-2044,66,30,24,-240,-61,-179,150
,807,2023-10-27 11:01:36.33,85,-205,-2030,50,27,22,-80,127,-207,-23
,808,2023-10-27 11:01:36.34,94,-204,-2009,31,33,22,-229,-47,-182,138
,809,2023-10-27 11:01:36.35,82,-224,-2019,12,47,20,-54,144,-198,-45
,810,2023-10-27 11:01:36.36,89,-224,-2031,-3,53,25,-215,-38,-177,126
,811,2023-10-27 11:01:36.37,96,-214,-2021,-17,60,27,-62,135,-197,-36
,812,2023-10-27 11:01:36.38,109,-217,-2011,-20,72,30,-226,-50,-176,138
,813,2023-10-27 11:01:36.39,55,-228,-2013,-12,51,34,-65,130,-195,-32
,814,2023-10-27 11:01:36.40,119,-224,-2042,-1,18,45,-225,-54,-171,139
,815,2023-10-27 11:01:36.41,111,-214,-2071,-6,51,46,-57,131,-188,-37
,816,2023-10-27 11:01:36.42,118,-213,-2061,-19,85,45,-218,-37,-181,127
,817,2023-10-27 11:01:36.43,98,-195,-2046,-35,83,45,-55,139,-194,-42
,818,2023-10-27 11:01:36.44,108,-184,-2046,-34,60,44,-217,-33,-184,125
,819,2023-10-27 11:01:36.45,137,-178,-2060,-31,54,40,-55,142,-197,-43
,820,2023-10-27 11:01:36.46,127,-179,-2072,-34,66,33,-225,-36,-189,130
,821,2023-10-27 11:01:36.47,131,-165,-2062,-41,64,21,-66,132,-198,-33
,822,2023-10-27 11:01:36.48,133,-162,-2078,-57,80,9,-233,-42,-191,137
,823,2023-10-27 11:01:36.49,119,-180,-2086,-67,83,5,-71,124,-195,-26
,824,2023-10-27 11:01:36.50,114,-179,-2094,-64,68,-1,-236,-41,-195,138
,825,2023-10-27 11:01:36.51,101,-178,-2075,-59,49,-3,-74,123,-197,-24
,826,2023-10-27 11:01:36.52,119,-168,-2074,-61,34,-2,-238,-41,-197,139
,827,2023-10-27 11:01:36.53,112,-177,-2065,-66,36,0,-71,126,-197,-27
,828,2023-10-27 11:01:36.54,99,-169,-2059,-63,14,3,-232,-32,-200,132
,829,2023-10-27 11:01:36.55,94,-171,-2058,-57,-10,4,-63,137,-200,-37
,830,2023-10-27 11:01:36.56,99,-172,-2051,-44,-34,8,-222,-21,-201,121
,831,2023-10-27 11:01:36.57,105,-164,-2038,-34,-42,11,-52,140,-192,-44
,832,2023-10-27 11:01:36.58,105,-168,-2036,-24,-46,13,-207,-12,-195,109
,833,2023-10-27 11:01:36.59,105,-180,-2030,-16,-42,10,-45,146,-191,-50
,834,2023-10-27 11:01:36.60,93,-195,-2043,-4,-37,13,-199,0,-199,99
,835,2023-10-27 11:01:36.61,87,-192,-2049,10,-39,15,-35,150,-185,-57
,836,2023-10-27 11:01:36.62,106,-188,-2037,22,-36,19,-195,1,-196,97
,837,2023-10-27 11:01:36.63,102,-198,-2037,34,-22,22,-43,139,-182,-48
,838,2023-10-27 11:01:36.64,101,-199,-2039,38,-13,25,-212,-14,-198,113
,839,2023-10-27 11:01:36.65,98,-197,-2049,47,-2,25,-47,135,-182,-44
,840,2023-10-27 11:01:36.66,89,-196,-2061,50,9,32,-208,-7,-201,107
,841,2023-10-27 11:01:36.67,95,-195,-2068,54,12,33,-56,124,-180,-34
,842,2023-10-27 11:01:36.68,94,-183,-2065,56,12,36,-216,-12,-204,114
,843,2023-10-27 11:01:36.69,101,-188,-2066,57,11,34,-65,119,-184,-27
,844,2023-10-27 11:01:36.70,110,-187,-2055,59,15,31,-217,-9,-208,113
,845,2023-10-27 11:01:36.71,121,-174,-2038,56,21,25,-66,115,-181,-24
,846,2023-10-27 11:01:36.72,109,-186,-2038,53,33,17,-216,-2,-214,109
,847,2023-10-27 11:01:36.73,101,-198,-2065,53,33,10,-66,114,-180,-24
,848,2023-10-27 11:01:36.74,110,-199,-2060,63,29,6,-216,-8,-208,112
,849,2023-10-27 11:01:36.75,118,-201,-2039,71,23,4,-78,102,-180,-12
,850,2023-10-27 11:01:36.76,109,-216,-2048,77,24,-2,-223,-11,-212,117
,851,2023-10-27 11:01:36.77,113,-207,-2037,76,21,-4,-84,96,-180,-6
,852,2023-10-27 11:01:36.78,117,-200,-2035,74,23,-10,-233,-14,-219,123
,853,2023-10-27 11:01:36.79,111,-202,-2035,76,28,-16,-90,90,-180,0
,854,2023-10-27 11:01:36.80,121,-200,-2037,75,30,-18,-226,-5,-221,115
,855,2023-10-27 11:01:36.81,125,-202,-2037,67,34,-19,-86,92,-178,-3
,856,2023-10-27 11:01:36.82,108,-219,-2046,60,38,-21,-219,0,-219,109
,857,2023-10-27 11:01:36.83,109,-226,-2058,54,33,-21,-81,98,-179,-8
,858,2023-10-27 11:01:36.84,109,-220,-2055,49,24,-14,-207,12,-219,97
,859,2023-10-27 11:01:36.85,112,-224,-2044,46,20,-8,-75,98,-173,-11
,860,2023-10-27 11:01:36.86,121,-224,-2034,35,22,-2,-205,13,-218,96
,861,2023-10-27 11:01:36.87,109,-227,-2039,26,25,3,-81,88,-169,-3
,862,2023-10-27 11:01:36.88,125,-216,-2036,18,27,9,-207,16,-223,95
,863,2023-10-27 11:01:36.89,116,-221,-2030,10,31,10,-94,89,-183,2
,864,2023-10-27 11:01:36.90,113,-215,-2036,7,34,12,-256,-18,-238,137
,865,2023-10-27 11:01:36.91,116,-235,-2033,8,32,13,-168,30,-198,69
,866,2023-10-27 11:01:36.92,119,-223,-2063,21,-11,24,-339,-85,-254,212
,867,2023-10-27 11:01:36.93,149,-218,-2048,15,21,22,-240,-36,-204,138
,868,2023-10-27 11:01:36.94,93,-214,-2057,14,27,23,-358,-100,-258,229
,869,2023-10-27 11:01:36.95,121,-215,-2055,17,14,24,-215,-18,-197,116
,870,2023-10-27 11:01:36.96,130,-211,-2048,13,17,23,-277,-27,-250,152
,871,2023-10-27 11:01:36.97,121,-219,-2044,21,12,17,-139,42,-181,48
,872,2023-10-27 11:01:36.98,118,-214,-2041,25,17,16,-205,28,-233,88
,873,2023-10-27 11:01:36.99,119,-222,-2048,30,6,14,-78,83,-161,-2
,874,2023-10-27 11:01:37.00,123,-216,-2050,33,8,11,-152,69,-221,41
,875,2023-10-27 11:01:37.01,111,-219,-2055,36,15,9,-47,108,-155,-30
,876,2023-10-27 11:01:37.02,117,-217,-2054,37,-1,9,-125,94,-219,15
,877,2023-10-27 11:01:37.03,123,-220,-2051,37,-1,12,-32,121,-153,-44
,878,2023-10-27 11:01:37.04,124,-219,-2059,35,-9,11,-114,100,-214,7
,879,2023-10-27 11:01:37.05,106,-234,-2063,34,-10,14,-44,101,-145,-28
,880,2023-10-27 11:01:37.06,113,-231,-2064,37,-24,21,-117,94,-211,11
,881,2023-10-27 11:01:37.07,114,-228,-2057,37,-33,27,-40,102,-142,-31
,882,2023-10-27 11:01:37.08,108,-231,-2053,40,-35,33,-123,91,-214,16
,883,2023-10-27 11:01:37.09,113,-226,-2032,37,-31,39,-57,90,-147,-16
,884,2023-10-27 11:01:37.10,129,-240,-2032,35,-15,43,-133,80,-213,26
,885,2023-10-27 11:01:37.11,118,-240,-2043,35,-3,45,-65,72,-137,-3
,886,2023-10-27 11:01:37.12,113,-251,-2048,35,11,47,-138,71,-209,33
,887,2023-10-27 11:01:37.13,117,-241,-2045,39,21,50,-83,64,-147,9
,888,2023-10-27 11:01:37.14,126,-237,-2039,44,30,49,-148,71,-219,38
,889,2023-10-27 11:01:37.15,113,-233,-2045,42,38,50,-90,58,-148,16
,890,2023-10-27 11:01:37.16,119,-228,-2046,39,40,47,-151,69,-220,41
,891,2023-10-27 11:01:37.17,108,-231,-2048,39,35,47,-107,41,-148,33
,892,2023-10-27 11:01:37.18,110,-230,-2056,42,27,46,-166,56,-222,55
,893,2023-10-27 11:01:37.19,114,-233,-2048,38,19,45,-118,35,-153,41
,894,2023-10-27 11:01:37.20,121,-239,-2045,37,14,42,-172,52,-224,60
,895,2023-10-27 11:01:37.21,122,-232,-2051,37,7,40,-134,19,-153,57
,896,2023-10-27 11:01:37.22,111,-231,-2041,35,1,36,-176,54,-230,61
,897,2023-10-27 11:01:37.23,109,-236,-2056,39,-3,34,-138,19,-157,59
,898,2023-10-27 11:01:37.24,109,-237,-2040,38,-8,33,-169,59,-228,55
,899,2023-10-27 11:01:37.25,114,-243,-2043,37,-7,28,-133,20,-153,56
,900,2023-10-27 11:01:37.26,118,-239,-2044,34,-7,27,-164,67,-231,48
,901,2023-10-27 11:01:37.27,128,-238,-2039,34,-2,24,-133,16,-149,58
,902,2023-10-27 11:01:37.28,110,-236,-2037,31,3,22,-151,74,-225,38
,903,2023-10-27 11:01:37.29,123,-240,-2041,28,3,19,-131,22,-153,54
,904,2023-10-27 11:01:37.30,110,-248,-2046,25,10,18,-150,79,-229,35
,905,2023-10-27 11:01:37.31,101,-248,-2043,26,10,20,-133,14,-147,59
,906,2023-10-27 11:01:37.32,116,-243,-2040,25,8,16,-148,79,-227,34
,907,2023-10-27 11:01:37.33,115,-236,-2045,19,9,16,-133,13,-146,60
,908,2023-10-27 11:01:37.34,115,-241,-2041,19,9,15,-134,95,-229,19
,909,2023-10-27 11:01:37.35,113,-245,-2057,14,3,18,-129,22,-151,53
,910,2023-10-27 11:01:37.36,111,-244,-2044,11,0,16,-119,105,-224,7
,911,2023-10-27 11:01:37.37,104,-238,-2046,8,-4,21,-112,38,-150,37
,912,2023-10-27 11:01:37.38,103,-246,-2047,2,-2,19,-112,116,-228,-2
,913,2023-10-27 11:01:37.39,109,-237,-2043,0,-1,21,-118,29,-147,44
,914,2023-10-27 11:01:37.40,119,-238,-2032,1,2,25,-105,120,-225,-7
,915,2023-10-27 11:01:37.41,107,-237,-2040,-5,5,22,-120,30,-150,45
,916,2023-10-27 11:01:37.42,122,-235,-2030,-8,10,21,-93,137,-230,-22
,917,2023-10-27 11:01:37.43,113,-236,-2037,-11,17,19,-124,28,-152,48
,918,2023-10-27 11:01:37.44,113,-237,-2045,-13,18,18,-95,140,-235,-22
,919,2023-10-27 11:01:37.45,111,-242,-2037,-10,19,20,-122,37,-159,42
,920,2023-10-27 11:01:37.46,115,-244,-2042,-11,21,21,-90,147,-237,-28
,921,2023-10-27 11:01:37.47,115,-253,-2047,-9,23,22,-124,30,-154,47
,922,2023-10-27 11:01:37.48,116,-248,-2047,-6,20,21,-86,148,-234,-31
,923,2023-10-27 11:01:37.49,112,-240,-2041,-3,21,23,-133,20,-153,56
,924,2023-10-27 11:01:37.50,124,-221,-2040,-2,25,21,-93,137,-230,-22
,925,2023-10-27 11:01:37.51,124,-230,-2047,-5,29,16,-144,9,-153,67
,926,2023-10-27 11:01:37.52,116,-228,-2050,-8,29,11,-99,127,-226,-14
,927,2023-10-27 11:01:37.53,87,-230,-2040,-6,16,7,-152,-1,-151,76
,928,2023-10-27 11:01:37.54,124,-235,-2067,18,-42,13,-109,118,-227,-4
,929,2023-10-27 11:01:37.55,127,-221,-2052,13,-7,8,-164,-17,-147,90
,930,2023-10-27 11:01:37.56,114,-228,-2034,-2,13,4,-112,115,-227,-1
,931,2023-10-27 11:01:37.57,122,-226,-2031,-18,24,-1,-179,-24,-155,101
,932,2023-10-27 11:01:37.58,127,-227,-2039,-19,27,-2,-115,118,-233,-1
,933,2023-10-27 11:01:37.59,112,-229,-2041,-6,20,-4,-182,-26,-156,104
,934,2023-10-27 11:01:37.60,109,-230,-2032,4,-2,-2,-119,109,-228,5
,935,2023-10-27 11:01:37.61,129,-233,-2038,0,6,1,-189,-31,-158,110
,936,2023-10-27 11:01:37.62,110,-238,-2038,-4,13,1,-124,106,-230,9
,937,2023-10-27 11:01:37.63,127,-241,-2045,0,17,5,-201,-48,-153,124
,938,2023-10-27 11:01:37.64,105,-232,-2052,5,11,10,-128,105,-233,11
,939,2023-10-27 11:01:37.65,129,-233,-2052,6,8,10,-205,-43,-162,124
,940,2023-10-27 11:01:37.66,109,-239,-2058,-3,24,13,-116,114,-230,1
,941,2023-10-27 11:01:37.67,129,-234,-2049,-3,28,12,-204,-37,-167,120
,942,2023-10-27 11:01:37.68,125,-236,-2050,-1,27,14,-120,116,-236,2
,943,2023-10-27 11:01:37.69,119,-236,-2033,8,15,13,-203,-38,-165,120
,944,2023-10-27 11:01:37.70,130,-231,-2035,22,-10,19,-107,126,-233,-9
,945,2023-10-27 11:01:37.71,131,-235,-2042,21,14,17,-194,-31,-163,112
,946,2023-10-27 11:01:37.72,127,-221,-2041,13,37,14,-90,143,-233,-26
,947,2023-10-27 11:01:37.73,114,-229,-2036,11,34,10,-194,-26,-168,110
,948,2023-10-27 11:01:37.74,125,-227,-2052,16,24,6,-90,148,-238,-29
,949,2023-10-27 11:01:37.75,131,-231,-2045,22,17,5,-196,-25,-171,110
,950,2023-10-27 11:01:37.76,123,-231,-2053,24,7,4,-83,147,-230,-32
,951,2023-10-27 11:01:37.77,126,-233,-2053,21,18,4,-188,-20,-168,104
,952,2023-10-27 11:01:37.78,141,-223,-2045,19,18,3,-65,169,-234,-52
,953,2023-10-27 11:01:37.79,131,-232,-2044,21,19,2,-182,-15,-167,98
,954,2023-10-27 11:01:37.80,126,-235,-2037,20,18,-1,-63,168,-231,-52
,955,2023-10-27 11:01:37.81,133,-235,-2030,19,20,-1,-183,-20,-163,101
,956,2023-10-27 11:01:37.82,122,-236,-2051,24,-5,0,-57,169,-226,-56
,957,2023-10-27 11:01:37.83,147,-237,-2046,24,2,3,-180,-13,-167,96
,958,2023-10-27 11:01:37.84,121,-239,-2046,20,25,1,-54,169,-223,-57
,959,2023-10-27 11:01:37.85,125,-243,-2039,13,27,5,-176,-6,-170,91
,960,2023-10-27 11:01:37.86,107,-243,-2051,10,13,11,-44,177,-221,-66
,961,2023-10-27 11:01:37.87,149,-239,-2044,13,13,15,-172,-10,-162,91
,962,2023-10-27 11:01:37.88,125,-236,-2044,11,16,16,-44,178,-222,-67
,963,2023-10-27 11:01:37.89,128,-233,-2041,6,16,16,-183,-17,-166,100
,964,2023-10-27 11:01:37.90,128,-232,-2044,-2,19,17,-51,171,-222,-60
,965,2023-10-27 11:01:37.91,122,-241,-2043,-2,18,18,-198,-25,-173,111
,966,2023-10-27 11:01:37.92,118,-237,-2039,6,2,18,-59,161,-220,-51
,967,2023-10-27 11:01:37.93,143,-226,-2044,13,-11,18,-208,-30,-178,119
,968,2023-10-27 11:01:37.94,132,-240,-2044,9,13,16,-69,153,-222,-42
,969,2023-10-27 11:01:37.95,119,-232,-2049,5,18,12,-214,-35,-179,124
,970,2023-10-27 11:01:37.96,145,-229,-2047,6,13,11,-73,150,-223,-38
,971,2023-10-27 11:01:37.97,129,-235,-2051,11,7,11,-220,-42,-178,131
,972,2023-10-27 11:01:37.98,118,-232,-2050,11,1,8,-74,150,-224,-38
,973,2023-10-27 11:01:37.99,143,-233,-2051,9,-5,9,-225,-40,-185,132
,974,2023-10-27 11:01:38.00,136,-241,-2056,11,-7,11,-73,147,-220,-37
,975,2023-10-27 11:01:38.01,120,-243,-2049,13,-8,14,-231,-45,-186,138
,976,2023-10-27 11:01:38.02,121,-239,-2040,13,-8,15,-82,137,-219,-27
,977,2023-10-27 11:01:38.03,133,-247,-2039,11,-4,17,-235,-49,-186,142
,978,2023-10-27 11:01:38.04,130,-241,-2037,10,-1,18,-86,135,-221,-24
,979,2023-10-27 11:01:38.05,127,-242,-2042,11,4,18,-240,-49,-191,144
,980,2023-10-27 11:01:38.06,125,-239,-2053,9,6,21,-84,139,-223,-27
,981,2023-10-27 11:01:38.07,133,-233,-2042,6,4,23,-241,-45,-196,143
,982,2023-10-27 11:01:38.08,125,-240,-2042,0,4,28,-78,148,-226,-35
,983,2023-10-27 11:01:38.09,133,-233,-2052,-2,6,30,-238,-41,-197,139
,984,2023-10-27 11:01:38.10,126,-239,-2041,-5,3,32,-75,144,-219,-34
,985,2023-10-27 11:01:38.11,125,-241,-2040,-4,2,33,-232,-34,-198,133
,986,2023-10-27 11:01:38.12,117,-243,-2033,1,1,34,-67,152,-219,-42
,987,2023-10-27 11:01:38.13,128,-244,-2033,5,10,33,-222,-29,-193,125
,988,2023-10-27 11:01:38.14,136,-239,-2038,5,17,32,-57,155,-212,-49
,989,2023-10-27 11:01:38.15,136,-234,-2051,8,21,31,-222,-26,-196,124
,990,2023-10-27 11:01:38.16,138,-234,-2046,9,22,30,-56,160,-216,-52
,991,2023-10-27 11:01:38.17,133,-238,-2042,11,19,29,-220,-24,-196,122
,992,2023-10-27 11:01:38.18,127,-243,-2049,12,14,29,-53,156,-209,-51
,993,2023-10-27 11:01:38.19,102,-252,-2026,22,-5,30,-206,-6,-200,106
,994,2023-10-27 11:01:38.20,148,-238,-2050,43,-43,36,-41,164,-205,-61
,995,2023-10-27 11:01:38.21,152,-228,-2039,35,1,28,-204,-6,-198,105
,996,2023-10-27 11:01:38.22,124,-226,-2047,23,23,20,-38,164,-202,-63
,997,2023-10-27 11:01:38.23,121,-234,-2045,4,27,18,-207,-8,-199,107
,998,2023-10-27 11:01:38.24,130,-248,-2053,4,25,21,-44,169,-213,-62
,999,2023-10-27 11:01:38.25,110,-245,-2049,12,17,23,-208,0,-208,104
,1000,2023-10-27 11:01:38.26,119,-238,-2044,18,-17,29,-35,173,-208,-69
,1001,2023-10-27 11:01:38.27,124,-228,-2052,2,11,31,-198,4,-202,97
,1002,2023-10-27 11:01:38.28,119,-233,-2042,-4,15,34,-38,156,-194,-59
,1003,2023-10-27 11:01:38.29,122,-240,-2030,-7,17,38,-195,6,-201,94
,1004,2023-10-27 11:01:38.30,134,-234,-2023,-2,10,37,-35,159,-194,-62
,1005,2023-10-27 11:01:38.31,132,-234,-2031,9,-3,36,-202,-3,-199,102
,1006,2023-10-27 11:01:38.32,128,-231,-2033,11,1,30,-44,148,-192,-52
,1007,2023-10-27 11:01:38.33,136,-233,-2041,15,14,26,-208,-12,-196,110
,1008,2023-10-27 11:01:38.34,140,-234,-2036,15,33,19,-49,143,-192,-47
,1009,2023-10-27 11:01:38.35,123,-231,-2049,19,40,19,-217,-16,-201,116
,1010,2023-10-27 11:01:38.36,114,-236,-2027,34,20,16,-57,132,-189,-37
,1011,2023-10-27 11:01:38.37,141,-235,-2046,50,2,14,-224,-17,-207,120
,1012,2023-10-27 11:01:38.38,135,-222,-2035,56,15,15,-65,125,-190,-30
,1013,2023-10-27 11:01:38.39,126,-224,-2056,49,37,8,-224,-19,-205,121
,1014,2023-10-27 11:01:38.40,129,-229,-2049,33,53,6,-69,120,-189,-25
,1015,2023-10-27 11:01:38.41,117,-238,-2051,39,35,5,-226,-21,-205,123
,1016,2023-10-27 11:01:38.42,121,-240,-2055,53,15,8,-73,116,-189,-21
,1017,2023-10-27 11:01:38.43,133,-246,-2043,57,14,6,-237,-26,-211,131
,1018,2023-10-27 11:01:38.44,136,-238,-2028,50,35,6,-82,105,-187,-11
,1019,2023-10-27 11:01:38.45,144,-246,-2034,38,56,5,-241,-29,-212,135
,1020,2023-10-27 11:01:38.46,120,-250,-2032,39,50,6,-86,100,-186,-7
,1021,2023-10-27 11:01:38.47,144,-256,-2041,52,25,10,-235,-23,-212,129
,1022,2023-10-27 11:01:38.48,147,-261,-2050,60,27,14,-84,100,-184,-8
,1023,2023-10-27 11:01:38.49,148,-249,-2030,55,39,18,-226,-11,-215,118
,1024,2023-10-27 11:01:38.50,132,-255,-2031,44,49,19,-77,109,-186,-16
,1025,2023-10-27 11:01:38.51,145,-247,-2038,41,43,20,-223,-3,-220,113
,1026,2023-10-27 11:01:38.52,151,-245,-2045,46,31,23,-73,114,-187,-20
,1027,2023-10-27 11:01:38.53,149,-248,-2047,45,40,24,-216,6,-222,105
,1028,2023-10-27 11:01:38.54,136,-248,-2047,34,53,23,-68,114,-182,-23
,1029,2023-10-27 11:01:38.55,143,-247,-2042,25,54,23,-208,16,-224,96
,1030,2023-10-27 11:01:38.56,146,-251,-2048,25,36,21,-64,117,-181,-26
,1031,2023-10-27 11:01:38.57,142,-256,-2047,29,38,20,-196,23,-219,86
,1032,2023-10-27 11:01:38.58,147,-256,-2055,30,36,16,-64,114,-178,-25
,1033,2023-10-27 11:01:38.59,144,-236,-2042,20,44,16,-195,24,-219,85
,1034,2023-10-27 11:01:38.60,143,-238,-2049,17,45,10,-54,123,-177,-34
,1035,2023-10-27 11:01:38.61,148,-249,-2039,17,35,8,-188,31,-219,78
,1036,2023-10-27 11:01:38.62,148,-243,-2039,24,26,4,-58,113,-171,-27
,1037,2023-10-27 11:01:38.63,159,-244,-2035,22,29,3,-175,43,-218,66
,1038,2023-10-27 11:01:38.64,152,-251,-2040,14,46,-1,-51,118,-169,-33
,1039,2023-10-27 11:01:38.65,148,-254,-2043,9,43,-1,-166,47,-213,59
,1040,2023-10-27 11:01:38.66,159,-252,-2045,13,29,-4,-52,116,-168,-32
,1041,2023-10-27 11:01:38.67,157,-255,-2051,10,26,-1,-165,51,-216,57
,1042,2023-10-27 11:01:38.68,138,-250,-2042,10,27,-3,-46,119,-165,-36
,1043,2023-10-27 11:01:38.69,166,-245,-2043,9,17,-2,-169,46,-215,61
,1044,2023-10-27 11:01:38.70,152,-253,-2041,2,29,-3,-50,108,-158,-29
,1045,2023-10-27 11:01:38.71,166,-251,-2041,4,19,-1,-166,52,-218,57
,1046,2023-10-27 11:01:38.72,166,-257,-2037,4,25,-1,-63,96,-159,-16
,1047,2023-10-27 11:01:38.73,152,-262,-2034,8,20,2,-167,53,-220,57
,1048,2023-10-27 11:01:38.74,163,-251,-2040,8,20,0,-73,88,-161,-7
,1049,2023-10-27 11:01:38.75,153,-254,-2043,10,17,1,-175,42,-217,66
,1050,2023-10-27 11:01:38.76,157,-263,-2038,9,26,3,-80,81,-161,0
,1051,2023-10-27 11:01:38.77,158,-255,-2046,11,21,4,-184,39,-223,72
,1052,2023-10-27 11:01:38.78,157,-249,-2048,12,18,7,-90,68,-158,11
,1053,2023-10-27 11:01:38.79,161,-250,-2053,13,1,9,-184,41,-225,71
,1054,2023-10-27 11:01:38.80,173,-254,-2051,6,5,10,-99,62,-161,18
,1055,2023-10-27 11:01:38.81,155,-250,-2050,3,14,10,-186,37,-223,74
,1056,2023-10-27 11:01:38.82,152,-250,-2043,0,8,10,-107,54,-161,26
,1057,2023-10-27 11:01:38.83,165,-256,-2051,-1,6,12,-194,32,-226,81
,1058,2023-10-27 11:01:38.84,167,-253,-2041,3,6,12,-118,48,-166,35
,1059,2023-10-27 11:01:38.85,160,-250,-2035,5,5,10,-201,32,-233,84
,1060,2023-10-27 11:01:38.86,171,-257,-2024,7,13,10,-119,41,-160,39
,1061,2023-10-27 11:01:38.87,175,-258,-2030,9,18,8,-187,43,-230,72
,1062,2023-10-27 11:01:38.88,169,-258,-2033,11,19,7,-118,42,-160,38
,1063,2023-10-27 11:01:38.89,153,-256,-2030,17,14,7,-182,56,-238,63
,1064,2023-10-27 11:01:38.90,184,-264,-2046,27,-16,12,-116,52,-168,32
,1065,2023-10-27 11:01:38.91,158,-265,-2048,23,7,13,-172,64,-236,54
,1066,2023-10-27 11:01:38.92,168,-253,-2048,27,4,15,-116,52,-168,32
,1067,2023-10-27 11:01:38.93,164,-253,-2048,25,5,16,-167,71,-238,48
,1068,2023-10-27 11:01:38.94,162,-246,-2043,23,3,14,-110,54,-164,28
,1069,2023-10-27 11:01:38.95,164,-253,-2049,21,-2,13,-165,75,-240,45
,1070,2023-10-27 11:01:38.96,159,-257,-2053,17,-10,14,-116,50,-166,33
,1071,2023-10-27 11:01:38.97,154,-262,-2057,17,-14,18,-161,87,-248,37
,1072,2023-10-27 11:01:38.98,159,-259,-2055,17,-20,17,-118,50,-168,34
,1073,2023-10-27 11:01:38.99,159,-255,-2039,12,-24,19,-152,97,-249,27
,1074,2023-10-27 11:01:39.00,154,-256,-2035,11,-19,21,-115,52,-167,31
,1075,2023-10-27 11:01:39.01,166,-252,-2030,5,-16,20,-142,105,-247,18
,1076,2023-10-27 11:01:39.02,150,-255,-2028,2,-13,21,-112,54,-166,29
,1077,2023-10-27 11:01:39.03,161,-255,-2032,1,-12,18,-134,109,-243,12
,1078,2023-10-27 11:01:39.04,155,-263,-2043,-2,-5,19,-100,59,-159,20
,1079,2023-10-27 11:01:39.05,155,-262,-2039,-1,-2,19,-124,120,-244,2
,1080,2023-10-27 11:01:39.06,147,-267,-2036,-4,-1,22,-108,53,-161,27
,1081,2023-10-27 11:01:39.07,143,-269,-2039,-2,-1,26,-118,124,-242,-3
,1082,2023-10-27 11:01:39.08,152,-256,-2042,-1,-3,27,-108,50,-158,29
,1083,2023-10-27 11:01:39.09,155,-264,-2044,1,0,29,-110,128,-238,-9
,1084,2023-10-27 11:01:39.10,152,-262,-2043,1,0,28,-114,43,-157,35
,1085,2023-10-27 11:01:39.11,160,-258,-2048,2,2,27,-110,128,-238,-9
,1086,2023-10-27 11:01:39.12,162,-248,-2039,1,0,27,-111,42,-153,34
,1087,2023-10-27 11:01:39.13,143,-259,-2046,8,1,26,-112,128,-240,-8
,1088,2023-10-27 11:01:39.14,151,-254,-2042,10,3,24,-121,35,-156,43
,1089,2023-10-27 11:01:39.15,159,-256,-2032,13,6,21,-112,127,-239,-7
,1090,2023-10-27 11:01:39.16,157,-254,-2034,15,9,17,-132,25,-157,53
,1091,2023-10-27 11:01:39.17,155,-252,-2040,18,10,15,-121,112,-233,4
,1092,2023-10-27 11:01:39.18,149,-246,-2032,21,8,14,-141,17,-158,62
,1093,2023-10-27 11:01:39.19,148,-273,-2034,21,9,11,-127,112,-239,7
,1094,2023-10-27 11:01:39.20,146,-266,-2048,24,6,12,-149,10,-159,69
,1095,2023-10-27 11:01:39.21,163,-263,-2030,26,7,12,-127,116,-243,5
,1096,2023-10-27 11:01:39.22,166,-260,-2034,23,13,11,-162,5,-167,78
,1097,2023-10-27 11:01:39.23,151,-253,-2039,19,17,12,-129,118,-247,5
,1098,2023-10-27 11:01:39.24,156,-262,-2050,13,16,12,-165,3,-168,81
,1099,2023-10-27 11:01:39.25,159,-263,-2046,9,17,14,-138,106,-244,16
,1100,2023-10-27 11:01:39.26,151,-260,-2036,7,16,15,-177,-13,-164,95
,1101,2023-10-27 11:01:39.27,152,-259,-2033,5,16,15,-140,102,-242,19
,1102,2023-10-27 11:01:39.28,158,-264,-2036,4,20,17,-185,-19,-166,102
,1103,2023-10-27 11:01:39.29,158,-267,-2028,0,25,18,-136,114,-250,11
,1104,2023-10-27 11:01:39.30,159,-270,-2036,-1,28,18,-187,-15,-172,101
,1105,2023-10-27 11:01:39.31,150,-260,-2036,0,27,20,-132,115,-247,8
,1106,2023-10-27 11:01:39.32,156,-257,-2040,2,25,20,-184,-12,-172,98
,1107,2023-10-27 11:01:39.33,161,-259,-2033,2,27,20,-122,127,-249,-2
,1108,2023-10-27 11:01:39.34,167,-253,-2040,0,27,18,-177,-5,-172,91
,1109,2023-10-27 11:01:39.35,166,-256,-2040,2,26,18,-118,138,-256,-10
,1110,2023-10-27 11:01:39.36,171,-257,-2038,0,27,18,-180,-5,-175,92
,1111,2023-10-27 11:01:39.37,155,-253,-2049,-1,23,18,-109,145,-254,-18
,1112,2023-10-27 11:01:39.38,153,-254,-2048,-3,22,18,-182,-7,-175,94
,1113,2023-10-27 11:01:39.39,157,-249,-2045,0,17,16,-97,148,-245,-25
,1114,2023-10-27 11:01:39.40,160,-250,-2032,2,9,16,-174,0,-174,87
,1115,2023-10-27 11:01:39.41,172,-253,-2042,16,-27,18,-90,158,-248,-34
,1116,2023-10-27 11:01:39.42,170,-259,-2040,16,-15,16,-174,5,-179,84
,1117,2023-10-27 11:01:39.43,165,-253,-2039,8,13,10,-83,161,-244,-39
,1118,2023-10-27 11:01:39.44,161,-259,-2041,0,18,11,-169,0,-169,84
,1119,2023-10-27 11:01:39.45,158,-250,-2048,-2,19,8,-70,173,-243,-51
,1120,2023-10-27 11:01:39.46,154,-255,-2051,5,10,9,-166,4,-170,81
,1121,2023-10-27 11:01:39.47,162,-252,-2049,10,0,10,-59,175,-234,-58
,1122,2023-10-27 11:01:39.48,167,-258,-2039,7,0,13,-166,4,-170,81
,1123,2023-10-27 11:01:39.49,156,-258,-2039,6,-3,14,-58,183,-241,-62
,1124,2023-10-27 11:01:39.50,167,-257,-2046,3,-5,17,-160,11,-171,74
,1125,2023-10-27 11:01:39.51,161,-254,-2040,6,-7,19,-55,183,-238,-64
,1126,2023-10-27 11:01:39.52,172,-260,-2039,5,-5,20,-165,-1,-164,83
,1127,2023-10-27 11:01:39.53,179,-257,-2034,3,-1,20,-57,178,-235,-60
,1128,2023-10-27 11:01:39.54,167,-247,-2029,2,4,20,-179,-10,-169,94
,1129,2023-10-27 11:01:39.55,159,-255,-2031,2,10,19,-63,165,-228,-51
,1130,2023-10-27 11:01:39.56,176,-260,-2041,3,15,20,-182,-16,-166,99
,1131,2023-10-27 11:01:39.57,151,-259,-2045,4,16,22,-67,162,-229,-47
,1132,2023-10-27 11:01:39.58,162,-254,-2043,7,19,23,-194,-22,-172,108
,1133,2023-10-27 11:01:39.59,158,-258,-2042,6,17,27,-73,158,-231,-42
,1134,2023-10-27 11:01:39.60,160,-262,-2049,8,13,29,-199,-25,-174,112
,1135,2023-10-27 11:01:39.61,164,-258,-2031,11,11,28,-80,156,-236,-38
,1136,2023-10-27 11:01:39.62,166,-243,-2034,12,10,27,-214,-34,-180,124
,1137,2023-10-27 11:01:39.63,163,-238,-2032,9,16,24,-88,146,-234,-29
,1138,2023-10-27 11:01:39.64,181,-247,-2043,10,19,19,-228,-47,-181,137
,1139,2023-10-27 11:01:39.65,159,-247,-2055,6,16,15,-99,137,-236,-19
,1140,2023-10-27 11:01:39.66,168,-253,-2048,7,11,15,-236,-45,-191,140
,1141,2023-10-27 11:01:39.67,165,-250,-2042,8,4,17,-101,137,-238,-18
,1142,2023-10-27 11:01:39.68,156,-248,-2040,8,2,16,-230,-46,-184,138
,1143,2023-10-27 11:01:39.69,151,-253,-2034,6,7,16,-89,144,-233,-27
,1144,2023-10-27 11:01:39.70,167,-250,-2032,4,3,18,-229,-42,-187,135
,1145,2023-10-27 11:01:39.71,173,-242,-2030,4,5,15,-81,155,-236,-37
,1146,2023-10-27 11:01:39.72,177,-245,-2035,5,5,14,-222,-30,-192,126
,1147,2023-10-27 11:01:39.73,163,-251,-2033,3,11,15,-68,160,-228,-46
,1148,2023-10-27 11:01:39.74,164,-257,-2039,2,12,15,-215,-25,-190,120
,1149,2023-10-27 11:01:39.75,166,-261,-2039,3,13,16,-69,160,-229,-45
,1150,2023-10-27 11:01:39.76,165,-254,-2033,5,12,18,-217,-27,-190,122
,1151,2023-10-27 11:01:39.77,173,-252,-2039,7,16,19,-67,162,-229,-47
,1152,2023-10-27 11:01:39.78,172,-254,-2029,5,24,17,-220,-30,-190,125
,1153,2023-10-27 11:01:39.79,173,-245,-2033,6,23,16,-58,163,-221,-52
,1154,2023-10-27 11:01:39.80,164,-247,-2045,7,23,13,-211,-25,-186,118
,1155,2023-10-27 11:01:39.81,165,-250,-2050,10,21,14,-56,166,-222,-55
,1156,2023-10-27 11:01:39.82,160,-260,-2038,13,23,11,-211,-17,-194,114
,1157,2023-10-27 11:01:39.83,179,-252,-2034,13,26,9,-61,165,-226,-52
,1158,2023-10-27 11:01:39.84,168,-252,-2024,20,29,5,-207,-21,-186,114
,1159,2023-10-27 11:01:39.85,179,-255,-2045,47,-40,7,-48,165,-213,-58
,1160,2023-10-27 11:01:39.86,205,-252,-2049,46,-2,4,-202,-20,-182,111
,1161,2023-10-27 11:01:39.87,166,-252,-2025,38,18,-1,-44,170,-214,-63
,1162,2023-10-27 11:01:39.88,187,-266,-2051,24,24,-2,-204,-11,-193,107
,1163,2023-10-27 11:01:39.89,154,-262,-2059,16,26,-1,-35,178,-213,-71
,1164,2023-10-27 11:01:39.90,171,-269,-2045,22,13,6,-187,7,-194,90
,1165,2023-10-27 11:01:39.91,173,-267,-2048,25,4,10,-16,192,-208,-88
,1166,2023-10-27 11:01:39.92,155,-265,-2039,18,1,10,-176,13,-189,81
,1167,2023-10-27 11:01:39.93,168,-270,-2050,7,0,12,-12,193,-205,-90
,1168,2023-10-27 11:01:39.94,182,-258,-2047,8,-6,11,-191,-2,-189,96
,1169,2023-10-27 11:01:39.95,166,-267,-2041,13,-9,12,-43,162,-205,-59
,1170,2023-10-27 11:01:39.96,161,-272,-2040,10,-10,15,-214,-22,-192,118
,1171,2023-10-27 11:01:39.97,159,-268,-2050,3,-8,16,-56,147,-203,-45
,1172,2023-10-27 11:01:39.98,173,-266,-2051,0,-11,18,-223,-23,-200,123
,1173,2023-10-27 11:01:39.99,165,-260,-2041,3,-14,20,-58,140,-198,-41
,1174,2023-10-27 11:01:40.00,162,-253,-2040,0,-13,19,-227,-29,-198,128
,1175,2023-10-27 11:01:40.01,160,-256,-2044,-4,-10,18,-71,129,-200,-29
,1176,2023-10-27 11:01:40.02,160,-268,-2039,-7,-12,21,-235,-37,-198,136
,1177,2023-10-27 11:01:40.03,156,-265,-2048,-5,-14,21,-71,128,-199,-28
,1178,2023-10-27 11:01:40.04,153,-264,-2046,-3,-20,27,-238,-38,-200,138
,1179,2023-10-27 11:01:40.05,158,-263,-2040,-4,-21,28,-66,130,-196,-32
,1180,2023-10-27 11:01:40.06,157,-271,-2036,-4,-17,32,-227,-27,-200,127
,1181,2023-10-27 11:01:40.07,166,-266,-2024,-6,-11,32,-65,128,-193,-31
,1182,2023-10-27 11:01:40.08,166,-258,-2030,-6,0,34,-234,-27,-207,130
,1183,2023-10-27 11:01:40.09,159,-256,-2025,-7,8,34,-79,121,-200,-21
,1184,2023-10-27 11:01:40.10,160,-251,-2017,-10,20,31,-247,-39,-208,143
,1185,2023-10-27 11:01:40.11,172,-247,-2019,-12,37,23,-90,111,-201,-10
,1186,2023-10-27 11:01:40.12,171,-249,-2014,-15,56,15,-252,-40,-212,146
,1187,2023-10-27 11:01:40.13,175,-242,-2025,-17,64,7,-90,107,-197,-8
,1188,2023-10-27 11:01:40.14,170,-238,-2034,-17,68,3,-251,-38,-213,144
,1189,2023-10-27 11:01:40.15,176,-242,-2039,-17,64,-5,-88,105,-193,-8
,1190,2023-10-27 11:01:40.16,174,-238,-2047,-18,57,-6,-236,-23,-213,129
,1191,2023-10-27 11:01:40.17,171,-238,-2048,-18,46,-10,-77,115,-192,-19
,1192,2023-10-27 11:01:40.18,164,-238,-2040,-20,36,-12,-227,-19,-208,123
,1193,2023-10-27 11:01:40.19,150,-238,-2062,-5,-31,-4,-72,117,-189,-22
,1194,2023-10-27 11:01:40.20,156,-242,-2058,-18,5,-8,-219,-10,-209,114
,1195,2023-10-27 11:01:40.21,165,-246,-2043,-23,-7,-7,-65,120,-185,-27
,1196,2023-10-27 11:01:40.22,169,-241,-2051,-20,-16,-2,-216,-6,-210,111
,1197,2023-10-27 11:01:40.23,187,-245,-2041,-10,-21,-1,-64,120,-184,-28
,1198,2023-10-27 11:01:40.24,168,-244,-2027,0,-24,-1,-224,-8,-216,116
,1199,2023-10-27 11:01:40.25,192,-238,-2020,5,-16,-1,-64,115,-179,-25
,1200,2023-10-27 11:01:40.26,180,-257,-2026,3,-2,0,-203,10,-213,96
,1201,2023-10-27 11:01:40.27,163,-260,-2039,9,8,2,-52,128,-180,-38
,1202,2023-10-27 11:01:40.28,158,-263,-2043,15,9,6,-192,21,-213,85
,1203,2023-10-27 11:01:40.29,164,-262,-2041,19,12,13,-51,128,-179,-38
,1204,2023-10-27 11:01:40.30,158,-264,-2046,21,13,22,-188,20,-208,84
,1205,2023-10-27 11:01:40.31,177,-258,-2042,20,10,29,-48,126,-174,-39
,1206,2023-10-27 11:01:40.32,169,-253,-2047,22,8,35,-185,29,-214,78
,1207,2023-10-27 11:01:40.33,181,-241,-2040,24,9,36,-51,120,-171,-34
,1208,2023-10-27 11:01:40.34,172,-237,-2041,21,9,34,-174,41,-215,66
,1209,2023-10-27 11:01:40.35,175,-236,-2047,18,14,32,-44,125,-169,-40
,1210,2023-10-27 11:01:40.36,177,-242,-2046,14,13,31,-177,38,-215,69
,1211,2023-10-27 11:01:40.37,183,-238,-2040,14,13,26,-53,116,-169,-31
,1212,2023-10-27 11:01:40.38,178,-244,-2032,16,8,22,-178,32,-210,73
,1213,2023-10-27 11:01:40.39,173,-241,-2028,16,9,20,-64,105,-169,-20
,1214,2023-10-27 11:01:40.40,174,-244,-2042,15,11,13,-196,18,-214,89
,1215,2023-10-27 11:01:40.41,177,-233,-2034,14,11,11,-79,84,-163,-2
,1216,2023-10-27 11:01:40.42,176,-234,-2039,15,8,2,-197,14,-211,91
,1217,2023-10-27 11:01:40.43,178,-240,-2044,13,3,-1,-76,82,-158,-3
,1218,2023-10-27 11:01:40.44,158,-246,-2045,12,-1,-1,-198,20,-218,89
,1219,2023-10-27 11:01:40.45,164,-253,-2045,12,-7,1,-90,74,-164,8
,1220,2023-10-27 11:01:40.46,167,-261,-2050,12,-10,5,-204,20,-224,92
,1221,2023-10-27 11:01:40.47,166,-258,-2040,15,-12,10,-97,69,-166,14
,1222,2023-10-27 11:01:40.48,166,-257,-2033,14,-10,12,-202,16,-218,93
,1223,2023-10-27 11:01:40.49,167,-265,-2029,12,-3,16,-104,61,-165,21
,1224,2023-10-27 11:01:40.50,171,-264,-2039,12,5,19,-206,17,-223,94
,1225,2023-10-27 11:01:40.51,174,-260,-2036,12,10,22,-108,58,-166,25
,1226,2023-10-27 11:01:40.52,170,-252,-2042,13,15,23,-218,13,-231,102
,1227,2023-10-27 11:01:40.53,170,-259,-2037,13,18,26,-128,45,-173,41
,1228,2023-10-27 11:01:40.54,172,-251,-2037,14,18,26,-226,9,-235,108
,1229,2023-10-27 11:01:40.55,179,-252,-2041,16,23,23,-135,33,-168,51
,1230,2023-10-27 11:01:40.56,179,-247,-2039,17,23,24,-219,11,-230,104
,1231,2023-10-27 11:01:40.57,172,-243,-2046,17,20,19,-133,39,-172,47
,1232,2023-10-27 11:01:40.58,176,-244,-2041,20,17,17,-209,27,-236,91
,1233,2023-10-27 11:01:40.59,187,-257,-2039,23,15,11,-120,52,-172,34
,1234,2023-10-27 11:01:40.60,181,-258,-2041,27,9,12,-195,42,-237,76
,1235,2023-10-27 11:01:40.61,182,-258,-2028,30,6,12,-116,51,-167,32
,1236,2023-10-27 11:01:40.62,168,-258,-2038,31,8,10,-185,50,-235,67
,1237,2023-10-27 11:01:40.63,175,-251,-2036,31,8,7,-117,49,-166,34
,1238,2023-10-27 11:01:40.64,179,-255,-2039,26,14,5,-178,61,-239,58
,1239,2023-10-27 11:01:40.65,176,-262,-2040,22,15,4,-116,56,-172,30
,1240,2023-10-27 11:01:40.66,174,-258,-2045,16,12,4,-169,65,-234,52
,1241,2023-10-27 11:01:40.67,169,-270,-2042,12,14,6,-116,51,-167,32
,1242,2023-10-27 11:01:40.68,165,-265,-2046,7,14,9,-168,70,-238,49
,1243,2023-10-27 11:01:40.69,172,-257,-2039,-1,12,13,-114,51,-165,31
,1244,2023-10-27 11:01:40.70,175,-263,-2037,-4,14,15,-158,77,-235,40
,1245,2023-10-27 11:01:40.71,174,-251,-2036,-8,13,17,-107,47,-154,30
,1246,2023-10-27 11:01:40.72,186,-245,-2038,-13,15,17,-143,93,-236,25
,1247,2023-10-27 11:01:40.73,174,-248,-2034,-19,16,18,-102,58,-160,22
,1248,2023-10-27 11:01:40.74,168,-255,-2049,-21,15,13,-139,100,-239,19
,1249,2023-10-27 11:01:40.75,176,-253,-2051,-22,9,15,-105,58,-163,23
,1250,2023-10-27 11:01:40.76,165,-247,-2049,-17,2,15,-133,100,-233,16
,1251,2023-10-27 11:01:40.77,163,-251,-2042,-13,-1,14,-113,50,-163,31
,1252,2023-10-27 11:01:40.78,175,-246,-2033,-14,-3,12,-149,99,-248,25
,1253,2023-10-27 11:01:40.79,183,-252,-2043,-13,-6,13,-131,44,-175,43
,1254,2023-10-27 11:01:40.80,187,-247,-2039,-5,-13,12,-155,96,-251,29
,1255,2023-10-27 11:01:40.81,168,-241,-2040,-4,-14,11,-135,31,-166,52
,1256,2023-10-27 11:01:40.82,176,-245,-2037,-3,-12,11,-150,94,-244,28
,1257,2023-10-27 11:01:40.83,176,-246,-2034,-2,-10,9,-143,20,-163,61
,1258,2023-10-27 11:01:40.84,173,-250,-2044,-1,-11,11,-154,84,-238,35
,1259,2023-10-27 11:01:40.85,179,-244,-2040,1,-6,10,-151,13,-164,69
,1260,2023-10-27 11:01:40.86,186,-248,-2032,1,0,13,-154,85,-239,34
,1261,2023-10-27 11:01:40.87,173,-246,-2031,3,2,13,-151,13,-164,69
,1262,2023-10-27 11:01:40.88,172,-252,-2041,3,8,14,-154,87,-241,33
,1263,2023-10-27 11:01:40.89,172,-250,-2037,6,9,17,-158,1,-159,78
,1264,2023-10-27 11:01:40.90,179,-245,-2038,5,12,19,-160,80,-240,40
,1265,2023-10-27 11:01:40.91,171,-241,-2044,3,14,19,-177,-15,-162,96
,1266,2023-10-27 11:01:40.92,161,-237,-2046,1,17,17,-167,75,-242,46
,1267,2023-10-27 11:01:40.93,176,-236,-2045,1,12,17,-182,-16,-166,99
,1268,2023-10-27 11:01:40.94,180,-242,-2048,-1,6,18,-170,75,-245,47
,1269,2023-10-27 11:01:40.95,172,-243,-2044,1,2,17,-188,-21,-167,104
,1270,2023-10-27 11:01:40.96,176,-243,-2038,4,-2,16,-166,77,-243,44
,1271,2023-10-27 11:01:40.97,175,-247,-2039,8,-2,14,-183,-21,-162,102
,1272,2023-10-27 11:01:40.98,178,-249,-2042,11,-7,13,-154,93,-247,30
,1273,2023-10-27 11:01:40.99,172,-244,-2038,16,-8,13,-181,-17,-164,99
,1274,2023-10-27 11:01:41.00,177,-250,-2041,21,-7,10,-144,103,-247,20
,1275,2023-10-27 11:01:41.01,169,-255,-2043,25,-9,14,-174,-12,-162,93
,1276,2023-10-27 11:01:41.02,169,-252,-2038,29,-10,12,-123,115,-238,4
,1277,2023-10-27 11:01:41.03,178,-253,-2037,29,-8,16,-164,-1,-163,82
,1278,2023-10-27 11:01:41.04,174,-260,-2043,26,-8,17,-120,124,-244,-2
,1279,2023-10-27 11:01:41.05,171,-259,-2040,29,-5,18,-163,1,-164,81
,1280,2023-10-27 11:01:41.06,182,-260,-2040,29,-1,20,-112,133,-245,-10
,1281,2023-10-27 11:01:41.07,164,-250,-2038,26,5,18,-157,0,-157,78
,1282,2023-10-27 11:01:41.08,165,-245,-2036,24,12,18,-99,141,-240,-21
,1283,2023-10-27 11:01:41.09,171,-249,-2049,19,14,12,-157,6,-163,75
,1284,2023-10-27 11:01:41.10,177,-255,-2047,15,12,9,-88,150,-238,-31
,1285,2023-10-27 11:01:41.11,168,-246,-2043,12,10,7,-157,6,-163,75
,1286,2023-10-27 11:01:41.12,183,-254,-2038,10,6,10,-84,149,-233,-32
,1287,2023-10-27 11:01:41.13,174,-257,-2025,5,10,12,-154,4,-158,75
,1288,2023-10-27 11:01:41.14,176,-256,-2033,0,16,8,-81,154,-235,-36
,1289,2023-10-27 11:01:41.15,174,-247,-2037,-7,18,8,-169,-11,-158,90
,1290,2023-10-27 11:01:41.16,165,-248,-2041,-7,16,7,-80,153,-233,-36
,1291,2023-10-27 11:01:41.17,156,-258,-2045,-8,11,9,-168,-12,-156,90
,1292,2023-10-27 11:01:41.18,156,-253,-2046,-9,5,12,-84,142,-226,-29
,1293,2023-10-27 11:01:41.19,164,-263,-2047,-7,0,16,-184,-23,-161,103
,1294,2023-10-27 11:01:41.20,166,-258,-2043,-7,-3,19,-94,130,-224,-18
,1295,2023-10-27 11:01:41.21,169,-254,-2044,-5,-4,22,-197,-35,-162,116
,1296,2023-10-27 11:01:41.22,176,-256,-2034,-2,-4,24,-103,127,-230,-12
,1297,2023-10-27 11:01:41.23,172,-252,-2035,-4,-1,24,-200,-34,-166,117
,1298,2023-10-27 11:01:41.24,179,-257,-2029,-6,10,24,-105,126,-231,-10
,1299,2023-10-27 11:01:41.25,174,-247,-2025,-7,21,21,-209,-46,-163,127
,1300,2023-10-27 11:01:41.26,184,-240,-2031,-6,28,16,-104,123,-227,-9
,1301,2023-10-27 11:01:41.27,181,-248,-2042,-6,31,13,-220,-53,-167,136
,1302,2023-10-27 11:01:41.28,177,-246,-2050,-3,30,9,-112,111,-223,0
,1303,2023-10-27 11:01:41.29,178,-244,-2046,1,24,7,-228,-59,-169,143
,1304,2023-10-27 11:01:41.30,171,-233,-2040,0,22,5,-114,109,-223,2
,1305,2023-10-27 11:01:41.31,183,-239,-2039,0,20,1,-233,-58,-175,145
,1306,2023-10-27 11:01:41.32,191,-241,-2034,1,18,1,-119,113,-232,3
,1307,2023-10-27 11:01:41.33,173,-246,-2029,4,15,-8,-232,-62,-170,147
,1308,2023-10-27 11:01:41.34,185,-253,-2029,4,16,-9,-107,121,-228,-7
,1309,2023-10-27 11:01:41.35,183,-247,-2030,5,15,-9,-232,-56,-176,144
,1310,2023-10-27 11:01:41.36,186,-245,-2032,6,18,-12,-102,130,-232,-14
,1311,2023-10-27 11:01:41.37,184,-238,-2035,5,17,-17,-230,-52,-178,141
,1312,2023-10-27 11:01:41.38,181,-245,-2041,4,14,-17,-99,122,-221,-11
,1313,2023-10-27 11:01:41.39,158,-246,-2043,15,-25,-15,-231,-69,-162,150
,1314,2023-10-27 11:01:41.40,215,-255,-2061,14,-20,-14,-100,97,-197,1
,1315,2023-10-27 11:01:41.41,167,-246,-2052,10,0,-14,-225,-88,-137,156
,1316,2023-10-27 11:01:41.42,182,-249,-2050,10,-7,-14,-82,97,-179,-7
,1317,2023-10-27 11:01:41.43,184,-248,-2051,4,-14,-11,-219,-81,-138,150
,1318,2023-10-27 11:01:41.44,187,-247,-2049,3,-21,-8,-66,115,-181,-24
,1319,2023-10-27 11:01:41.45,181,-239,-2045,3,-24,-6,-213,-66,-147,139
,1320,2023-10-27 11:01:41.46,193,-246,-2029,2,-22,-1,-62,127,-189,-32
,1321,2023-10-27 11:01:41.47,173,-245,-2021,-3,-12,-1,-211,-52,-159,131
,1322,2023-10-27 11:01:41.48,180,-252,-2027,-11,3,0,-50,148,-198,-49
,1323,2023-10-27 11:01:41.49,197,-259,-2030,-12,22,1,-194,-31,-163,112
,1324,2023-10-27 11:01:41.50,178,-244,-2023,-12,33,5,-36,167,-203,-65
,1325,2023-10-27 11:01:41.51,176,-245,-2018,-17,42,6,-192,-26,-166,109
,1326,2023-10-27 11:01:41.52,174,-233,-2031,-6,-6,12,-33,173,-206,-70
,1327,2023-10-27 11:01:41.53,193,-247,-2040,-22,24,16,-190,-18,-172,104
,1328,2023-10-27 11:01:41.54,164,-228,-2049,-25,25,18,-27,174,-201,-73
,1329,2023-10-27 11:01:41.55,202,-230,-2055,-29,26,19,-190,-14,-176,102
,1330,2023-10-27 11:01:41.56,154,-226,-2072,-35,15,19,-38,172,-210,-67
,1331,2023-10-27 11:01:41.57,180,-232,-2065,-32,-2,23,-198,-17,-181,107
,1332,2023-10-27 11:01:41.58,159,-231,-2065,-32,-1,21,-45,165,-210,-60
,1333,2023-10-27 11:01:41.59,188,-232,-2055,-25,-21,21,-209,-26,-183,117
,1334,2023-10-27 11:01:41.60,185,-226,-2041,-17,-32,23,-54,156,-210,-51
,1335,2023-10-27 11:01:41.61,183,-238,-2031,-8,-39,22,-224,-38,-186,131
,1336,2023-10-27 11:01:41.62,184,-236,-2041,3,-37,20,-67,140,-207,-36
,1337,2023-10-27 11:01:41.63,174,-231,-2037,10,-42,17,-241,-40,-201,140
,1338,2023-10-27 11:01:41.64,176,-239,-2043,19,-39,18,-93,138,-231,-22
,1339,2023-10-27 11:01:41.65,170,-247,-2049,22,-36,20,-265,-35,-230,150
,1340,2023-10-27 11:01:41.66,174,-238,-2049,22,-35,22,-116,146,-262,-15
,1341,2023-10-27 11:01:41.67,166,-245,-2047,23,-34,26,-272,-23,-249,147
,1342,2023-10-27 11:01:41.68,160,-249,-2051,22,-38,36,-110,164,-274,-27
,1343,2023-10-27 11:01:41.69,166,-248,-2044,24,-41,44,-267,-13,-254,140
,1344,2023-10-27 11:01:41.70,160,-250,-2041,27,-40,50,-100,163,-263,-31
,1345,2023-10-27 11:01:41.71,172,-244,-2026,23,-36,54,-265,-22,-243,143
,1346,2023-10-27 11:01:41.72,167,-247,-2027,23,-24,56,-104,142,-246,-19
,1347,2023-10-27 11:01:41.73,168,-236,-2022,23,-13,58,-259,-27,-232,143
,1348,2023-10-27 11:01:41.74,171,-237,-2023,22,-2,53,-96,140,-236,-22
,1349,2023-10-27 11:01:41.75,177,-233,-2019,23,9,49,-255,-30,-225,142
,1350,2023-10-27 11:01:41.76,172,-223,-2015,21,22,46,-94,141,-235,-23
,1351,2023-10-27 11:01:41.77,173,-227,-2028,18,32,39,-252,-26,-226,139
,1352,2023-10-27 11:01:41.78,165,-232,-2048,15,34,34,-83,138,-221,-27
,1353,2023-10-27 11:01:41.79,156,-241,-2060,17,30,28,-245,-22,-223,133
,1354,2023-10-27 11:01:41.80,171,-232,-2059,24,19,24,-76,136,-212,-30
,1355,2023-10-27 11:01:41.81,179,-229,-2057,27,13,18,-235,-17,-218,126
,1356,2023-10-27 11:01:41.82,176,-227,-2059,26,3,9,-76,136,-212,-30
,1357,2023-10-27 11:01:41.83,153,-235,-2057,24,-10,4,-230,-13,-217,121
,1358,2023-10-27 11:01:41.84,165,-236,-2058,21,-20,1,-68,140,-208,-36
,1359,2023-10-27 11:01:41.85,163,-238,-2055,25,-33,0,-219,-7,-212,113
,1360,2023-10-27 11:01:41.86,166,-242,-2037,26,-41,0,-59,144,-203,-42
,1361,2023-10-27 11:01:41.87,164,-245,-2035,21,-39,0,-215,0,-215,107
,1362,2023-10-27 11:01:41.88,160,-250,-2038,17,-34,1,-60,134,-194,-37
,1363,2023-10-27 11:01:41.89,168,-247,-2043,16,-31,6,-202,10,-212,96
,1364,2023-10-27 11:01:41.90,164,-259,-2040,18,-29,9,-43,151,-194,-54
,1365,2023-10-27 11:01:41.91,140,-254,-2037,15,-25,15,-192,22,-214,85
,1366,2023-10-27 11:01:41.92,157,-253,-2035,1,-16,22,-52,140,-192,-44
,1367,2023-10-27 11:01:41.93,167,-237,-2032,-10,-8,24,-202,9,-211,96
,1368,2023-10-27 11:01:41.94,148,-244,-2040,-14,-2,28,-46,138,-184,-46
,1369,2023-10-27 11:01:41.95,148,-237,-2050,-9,-3,27,-191,14,-205,88
,1370,2023-10-27 11:01:41.96,155,-232,-2044,-4,-7,26,-40,139,-179,-49
,1371,2023-10-27 11:01:41.97,161,-232,-2056,-2,-8,20,-194,15,-209,89
,1372,2023-10-27 11:01:41.98,154,-233,-2055,4,-12,17,-56,122,-178,-33
,1373,2023-10-27 11:01:41.99,160,-247,-2042,16,-13,14,-202,7,-209,97
,1374,2023-10-27 11:01:42.00,155,-254,-2030,28,-6,12,-65,112,-177,-23
,1375,2023-10-27 11:01:42.01,154,-254,-2027,37,-1,10,-217,-9,-208,113
,1376,2023-10-27 11:01:42.02,164,-253,-2030,43,5,9,-83,96,-179,-6
,1377,2023-10-27 11:01:42.03,163,-246,-2042,49,7,7,-224,-7,-217,115
,1378,2023-10-27 11:01:42.04,163,-242,-2041,54,7,7,-84,95,-179,-5
,1379,2023-10-27 11:01:42.05,162,-237,-2037,56,4,5,-220,-4,-216,112
,1380,2023-10-27 11:01:42.06,142,-254,-2029,51,7,7,-86,88,-174,-1
,1381,2023-10-27 11:01:42.07,151,-280,-2043,51,4,10,-220,-2,-218,111
,1382,2023-10-27 11:01:42.08,156,-286,-2042,51,0,19,-91,85,-176,3
,1383,2023-10-27 11:01:42.09,164,-286,-2035,59,-1,32,-224,-6,-218,115
,1384,2023-10-27 11:01:42.10,146,-294,-1987,43,55,30,-95,79,-174,8
,1385,2023-10-27 11:01:42.11,161,-287,-2012,56,12,43,-226,-9,-217,117
,1386,2023-10-27 11:01:42.12,175,-291,-2022,57,28,48,-100,67,-167,16
,1387,2023-10-27 11:01:42.13,162,-284,-2017,55,40,53,-235,-16,-219,125
,1388,2023-10-27 11:01:42.14,167,-281,-2023,43,54,61,-120,44,-164,38
,1389,2023-10-27 11:01:42.15,174,-260,-2025,25,72,62,-246,-37,-209,141
,1390,2023-10-27 11:01:42.16,187,-249,-2040,8,86,59,-125,26,-151,49
,1391,2023-10-27 11:01:42.17,183,-236,-2033,-3,84,58,-224,-29,-195,126
,1392,2023-10-27 11:01:42.18,176,-235,-2042,-18,82,50,-108,41,-149,33
,1393,2023-10-27 11:01:42.19,181,-237,-2048,-30,78,44,-221,-15,-206,118
,1394,2023-10-27 11:01:42.20,185,-242,-2058,-35,71,39,-108,48,-156,30
,1395,2023-10-27 11:01:42.21,193,-238,-2052,-38,62,32,-208,6,-214,101
,1396,2023-10-27 11:01:42.22,187,-251,-2049,-35,50,22,-97,59,-156,19
,1397,2023-10-27 11:01:42.23,189,-236,-2030,-22,38,13,-192,26,-218,83
,1398,2023-10-27 11:01:42.24,198,-250,-2025,-11,33,2,-99,62,-161,18
,1399,2023-10-27 11:01:42.25,207,-281,-2022,37,25,-13,-192,33,-225,79
,1400,2023-10-27 11:01:42.26,200,-295,-2025,70,24,-20,-96,66,-162,15
,1401,2023-10-27 11:01:42.27,202,-297,-2028,96,28,-25,-182,38,-220,72
,1402,2023-10-27 11:01:42.28,182,-295,-2026,115,25,-25,-94,64,-158,15
,1403,2023-10-27 11:01:42.29,175,-305,-2045,127,19,-26,-192,33,-225,79
,1404,2023-10-27 11:01:42.30,186,-297,-2081,134,14,-24,-102,59,-161,21
,1405,2023-10-27 11:01:42.31,173,-271,-2085,132,6,-25,-184,48,-232,68
,1406,2023-10-27 11:01:42.32,172,-252,-2074,114,9,-27,-98,64,-162,17
,1407,2023-10-27 11:01:42.33,194,-245,-2076,85,16,-33,-161,78,-239,41
,1408,2023-10-27 11:01:42.34,163,-255,-2093,64,9,-42,-84,88,-172,-2
,1409,2023-10-27 11:01:42.35,154,-279,-2112,52,-13,-49,-139,103,-242,18
,1410,2023-10-27 11:01:42.36,154,-285,-2107,49,-33,-45,-76,96,-172,-10
,1411,2023-10-27 11:01:42.37,147,-288,-2065,49,-52,-41,-117,127,-244,-5
,1412,2023-10-27 11:01:42.38,161,-282,-2043,48,-49,-42,-50,107,-157,-28
,1413,2023-10-27 11:01:42.39,175,-282,-2026,44,-39,-49,-80,156,-236,-38
,1414,2023-10-27 11:01:42.40,165,-278,-2017,42,-27,-51,-30,120,-150,-45
,1415,2023-10-27 11:01:42.41,146,-268,-2014,43,-19,-54,-73,149,-222,-38
,1416,2023-10-27 11:01:42.42,184,-257,-1988,38,1,-56,-47,98,-145,-25
,1417,2023-10-27 11:01:42.43,193,-253,-1969,29,30,-59,-92,121,-213,-14
,1418,2023-10-27 11:01:42.44,175,-254,-1973,8,72,-65,-70,68,-138,1
,1419,2023-10-27 11:01:42.45,184,-235,-1987,-11,91,-70,-119,101,-220,9
,1420,2023-10-27 11:01:42.46,190,-232,-1980,-14,93,-77,-97,53,-150,22
,1421,2023-10-27 11:01:42.47,200,-206,-1960,-8,85,-92,-132,96,-228,18
,1422,2023-10-27 11:01:42.48,200,-202,-1961,9,69,-108,-110,35,-145,37
,1423,2023-10-27 11:01:42.49,213,-201,-1991,27,22,-127,-139,85,-224,27
,1424,2023-10-27 11:01:42.50,246,-189,-1996,36,23,-150,-124,28,-152,48
,1425,2023-10-27 11:01:42.51,266,-228,-2013,40,44,-176,-136,107,-243,14
,1426,2023-10-27 11:01:42.52,230,-200,-2002,60,53,-208,-115,52,-167,31
,1427,2023-10-27 11:01:42.53,218,-203,-2053,58,70,-229,-104,145,-249,-20
,1428,2023-10-27 11:01:42.54,220,-211,-2093,21,50,-229,-88,86,-174,1
,1429,2023-10-27 11:01:42.55,210,-213,-2090,-2,19,-223,-96,160,-256,-32
,1430,2023-10-27 11:01:42.56,183,-248,-2095,8,-21,-213,-115,59,-174,28
,1431,2023-10-27 11:01:42.57,218,-256,-2052,29,-68,-197,-127,124,-251,1
,1432,2023-10-27 11:01:42.58,234,-296,-2033,41,-71,-188,-146,22,-168,62
,1433,2023-10-27 11:01:42.59,219,-297,-2034,58,-64,-176,-151,91,-242,30
,1434,2023-10-27 11:01:42.60,218,-312,-2052,81,-54,-162,-184,-8,-176,96
,1435,2023-10-27 11:01:42.61,198,-335,-2092,123,-64,-145,-183,59,-242,62
,1436,2023-10-27 11:01:42.62,227,-333,-2110,160,-71,-125,-213,-35,-178,124
,1437,2023-10-27 11:01:42.63,226,-339,-2095,189,-40,-115,-218,44,-262,87
,1438,2023-10-27 11:01:42.64,176,-379,-2066,211,4,-105,-245,-50,-195,147
,1439,2023-10-27 11:01:42.65,165,-378,-2086,234,30,-95,-249,26,-275,111
,1440,2023-10-27 11:01:42.66,149,-365,-2085,255,35,-75,-285,-82,-203,183
,1441,2023-10-27 11:01:42.67,156,-376,-2103,278,18,-56,-263,7,-270,128
,1442,2023-10-27 11:01:42.68,155,-375,-2100,297,-7,-37,-301,-98,-203,199
,1443,2023-10-27 11:01:42.69,176,-345,-2092,301,-6,-29,-277,-3,-274,140
,1444,2023-10-27 11:01:42.70,184,-337,-2078,270,37,-30,-311,-104,-207,207
,1445,2023-10-27 11:01:42.71,180,-326,-2071,233,78,-36,-262,28,-290,117
,1446,2023-10-27 11:01:42.72,179,-325,-2047,196,95,-33,-280,-71,-209,175
,1447,2023-10-27 11:01:42.73,195,-328,-2016,163,105,-33,-221,49,-270,86
,1448,2023-10-27 11:01:42.74,195,-345,-1981,140,109,-33,-263,-72,-191,167
,1449,2023-10-27 11:01:42.75,187,-341,-1971,134,114,-36,-215,53,-268,81
,1450,2023-10-27 11:01:42.76,194,-339,-1952,130,110,-36,-266,-70,-196,168
,1451,2023-10-27 11:01:42.77,201,-356,-1931,131,112,-34,-200,64,-264,68
,1452,2023-10-27 11:01:42.78,196,-359,-1918,135,97,-25,-246,-54,-192,150
,1453,2023-10-27 11:01:42.79,198,-353,-1916,139,83,-14,-152,93,-245,29
,1454,2023-10-27 11:01:42.80,201,-337,-1918,137,64,-9,-197,-45,-152,121
,1455,2023-10-27 11:01:42.81,178,-348,-1909,131,42,8,-118,104,-222,7
,1456,2023-10-27 11:01:42.82,194,-328,-1948,132,-4,19,-171,-21,-150,96
,1457,2023-10-27 11:01:42.83,197,-342,-1981,119,-15,30,-60,171,-231,-55
,1458,2023-10-27 11:01:42.84,162,-335,-1985,97,-26,44,-97,38,-135,29
,1459,2023-10-27 11:01:42.85,188,-328,-1987,84,-73,56,33,231,-198,-132
,1460,2023-10-27 11:01:42.86,211,-319,-1978,55,-64,63,-23,78,-101,-27
,1461,2023-10-27 11:01:42.87,192,-319,-1982,31,-65,65,105,278,-173,-191
,1462,2023-10-27 11:01:42.88,192,-303,-1972,4,-79,59,16,114,-98,-65
,1463,2023-10-27 11:01:42.89,211,-317,-2002,-26,-73,52,114,292,-178,-203
,1464,2023-10-27 11:01:42.90,192,-316,-2021,-52,-69,49,41,135,-94,-88
,1465,2023-10-27 11:01:42.91,184,-326,-2028,-67,-88,39,196,359,-163,-277
,1466,2023-10-27 11:01:42.92,205,-348,-2074,-78,-115,28,57,159,-102,-108
,1467,2023-10-27 11:01:42.93,204,-336,-2110,-104,-85,16,140,309,-169,-224
,1468,2023-10-27 11:01:42.94,207,-310,-2094,-125,-74,0,-18,100,-118,-41
,1469,2023-10-27 11:01:42.95,193,-352,-2106,-136,-83,-17,98,283,-185,-190
,1470,2023-10-27 11:01:42.96,222,-387,-2127,-136,-76,-24,-35,94,-129,-29
,1471,2023-10-27 11:01:42.97,199,-397,-2112,-121,-63,-31,78,274,-196,-176
,1472,2023-10-27 11:01:42.98,200,-436,-2109,-94,-52,-34,-66,77,-143,-5
,1473,2023-10-27 11:01:42.99,200,-454,-2102,-65,-39,-31,41,245,-204,-143
,1474,2023-10-27 11:01:43.00,202,-450,-2095,-24,-38,-25,-108,43,-151,32
,1475,2023-10-27 11:01:43.01,200,-447,-2065,15,-26,-19,23,226,-203,-124
,1476,2023-10-27 11:01:43.02,199,-427,-2050,59,-41,-10,-120,40,-160,40
,1477,2023-10-27 11:01:43.03,186,-427,-2011,89,-30,-7,22,233,-211,-127
,1478,2023-10-27 11:01:43.04,165,-411,-2007,105,-24,-2,-113,50,-163,31
,1479,2023-10-27 11:01:43.05,190,-419,-1992,112,-32,1,16,232,-216,-124
,1480,2023-10-27 11:01:43.06,180,-386,-2002,112,-35,0,-132,40,-172,46
,1481,2023-10-27 11:01:43.07,195,-352,-2000,104,-48,-6,13,236,-223,-124
,1482,2023-10-27 11:01:43.08,191,-322,-2003,87,-29,-20,-109,56,-165,26
,1483,2023-10-27 11:01:43.09,170,-313,-2002,50,-6,-42,53,256,-203,-154
,1484,2023-10-27 11:01:43.10,168,-339,-2019,7,22,-58,-83,69,-152,7
,1485,2023-10-27 11:01:43.11,162,-347,-2011,-29,30,-66,64,248,-184,-156
,1486,2023-10-27 11:01:43.12,162,-339,-2003,-46,-1,-71,-90,61,-151,14
,1487,2023-10-27 11:01:43.13,171,-308,-2012,-59,-10,-86,41,232,-191,-136
,1488,2023-10-27 11:01:43.14,158,-305,-2033,-89,-12,-103,-122,33,-155,44
,1489,2023-10-27 11:01:43.15,156,-310,-2054,-119,-15,-110,27,220,-193,-123
,1490,2023-10-27 11:01:43.16,150,-329,-2073,-131,-27,-120,-132,21,-153,55
,1491,2023-10-27 11:01:43.17,144,-350,-2065,-125,-45,-122,11,200,-189,-105
,1492,2023-10-27 11:01:43.18,140,-355,-2027,-109,-60,-124,-155,1,-156,77
,1493,2023-10-27 11:01:43.19,158,-368,-2029,-91,-63,-127,-4,180,-184,-88
,1494,2023-10-27 11:01:43.20,167,-365,-2022,-64,-73,-126,-169,-12,-157,90
,1495,2023-10-27 11:01:43.21,171,-331,-1998,-41,-67,-128,-34,152,-186,-59
,1496,2023-10-27 11:01:43.22,160,-331,-1991,-15,-55,-131,-196,-41,-155,118
,1497,2023-10-27 11:01:43.23,154,-362,-2006,0,-41,-128,-45,139,-184,-47
,1498,2023-10-27 11:01:43.24,151,-387,-2032,15,-24,-127,-218,-52,-166,135
,1499,2023-10-27 11:01:43.25,156,-375,-2042,36,-13,-123,-57,135,-192,-39
,1500,2023-10-27 11:01:43.26,192,-366,-2026,62,2,-121,-222,-53,-169,137
,1501,2023-10-27 11:01:43.27,184,-364,-2009,87,18,-123,-54,130,-184,-38
,1502,2023-10-27 11:01:43.28,176,-348,-2003,100,29,-126,-217,-58,-159,137
,1503,2023-10-27 11:01:43.29,194,-328,-2010,105,42,-135,-69,114,-183,-22
,1504,2023-10-27 11:01:43.30,176,-318,-2030,103,52,-140,-242,-68,-174,155
,1505,2023-10-27 11:01:43.31,176,-333,-2039,103,41,-145,-73,115,-188,-21
,1506,2023-10-27 11:01:43.32,177,-330,-2048,101,31,-136,-223,-53,-170,138
,1507,2023-10-27 11:01:43.33,195,-325,-2039,93,26,-131,-49,137,-186,-44
,1508,2023-10-27 11:01:43.34,185,-330,-2027,81,27,-125,-210,-39,-171,124
,1509,2023-10-27 11:01:43.35,187,-335,-2023,61,33,-120,-32,150,-182,-59
,1510,2023-10-27 11:01:43.36,187,-357,-2005,42,42,-107,-189,-23,-166,106
,1511,2023-10-27 11:01:43.37,205,-366,-1988,44,50,-92,-14,165,-179,-75
,1512,2023-10-27 11:01:43.38,199,-366,-1979,54,58,-82,-164,1,-165,81
,1513,2023-10-27 11:01:43.39,211,-372,-1958,61,75,-75,7,183,-176,-95
,1514,2023-10-27 11:01:43.40,220,-362,-1954,60,105,-71,-151,18,-169,66
,1515,2023-10-27 11:01:43.41,228,-355,-1966,62,131,-72,19,201,-182,-110
,1516,2023-10-27 11:01:43.42,232,-354,-1996,70,149,-73,-147,21,-168,63
,1517,2023-10-27 11:01:43.43,221,-359,-2008,79,148,-75,11,184,-173,-97
,1518,2023-10-27 11:01:43.44,226,-356,-2012,87,141,-71,-166,-2,-164,84
,1519,2023-10-27 11:01:43.45,233,-361,-2011,96,127,-68,-1,165,-166,-82
,1520,2023-10-27 11:01:43.46,225,-353,-2014,108,109,-72,-174,-13,-161,93
,1521,2023-10-27 11:01:43.47,231,-351,-2022,118,90,-75,-19,149,-168,-65
,1522,2023-10-27 11:01:43.48,225,-343,-2051,121,73,-81,-186,-13,-173,99
,1523,2023-10-27 11:01:43.49,220,-333,-2051,124,40,-85,-15,158,-173,-71
,1524,2023-10-27 11:01:43.50,215,-348,-2054,121,9,-81,-195,-20,-175,107
,1525,2023-10-27 11:01:43.51,229,-345,-2056,123,-14,-77,-52,125,-177,-36
,1526,2023-10-27 11:01:43.52,252,-324,-2039,114,-27,-80,-239,-62,-177,150
,1527,2023-10-27 11:01:43.53,274,-326,-2020,94,-13,-92,-76,101,-177,-12
,1528,2023-10-27 11:01:43.54,285,-295,-2028,65,19,-109,-250,-61,-189,155
,1529,2023-10-27 11:01:43.55,288,-299,-2009,31,59,-132,-99,82,-181,8
,1530,2023-10-27 11:01:43.56,265,-306,-2020,6,88,-146,-290,-99,-191,194
,1531,2023-10-27 11:01:43.57,268,-337,-2025,3,99,-155,-156,22,-178,67
,1532,2023-10-27 11:01:43.58,241,-378,-2032,18,83,-156,-338,-133,-205,235
,1533,2023-10-27 11:01:43.59,240,-421,-2051,42,63,-144,-194,0,-194,97
,1534,2023-10-27 11:01:43.60,213,-427,-2046,69,44,-127,-353,-153,-200,253
,1535,2023-10-27 11:01:43.61,236,-413,-2032,84,38,-111,-205,-24,-181,114
,1536,2023-10-27 11:01:43.62,190,-400,-2052,101,9,-90,-363,-154,-209,258
,1537,2023-10-27 11:01:43.63,224,-377,-2055,102,-8,-66,-198,-10,-188,104
,1538,2023-10-27 11:01:43.64,213,-370,-2053,89,-18,-51,-341,-125,-216,233
,1539,2023-10-27 11:01:43.65,198,-339,-2046,67,-34,-34,-181,14,-195,83
,1540,2023-10-27 11:01:43.66,213,-312,-2031,47,-42,-31,-307,-85,-222,196
,1541,2023-10-27 11:01:43.67,232,-311,-2019,24,-48,-34,-144,46,-190,49
,1542,2023-10-27 11:01:43.68,248,-309,-2017,12,-65,-39,-283,-66,-217,174
,1543,2023-10-27 11:01:43.69,226,-298,-2031,5,-56,-58,-127,61,-188,33
,1544,2023-10-27 11:01:43.70,220,-343,-2040,-6,-69,-62,-263,-44,-219,153
,1545,2023-10-27 11:01:43.71,213,-386,-2060,-17,-50,-61,-103,82,-185,10
,1546,2023-10-27 11:01:43.72,191,-389,-2035,-5,-64,-52,-229,-6,-223,117
,1547,2023-10-27 11:01:43.73,220,-389,-1996,8,-65,-50,-66,114,-180,-24
,1548,2023-10-27 11:01:43.74,212,-393,-1997,14,-60,-45,-191,28,-219,81
,1549,2023-10-27 11:01:43.75,229,-388,-1981,25,-59,-42,-49,134,-183,-42
,1550,2023-10-27 11:01:43.76,216,-402,-1988,40,-56,-41,-183,48,-231,67
,1551,2023-10-27 11:01:43.77,239,-408,-1973,60,-38,-42,-60,132,-192,-36
,1552,2023-10-27 11:01:43.78,241,-402,-1966,78,-33,-39,-186,48,-234,69
,1553,2023-10-27 11:01:43.79,221,-397,-1958,83,-14,-40,-47,140,-187,-46
,1554,2023-10-27 11:01:43.80,242,-387,-1969,80,4,-44,-163,64,-227,49
,1555,2023-10-27 11:01:43.81,211,-379,-2004,70,0,-41,-31,148,-179,-58
,1556,2023-10-27 11:01:43.82,234,-378,-2026,58,5,-42,-156,77,-233,39
,1557,2023-10-27 11:01:43.83,211,-412,-2037,37,15,-38,-28,152,-180,-62
,1558,2023-10-27 11:01:43.84,203,-428,-2052,21,8,-23,-136,102,-238,17
,1559,2023-10-27 11:01:43.85,187,-445,-2041,15,3,-14,-14,164,-178,-75
,1560,2023-10-27 11:01:43.86,210,-442,-2063,22,-15,-2,-112,116,-228,-2
,1561,2023-10-27 11:01:43.87,202,-442,-2043,25,-24,11,1,172,-171,-86
,1562,2023-10-27 11:01:43.88,214,-412,-2012,26,-38,25,-113,107,-220,3
,1563,2023-10-27 11:01:43.89,220,-414,-1984,30,-41,27,-12,151,-163,-69
,1564,2023-10-27 11:01:43.90,241,-426,-1967,32,-24,29,-112,104,-216,4
,1565,2023-10-27 11:01:43.91,256,-439,-1979,37,-10,29,-11,147,-158,-68
,1566,2023-10-27 11:01:43.92,230,-456,-1988,47,10,28,-110,113,-223,-1
,1567,2023-10-27 11:01:43.93,269,-461,-2001,59,41,34,-26,138,-164,-56
,1568,2023-10-27 11:01:43.94,228,-476,-1984,61,81,36,-109,114,-223,-2
,1569,2023-10-27 11:01:43.95,226,-492,-1992,87,58,45,-23,136,-159,-56
,1570,2023-10-27 11:01:43.96,243,-492,-1993,110,69,52,-118,108,-226,5
,1571,2023-10-27 11:01:43.97,226,-508,-1994,134,71,61,-43,125,-168,-41
,1572,2023-10-27 11:01:43.98,222,-499,-1997,147,68,68,-141,88,-229,26
,1573,2023-10-27 11:01:43.99,230,-471,-2002,152,61,81,-60,106,-166,-23
,1574,2023-10-27 11:01:44.00,233,-453,-2003,147,55,80,-149,84,-233,32
,1575,2023-10-27 11:01:44.01,241,-408,-2015,128,55,81,-71,92,-163,-10
,1576,2023-10-27 11:01:44.02,254,-386,-2017,90,62,72,-160,72,-232,44
,1577,2023-10-27 11:01:44.03,240,-364,-2028,39,73,59,-88,78,-166,5
,1578,2023-10-27 11:01:44.04,256,-344,-2039,-8,81,44,-165,73,-238,46
,1579,2023-10-27 11:01:44.05,261,-331,-2040,-54,86,23,-94,73,-167,10
,1580,2023-10-27 11:01:44.06,258,-339,-2040,-95,81,1,-172,71,-243,50
,1581,2023-10-27 11:01:44.07,254,-343,-2039,-130,70,-17,-116,64,-180,26
,1582,2023-10-27 11:01:44.08,259,-344,-2028,-153,62,-32,-175,70,-245,52
,1583,2023-10-27 11:01:44.09,261,-346,-2019,-163,49,-47,-111,67,-178,22
,1584,2023-10-27 11:01:44.10,281,-359,-1985,-165,36,-56,-172,79,-251,46
,1585,2023-10-27 11:01:44.11,251,-385,-1987,-159,30,-63,-109,63,-172,23
,1586,2023-10-27 11:01:44.12,248,-427,-2021,-140,15,-56,-158,89,-247,34
,1587,2023-10-27 11:01:44.13,236,-440,-2041,-114,-14,-46,-105,66,-171,19
,1588,2023-10-27 11:01:44.14,229,-460,-2037,-75,-48,-22,-158,81,-239,38
,1589,2023-10-27 11:01:44.15,219,-467,-2035,-29,-84,6,-123,42,-165,40
,1590,2023-10-27 11:01:44.16,236,-450,-2023,2,-95,37,-174,68,-242,53
,1591,2023-10-27 11:01:44.17,236,-447,-2012,11,-88,63,-133,34,-167,49
,1592,2023-10-27 11:01:44.18,217,-438,-2020,5,-70,84,-161,77,-238,42
,1593,2023-10-27 11:01:44.19,221,-416,-2027,2,-66,105,-117,47,-164,35
,1594,2023-10-27 11:01:44.20,224,-388,-2028,4,-65,123,-152,95,-247,28
,1595,2023-10-27 11:01:44.21,224,-377,-2002,4,-67,136,-124,50,-174,37
,1596,2023-10-27 11:01:44.22,233,-373,-1985,-5,-54,140,-137,110,-247,13
,1597,2023-10-27 11:01:44.23,247,-380,-2002,-24,-28,136,-115,46,-161,34
,1598,2023-10-27 11:01:44.24,205,-392,-2005,-44,1,133,-140,108,-248,16
,1599,2023-10-27 11:01:44.25,230,-370,-2010,-40,-5,132,-134,42,-176,46
,1600,2023-10-27 11:01:44.26,233,-369,-2011,-38,-6,128,-135,110,-245,12
,1601,2023-10-27 11:01:44.27,215,-369,-2008,-30,-8,119,-126,43,-169,41
,1602,2023-10-27 11:01:44.28,219,-367,-2019,-33,-7,110,-150,101,-251,24
,1603,2023-10-27 11:01:44.29,213,-380,-2031,-36,0,104,-155,18,-173,68
,1604,2023-10-27 11:01:44.30,225,-383,-2037,-26,-16,91,-160,91,-251,34
,1605,2023-10-27 11:01:44.31,222,-385,-2041,-29,-11,87,-153,19,-172,67
,1606,2023-10-27 11:01:44.32,194,-403,-2043,-29,-18,86,-162,99,-261,31
,1607,2023-10-27 11:01:44.33,235,-378,-2032,-28,-24,92,-173,8,-181,82
,1608,2023-10-27 11:01:44.34,204,-374,-2013,-31,-30,94,-170,84,-254,43
,1609,2023-10-27 11:01:44.35,226,-370,-2003,-36,-31,95,-168,8,-176,80
,1610,2023-10-27 11:01:44.36,217,-371,-1994,-42,-25,94,-140,118,-258,11
,1611,2023-10-27 11:01:44.37,232,-364,-2007,-47,-16,95,-143,37,-180,53
,1612,2023-10-27 11:01:44.38,223,-373,-2019,-49,-5,96,-122,133,-255,-5
,1613,2023-10-27 11:01:44.39,214,-371,-2004,-51,3,101,-144,18,-162,63
,1614,2023-10-27 11:01:44.40,207,-383,-1997,-57,16,106,-109,140,-249,-15
,1615,2023-10-27 11:01:44.41,223,-376,-2003,-65,29,110,-131,37,-168,47
,1616,2023-10-27 11:01:44.42,213,-389,-2014,-66,44,116,-86,168,-254,-41
,1617,2023-10-27 11:01:44.43,209,-391,-2020,-61,48,123,-125,39,-164,43
,1618,2023-10-27 11:01:44.44,224,-382,-2022,-56,44,130,-73,164,-237,-45
,1619,2023-10-27 11:01:44.45,224,-379,-2010,-46,41,137,-122,43,-165,39
,1620,2023-10-27 11:01:44.46,235,-367,-2004,-38,39,143,-66,179,-245,-56
,1621,2023-10-27 11:01:44.47,229,-372,-2004,-33,42,146,-114,49,-163,32
,1622,2023-10-27 11:01:44.48,226,-375,-2020,-35,46,149,-64,177,-241,-56
,1623,2023-10-27 11:01:44.49,212,-384,-2027,-30,37,156,-129,29,-158,50
,1624,2023-10-27 11:01:44.50,223,-393,-2027,-14,20,162,-70,169,-239,-49
,1625,2023-10-27 11:01:44.51,221,-390,-2022,3,8,172,-145,23,-168,61
,1626,2023-10-27 11:01:44.52,218,-396,-2018,14,9,177,-84,160,-244,-38
,1627,2023-10-27 11:01:44.53,240,-393,-2010,19,23,179,-163,2,-165,80
,1628,2023-10-27 11:01:44.54,210,-397,-2020,21,32,177,-97,137,-234,-20
,1629,2023-10-27 11:01:44.55,256,-366,-1991,33,25,173,-179,-7,-172,93
,1630,2023-10-27 11:01:44.56,260,-360,-1984,35,43,165,-99,139,-238,-20
,1631,2023-10-27 11:01:44.57,250,-350,-2007,28,62,149,-175,-17,-158,96
,1632,2023-10-27 11:01:44.58,231,-357,-2044,9,79,133,-100,135,-235,-17
,1633,2023-10-27 11:01:44.59,217,-364,-2079,0,76,125,-190,-20,-170,105
,1634,2023-10-27 11:01:44.60,231,-355,-2070,0,52,122,-97,140,-237,-21
,1635,2023-10-27 11:01:44.61,245,-334,-2033,7,32,115,-185,-22,-163,103
,1636,2023-10-27 11:01:44.62,251,-350,-2004,5,25,103,-88,141,-229,-26
,1637,2023-10-27 11:01:44.63,256,-361,-2002,-1,26,91,-175,-12,-163,93
,1638,2023-10-27 11:01:44.64,237,-378,-2013,-2,36,80,-83,152,-235,-34
,1639,2023-10-27 11:01:44.65,249,-392,-2017,2,33,77,-183,-18,-165,100
,1640,2023-10-27 11:01:44.66,272,-377,-1996,13,30,77,-84,149,-233,-32
,1641,2023-10-27 11:01:44.67,272,-360,-1984,10,48,70,-196,-29,-167,112
,1642,2023-10-27 11:01:44.68,255,-358,-1988,2,62,62,-89,141,-230,-26
,1643,2023-10-27 11:01:44.69,251,-375,-2036,-11,75,59,-206,-37,-169,121
,1644,2023-10-27 11:01:44.70,218,-376,-2068,-16,62,59,-110,123,-233,-6
,1645,2023-10-27 11:01:44.71,233,-380,-2063,-7,28,70,-230,-54,-176,142
,1646,2023-10-27 11:01:44.72,238,-382,-2062,6,-4,78,-94,141,-235,-23
,1647,2023-10-27 11:01:44.73,224,-390,-2019,10,-25,86,-208,-34,-174,121
,1648,2023-10-27 11:01:44.74,262,-357,-1998,5,-28,83,-94,137,-231,-21
,1649,2023-10-27 11:01:44.75,242,-349,-1984,-7,-23,74,-229,-61,-168,145
,1650,2023-10-27 11:01:44.76,227,-361,-2009,-20,-7,69,-97,133,-230,-18
,1651,2023-10-27 11:01:44.77,211,-393,-2029,-25,-19,69,-215,-46,-169,130
,1652,2023-10-27 11:01:44.78,234,-375,-2028,-13,-54,76,-68,155,-223,-43
,1653,2023-10-27 11:01:44.79,257,-332,-2002,-4,-64,77,-208,-31,-177,119
,1654,2023-10-27 11:01:44.80,241,-312,-2001,-7,-66,66,-83,144,-227,-30
,1655,2023-10-27 11:01:44.81,243,-330,-2035,-32,-47,49,-230,-51,-179,140
,1656,2023-10-27 11:01:44.82,228,-326,-2065,-49,-42,38,-93,128,-221,-17
,1657,2023-10-27 11:01:44.83,265,-330,-2061,-49,-58,32,-233,-54,-179,143
,1658,2023-10-27 11:01:44.84,238,-316,-2058,-43,-63,24,-93,140,-233,-23
,1659,2023-10-27 11:01:44.85,231,-327,-2033,-45,-76,9,-223,-43,-180,133
,1660,2023-10-27 11:01:44.86,222,-358,-2035,-49,-87,4,-68,165,-233,-48
,1661,2023-10-27 11:01:44.87,203,-371,-2025,-22,-143,7,-191,-18,-173,104
,1662,2023-10-27 11:01:44.88,206,-373,-2001,27,-193,11,-24,187,-211,-81
,1663,2023-10-27 11:01:44.89,211,-392,-1992,73,-222,17,-178,2,-180,88
,1664,2023-10-27 11:01:44.90,172,-414,-1995,104,-236,19,-31,196,-227,-82
,1665,2023-10-27 11:01:44.91,200,-430,-2024,118,-222,24,-178,2,-180,88
,1666,2023-10-27 11:01:44.92,225,-421,-2059,103,-162,23,-27,192,-219,-82
,1667,2023-10-27 11:01:44.93,149,-428,-2009,71,-86,11,-180,-4,-176,92
,1668,2023-10-27 11:01:44.94,141,-429,-2020,63,-86,18,-24,191,-215,-83
,1669,2023-10-27 11:01:44.95,131,-439,-2026,69,-100,26,-189,-5,-184,97
,1670,2023-10-27 11:01:44.96,94,-457,-2053,90,-130,34,-35,187,-222,-76
,1671,2023-10-27 11:01:44.97,90,-464,-2042,109,-162,43,-198,-19,-179,108
,1672,2023-10-27 11:01:44.98,120,-456,-2032,113,-156,48,-42,162,-204,-60
,1673,2023-10-27 11:01:44.99,118,-441,-1997,109,-136,43,-233,-50,-183,141
,1674,2023-10-27 11:01:45.00,133,-408,-1953,109,-125,35,-99,107,-206,-4
,1675,2023-10-27 11:01:45.01,163,-385,-1922,110,-100,14,-286,-103,-183,194
,1676,2023-10-27 11:01:45.02,167,-390,-1921,108,-69,-15,-160,50,-210,55
,1677,2023-10-27 11:01:45.03,194,-392,-1941,99,-10,-42,-318,-130,-188,224
,1678,2023-10-27 11:01:45.04,163,-393,-1963,80,39,-66,-154,57,-211,48
,1679,2023-10-27 11:01:45.05,157,-438,-1998,61,79,-84,-303,-106,-197,204
,1680,2023-10-27 11:01:45.06,165,-450,-2010,47,95,-92,-131,85,-216,23
,1681,2023-10-27 11:01:45.07,170,-422,-2006,48,99,-89,-274,-78,-196,176
,1682,2023-10-27 11:01:45.08,184,-412,-1978,48,103,-94,-91,109,-200,-9
,1683,2023-10-27 11:01:45.09,181,-418,-1974,46,108,-97,-227,-51,-176,139
,1684,2023-10-27 11:01:45.10,137,-445,-1990,55,87,-88,-40,149,-189,-54
,1685,2023-10-27 11:01:45.11,166,-436,-2016,74,34,-73,-184,-11,-173,97
,1686,2023-10-27 11:01:45.12,177,-454,-2020,76,49,-63,-10,176,-186,-83
,1687,2023-10-27 11:01:45.13,153,-444,-2035,77,37,-45,-172,-2,-170,87
,1688,2023-10-27 11:01:45.14,153,-453,-2044,62,30,-31,-10,167,-177,-78
,1689,2023-10-27 11:01:45.15,166,-445,-2054,41,22,-14,-180,-12,-168,96
,1690,2023-10-27 11:01:45.16,184,-423,-2055,35,-4,1,-35,137,-172,-51
,1691,2023-10-27 11:01:45.17,169,-417,-2056,11,1,8,-199,-29,-170,114
,1692,2023-10-27 11:01:45.18,150,-418,-2061,-5,-33,21,-39,135,-174,-48
,1693,2023-10-27 11:01:45.19,141,-418,-2070,-20,-67,33,-198,-32,-166,115
,1694,2023-10-27 11:01:45.20,138,-423,-2056,-20,-109,50,-36,130,-166,-47
,1695,2023-10-27 11:01:45.21,123,-429,-2048,-13,-141,65,-204,-35,-169,119
,1696,2023-10-27 11:01:45.22,114,-431,-2034,-11,-170,80,-49,130,-179,-40
,1697,2023-10-27 11:01:45.23,112,-414,-2005,-14,-183,93,-200,-23,-177,111
,1698,2023-10-27 11:01:45.24,203,-387,-2054,-43,-128,91,-26,148,-174,-61
,1699,2023-10-27 11:01:45.25,123,-406,-1965,-98,-36,71,-184,-12,-172,98
,1700,2023-10-27 11:01:45.26,113,-408,-1959,-118,-7,65,-24,136,-160,-56
,1701,2023-10-27 11:01:45.27,137,-417,-1974,-106,-19,63,-195,-12,-183,103
,1702,2023-10-27 11:01:45.28,108,-405,-1988,-75,-34,60,-37,138,-175,-50
,1703,2023-10-27 11:01:45.29,126,-404,-1992,-44,-70,59,-203,-21,-182,112
,1704,2023-10-27 11:01:45.30,139,-403,-2000,-35,-58,57,-51,124,-175,-36
,1705,2023-10-27 11:01:45.31,132,-383,-1996,-50,-26,49,-202,-21,-181,111
,1706,2023-10-27 11:01:45.32,127,-398,-2004,-68,2,48,-41,123,-164,-41
,1707,2023-10-27 11:01:45.33,86,-402,-2028,-70,-21,52,-206,-20,-186,113
,1708,2023-10-27 11:01:45.34,129,-388,-2019,-65,-29,58,-56,117,-173,-30
,1709,2023-10-27 11:01:45.35,111,-372,-2017,-66,-34,60,-210,-19,-191,114
,1710,2023-10-27 11:01:45.36,122,-375,-2009,-75,-34,60,-52,109,-161,-28
,1711,2023-10-27 11:01:45.37,136,-353,-2029,-82,-43,58,-198,-13,-185,105
,1712,2023-10-27 11:01:45.38,145,-358,-2019,-88,-27,53,-50,115,-165,-32
,1713,2023-10-27 11:01:45.39,162,-355,-2020,-89,-3,52,-193,-3,-190,98
,1714,2023-10-27 11:01:45.40,148,-361,-2001,-90,5,44,-47,115,-162,-34
,1715,2023-10-27 11:01:45.41,158,-369,-2000,-89,19,41,-188,-7,-181,97
,1716,2023-10-27 11:01:45.42,154,-366,-2004,-81,34,40,-42,115,-157,-36
,1717,2023-10-27 11:01:45.43,163,-368,-2014,-67,31,34,-175,5,-180,85
,1718,2023-10-27 11:01:45.44,153,-361,-2010,-57,47,31,-18,125,-143,-53
,1719,2023-10-27 11:01:45.45,166,-363,-2017,-48,60,26,-164,19,-183,72
,1720,2023-10-27 11:01:45.46,172,-359,-2026,-40,63,21,-24,133,-157,-54
,1721,2023-10-27 11:01:45.47,175,-355,-2021,-29,65,18,-147,38,-185,54
,1722,2023-10-27 11:01:45.48,168,-354,-2024,-19,64,12,-3,140,-143,-68
,1723,2023-10-27 11:01:45.49,174,-343,-2018,-12,59,5,-126,56,-182,35
