// Data mode  : Full
// Data quality  : High
// Acceleration sensor's range  : 16g
// Gyroscope sensor's range  : 2000dps
//
//ARTIFACT,NUM,DATE,ACC_X,ACC_Y,ACC_Z,GYRO_X,GYRO_Y,GYRO_Z,EOG_L,EOG_R,EOG_H,EOG_V
,1,2023-10-20 13:26:28.56,81,-54,-2039,22,24,74,846,-642,1488,-102
,2,2023-10-20 13:26:28.57,80,-33,-2059,15,24,75,702,-523,1225,-89
,3,2023-10-20 13:26:28.58,77,-44,-2064,4,18,65,844,-588,1432,-128
,4,2023-10-20 13:26:28.59,96,-40,-2054,5,12,61,654,-465,1119,-94
,5,2023-10-20 13:26:28.60,92,-51,-2048,2,16,57,795,-546,1341,-124
,6,2023-10-20 13:26:28.61,77,-55,-2064,-9,27,55,689,-451,1140,-119
,7,2023-10-20 13:26:28.62,84,-47,-2068,-9,20,56,837,-547,1384,-145
,8,2023-10-20 13:26:28.63,101,-31,-2073,-8,14,53,701,-452,1153,-124
,9,2023-10-20 13:26:28.64,109,-25,-2058,-11,11,45,821,-560,1381,-130
,10,2023-10-20 13:26:28.65,103,-25,-2069,-12,18,38,716,-457,1173,-129
,11,2023-10-20 13:26:28.66,106,-21,-2058,-11,28,37,837,-565,1402,-136
,12,2023-10-20 13:26:28.67,116,-30,-2062,-7,23,30,712,-468,1180,-122
,13,2023-10-20 13:26:28.68,118,-41,-2064,-7,25,27,821,-586,1407,-117
,14,2023-10-20 13:26:28.69,120,-53,-2077,0,27,38,731,-498,1229,-116
,15,2023-10-20 13:26:28.70,92,-41,-2072,13,20,47,844,-621,1465,-111
,16,2023-10-20 13:26:28.71,98,-44,-2054,23,11,47,739,-539,1278,-100
,17,2023-10-20 13:26:28.72,116,-44,-2053,22,6,49,813,-657,1470,-78
,18,2023-10-20 13:26:28.73,95,-36,-2061,17,6,55,667,-542,1209,-62
,19,2023-10-20 13:26:28.74,110,-26,-2049,15,2,55,762,-643,1405,-59
,20,2023-10-20 13:26:28.75,90,-38,-2043,11,1,55,688,-500,1188,-94
,21,2023-10-20 13:26:28.76,106,-38,-2041,8,6,56,795,-580,1375,-107
,22,2023-10-20 13:26:28.77,99,-46,-2053,7,12,56,670,-447,1117,-111
,23,2023-10-20 13:26:28.78,111,-63,-2048,6,10,60,760,-565,1325,-97
,24,2023-10-20 13:26:28.79,107,-70,-2046,21,9,70,631,-449,1080,-91
,25,2023-10-20 13:26:28.80,104,-66,-2044,33,8,77,728,-553,1281,-87
,26,2023-10-20 13:26:28.81,101,-49,-2040,36,9,81,648,-452,1100,-98
,27,2023-10-20 13:26:28.82,111,-53,-2053,38,9,81,749,-584,1333,-82
,28,2023-10-20 13:26:28.83,106,-41,-2063,43,-1,91,652,-463,1115,-94
,29,2023-10-20 13:26:28.84,116,-23,-2051,52,-8,81,730,-564,1294,-83
,30,2023-10-20 13:26:28.85,103,-26,-2051,64,-15,62,626,-469,1095,-78
,31,2023-10-20 13:26:28.86,111,-41,-2053,59,-11,56,709,-600,1309,-54
,32,2023-10-20 13:26:28.87,95,-47,-2061,55,-7,51,641,-498,1139,-71
,33,2023-10-20 13:26:28.88,89,-58,-2060,60,-10,45,718,-606,1324,-56
,34,2023-10-20 13:26:28.89,103,-54,-2048,65,-12,39,639,-496,1135,-71
,35,2023-10-20 13:26:28.90,108,-55,-2047,58,-3,36,710,-603,1313,-53
,36,2023-10-20 13:26:28.91,99,-57,-2047,45,9,39,656,-468,1124,-94
,37,2023-10-20 13:26:28.92,104,-63,-2043,32,20,43,717,-568,1285,-74
,38,2023-10-20 13:26:28.93,107,-76,-2039,28,21,46,662,-411,1073,-125
,39,2023-10-20 13:26:28.94,94,-61,-2032,18,31,46,706,-513,1219,-96
,40,2023-10-20 13:26:28.95,99,-69,-2050,15,32,45,645,-398,1043,-123
,41,2023-10-20 13:26:28.96,107,-64,-2052,22,31,46,683,-524,1207,-79
,42,2023-10-20 13:26:28.97,126,-69,-2060,22,36,42,625,-382,1007,-121
,43,2023-10-20 13:26:28.98,117,-52,-2053,19,36,37,660,-489,1149,-85
,44,2023-10-20 13:26:28.99,126,-43,-2059,18,43,33,586,-370,956,-108
,45,2023-10-20 13:26:29.00,110,-52,-2077,12,49,22,613,-500,1113,-56
,46,2023-10-20 13:26:29.01,112,-63,-2063,8,29,29,572,-367,939,-102
,47,2023-10-20 13:26:29.02,101,-53,-2059,3,28,29,640,-495,1135,-72
,48,2023-10-20 13:26:29.03,108,-56,-2060,-3,22,28,681,-399,1080,-141
,49,2023-10-20 13:26:29.04,101,-59,-2052,-8,16,31,701,-516,1217,-92
,50,2023-10-20 13:26:29.05,115,-51,-2054,-7,11,30,637,-403,1040,-117
,51,2023-10-20 13:26:29.06,115,-58,-2047,-7,4,34,641,-515,1156,-63
,52,2023-10-20 13:26:29.07,103,-33,-2045,-16,13,34,653,-398,1051,-127
,53,2023-10-20 13:26:29.08,104,-51,-2042,-17,13,23,675,-507,1182,-84
,54,2023-10-20 13:26:29.09,135,-83,-2029,-22,20,19,706,-393,1099,-156
,55,2023-10-20 13:26:29.10,108,-88,-2046,-21,35,32,680,-503,1183,-88
,56,2023-10-20 13:26:29.11,104,-85,-2070,-10,25,48,691,-441,1132,-125
,57,2023-10-20 13:26:29.12,127,-89,-2064,-21,16,59,668,-566,1234,-51
,58,2023-10-20 13:26:29.13,136,-68,-2069,-22,14,75,702,-454,1156,-124
,59,2023-10-20 13:26:29.14,136,-55,-2063,-21,20,78,672,-524,1196,-74
,60,2023-10-20 13:26:29.15,132,-32,-2061,-22,21,64,694,-397,1091,-148
,61,2023-10-20 13:26:29.16,127,-35,-2053,-20,24,44,638,-489,1127,-74
,62,2023-10-20 13:26:29.17,124,-33,-2063,-18,26,29,654,-381,1035,-136
,63,2023-10-20 13:26:29.18,125,-43,-2084,-14,14,31,584,-482,1066,-51
,64,2023-10-20 13:26:29.19,126,-57,-2077,-22,1,45,601,-376,977,-112
,65,2023-10-20 13:26:29.20,131,-61,-2070,-31,-9,64,569,-480,1049,-44
,66,2023-10-20 13:26:29.21,121,-55,-2074,-38,-17,75,644,-421,1065,-111
,67,2023-10-20 13:26:29.22,135,-41,-2070,-26,-26,80,635,-528,1163,-53
,68,2023-10-20 13:26:29.23,120,-45,-2075,-17,-31,86,776,-462,1238,-157
,69,2023-10-20 13:26:29.24,124,-37,-2065,-14,-30,89,695,-534,1229,-80
,70,2023-10-20 13:26:29.25,118,-36,-2062,-7,-30,95,779,-427,1206,-176
,71,2023-10-20 13:26:29.26,119,-42,-2057,-6,-30,106,655,-502,1157,-76
,72,2023-10-20 13:26:29.27,116,-66,-2056,-6,-27,117,720,-432,1152,-144
,73,2023-10-20 13:26:29.28,95,-59,-2055,13,-42,131,646,-511,1157,-67
,74,2023-10-20 13:26:29.29,90,-48,-2050,26,-47,140,774,-466,1240,-154
,75,2023-10-20 13:26:29.30,100,-32,-2045,38,-51,138,665,-540,1205,-62
,76,2023-10-20 13:26:29.31,88,-30,-2038,34,-49,128,770,-471,1241,-149
,77,2023-10-20 13:26:29.32,100,-19,-2039,27,-43,123,633,-519,1152,-57
,78,2023-10-20 13:26:29.33,92,-26,-2035,25,-41,118,728,-425,1153,-151
,79,2023-10-20 13:26:29.34,99,-36,-2041,23,-43,112,612,-484,1096,-64
,80,2023-10-20 13:26:29.35,84,-45,-2040,20,-39,111,739,-462,1201,-138
,81,2023-10-20 13:26:29.36,103,-56,-2035,21,-34,112,637,-533,1170,-52
,82,2023-10-20 13:26:29.37,86,-47,-2028,17,-23,113,784,-456,1240,-164
,83,2023-10-20 13:26:29.38,100,-29,-2035,13,-17,110,619,-590,1209,-14
,84,2023-10-20 13:26:29.39,99,-33,-2043,7,-16,104,826,-1049,1875,111
,85,2023-10-20 13:26:29.40,97,-26,-2039,2,-9,105,628,-1147,1775,259
,86,2023-10-20 13:26:29.41,83,-32,-2056,-9,-6,102,788,-1277,2065,244
,87,2023-10-20 13:26:29.42,87,-50,-2063,-14,-5,105,597,-1130,1727,266
,88,2023-10-20 13:26:29.43,87,-69,-2076,-18,-3,114,804,-1204,2008,200
,89,2023-10-20 13:26:29.44,101,-73,-2083,-13,-11,127,608,-1087,1695,239
,90,2023-10-20 13:26:29.45,92,-68,-2074,-9,-12,139,818,-1198,2016,190
,91,2023-10-20 13:26:29.46,97,-62,-2075,1,-11,145,598,-1066,1664,234
,92,2023-10-20 13:26:29.47,95,-49,-2065,9,-21,148,809,-1014,1823,102
,93,2023-10-20 13:26:29.48,96,-47,-2046,13,-19,148,595,-836,1431,120
,94,2023-10-20 13:26:29.49,103,-40,-2039,12,-18,154,794,-643,1437,-75
,95,2023-10-20 13:26:29.50,106,-56,-2048,14,-12,160,565,-504,1069,-30
,96,2023-10-20 13:26:29.51,98,-53,-2093,10,-13,161,760,-387,1147,-186
,97,2023-10-20 13:26:29.52,96,-40,-2084,18,-26,163,544,-387,931,-78
,98,2023-10-20 13:26:29.53,95,-21,-2088,20,-36,157,768,-362,1130,-203
,99,2023-10-20 13:26:29.54,86,-34,-2093,7,-33,152,534,-392,926,-71
,100,2023-10-20 13:26:29.55,77,-33,-2091,-9,-31,151,762,-338,1100,-212
,101,2023-10-20 13:26:29.56,86,-49,-2067,-20,-38,158,541,-347,888,-97
,102,2023-10-20 13:26:29.57,68,-54,-2065,-18,-40,166,764,-293,1057,-235
,103,2023-10-20 13:26:29.58,67,-49,-2066,-18,-42,172,532,-308,840,-112
,104,2023-10-20 13:26:29.59,78,-51,-2059,-16,-40,176,759,-257,1016,-251
,105,2023-10-20 13:26:29.60,79,-43,-2039,-15,-25,180,529,-282,811,-123
,106,2023-10-20 13:26:29.61,84,-43,-2041,-3,-22,178,756,-247,1003,-254
,107,2023-10-20 13:26:29.62,74,-34,-2044,4,-20,174,530,-285,815,-122
,108,2023-10-20 13:26:29.63,75,-42,-2023,24,-21,167,764,-257,1021,-253
,109,2023-10-20 13:26:29.64,87,-30,-2024,40,-22,159,528,-283,811,-122
,110,2023-10-20 13:26:29.65,86,-32,-2046,41,-16,147,748,-272,1020,-238
,111,2023-10-20 13:26:29.66,82,-32,-2059,39,-11,135,514,-307,821,-103
,112,2023-10-20 13:26:29.67,83,-41,-2056,34,-1,128,752,-284,1036,-234
,113,2023-10-20 13:26:29.68,80,-39,-2055,37,-3,120,516,-290,806,-113
,114,2023-10-20 13:26:29.69,95,-53,-2062,39,-9,115,753,-269,1022,-242
,115,2023-10-20 13:26:29.70,90,-53,-2040,46,-12,109,521,-288,809,-116
,116,2023-10-20 13:26:29.71,82,-45,-2039,39,-3,107,756,-290,1046,-233
,117,2023-10-20 13:26:29.72,83,-36,-2038,25,1,98,524,-304,828,-110
,118,2023-10-20 13:26:29.73,81,-60,-2051,14,5,95,758,-290,1048,-234
,119,2023-10-20 13:26:29.74,90,-67,-2049,13,-4,102,523,-286,809,-118
,120,2023-10-20 13:26:29.75,91,-66,-2048,17,-6,108,750,-271,1021,-239
,121,2023-10-20 13:26:29.76,90,-79,-2038,16,-9,120,518,-263,781,-127
,122,2023-10-20 13:26:29.77,97,-68,-2054,19,-12,127,753,-227,980,-263
,123,2023-10-20 13:26:29.78,82,-65,-2039,14,0,134,523,-220,743,-151
,124,2023-10-20 13:26:29.79,87,-64,-2045,5,2,133,758,-228,986,-265
,125,2023-10-20 13:26:29.80,90,-62,-2047,17,-2,135,522,-252,774,-135
,126,2023-10-20 13:26:29.81,87,-49,-2053,23,-4,133,746,-291,1037,-227
,127,2023-10-20 13:26:29.82,88,-43,-2049,21,-5,127,518,-315,833,-101
,128,2023-10-20 13:26:29.83,80,-47,-2040,15,-8,124,749,-369,1118,-190
,129,2023-10-20 13:26:29.84,75,-55,-2044,18,-12,125,524,-371,895,-76
,130,2023-10-20 13:26:29.85,75,-41,-2045,17,-10,118,754,-384,1138,-185
,131,2023-10-20 13:26:29.86,78,-38,-2049,10,-3,106,536,-344,880,-96
,132,2023-10-20 13:26:29.87,69,-29,-2047,11,-2,93,755,-356,1111,-199
,133,2023-10-20 13:26:29.88,66,-22,-2052,6,-7,82,541,-320,861,-110
,134,2023-10-20 13:26:29.89,60,-27,-2063,-4,-3,71,767,-308,1075,-229
,135,2023-10-20 13:26:29.90,63,-23,-2055,-11,-4,63,540,-254,794,-143
,136,2023-10-20 13:26:29.91,54,-32,-2065,-12,-4,54,755,-267,1022,-244
,137,2023-10-20 13:26:29.92,59,-26,-2055,-7,-3,43,532,-256,788,-138
,138,2023-10-20 13:26:29.93,66,-26,-2061,-2,9,34,756,-264,1020,-246
,139,2023-10-20 13:26:29.94,78,-28,-2048,0,3,32,529,-233,762,-148
,140,2023-10-20 13:26:29.95,94,-35,-2060,4,1,32,728,-263,991,-232
,141,2023-10-20 13:26:29.96,92,-40,-2069,3,8,29,530,-258,788,-136
,142,2023-10-20 13:26:29.97,81,-31,-2073,10,6,27,742,-315,1057,-213
,143,2023-10-20 13:26:29.98,86,-30,-2067,18,13,26,535,-296,831,-119
,144,2023-10-20 13:26:29.99,89,-24,-2075,27,14,22,727,-322,1049,-202
,145,2023-10-20 13:26:30.00,89,-42,-2078,31,9,20,533,-269,802,-132
,146,2023-10-20 13:26:30.01,90,-46,-2066,39,0,31,729,-288,1017,-220
,147,2023-10-20 13:26:30.02,89,-49,-2059,51,-3,35,542,-249,791,-146
,148,2023-10-20 13:26:30.03,82,-48,-2061,53,-7,38,726,-289,1015,-218
,149,2023-10-20 13:26:30.04,84,-49,-2036,47,-5,42,524,-256,780,-134
,150,2023-10-20 13:26:30.05,82,-49,-2031,43,3,51,704,-304,1008,-200
,151,2023-10-20 13:26:30.06,84,-47,-2038,39,1,53,538,-270,808,-134
,152,2023-10-20 13:26:30.07,81,-42,-2052,42,2,56,726,-311,1037,-207
,153,2023-10-20 13:26:30.08,78,-43,-2053,36,2,56,545,-262,807,-141
,154,2023-10-20 13:26:30.09,64,-40,-2060,32,-8,59,704,-308,1012,-198
,155,2023-10-20 13:26:30.10,63,-54,-2057,32,-11,56,546,-259,805,-143
,156,2023-10-20 13:26:30.11,65,-58,-2057,33,-15,52,721,-303,1024,-209
,157,2023-10-20 13:26:30.12,67,-65,-2060,38,-26,56,564,-247,811,-158
,158,2023-10-20 13:26:30.13,58,-67,-2071,40,-33,62,714,-294,1008,-210
,159,2023-10-20 13:26:30.14,58,-75,-2064,38,-33,65,564,-239,803,-162
,160,2023-10-20 13:26:30.15,75,-76,-2046,36,-25,73,716,-290,1006,-213
,161,2023-10-20 13:26:30.16,81,-82,-2058,41,-23,80,563,-236,799,-163
,162,2023-10-20 13:26:30.17,72,-52,-2063,53,-23,86,698,-300,998,-199
,163,2023-10-20 13:26:30.18,87,-48,-2049,51,-20,79,569,-246,815,-161
,164,2023-10-20 13:26:30.19,80,-51,-2055,52,-6,67,706,-301,1007,-202
,165,2023-10-20 13:26:30.20,75,-58,-2069,58,-5,59,585,-229,814,-178
,166,2023-10-20 13:26:30.21,46,-60,-2081,62,-9,51,701,-278,979,-211
,167,2023-10-20 13:26:30.22,59,-50,-2076,60,-10,43,582,-207,789,-187
,168,2023-10-20 13:26:30.23,59,-59,-2074,56,-20,37,699,-265,964,-217
,169,2023-10-20 13:26:30.24,58,-74,-2057,54,-19,39,576,-198,774,-189
,170,2023-10-20 13:26:30.25,55,-85,-2043,52,-19,40,673,-274,947,-199
,171,2023-10-20 13:26:30.26,70,-104,-2043,46,-20,53,584,-204,788,-190
,172,2023-10-20 13:26:30.27,53,-88,-2052,38,-8,65,690,-260,950,-215
,173,2023-10-20 13:26:30.28,66,-92,-2045,36,-12,75,604,-312,916,-146
,174,2023-10-20 13:26:30.29,76,-95,-2033,33,-3,83,696,-392,1088,-152
,175,2023-10-20 13:26:30.30,70,-99,-2031,20,12,97,629,-370,999,-129
,176,2023-10-20 13:26:30.31,70,-94,-2031,13,22,111,700,-397,1097,-151
,177,2023-10-20 13:26:30.32,59,-111,-2028,10,29,125,632,-367,999,-132
,178,2023-10-20 13:26:30.33,73,-98,-2055,18,32,134,696,-409,1105,-143
,179,2023-10-20 13:26:30.34,71,-84,-2048,33,21,143,659,-301,960,-179
,180,2023-10-20 13:26:30.35,66,-69,-2057,35,15,149,734,-268,1002,-233
,181,2023-10-20 13:26:30.36,64,-76,-2077,33,9,154,699,-208,907,-245
,182,2023-10-20 13:26:30.37,67,-80,-2083,40,4,161,734,-272,1006,-231
,183,2023-10-20 13:26:30.38,70,-67,-2069,40,-5,167,690,-445,1135,-122
,184,2023-10-20 13:26:30.39,56,-85,-2075,43,-9,161,765,-625,1390,-70
,185,2023-10-20 13:26:30.40,63,-60,-2055,40,-10,157,801,-636,1437,-82
,186,2023-10-20 13:26:30.41,75,-62,-2054,41,-7,152,844,-619,1463,-112
,187,2023-10-20 13:26:30.42,94,-60,-2058,35,-3,147,877,-574,1451,-151
,188,2023-10-20 13:26:30.43,76,-74,-2064,32,3,144,868,-602,1470,-133
,189,2023-10-20 13:26:30.44,79,-61,-2049,40,0,133,892,-605,1497,-143
,190,2023-10-20 13:26:30.45,68,-64,-2041,54,-2,120,877,-635,1512,-121
,191,2023-10-20 13:26:30.46,56,-51,-2058,60,-7,109,942,-660,1602,-141
,192,2023-10-20 13:26:30.47,52,-53,-2050,53,-19,100,875,-703,1578,-86
,193,2023-10-20 13:26:30.48,40,-87,-2075,49,-33,100,871,-683,1554,-94
,194,2023-10-20 13:26:30.49,40,-94,-2074,47,-48,114,822,-671,1493,-75
,195,2023-10-20 13:26:30.50,40,-94,-2078,48,-64,126,877,-554,1431,-161
,196,2023-10-20 13:26:30.51,57,-97,-2076,36,-72,144,840,-515,1355,-162
,197,2023-10-20 13:26:30.52,43,-86,-2065,29,-76,162,918,-475,1393,-221
,198,2023-10-20 13:26:30.53,51,-94,-2066,19,-77,170,856,-530,1386,-163
,199,2023-10-20 13:26:30.54,60,-85,-2023,12,-76,185,923,-331,1254,-296
,200,2023-10-20 13:26:30.55,57,-88,-2041,9,-62,186,821,-218,1039,-301
,201,2023-10-20 13:26:30.56,64,-94,-2045,6,-48,186,853,3,850,-428
,202,2023-10-20 13:26:30.57,64,-90,-2039,26,-43,184,764,-16,780,-374
,203,2023-10-20 13:26:30.58,53,-94,-2065,50,-43,180,817,43,774,-430
,204,2023-10-20 13:26:30.59,65,-63,-2040,56,-41,180,727,-100,827,-313
,205,2023-10-20 13:26:30.60,52,-67,-2058,52,-39,174,801,-193,994,-304
,206,2023-10-20 13:26:30.61,57,-68,-2044,32,-23,170,758,-352,1110,-203
,207,2023-10-20 13:26:30.62,35,-79,-2063,30,-28,173,899,-396,1295,-251
,208,2023-10-20 13:26:30.63,54,-90,-2037,26,-25,174,813,-465,1278,-174
,209,2023-10-20 13:26:30.64,61,-92,-2028,29,-22,174,925,-526,1451,-199
,210,2023-10-20 13:26:30.65,57,-79,-2030,27,-19,174,790,-597,1387,-96
,211,2023-10-20 13:26:30.66,42,-89,-2063,38,-4,168,886,-540,1426,-173
,212,2023-10-20 13:26:30.67,49,-120,-2088,44,-11,170,769,-522,1291,-123
,213,2023-10-20 13:26:30.68,47,-103,-2068,64,-24,179,919,-342,1261,-288
,214,2023-10-20 13:26:30.69,47,-106,-2078,70,-26,187,776,-317,1093,-229
,215,2023-10-20 13:26:30.70,35,-110,-2060,63,-28,187,898,-198,1096,-350
,216,2023-10-20 13:26:30.71,40,-108,-2071,72,-30,191,732,-262,994,-235
,217,2023-10-20 13:26:30.72,39,-98,-2054,82,-47,192,847,-160,1007,-343
,218,2023-10-20 13:26:30.73,46,-75,-2075,79,-43,190,695,-229,924,-233
,219,2023-10-20 13:26:30.74,36,-90,-2060,63,-43,186,835,-258,1093,-288
,220,2023-10-20 13:26:30.75,39,-80,-2068,63,-37,182,740,-384,1124,-178
,221,2023-10-20 13:26:30.76,22,-106,-2070,80,-58,171,940,-320,1260,-310
,222,2023-10-20 13:26:30.77,35,-79,-2066,84,-68,165,747,-360,1107,-193
,223,2023-10-20 13:26:30.78,17,-89,-2053,80,-63,154,885,-371,1256,-257
,224,2023-10-20 13:26:30.79,20,-122,-2058,86,-73,150,743,-473,1216,-135
,225,2023-10-20 13:26:30.80,3,-107,-2059,98,-83,145,958,-683,1641,-137
,226,2023-10-20 13:26:30.81,-3,-123,-2050,106,-92,142,777,-782,1559,2
,227,2023-10-20 13:26:30.82,5,-127,-2038,103,-88,143,948,-775,1723,-86
,228,2023-10-20 13:26:30.83,10,-118,-2045,98,-80,144,753,-702,1455,-25
,229,2023-10-20 13:26:30.84,18,-117,-2029,88,-73,145,931,-560,1491,-185
,230,2023-10-20 13:26:30.85,15,-114,-2025,86,-68,143,721,-506,1227,-107
,231,2023-10-20 13:26:30.86,-2,-107,-2026,74,-50,134,896,-446,1342,-225
,232,2023-10-20 13:26:30.87,7,-95,-2026,57,-36,129,734,-474,1208,-130
,233,2023-10-20 13:26:30.88,24,-94,-2027,45,-25,115,965,-416,1381,-274
,234,2023-10-20 13:26:30.89,20,-101,-2044,41,-18,102,770,-440,1210,-165
,235,2023-10-20 13:26:30.90,2,-104,-2046,36,-11,87,959,-490,1449,-234
,236,2023-10-20 13:26:30.91,-12,-112,-2067,40,-19,77,763,-553,1316,-105
,237,2023-10-20 13:26:30.92,0,-137,-2070,39,-28,74,982,-467,1449,-257
,238,2023-10-20 13:26:30.93,-2,-153,-2056,36,-30,79,756,-449,1205,-153
,239,2023-10-20 13:26:30.94,18,-147,-2052,36,-30,85,950,-481,1431,-234
,240,2023-10-20 13:26:30.95,10,-143,-2049,42,-29,89,756,-544,1300,-106
,241,2023-10-20 13:26:30.96,12,-125,-2041,44,-22,91,988,-531,1519,-228
,242,2023-10-20 13:26:30.97,17,-120,-2032,44,-16,88,761,-522,1283,-119
,243,2023-10-20 13:26:30.98,24,-99,-2037,41,-4,76,967,-377,1344,-295
,244,2023-10-20 13:26:30.99,-2,-125,-2055,46,-6,65,729,-353,1082,-188
,245,2023-10-20 13:26:31.00,2,-139,-2065,46,-3,64,936,-240,1176,-348
,246,2023-10-20 13:26:31.01,-5,-130,-2065,43,-6,63,708,-286,994,-211
,247,2023-10-20 13:26:31.02,-4,-118,-2067,46,-17,59,932,-185,1117,-373
,248,2023-10-20 13:26:31.03,13,-129,-2053,52,-20,52,717,-237,954,-240
,249,2023-10-20 13:26:31.04,4,-105,-2046,55,-22,46,946,-125,1071,-410
,250,2023-10-20 13:26:31.05,-2,-118,-2055,48,-15,40,707,-203,910,-252
,251,2023-10-20 13:26:31.06,-4,-135,-2026,46,-17,37,936,-191,1127,-372
,252,2023-10-20 13:26:31.07,-9,-129,-2027,47,-16,33,728,-305,1033,-211
,253,2023-10-20 13:26:31.08,-7,-129,-2067,55,-23,27,979,-339,1318,-320
,254,2023-10-20 13:26:31.09,-18,-141,-2062,70,-37,25,784,-405,1189,-189
,255,2023-10-20 13:26:31.10,8,-108,-2045,76,-36,14,1025,-387,1412,-319
,256,2023-10-20 13:26:31.11,-7,-113,-2038,65,-22,-3,782,-424,1206,-179
,257,2023-10-20 13:26:31.12,4,-126,-2048,57,-10,-10,1014,-478,1492,-268
,258,2023-10-20 13:26:31.13,-8,-131,-2044,55,-6,-18,776,-515,1291,-130
,259,2023-10-20 13:26:31.14,-5,-141,-2052,56,-3,-30,1015,-457,1472,-279
,260,2023-10-20 13:26:31.15,-26,-158,-2051,50,-2,-33,794,-440,1234,-177
,261,2023-10-20 13:26:31.16,-21,-174,-2051,51,-3,-29,1036,-445,1481,-295
,262,2023-10-20 13:26:31.17,-14,-174,-2040,49,-9,-17,781,-483,1264,-149
,263,2023-10-20 13:26:31.18,-6,-163,-2031,43,-6,-12,984,-506,1490,-239
,264,2023-10-20 13:26:31.19,-1,-162,-2040,38,4,-3,744,-498,1242,-123
,265,2023-10-20 13:26:31.20,4,-149,-2041,31,8,0,975,-458,1433,-258
,266,2023-10-20 13:26:31.21,9,-143,-2051,27,6,0,730,-450,1180,-140
,267,2023-10-20 13:26:31.22,-4,-157,-2059,21,4,2,957,-438,1395,-259
,268,2023-10-20 13:26:31.23,-7,-143,-2069,16,-4,3,749,-439,1188,-155
,269,2023-10-20 13:26:31.24,-16,-156,-2065,12,-10,7,989,-352,1341,-318
,270,2023-10-20 13:26:31.25,-4,-150,-2072,13,-17,5,726,-332,1058,-197
,271,2023-10-20 13:26:31.26,-16,-147,-2061,13,-25,3,937,-231,1168,-353
,272,2023-10-20 13:26:31.27,-15,-152,-2055,19,-33,1,682,-277,959,-202
,273,2023-10-20 13:26:31.28,-13,-159,-2057,19,-32,1,909,-356,1265,-276
,274,2023-10-20 13:26:31.29,-7,-157,-2050,19,-28,6,678,-451,1129,-113
,275,2023-10-20 13:26:31.30,-2,-154,-2047,20,-24,4,912,-532,1444,-190
,276,2023-10-20 13:26:31.31,-12,-160,-2049,22,-19,2,686,-539,1225,-73
,277,2023-10-20 13:26:31.32,-17,-151,-2052,26,-13,-1,916,-523,1439,-196
,278,2023-10-20 13:26:31.33,-34,-150,-2051,29,-12,-6,685,-472,1157,-106
,279,2023-10-20 13:26:31.34,-38,-142,-2065,32,-13,-14,912,-377,1289,-267
,280,2023-10-20 13:26:31.35,-30,-161,-2068,32,-23,-13,678,-321,999,-178
,281,2023-10-20 13:26:31.36,-43,-165,-2047,36,-30,-13,894,-164,1058,-365
,282,2023-10-20 13:26:31.37,-40,-162,-2034,36,-29,-9,645,-177,822,-234
,283,2023-10-20 13:26:31.38,-48,-163,-2029,32,-26,-7,876,-192,1068,-342
,284,2023-10-20 13:26:31.39,-38,-179,-2035,27,-15,-1,695,-331,1026,-182
,285,2023-10-20 13:26:31.40,-42,-175,-2030,26,-7,6,940,-502,1442,-219
,286,2023-10-20 13:26:31.41,-32,-177,-2032,26,2,12,773,-556,1329,-108
,287,2023-10-20 13:26:31.42,-25,-173,-2042,27,2,17,994,-544,1538,-225
,288,2023-10-20 13:26:31.43,-28,-159,-2030,29,9,20,793,-496,1289,-148
,289,2023-10-20 13:26:31.44,-27,-162,-2034,28,17,21,993,-491,1484,-251
,290,2023-10-20 13:26:31.45,-19,-164,-2040,28,23,20,804,-460,1264,-172
,291,2023-10-20 13:26:31.46,-23,-162,-2047,33,26,23,993,-412,1405,-290
,292,2023-10-20 13:26:31.47,-34,-157,-2043,29,28,23,767,-370,1137,-198
,293,2023-10-20 13:26:31.48,-28,-169,-2046,26,22,26,947,-308,1255,-319
,294,2023-10-20 13:26:31.49,-17,-164,-2048,20,23,28,741,-345,1086,-198
,295,2023-10-20 13:26:31.50,-14,-157,-2040,16,24,30,952,-436,1388,-258
,296,2023-10-20 13:26:31.51,-21,-171,-2049,9,24,32,827,-476,1303,-175
,297,2023-10-20 13:26:31.52,-14,-176,-2057,2,24,41,1015,-467,1482,-274
,298,2023-10-20 13:26:31.53,-19,-172,-2060,-6,19,51,817,-474,1291,-171
,299,2023-10-20 13:26:31.54,-17,-160,-2061,-14,20,63,972,-545,1517,-213
,300,2023-10-20 13:26:31.55,-34,-160,-2066,-17,15,71,827,-545,1372,-141
,301,2023-10-20 13:26:31.56,-16,-145,-2061,-15,7,78,986,-537,1523,-224
,302,2023-10-20 13:26:31.57,-21,-135,-2063,-18,4,73,781,-526,1307,-127
,303,2023-10-20 13:26:31.58,-15,-129,-2063,-17,-2,65,930,-586,1516,-172
,304,2023-10-20 13:26:31.59,-6,-136,-2067,-17,-10,57,802,-616,1418,-93
,305,2023-10-20 13:26:31.60,-13,-138,-2067,-12,-14,52,980,-665,1645,-157
,306,2023-10-20 13:26:31.61,-16,-136,-2065,-9,-20,48,845,-640,1485,-102
,307,2023-10-20 13:26:31.62,-9,-128,-2075,-7,-30,48,983,-646,1629,-168
,308,2023-10-20 13:26:31.63,0,-131,-2067,-8,-36,46,885,-632,1517,-126
,309,2023-10-20 13:26:31.64,-17,-158,-2054,-1,-41,46,1012,-682,1694,-165
,310,2023-10-20 13:26:31.65,-25,-121,-2093,0,-42,49,925,-653,1578,-136
,311,2023-10-20 13:26:31.66,-10,-124,-2048,2,-54,38,1022,-653,1675,-184
,312,2023-10-20 13:26:31.67,-13,-138,-2029,2,-49,32,926,-588,1514,-169
,313,2023-10-20 13:26:31.68,-13,-149,-2044,1,-35,31,1008,-560,1568,-224
,314,2023-10-20 13:26:31.69,-21,-138,-2050,3,-37,32,902,-473,1375,-214
,315,2023-10-20 13:26:31.70,-12,-142,-2035,10,-36,35,970,-417,1387,-276
,316,2023-10-20 13:26:31.71,-18,-162,-2034,5,-32,42,826,-388,1214,-219
,317,2023-10-20 13:26:31.72,-15,-131,-2023,7,-22,42,905,-411,1316,-247
,318,2023-10-20 13:26:31.73,5,-142,-2016,16,-28,38,823,-401,1224,-211
,319,2023-10-20 13:26:31.74,10,-160,-1995,34,-2,43,917,-397,1314,-260
,320,2023-10-20 13:26:31.75,-15,-139,-2031,38,20,34,852,-314,1166,-269
,321,2023-10-20 13:26:31.76,-31,-141,-2081,35,1,36,914,-239,1153,-337
,322,2023-10-20 13:26:31.77,0,-159,-2067,23,-19,53,794,-190,984,-302
,323,2023-10-20 13:26:31.78,-16,-162,-2054,17,-21,61,864,-206,1070,-329
,324,2023-10-20 13:26:31.79,-8,-167,-2062,28,-25,64,802,-283,1085,-259
,325,2023-10-20 13:26:31.80,-5,-176,-2064,36,-18,72,888,-397,1285,-245
,326,2023-10-20 13:26:31.81,-13,-188,-2082,52,-17,78,875,-475,1350,-200
,327,2023-10-20 13:26:31.82,-28,-152,-2065,71,-34,88,936,-553,1489,-191
,328,2023-10-20 13:26:31.83,-25,-181,-2099,74,-47,96,920,-552,1472,-184
,329,2023-10-20 13:26:31.84,-33,-141,-2078,57,-45,111,942,-568,1510,-187
,330,2023-10-20 13:26:31.85,-27,-139,-2070,40,-39,122,930,-496,1426,-217
,331,2023-10-20 13:26:31.86,-34,-166,-2053,27,-40,125,934,-464,1398,-235
,332,2023-10-20 13:26:31.87,-45,-132,-2055,30,-41,124,911,-365,1276,-273
,333,2023-10-20 13:26:31.88,-35,-122,-2049,37,-43,117,892,-325,1217,-283
,334,2023-10-20 13:26:31.89,-23,-127,-2032,30,-35,101,832,-226,1058,-303
,335,2023-10-20 13:26:31.90,-27,-106,-2009,24,-18,89,830,-201,1031,-314
,336,2023-10-20 13:26:31.91,-20,-99,-2013,22,-8,73,809,-217,1026,-296
,337,2023-10-20 13:26:31.92,-23,-121,-2009,25,-4,61,833,-329,1162,-252
,338,2023-10-20 13:26:31.93,-14,-126,-2012,28,3,53,854,-352,1206,-251
,339,2023-10-20 13:26:31.94,-5,-136,-2019,36,5,45,852,-387,1239,-232
,340,2023-10-20 13:26:31.95,-22,-137,-2042,40,6,45,852,-433,1285,-209
,341,2023-10-20 13:26:31.96,-32,-176,-2054,29,10,43,862,-523,1385,-169
,342,2023-10-20 13:26:31.97,-17,-171,-2037,34,8,48,939,-496,1435,-221
,343,2023-10-20 13:26:31.98,6,-175,-2031,40,7,50,890,-472,1362,-209
,344,2023-10-20 13:26:31.99,12,-157,-2031,42,14,53,870,-442,1312,-214
,345,2023-10-20 13:26:32.00,2,-157,-2037,39,24,52,820,-484,1304,-168
,346,2023-10-20 13:26:32.01,2,-159,-2059,44,20,52,878,-465,1343,-206
,347,2023-10-20 13:26:32.02,-2,-167,-2076,45,22,54,829,-481,1310,-174
,348,2023-10-20 13:26:32.03,-15,-168,-2082,47,13,59,848,-441,1289,-203
,349,2023-10-20 13:26:32.04,-16,-167,-2079,45,-1,64,819,-464,1283,-177
,350,2023-10-20 13:26:32.05,-18,-176,-2101,44,-19,65,928,-472,1400,-228
,351,2023-10-20 13:26:32.06,-14,-187,-2062,44,-37,72,874,-527,1401,-173
,352,2023-10-20 13:26:32.07,-23,-152,-2072,33,-27,75,968,-467,1435,-250
,353,2023-10-20 13:26:32.08,-29,-189,-2059,38,-41,77,869,-451,1320,-209
,354,2023-10-20 13:26:32.09,-17,-147,-2036,39,-37,80,950,-463,1413,-243
,355,2023-10-20 13:26:32.10,-44,-159,-2045,34,-38,70,858,-539,1397,-159
,356,2023-10-20 13:26:32.11,-20,-146,-2024,33,-33,60,969,-575,1544,-197
,357,2023-10-20 13:26:32.12,-43,-144,-2033,37,-21,49,867,-603,1470,-132
,358,2023-10-20 13:26:32.13,-58,-169,-2037,35,-16,41,992,-544,1536,-224
,359,2023-10-20 13:26:32.14,-56,-179,-2048,39,-14,42,841,-523,1364,-159
,360,2023-10-20 13:26:32.15,-69,-195,-2042,43,-17,44,913,-455,1368,-229
,361,2023-10-20 13:26:32.16,-58,-188,-2040,51,-22,47,791,-458,1249,-166
,362,2023-10-20 13:26:32.17,-44,-181,-2020,58,-27,45,922,-475,1397,-223
,363,2023-10-20 13:26:32.18,-36,-172,-2017,47,-7,47,824,-536,1360,-144
,364,2023-10-20 13:26:32.19,-42,-150,-2025,38,1,40,971,-608,1579,-181
,365,2023-10-20 13:26:32.20,-35,-170,-2035,37,3,35,848,-657,1505,-95
,366,2023-10-20 13:26:32.21,-39,-176,-2048,36,8,29,1001,-746,1747,-127
,367,2023-10-20 13:26:32.22,-30,-167,-2048,40,3,23,835,-770,1605,-32
,368,2023-10-20 13:26:32.23,-33,-178,-2054,39,-2,23,962,-826,1788,-68
,369,2023-10-20 13:26:32.24,-48,-174,-2069,35,-2,22,848,-811,1659,-18
,370,2023-10-20 13:26:32.25,-43,-190,-2075,35,-5,23,1068,-826,1894,-121
,371,2023-10-20 13:26:32.26,-30,-190,-2055,46,-20,28,884,-789,1673,-47
,372,2023-10-20 13:26:32.27,-37,-196,-2045,48,-21,31,1030,-766,1796,-132
,373,2023-10-20 13:26:32.28,-51,-189,-2045,48,-25,35,818,-723,1541,-47
,374,2023-10-20 13:26:32.29,-50,-183,-2037,48,-29,37,960,-780,1740,-90
,375,2023-10-20 13:26:32.30,-49,-187,-2033,41,-30,37,800,-784,1584,-8
,376,2023-10-20 13:26:32.31,-58,-189,-2028,33,-22,40,991,-788,1779,-101
,377,2023-10-20 13:26:32.32,-59,-183,-2039,26,-13,39,820,-740,1560,-40
,378,2023-10-20 13:26:32.33,-62,-190,-2040,17,-7,39,1003,-791,1794,-106
,379,2023-10-20 13:26:32.34,-82,-192,-2056,10,0,40,812,-784,1596,-14
,380,2023-10-20 13:26:32.35,-57,-194,-2052,10,-3,41,1002,-818,1820,-92
,381,2023-10-20 13:26:32.36,-69,-194,-2053,16,1,42,806,-776,1582,-15
,382,2023-10-20 13:26:32.37,-74,-193,-2051,21,-1,43,1002,-704,1706,-149
,383,2023-10-20 13:26:32.38,-67,-189,-2049,23,-4,45,776,-640,1416,-68
,384,2023-10-20 13:26:32.39,-78,-183,-2044,25,0,47,960,-549,1509,-205
,385,2023-10-20 13:26:32.40,-73,-180,-2051,30,-3,45,746,-526,1272,-110
,386,2023-10-20 13:26:32.41,-71,-179,-2041,34,1,40,934,-458,1392,-238
,387,2023-10-20 13:26:32.42,-67,-176,-2031,34,5,32,715,-463,1178,-126
,388,2023-10-20 13:26:32.43,-67,-175,-2036,29,9,24,905,-485,1390,-210
,389,2023-10-20 13:26:32.44,-60,-173,-2048,24,11,17,724,-534,1258,-95
,390,2023-10-20 13:26:32.45,-68,-177,-2052,22,15,9,947,-510,1457,-218
,391,2023-10-20 13:26:32.46,-62,-172,-2041,23,13,0,724,-511,1235,-106
,392,2023-10-20 13:26:32.47,-58,-175,-2047,21,15,-10,916,-540,1456,-188
,393,2023-10-20 13:26:32.48,-53,-179,-2041,19,18,-18,700,-576,1276,-62
,394,2023-10-20 13:26:32.49,-62,-188,-2039,21,17,-28,912,-604,1516,-154
,395,2023-10-20 13:26:32.50,-61,-196,-2050,27,14,-30,710,-605,1315,-52
,396,2023-10-20 13:26:32.51,-59,-208,-2047,31,11,-30,940,-681,1621,-129
,397,2023-10-20 13:26:32.52,-64,-214,-2048,31,4,-20,783,-692,1475,-45
,398,2023-10-20 13:26:32.53,-60,-213,-2030,30,1,-9,1042,-719,1761,-161
,399,2023-10-20 13:26:32.54,-49,-206,-2023,29,8,-6,822,-674,1496,-74
,400,2023-10-20 13:26:32.55,-54,-192,-2043,22,13,-5,1038,-593,1631,-222
,401,2023-10-20 13:26:32.56,-52,-193,-2053,23,16,-6,759,-538,1297,-110
,402,2023-10-20 13:26:32.57,-37,-182,-2039,17,22,-11,959,-504,1463,-227
,403,2023-10-20 13:26:32.58,-49,-186,-2047,8,27,-20,743,-524,1267,-109
,404,2023-10-20 13:26:32.59,-44,-195,-2047,7,30,-24,992,-684,1676,-154
,405,2023-10-20 13:26:32.60,-33,-206,-2055,8,32,-24,817,-725,1542,-46
,406,2023-10-20 13:26:32.61,-51,-213,-2059,12,26,-24,1075,-696,1771,-189
,407,2023-10-20 13:26:32.62,-41,-212,-2058,16,21,-22,775,-611,1386,-82
,408,2023-10-20 13:26:32.63,-52,-213,-2065,22,8,-11,962,-454,1416,-254
,409,2023-10-20 13:26:32.64,-54,-205,-2060,28,-9,-7,714,-388,1102,-163
,410,2023-10-20 13:26:32.65,-53,-189,-2041,22,-13,-3,952,-219,1171,-366
,411,2023-10-20 13:26:32.66,-50,-197,-2035,15,-8,4,686,-236,922,-225
,412,2023-10-20 13:26:32.67,-57,-211,-2043,11,-5,9,896,-249,1145,-323
,413,2023-10-20 13:26:32.68,-60,-206,-2037,13,-6,11,643,-369,1012,-137
,414,2023-10-20 13:26:32.69,-69,-200,-2025,11,0,20,885,-525,1410,-180
,415,2023-10-20 13:26:32.70,-68,-214,-2029,3,7,18,715,-607,1322,-54
,416,2023-10-20 13:26:32.71,-57,-199,-2038,7,12,18,988,-726,1714,-131
,417,2023-10-20 13:26:32.72,-60,-180,-2037,5,17,15,781,-714,1495,-33
,418,2023-10-20 13:26:32.73,-72,-177,-2040,5,30,6,1011,-715,1726,-148
,419,2023-10-20 13:26:32.74,-61,-183,-2032,4,38,-7,782,-645,1427,-68
,420,2023-10-20 13:26:32.75,-60,-189,-2038,5,42,-16,1006,-596,1602,-205
,421,2023-10-20 13:26:32.76,-63,-207,-2047,4,46,-18,718,-559,1277,-79
,422,2023-10-20 13:26:32.77,-40,-198,-2038,-2,55,-19,926,-624,1550,-151
,423,2023-10-20 13:26:32.78,-41,-209,-2045,-5,53,-14,703,-654,1357,-24
,424,2023-10-20 13:26:32.79,-39,-210,-2036,-3,48,-3,948,-785,1733,-81
,425,2023-10-20 13:26:32.80,-23,-199,-2039,-11,54,7,747,-764,1511,8
,426,2023-10-20 13:26:32.81,-32,-191,-2047,-13,47,15,994,-788,1782,-103
,427,2023-10-20 13:26:32.82,-13,-196,-2044,-12,47,22,772,-716,1488,-28
,428,2023-10-20 13:26:32.83,-14,-186,-2040,-12,51,26,1011,-700,1711,-155
,429,2023-10-20 13:26:32.84,-12,-184,-2035,-16,53,33,775,-646,1421,-64
,430,2023-10-20 13:26:32.85,-10,-186,-2055,-16,49,33,1000,-668,1668,-166
,431,2023-10-20 13:26:32.86,-26,-185,-2062,-10,44,34,761,-653,1414,-54
,432,2023-10-20 13:26:32.87,-13,-191,-2080,2,28,40,980,-735,1715,-122
,433,2023-10-20 13:26:32.88,-17,-179,-2081,11,20,40,768,-718,1486,-25
,434,2023-10-20 13:26:32.89,-17,-178,-2065,10,7,45,1000,-770,1770,-115
,435,2023-10-20 13:26:32.90,-9,-175,-2051,9,6,44,826,-733,1559,-46
,436,2023-10-20 13:26:32.91,-31,-178,-2042,11,5,43,1048,-790,1838,-129
,437,2023-10-20 13:26:32.92,-20,-177,-2042,14,8,41,858,-732,1590,-63
,438,2023-10-20 13:26:32.93,-38,-188,-2044,12,10,35,1055,-733,1788,-161
,439,2023-10-20 13:26:32.94,-30,-192,-2047,12,20,33,847,-680,1527,-83
,440,2023-10-20 13:26:32.95,-41,-179,-2040,12,20,32,1040,-735,1775,-152
,441,2023-10-20 13:26:32.96,-46,-175,-2049,7,27,33,867,-713,1580,-77
,442,2023-10-20 13:26:32.97,-40,-176,-2031,-2,34,31,1060,-762,1822,-149
,443,2023-10-20 13:26:32.98,-28,-176,-2035,-8,44,35,862,-693,1555,-84
,444,2023-10-20 13:26:32.99,-30,-180,-2056,-14,57,41,1040,-663,1703,-188
,445,2023-10-20 13:26:33.00,-10,-185,-2034,-11,51,34,846,-624,1470,-111
,446,2023-10-20 13:26:33.01,-30,-174,-2027,16,55,25,1025,-685,1710,-170
,447,2023-10-20 13:26:33.02,-23,-136,-2041,24,54,0,860,-649,1509,-105
,448,2023-10-20 13:26:33.03,-9,-162,-2065,-6,35,-15,1031,-634,1665,-198
,449,2023-10-20 13:26:33.04,-9,-187,-2075,-26,17,1,822,-599,1421,-111
,450,2023-10-20 13:26:33.05,-11,-207,-2067,-23,9,16,982,-651,1633,-165
,451,2023-10-20 13:26:33.06,-10,-210,-2057,-20,9,22,822,-660,1482,-81
,452,2023-10-20 13:26:33.07,-16,-196,-2045,-7,8,25,998,-731,1729,-133
,453,2023-10-20 13:26:33.08,-10,-191,-2049,5,8,31,860,-721,1581,-69
,454,2023-10-20 13:26:33.09,-17,-198,-2055,6,13,43,1022,-772,1794,-125
,455,2023-10-20 13:26:33.10,-21,-196,-2049,9,15,49,890,-712,1602,-89
,456,2023-10-20 13:26:33.11,-30,-183,-2050,15,8,51,1026,-698,1724,-164
,457,2023-10-20 13:26:33.12,-19,-169,-2050,19,5,50,868,-648,1516,-110
,458,2023-10-20 13:26:33.13,-4,-169,-2036,14,10,50,994,-670,1664,-162
,459,2023-10-20 13:26:33.14,-13,-176,-2048,8,18,45,823,-651,1474,-86
,460,2023-10-20 13:26:33.15,-17,-177,-2052,2,24,46,961,-688,1649,-136
,461,2023-10-20 13:26:33.16,-25,-191,-2045,1,26,44,859,-677,1536,-91
,462,2023-10-20 13:26:33.17,-17,-188,-2048,3,27,47,1000,-722,1722,-139
,463,2023-10-20 13:26:33.18,-26,-187,-2054,4,29,47,897,-720,1617,-88
,464,2023-10-20 13:26:33.19,-24,-183,-2056,8,25,46,994,-761,1755,-116
,465,2023-10-20 13:26:33.20,-23,-168,-2048,8,22,43,855,-730,1585,-62
,466,2023-10-20 13:26:33.21,-16,-175,-2050,9,18,39,953,-738,1691,-107
,467,2023-10-20 13:26:33.22,-19,-168,-2039,7,19,34,817,-725,1542,-46
,468,2023-10-20 13:26:33.23,-18,-170,-2042,6,24,26,908,-786,1694,-61
,469,2023-10-20 13:26:33.24,-17,-170,-2053,3,30,24,803,-749,1552,-27
,470,2023-10-20 13:26:33.25,-25,-181,-2058,10,28,19,908,-746,1654,-81
,471,2023-10-20 13:26:33.26,-16,-170,-2034,21,26,16,827,-699,1526,-64
,472,2023-10-20 13:26:33.27,-23,-172,-2029,19,36,5,931,-698,1629,-116
,473,2023-10-20 13:26:33.28,-25,-170,-2045,16,38,-2,848,-665,1513,-91
,474,2023-10-20 13:26:33.29,-17,-171,-2032,12,34,-1,923,-673,1596,-125
,475,2023-10-20 13:26:33.30,-41,-192,-2052,7,43,-6,880,-658,1538,-111
,476,2023-10-20 13:26:33.31,-30,-184,-2065,11,17,-4,960,-686,1646,-137
,477,2023-10-20 13:26:33.32,-11,-193,-2052,13,12,1,950,-660,1610,-145
,478,2023-10-20 13:26:33.33,1,-186,-2053,2,20,4,980,-657,1637,-161
,479,2023-10-20 13:26:33.34,13,-187,-2044,-3,28,1,911,-639,1550,-136
,480,2023-10-20 13:26:33.35,11,-187,-2055,4,35,0,942,-671,1613,-135
,481,2023-10-20 13:26:33.36,9,-172,-2060,8,32,-5,954,-665,1619,-144
,482,2023-10-20 13:26:33.37,-10,-184,-2059,6,30,-4,971,-684,1655,-143
,483,2023-10-20 13:26:33.38,1,-190,-2056,1,37,2,937,-668,1605,-134
,484,2023-10-20 13:26:33.39,6,-199,-2060,2,28,9,940,-679,1619,-130
,485,2023-10-20 13:26:33.40,5,-184,-2042,1,16,14,937,-684,1621,-126
,486,2023-10-20 13:26:33.41,14,-178,-2034,1,15,22,945,-721,1666,-112
,487,2023-10-20 13:26:33.42,-1,-181,-2030,-10,19,26,965,-793,1758,-86
,488,2023-10-20 13:26:33.43,5,-181,-2040,-18,21,37,952,-856,1808,-48
,489,2023-10-20 13:26:33.44,-7,-168,-2051,-14,15,37,979,-842,1821,-68
,490,2023-10-20 13:26:33.45,-2,-160,-2048,-13,15,29,936,-806,1742,-65
,491,2023-10-20 13:26:33.46,-3,-157,-2047,-16,15,24,928,-714,1642,-107
,492,2023-10-20 13:26:33.47,11,-160,-2048,-18,11,19,886,-666,1552,-110
,493,2023-10-20 13:26:33.48,2,-167,-2041,-17,16,22,889,-562,1451,-163
,494,2023-10-20 13:26:33.49,-8,-161,-2048,-13,20,22,864,-512,1376,-176
,495,2023-10-20 13:26:33.50,11,-161,-2051,-5,17,21,883,-448,1331,-217
,496,2023-10-20 13:26:33.51,3,-154,-2060,4,15,16,856,-451,1307,-202
,497,2023-10-20 13:26:33.52,-4,-158,-2067,11,8,12,907,-385,1292,-261
,498,2023-10-20 13:26:33.53,-4,-155,-2072,15,7,5,847,-378,1225,-234
,499,2023-10-20 13:26:33.54,-5,-147,-2064,16,6,2,853,-423,1276,-215
,500,2023-10-20 13:26:33.55,3,-150,-2053,13,4,-5,800,-524,1324,-138
,501,2023-10-20 13:26:33.56,-7,-162,-2064,8,4,-5,884,-559,1443,-162
,502,2023-10-20 13:26:33.57,-17,-179,-2066,8,-3,-1,842,-588,1430,-127
,503,2023-10-20 13:26:33.58,-2,-167,-2053,4,7,2,916,-542,1458,-187
,504,2023-10-20 13:26:33.59,2,-170,-2045,0,7,2,838,-536,1374,-151
,505,2023-10-20 13:26:33.60,-3,-166,-2039,-1,12,1,917,-486,1403,-215
,506,2023-10-20 13:26:33.61,9,-160,-2034,0,18,-7,836,-491,1327,-172
,507,2023-10-20 13:26:33.62,20,-163,-2027,-3,32,-15,914,-442,1356,-236
,508,2023-10-20 13:26:33.63,16,-173,-2029,0,48,-17,815,-455,1270,-180
,509,2023-10-20 13:26:33.64,7,-174,-2043,-5,52,-15,871,-484,1355,-193
,510,2023-10-20 13:26:33.65,16,-184,-2059,-7,52,-13,817,-547,1364,-135
,511,2023-10-20 13:26:33.66,6,-183,-2059,-7,41,-2,956,-606,1562,-175
,512,2023-10-20 13:26:33.67,24,-167,-2047,-4,24,1,849,-651,1500,-99
,513,2023-10-20 13:26:33.68,30,-152,-2044,-2,24,-2,980,-627,1607,-176
,514,2023-10-20 13:26:33.69,21,-157,-2042,-2,25,-11,844,-617,1461,-113
,515,2023-10-20 13:26:33.70,39,-169,-2044,-5,22,-14,946,-584,1530,-181
,516,2023-10-20 13:26:33.71,24,-188,-2056,7,12,-10,815,-589,1404,-113
,517,2023-10-20 13:26:33.72,26,-197,-2065,25,-1,-4,934,-704,1638,-115
,518,2023-10-20 13:26:33.73,26,-188,-2059,31,-14,5,832,-772,1604,-30
,519,2023-10-20 13:26:33.74,30,-188,-2060,28,-12,12,1008,-784,1792,-112
,520,2023-10-20 13:26:33.75,17,-185,-2062,25,-13,21,866,-742,1608,-62
,521,2023-10-20 13:26:33.76,18,-180,-2070,27,-25,27,1009,-730,1739,-139
,522,2023-10-20 13:26:33.77,0,-172,-2066,32,-33,25,853,-714,1567,-69
,523,2023-10-20 13:26:33.78,-2,-168,-2066,29,-35,24,1010,-764,1774,-123
,524,2023-10-20 13:26:33.79,-12,-167,-2063,25,-45,24,866,-770,1636,-48
,525,2023-10-20 13:26:33.80,-22,-172,-2059,22,-52,24,1060,-786,1846,-137
,526,2023-10-20 13:26:33.81,-30,-182,-2050,14,-50,21,893,-751,1644,-71
,527,2023-10-20 13:26:33.82,-36,-180,-2043,12,-50,15,1068,-776,1844,-146
,528,2023-10-20 13:26:33.83,-35,-169,-2021,5,-46,11,870,-761,1631,-54
,529,2023-10-20 13:26:33.84,-26,-177,-2014,-3,-26,11,1036,-732,1768,-152
,530,2023-10-20 13:26:33.85,-23,-177,-2012,-11,-8,8,828,-684,1512,-72
,531,2023-10-20 13:26:33.86,-22,-175,-2014,-11,11,3,989,-551,1540,-219
,532,2023-10-20 13:26:33.87,-18,-173,-2013,-5,23,-3,786,-491,1277,-147
,533,2023-10-20 13:26:33.88,-12,-179,-2029,-5,32,-5,952,-521,1473,-215
,534,2023-10-20 13:26:33.89,-9,-165,-2039,-9,41,-7,796,-591,1387,-102
,535,2023-10-20 13:26:33.90,-9,-162,-2054,-9,40,-12,1001,-617,1618,-192
,536,2023-10-20 13:26:33.91,-11,-166,-2060,-9,37,-15,798,-614,1412,-92
,537,2023-10-20 13:26:33.92,8,-173,-2057,-13,34,-13,981,-591,1572,-195
,538,2023-10-20 13:26:33.93,12,-170,-2060,-18,29,-10,779,-582,1361,-98
,539,2023-10-20 13:26:33.94,12,-170,-2066,-20,16,-4,982,-592,1574,-195
,540,2023-10-20 13:26:33.95,26,-162,-2062,-24,11,-2,799,-603,1402,-98
,541,2023-10-20 13:26:33.96,35,-159,-2047,-28,16,-2,1001,-538,1539,-231
,542,2023-10-20 13:26:33.97,43,-154,-2038,-25,22,-4,787,-520,1307,-133
,543,2023-10-20 13:26:33.98,52,-160,-2042,-18,27,-4,988,-593,1581,-197
,544,2023-10-20 13:26:33.99,46,-158,-2047,-13,36,-6,826,-639,1465,-93
,545,2023-10-20 13:26:34.00,33,-185,-2073,-10,30,-2,1078,-649,1727,-214
,546,2023-10-20 13:26:34.01,24,-192,-2076,5,19,12,846,-626,1472,-110
,547,2023-10-20 13:26:34.02,10,-187,-2080,30,-16,28,1041,-607,1648,-217
,548,2023-10-20 13:26:34.03,15,-167,-2088,36,-47,40,759,-589,1348,-85
,549,2023-10-20 13:26:34.04,24,-165,-2067,29,-47,44,942,-565,1507,-188
,550,2023-10-20 13:26:34.05,8,-148,-2044,33,-52,43,753,-549,1302,-102
,551,2023-10-20 13:26:34.06,11,-143,-2057,27,-55,40,1004,-455,1459,-274
,552,2023-10-20 13:26:34.07,7,-147,-2052,14,-47,34,778,-433,1211,-172
,553,2023-10-20 13:26:34.08,-3,-157,-2052,13,-43,24,992,-331,1323,-330
,554,2023-10-20 13:26:34.09,-4,-154,-2056,17,-46,17,723,-350,1073,-186
,555,2023-10-20 13:26:34.10,-24,-162,-2051,19,-51,14,922,-357,1279,-282
,556,2023-10-20 13:26:34.11,-25,-171,-2047,19,-52,14,700,-436,1136,-132
,557,2023-10-20 13:26:34.12,-18,-154,-2050,17,-53,12,940,-523,1463,-208
,558,2023-10-20 13:26:34.13,-36,-146,-2040,11,-51,9,709,-571,1280,-69
,559,2023-10-20 13:26:34.14,-27,-138,-2046,-3,-41,2,928,-574,1502,-177
,560,2023-10-20 13:26:34.15,-32,-144,-2036,-16,-33,-4,685,-566,1251,-59
,561,2023-10-20 13:26:34.16,-28,-150,-2031,-24,-28,-11,908,-640,1548,-134
,562,2023-10-20 13:26:34.17,-31,-158,-2046,-28,-22,-15,669,-648,1317,-10
,563,2023-10-20 13:26:34.18,-34,-166,-2043,-23,-17,-12,904,-612,1516,-146
,564,2023-10-20 13:26:34.19,-48,-169,-2048,-18,-14,-12,718,-548,1266,-85
,565,2023-10-20 13:26:34.20,-30,-154,-2037,-9,-13,-13,975,-410,1385,-282
,566,2023-10-20 13:26:34.21,-21,-155,-2042,0,-6,-16,712,-378,1090,-167
,567,2023-10-20 13:26:34.22,-10,-158,-2045,8,-1,-16,922,-365,1287,-278
,568,2023-10-20 13:26:34.23,-33,-150,-2052,16,-2,-18,675,-416,1091,-129
,569,2023-10-20 13:26:34.24,-21,-146,-2052,23,-5,-28,914,-399,1313,-257
,570,2023-10-20 13:26:34.25,-19,-157,-2058,20,1,-35,669,-419,1088,-125
,571,2023-10-20 13:26:34.26,-21,-164,-2048,15,7,-35,900,-377,1277,-261
,572,2023-10-20 13:26:34.27,-22,-173,-2056,9,11,-28,662,-390,1052,-136
,573,2023-10-20 13:26:34.28,-24,-186,-2060,0,15,-12,902,-333,1235,-284
,574,2023-10-20 13:26:34.29,-13,-186,-2067,9,6,4,660,-358,1018,-151
,575,2023-10-20 13:26:34.30,-10,-170,-2061,20,-3,12,898,-364,1262,-267
,576,2023-10-20 13:26:34.31,-8,-163,-2051,26,-8,17,672,-417,1089,-127
,577,2023-10-20 13:26:34.32,-14,-166,-2041,28,-5,20,915,-452,1367,-231
,578,2023-10-20 13:26:34.33,-12,-165,-2051,31,-9,15,658,-466,1124,-96
,579,2023-10-20 13:26:34.34,-12,-155,-2050,38,-7,13,894,-410,1304,-242
,580,2023-10-20 13:26:34.35,-19,-156,-2047,38,-8,9,672,-405,1077,-133
,581,2023-10-20 13:26:34.36,-23,-165,-2055,41,-11,3,930,-416,1346,-257
,582,2023-10-20 13:26:34.37,-50,-159,-2044,38,-15,-2,724,-465,1189,-129
,583,2023-10-20 13:26:34.38,-35,-177,-2042,35,-21,-6,970,-541,1511,-214
,584,2023-10-20 13:26:34.39,-41,-179,-2039,28,-18,-8,724,-528,1252,-98
,585,2023-10-20 13:26:34.40,-47,-171,-2037,23,-13,-9,944,-408,1352,-268
,586,2023-10-20 13:26:34.41,-31,-168,-2039,22,-12,-11,677,-333,1010,-172
,587,2023-10-20 13:26:34.42,-25,-170,-2030,16,-5,-14,898,-190,1088,-354
,588,2023-10-20 13:26:34.43,-27,-168,-2031,14,4,-20,666,-209,875,-228
,589,2023-10-20 13:26:34.44,-12,-164,-2037,9,15,-29,896,-193,1089,-351
,590,2023-10-20 13:26:34.45,-25,-166,-2041,7,28,-39,658,-247,905,-205
,591,2023-10-20 13:26:34.46,-25,-155,-2047,8,37,-49,865,-160,1025,-352
,592,2023-10-20 13:26:34.47,-19,-154,-2044,13,33,-62,625,-221,846,-202
,593,2023-10-20 13:26:34.48,-1,-125,-2050,10,31,-78,857,-306,1163,-275
,594,2023-10-20 13:26:34.49,-3,-142,-2064,-2,38,-101,666,-378,1044,-144
,595,2023-10-20 13:26:34.50,-4,-122,-2062,-2,37,-122,895,-356,1251,-269
,596,2023-10-20 13:26:34.51,13,-123,-2058,3,27,-148,694,-351,1045,-171
,597,2023-10-20 13:26:34.52,8,-143,-2042,2,18,-166,919,-334,1253,-292
,598,2023-10-20 13:26:34.53,-5,-152,-2062,8,9,-174,749,-411,1160,-169
,599,2023-10-20 13:26:34.54,-11,-174,-2073,13,2,-184,977,-582,1559,-197
,600,2023-10-20 13:26:34.55,-24,-203,-2080,21,-10,-186,869,-631,1500,-119
,601,2023-10-20 13:26:34.56,-39,-209,-2071,22,-24,-174,1058,-645,1703,-206
,602,2023-10-20 13:26:34.57,-39,-203,-2068,17,-29,-162,856,-575,1431,-140
,603,2023-10-20 13:26:34.58,-55,-196,-2055,13,-41,-148,1009,-536,1545,-236
,604,2023-10-20 13:26:34.59,-37,-173,-2032,5,-28,-142,818,-512,1330,-153
,605,2023-10-20 13:26:34.60,-47,-164,-2031,-4,-27,-143,996,-562,1558,-217
,606,2023-10-20 13:26:34.61,-42,-142,-2037,-17,-10,-153,868,-538,1406,-165
,607,2023-10-20 13:26:34.62,-49,-143,-2052,-12,-5,-172,1030,-509,1539,-260
,608,2023-10-20 13:26:34.63,-60,-134,-2053,-6,-6,-192,830,-423,1253,-203
,609,2023-10-20 13:26:34.64,-65,-131,-2054,-1,-11,-212,959,-313,1272,-323
,610,2023-10-20 13:26:34.65,-55,-156,-2031,-9,-5,-228,747,-264,1011,-241
,611,2023-10-20 13:26:34.66,-58,-181,-2049,-14,-6,-234,903,-218,1121,-342
,612,2023-10-20 13:26:34.67,-44,-172,-2013,-18,8,-233,745,-297,1042,-224
,613,2023-10-20 13:26:34.68,-39,-177,-2018,-11,9,-233,909,-425,1334,-242
,614,2023-10-20 13:26:34.69,-27,-166,-2000,-12,25,-235,757,-449,1206,-154
,615,2023-10-20 13:26:34.70,-19,-171,-2023,-17,45,-240,903,-398,1301,-252
,616,2023-10-20 13:26:34.71,-5,-155,-2044,-15,40,-244,761,-408,1169,-176
,617,2023-10-20 13:26:34.72,-15,-155,-2055,-15,50,-259,916,-507,1423,-204
,618,2023-10-20 13:26:34.73,-5,-169,-2073,-1,21,-276,828,-600,1428,-114
,619,2023-10-20 13:26:34.74,-3,-180,-2052,0,21,-272,955,-709,1664,-123
,620,2023-10-20 13:26:34.75,-5,-187,-2060,-1,17,-259,830,-755,1585,-37
,621,2023-10-20 13:26:34.76,16,-198,-2050,-1,10,-240,925,-834,1759,-45
,622,2023-10-20 13:26:34.77,15,-185,-2036,5,12,-220,796,-824,1620,14
,623,2023-10-20 13:26:34.78,12,-159,-2029,2,18,-211,905,-844,1749,-30
,624,2023-10-20 13:26:34.79,20,-142,-2064,-10,30,-206,869,-734,1603,-67
,625,2023-10-20 13:26:34.80,13,-144,-2087,-7,27,-205,966,-649,1615,-158
,626,2023-10-20 13:26:34.81,17,-140,-2077,0,24,-214,846,-543,1389,-151
,627,2023-10-20 13:26:34.82,26,-121,-2090,7,22,-229,903,-507,1410,-198
,628,2023-10-20 13:26:34.83,2,-138,-2103,10,22,-244,804,-587,1391,-108
,629,2023-10-20 13:26:34.84,-13,-158,-2094,17,11,-247,884,-735,1619,-74
,630,2023-10-20 13:26:34.85,6,-163,-2064,27,-12,-248,821,-746,1567,-37
,631,2023-10-20 13:26:34.86,1,-170,-2030,24,-6,-249,882,-726,1608,-78
,632,2023-10-20 13:26:34.87,26,-151,-2010,26,7,-257,780,-656,1436,-62
,633,2023-10-20 13:26:34.88,26,-136,-2000,26,18,-268,857,-630,1487,-113
,634,2023-10-20 13:26:34.89,26,-138,-1999,27,43,-283,802,-582,1384,-110
,635,2023-10-20 13:26:34.90,22,-144,-2023,29,58,-296,866,-576,1442,-145
,636,2023-10-20 13:26:34.91,4,-153,-2034,35,58,-311,822,-523,1345,-149
,637,2023-10-20 13:26:34.92,-7,-165,-2084,49,34,-322,867,-506,1373,-180
,638,2023-10-20 13:26:34.93,-16,-198,-2097,57,12,-323,817,-587,1404,-115
,639,2023-10-20 13:26:34.94,-11,-197,-2090,72,-18,-317,874,-712,1586,-81
,640,2023-10-20 13:26:34.95,-13,-181,-2072,68,-33,-315,909,-682,1591,-113
,641,2023-10-20 13:26:34.96,18,-170,-2041,52,-42,-305,904,-613,1517,-145
,642,2023-10-20 13:26:34.97,21,-155,-2037,33,-25,-301,824,-512,1336,-156
,643,2023-10-20 13:26:34.98,5,-119,-2025,16,-9,-303,824,-494,1318,-165
,644,2023-10-20 13:26:34.99,5,-128,-2050,-9,-3,-313,809,-500,1309,-154
,645,2023-10-20 13:26:35.00,-20,-140,-2079,-22,0,-309,836,-553,1389,-141
,646,2023-10-20 13:26:35.01,-16,-148,-2097,-31,-13,-305,849,-685,1534,-82
,647,2023-10-20 13:26:35.02,-8,-151,-2092,-39,-19,-300,858,-798,1656,-30
,648,2023-10-20 13:26:35.03,2,-162,-2073,-34,-21,-298,910,-937,1847,13
,649,2023-10-20 13:26:35.04,-17,-162,-2053,-29,-26,-294,912,-1000,1912,44
,650,2023-10-20 13:26:35.05,8,-162,-2041,-18,-20,-298,1006,-1068,2074,31
,651,2023-10-20 13:26:35.06,13,-178,-2025,-6,-11,-294,939,-1066,2005,63
,652,2023-10-20 13:26:35.07,3,-172,-1996,11,-7,-291,957,-1101,2058,72
,653,2023-10-20 13:26:35.08,13,-163,-1992,27,12,-295,904,-1076,1980,86
,654,2023-10-20 13:26:35.09,37,-155,-1998,29,39,-306,1012,-1101,2113,44
,655,2023-10-20 13:26:35.10,22,-156,-2022,26,64,-312,922,-1065,1987,71
,656,2023-10-20 13:26:35.11,32,-151,-2030,16,86,-325,954,-1017,1971,31
,657,2023-10-20 13:26:35.12,39,-146,-2036,14,98,-339,842,-940,1782,49
,658,2023-10-20 13:26:35.13,53,-140,-2059,13,99,-341,879,-969,1848,45
,659,2023-10-20 13:26:35.14,63,-131,-2052,3,91,-339,839,-967,1806,64
,660,2023-10-20 13:26:35.15,87,-126,-2049,-15,98,-339,981,-1036,2017,27
,661,2023-10-20 13:26:35.16,89,-139,-2048,-32,111,-338,888,-1019,1907,65
,662,2023-10-20 13:26:35.17,85,-151,-2046,-39,115,-333,943,-1085,2028,71
,663,2023-10-20 13:26:35.18,92,-178,-2015,-38,118,-318,837,-1059,1896,111
,664,2023-10-20 13:26:35.19,80,-219,-2033,-9,107,-301,926,-1107,2033,90
,665,2023-10-20 13:26:35.20,57,-249,-2074,30,88,-283,859,-1057,1916,99
,666,2023-10-20 13:26:35.21,63,-263,-2068,77,64,-259,987,-1114,2101,63
,667,2023-10-20 13:26:35.22,38,-257,-2078,108,46,-234,888,-1066,1954,89
,668,2023-10-20 13:26:35.23,45,-251,-2069,127,25,-209,1016,-1123,2139,53
,669,2023-10-20 13:26:35.24,47,-243,-2032,131,20,-183,889,-1065,1954,88
,670,2023-10-20 13:26:35.25,42,-223,-1982,121,24,-167,1025,-1086,2111,30
,671,2023-10-20 13:26:35.26,64,-195,-1982,111,34,-159,872,-1012,1884,70
,672,2023-10-20 13:26:35.27,36,-207,-2000,121,37,-157,996,-1087,2083,45
,673,2023-10-20 13:26:35.28,34,-204,-2024,140,21,-163,863,-1049,1912,93
,674,2023-10-20 13:26:35.29,49,-192,-2058,142,11,-174,1021,-1121,2142,50
,675,2023-10-20 13:26:35.30,31,-208,-2080,129,4,-180,876,-1061,1937,92
,676,2023-10-20 13:26:35.31,27,-215,-2094,127,-14,-184,1042,-1137,2179,47
,677,2023-10-20 13:26:35.32,21,-212,-2088,117,-26,-185,839,-1072,1911,116
,678,2023-10-20 13:26:35.33,36,-192,-2083,88,-32,-187,960,-1153,2113,96
,679,2023-10-20 13:26:35.34,48,-186,-2103,43,-26,-190,797,-1078,1875,140
,680,2023-10-20 13:26:35.35,34,-179,-2108,10,-23,-188,956,-1144,2100,94
,681,2023-10-20 13:26:35.36,37,-169,-2109,-20,-22,-185,814,-1054,1868,120
,682,2023-10-20 13:26:35.37,41,-157,-2113,-55,-11,-192,1007,-1120,2127,56
,683,2023-10-20 13:26:35.38,42,-122,-2105,-96,-3,-197,832,-1039,1871,103
,684,2023-10-20 13:26:35.39,31,-144,-2081,-126,4,-198,1013,-1050,2063,18
,685,2023-10-20 13:26:35.40,18,-190,-2054,-117,-7,-187,799,-942,1741,71
,686,2023-10-20 13:26:35.41,-4,-232,-2024,-98,-21,-166,932,-1027,1959,47
,687,2023-10-20 13:26:35.42,-14,-278,-2012,-73,-37,-143,802,-986,1788,92
,688,2023-10-20 13:26:35.43,-7,-321,-2040,-36,-37,-112,1055,-1103,2158,24
,689,2023-10-20 13:26:35.44,-12,-304,-2020,5,-43,-83,885,-1040,1925,77
,690,2023-10-20 13:26:35.45,-4,-244,-2020,40,-38,-57,1094,-1133,2227,19
,691,2023-10-20 13:26:35.46,-6,-237,-1982,60,-35,-39,887,-1048,1935,80
,692,2023-10-20 13:26:35.47,-8,-216,-1980,74,-21,-22,1098,-1142,2240,22
,693,2023-10-20 13:26:35.48,-26,-181,-2011,85,-16,-14,872,-1053,1925,90
,694,2023-10-20 13:26:35.49,-28,-179,-1999,58,-6,-12,1076,-1134,2210,29
,695,2023-10-20 13:26:35.50,-19,-172,-1998,16,21,-24,840,-1039,1879,99
,696,2023-10-20 13:26:35.51,-20,-159,-2029,-13,40,-41,1053,-1131,2184,39
,697,2023-10-20 13:26:35.52,-10,-143,-2041,-21,37,-55,828,-1041,1869,106
,698,2023-10-20 13:26:35.53,-1,-175,-2046,-37,42,-63,1045,-1132,2177,43
,699,2023-10-20 13:26:35.54,27,-193,-2044,-67,50,-69,824,-1036,1860,106
,700,2023-10-20 13:26:35.55,39,-195,-2025,-76,64,-70,1045,-1114,2159,34
,701,2023-10-20 13:26:35.56,52,-206,-2035,-80,82,-61,839,-1023,1862,92
,702,2023-10-20 13:26:35.57,77,-208,-2026,-86,102,-53,1092,-1137,2229,22
,703,2023-10-20 13:26:35.58,85,-219,-2017,-82,129,-44,921,-1053,1974,66
,704,2023-10-20 13:26:35.59,92,-193,-2040,-69,146,-37,1188,-1151,2339,-18
,705,2023-10-20 13:26:35.60,120,-183,-2039,-72,175,-26,924,-1049,1973,62
,706,2023-10-20 13:26:35.61,134,-205,-2012,-81,207,-14,1152,-1132,2284,-10
,707,2023-10-20 13:26:35.62,135,-191,-2019,-73,235,-1,882,-1028,1910,73
,708,2023-10-20 13:26:35.63,147,-173,-2025,-66,256,13,1109,-1131,2240,11
,709,2023-10-20 13:26:35.64,135,-164,-2035,-62,268,26,836,-1035,1871,99
,710,2023-10-20 13:26:35.65,146,-178,-2040,-52,267,43,1056,-1133,2189,38
,711,2023-10-20 13:26:35.66,155,-169,-2038,-37,260,58,822,-1033,1855,105
,712,2023-10-20 13:26:35.67,143,-163,-2051,-22,257,67,1070,-1134,2204,32
,713,2023-10-20 13:26:35.68,148,-168,-2051,-11,242,72,828,-1033,1861,102
,714,2023-10-20 13:26:35.69,162,-153,-2036,-5,237,76,1054,-1134,2188,40
,715,2023-10-20 13:26:35.70,159,-149,-2040,-1,228,78,817,-1026,1843,104
,716,2023-10-20 13:26:35.71,168,-168,-2043,4,216,75,1058,-1121,2179,31
,717,2023-10-20 13:26:35.72,170,-168,-2055,14,211,73,857,-1025,1882,84
,718,2023-10-20 13:26:35.73,174,-151,-2059,20,202,69,1105,-1140,2245,17
,719,2023-10-20 13:26:35.74,173,-159,-2067,19,206,63,844,-1047,1891,101
,720,2023-10-20 13:26:35.75,176,-155,-2058,23,208,61,1067,-1155,2222,44
,721,2023-10-20 13:26:35.76,174,-143,-2082,18,190,66,833,-1056,1889,111
,722,2023-10-20 13:26:35.77,171,-165,-2086,4,193,68,1070,-1163,2233,46
,723,2023-10-20 13:26:35.78,172,-191,-2075,6,177,74,840,-1065,1905,112
,724,2023-10-20 13:26:35.79,174,-189,-2045,18,174,79,1082,-1171,2253,44
,725,2023-10-20 13:26:35.80,190,-186,-2050,26,168,79,920,-1070,1990,75
,726,2023-10-20 13:26:35.81,199,-168,-2044,37,155,84,1162,-1182,2344,10
,727,2023-10-20 13:26:35.82,206,-175,-2029,45,165,83,887,-1068,1955,90
,728,2023-10-20 13:26:35.83,211,-169,-2033,52,170,72,1083,-1148,2231,32
,729,2023-10-20 13:26:35.84,209,-167,-2039,59,168,64,861,-1034,1895,86
,730,2023-10-20 13:26:35.85,202,-200,-2050,64,164,64,1099,-1129,2228,15
,731,2023-10-20 13:26:35.86,203,-201,-2044,83,153,62,890,-1030,1920,70
,732,2023-10-20 13:26:35.87,166,-203,-2067,96,158,57,1108,-1126,2234,9
,733,2023-10-20 13:26:35.88,176,-207,-2061,104,145,54,891,-1033,1924,71
,734,2023-10-20 13:26:35.89,161,-189,-2037,116,129,57,1098,-1138,2236,20
,735,2023-10-20 13:26:35.90,161,-154,-2029,101,109,57,842,-1043,1885,100
,736,2023-10-20 13:26:35.91,173,-125,-2049,51,98,55,1040,-1136,2176,48
,737,2023-10-20 13:26:35.92,188,-158,-2044,9,94,62,779,-1041,1820,131
,738,2023-10-20 13:26:35.93,174,-162,-2051,-16,103,54,997,-1136,2133,69
,739,2023-10-20 13:26:35.94,198,-134,-2033,-31,106,34,827,-1045,1872,109
,740,2023-10-20 13:26:35.95,206,-143,-2062,-53,111,17,1058,-1135,2193,38
,741,2023-10-20 13:26:35.96,200,-173,-2068,-67,105,12,818,-1041,1859,111
,742,2023-10-20 13:26:35.97,193,-193,-2087,-70,111,13,1019,-1127,2146,54
,743,2023-10-20 13:26:35.98,212,-184,-2099,-76,102,12,848,-1039,1887,95
,744,2023-10-20 13:26:35.99,210,-195,-2100,-74,100,18,1050,-1131,2181,40
,745,2023-10-20 13:26:36.00,217,-172,-2070,-62,90,24,847,-1050,1897,101
,746,2023-10-20 13:26:36.01,210,-128,-2071,-65,77,24,1023,-1141,2164,59
,747,2023-10-20 13:26:36.02,228,-117,-2083,-88,64,22,867,-1050,1917,91
,748,2023-10-20 13:26:36.03,251,-123,-2094,-99,53,24,1063,-1125,2188,31
,749,2023-10-20 13:26:36.04,247,-119,-2060,-99,60,16,884,-1038,1922,77
,750,2023-10-20 13:26:36.05,261,-128,-2016,-96,60,4,1063,-1113,2176,25
,751,2023-10-20 13:26:36.06,266,-125,-2025,-96,57,7,871,-1038,1909,83
,752,2023-10-20 13:26:36.07,259,-133,-2044,-89,56,5,1035,-1115,2150,40
,753,2023-10-20 13:26:36.08,260,-137,-2045,-76,53,2,840,-1046,1886,103
,754,2023-10-20 13:26:36.09,250,-134,-2061,-57,51,9,1012,-1124,2136,56
,755,2023-10-20 13:26:36.10,253,-136,-2065,-48,40,18,858,-1048,1906,95
,756,2023-10-20 13:26:36.11,243,-123,-2087,-44,27,32,1030,-1112,2142,41
,757,2023-10-20 13:26:36.12,253,-136,-2081,-40,20,44,873,-1043,1916,85
,758,2023-10-20 13:26:36.13,240,-116,-2048,-32,22,42,1029,-1112,2141,41
,759,2023-10-20 13:26:36.14,269,-118,-2026,-24,25,35,897,-1047,1944,75
,760,2023-10-20 13:26:36.15,246,-114,-2045,-14,28,34,1041,-1109,2150,34
,761,2023-10-20 13:26:36.16,249,-142,-2062,-1,21,36,883,-1045,1928,81
,762,2023-10-20 13:26:36.17,260,-124,-2053,5,21,37,1027,-1103,2130,38
,763,2023-10-20 13:26:36.18,254,-127,-2028,8,34,33,959,-1050,2009,45
,764,2023-10-20 13:26:36.19,248,-142,-1994,5,46,32,1072,-1110,2182,19
,765,2023-10-20 13:26:36.20,243,-166,-2011,21,51,32,849,-1049,1898,100
,766,2023-10-20 13:26:36.21,241,-168,-2031,47,43,33,950,-1095,2045,72
,767,2023-10-20 13:26:36.22,249,-156,-2043,68,40,34,837,-1048,1885,105
,768,2023-10-20 13:26:36.23,250,-153,-2050,75,34,31,966,-1101,2067,67
,769,2023-10-20 13:26:36.24,241,-144,-2049,72,28,31,790,-1064,1854,137
,770,2023-10-20 13:26:36.25,241,-143,-2045,69,19,34,909,-1111,2020,101
,771,2023-10-20 13:26:36.26,231,-131,-2042,71,2,32,794,-1062,1856,134
,772,2023-10-20 13:26:36.27,232,-130,-2035,55,-8,25,932,-1092,2024,80
,773,2023-10-20 13:26:36.28,239,-127,-2032,40,-13,16,846,-1051,1897,102
,774,2023-10-20 13:26:36.29,237,-152,-2048,20,-12,10,962,-1091,2053,64
,775,2023-10-20 13:26:36.30,229,-138,-2042,4,-17,1,881,-1048,1929,83
,776,2023-10-20 13:26:36.31,231,-140,-2039,-11,-16,-5,973,-1077,2050,52
,777,2023-10-20 13:26:36.32,246,-155,-2046,-26,-12,-4,902,-1055,1957,76
,778,2023-10-20 13:26:36.33,226,-165,-2051,-29,-16,6,981,-1094,2075,56
,779,2023-10-20 13:26:36.34,239,-168,-2064,-24,-17,13,934,-1060,1994,63
,780,2023-10-20 13:26:36.35,237,-158,-2072,-20,-24,15,998,-1077,2075,39
,781,2023-10-20 13:26:36.36,248,-162,-2076,-13,-25,17,960,-1053,2013,46
,782,2023-10-20 13:26:36.37,254,-144,-2073,-12,-34,25,996,-1077,2073,40
,783,2023-10-20 13:26:36.38,251,-141,-2063,-15,-32,30,948,-1058,2006,55
,784,2023-10-20 13:26:36.39,242,-148,-2066,-16,-34,35,986,-1075,2061,44
,785,2023-10-20 13:26:36.40,241,-143,-2067,-14,-43,43,926,-1060,1986,67
,786,2023-10-20 13:26:36.41,237,-134,-2050,-19,-45,48,957,-1074,2031,58
,787,2023-10-20 13:26:36.42,237,-129,-2054,-26,-46,48,921,-1074,1995,76
,788,2023-10-20 13:26:36.43,224,-123,-2064,-27,-49,48,964,-1082,2046,59
,789,2023-10-20 13:26:36.44,220,-100,-2049,-26,-51,40,956,-1078,2034,61
,790,2023-10-20 13:26:36.45,249,-85,-2054,-23,-58,28,953,-1082,2035,64
,791,2023-10-20 13:26:36.46,264,-134,-1986,-9,-50,23,935,-1074,2009,69
,792,2023-10-20 13:26:36.47,213,-152,-1987,10,-23,33,940,-1074,2014,67
,793,2023-10-20 13:26:36.48,206,-149,-2035,4,-31,34,954,-1076,2030,61
,794,2023-10-20 13:26:36.49,213,-140,-2070,-4,-59,46,938,-1067,2005,64
,795,2023-10-20 13:26:36.50,222,-129,-2078,-5,-80,52,909,-1045,1954,68
,796,2023-10-20 13:26:36.51,224,-118,-2038,-16,-75,34,903,-1026,1929,61
,797,2023-10-20 13:26:36.52,233,-124,-2031,-30,-53,17,947,-1047,1994,50
,798,2023-10-20 13:26:36.53,220,-132,-2027,-31,-41,5,941,-1057,1998,58
,799,2023-10-20 13:26:36.54,209,-150,-2036,-19,-44,-4,972,-1064,2036,46
,800,2023-10-20 13:26:36.55,220,-154,-2061,-1,-59,3,926,-1042,1968,58
,801,2023-10-20 13:26:36.56,200,-159,-2066,3,-69,7,939,-1035,1974,48
,802,2023-10-20 13:26:36.57,210,-159,-2068,-6,-72,8,910,-1011,1921,50
,803,2023-10-20 13:26:36.58,211,-159,-2054,-5,-67,14,993,-1042,2035,24
,804,2023-10-20 13:26:36.59,207,-157,-2064,3,-72,20,926,-1041,1967,57
,805,2023-10-20 13:26:36.60,198,-143,-2070,8,-88,23,941,-1069,2010,64
,806,2023-10-20 13:26:36.61,213,-153,-2056,5,-92,26,884,-1046,1930,81
,807,2023-10-20 13:26:36.62,203,-152,-2057,4,-93,29,968,-1067,2035,49
,808,2023-10-20 13:26:36.63,204,-142,-2050,2,-92,36,916,-1045,1961,64
,809,2023-10-20 13:26:36.64,185,-142,-2041,-10,-95,39,1010,-1079,2089,34
,810,2023-10-20 13:26:36.65,187,-134,-2051,-12,-97,38,905,-1051,1956,73
,811,2023-10-20 13:26:36.66,193,-134,-2065,1,-101,34,949,-1089,2038,70
,812,2023-10-20 13:26:36.67,172,-140,-2038,1,-94,31,839,-1056,1895,108
,813,2023-10-20 13:26:36.68,173,-134,-2043,-5,-94,33,888,-1098,1986,105
,814,2023-10-20 13:26:36.69,174,-134,-2045,2,-99,33,824,-1060,1884,118
,815,2023-10-20 13:26:36.70,164,-135,-2042,4,-92,30,949,-1107,2056,79
,816,2023-10-20 13:26:36.71,153,-132,-2044,-2,-86,22,849,-1064,1913,107
,817,2023-10-20 13:26:36.72,173,-125,-2048,-6,-86,11,921,-1099,2020,89
,818,2023-10-20 13:26:36.73,175,-136,-2025,-1,-74,2,810,-1043,1853,116
,819,2023-10-20 13:26:36.74,183,-148,-2034,7,-57,5,907,-1090,1997,91
,820,2023-10-20 13:26:36.75,174,-144,-2032,7,-49,11,796,-1044,1840,124
,821,2023-10-20 13:26:36.76,161,-132,-2030,-2,-40,26,888,-1097,1985,104
,822,2023-10-20 13:26:36.77,177,-139,-2060,-3,-37,42,786,-1045,1831,129
,823,2023-10-20 13:26:36.78,174,-128,-2058,-3,-33,42,913,-1077,1990,82
,824,2023-10-20 13:26:36.79,161,-132,-2065,0,-36,41,785,-1011,1796,113
,825,2023-10-20 13:26:36.80,171,-130,-2068,6,-44,40,906,-1081,1987,87
,826,2023-10-20 13:26:36.81,178,-137,-2063,11,-47,42,785,-1046,1831,130
,827,2023-10-20 13:26:36.82,156,-148,-2050,23,-51,54,945,-1125,2070,90
,828,2023-10-20 13:26:36.83,175,-139,-2046,27,-56,63,801,-1069,1870,134
,829,2023-10-20 13:26:36.84,164,-142,-2044,29,-58,68,954,-1135,2089,90
,830,2023-10-20 13:26:36.85,158,-145,-2064,33,-63,68,778,-1063,1841,142
,831,2023-10-20 13:26:36.86,163,-129,-2052,35,-61,67,909,-1121,2030,106
,832,2023-10-20 13:26:36.87,158,-121,-2033,30,-58,60,775,-1050,1825,137
,833,2023-10-20 13:26:36.88,162,-108,-2022,6,-44,55,963,-1122,2085,79
,834,2023-10-20 13:26:36.89,139,-132,-2035,-11,-33,49,844,-1051,1895,103
,835,2023-10-20 13:26:36.90,158,-140,-2053,-5,-36,49,1074,-1107,2181,16
,836,2023-10-20 13:26:36.91,155,-130,-2046,8,-38,46,866,-1028,1894,81
,837,2023-10-20 13:26:36.92,161,-124,-2048,3,-32,44,1020,-1103,2123,41
,838,2023-10-20 13:26:36.93,163,-120,-2055,-11,-24,44,845,-1028,1873,91
,839,2023-10-20 13:26:36.94,164,-123,-2063,-12,-18,45,1055,-1108,2163,26
,840,2023-10-20 13:26:36.95,147,-130,-2066,-8,-23,48,835,-1028,1863,96
,841,2023-10-20 13:26:36.96,137,-129,-2057,-3,-27,43,1002,-1080,2082,39
,842,2023-10-20 13:26:36.97,144,-122,-2069,0,-38,47,816,-990,1806,87
,843,2023-10-20 13:26:36.98,150,-128,-2068,2,-47,49,1027,-1089,2116,31
,844,2023-10-20 13:26:36.99,146,-115,-2058,0,-55,47,822,-1025,1847,101
,845,2023-10-20 13:26:37.00,139,-117,-2048,2,-54,41,1008,-1138,2146,65
,846,2023-10-20 13:26:37.01,143,-114,-2044,2,-57,42,810,-1053,1863,121
,847,2023-10-20 13:26:37.02,141,-128,-2035,1,-56,42,1021,-1131,2152,55
,848,2023-10-20 13:26:37.03,135,-132,-2041,10,-54,44,825,-1034,1859,104
,849,2023-10-20 13:26:37.04,142,-121,-2042,13,-53,42,1050,-1122,2172,36
,850,2023-10-20 13:26:37.05,150,-131,-2040,10,-43,41,816,-1033,1849,108
,851,2023-10-20 13:26:37.06,142,-144,-2037,9,-38,46,1017,-1126,2143,54
,852,2023-10-20 13:26:37.07,130,-150,-2045,10,-32,47,792,-1033,1825,120
,853,2023-10-20 13:26:37.08,140,-145,-2038,13,-32,56,1012,-1124,2136,56
,854,2023-10-20 13:26:37.09,122,-138,-2041,9,-28,60,795,-1031,1826,118
,855,2023-10-20 13:26:37.10,134,-130,-2050,9,-26,65,1014,-1131,2145,58
,856,2023-10-20 13:26:37.11,128,-128,-2047,8,-20,63,819,-1031,1850,106
,857,2023-10-20 13:26:37.12,112,-104,-2061,5,-14,54,1058,-1117,2175,29
,858,2023-10-20 13:26:37.13,171,-99,-2051,1,-17,34,809,-1020,1829,105
,859,2023-10-20 13:26:37.14,174,-182,-1993,10,18,45,1024,-1120,2144,48
,860,2023-10-20 13:26:37.15,108,-188,-2027,36,56,71,809,-1027,1836,109
,861,2023-10-20 13:26:37.16,97,-144,-2087,39,23,82,1054,-1131,2185,38
,862,2023-10-20 13:26:37.17,105,-146,-2132,24,-24,108,826,-1031,1857,102
,863,2023-10-20 13:26:37.18,128,-148,-2100,2,-56,133,1051,-1125,2176,37
,864,2023-10-20 13:26:37.19,120,-131,-2058,-26,-55,126,790,-1021,1811,115
,865,2023-10-20 13:26:37.20,134,-124,-2040,-37,-45,107,1014,-1119,2133,52
,866,2023-10-20 13:26:37.21,153,-130,-2041,-35,-38,104,837,-1018,1855,90
,867,2023-10-20 13:26:37.22,144,-123,-2031,-26,-41,96,1088,-1132,2220,22
,868,2023-10-20 13:26:37.23,133,-126,-2037,-17,-36,86,858,-1034,1892,88
,869,2023-10-20 13:26:37.24,130,-130,-2046,-20,-33,82,1077,-1135,2212,29
,870,2023-10-20 13:26:37.25,128,-146,-2049,-25,-27,85,805,-1022,1827,108
,871,2023-10-20 13:26:37.26,114,-170,-2070,-18,-35,93,1016,-1120,2136,52
,872,2023-10-20 13:26:37.27,121,-137,-2064,-6,-46,100,808,-1020,1828,106
,873,2023-10-20 13:26:37.28,120,-122,-2061,-14,-58,99,1056,-1128,2184,36
,874,2023-10-20 13:26:37.29,102,-113,-2083,-18,-59,95,828,-1028,1856,100
,875,2023-10-20 13:26:37.30,99,-106,-2074,-23,-65,83,1056,-1128,2184,36
,876,2023-10-20 13:26:37.31,128,-81,-2058,-32,-78,70,820,-1021,1841,100
,877,2023-10-20 13:26:37.32,110,-98,-2042,-42,-74,58,1046,-1129,2175,41
,878,2023-10-20 13:26:37.33,106,-98,-2045,-54,-64,45,781,-1036,1817,127
,879,2023-10-20 13:26:37.34,114,-112,-2059,-60,-64,37,1001,-1144,2145,71
,880,2023-10-20 13:26:37.35,98,-131,-2065,-51,-77,35,738,-1038,1776,150
,881,2023-10-20 13:26:37.36,119,-150,-2051,-35,-77,24,968,-1130,2098,81
,882,2023-10-20 13:26:37.37,110,-129,-2029,-11,-61,14,746,-1024,1770,139
,883,2023-10-20 13:26:37.38,123,-136,-2030,-8,-53,17,994,-1123,2117,64
,884,2023-10-20 13:26:37.39,110,-133,-2042,-14,-44,39,814,-1028,1842,107
,885,2023-10-20 13:26:37.40,105,-144,-2065,-23,-45,66,1074,-1131,2205,28
,886,2023-10-20 13:26:37.41,104,-140,-2063,-16,-42,83,855,-1031,1886,88
,887,2023-10-20 13:26:37.42,100,-125,-2057,-9,-43,89,1080,-1130,2210,25
,888,2023-10-20 13:26:37.43,96,-110,-2045,-8,-39,87,901,-1035,1936,67
,889,2023-10-20 13:26:37.44,109,-114,-2045,4,-44,94,1125,-1135,2260,5
,890,2023-10-20 13:26:37.45,105,-110,-2036,18,-44,94,878,-1037,1915,79
,891,2023-10-20 13:26:37.46,94,-112,-2042,14,-37,96,1079,-1126,2205,23
,892,2023-10-20 13:26:37.47,89,-112,-2050,12,-33,99,850,-1025,1875,87
,893,2023-10-20 13:26:37.48,97,-119,-2062,18,-41,96,1060,-1116,2176,28
,894,2023-10-20 13:26:37.49,85,-110,-2060,22,-48,101,858,-1023,1881,82
,895,2023-10-20 13:26:37.50,77,-115,-2055,25,-63,109,1066,-1114,2180,24
,896,2023-10-20 13:26:37.51,81,-121,-2053,22,-65,108,824,-1030,1854,103
,897,2023-10-20 13:26:37.52,83,-113,-2048,16,-60,109,1030,-1125,2155,47
,898,2023-10-20 13:26:37.53,78,-119,-2046,12,-54,105,837,-1036,1873,99
,899,2023-10-20 13:26:37.54,89,-105,-2043,8,-46,98,1052,-1120,2172,34
,900,2023-10-20 13:26:37.55,96,-108,-2026,10,-45,89,837,-1040,1877,101
,901,2023-10-20 13:26:37.56,84,-98,-2039,6,-26,79,1034,-1139,2173,52
,902,2023-10-20 13:26:37.57,90,-104,-2049,-6,-20,70,829,-1059,1888,115
,903,2023-10-20 13:26:37.58,81,-111,-2045,-4,-21,65,1025,-1139,2164,57
,904,2023-10-20 13:26:37.59,77,-120,-2034,-9,-15,64,798,-1059,1857,130
,905,2023-10-20 13:26:37.60,77,-122,-2065,-13,-15,59,983,-1142,2125,79
,906,2023-10-20 13:26:37.61,70,-141,-2073,-7,-25,63,739,-1059,1798,160
,907,2023-10-20 13:26:37.62,81,-115,-2063,-9,-29,64,947,-1129,2076,91
,908,2023-10-20 13:26:37.63,90,-102,-2055,-22,-17,61,795,-1047,1842,126
,909,2023-10-20 13:26:37.64,87,-98,-2055,-33,-13,61,1004,-1114,2118,55
,910,2023-10-20 13:26:37.65,85,-97,-2057,-33,-11,61,773,-1051,1824,139
,911,2023-10-20 13:26:37.66,87,-97,-2050,-27,-13,56,960,-1126,2086,83
,912,2023-10-20 13:26:37.67,88,-102,-2053,-22,-17,53,815,-1055,1870,120
,913,2023-10-20 13:26:37.68,90,-95,-2057,-16,-22,53,1007,-1116,2123,54
,914,2023-10-20 13:26:37.69,78,-98,-2059,-13,-26,53,813,-1022,1835,104
,915,2023-10-20 13:26:37.70,65,-99,-2058,-9,-31,53,971,-1031,2002,30
,916,2023-10-20 13:26:37.71,88,-91,-2049,-3,-35,50,772,-962,1734,95
,917,2023-10-20 13:26:37.72,74,-96,-2048,4,-36,51,932,-1038,1970,53
,918,2023-10-20 13:26:37.73,72,-93,-2053,3,-39,55,747,-988,1735,120
,919,2023-10-20 13:26:37.74,64,-90,-2053,-1,-38,57,913,-1020,1933,53
,920,2023-10-20 13:26:37.75,67,-113,-2051,3,-40,59,748,-921,1669,86
,921,2023-10-20 13:26:37.76,65,-106,-2049,-3,-40,64,917,-909,1826,-4
,922,2023-10-20 13:26:37.77,59,-108,-2047,-6,-29,69,780,-877,1657,48
,923,2023-10-20 13:26:37.78,59,-101,-2052,-7,-26,73,945,-964,1909,9
,924,2023-10-20 13:26:37.79,58,-100,-2039,-7,-24,74,870,-890,1760,10
,925,2023-10-20 13:26:37.80,48,-89,-2045,-6,-17,73,991,-844,1835,-73
,926,2023-10-20 13:26:37.81,68,-61,-2032,-10,-9,67,808,-838,1646,15
,927,2023-10-20 13:26:37.82,92,-110,-2022,-6,6,69,919,-960,1879,20
,928,2023-10-20 13:26:37.83,82,-161,-2023,19,35,77,815,-963,1778,74
,929,2023-10-20 13:26:37.84,42,-98,-2021,74,53,61,952,-995,1947,21
,930,2023-10-20 13:26:37.85,55,-60,-2078,77,28,50,870,-973,1843,51
,931,2023-10-20 13:26:37.86,55,-83,-2099,28,-3,68,973,-1021,1994,24
,932,2023-10-20 13:26:37.87,66,-91,-2087,-2,-19,85,838,-1021,1859,91
,933,2023-10-20 13:26:37.88,66,-101,-2072,-10,-25,74,944,-1080,2024,68
,934,2023-10-20 13:26:37.89,61,-107,-2039,-7,-23,63,947,-1057,2004,55
,935,2023-10-20 13:26:37.90,95,-118,-2047,-1,-17,63,1028,-1084,2112,28
,936,2023-10-20 13:26:37.91,68,-113,-2044,3,-16,60,955,-1056,2011,50
,937,2023-10-20 13:26:37.92,72,-106,-2045,1,-7,61,1000,-1081,2081,40
,938,2023-10-20 13:26:37.93,69,-120,-2058,-1,1,67,944,-1062,2006,59
,939,2023-10-20 13:26:37.94,70,-109,-2057,1,-1,66,985,-1084,2069,49
,940,2023-10-20 13:26:37.95,66,-114,-2062,0,-5,73,937,-1062,1999,62
,941,2023-10-20 13:26:37.96,67,-108,-2070,-4,-11,79,958,-1067,2025,54
,942,2023-10-20 13:26:37.97,70,-116,-2077,-10,-16,88,860,-1057,1917,98
,943,2023-10-20 13:26:37.98,77,-130,-2061,-16,-13,103,901,-1080,1981,89
,944,2023-10-20 13:26:37.99,58,-117,-2056,-12,-21,111,886,-1077,1963,95
,945,2023-10-20 13:26:38.00,59,-101,-2068,-3,-34,121,918,-1089,2007,85
,946,2023-10-20 13:26:38.01,61,-79,-2070,-3,-43,120,859,-1089,1948,115
,947,2023-10-20 13:26:38.02,51,-69,-2073,-16,-55,112,896,-1094,1990,99
,948,2023-10-20 13:26:38.03,79,-75,-2072,-38,-61,106,907,-1075,1982,84
,949,2023-10-20 13:26:38.04,63,-99,-2057,-48,-47,115,918,-1073,1991,77
,950,2023-10-20 13:26:38.05,45,-108,-2060,-18,-44,95,920,-1072,1992,76
,951,2023-10-20 13:26:38.06,65,-82,-2059,13,-48,68,909,-1075,1984,83
,952,2023-10-20 13:26:38.07,68,-70,-2053,22,-50,53,920,-1089,2009,84
,953,2023-10-20 13:26:38.08,59,-105,-2046,9,-43,61,908,-1090,1998,91
,954,2023-10-20 13:26:38.09,48,-109,-2062,7,-36,74,898,-1110,2008,106
,955,2023-10-20 13:26:38.10,39,-93,-2054,12,-46,77,896,-1101,1997,102
,956,2023-10-20 13:26:38.11,44,-97,-2069,23,-57,79,962,-1120,2082,79
,957,2023-10-20 13:26:38.12,57,-104,-2063,30,-65,77,929,-1102,2031,86
,958,2023-10-20 13:26:38.13,46,-93,-2058,40,-66,76,955,-1112,2067,78
,959,2023-10-20 13:26:38.14,39,-80,-2046,54,-71,60,899,-1087,1986,94
,960,2023-10-20 13:26:38.15,52,-94,-2045,53,-69,53,946,-1116,2062,85
,961,2023-10-20 13:26:38.16,49,-106,-2036,53,-60,51,894,-1095,1989,100
,962,2023-10-20 13:26:38.17,40,-102,-2046,62,-54,48,952,-1127,2079,87
,963,2023-10-20 13:26:38.18,40,-92,-2043,70,-55,40,901,-1093,1994,96
,964,2023-10-20 13:26:38.19,41,-103,-2042,62,-54,39,978,-1127,2105,74
,965,2023-10-20 13:26:38.20,39,-117,-2042,52,-46,41,917,-1093,2010,88
,966,2023-10-20 13:26:38.21,45,-124,-2050,50,-44,48,996,-1110,2106,57
,967,2023-10-20 13:26:38.22,37,-138,-2062,57,-45,50,883,-1067,1950,92
,968,2023-10-20 13:26:38.23,29,-127,-2048,50,-47,62,928,-1105,2033,88
,969,2023-10-20 13:26:38.24,22,-140,-2055,53,-49,78,864,-1071,1935,103
,970,2023-10-20 13:26:38.25,29,-140,-2053,55,-55,94,999,-1112,2111,56
,971,2023-10-20 13:26:38.26,24,-127,-2071,58,-56,101,906,-1065,1971,79
,972,2023-10-20 13:26:38.27,44,-118,-2057,54,-56,109,979,-1100,2079,60
,973,2023-10-20 13:26:38.28,37,-118,-2047,47,-48,113,882,-1056,1938,87
,974,2023-10-20 13:26:38.29,20,-133,-2046,47,-49,117,1027,-1115,2142,44
,975,2023-10-20 13:26:38.30,32,-115,-2052,48,-49,121,941,-1070,2011,64
,976,2023-10-20 13:26:38.31,31,-131,-2065,49,-47,130,1111,-1128,2239,8
,977,2023-10-20 13:26:38.32,21,-133,-2058,43,-47,136,932,-1072,2004,70
,978,2023-10-20 13:26:38.33,23,-136,-2047,45,-52,142,1032,-1126,2158,47
,979,2023-10-20 13:26:38.34,7,-155,-2078,57,-57,153,923,-1065,1988,71
,980,2023-10-20 13:26:38.35,-9,-165,-2072,68,-79,174,1149,-1139,2288,-5
,981,2023-10-20 13:26:38.36,6,-157,-2068,73,-88,182,989,-1076,2065,43
,982,2023-10-20 13:26:38.37,24,-129,-2058,76,-90,188,1139,-1121,2260,-9
,983,2023-10-20 13:26:38.38,23,-136,-2046,75,-91,191,927,-1046,1973,59
,984,2023-10-20 13:26:38.39,12,-124,-2050,75,-91,189,1072,-1092,2164,10
,985,2023-10-20 13:26:38.40,17,-143,-2039,82,-96,190,883,-1022,1905,69
,986,2023-10-20 13:26:38.41,9,-109,-2036,72,-84,180,1030,-1071,2101,20
,987,2023-10-20 13:26:38.42,3,-118,-2052,66,-72,170,868,-994,1862,63
,988,2023-10-20 13:26:38.43,-8,-100,-2047,54,-65,158,1039,-1011,2050,-14
,989,2023-10-20 13:26:38.44,-6,-94,-2053,43,-61,144,904,-942,1846,19
,990,2023-10-20 13:26:38.45,45,-132,-2006,38,-57,128,1111,-1006,2117,-52
,991,2023-10-20 13:26:38.46,12,-187,-1974,57,-13,138,876,-946,1822,35
,992,2023-10-20 13:26:38.47,-21,-140,-2025,79,12,137,975,-856,1831,-59
,993,2023-10-20 13:26:38.48,-14,-125,-2096,56,-14,139,767,-723,1490,-22
,994,2023-10-20 13:26:38.49,-4,-127,-2096,16,-61,159,892,-581,1473,-155
,995,2023-10-20 13:26:38.50,-2,-133,-2062,-11,-76,171,691,-521,1212,-85
,996,2023-10-20 13:26:38.51,17,-124,-2049,-24,-57,152,838,-482,1320,-178
,997,2023-10-20 13:26:38.52,41,-117,-2022,-19,-48,130,641,-508,1149,-66
,998,2023-10-20 13:26:38.53,25,-116,-2004,-4,-37,114,792,-542,1334,-125
,999,2023-10-20 13:26:38.54,27,-110,-2023,15,-28,91,602,-573,1175,-14
,1000,2023-10-20 13:26:38.55,10,-131,-2052,31,-14,71,765,-611,1376,-77
,1001,2023-10-20 13:26:38.56,6,-111,-2057,29,-12,64,598,-625,1223,13
,1002,2023-10-20 13:26:38.57,-5,-121,-2075,15,-15,60,786,-609,1395,-88
,1003,2023-10-20 13:26:38.58,-24,-128,-2071,8,-32,60,605,-594,1199,-5
,1004,2023-10-20 13:26:38.59,-24,-135,-2057,7,-48,64,792,-576,1368,-108
,1005,2023-10-20 13:26:38.60,-14,-121,-2053,4,-63,68,603,-577,1180,-13
,1006,2023-10-20 13:26:38.61,-19,-106,-2035,-3,-71,72,782,-782,1564,0
,1007,2023-10-20 13:26:38.62,-11,-130,-2044,-12,-80,77,571,-843,1414,136
,1008,2023-10-20 13:26:38.63,-20,-130,-2038,-9,-86,78,758,-852,1610,47
,1009,2023-10-20 13:26:38.64,-3,-123,-2036,-8,-78,78,542,-752,1294,105
,1010,2023-10-20 13:26:38.65,-18,-123,-2050,-12,-67,79,736,-620,1356,-58
,1011,2023-10-20 13:26:38.66,-18,-117,-2056,-11,-55,79,532,-550,1082,9
,1012,2023-10-20 13:26:38.67,-35,-112,-2065,-10,-53,77,736,-673,1409,-31
,1013,2023-10-20 13:26:38.68,-56,-118,-2088,-6,-68,76,545,-737,1282,96
,1014,2023-10-20 13:26:38.69,-42,-120,-2073,-2,-72,72,805,-985,1790,90
,1015,2023-10-20 13:26:38.70,-48,-131,-2069,-4,-72,61,763,-998,1761,117
,1016,2023-10-20 13:26:38.71,-58,-137,-2030,2,-60,58,1078,-1090,2168,6
,1017,2023-10-20 13:26:38.72,-63,-112,-2114,7,-87,70,861,-979,1840,59
,1018,2023-10-20 13:26:38.73,-55,-132,-2034,-3,-104,87,1068,-1010,2078,-29
,1019,2023-10-20 13:26:38.74,-65,-128,-2056,-27,-74,106,835,-922,1757,43
,1020,2023-10-20 13:26:38.75,-71,-128,-2059,-33,-85,117,1076,-1066,2142,-5
,1021,2023-10-20 13:26:38.76,-65,-110,-2039,-20,-90,111,872,-1019,1891,73
,1022,2023-10-20 13:26:38.77,-45,-85,-2022,-20,-82,107,1129,-1142,2271,6
,1023,2023-10-20 13:26:38.78,-64,-106,-2016,-20,-62,106,945,-1052,1997,53
,1024,2023-10-20 13:26:38.79,-52,-109,-2031,-10,-45,92,1194,-1168,2362,-13
,1025,2023-10-20 13:26:38.80,-48,-89,-2038,-1,-28,77,915,-1066,1981,75
,1026,2023-10-20 13:26:38.81,-56,-99,-2047,4,-7,59,1116,-1168,2284,26
,1027,2023-10-20 13:26:38.82,-49,-118,-2069,22,-2,45,846,-1057,1903,105
,1028,2023-10-20 13:26:38.83,-41,-129,-2055,25,-8,42,1076,-1147,2223,35
,1029,2023-10-20 13:26:38.84,-36,-129,-2047,29,7,45,803,-1043,1846,120
,1030,2023-10-20 13:26:38.85,-39,-133,-2045,43,7,48,1031,-1148,2179,58
,1031,2023-10-20 13:26:38.86,-23,-145,-2029,55,3,49,742,-1054,1796,156
,1032,2023-10-20 13:26:38.87,-50,-145,-2062,72,28,49,963,-1162,2125,99
,1033,2023-10-20 13:26:38.88,-19,-133,-2047,85,3,59,725,-1065,1790,170
,1034,2023-10-20 13:26:38.89,-37,-128,-2059,95,-4,61,992,-1159,2151,83
,1035,2023-10-20 13:26:38.90,-36,-122,-2050,91,-13,64,777,-1055,1832,139
,1036,2023-10-20 13:26:38.91,-43,-125,-2052,86,-7,59,1028,-1158,2186,65
,1037,2023-10-20 13:26:38.92,-56,-132,-2052,81,-13,56,816,-1057,1873,120
,1038,2023-10-20 13:26:38.93,-67,-134,-2057,76,-20,59,1068,-1153,2221,42
,1039,2023-10-20 13:26:38.94,-79,-139,-2065,66,-30,60,802,-1053,1855,125
,1040,2023-10-20 13:26:38.95,-78,-158,-2061,64,-46,63,1043,-1143,2186,50
,1041,2023-10-20 13:26:38.96,-87,-146,-2065,58,-57,65,808,-1044,1852,118
,1042,2023-10-20 13:26:38.97,-83,-144,-2063,45,-64,70,1034,-1150,2184,58
,1043,2023-10-20 13:26:38.98,-88,-143,-2053,37,-67,71,757,-1049,1806,146
,1044,2023-10-20 13:26:38.99,-83,-138,-2042,29,-64,68,971,-1144,2115,86
,1045,2023-10-20 13:26:39.00,-70,-143,-2037,29,-57,66,754,-1044,1798,145
,1046,2023-10-20 13:26:39.01,-89,-146,-2022,27,-47,62,1002,-1135,2137,66
,1047,2023-10-20 13:26:39.02,-89,-148,-2017,26,-37,61,791,-1044,1835,126
,1048,2023-10-20 13:26:39.03,-80,-147,-2037,26,-16,57,1016,-1141,2157,62
,1049,2023-10-20 13:26:39.04,-90,-143,-2039,26,-7,52,738,-1050,1788,156
,1050,2023-10-20 13:26:39.05,-78,-139,-2050,31,4,48,945,-1147,2092,101
,1051,2023-10-20 13:26:39.06,-88,-151,-2055,32,12,41,754,-1055,1809,150
,1052,2023-10-20 13:26:39.07,-89,-135,-2040,32,23,35,997,-1141,2138,72
,1053,2023-10-20 13:26:39.08,-39,-162,-2030,31,41,35,765,-1053,1818,144
,1054,2023-10-20 13:26:39.09,-52,-192,-1987,62,72,41,973,-1141,2114,84
,1055,2023-10-20 13:26:39.10,-85,-175,-2010,105,110,27,764,-1064,1828,150
,1056,2023-10-20 13:26:39.11,-86,-113,-2047,98,92,9,986,-1164,2150,89
,1057,2023-10-20 13:26:39.12,-57,-134,-2064,29,39,28,824,-1077,1901,126
,1058,2023-10-20 13:26:39.13,-61,-178,-2056,-10,13,64,1047,-1148,2195,50
,1059,2023-10-20 13:26:39.14,-67,-163,-2059,-5,14,66,855,-1062,1917,103
,1060,2023-10-20 13:26:39.15,-51,-157,-2056,9,12,40,1045,-1141,2186,48
,1061,2023-10-20 13:26:39.16,-50,-192,-2054,14,10,38,840,-1053,1893,106
,1062,2023-10-20 13:26:39.17,-45,-173,-2060,7,-7,49,1016,-1128,2144,56
,1063,2023-10-20 13:26:39.18,-46,-177,-2071,-5,-32,66,805,-1061,1866,128
,1064,2023-10-20 13:26:39.19,-43,-176,-2066,-1,-22,71,991,-1149,2140,79
,1065,2023-10-20 13:26:39.20,-67,-159,-2042,19,-8,55,784,-1078,1862,147
,1066,2023-10-20 13:26:39.21,-80,-155,-2050,36,-19,44,977,-1146,2123,84
,1067,2023-10-20 13:26:39.22,-89,-138,-2062,43,-46,40,827,-1068,1895,120
,1068,2023-10-20 13:26:39.23,-92,-148,-2055,27,-63,36,1009,-1135,2144,63
,1069,2023-10-20 13:26:39.24,-117,-157,-2062,12,-57,30,810,-1056,1866,123
,1070,2023-10-20 13:26:39.25,-118,-155,-2050,7,-50,18,966,-1115,2081,74
,1071,2023-10-20 13:26:39.26,-116,-146,-2034,-5,-45,18,796,-1046,1842,125
,1072,2023-10-20 13:26:39.27,-107,-150,-2044,-26,-45,32,954,-1119,2073,82
,1073,2023-10-20 13:26:39.28,-121,-166,-2045,-40,-41,43,767,-1059,1826,146
,1074,2023-10-20 13:26:39.29,-121,-146,-2042,-45,-31,50,926,-1126,2052,100
,1075,2023-10-20 13:26:39.30,-120,-134,-2033,-51,-17,60,812,-1063,1875,125
,1076,2023-10-20 13:26:39.31,-116,-144,-2018,-70,6,60,977,-1119,2096,71
,1077,2023-10-20 13:26:39.32,-117,-139,-2008,-75,24,62,853,-1071,1924,109
,1078,2023-10-20 13:26:39.33,-104,-129,-2012,-75,44,62,1000,-1127,2127,63
,1079,2023-10-20 13:26:39.34,-101,-138,-2007,-66,62,66,876,-1076,1952,100
,1080,2023-10-20 13:26:39.35,-91,-156,-2027,-52,66,72,991,-1125,2116,67
,1081,2023-10-20 13:26:39.36,-98,-134,-2045,-30,62,74,885,-1073,1958,94
,1082,2023-10-20 13:26:39.37,-96,-133,-2074,-20,59,76,1000,-1119,2119,59
,1083,2023-10-20 13:26:39.38,-93,-143,-2076,-6,54,82,911,-1078,1989,83
,1084,2023-10-20 13:26:39.39,-93,-122,-2076,-4,55,80,1011,-1116,2127,52
,1085,2023-10-20 13:26:39.40,-101,-133,-2075,-10,51,78,914,-1082,1996,84
,1086,2023-10-20 13:26:39.41,-64,-139,-2074,-15,51,76,1012,-1124,2136,56
,1087,2023-10-20 13:26:39.42,-69,-121,-2069,-10,54,76,946,-1095,2041,74
,1088,2023-10-20 13:26:39.43,-59,-116,-2057,-4,42,75,1022,-1128,2150,53
,1089,2023-10-20 13:26:39.44,-53,-125,-2053,-15,48,70,946,-1107,2053,80
,1090,2023-10-20 13:26:39.45,-33,-116,-2052,-13,59,65,1004,-1139,2143,67
,1091,2023-10-20 13:26:39.46,-34,-122,-2051,-6,66,51,960,-1105,2065,72
,1092,2023-10-20 13:26:39.47,-29,-127,-2046,-6,72,43,1021,-1115,2136,47
,1093,2023-10-20 13:26:39.48,-31,-109,-2050,-6,78,41,966,-1078,2044,56
,1094,2023-10-20 13:26:39.49,-21,-129,-2047,-11,93,38,1008,-1089,2097,40
,1095,2023-10-20 13:26:39.50,-33,-113,-2038,-8,92,35,953,-1065,2018,56
,1096,2023-10-20 13:26:39.51,0,-96,-2038,-4,91,26,987,-1085,2072,49
,1097,2023-10-20 13:26:39.52,32,-153,-2006,7,97,31,977,-1051,2028,37
,1098,2023-10-20 13:26:39.53,27,-207,-1967,51,124,62,986,-1032,2018,23
,1099,2023-10-20 13:26:39.54,-21,-157,-1989,115,144,63,864,-881,1745,8
,1100,2023-10-20 13:26:39.55,-24,-118,-2062,110,111,72,872,-755,1627,-58
,1101,2023-10-20 13:26:39.56,-5,-137,-2125,56,45,117,772,-713,1485,-29
,1102,2023-10-20 13:26:39.57,-20,-126,-2102,7,11,164,805,-746,1551,-29
,1103,2023-10-20 13:26:39.58,-15,-123,-2054,-17,10,164,737,-774,1511,18
,1104,2023-10-20 13:26:39.59,7,-108,-2021,-16,10,152,859,-842,1701,-8
,1105,2023-10-20 13:26:39.60,10,-102,-2019,-5,7,150,1008,-945,1953,-31
,1106,2023-10-20 13:26:39.61,-4,-110,-2021,7,4,149,1015,-1022,2037,3
,1107,2023-10-20 13:26:39.62,-10,-120,-2053,12,-1,145,993,-1072,2065,39
,1108,2023-10-20 13:26:39.63,-34,-124,-2062,20,0,140,947,-1080,2027,66
,1109,2023-10-20 13:26:39.64,-21,-126,-2068,28,-12,134,958,-1063,2021,52
,1110,2023-10-20 13:26:39.65,-42,-113,-2065,24,-21,133,940,-1025,1965,42
,1111,2023-10-20 13:26:39.66,-53,-118,-2076,12,-29,140,944,-1017,1961,36
,1112,2023-10-20 13:26:39.67,-46,-141,-2082,2,-43,144,935,-1001,1936,33
,1113,2023-10-20 13:26:39.68,-66,-145,-2092,4,-60,159,961,-1042,2003,40
,1114,2023-10-20 13:26:39.69,-77,-141,-2109,1,-77,171,925,-1056,1981,65
,1115,2023-10-20 13:26:39.70,-66,-137,-2120,-6,-89,169,977,-1096,2073,59
,1116,2023-10-20 13:26:39.71,-63,-131,-2091,-10,-89,162,945,-1076,2021,65
,1117,2023-10-20 13:26:39.72,-64,-113,-2076,-20,-78,150,1037,-1104,2141,33
,1118,2023-10-20 13:26:39.73,-64,-120,-2080,-29,-73,136,959,-1077,2036,59
,1119,2023-10-20 13:26:39.74,-48,-108,-2086,-29,-82,119,990,-1106,2096,58
,1120,2023-10-20 13:26:39.75,-40,-81,-2072,-11,-79,83,903,-1077,1980,87
,1121,2023-10-20 13:26:39.76,-35,-102,-2021,-1,-51,51,941,-1114,2055,86
,1122,2023-10-20 13:26:39.77,-44,-113,-2020,0,-22,39,860,-1080,1940,110
,1123,2023-10-20 13:26:39.78,-28,-118,-2017,12,-17,44,892,-1116,2008,112
,1124,2023-10-20 13:26:39.79,-59,-107,-2030,34,-23,40,818,-1078,1896,130
,1125,2023-10-20 13:26:39.80,-58,-113,-2055,41,-27,22,891,-1120,2011,114
,1126,2023-10-20 13:26:39.81,-37,-120,-2030,47,-23,4,840,-1078,1918,119
,1127,2023-10-20 13:26:39.82,-34,-104,-2034,57,-21,-9,943,-1122,2065,89
,1128,2023-10-20 13:26:39.83,-31,-116,-2038,66,-18,-22,848,-1074,1922,113
,1129,2023-10-20 13:26:39.84,-36,-121,-2038,71,-21,-26,927,-1121,2048,97
,1130,2023-10-20 13:26:39.85,-25,-126,-2048,73,-22,-33,830,-1071,1901,120
,1131,2023-10-20 13:26:39.86,-26,-118,-2025,73,-17,-32,941,-1121,2062,90
,1132,2023-10-20 13:26:39.87,-31,-116,-2023,72,-12,-31,852,-1070,1922,109
,1133,2023-10-20 13:26:39.88,-37,-134,-2019,61,-6,-28,988,-1120,2108,66
,1134,2023-10-20 13:26:39.89,-38,-138,-2018,56,-7,-16,891,-1061,1952,85
,1135,2023-10-20 13:26:39.90,-51,-154,-2053,54,-7,6,1044,-1118,2162,37
,1136,2023-10-20 13:26:39.91,-59,-172,-2085,68,-28,29,901,-1058,1959,78
,1137,2023-10-20 13:26:39.92,-62,-142,-2082,73,-51,42,1029,-1115,2144,43
,1138,2023-10-20 13:26:39.93,-52,-118,-2075,73,-52,51,895,-1058,1953,81
,1139,2023-10-20 13:26:39.94,-56,-112,-2079,68,-48,52,1075,-1130,2205,27
,1140,2023-10-20 13:26:39.95,-70,-102,-2080,65,-51,51,912,-1070,1982,79
,1141,2023-10-20 13:26:39.96,-67,-117,-2071,74,-68,44,1065,-1134,2199,34
,1142,2023-10-20 13:26:39.97,-69,-98,-2052,75,-75,33,875,-1061,1936,93
,1143,2023-10-20 13:26:39.98,-80,-110,-2040,71,-71,19,1005,-1134,2139,64
,1144,2023-10-20 13:26:39.99,-78,-117,-2036,68,-62,1,848,-1062,1910,107
,1145,2023-10-20 13:26:40.00,-65,-123,-2022,74,-61,-14,1021,-1131,2152,55
,1146,2023-10-20 13:26:40.01,-65,-134,-2012,82,-62,-30,879,-1056,1935,88
,1147,2023-10-20 13:26:40.02,-54,-147,-2003,86,-53,-42,1090,-1130,2220,20
,1148,2023-10-20 13:26:40.03,-51,-154,-1990,87,-37,-45,910,-1055,1965,72
,1149,2023-10-20 13:26:40.04,-49,-167,-2001,79,-9,-45,1103,-1141,2244,19
,1150,2023-10-20 13:26:40.05,-48,-173,-1993,87,10,-45,882,-1061,1943,89
,1151,2023-10-20 13:26:40.06,-36,-171,-2005,87,33,-47,1040,-1144,2184,52
,1152,2023-10-20 13:26:40.07,0,-179,-1992,86,64,-40,830,-1055,1885,112
,1153,2023-10-20 13:26:40.08,9,-225,-1966,113,97,-16,1009,-1128,2137,59
,1154,2023-10-20 13:26:40.09,4,-231,-1913,173,126,-5,822,-1042,1864,110
,1155,2023-10-20 13:26:40.10,-70,-227,-2014,259,127,-23,1039,-1127,2166,44
,1156,2023-10-20 13:26:40.11,-47,-122,-2077,215,99,-4,805,-1045,1850,120
,1157,2023-10-20 13:26:40.12,4,-197,-2004,158,86,18,964,-1120,2084,78
,1158,2023-10-20 13:26:40.13,-23,-252,-2057,162,102,31,774,-1027,1801,126
,1159,2023-10-20 13:26:40.14,-35,-237,-2001,211,95,13,969,-1095,2064,63
,1160,2023-10-20 13:26:40.15,-53,-216,-2057,249,79,-6,792,-992,1784,100
,1161,2023-10-20 13:26:40.16,-57,-205,-2066,228,52,-3,992,-1057,2049,32
,1162,2023-10-20 13:26:40.17,-53,-263,-2016,221,33,2,847,-985,1832,69
,1163,2023-10-20 13:26:40.18,-66,-289,-2059,259,9,-9,1150,-1092,2242,-29
,1164,2023-10-20 13:26:40.19,-62,-234,-2132,261,26,-12,964,-1022,1986,29
,1165,2023-10-20 13:26:40.20,-59,-299,-2023,243,-12,-11,1214,-1124,2338,-45
,1166,2023-10-20 13:26:40.21,-83,-290,-2085,244,-34,-11,968,-1028,1996,30
,1167,2023-10-20 13:26:40.22,-79,-259,-2088,238,-61,-1,1196,-1055,2251,-70
,1168,2023-10-20 13:26:40.23,-88,-268,-2073,205,-62,-3,926,-933,1859,3
,1169,2023-10-20 13:26:40.24,-98,-283,-2082,169,-61,-14,1128,-945,2073,-91
,1170,2023-10-20 13:26:40.25,-100,-274,-2088,153,-83,-19,870,-859,1729,-5
,1171,2023-10-20 13:26:40.26,-104,-281,-2091,139,-97,-35,1093,-939,2032,-77
,1172,2023-10-20 13:26:40.27,-96,-253,-2095,112,-118,-57,831,-887,1718,28
,1173,2023-10-20 13:26:40.28,-72,-249,-2045,90,-110,-78,1048,-943,1991,-52
,1174,2023-10-20 13:26:40.29,-89,-248,-2009,55,-90,-86,805,-858,1663,26
,1175,2023-10-20 13:26:40.30,-89,-260,-2028,9,-83,-90,1042,-820,1862,-111
,1176,2023-10-20 13:26:40.31,-98,-286,-2060,-25,-86,-75,812,-732,1544,-40
,1177,2023-10-20 13:26:40.32,-109,-303,-2077,-44,-80,-55,1048,-791,1839,-128
,1178,2023-10-20 13:26:40.33,-119,-291,-2075,-49,-84,-47,822,-769,1591,-26
,1179,2023-10-20 13:26:40.34,-95,-266,-2060,-63,-75,-54,1056,-921,1977,-67
,1180,2023-10-20 13:26:40.35,-90,-231,-2065,-71,-64,-61,886,-894,1780,4
,1181,2023-10-20 13:26:40.36,-107,-212,-2059,-98,-55,-61,1155,-841,1996,-157
,1182,2023-10-20 13:26:40.37,-112,-223,-2071,-135,-51,-62,826,-708,1534,-59
,1183,2023-10-20 13:26:40.38,-107,-214,-2075,-156,-50,-59,1003,-570,1573,-216
,1184,2023-10-20 13:26:40.39,-107,-205,-2068,-153,-67,-60,710,-514,1224,-98
,1185,2023-10-20 13:26:40.40,-101,-202,-2048,-149,-79,-61,942,-681,1623,-130
,1186,2023-10-20 13:26:40.41,-99,-181,-2020,-166,-66,-72,813,-746,1559,-33
,1187,2023-10-20 13:26:40.42,-82,-187,-2008,-178,-44,-76,1111,-782,1893,-164
,1188,2023-10-20 13:26:40.43,-92,-201,-1996,-170,-35,-77,816,-714,1530,-51
,1189,2023-10-20 13:26:40.44,-81,-228,-1984,-155,-30,-66,1010,-748,1758,-131
,1190,2023-10-20 13:26:40.45,-89,-228,-1986,-143,-26,-51,730,-723,1453,-3
,1191,2023-10-20 13:26:40.46,-92,-252,-1996,-117,-23,-33,961,-804,1765,-78
,1192,2023-10-20 13:26:40.47,-108,-241,-2018,-82,-25,-20,712,-782,1494,35
,1193,2023-10-20 13:26:40.48,-111,-247,-2031,-45,-27,-6,948,-915,1863,-16
,1194,2023-10-20 13:26:40.49,-119,-241,-2045,-13,-41,8,749,-884,1633,67
,1195,2023-10-20 13:26:40.50,-111,-205,-2055,12,-50,21,992,-994,1986,1
,1196,2023-10-20 13:26:40.51,-111,-189,-2041,19,-56,30,725,-919,1644,97
,1197,2023-10-20 13:26:40.52,-111,-171,-2041,12,-48,33,951,-967,1918,8
,1198,2023-10-20 13:26:40.53,-126,-168,-2042,5,-43,39,722,-865,1587,71
,1199,2023-10-20 13:26:40.54,-116,-181,-2031,-1,-53,43,976,-877,1853,-49
,1200,2023-10-20 13:26:40.55,-138,-181,-2035,-10,-48,47,727,-794,1521,33
,1201,2023-10-20 13:26:40.56,-139,-176,-2028,-22,-46,42,970,-823,1793,-73
,1202,2023-10-20 13:26:40.57,-143,-153,-2042,-27,-34,36,745,-757,1502,6
,1203,2023-10-20 13:26:40.58,-143,-161,-2056,-31,-24,34,983,-775,1758,-104
,1204,2023-10-20 13:26:40.59,-146,-208,-2026,-32,-16,43,754,-722,1476,-16
,1205,2023-10-20 13:26:40.60,-153,-186,-2016,-13,7,30,998,-773,1771,-112
,1206,2023-10-20 13:26:40.61,-164,-179,-2066,-11,9,10,770,-776,1546,3
,1207,2023-10-20 13:26:40.62,-154,-185,-2082,-41,-20,21,999,-953,1952,-23
,1208,2023-10-20 13:26:40.63,-134,-179,-2060,-61,-33,39,796,-934,1730,69
,1209,2023-10-20 13:26:40.64,-154,-159,-2051,-65,-12,34,1024,-1011,2035,-6
,1210,2023-10-20 13:26:40.65,-147,-172,-2043,-66,7,14,806,-942,1748,68
,1211,2023-10-20 13:26:40.66,-135,-163,-2042,-62,15,2,1021,-1038,2059,8
,1212,2023-10-20 13:26:40.67,-119,-180,-2037,-59,7,8,759,-977,1736,109
,1213,2023-10-20 13:26:40.68,-135,-179,-2029,-50,15,5,973,-1058,2031,42
,1214,2023-10-20 13:26:40.69,-116,-182,-2028,-38,24,-2,796,-982,1778,93
,1215,2023-10-20 13:26:40.70,-122,-180,-2027,-28,37,-5,1024,-1063,2087,19
,1216,2023-10-20 13:26:40.71,-116,-171,-2035,-13,31,-2,822,-972,1794,75
,1217,2023-10-20 13:26:40.72,-109,-166,-2029,-2,28,-3,1020,-994,2014,-13
,1218,2023-10-20 13:26:40.73,-118,-183,-2034,-5,29,-4,832,-896,1728,32
,1219,2023-10-20 13:26:40.74,-121,-183,-2051,-7,30,3,1035,-920,1955,-57
,1220,2023-10-20 13:26:40.75,-114,-186,-2054,6,21,2,803,-835,1638,16
,1221,2023-10-20 13:26:40.76,-116,-175,-2046,19,17,-1,994,-847,1841,-73
,1222,2023-10-20 13:26:40.77,-114,-176,-2030,23,18,-3,797,-864,1661,33
,1223,2023-10-20 13:26:40.78,-115,-193,-2024,14,24,0,996,-1065,2061,34
,1224,2023-10-20 13:26:40.79,-100,-197,-2038,4,32,11,866,-1058,1924,96
,1225,2023-10-20 13:26:40.80,-101,-194,-2048,-2,38,18,1045,-1110,2155,32
,1226,2023-10-20 13:26:40.81,-105,-195,-2044,-6,43,24,836,-977,1813,70
,1227,2023-10-20 13:26:40.82,-85,-201,-2057,-14,47,33,998,-939,1937,-29
,1228,2023-10-20 13:26:40.83,-87,-204,-2057,-11,52,42,799,-861,1660,31
,1229,2023-10-20 13:26:40.84,-92,-192,-2045,1,45,45,973,-920,1893,-26
,1230,2023-10-20 13:26:40.85,-92,-163,-2053,-8,33,56,800,-926,1726,63
,1231,2023-10-20 13:26:40.86,-81,-173,-2046,-6,26,59,967,-1043,2010,38
,1232,2023-10-20 13:26:40.87,-84,-182,-2052,6,14,54,818,-1010,1828,96
,1233,2023-10-20 13:26:40.88,-83,-172,-2049,17,9,42,972,-1039,2011,33
,1234,2023-10-20 13:26:40.89,-76,-172,-2050,23,1,27,768,-962,1730,97
,1235,2023-10-20 13:26:40.90,-70,-181,-2049,36,-5,15,931,-977,1908,23
,1236,2023-10-20 13:26:40.91,-73,-174,-2035,43,4,2,758,-913,1671,77
,1237,2023-10-20 13:26:40.92,-88,-155,-2041,38,15,-8,920,-928,1848,4
,1238,2023-10-20 13:26:40.93,-89,-184,-2050,27,17,-7,791,-895,1686,52
,1239,2023-10-20 13:26:40.94,-101,-185,-2060,27,6,0,943,-944,1887,0
,1240,2023-10-20 13:26:40.95,-96,-183,-2054,16,-4,12,842,-897,1739,27
,1241,2023-10-20 13:26:40.96,-99,-198,-2045,-1,-10,26,972,-907,1879,-32
,1242,2023-10-20 13:26:40.97,-89,-203,-2029,-7,-8,40,870,-908,1778,19
,1243,2023-10-20 13:26:40.98,-99,-186,-2029,-6,2,54,976,-998,1974,11
,1244,2023-10-20 13:26:40.99,-106,-176,-2042,-5,-1,54,846,-1028,1874,91
,1245,2023-10-20 13:26:41.00,-97,-154,-2041,1,-8,46,952,-1093,2045,70
,1246,2023-10-20 13:26:41.01,-97,-164,-2031,12,-8,36,856,-1075,1931,109
,1247,2023-10-20 13:26:41.02,-99,-149,-2025,15,5,18,943,-1101,2044,79
,1248,2023-10-20 13:26:41.03,-95,-145,-2019,9,19,-6,830,-1063,1893,116
,1249,2023-10-20 13:26:41.04,-93,-161,-2043,-3,32,-15,911,-1080,1991,84
,1250,2023-10-20 13:26:41.05,-110,-167,-2057,-6,27,-10,774,-1045,1819,135
