// Data mode  : Full
// Data quality  : High
// Acceleration sensor's range  : 16g
// Gyroscope sensor's range  : 2000dps
//
//ARTIFACT,NUM,DATE,ACC_X,ACC_Y,ACC_Z,GYRO_X,GYRO_Y,GYRO_Z,EOG_L,EOG_R,EOG_H,EOG_V
,1,2023-10-27 11:50:33.26,167,-122,-2038,62,22,-79,-345,-679,334,512
,2,2023-10-27 11:50:33.27,164,-131,-2044,71,70,-53,-487,-821,334,654
,3,2023-10-27 11:50:33.28,172,-136,-2053,66,19,-95,-356,-680,324,518
,4,2023-10-27 11:50:33.29,175,-132,-2051,66,36,-77,-501,-823,322,662
,5,2023-10-27 11:50:33.30,174,-143,-2053,61,31,-101,-366,-681,315,523
,6,2023-10-27 11:50:33.31,173,-150,-2054,59,45,-72,-501,-822,321,661
,7,2023-10-27 11:50:33.32,181,-154,-2059,52,45,-91,-369,-694,325,531
,8,2023-10-27 11:50:33.33,189,-160,-2060,52,72,-64,-532,-852,320,692
,9,2023-10-27 11:50:33.34,175,-167,-2063,46,13,-81,-407,-703,296,555
,10,2023-10-27 11:50:33.35,186,-161,-2055,54,57,-60,-544,-829,285,686
,11,2023-10-27 11:50:33.36,182,-149,-2069,50,2,-72,-410,-683,273,546
,12,2023-10-27 11:50:33.37,179,-150,-2067,36,2,-70,-552,-820,268,686
,13,2023-10-27 11:50:33.38,182,-138,-2065,36,14,-36,-427,-686,259,556
,14,2023-10-27 11:50:33.39,185,-133,-2072,21,-12,-38,-558,-816,258,687
,15,2023-10-27 11:50:33.40,174,-129,-2069,8,14,-33,-420,-672,252,546
,16,2023-10-27 11:50:33.41,179,-137,-2061,-5,-27,-29,-562,-811,249,686
,17,2023-10-27 11:50:33.42,175,-142,-2060,-15,-29,-43,-428,-674,246,551
,18,2023-10-27 11:50:33.43,170,-137,-2048,-18,-56,-16,-556,-814,258,685
,19,2023-10-27 11:50:33.44,169,-137,-2049,-20,-58,-30,-427,-683,256,555
,20,2023-10-27 11:50:33.45,160,-132,-2051,-12,-29,7,-561,-818,257,689
,21,2023-10-27 11:50:33.46,159,-135,-2049,-10,-40,6,-436,-670,234,553
,22,2023-10-27 11:50:33.47,167,-125,-2038,-9,-61,-9,-532,-786,254,659
,23,2023-10-27 11:50:33.48,157,-118,-2040,2,2,6,-383,-650,267,516
,24,2023-10-27 11:50:33.49,153,-123,-2050,7,-62,-27,-449,-776,327,612
,25,2023-10-27 11:50:33.50,152,-121,-2063,17,-9,-11,-318,-657,339,487
,26,2023-10-27 11:50:33.51,149,-127,-2071,26,-67,-16,-422,-792,370,607
,27,2023-10-27 11:50:33.52,148,-130,-2062,30,-59,-28,-327,-668,341,497
,28,2023-10-27 11:50:33.53,146,-135,-2055,35,-48,-5,-427,-782,355,604
,29,2023-10-27 11:50:33.54,146,-142,-2047,31,-64,-25,-306,-645,339,475
,30,2023-10-27 11:50:33.55,148,-144,-2031,39,-27,5,-339,-756,417,547
,31,2023-10-27 11:50:33.56,150,-150,-2028,39,-44,-28,-221,-634,413,427
,32,2023-10-27 11:50:33.57,150,-162,-2034,51,2,1,-293,-749,456,521
,33,2023-10-27 11:50:33.58,137,-157,-2029,55,-54,-13,-220,-634,414,427
,34,2023-10-27 11:50:33.59,132,-148,-2045,59,7,1,-292,-747,455,519
,35,2023-10-27 11:50:33.60,125,-150,-2053,46,-28,4,-203,-639,436,421
,36,2023-10-27 11:50:33.61,135,-163,-2062,32,-15,-9,-218,-750,532,484
,37,2023-10-27 11:50:33.62,126,-157,-2057,30,-9,21,-127,-649,522,388
,38,2023-10-27 11:50:33.63,130,-163,-2052,22,-8,8,-179,-756,577,467
,39,2023-10-27 11:50:33.64,136,-160,-2054,23,-25,32,-135,-652,517,393
,40,2023-10-27 11:50:33.65,145,-158,-2037,18,-65,0,-222,-750,528,486
,41,2023-10-27 11:50:33.66,144,-144,-2042,26,9,30,-193,-651,458,422
,42,2023-10-27 11:50:33.67,135,-138,-2039,16,-34,5,-274,-745,471,509
,43,2023-10-27 11:50:33.68,142,-139,-2045,12,-14,-17,-225,-647,422,436
,44,2023-10-27 11:50:33.69,131,-151,-2043,30,21,9,-285,-740,455,512
,45,2023-10-27 11:50:33.70,132,-154,-2054,35,-23,-28,-237,-648,411,442
,46,2023-10-27 11:50:33.71,123,-157,-2065,45,15,-11,-298,-738,440,518
,47,2023-10-27 11:50:33.72,123,-165,-2059,43,-44,-24,-264,-656,392,460
,48,2023-10-27 11:50:33.73,125,-158,-2066,49,13,-10,-327,-736,409,531
,49,2023-10-27 11:50:33.74,130,-165,-2051,52,-6,5,-280,-645,365,462
,50,2023-10-27 11:50:33.75,127,-171,-2045,51,-42,-28,-301,-717,416,509
,51,2023-10-27 11:50:33.76,128,-161,-2043,56,14,-4,-245,-645,400,445
,52,2023-10-27 11:50:33.77,137,-150,-2028,55,-23,-20,-311,-739,428,525
,53,2023-10-27 11:50:33.78,141,-149,-2006,54,19,-28,-266,-650,384,458
,54,2023-10-27 11:50:33.79,151,-145,-2013,60,10,-24,-240,-712,472,476
,55,2023-10-27 11:50:33.80,153,-142,-2024,57,4,-63,-188,-661,473,424
,56,2023-10-27 11:50:33.81,156,-139,-2036,50,74,-41,-239,-737,498,488
,57,2023-10-27 11:50:33.82,152,-148,-2052,29,33,-63,-235,-674,439,454
,58,2023-10-27 11:50:33.83,152,-159,-2063,15,57,-79,-253,-735,482,494
,59,2023-10-27 11:50:33.84,157,-154,-2076,9,34,-70,-232,-679,447,455
,60,2023-10-27 11:50:33.85,141,-147,-2074,-3,14,-89,-243,-726,483,484
,61,2023-10-27 11:50:33.86,156,-148,-2061,-8,31,-54,-245,-680,435,462
,62,2023-10-27 11:50:33.87,148,-148,-2058,-23,-3,-85,-262,-723,461,492
,63,2023-10-27 11:50:33.88,163,-159,-2074,-25,30,-54,-278,-699,421,488
,64,2023-10-27 11:50:33.89,136,-173,-2066,-29,-35,-61,-322,-744,422,533
,65,2023-10-27 11:50:33.90,149,-180,-2062,-26,-11,-54,-331,-672,341,501
,66,2023-10-27 11:50:33.91,148,-177,-2049,-15,-16,-24,-308,-688,380,498
,67,2023-10-27 11:50:33.92,147,-167,-2054,-19,-42,-28,-294,-656,362,475
,68,2023-10-27 11:50:33.93,139,-169,-2046,-7,6,-5,-274,-691,417,482
,69,2023-10-27 11:50:33.94,128,-150,-2053,-9,-41,-2,-286,-671,385,478
,70,2023-10-27 11:50:33.95,125,-157,-2059,-2,-37,-9,-275,-696,421,485
,71,2023-10-27 11:50:33.96,139,-153,-2046,12,-6,35,-280,-664,384,472
,72,2023-10-27 11:50:33.97,137,-149,-2037,13,-58,2,-242,-673,431,457
,73,2023-10-27 11:50:33.98,142,-141,-2028,20,-6,26,-227,-664,437,445
,74,2023-10-27 11:50:33.99,140,-151,-2036,24,-33,24,-153,-686,533,419
,75,2023-10-27 11:50:34.00,132,-151,-2041,26,-10,7,-164,-675,511,419
,76,2023-10-27 11:50:34.01,133,-151,-2053,34,-28,21,-133,-682,549,407
,77,2023-10-27 11:50:34.02,135,-154,-2054,34,-33,2,-184,-676,492,430
,78,2023-10-27 11:50:34.03,134,-167,-2050,46,15,29,-158,-680,522,419
,79,2023-10-27 11:50:34.04,121,-168,-2059,39,-48,12,-216,-687,471,451
,80,2023-10-27 11:50:34.05,142,-165,-2049,42,-15,14,-190,-682,492,436
,81,2023-10-27 11:50:34.06,128,-162,-2038,47,-3,36,-227,-683,456,455
,82,2023-10-27 11:50:34.07,135,-160,-2030,40,-36,8,-159,-677,518,418
,83,2023-10-27 11:50:34.08,130,-169,-2042,42,7,36,-198,-694,496,446
,84,2023-10-27 11:50:34.09,119,-167,-2050,39,-8,32,-143,-683,540,413
,85,2023-10-27 11:50:34.10,137,-164,-2053,34,-4,15,-206,-694,488,450
,86,2023-10-27 11:50:34.11,126,-172,-2046,37,3,42,-156,-672,516,414
,87,2023-10-27 11:50:34.12,132,-156,-2052,23,-12,17,-211,-698,487,454
,88,2023-10-27 11:50:34.13,133,-158,-2035,18,57,35,-134,-676,542,405
,89,2023-10-27 11:50:34.14,134,-158,-2043,14,23,33,-209,-710,501,459
,90,2023-10-27 11:50:34.15,133,-165,-2044,13,26,13,-163,-681,518,422
,91,2023-10-27 11:50:34.16,142,-163,-2051,17,37,15,-256,-705,449,480
,92,2023-10-27 11:50:34.17,132,-162,-2043,20,8,17,-188,-656,468,422
,93,2023-10-27 11:50:34.18,142,-154,-2044,14,18,-5,-262,-703,441,482
,94,2023-10-27 11:50:34.19,139,-149,-2052,12,48,3,-177,-665,488,421
,95,2023-10-27 11:50:34.20,151,-148,-2042,1,6,-9,-274,-723,449,498
,96,2023-10-27 11:50:34.21,149,-159,-2030,-10,41,-21,-215,-673,458,444
,97,2023-10-27 11:50:34.22,151,-165,-2050,-10,58,-7,-331,-716,385,523
,98,2023-10-27 11:50:34.23,147,-175,-2047,-3,16,-10,-262,-653,391,457
,99,2023-10-27 11:50:34.24,141,-175,-2061,5,30,-12,-342,-694,352,518
,100,2023-10-27 11:50:34.25,145,-174,-2058,10,37,15,-253,-638,385,445
,101,2023-10-27 11:50:34.26,142,-175,-2050,1,-6,4,-343,-718,375,530
,102,2023-10-27 11:50:34.27,146,-173,-2056,-2,28,4,-254,-669,415,461
,103,2023-10-27 11:50:34.28,129,-171,-2051,0,34,33,-354,-737,383,545
,104,2023-10-27 11:50:34.29,160,-170,-2033,-9,17,16,-254,-661,407,457
,105,2023-10-27 11:50:34.30,160,-178,-2034,-10,15,14,-357,-714,357,535
,106,2023-10-27 11:50:34.31,160,-166,-2031,6,42,45,-256,-651,395,453
,107,2023-10-27 11:50:34.32,167,-161,-2039,8,-13,17,-356,-747,391,551
,108,2023-10-27 11:50:34.33,172,-156,-2053,17,41,26,-249,-682,433,465
,109,2023-10-27 11:50:34.34,172,-147,-2061,16,35,40,-350,-750,400,550
,110,2023-10-27 11:50:34.35,151,-155,-2072,10,17,9,-228,-664,436,446
,111,2023-10-27 11:50:34.36,159,-161,-2070,15,38,37,-318,-756,438,537
,112,2023-10-27 11:50:34.37,156,-151,-2061,14,-1,22,-200,-690,490,445
,113,2023-10-27 11:50:34.38,160,-145,-2059,14,29,21,-292,-780,488,536
,114,2023-10-27 11:50:34.39,161,-151,-2059,13,36,28,-175,-693,518,434
,115,2023-10-27 11:50:34.40,162,-140,-2052,0,-22,10,-291,-775,484,533
,116,2023-10-27 11:50:34.41,144,-149,-2063,-8,-34,-3,-181,-677,496,429
,117,2023-10-27 11:50:34.42,146,-157,-2055,-6,-13,23,-281,-767,486,524
,118,2023-10-27 11:50:34.43,152,-166,-2052,-9,-65,10,-159,-676,517,417
,119,2023-10-27 11:50:34.44,145,-165,-2040,-5,-73,7,-294,-788,494,541
,120,2023-10-27 11:50:34.45,142,-166,-2041,10,-19,41,-190,-699,509,444
,121,2023-10-27 11:50:34.46,136,-173,-2042,18,-62,40,-322,-797,475,559
,122,2023-10-27 11:50:34.47,119,-165,-2038,28,-47,35,-204,-695,491,449
,123,2023-10-27 11:50:34.48,125,-172,-2026,40,0,61,-362,-835,473,598
,124,2023-10-27 11:50:34.49,135,-162,-2029,42,-32,58,-270,-734,464,502
,125,2023-10-27 11:50:34.50,132,-160,-2043,41,14,55,-432,-837,405,634
,126,2023-10-27 11:50:34.51,123,-158,-2043,45,33,66,-310,-709,399,509
,127,2023-10-27 11:50:34.52,117,-166,-2052,38,-24,55,-433,-795,362,614
,128,2023-10-27 11:50:34.53,139,-167,-2058,38,28,60,-284,-677,393,480
,129,2023-10-27 11:50:34.54,138,-166,-2053,41,6,68,-414,-806,392,610
,130,2023-10-27 11:50:34.55,130,-172,-2044,33,-23,47,-285,-702,417,493
,131,2023-10-27 11:50:34.56,138,-165,-2043,34,17,49,-424,-810,386,617
,132,2023-10-27 11:50:34.57,150,-156,-2046,30,-7,52,-276,-696,420,486
,133,2023-10-27 11:50:34.58,137,-161,-2056,21,-12,22,-401,-832,431,616
,134,2023-10-27 11:50:34.59,136,-174,-2052,22,36,54,-267,-727,460,497
,135,2023-10-27 11:50:34.60,127,-183,-2072,21,-6,41,-401,-837,436,619
,136,2023-10-27 11:50:34.61,132,-184,-2062,19,5,33,-260,-710,450,485
,137,2023-10-27 11:50:34.62,129,-189,-2047,24,12,47,-395,-820,425,607
,138,2023-10-27 11:50:34.63,134,-182,-2038,17,-27,31,-249,-702,453,475
,139,2023-10-27 11:50:34.64,140,-180,-2039,15,27,42,-407,-851,444,629
,140,2023-10-27 11:50:34.65,125,-174,-2043,12,18,50,-277,-724,447,500
,141,2023-10-27 11:50:34.66,134,-175,-2044,3,-30,26,-431,-850,419,640
,142,2023-10-27 11:50:34.67,136,-183,-2041,2,15,31,-296,-703,407,499
,143,2023-10-27 11:50:34.68,155,-166,-2053,-3,7,41,-406,-801,395,603
,144,2023-10-27 11:50:34.69,132,-177,-2044,-10,12,19,-228,-666,438,447
,145,2023-10-27 11:50:34.70,136,-176,-2044,-6,61,34,-340,-795,455,567
,146,2023-10-27 11:50:34.71,148,-174,-2039,-1,18,25,-202,-669,467,435
,147,2023-10-27 11:50:34.72,148,-158,-2045,-1,38,10,-341,-801,460,571
,148,2023-10-27 11:50:34.73,144,-157,-2047,4,102,35,-208,-668,460,438
,149,2023-10-27 11:50:34.74,150,-153,-2048,0,59,13,-345,-793,448,569
,150,2023-10-27 11:50:34.75,143,-156,-2064,3,54,-6,-211,-664,453,437
,151,2023-10-27 11:50:34.76,142,-170,-2058,5,43,-7,-358,-807,449,582
,152,2023-10-27 11:50:34.77,139,-163,-2053,16,16,12,-234,-670,436,452
,153,2023-10-27 11:50:34.78,155,-167,-2043,15,-24,-15,-365,-796,431,580
,154,2023-10-27 11:50:34.79,144,-172,-2024,17,-1,5,-222,-655,433,438
,155,2023-10-27 11:50:34.80,152,-180,-2026,21,-5,28,-364,-791,427,577
,156,2023-10-27 11:50:34.81,147,-186,-2038,12,-12,12,-234,-646,412,440
,157,2023-10-27 11:50:34.82,155,-190,-2031,9,41,50,-362,-776,414,569
,158,2023-10-27 11:50:34.83,143,-185,-2024,8,21,50,-221,-650,429,435
,159,2023-10-27 11:50:34.84,156,-188,-2037,9,43,46,-365,-802,437,583
,160,2023-10-27 11:50:34.85,165,-184,-2053,14,82,79,-240,-661,421,450
,161,2023-10-27 11:50:34.86,170,-174,-2062,12,26,61,-385,-790,405,587
,162,2023-10-27 11:50:34.87,156,-172,-2068,11,30,57,-248,-635,387,441
,163,2023-10-27 11:50:34.88,173,-163,-2063,13,63,84,-356,-765,409,560
,164,2023-10-27 11:50:34.89,176,-160,-2061,2,28,58,-215,-629,414,422
,165,2023-10-27 11:50:34.90,179,-152,-2061,-7,57,63,-331,-774,443,552
,166,2023-10-27 11:50:34.91,179,-152,-2069,-16,41,66,-208,-646,438,427
,167,2023-10-27 11:50:34.92,173,-155,-2078,-30,6,47,-364,-791,427,577
,168,2023-10-27 11:50:34.93,169,-159,-2062,-33,31,57,-249,-639,390,444
,169,2023-10-27 11:50:34.94,170,-153,-2058,-31,44,76,-368,-764,396,566
,170,2023-10-27 11:50:34.95,167,-139,-2056,-43,-4,48,-240,-616,376,428
,171,2023-10-27 11:50:34.96,165,-135,-2057,-37,28,65,-361,-744,383,552
,172,2023-10-27 11:50:34.97,169,-138,-2052,-36,-15,58,-234,-613,379,423
,173,2023-10-27 11:50:34.98,161,-139,-2044,-33,-30,41,-328,-764,436,546
,174,2023-10-27 11:50:34.99,172,-125,-2025,-24,18,54,-185,-627,442,406
,175,2023-10-27 11:50:35.00,164,-133,-2030,-17,-5,53,-248,-760,512,504
,176,2023-10-27 11:50:35.01,156,-142,-2034,-11,-35,21,-131,-634,503,382
,177,2023-10-27 11:50:35.02,147,-162,-2051,10,11,47,-262,-777,515,519
,178,2023-10-27 11:50:35.03,146,-161,-2052,25,-41,40,-185,-639,454,412
,179,2023-10-27 11:50:35.04,152,-180,-2050,37,-48,40,-314,-766,452,540
,180,2023-10-27 11:50:35.05,149,-184,-2054,52,-13,69,-216,-630,414,423
,181,2023-10-27 11:50:35.06,148,-191,-2053,56,-58,58,-285,-754,469,519
,182,2023-10-27 11:50:35.07,152,-190,-2042,66,-28,75,-169,-637,468,403
,183,2023-10-27 11:50:35.08,143,-198,-2044,81,-18,105,-257,-774,517,515
,184,2023-10-27 11:50:35.09,144,-193,-2058,83,-54,89,-173,-646,473,409
,185,2023-10-27 11:50:35.10,145,-190,-2053,87,-10,105,-284,-766,482,525
,186,2023-10-27 11:50:35.11,146,-191,-2053,81,3,120,-190,-631,441,410
,187,2023-10-27 11:50:35.12,150,-197,-2054,71,-26,107,-254,-753,499,503
,188,2023-10-27 11:50:35.13,138,-204,-2045,75,13,140,-160,-644,484,402
,189,2023-10-27 11:50:35.14,138,-200,-2033,70,-9,134,-260,-775,515,517
,190,2023-10-27 11:50:35.15,137,-192,-2023,62,26,134,-182,-650,468,416
,191,2023-10-27 11:50:35.16,146,-183,-2031,61,10,146,-266,-761,495,513
,192,2023-10-27 11:50:35.17,149,-175,-2045,53,8,132,-178,-640,462,409
,193,2023-10-27 11:50:35.18,138,-177,-2061,47,59,159,-244,-764,520,504
,194,2023-10-27 11:50:35.19,141,-184,-2070,33,1,130,-164,-658,494,411
,195,2023-10-27 11:50:35.20,145,-175,-2067,39,16,138,-235,-769,534,502
,196,2023-10-27 11:50:35.21,149,-168,-2055,44,17,150,-174,-658,484,416
,197,2023-10-27 11:50:35.22,146,-160,-2046,36,-34,126,-277,-770,493,523
,198,2023-10-27 11:50:35.23,151,-166,-2039,36,6,136,-227,-665,438,446
,199,2023-10-27 11:50:35.24,162,-163,-2027,36,-6,131,-321,-779,458,550
,200,2023-10-27 11:50:35.25,149,-158,-2024,31,-11,101,-242,-673,431,457
,201,2023-10-27 11:50:35.26,166,-170,-2028,41,8,125,-262,-766,504,514
,202,2023-10-27 11:50:35.27,149,-166,-2038,37,-25,94,-165,-667,502,416
,203,2023-10-27 11:50:35.28,146,-187,-2044,42,19,95,-202,-775,573,488
,204,2023-10-27 11:50:35.29,140,-192,-2049,49,-24,101,-144,-688,544,416
,205,2023-10-27 11:50:35.30,143,-193,-2049,52,2,91,-190,-786,596,488
,206,2023-10-27 11:50:35.31,149,-202,-2037,65,-6,101,-146,-683,537,414
,207,2023-10-27 11:50:35.32,142,-187,-2043,75,-53,81,-196,-764,568,480
,208,2023-10-27 11:50:35.33,144,-183,-2040,83,2,103,-146,-682,536,414
,209,2023-10-27 11:50:35.34,154,-186,-2048,78,-13,99,-175,-784,609,479
,210,2023-10-27 11:50:35.35,133,-186,-2050,69,-14,68,-139,-704,565,421
,211,2023-10-27 11:50:35.36,153,-194,-2047,79,24,101,-202,-793,591,497
,212,2023-10-27 11:50:35.37,151,-201,-2041,82,-23,83,-190,-717,527,453
,213,2023-10-27 11:50:35.38,131,-196,-2055,78,-6,82,-224,-788,564,506
,214,2023-10-27 11:50:35.39,128,-206,-2055,82,-8,98,-196,-712,516,454
,215,2023-10-27 11:50:35.40,139,-199,-2039,80,-4,87,-251,-774,523,512
,216,2023-10-27 11:50:35.41,128,-210,-2027,83,15,97,-235,-709,474,472
,217,2023-10-27 11:50:35.42,147,-204,-2027,82,-6,98,-269,-786,517,527
,218,2023-10-27 11:50:35.43,151,-209,-2032,81,-23,80,-249,-729,480,489
,219,2023-10-27 11:50:35.44,138,-217,-2037,89,15,95,-276,-793,517,534
,220,2023-10-27 11:50:35.45,152,-213,-2045,98,10,114,-269,-751,482,510
,221,2023-10-27 11:50:35.46,159,-217,-2055,93,-34,90,-323,-818,495,570
,222,2023-10-27 11:50:35.47,149,-221,-2064,97,11,110,-316,-761,445,538
,223,2023-10-27 11:50:35.48,137,-228,-2065,92,-19,121,-344,-817,473,580
,224,2023-10-27 11:50:35.49,149,-236,-2070,91,-50,105,-337,-762,425,549
,225,2023-10-27 11:50:35.50,138,-228,-2050,91,-51,135,-342,-792,450,567
,226,2023-10-27 11:50:35.51,121,-226,-2047,82,-56,114,-322,-741,419,531
,227,2023-10-27 11:50:35.52,129,-236,-2037,88,-11,139,-330,-782,452,556
,228,2023-10-27 11:50:35.53,116,-233,-2037,89,-64,134,-328,-731,403,529
,229,2023-10-27 11:50:35.54,135,-223,-2024,91,-53,133,-310,-769,459,539
,230,2023-10-27 11:50:35.55,130,-223,-2011,87,-8,145,-305,-744,439,524
,231,2023-10-27 11:50:35.56,132,-229,-2017,84,-55,128,-298,-780,482,539
,232,2023-10-27 11:50:35.57,124,-236,-2033,86,-30,130,-296,-751,455,523
,233,2023-10-27 11:50:35.58,126,-247,-2045,95,-5,161,-270,-775,505,522
,234,2023-10-27 11:50:35.59,108,-249,-2042,94,-57,136,-262,-750,488,506
,235,2023-10-27 11:50:35.60,114,-260,-2038,97,-13,155,-217,-765,548,491
,236,2023-10-27 11:50:35.61,111,-253,-2029,106,-6,185,-230,-736,506,483
,237,2023-10-27 11:50:35.62,111,-249,-2015,104,-27,152,-209,-738,529,473
,238,2023-10-27 11:50:35.63,124,-259,-2020,117,8,173,-262,-705,443,483
,239,2023-10-27 11:50:35.64,124,-257,-2032,127,-24,152,-216,-720,504,468
,240,2023-10-27 11:50:35.65,135,-242,-2011,134,36,161,-236,-727,491,481
,241,2023-10-27 11:50:35.66,125,-248,-2027,133,-12,141,-196,-746,550,471
,242,2023-10-27 11:50:35.67,129,-255,-2027,131,6,123,-238,-757,519,497
,243,2023-10-27 11:50:35.68,147,-255,-2043,140,45,145,-194,-760,566,477
,244,2023-10-27 11:50:35.69,125,-266,-2050,130,-18,116,-250,-760,510,505
,245,2023-10-27 11:50:35.70,123,-269,-2065,128,9,111,-232,-741,509,486
,246,2023-10-27 11:50:35.71,125,-275,-2065,123,6,134,-295,-733,438,514
,247,2023-10-27 11:50:35.72,120,-277,-2064,110,-39,113,-253,-710,457,481
,248,2023-10-27 11:50:35.73,121,-266,-2056,98,-2,123,-310,-726,416,518
,249,2023-10-27 11:50:35.74,132,-267,-2030,87,-13,133,-254,-708,454,481
,250,2023-10-27 11:50:35.75,144,-258,-2016,76,-64,107,-319,-724,405,521
,251,2023-10-27 11:50:35.76,145,-263,-2011,72,-34,94,-267,-701,434,484
,252,2023-10-27 11:50:35.77,123,-253,-2037,66,-5,113,-337,-726,389,531
,253,2023-10-27 11:50:35.78,130,-279,-2046,54,-58,85,-279,-697,418,488
,254,2023-10-27 11:50:35.79,127,-282,-2067,48,-42,73,-353,-732,379,542
,255,2023-10-27 11:50:35.80,117,-284,-2075,49,-50,97,-288,-693,405,490
,256,2023-10-27 11:50:35.81,101,-303,-2065,45,-54,108,-346,-703,357,524
,257,2023-10-27 11:50:35.82,110,-329,-2061,45,-97,95,-254,-670,416,462
,258,2023-10-27 11:50:35.83,93,-338,-2053,62,-67,132,-337,-727,390,532
,259,2023-10-27 11:50:35.84,78,-345,-2034,80,-107,152,-270,-693,423,481
,260,2023-10-27 11:50:35.85,66,-366,-2031,83,-141,140,-341,-732,391,536
,261,2023-10-27 11:50:35.86,49,-378,-2049,92,-80,175,-244,-677,433,460
,262,2023-10-27 11:50:35.87,60,-371,-2029,94,-93,192,-287,-716,429,501
,263,2023-10-27 11:50:35.88,59,-339,-2012,91,-68,222,-167,-664,497,415
,264,2023-10-27 11:50:35.89,71,-327,-2008,71,-67,199,-265,-734,469,499
,265,2023-10-27 11:50:35.90,73,-314,-2003,67,-20,218,-195,-682,487,438
,266,2023-10-27 11:50:35.91,64,-312,-2009,61,-18,220,-295,-733,438,514
,267,2023-10-27 11:50:35.92,69,-297,-2017,41,-50,182,-198,-679,481,438
,268,2023-10-27 11:50:35.93,67,-299,-2005,26,-8,182,-316,-777,461,546
,269,2023-10-27 11:50:35.94,65,-282,-2015,25,8,185,-247,-708,461,477
,270,2023-10-27 11:50:35.95,76,-295,-2023,25,-35,158,-346,-738,392,542
,271,2023-10-27 11:50:35.96,86,-270,-2033,19,-19,142,-224,-651,427,437
,272,2023-10-27 11:50:35.97,97,-256,-2022,12,-30,143,-328,-739,411,533
,273,2023-10-27 11:50:35.98,86,-258,-2019,-6,-32,111,-234,-683,449,458
,274,2023-10-27 11:50:35.99,87,-257,-2019,-8,19,95,-352,-756,404,554
,275,2023-10-27 11:50:36.00,78,-271,-2027,4,-1,95,-241,-670,429,455
,276,2023-10-27 11:50:36.01,82,-273,-2054,9,-50,56,-338,-758,420,548
,277,2023-10-27 11:50:36.02,86,-278,-2064,23,-11,68,-215,-683,468,449
,278,2023-10-27 11:50:36.03,89,-277,-2061,14,-58,54,-341,-781,440,561
,279,2023-10-27 11:50:36.04,82,-298,-2054,3,-9,47,-240,-701,461,470
,280,2023-10-27 11:50:36.05,77,-316,-2043,9,-1,67,-380,-787,407,583
,281,2023-10-27 11:50:36.06,62,-324,-2049,15,-50,55,-273,-687,414,480
,282,2023-10-27 11:50:36.07,60,-350,-2033,32,-18,68,-400,-781,381,590
,283,2023-10-27 11:50:36.08,54,-337,-2018,47,-26,85,-274,-682,408,478
,284,2023-10-27 11:50:36.09,61,-327,-2003,48,-64,65,-385,-769,384,577
,285,2023-10-27 11:50:36.10,73,-316,-1988,53,2,81,-244,-676,432,460
,286,2023-10-27 11:50:36.11,64,-320,-1998,54,3,90,-353,-784,431,568
,287,2023-10-27 11:50:36.12,76,-307,-2023,49,-27,58,-212,-688,476,450
,288,2023-10-27 11:50:36.13,79,-317,-2039,51,25,84,-344,-789,445,566
,289,2023-10-27 11:50:36.14,70,-318,-2044,48,-35,66,-227,-682,455,454
,290,2023-10-27 11:50:36.15,70,-318,-2040,46,-37,57,-367,-791,424,579
,291,2023-10-27 11:50:36.16,61,-322,-2031,47,-27,83,-239,-689,450,464
,292,2023-10-27 11:50:36.17,63,-305,-2063,33,-76,56,-364,-800,436,582
,293,2023-10-27 11:50:36.18,61,-306,-2046,9,-50,55,-223,-701,478,462
,294,2023-10-27 11:50:36.19,56,-317,-2033,-1,3,77,-362,-834,472,598
,295,2023-10-27 11:50:36.20,51,-327,-2034,-6,-50,67,-239,-732,493,485
,296,2023-10-27 11:50:36.21,45,-326,-2042,-2,-47,53,-382,-850,468,616
,297,2023-10-27 11:50:36.22,44,-329,-2046,5,-19,77,-242,-721,479,481
,298,2023-10-27 11:50:36.23,64,-314,-2036,-3,-57,62,-374,-838,464,606
,299,2023-10-27 11:50:36.24,50,-311,-2032,-8,-15,54,-231,-712,481,471
,300,2023-10-27 11:50:36.25,51,-311,-2032,-7,13,62,-375,-828,453,601
,301,2023-10-27 11:50:36.26,48,-314,-2021,-6,-27,50,-255,-714,459,484
,302,2023-10-27 11:50:36.27,55,-304,-2028,-4,-16,34,-422,-859,437,640
,303,2023-10-27 11:50:36.28,55,-305,-2028,7,11,58,-298,-731,433,514
,304,2023-10-27 11:50:36.29,39,-323,-2031,10,-50,45,-457,-854,397,655
,305,2023-10-27 11:50:36.30,34,-322,-2046,14,-36,39,-317,-716,399,516
,306,2023-10-27 11:50:36.31,44,-325,-2038,27,-26,63,-468,-831,363,649
,307,2023-10-27 11:50:36.32,31,-332,-2045,30,-41,72,-330,-691,361,510
,308,2023-10-27 11:50:36.33,38,-326,-2020,27,-50,55,-456,-807,351,631
,309,2023-10-27 11:50:36.34,37,-317,-2026,37,-9,86,-291,-673,382,482
,310,2023-10-27 11:50:36.35,32,-314,-2017,36,-35,77,-434,-818,384,626
,311,2023-10-27 11:50:36.36,35,-317,-2021,32,-36,52,-295,-688,393,491
,312,2023-10-27 11:50:36.37,44,-305,-2022,31,19,78,-436,-812,376,624
,313,2023-10-27 11:50:36.38,32,-316,-2019,21,-12,65,-285,-672,387,478
,314,2023-10-27 11:50:36.39,34,-318,-2027,17,-18,36,-426,-803,377,614
,315,2023-10-27 11:50:36.40,30,-320,-2030,21,25,53,-277,-669,392,473
,316,2023-10-27 11:50:36.41,29,-312,-2030,25,-26,44,-414,-807,393,610
,317,2023-10-27 11:50:36.42,42,-296,-2031,22,-23,30,-272,-679,407,475
,318,2023-10-27 11:50:36.43,30,-302,-2021,21,19,48,-417,-822,405,619
,319,2023-10-27 11:50:36.44,43,-289,-2036,13,-11,33,-281,-690,409,485
,320,2023-10-27 11:50:36.45,34,-286,-2035,8,9,16,-441,-835,394,638
,321,2023-10-27 11:50:36.46,40,-291,-2025,8,24,13,-303,-693,390,498
,322,2023-10-27 11:50:36.47,47,-286,-2022,12,17,25,-447,-825,378,636
,323,2023-10-27 11:50:36.48,44,-294,-2026,7,-9,-3,-302,-679,377,490
,324,2023-10-27 11:50:36.49,43,-295,-2035,3,20,-12,-436,-808,372,622
,325,2023-10-27 11:50:36.50,46,-299,-2040,4,46,-6,-291,-662,371,476
,326,2023-10-27 11:50:36.51,59,-293,-2038,7,-17,-36,-421,-799,378,610
,327,2023-10-27 11:50:36.52,37,-304,-2035,12,-2,-45,-277,-663,386,470
,328,2023-10-27 11:50:36.53,36,-323,-2038,27,38,-23,-429,-809,380,619
,329,2023-10-27 11:50:36.54,41,-334,-2031,41,28,-21,-301,-667,366,484
,330,2023-10-27 11:50:36.55,52,-338,-2026,53,-7,-31,-459,-801,342,630
,331,2023-10-27 11:50:36.56,34,-350,-2031,55,-14,-46,-329,-649,320,489
,332,2023-10-27 11:50:36.57,44,-352,-2033,57,7,-33,-455,-774,319,614
,333,2023-10-27 11:50:36.58,51,-344,-2038,58,52,4,-309,-637,328,473
,334,2023-10-27 11:50:36.59,26,-343,-2027,46,35,1,-444,-783,339,613
,335,2023-10-27 11:50:36.60,48,-340,-2042,32,-9,-8,-309,-635,326,472
,336,2023-10-27 11:50:36.61,43,-332,-2032,18,5,-10,-415,-764,349,589
,337,2023-10-27 11:50:36.62,33,-329,-2026,5,21,5,-269,-638,369,453
,338,2023-10-27 11:50:36.63,52,-327,-2038,-2,49,21,-405,-786,381,595
,339,2023-10-27 11:50:36.64,47,-325,-2028,-11,15,11,-299,-657,358,478
,340,2023-10-27 11:50:36.65,62,-319,-2011,-11,43,3,-445,-794,349,619
,341,2023-10-27 11:50:36.66,51,-329,-2018,4,36,4,-324,-646,322,485
,342,2023-10-27 11:50:36.67,57,-330,-2022,21,6,12,-414,-767,353,590
,343,2023-10-27 11:50:36.68,51,-325,-2027,31,-10,-3,-267,-636,369,451
,344,2023-10-27 11:50:36.69,58,-329,-2032,32,-1,-10,-388,-782,394,585
,345,2023-10-27 11:50:36.70,45,-331,-2035,27,8,-23,-274,-651,377,462
,346,2023-10-27 11:50:36.71,71,-329,-2032,22,29,-11,-402,-791,389,596
,347,2023-10-27 11:50:36.72,69,-334,-2017,16,31,4,-295,-660,365,477
,348,2023-10-27 11:50:36.73,61,-326,-2020,5,3,-23,-423,-791,368,607
,349,2023-10-27 11:50:36.74,63,-333,-2033,1,23,-21,-312,-652,340,482
,350,2023-10-27 11:50:36.75,67,-340,-2047,1,29,10,-417,-774,357,595
,351,2023-10-27 11:50:36.76,70,-351,-2047,-3,-16,-4,-303,-640,337,471
,352,2023-10-27 11:50:36.77,63,-356,-2046,-1,-44,-10,-402,-758,356,580
,353,2023-10-27 11:50:36.78,69,-336,-2042,7,-21,7,-297,-629,332,463
,354,2023-10-27 11:50:36.79,53,-330,-2043,12,-42,26,-416,-758,342,587
,355,2023-10-27 11:50:36.80,58,-329,-2058,8,-47,24,-318,-640,322,479
,356,2023-10-27 11:50:36.81,60,-323,-2050,0,-56,11,-424,-766,342,595
,357,2023-10-27 11:50:36.82,43,-324,-2040,10,-25,34,-324,-655,331,489
,358,2023-10-27 11:50:36.83,45,-309,-2027,8,-50,38,-440,-775,335,607
,359,2023-10-27 11:50:36.84,37,-319,-2023,12,-64,45,-350,-650,300,500
,360,2023-10-27 11:50:36.85,39,-325,-2001,15,-68,29,-460,-762,302,611
,361,2023-10-27 11:50:36.86,40,-327,-1998,30,-13,52,-368,-646,278,507
,362,2023-10-27 11:50:36.87,41,-332,-2006,37,-11,52,-450,-758,308,604
,363,2023-10-27 11:50:36.88,33,-323,-2015,34,-49,26,-347,-664,317,505
,364,2023-10-27 11:50:36.89,39,-326,-2011,33,-17,14,-461,-791,330,626
,365,2023-10-27 11:50:36.90,34,-334,-2014,32,16,29,-384,-678,294,531
,366,2023-10-27 11:50:36.91,34,-323,-2047,22,20,39,-462,-774,312,618
,367,2023-10-27 11:50:36.92,36,-327,-2058,6,3,33,-362,-670,308,516
,368,2023-10-27 11:50:36.93,32,-333,-2056,-14,-21,11,-432,-773,341,602
,369,2023-10-27 11:50:36.94,41,-326,-2039,-26,-4,33,-350,-685,335,517
,370,2023-10-27 11:50:36.95,28,-329,-2020,-36,3,21,-434,-792,358,613
,371,2023-10-27 11:50:36.96,43,-323,-2015,-39,41,40,-362,-697,335,529
,372,2023-10-27 11:50:36.97,50,-305,-2024,-50,12,22,-443,-789,346,616
,373,2023-10-27 11:50:36.98,50,-296,-2025,-53,34,23,-373,-699,326,536
,374,2023-10-27 11:50:36.99,49,-282,-2024,-52,60,4,-446,-789,343,617
,375,2023-10-27 11:50:37.00,62,-283,-2026,-38,66,13,-384,-718,334,551
,376,2023-10-27 11:50:37.01,58,-289,-2041,-30,33,-13,-465,-806,341,635
,377,2023-10-27 11:50:37.02,47,-294,-2031,-14,13,-31,-409,-707,298,558
,378,2023-10-27 11:50:37.03,62,-310,-2024,7,21,-32,-462,-770,308,616
,379,2023-10-27 11:50:37.04,66,-316,-2016,32,15,-20,-394,-678,284,536
,380,2023-10-27 11:50:37.05,61,-325,-2030,43,-4,-32,-440,-755,315,597
,381,2023-10-27 11:50:37.06,62,-335,-2036,42,-13,-40,-376,-687,311,531
,382,2023-10-27 11:50:37.07,59,-341,-2048,37,38,-23,-420,-762,342,591
,383,2023-10-27 11:50:37.08,65,-354,-2048,33,21,-7,-376,-696,320,536
,384,2023-10-27 11:50:37.09,55,-354,-2048,17,-1,-11,-419,-765,346,592
,385,2023-10-27 11:50:37.10,65,-356,-2047,13,-5,-2,-384,-703,319,543
,386,2023-10-27 11:50:37.11,54,-354,-2042,12,30,31,-410,-752,342,581
,387,2023-10-27 11:50:37.12,58,-349,-2038,9,2,28,-370,-698,328,534
,388,2023-10-27 11:50:37.13,51,-349,-2036,2,-38,19,-407,-759,352,583
,389,2023-10-27 11:50:37.14,44,-350,-2033,0,-31,25,-386,-702,316,544
,390,2023-10-27 11:50:37.15,66,-343,-2027,1,-20,37,-411,-744,333,577
,391,2023-10-27 11:50:37.16,50,-337,-2022,-1,-35,36,-380,-696,316,538
,392,2023-10-27 11:50:37.17,51,-330,-2023,-5,-23,57,-396,-739,343,567
,393,2023-10-27 11:50:37.18,51,-321,-2026,-15,-44,41,-380,-696,316,538
,394,2023-10-27 11:50:37.19,45,-316,-2020,-24,-6,45,-409,-733,324,571
,395,2023-10-27 11:50:37.20,38,-313,-2020,-25,-1,51,-397,-680,283,538
,396,2023-10-27 11:50:37.21,50,-310,-2018,-24,-46,46,-370,-708,338,539
,397,2023-10-27 11:50:37.22,53,-310,-2009,-18,-48,27,-353,-702,349,527
,398,2023-10-27 11:50:37.23,60,-309,-2011,-8,-14,40,-369,-745,376,557
,399,2023-10-27 11:50:37.24,62,-313,-2016,-2,-12,36,-398,-723,325,560
,400,2023-10-27 11:50:37.25,42,-315,-2031,1,-31,23,-417,-735,318,576
,401,2023-10-27 11:50:37.26,42,-317,-2043,11,5,36,-426,-689,263,557
,402,2023-10-27 11:50:37.27,36,-309,-2048,11,-10,37,-417,-698,281,557
,403,2023-10-27 11:50:37.28,36,-310,-2051,4,-45,29,-427,-685,258,556
,404,2023-10-27 11:50:37.29,28,-306,-2059,-10,-45,16,-409,-703,294,556
,405,2023-10-27 11:50:37.30,33,-322,-2051,-12,-23,30,-437,-700,263,568
,406,2023-10-27 11:50:37.31,28,-325,-2034,-12,3,54,-422,-707,285,564
,407,2023-10-27 11:50:37.32,33,-321,-2026,-12,-42,37,-443,-696,253,569
,408,2023-10-27 11:50:37.33,10,-329,-2024,-7,15,52,-417,-698,281,557
,409,2023-10-27 11:50:37.34,4,-341,-2020,-2,11,55,-452,-714,262,583
,410,2023-10-27 11:50:37.35,9,-332,-2026,5,-12,49,-428,-710,282,569
,411,2023-10-27 11:50:37.36,22,-328,-2020,8,-5,40,-486,-754,268,620
,412,2023-10-27 11:50:37.37,13,-325,-2017,16,32,55,-520,-838,318,679
,413,2023-10-27 11:50:37.38,27,-320,-2031,22,20,64,-455,-820,365,637
,414,2023-10-27 11:50:37.39,21,-312,-2022,21,2,40,-405,-802,397,603
,415,2023-10-27 11:50:37.40,16,-317,-2026,19,43,49,-413,-767,354,590
,416,2023-10-27 11:50:37.41,39,-310,-2032,14,59,56,-441,-768,327,604
,417,2023-10-27 11:50:37.42,35,-300,-2031,2,16,29,-477,-766,289,621
,418,2023-10-27 11:50:37.43,32,-300,-2027,0,47,27,-489,-774,285,631
,419,2023-10-27 11:50:37.44,43,-296,-2032,-8,44,23,-514,-772,258,643
,420,2023-10-27 11:50:37.45,40,-297,-2030,-21,9,-1,-509,-764,255,636
,421,2023-10-27 11:50:37.46,44,-296,-2018,-28,24,-21,-537,-774,237,655
,422,2023-10-27 11:50:37.47,54,-295,-2030,-27,40,-12,-528,-763,235,645
,423,2023-10-27 11:50:37.48,49,-301,-2031,-22,48,-3,-552,-770,218,661
,424,2023-10-27 11:50:37.49,55,-310,-2036,-20,1,-26,-537,-757,220,647
,425,2023-10-27 11:50:37.50,53,-308,-2048,-13,37,-14,-575,-774,199,674
,426,2023-10-27 11:50:37.51,55,-310,-2053,-6,19,-6,-553,-753,200,653
,427,2023-10-27 11:50:37.52,47,-309,-2051,-3,-32,-18,-584,-769,185,676
,428,2023-10-27 11:50:37.53,56,-308,-2048,-10,-11,-13,-576,-751,175,663
,429,2023-10-27 11:50:37.54,53,-313,-2051,-11,30,8,-674,-781,107,727
,430,2023-10-27 11:50:37.55,36,-329,-2049,-5,3,17,-567,-684,117,625
,431,2023-10-27 11:50:37.56,41,-334,-2040,6,-25,6,-596,-702,106,649
,432,2023-10-27 11:50:37.57,28,-331,-2038,13,-45,3,-458,-638,180,548
,433,2023-10-27 11:50:37.58,46,-320,-2026,20,-1,15,-507,-719,212,613
,434,2023-10-27 11:50:37.59,43,-302,-2021,17,20,31,-398,-670,272,534
,435,2023-10-27 11:50:37.60,31,-307,-2021,4,50,29,-490,-748,258,619
,436,2023-10-27 11:50:37.61,38,-304,-2018,-4,7,2,-398,-673,275,535
,437,2023-10-27 11:50:37.62,39,-302,-2032,2,15,-8,-486,-738,252,612
,438,2023-10-27 11:50:37.63,39,-303,-2019,4,22,-4,-367,-659,292,513
,439,2023-10-27 11:50:37.64,39,-296,-2028,7,21,8,-471,-734,263,602
,440,2023-10-27 11:50:37.65,27,-304,-2031,-9,1,-15,-371,-654,283,512
,441,2023-10-27 11:50:37.66,12,-306,-2027,-9,6,-24,-472,-736,264,604
,442,2023-10-27 11:50:37.67,21,-308,-2050,-2,1,-27,-352,-654,302,503
,443,2023-10-27 11:50:37.68,29,-306,-2048,8,-6,-11,-447,-734,287,590
,444,2023-10-27 11:50:37.69,30,-298,-2037,-4,-48,-30,-328,-649,321,488
,445,2023-10-27 11:50:37.70,22,-301,-2030,-18,-36,-37,-440,-759,319,599
,446,2023-10-27 11:50:37.71,35,-321,-2031,-21,11,-33,-333,-686,353,509
,447,2023-10-27 11:50:37.72,25,-319,-2026,-11,34,-9,-456,-791,335,623
,448,2023-10-27 11:50:37.73,28,-322,-2037,-2,5,-10,-339,-692,353,515
,449,2023-10-27 11:50:37.74,34,-299,-2043,-5,-28,-24,-463,-800,337,631
,450,2023-10-27 11:50:37.75,40,-289,-2039,-13,-4,-13,-352,-692,340,522
,451,2023-10-27 11:50:37.76,38,-299,-2032,-20,25,-18,-482,-775,293,628
,452,2023-10-27 11:50:37.77,22,-307,-2034,-17,21,-20,-354,-663,309,508
,453,2023-10-27 11:50:37.78,48,-296,-2020,-1,49,7,-481,-767,286,624
,454,2023-10-27 11:50:37.79,58,-291,-2025,2,13,-6,-355,-662,307,508
,455,2023-10-27 11:50:37.80,38,-295,-2016,0,22,-13,-484,-781,297,632
,456,2023-10-27 11:50:37.81,45,-301,-2028,12,23,-32,-357,-671,314,514
,457,2023-10-27 11:50:37.82,46,-292,-2041,31,58,-6,-494,-784,290,639
,458,2023-10-27 11:50:37.83,55,-283,-2044,28,30,-22,-362,-659,297,510
,459,2023-10-27 11:50:37.84,44,-298,-2037,14,15,-28,-495,-753,258,624
,460,2023-10-27 11:50:37.85,49,-303,-2034,9,16,-50,-357,-639,282,498
,461,2023-10-27 11:50:37.86,42,-306,-2038,19,48,-32,-497,-778,281,637
,462,2023-10-27 11:50:37.87,34,-313,-2027,21,49,-39,-361,-660,299,510
,463,2023-10-27 11:50:37.88,53,-328,-2038,30,-1,-43,-486,-759,273,622
,464,2023-10-27 11:50:37.89,58,-322,-2042,28,-18,-61,-328,-624,296,476
,465,2023-10-27 11:50:37.90,38,-326,-2039,28,-5,-61,-473,-748,275,610
,466,2023-10-27 11:50:37.91,29,-315,-2036,28,46,-27,-340,-633,293,486
,467,2023-10-27 11:50:37.92,43,-312,-2031,11,14,-35,-493,-770,277,631
,468,2023-10-27 11:50:37.93,45,-311,-2028,-6,19,-47,-349,-635,286,492
,469,2023-10-27 11:50:37.94,33,-316,-2025,-13,38,-47,-490,-753,263,621
,470,2023-10-27 11:50:37.95,42,-310,-2028,-7,50,-25,-348,-622,274,485
,471,2023-10-27 11:50:37.96,47,-312,-2034,-17,4,-44,-488,-743,255,615
,472,2023-10-27 11:50:37.97,54,-313,-2032,-20,5,-44,-340,-612,272,476
,473,2023-10-27 11:50:37.98,63,-306,-2027,-20,52,-30,-457,-751,294,604
,474,2023-10-27 11:50:37.99,62,-303,-2012,-18,48,-17,-297,-623,326,460
,475,2023-10-27 11:50:38.00,53,-296,-2023,-10,67,-24,-437,-754,317,595
,476,2023-10-27 11:50:38.01,61,-296,-2026,6,27,-32,-299,-625,326,462
,477,2023-10-27 11:50:38.02,71,-290,-2020,13,19,-55,-461,-785,324,623
,478,2023-10-27 11:50:38.03,57,-278,-2024,20,72,-49,-335,-657,322,496
,479,2023-10-27 11:50:38.04,81,-283,-2036,14,73,-57,-488,-798,310,643
,480,2023-10-27 11:50:38.05,70,-290,-2043,14,48,-60,-342,-650,308,496
,481,2023-10-27 11:50:38.06,79,-309,-2048,13,11,-90,-479,-772,293,625
,482,2023-10-27 11:50:38.07,67,-298,-2062,12,17,-76,-330,-631,301,480
,483,2023-10-27 11:50:38.08,67,-301,-2047,4,14,-81,-490,-779,289,634
,484,2023-10-27 11:50:38.09,71,-321,-2051,4,39,-63,-356,-641,285,498
,485,2023-10-27 11:50:38.10,73,-321,-2050,6,10,-50,-510,-774,264,642
,486,2023-10-27 11:50:38.11,82,-329,-2040,11,-6,-44,-361,-625,264,493
,487,2023-10-27 11:50:38.12,82,-321,-2050,13,-25,-56,-497,-757,260,627
,488,2023-10-27 11:50:38.13,66,-313,-2033,10,33,-37,-348,-620,272,484
,489,2023-10-27 11:50:38.14,74,-320,-2031,11,46,-24,-499,-763,264,631
,490,2023-10-27 11:50:38.15,86,-316,-2033,18,22,-13,-358,-618,260,488
,491,2023-10-27 11:50:38.16,77,-322,-2024,14,14,-14,-501,-757,256,629
,492,2023-10-27 11:50:38.17,76,-323,-2043,12,12,-20,-358,-613,255,485
,493,2023-10-27 11:50:38.18,67,-312,-2039,15,6,-16,-492,-753,261,622
,494,2023-10-27 11:50:38.19,72,-309,-2033,17,27,5,-342,-615,273,478
,495,2023-10-27 11:50:38.20,70,-310,-2029,14,13,10,-485,-762,277,623
,496,2023-10-27 11:50:38.21,73,-301,-2021,10,2,5,-350,-620,270,485
,497,2023-10-27 11:50:38.22,81,-292,-2035,1,6,-15,-490,-760,270,625
,498,2023-10-27 11:50:38.23,85,-294,-2028,-3,38,-11,-346,-618,272,482
,499,2023-10-27 11:50:38.24,75,-304,-2029,-2,40,-1,-487,-768,281,627
,500,2023-10-27 11:50:38.25,82,-307,-2045,7,31,12,-354,-627,273,490
,501,2023-10-27 11:50:38.26,92,-305,-2040,2,2,-5,-477,-761,284,619
,502,2023-10-27 11:50:38.27,78,-314,-2050,6,18,-5,-338,-620,282,479
,503,2023-10-27 11:50:38.28,79,-329,-2050,11,4,-1,-452,-760,308,606
,504,2023-10-27 11:50:38.29,69,-325,-2053,26,13,19,-318,-628,310,473
,505,2023-10-27 11:50:38.30,80,-302,-2039,35,-12,24,-452,-770,318,611
,506,2023-10-27 11:50:38.31,90,-311,-2019,38,-5,24,-336,-621,285,478
,507,2023-10-27 11:50:38.32,83,-307,-2027,30,-27,9,-441,-739,298,590
,508,2023-10-27 11:50:38.33,73,-318,-2036,29,0,19,-299,-617,318,458
,509,2023-10-27 11:50:38.34,65,-331,-2039,26,3,11,-420,-772,352,596
,510,2023-10-27 11:50:38.35,70,-335,-2045,27,-25,13,-310,-634,324,472
,511,2023-10-27 11:50:38.36,59,-334,-2055,29,12,46,-427,-751,324,589
,512,2023-10-27 11:50:38.37,66,-330,-2021,27,-9,58,-309,-621,312,465
,513,2023-10-27 11:50:38.38,61,-323,-2016,15,-11,54,-442,-759,317,600
,514,2023-10-27 11:50:38.39,63,-313,-2021,4,-24,35,-338,-632,294,485
,515,2023-10-27 11:50:38.40,66,-302,-2020,2,-1,38,-458,-758,300,608
,516,2023-10-27 11:50:38.41,54,-312,-2028,3,3,31,-341,-630,289,485
,517,2023-10-27 11:50:38.42,67,-302,-2040,5,-3,38,-445,-762,317,603
,518,2023-10-27 11:50:38.43,64,-297,-2034,4,-13,24,-331,-636,305,483
,519,2023-10-27 11:50:38.44,65,-301,-2039,4,21,33,-437,-764,327,600
,520,2023-10-27 11:50:38.45,63,-295,-2049,2,11,33,-332,-648,316,490
,521,2023-10-27 11:50:38.46,72,-296,-2050,1,10,30,-446,-771,325,608
,522,2023-10-27 11:50:38.47,56,-291,-2044,-6,-14,3,-348,-660,312,504
,523,2023-10-27 11:50:38.48,55,-297,-2047,-5,29,10,-462,-779,317,620
,524,2023-10-27 11:50:38.49,58,-297,-2023,-9,36,8,-358,-647,289,502
,525,2023-10-27 11:50:38.50,51,-293,-2017,-6,36,11,-419,-749,330,584
,526,2023-10-27 11:50:38.51,71,-292,-2005,-9,18,-13,-306,-637,331,471
,527,2023-10-27 11:50:38.52,83,-288,-2013,-12,44,-32,-377,-750,373,563
,528,2023-10-27 11:50:38.53,81,-292,-2010,-16,46,-48,-292,-646,354,469
,529,2023-10-27 11:50:38.54,83,-302,-2019,-12,77,-53,-405,-761,356,583
,530,2023-10-27 11:50:38.55,78,-313,-2027,-7,107,-35,-336,-640,304,488
,531,2023-10-27 11:50:38.56,77,-313,-2040,-8,96,-36,-404,-733,329,568
,532,2023-10-27 11:50:38.57,80,-318,-2046,-16,47,-63,-297,-619,322,458
,533,2023-10-27 11:50:38.58,91,-313,-2055,-22,62,-61,-322,-723,401,522
,534,2023-10-27 11:50:38.59,84,-316,-2044,-23,69,-40,-249,-635,386,442
,535,2023-10-27 11:50:38.60,83,-310,-2042,-20,63,-23,-350,-742,392,546
,536,2023-10-27 11:50:38.61,93,-301,-2031,-26,19,-25,-308,-654,346,481
,537,2023-10-27 11:50:38.62,103,-287,-2038,-37,26,-41,-393,-745,352,569
,538,2023-10-27 11:50:38.63,100,-289,-2030,-47,24,-40,-331,-658,327,494
,539,2023-10-27 11:50:38.64,105,-291,-2023,-40,43,-21,-398,-751,353,574
,540,2023-10-27 11:50:38.65,102,-299,-2025,-37,-11,-36,-338,-645,307,491
,541,2023-10-27 11:50:38.66,113,-283,-2036,-29,-5,-46,-378,-714,336,546
,542,2023-10-27 11:50:38.67,108,-279,-2027,-24,42,-35,-296,-627,331,461
,543,2023-10-27 11:50:38.68,92,-296,-2028,-16,33,-23,-320,-722,402,521
,544,2023-10-27 11:50:38.69,104,-292,-2041,-2,-15,-43,-269,-660,391,464
,545,2023-10-27 11:50:38.70,95,-297,-2055,9,-28,-53,-329,-747,418,538
,546,2023-10-27 11:50:38.71,90,-298,-2049,7,22,-40,-297,-659,362,478
,547,2023-10-27 11:50:38.72,100,-303,-2051,13,2,-29,-363,-723,360,543
,548,2023-10-27 11:50:38.73,86,-297,-2045,10,2,-33,-334,-647,313,490
,549,2023-10-27 11:50:38.74,103,-290,-2043,11,-27,-56,-375,-716,341,545
,550,2023-10-27 11:50:38.75,101,-292,-2049,15,10,-40,-341,-659,318,500
,551,2023-10-27 11:50:38.76,85,-282,-2038,21,4,-37,-384,-725,341,554
,552,2023-10-27 11:50:38.77,77,-279,-2042,21,-2,-29,-352,-661,309,506
,553,2023-10-27 11:50:38.78,102,-280,-2043,14,-36,-59,-368,-714,346,541
,554,2023-10-27 11:50:38.79,89,-275,-2035,10,-7,-55,-335,-665,330,500
,555,2023-10-27 11:50:38.80,79,-278,-2045,2,-11,-57,-351,-722,371,536
,556,2023-10-27 11:50:38.81,62,-288,-2030,9,-39,-42,-331,-669,338,500
,557,2023-10-27 11:50:38.82,57,-299,-2025,25,-117,-65,-335,-714,379,524
,558,2023-10-27 11:50:38.83,63,-301,-2023,46,-133,-60,-316,-676,360,496
,559,2023-10-27 11:50:38.84,58,-288,-2018,62,-104,-39,-320,-726,406,523
,560,2023-10-27 11:50:38.85,63,-289,-2004,68,-105,-33,-330,-702,372,516
,561,2023-10-27 11:50:38.86,59,-290,-2013,62,-111,-42,-367,-737,370,552
,562,2023-10-27 11:50:38.87,49,-313,-2001,51,-80,-39,-382,-692,310,537
,563,2023-10-27 11:50:38.88,50,-320,-2027,47,-48,-53,-381,-711,330,546
,564,2023-10-27 11:50:38.89,31,-334,-2008,49,9,-44,-376,-668,292,522
,565,2023-10-27 11:50:38.90,35,-348,-2008,62,-7,-44,-351,-687,336,519
,566,2023-10-27 11:50:38.91,43,-340,-2013,79,31,-19,-353,-676,323,514
,567,2023-10-27 11:50:38.92,34,-332,-2032,88,8,-19,-343,-704,361,523
,568,2023-10-27 11:50:38.93,34,-317,-2030,85,1,-36,-354,-674,320,514
,569,2023-10-27 11:50:38.94,58,-307,-2047,80,-1,-49,-299,-673,374,486
,570,2023-10-27 11:50:38.95,58,-297,-2031,58,43,-46,-310,-672,362,491
,571,2023-10-27 11:50:38.96,53,-289,-2019,33,39,-51,-297,-688,391,492
,572,2023-10-27 11:50:38.97,48,-295,-2054,2,39,-58,-367,-645,278,506
,573,2023-10-27 11:50:38.98,48,-295,-2072,-18,10,-86,-325,-632,307,478
,574,2023-10-27 11:50:38.99,74,-289,-2064,-41,-2,-95,-332,-658,326,495
,575,2023-10-27 11:50:39.00,68,-314,-2056,-55,-6,-99,-293,-674,381,483
,576,2023-10-27 11:50:39.01,62,-298,-2008,-67,39,-96,-348,-678,330,513
,577,2023-10-27 11:50:39.02,89,-303,-1999,-79,39,-110,-310,-663,353,486
,578,2023-10-27 11:50:39.03,83,-310,-1978,-79,52,-136,-354,-688,334,521
,579,2023-10-27 11:50:39.04,70,-309,-1994,-77,84,-152,-279,-703,424,491
,580,2023-10-27 11:50:39.05,78,-311,-2030,-53,120,-137,-226,-715,489,470
,581,2023-10-27 11:50:39.06,90,-287,-2058,-39,82,-132,-227,-754,527,490
,582,2023-10-27 11:50:39.07,88,-266,-2048,-42,90,-130,-312,-773,461,542
,583,2023-10-27 11:50:39.08,97,-285,-2041,-63,64,-129,-364,-776,412,570
,584,2023-10-27 11:50:39.09,92,-295,-2029,-79,68,-138,-422,-777,355,599
,585,2023-10-27 11:50:39.10,106,-290,-2032,-79,85,-123,-404,-757,353,580
,586,2023-10-27 11:50:39.11,95,-305,-2013,-58,80,-110,-440,-763,323,601
,587,2023-10-27 11:50:39.12,106,-325,-1986,-26,93,-89,-435,-750,315,592
,588,2023-10-27 11:50:39.13,122,-308,-2020,-4,61,-89,-486,-768,282,627
,589,2023-10-27 11:50:39.14,124,-288,-2051,9,58,-84,-477,-756,279,616
,590,2023-10-27 11:50:39.15,119,-286,-2047,11,69,-85,-532,-781,249,656
,591,2023-10-27 11:50:39.16,122,-299,-2043,9,94,-67,-513,-754,241,633
,592,2023-10-27 11:50:39.17,127,-302,-2069,4,79,-58,-556,-772,216,664
,593,2023-10-27 11:50:39.18,141,-285,-2074,-1,85,-46,-523,-739,216,631
,594,2023-10-27 11:50:39.19,135,-271,-2058,-20,53,-57,-573,-769,196,671
,595,2023-10-27 11:50:39.20,150,-266,-2055,-40,86,-52,-532,-733,201,632
,596,2023-10-27 11:50:39.21,141,-277,-2036,-52,73,-54,-574,-762,188,668
,597,2023-10-27 11:50:39.22,151,-269,-2039,-65,43,-53,-522,-722,200,622
,598,2023-10-27 11:50:39.23,152,-264,-2041,-80,14,-73,-579,-760,181,669
,599,2023-10-27 11:50:39.24,157,-284,-2041,-83,21,-67,-527,-714,187,620
,600,2023-10-27 11:50:39.25,154,-288,-2050,-83,27,-64,-585,-759,174,672
,601,2023-10-27 11:50:39.26,152,-284,-2050,-78,24,-44,-527,-710,183,618
,602,2023-10-27 11:50:39.27,146,-284,-2038,-74,-10,-50,-589,-758,169,673
,603,2023-10-27 11:50:39.28,152,-286,-2046,-65,-10,-46,-526,-701,175,613
,604,2023-10-27 11:50:39.29,145,-289,-2049,-60,34,-28,-601,-762,161,681
,605,2023-10-27 11:50:39.30,152,-274,-2047,-47,41,-11,-538,-705,167,621
,606,2023-10-27 11:50:39.31,155,-272,-2044,-34,29,-13,-619,-770,151,694
,607,2023-10-27 11:50:39.32,140,-271,-2041,-23,-13,-16,-552,-713,161,632
,608,2023-10-27 11:50:39.33,149,-262,-2036,-7,-19,-18,-637,-781,144,709
,609,2023-10-27 11:50:39.34,149,-276,-2024,11,-15,-21,-566,-714,148,640
,610,2023-10-27 11:50:39.35,136,-275,-2025,30,-22,-26,-646,-781,135,713
,611,2023-10-27 11:50:39.36,135,-273,-2035,42,-9,-19,-576,-717,141,646
,612,2023-10-27 11:50:39.37,139,-283,-2033,51,-5,-3,-678,-780,102,729
,613,2023-10-27 11:50:39.38,128,-287,-2041,49,-15,-7,-514,-632,118,573
,614,2023-10-27 11:50:39.39,116,-299,-2043,40,-39,-17,-572,-697,125,634
,615,2023-10-27 11:50:39.40,125,-296,-2052,33,-40,-16,-396,-604,208,500
,616,2023-10-27 11:50:39.41,112,-304,-2049,30,-14,6,-495,-734,239,614
,617,2023-10-27 11:50:39.42,132,-301,-2039,23,-2,12,-364,-638,274,501
,618,2023-10-27 11:50:39.43,126,-297,-2029,19,7,28,-495,-739,244,617
,619,2023-10-27 11:50:39.44,115,-290,-2038,0,-16,21,-370,-628,258,499
,620,2023-10-27 11:50:39.45,121,-277,-2031,-6,10,37,-482,-726,244,604
,621,2023-10-27 11:50:39.46,120,-278,-2029,-17,-17,20,-327,-624,297,475
,622,2023-10-27 11:50:39.47,119,-278,-2031,-21,-8,21,-447,-748,301,597
,623,2023-10-27 11:50:39.48,122,-273,-2031,-23,9,29,-324,-640,316,482
,624,2023-10-27 11:50:39.49,119,-269,-2038,-23,26,33,-469,-747,278,608
,625,2023-10-27 11:50:39.50,119,-259,-2029,-22,7,32,-351,-633,282,492
,626,2023-10-27 11:50:39.51,127,-256,-2031,-28,-22,16,-472,-742,270,607
,627,2023-10-27 11:50:39.52,135,-258,-2035,-29,-4,7,-329,-626,297,477
,628,2023-10-27 11:50:39.53,129,-256,-2033,-26,-12,5,-454,-739,285,596
,629,2023-10-27 11:50:39.54,126,-256,-2035,-22,29,11,-307,-620,313,463
,630,2023-10-27 11:50:39.55,130,-259,-2040,-13,26,17,-435,-739,304,587
,631,2023-10-27 11:50:39.56,145,-257,-2038,-8,8,16,-300,-622,322,461
,632,2023-10-27 11:50:39.57,124,-263,-2043,4,4,-1,-442,-753,311,597
,633,2023-10-27 11:50:39.58,120,-272,-2044,6,-7,-5,-308,-628,320,468
,634,2023-10-27 11:50:39.59,133,-274,-2053,10,10,15,-451,-762,311,606
,635,2023-10-27 11:50:39.60,119,-271,-2047,7,-24,20,-314,-632,318,473
,636,2023-10-27 11:50:39.61,130,-270,-2048,0,-26,13,-456,-746,290,601
,637,2023-10-27 11:50:39.62,124,-271,-2035,-14,-35,1,-314,-613,299,463
,638,2023-10-27 11:50:39.63,117,-276,-2032,-17,-17,10,-445,-745,300,595
,639,2023-10-27 11:50:39.64,122,-274,-2042,-8,-17,28,-299,-621,322,460
,640,2023-10-27 11:50:39.65,121,-259,-2036,-4,-22,35,-459,-775,316,617
,641,2023-10-27 11:50:39.66,114,-259,-2039,-12,-13,40,-329,-637,308,483
,642,2023-10-27 11:50:39.67,117,-256,-2029,-21,-40,16,-464,-751,287,607
,643,2023-10-27 11:50:39.68,119,-259,-2029,-14,-35,32,-307,-610,303,458
,644,2023-10-27 11:50:39.69,104,-253,-2035,-6,-46,7,-438,-748,310,593
,645,2023-10-27 11:50:39.70,107,-239,-2028,-3,-18,11,-294,-621,327,457
,646,2023-10-27 11:50:39.71,96,-240,-2039,-12,6,9,-431,-761,330,596
,647,2023-10-27 11:50:39.72,102,-244,-2044,-12,29,24,-285,-619,334,452
,648,2023-10-27 11:50:39.73,114,-249,-2035,-5,-11,11,-413,-746,333,579
,649,2023-10-27 11:50:39.74,116,-242,-2038,-1,-34,-11,-269,-607,338,438
,650,2023-10-27 11:50:39.75,122,-245,-2034,-4,-29,-13,-400,-745,345,572
,651,2023-10-27 11:50:39.76,119,-249,-2037,-9,14,-5,-258,-618,360,438
,652,2023-10-27 11:50:39.77,124,-245,-2044,-8,15,9,-414,-779,365,596
,653,2023-10-27 11:50:39.78,116,-254,-2038,-9,-8,-2,-289,-637,348,463
,654,2023-10-27 11:50:39.79,116,-261,-2041,-2,-38,-25,-452,-764,312,608
,655,2023-10-27 11:50:39.80,120,-257,-2042,-1,-23,-23,-324,-622,298,473
,656,2023-10-27 11:50:39.81,116,-256,-2039,1,11,-6,-480,-776,296,628
,657,2023-10-27 11:50:39.82,116,-258,-2047,-5,28,-3,-349,-629,280,489
,658,2023-10-27 11:50:39.83,111,-262,-2039,-3,2,3,-485,-753,268,619
,659,2023-10-27 11:50:39.84,116,-271,-2028,0,-16,-17,-333,-614,281,473
,660,2023-10-27 11:50:39.85,108,-261,-2036,7,-11,-8,-475,-769,294,622
,661,2023-10-27 11:50:39.86,118,-262,-2049,10,9,0,-340,-626,286,483
,662,2023-10-27 11:50:39.87,112,-256,-2043,8,42,16,-483,-758,275,620
,663,2023-10-27 11:50:39.88,123,-263,-2036,2,23,17,-344,-619,275,481
,664,2023-10-27 11:50:39.89,113,-268,-2042,7,13,25,-490,-775,285,632
,665,2023-10-27 11:50:39.90,117,-256,-2038,8,-26,9,-358,-640,282,499
,666,2023-10-27 11:50:39.91,121,-254,-2035,9,-6,8,-505,-781,276,643
,667,2023-10-27 11:50:39.92,120,-249,-2035,1,-18,-4,-363,-636,273,499
,668,2023-10-27 11:50:39.93,119,-247,-2038,1,23,10,-503,-775,272,639
,669,2023-10-27 11:50:39.94,112,-252,-2039,-3,44,14,-372,-643,271,507
,670,2023-10-27 11:50:39.95,120,-261,-2037,3,25,5,-526,-798,272,662
,671,2023-10-27 11:50:39.96,112,-258,-2045,10,1,14,-400,-653,253,526
,672,2023-10-27 11:50:39.97,108,-257,-2043,10,-16,-2,-522,-778,256,650
,673,2023-10-27 11:50:39.98,118,-260,-2047,8,-5,-7,-381,-628,247,504
,674,2023-10-27 11:50:39.99,121,-255,-2045,9,7,-9,-496,-760,264,628
,675,2023-10-27 11:50:40.00,109,-260,-2035,13,19,3,-363,-637,274,500
,676,2023-10-27 11:50:40.01,129,-260,-2034,15,12,11,-503,-788,285,645
,677,2023-10-27 11:50:40.02,117,-260,-2037,15,35,8,-389,-653,264,521
,678,2023-10-27 11:50:40.03,118,-257,-2033,13,-6,-5,-522,-774,252,648
,679,2023-10-27 11:50:40.04,116,-257,-2040,9,-20,-20,-403,-632,229,517
,680,2023-10-27 11:50:40.05,118,-265,-2038,10,2,-14,-519,-751,232,635
,681,2023-10-27 11:50:40.06,130,-256,-2044,7,12,-13,-393,-627,234,510
,682,2023-10-27 11:50:40.07,128,-257,-2041,13,22,3,-511,-760,249,635
,683,2023-10-27 11:50:40.08,133,-257,-2040,8,-21,-13,-397,-637,240,517
,684,2023-10-27 11:50:40.09,119,-258,-2033,9,-11,-3,-510,-757,247,633
,685,2023-10-27 11:50:40.10,130,-252,-2046,6,-14,-22,-389,-627,238,508
,686,2023-10-27 11:50:40.11,129,-259,-2048,14,24,4,-498,-749,251,623
,687,2023-10-27 11:50:40.12,141,-253,-2049,13,6,1,-389,-625,236,507
,688,2023-10-27 11:50:40.13,126,-251,-2053,6,3,12,-483,-737,254,610
,689,2023-10-27 11:50:40.14,110,-265,-2042,-9,-12,-2,-338,-639,301,488
,690,2023-10-27 11:50:40.15,119,-270,-2038,-8,20,1,-483,-855,372,669
,691,2023-10-27 11:50:40.16,113,-269,-2030,11,-17,4,-356,-750,394,553
,692,2023-10-27 11:50:40.17,127,-266,-2023,25,-8,29,-467,-857,390,662
,693,2023-10-27 11:50:40.18,101,-257,-2040,17,11,27,-355,-703,348,529
,694,2023-10-27 11:50:40.19,127,-250,-2038,2,11,28,-505,-822,317,663
,695,2023-10-27 11:50:40.20,113,-265,-2037,-6,-28,15,-407,-696,289,551
,696,2023-10-27 11:50:40.21,107,-262,-2032,-4,-4,13,-548,-824,276,686
,697,2023-10-27 11:50:40.22,104,-263,-2043,6,2,36,-442,-702,260,572
,698,2023-10-27 11:50:40.23,97,-258,-2037,7,-25,34,-577,-823,246,700
,699,2023-10-27 11:50:40.24,114,-252,-2033,1,-36,21,-469,-701,232,585
,700,2023-10-27 11:50:40.25,106,-250,-2031,1,-23,9,-597,-818,221,707
,701,2023-10-27 11:50:40.26,107,-253,-2037,1,4,17,-548,-715,167,631
,702,2023-10-27 11:50:40.27,105,-250,-2034,6,38,28,-588,-756,168,672
,703,2023-10-27 11:50:40.28,113,-248,-2040,8,19,22,-458,-638,180,548
,704,2023-10-27 11:50:40.29,115,-250,-2038,8,-3,-3,-502,-725,223,613
,705,2023-10-27 11:50:40.30,103,-254,-2042,17,-3,-3,-436,-652,216,544
,706,2023-10-27 11:50:40.31,103,-258,-2038,20,17,-6,-508,-740,232,624
,707,2023-10-27 11:50:40.32,114,-258,-2037,25,42,10,-447,-659,212,553
,708,2023-10-27 11:50:40.33,113,-260,-2036,26,22,3,-492,-735,243,613
,709,2023-10-27 11:50:40.34,113,-261,-2041,19,-13,-7,-426,-653,227,539
,710,2023-10-27 11:50:40.35,108,-263,-2041,14,-16,-19,-463,-720,257,591
,711,2023-10-27 11:50:40.36,119,-263,-2040,7,8,-9,-402,-645,243,523
,712,2023-10-27 11:50:40.37,107,-260,-2030,4,8,-12,-446,-720,274,583
,713,2023-10-27 11:50:40.38,124,-272,-2038,3,18,6,-406,-655,249,530
,714,2023-10-27 11:50:40.39,118,-262,-2036,-3,-9,1,-447,-722,275,584
,715,2023-10-27 11:50:40.40,122,-258,-2032,-4,24,13,-406,-673,267,539
,716,2023-10-27 11:50:40.41,111,-259,-2044,-11,-5,10,-454,-743,289,598
,717,2023-10-27 11:50:40.42,123,-265,-2044,-7,-24,6,-427,-683,256,555
,718,2023-10-27 11:50:40.43,123,-265,-2042,0,-10,12,-465,-734,269,599
,719,2023-10-27 11:50:40.44,120,-249,-2046,-7,-24,5,-435,-677,242,556
,720,2023-10-27 11:50:40.45,134,-252,-2040,-10,10,17,-478,-732,254,605
,721,2023-10-27 11:50:40.46,114,-260,-2040,-5,12,34,-460,-695,235,577
,722,2023-10-27 11:50:40.47,118,-253,-2033,2,5,28,-480,-742,262,611
,723,2023-10-27 11:50:40.48,111,-244,-2030,4,-34,12,-453,-683,230,568
,724,2023-10-27 11:50:40.49,107,-246,-2034,2,-26,18,-466,-718,252,592
,725,2023-10-27 11:50:40.50,119,-247,-2041,2,4,18,-449,-687,238,568
,726,2023-10-27 11:50:40.51,116,-241,-2040,1,-8,10,-456,-729,273,592
,727,2023-10-27 11:50:40.52,129,-248,-2038,5,11,22,-444,-704,260,574
,728,2023-10-27 11:50:40.53,126,-248,-2038,9,4,33,-452,-739,287,595
,729,2023-10-27 11:50:40.54,115,-248,-2036,11,0,30,-457,-704,247,580
,730,2023-10-27 11:50:40.55,132,-241,-2043,10,-28,16,-466,-725,259,595
,731,2023-10-27 11:50:40.56,127,-245,-2037,-2,-27,7,-476,-708,232,592
,732,2023-10-27 11:50:40.57,118,-271,-2035,-5,22,14,-479,-733,254,606
,733,2023-10-27 11:50:40.58,118,-270,-2034,2,25,11,-483,-705,222,594
,734,2023-10-27 11:50:40.59,135,-265,-2043,19,21,27,-467,-715,248,591
,735,2023-10-27 11:50:40.60,119,-251,-2049,20,-16,24,-478,-710,232,594
,736,2023-10-27 11:50:40.61,125,-247,-2058,11,4,30,-472,-725,253,598
,737,2023-10-27 11:50:40.62,117,-257,-2055,-6,1,13,-494,-720,226,607
,738,2023-10-27 11:50:40.63,122,-256,-2049,-12,1,23,-481,-722,241,601
,739,2023-10-27 11:50:40.64,115,-253,-2050,-15,48,33,-509,-724,215,616
,740,2023-10-27 11:50:40.65,123,-251,-2046,-24,12,27,-490,-726,236,608
,741,2023-10-27 11:50:40.66,116,-255,-2042,-29,46,33,-511,-722,211,616
,742,2023-10-27 11:50:40.67,128,-248,-2031,-28,54,40,-472,-714,242,593
,743,2023-10-27 11:50:40.68,130,-249,-2027,-26,51,47,-496,-733,237,614
,744,2023-10-27 11:50:40.69,124,-249,-2038,-28,58,51,-468,-724,256,596
,745,2023-10-27 11:50:40.70,120,-252,-2057,-27,25,39,-504,-731,227,617
,746,2023-10-27 11:50:40.71,115,-254,-2056,-26,10,27,-466,-713,247,589
,747,2023-10-27 11:50:40.72,116,-261,-2056,-14,-14,27,-503,-725,222,614
,748,2023-10-27 11:50:40.73,129,-262,-2053,-2,5,53,-459,-712,253,585
,749,2023-10-27 11:50:40.74,122,-256,-2053,-1,-26,65,-505,-752,247,628
,750,2023-10-27 11:50:40.75,120,-261,-2047,-5,-38,63,-469,-731,262,600
,751,2023-10-27 11:50:40.76,119,-256,-2040,-8,-66,56,-524,-748,224,636
,752,2023-10-27 11:50:40.77,118,-260,-2029,-7,-63,56,-467,-710,243,588
,753,2023-10-27 11:50:40.78,117,-258,-2034,1,-40,66,-518,-752,234,635
,754,2023-10-27 11:50:40.79,117,-254,-2036,4,-44,65,-457,-719,262,588
,755,2023-10-27 11:50:40.80,113,-250,-2034,11,-21,83,-515,-753,238,634
,756,2023-10-27 11:50:40.81,109,-252,-2037,14,-35,91,-448,-707,259,577
,757,2023-10-27 11:50:40.82,123,-246,-2034,18,-27,94,-511,-759,248,635
,758,2023-10-27 11:50:40.83,114,-253,-2032,12,-62,78,-441,-716,275,578
,759,2023-10-27 11:50:40.84,106,-245,-2035,12,-57,69,-527,-782,255,654
,760,2023-10-27 11:50:40.85,111,-235,-2033,10,-21,74,-472,-727,255,599
,761,2023-10-27 11:50:40.86,112,-240,-2041,10,-35,65,-561,-787,226,674
,762,2023-10-27 11:50:40.87,108,-239,-2046,11,-22,70,-479,-723,244,601
,763,2023-10-27 11:50:40.88,103,-240,-2051,9,-61,64,-562,-774,212,668
,764,2023-10-27 11:50:40.89,113,-233,-2044,8,-67,55,-476,-707,231,591
,765,2023-10-27 11:50:40.90,89,-249,-2044,8,-83,41,-559,-776,217,667
,766,2023-10-27 11:50:40.91,89,-243,-2043,12,-100,30,-466,-713,247,589
,767,2023-10-27 11:50:40.92,76,-252,-2046,15,-92,37,-557,-791,234,674
,768,2023-10-27 11:50:40.93,86,-251,-2050,20,-83,34,-465,-718,253,591
,769,2023-10-27 11:50:40.94,66,-254,-2036,23,-65,50,-569,-797,228,683
,770,2023-10-27 11:50:40.95,68,-261,-2031,25,-96,50,-484,-725,241,604
,771,2023-10-27 11:50:40.96,62,-253,-2036,29,-82,59,-598,-810,212,704
,772,2023-10-27 11:50:40.97,78,-255,-2025,24,-85,42,-509,-724,215,616
,773,2023-10-27 11:50:40.98,67,-249,-2031,14,-56,45,-616,-807,191,711
,774,2023-10-27 11:50:40.99,68,-249,-2024,4,-39,49,-509,-718,209,613
,775,2023-10-27 11:50:41.00,63,-252,-2033,-2,-5,54,-613,-798,185,705
,776,2023-10-27 11:50:41.01,62,-247,-2028,-4,12,68,-499,-703,204,601
,777,2023-10-27 11:50:41.02,75,-237,-2027,-12,-19,50,-612,-802,190,707
,778,2023-10-27 11:50:41.03,63,-232,-2026,-18,-14,42,-503,-710,207,606
,779,2023-10-27 11:50:41.04,70,-240,-2039,-17,-1,31,-626,-806,180,716
,780,2023-10-27 11:50:41.05,75,-234,-2042,-12,36,43,-516,-705,189,610
,781,2023-10-27 11:50:41.06,80,-234,-2043,-13,28,40,-636,-814,178,725
,782,2023-10-27 11:50:41.07,66,-235,-2053,-14,-13,12,-519,-716,197,617
,783,2023-10-27 11:50:41.08,60,-234,-2049,-11,-19,5,-644,-824,180,734
,784,2023-10-27 11:50:41.09,81,-237,-2050,-10,-6,-2,-527,-713,186,620
,785,2023-10-27 11:50:41.10,81,-238,-2045,-6,-11,-14,-641,-806,165,723
,786,2023-10-27 11:50:41.11,78,-236,-2035,-2,10,-3,-497,-688,191,592
,787,2023-10-27 11:50:41.12,85,-248,-2042,-1,-32,-14,-612,-798,186,705
,788,2023-10-27 11:50:41.13,75,-244,-2037,2,-24,-16,-469,-689,220,579
,789,2023-10-27 11:50:41.14,82,-238,-2035,3,-12,-25,-602,-811,209,706
,790,2023-10-27 11:50:41.15,84,-240,-2033,9,16,-19,-459,-691,232,575
,791,2023-10-27 11:50:41.16,80,-230,-2040,17,8,-22,-585,-800,215,692
,792,2023-10-27 11:50:41.17,87,-229,-2058,26,14,-24,-451,-683,232,567
,793,2023-10-27 11:50:41.18,71,-230,-2059,29,-20,-42,-585,-807,222,696
,794,2023-10-27 11:50:41.19,85,-226,-2054,32,-28,-59,-455,-692,237,573
,795,2023-10-27 11:50:41.20,71,-238,-2045,32,-41,-69,-593,-822,229,707
,796,2023-10-27 11:50:41.21,74,-242,-2039,32,-16,-64,-456,-704,248,580
,797,2023-10-27 11:50:41.22,79,-240,-2038,32,2,-55,-597,-833,236,715
,798,2023-10-27 11:50:41.23,78,-242,-2035,21,-15,-65,-461,-700,239,580
,799,2023-10-27 11:50:41.24,84,-250,-2019,12,-20,-62,-604,-815,211,709
,800,2023-10-27 11:50:41.25,84,-248,-2022,5,-13,-73,-463,-686,223,574
,801,2023-10-27 11:50:41.26,66,-266,-2034,-8,7,-71,-603,-822,219,712
,802,2023-10-27 11:50:41.27,85,-265,-2041,-18,6,-67,-456,-694,238,575
,803,2023-10-27 11:50:41.28,79,-265,-2041,-23,36,-38,-603,-827,224,715
,804,2023-10-27 11:50:41.29,76,-264,-2042,-29,48,-18,-464,-701,237,582
,805,2023-10-27 11:50:41.30,80,-262,-2041,-35,52,-10,-626,-844,218,735
,806,2023-10-27 11:50:41.31,78,-263,-2044,-43,17,-12,-490,-707,217,598
,807,2023-10-27 11:50:41.32,82,-249,-2037,-38,14,-7,-639,-827,188,733
,808,2023-10-27 11:50:41.33,94,-243,-2042,-25,32,-3,-489,-690,201,589
,809,2023-10-27 11:50:41.34,92,-237,-2046,-18,20,-8,-632,-835,203,733
,810,2023-10-27 11:50:41.35,93,-227,-2045,-14,21,-5,-481,-703,222,592
,811,2023-10-27 11:50:41.36,95,-237,-2048,-6,43,18,-632,-847,215,739
,812,2023-10-27 11:50:41.37,98,-240,-2050,2,15,4,-487,-708,221,597
,813,2023-10-27 11:50:41.38,100,-247,-2044,11,-21,3,-642,-841,199,741
,814,2023-10-27 11:50:41.39,75,-245,-2048,17,-24,-4,-495,-698,203,596
,815,2023-10-27 11:50:41.40,88,-249,-2046,21,1,9,-648,-844,196,746
,816,2023-10-27 11:50:41.41,76,-248,-2040,19,6,10,-504,-700,196,602
,817,2023-10-27 11:50:41.42,86,-247,-2034,20,5,19,-655,-828,173,741
,818,2023-10-27 11:50:41.43,93,-245,-2034,16,-19,11,-501,-687,186,594
,819,2023-10-27 11:50:41.44,91,-253,-2035,15,-14,15,-655,-844,189,749
,820,2023-10-27 11:50:41.45,80,-256,-2040,12,-18,4,-510,-704,194,607
,821,2023-10-27 11:50:41.46,81,-257,-2053,12,-1,17,-669,-843,174,756
,822,2023-10-27 11:50:41.47,79,-260,-2047,13,-4,30,-521,-702,181,611
,823,2023-10-27 11:50:41.48,89,-251,-2049,11,3,43,-673,-857,184,765
,824,2023-10-27 11:50:41.49,87,-256,-2044,9,-9,41,-527,-711,184,619
,825,2023-10-27 11:50:41.50,79,-252,-2040,4,-32,37,-675,-847,172,761
,826,2023-10-27 11:50:41.51,79,-250,-2045,2,-28,40,-520,-703,183,611
,827,2023-10-27 11:50:41.52,81,-250,-2032,2,-33,38,-670,-855,185,762
,828,2023-10-27 11:50:41.53,88,-250,-2041,-1,-23,32,-533,-717,184,625
,829,2023-10-27 11:50:41.54,69,-246,-2036,4,13,44,-681,-858,177,769
,830,2023-10-27 11:50:41.55,62,-248,-2038,5,7,39,-536,-715,179,625
,831,2023-10-27 11:50:41.56,85,-246,-2047,5,10,49,-670,-846,176,758
,832,2023-10-27 11:50:41.57,74,-245,-2039,-1,-17,35,-523,-704,181,613
,833,2023-10-27 11:50:41.58,65,-250,-2042,-6,-12,34,-671,-847,176,759
,834,2023-10-27 11:50:41.59,63,-248,-2037,-8,-17,23,-524,-695,171,609
,835,2023-10-27 11:50:41.60,73,-248,-2043,-6,-7,24,-651,-825,174,738
,836,2023-10-27 11:50:41.61,79,-237,-2038,-8,33,38,-492,-689,197,590
,837,2023-10-27 11:50:41.62,74,-230,-2034,-15,19,35,-620,-837,217,728
,838,2023-10-27 11:50:41.63,88,-230,-2041,-24,-12,13,-475,-708,233,591
,839,2023-10-27 11:50:41.64,69,-229,-2054,-29,-3,11,-624,-852,228,738
,840,2023-10-27 11:50:41.65,77,-230,-2057,-34,21,3,-492,-702,210,597
,841,2023-10-27 11:50:41.66,85,-235,-2044,-30,28,7,-610,-823,213,716
,842,2023-10-27 11:50:41.67,74,-230,-2042,-21,7,10,-461,-692,231,576
,843,2023-10-27 11:50:41.68,82,-214,-2057,-12,5,18,-588,-838,250,713
,844,2023-10-27 11:50:41.69,86,-221,-2055,-19,-8,1,-457,-705,248,581
,845,2023-10-27 11:50:41.70,71,-225,-2047,-20,-6,-15,-597,-837,240,717
,846,2023-10-27 11:50:41.71,73,-221,-2038,-16,-13,-14,-475,-704,229,589
,847,2023-10-27 11:50:41.72,83,-226,-2024,-6,29,3,-605,-837,232,721
,848,2023-10-27 11:50:41.73,70,-222,-2032,3,40,18,-476,-705,229,590
,849,2023-10-27 11:50:41.74,83,-224,-2036,7,12,8,-594,-834,240,714
,850,2023-10-27 11:50:41.75,87,-212,-2041,8,-8,1,-467,-705,238,586
,851,2023-10-27 11:50:41.76,79,-232,-2047,12,-7,-2,-589,-826,237,707
,852,2023-10-27 11:50:41.77,78,-234,-2056,13,33,17,-470,-711,241,590
,853,2023-10-27 11:50:41.78,97,-246,-2048,14,22,19,-602,-846,244,724
,854,2023-10-27 11:50:41.79,95,-245,-2047,23,9,32,-495,-727,232,611
,855,2023-10-27 11:50:41.80,89,-240,-2041,26,-14,35,-616,-843,227,729
,856,2023-10-27 11:50:41.81,93,-232,-2037,26,-20,30,-506,-724,218,615
,857,2023-10-27 11:50:41.82,87,-232,-2038,14,-36,18,-621,-847,226,734
,858,2023-10-27 11:50:41.83,92,-243,-2044,11,-26,12,-515,-721,206,618
,859,2023-10-27 11:50:41.84,76,-237,-2046,11,6,28,-620,-828,208,724
,860,2023-10-27 11:50:41.85,86,-240,-2044,6,7,25,-509,-718,209,613
,861,2023-10-27 11:50:41.86,87,-240,-2046,8,8,38,-618,-838,220,728
,862,2023-10-27 11:50:41.87,81,-241,-2033,4,-15,37,-520,-730,210,625
,863,2023-10-27 11:50:41.88,86,-244,-2045,5,-17,38,-627,-834,207,730
,864,2023-10-27 11:50:41.89,71,-245,-2048,1,-45,22,-531,-718,187,624
,865,2023-10-27 11:50:41.90,76,-256,-2038,4,-45,22,-624,-819,195,721
,866,2023-10-27 11:50:41.91,77,-250,-2035,6,-37,29,-529,-724,195,626
,867,2023-10-27 11:50:41.92,68,-245,-2040,8,-26,35,-621,-830,209,725
,868,2023-10-27 11:50:41.93,69,-246,-2036,11,-18,46,-525,-723,198,624
,869,2023-10-27 11:50:41.94,61,-247,-2043,11,-34,57,-618,-822,204,720
,870,2023-10-27 11:50:41.95,59,-244,-2035,11,-35,55,-534,-735,201,634
,871,2023-10-27 11:50:41.96,68,-237,-2037,10,-44,42,-626,-838,212,732
,872,2023-10-27 11:50:41.97,66,-234,-2034,5,-49,31,-541,-740,199,640
,873,2023-10-27 11:50:41.98,63,-228,-2045,4,-29,33,-625,-824,199,724
,874,2023-10-27 11:50:41.99,67,-232,-2034,4,-19,26,-556,-740,184,648
,875,2023-10-27 11:50:42.00,65,-226,-2038,4,-8,26,-637,-824,187,730
,876,2023-10-27 11:50:42.01,65,-222,-2038,5,24,43,-568,-748,180,658
,877,2023-10-27 11:50:42.02,71,-218,-2039,1,14,31,-640,-828,188,734
,878,2023-10-27 11:50:42.03,66,-224,-2048,0,5,32,-572,-746,174,659
,879,2023-10-27 11:50:42.04,72,-223,-2041,-4,-24,19,-632,-809,177,720
,880,2023-10-27 11:50:42.05,59,-228,-2043,-7,-19,14,-568,-736,168,652
,881,2023-10-27 11:50:42.06,60,-226,-2044,-13,-32,-4,-619,-802,183,710
,882,2023-10-27 11:50:42.07,64,-228,-2043,-14,-15,-3,-566,-740,174,653
,883,2023-10-27 11:50:42.08,56,-230,-2043,-12,4,16,-614,-801,187,707
,884,2023-10-27 11:50:42.09,56,-228,-2039,-8,20,21,-566,-747,181,656
,885,2023-10-27 11:50:42.10,63,-228,-2032,-9,0,23,-609,-805,196,707
,886,2023-10-27 11:50:42.11,67,-222,-2040,-11,-24,-2,-567,-754,187,660
,887,2023-10-27 11:50:42.12,63,-227,-2041,-8,0,7,-607,-805,198,706
,888,2023-10-27 11:50:42.13,60,-221,-2038,0,40,28,-570,-755,185,662
,889,2023-10-27 11:50:42.14,62,-214,-2040,3,35,27,-603,-798,195,700
,890,2023-10-27 11:50:42.15,66,-223,-2038,4,10,14,-576,-764,188,670
,891,2023-10-27 11:50:42.16,69,-227,-2044,8,0,1,-610,-806,196,708
,892,2023-10-27 11:50:42.17,63,-223,-2038,12,23,7,-588,-762,174,675
,893,2023-10-27 11:50:42.18,66,-224,-2042,20,37,22,-606,-790,184,698
,894,2023-10-27 11:50:42.19,72,-232,-2045,21,41,19,-581,-743,162,662
,895,2023-10-27 11:50:42.20,74,-229,-2048,20,30,17,-577,-766,189,671
,896,2023-10-27 11:50:42.21,75,-230,-2046,22,12,17,-558,-756,198,657
,897,2023-10-27 11:50:42.22,77,-231,-2042,23,11,13,-573,-791,218,682
,898,2023-10-27 11:50:42.23,79,-230,-2052,19,-16,-3,-578,-780,202,679
,899,2023-10-27 11:50:42.24,78,-228,-2043,22,11,7,-583,-793,210,688
,900,2023-10-27 11:50:42.25,71,-227,-2051,19,8,11,-583,-769,186,676
,901,2023-10-27 11:50:42.26,80,-233,-2048,18,9,9,-577,-776,199,676
,902,2023-10-27 11:50:42.27,71,-230,-2047,16,7,11,-582,-767,185,674
,903,2023-10-27 11:50:42.28,63,-235,-2047,15,4,10,-580,-775,195,677
,904,2023-10-27 11:50:42.29,78,-232,-2039,16,4,8,-593,-776,183,684
,905,2023-10-27 11:50:42.30,74,-234,-2038,14,7,7,-571,-777,206,674
,906,2023-10-27 11:50:42.31,73,-232,-2034,19,9,5,-587,-781,194,684
,907,2023-10-27 11:50:42.32,66,-234,-2038,22,7,4,-572,-775,203,673
,908,2023-10-27 11:50:42.33,82,-230,-2047,26,6,3,-599,-776,177,687
,909,2023-10-27 11:50:42.34,76,-241,-2045,29,6,-1,-560,-760,200,660
,910,2023-10-27 11:50:42.35,71,-242,-2047,27,4,1,-595,-779,184,687
,911,2023-10-27 11:50:42.36,69,-244,-2046,27,5,2,-565,-766,201,665
,912,2023-10-27 11:50:42.37,70,-247,-2042,27,6,2,-599,-774,175,686
,913,2023-10-27 11:50:42.38,70,-244,-2044,22,8,3,-537,-742,205,639
,914,2023-10-27 11:50:42.39,73,-243,-2033,18,14,4,-560,-755,195,657
,915,2023-10-27 11:50:42.40,79,-245,-2033,16,16,5,-488,-731,243,609
,916,2023-10-27 11:50:42.41,70,-254,-2045,11,14,7,-527,-767,240,647
,917,2023-10-27 11:50:42.42,70,-241,-2049,8,15,8,-478,-745,267,611
,918,2023-10-27 11:50:42.43,67,-246,-2048,4,14,9,-542,-784,242,663
,919,2023-10-27 11:50:42.44,65,-237,-2046,2,14,8,-479,-747,268,613
,920,2023-10-27 11:50:42.45,68,-234,-2043,-3,16,7,-533,-783,250,658
,921,2023-10-27 11:50:42.46,66,-225,-2043,-7,18,6,-472,-745,273,608
,922,2023-10-27 11:50:42.47,80,-225,-2053,-11,15,-1,-541,-791,250,666
,923,2023-10-27 11:50:42.48,77,-230,-2049,-9,11,-5,-480,-744,264,612
,924,2023-10-27 11:50:42.49,75,-226,-2046,-7,5,-8,-555,-792,237,673
,925,2023-10-27 11:50:42.50,76,-230,-2042,-3,-3,-9,-495,-745,250,620
,926,2023-10-27 11:50:42.51,77,-222,-2037,2,-7,-9,-570,-789,219,679
,927,2023-10-27 11:50:42.52,65,-225,-2039,3,-8,-9,-491,-730,239,610
,928,2023-10-27 11:50:42.53,64,-235,-2035,7,-6,-9,-573,-785,212,679
,929,2023-10-27 11:50:42.54,78,-222,-2044,7,-5,-7,-496,-731,235,613
,930,2023-10-27 11:50:42.55,73,-230,-2038,10,-4,-7,-588,-810,222,699
,931,2023-10-27 11:50:42.56,74,-232,-2046,13,-6,-7,-505,-744,239,624
,932,2023-10-27 11:50:42.57,77,-239,-2043,16,-9,-3,-599,-808,209,703
,933,2023-10-27 11:50:42.58,73,-235,-2045,17,-7,-1,-511,-738,227,624
,934,2023-10-27 11:50:42.59,78,-235,-2047,24,-6,-2,-607,-823,216,715
,935,2023-10-27 11:50:42.60,72,-228,-2043,29,-10,-4,-526,-747,221,636
,936,2023-10-27 11:50:42.61,64,-226,-2044,34,-11,-3,-637,-836,199,736
,937,2023-10-27 11:50:42.62,73,-234,-2040,35,-11,-5,-552,-754,202,653
,938,2023-10-27 11:50:42.63,78,-238,-2036,34,-9,-8,-657,-836,179,746
,939,2023-10-27 11:50:42.64,71,-235,-2038,32,-3,-8,-553,-743,190,648
,940,2023-10-27 11:50:42.65,72,-230,-2046,27,3,-8,-658,-836,178,747
,941,2023-10-27 11:50:42.66,83,-239,-2044,18,9,-11,-555,-745,190,650
,942,2023-10-27 11:50:42.67,84,-242,-2054,14,10,-10,-662,-822,160,742
,943,2023-10-27 11:50:42.68,78,-234,-2051,10,7,-10,-546,-724,178,635
,944,2023-10-27 11:50:42.69,74,-234,-2047,0,4,-8,-650,-820,170,735
,945,2023-10-27 11:50:42.70,74,-234,-2050,-4,-1,-8,-529,-723,194,626
,946,2023-10-27 11:50:42.71,66,-237,-2044,-7,-4,-5,-654,-834,180,744
,947,2023-10-27 11:50:42.72,70,-236,-2046,-6,-14,-5,-545,-737,192,641
,948,2023-10-27 11:50:42.73,84,-243,-2045,-7,-14,1,-671,-844,173,757
,949,2023-10-27 11:50:42.74,73,-247,-2046,-9,-8,6,-555,-732,177,643
,950,2023-10-27 11:50:42.75,70,-245,-2057,-6,-12,9,-676,-821,145,748
,951,2023-10-27 11:50:42.76,63,-237,-2049,-4,-4,17,-556,-714,158,635
,952,2023-10-27 11:50:42.77,59,-246,-2042,3,-5,22,-677,-821,144,749
,953,2023-10-27 11:50:42.78,58,-233,-2038,8,0,25,-549,-722,173,635
,954,2023-10-27 11:50:42.79,65,-231,-2028,17,3,27,-664,-839,175,751
,955,2023-10-27 11:50:42.80,55,-216,-2030,27,8,28,-529,-722,193,625
,956,2023-10-27 11:50:42.81,74,-221,-2018,37,9,26,-662,-839,177,750
,957,2023-10-27 11:50:42.82,66,-224,-2030,46,26,19,-520,-714,194,617
,958,2023-10-27 11:50:42.83,61,-223,-2024,51,33,13,-644,-822,178,733
,959,2023-10-27 11:50:42.84,57,-224,-2033,55,36,4,-507,-704,197,605
,960,2023-10-27 11:50:42.85,64,-222,-2038,55,39,-3,-645,-832,187,738
,961,2023-10-27 11:50:42.86,86,-229,-2040,56,37,-13,-508,-707,199,607
,962,2023-10-27 11:50:42.87,80,-232,-2044,50,42,-17,-649,-828,179,738
,963,2023-10-27 11:50:42.88,79,-242,-2049,47,34,-21,-507,-701,194,604
,964,2023-10-27 11:50:42.89,81,-244,-2051,42,28,-24,-637,-827,190,732
,965,2023-10-27 11:50:42.90,89,-236,-2047,38,23,-23,-489,-698,209,593
,966,2023-10-27 11:50:42.91,84,-241,-2056,24,25,-22,-636,-836,200,736
,967,2023-10-27 11:50:42.92,89,-259,-2043,13,26,-18,-497,-706,209,601
,968,2023-10-27 11:50:42.93,84,-262,-2031,9,24,-14,-636,-828,192,732
,969,2023-10-27 11:50:42.94,91,-258,-2043,10,16,-8,-487,-696,209,591
,970,2023-10-27 11:50:42.95,85,-247,-2045,10,12,-2,-628,-832,204,730
,971,2023-10-27 11:50:42.96,86,-240,-2044,7,16,-2,-474,-697,223,585
,972,2023-10-27 11:50:42.97,92,-243,-2033,7,22,-2,-629,-836,207,732
,973,2023-10-27 11:50:42.98,88,-251,-2040,9,24,-1,-490,-703,213,596
,974,2023-10-27 11:50:42.99,78,-246,-2046,18,21,-4,-644,-842,198,743
,975,2023-10-27 11:50:43.00,84,-249,-2045,28,13,-2,-501,-706,205,603
,976,2023-10-27 11:50:43.01,89,-257,-2043,36,2,-1,-660,-853,193,756
,977,2023-10-27 11:50:43.02,76,-248,-2050,45,0,1,-514,-709,195,611
,978,2023-10-27 11:50:43.03,78,-239,-2050,45,-1,-2,-667,-834,167,750
,979,2023-10-27 11:50:43.04,93,-254,-2038,40,2,-2,-514,-694,180,604
,980,2023-10-27 11:50:43.05,90,-249,-2041,36,3,-5,-671,-845,174,758
,981,2023-10-27 11:50:43.06,79,-249,-2044,33,5,-5,-524,-706,182,615
,982,2023-10-27 11:50:43.07,74,-252,-2045,29,3,-7,-678,-847,169,762
,983,2023-10-27 11:50:43.08,81,-245,-2049,27,2,-7,-526,-698,172,612
,984,2023-10-27 11:50:43.09,82,-242,-2040,23,1,-9,-664,-827,163,745
,985,2023-10-27 11:50:43.10,80,-246,-2041,22,4,-11,-506,-691,185,598
,986,2023-10-27 11:50:43.11,79,-246,-2034,16,9,-15,-666,-848,182,757
,987,2023-10-27 11:50:43.12,88,-251,-2029,17,7,-16,-521,-708,187,614
,988,2023-10-27 11:50:43.13,75,-252,-2036,28,-1,-16,-680,-850,170,765
,989,2023-10-27 11:50:43.14,82,-252,-2040,32,0,-16,-533,-704,171,618
,990,2023-10-27 11:50:43.15,85,-252,-2042,27,5,-15,-682,-848,166,765
,991,2023-10-27 11:50:43.16,79,-254,-2035,24,8,-14,-528,-691,163,609
,992,2023-10-27 11:50:43.17,85,-264,-2039,23,4,-12,-686,-831,145,758
,993,2023-10-27 11:50:43.18,75,-265,-2035,28,3,-5,-533,-690,157,611
,994,2023-10-27 11:50:43.19,82,-261,-2034,27,4,-1,-682,-848,166,765
,995,2023-10-27 11:50:43.20,81,-269,-2041,26,5,4,-526,-702,176,614
,996,2023-10-27 11:50:43.21,73,-275,-2041,25,14,9,-668,-842,174,755
,997,2023-10-27 11:50:43.22,72,-264,-2043,23,20,12,-519,-704,185,611
,998,2023-10-27 11:50:43.23,91,-259,-2041,23,18,16,-664,-848,184,756
,999,2023-10-27 11:50:43.24,81,-254,-2044,19,23,19,-523,-709,186,616
,1000,2023-10-27 11:50:43.25,85,-260,-2041,18,25,20,-666,-845,179,755
,1001,2023-10-27 11:50:43.26,74,-264,-2055,17,28,19,-524,-710,186,617
,1002,2023-10-27 11:50:43.27,83,-261,-2044,24,21,20,-677,-858,181,767
,1003,2023-10-27 11:50:43.28,87,-252,-2046,27,20,18,-539,-712,173,625
,1004,2023-10-27 11:50:43.29,84,-261,-2031,26,24,15,-689,-842,153,765
,1005,2023-10-27 11:50:43.30,82,-257,-2044,26,21,14,-554,-706,152,630
,1006,2023-10-27 11:50:43.31,92,-254,-2038,28,21,12,-693,-844,151,768
,1007,2023-10-27 11:50:43.32,96,-259,-2032,23,27,12,-553,-707,154,630
,1008,2023-10-27 11:50:43.33,84,-262,-2030,20,24,9,-696,-843,147,769
,1009,2023-10-27 11:50:43.34,95,-252,-2028,16,23,7,-557,-708,151,632
,1010,2023-10-27 11:50:43.35,107,-256,-2030,16,24,5,-688,-841,153,764
,1011,2023-10-27 11:50:43.36,93,-258,-2035,12,20,1,-554,-713,159,633
,1012,2023-10-27 11:50:43.37,93,-260,-2042,14,18,2,-684,-845,161,764
,1013,2023-10-27 11:50:43.38,104,-268,-2053,16,14,1,-552,-714,162,633
,1014,2023-10-27 11:50:43.39,87,-267,-2038,19,15,3,-688,-845,157,766
,1015,2023-10-27 11:50:43.40,96,-265,-2041,16,22,6,-562,-720,158,641
,1016,2023-10-27 11:50:43.41,95,-258,-2041,12,25,8,-685,-848,163,766
,1017,2023-10-27 11:50:43.42,91,-267,-2030,17,28,8,-558,-715,157,636
,1018,2023-10-27 11:50:43.43,111,-255,-2029,17,33,8,-687,-836,149,761
,1019,2023-10-27 11:50:43.44,112,-253,-2034,17,41,3,-567,-716,149,641
,1020,2023-10-27 11:50:43.45,113,-267,-2037,18,40,0,-689,-837,148,763
,1021,2023-10-27 11:50:43.46,113,-271,-2046,31,38,-1,-572,-720,148,646
,1022,2023-10-27 11:50:43.47,103,-262,-2057,29,37,-4,-684,-837,153,760
,1023,2023-10-27 11:50:43.48,115,-271,-2053,22,35,-2,-566,-712,146,639
,1024,2023-10-27 11:50:43.49,113,-276,-2058,17,30,2,-671,-824,153,747
,1025,2023-10-27 11:50:43.50,113,-277,-2056,16,27,6,-554,-712,158,633
,1026,2023-10-27 11:50:43.51,102,-285,-2035,14,24,11,-660,-823,163,741
,1027,2023-10-27 11:50:43.52,101,-284,-2036,4,30,16,-556,-727,171,641
,1028,2023-10-27 11:50:43.53,110,-278,-2031,-4,38,18,-665,-841,176,753
,1029,2023-10-27 11:50:43.54,114,-257,-2030,-11,35,22,-566,-732,166,649
,1030,2023-10-27 11:50:43.55,112,-258,-2022,-22,40,22,-668,-833,165,750
,1031,2023-10-27 11:50:43.56,109,-252,-2037,-34,43,22,-573,-729,156,651
,1032,2023-10-27 11:50:43.57,111,-261,-2057,-34,34,25,-653,-816,163,734
,1033,2023-10-27 11:50:43.58,110,-266,-2056,-32,16,29,-563,-724,161,643
,1034,2023-10-27 11:50:43.59,106,-262,-2053,-24,5,36,-651,-825,174,738
,1035,2023-10-27 11:50:43.60,112,-257,-2056,-20,-9,41,-572,-744,172,658
,1036,2023-10-27 11:50:43.61,98,-257,-2047,-19,-17,48,-650,-825,175,737
,1037,2023-10-27 11:50:43.62,93,-260,-2048,-13,-17,56,-573,-742,169,657
,1038,2023-10-27 11:50:43.63,89,-255,-2033,-9,-19,61,-662,-830,168,746
,1039,2023-10-27 11:50:43.64,100,-239,-2020,0,-11,70,-584,-739,155,661
,1040,2023-10-27 11:50:43.65,104,-242,-2024,0,-3,69,-664,-817,153,740
,1041,2023-10-27 11:50:43.66,83,-237,-2031,4,-1,66,-596,-749,153,672
,1042,2023-10-27 11:50:43.67,92,-240,-2038,12,-6,70,-656,-825,169,740
,1043,2023-10-27 11:50:43.68,101,-245,-2028,15,0,72,-590,-740,150,665
,1044,2023-10-27 11:50:43.69,98,-256,-2030,23,4,72,-640,-802,162,721
,1045,2023-10-27 11:50:43.70,100,-258,-2040,28,2,74,-565,-737,172,651
,1046,2023-10-27 11:50:43.71,93,-262,-2028,37,3,77,-615,-808,193,711
,1047,2023-10-27 11:50:43.72,104,-257,-2031,42,3,78,-564,-744,180,654
,1048,2023-10-27 11:50:43.73,113,-258,-2033,45,1,80,-613,-797,184,705
,1049,2023-10-27 11:50:43.74,97,-266,-2038,39,8,79,-572,-743,171,657
,1050,2023-10-27 11:50:43.75,104,-267,-2046,29,11,79,-624,-809,185,716
,1051,2023-10-27 11:50:43.76,97,-274,-2060,28,2,82,-585,-759,174,672
,1052,2023-10-27 11:50:43.77,101,-282,-2062,28,-15,84,-631,-805,174,718
,1053,2023-10-27 11:50:43.78,99,-271,-2061,27,-17,83,-600,-759,159,679
,1054,2023-10-27 11:50:43.79,92,-266,-2048,14,-19,90,-638,-802,164,720
,1055,2023-10-27 11:50:43.80,94,-280,-2042,9,-27,86,-608,-757,149,682
,1056,2023-10-27 11:50:43.81,99,-261,-2027,6,-22,88,-635,-797,162,716
,1057,2023-10-27 11:50:43.82,91,-253,-2031,4,-12,86,-609,-769,160,689
,1058,2023-10-27 11:50:43.83,87,-259,-2033,-6,-9,82,-629,-802,173,715
,1059,2023-10-27 11:50:43.84,90,-274,-2040,-4,-13,80,-608,-770,162,689
,1060,2023-10-27 11:50:43.85,89,-269,-2036,4,-16,80,-619,-797,178,708
,1061,2023-10-27 11:50:43.86,77,-260,-2038,10,-24,80,-604,-768,164,686
,1062,2023-10-27 11:50:43.87,88,-264,-2036,9,-23,80,-618,-790,172,704
,1063,2023-10-27 11:50:43.88,75,-258,-2046,8,-22,81,-613,-777,164,695
,1064,2023-10-27 11:50:43.89,87,-264,-2045,6,-26,82,-617,-793,176,705
,1065,2023-10-27 11:50:43.90,86,-261,-2043,1,-17,81,-620,-788,168,704
,1066,2023-10-27 11:50:43.91,73,-266,-2034,-3,-19,83,-623,-796,173,709
,1067,2023-10-27 11:50:43.92,87,-267,-2028,-4,-10,83,-627,-777,150,702
,1068,2023-10-27 11:50:43.93,73,-262,-2032,1,-15,88,-616,-779,163,697
,1069,2023-10-27 11:50:43.94,84,-255,-2036,2,-13,87,-622,-765,143,693
,1070,2023-10-27 11:50:43.95,74,-255,-2029,3,3,87,-596,-762,166,679
,1071,2023-10-27 11:50:43.96,76,-250,-2037,5,3,82,-616,-781,165,698
,1072,2023-10-27 11:50:43.97,99,-254,-2025,11,4,80,-604,-786,182,695
,1073,2023-10-27 11:50:43.98,83,-260,-2037,14,22,78,-626,-786,160,706
,1074,2023-10-27 11:50:43.99,92,-266,-2022,18,19,74,-606,-773,167,689
,1075,2023-10-27 11:50:44.00,97,-249,-2038,22,29,72,-628,-779,151,703
,1076,2023-10-27 11:50:44.01,77,-265,-2039,25,25,69,-592,-768,176,680
,1077,2023-10-27 11:50:44.02,116,-270,-2042,34,14,70,-620,-787,167,703
,1078,2023-10-27 11:50:44.03,80,-261,-2056,34,4,74,-576,-770,194,673
,1079,2023-10-27 11:50:44.04,97,-259,-2055,29,13,71,-612,-800,188,706
,1080,2023-10-27 11:50:44.05,87,-256,-2057,17,-3,77,-570,-770,200,670
,1081,2023-10-27 11:50:44.06,79,-265,-2056,6,1,75,-625,-806,181,715
,1082,2023-10-27 11:50:44.07,96,-271,-2056,4,-5,79,-585,-772,187,678
,1083,2023-10-27 11:50:44.08,76,-280,-2051,14,-31,84,-633,-803,170,718
,1084,2023-10-27 11:50:44.09,87,-261,-2057,23,-29,85,-579,-760,181,669
,1085,2023-10-27 11:50:44.10,90,-261,-2039,21,-39,87,-633,-798,165,715
,1086,2023-10-27 11:50:44.11,81,-254,-2043,13,-23,82,-563,-749,186,656
,1087,2023-10-27 11:50:44.12,66,-265,-2024,17,-27,79,-625,-800,175,712
,1088,2023-10-27 11:50:44.13,82,-251,-2036,24,-28,77,-554,-748,194,651
,1089,2023-10-27 11:50:44.14,86,-253,-2037,26,-29,70,-622,-800,178,711
,1090,2023-10-27 11:50:44.15,80,-248,-2030,20,-24,64,-554,-745,191,649
,1091,2023-10-27 11:50:44.16,79,-249,-2029,13,-14,56,-635,-802,167,718
,1092,2023-10-27 11:50:44.17,74,-257,-2033,11,-20,48,-558,-738,180,648
,1093,2023-10-27 11:50:44.18,62,-260,-2036,15,-27,45,-637,-801,164,719
,1094,2023-10-27 11:50:44.19,66,-262,-2033,20,-36,42,-550,-736,186,643
,1095,2023-10-27 11:50:44.20,63,-270,-2034,22,-38,42,-628,-796,168,712
,1096,2023-10-27 11:50:44.21,53,-268,-2034,23,-31,40,-542,-725,183,633
,1097,2023-10-27 11:50:44.22,49,-267,-2040,21,-23,40,-634,-800,166,717
,1098,2023-10-27 11:50:44.23,60,-268,-2031,22,-11,43,-540,-725,185,632
,1099,2023-10-27 11:50:44.24,42,-273,-2033,23,-5,40,-636,-798,162,717
,1100,2023-10-27 11:50:44.25,61,-264,-2040,24,5,37,-539,-721,182,630
,1101,2023-10-27 11:50:44.26,58,-260,-2029,27,13,34,-632,-809,177,720
,1102,2023-10-27 11:50:44.27,66,-271,-2031,30,16,32,-528,-723,195,625
,1103,2023-10-27 11:50:44.28,69,-268,-2027,34,21,35,-636,-812,176,724
,1104,2023-10-27 11:50:44.29,59,-271,-2027,34,27,30,-535,-724,189,629
,1105,2023-10-27 11:50:44.30,68,-271,-2035,36,30,32,-646,-812,166,729
,1106,2023-10-27 11:50:44.31,73,-277,-2045,35,33,33,-539,-720,181,629
,1107,2023-10-27 11:50:44.32,65,-271,-2052,29,32,33,-648,-810,162,729
,1108,2023-10-27 11:50:44.33,71,-275,-2049,24,34,36,-525,-707,182,616
,1109,2023-10-27 11:50:44.34,74,-276,-2045,19,29,41,-639,-807,168,723
,1110,2023-10-27 11:50:44.35,75,-281,-2048,12,31,46,-522,-713,191,617
,1111,2023-10-27 11:50:44.36,84,-279,-2038,5,29,47,-639,-814,175,726
,1112,2023-10-27 11:50:44.37,94,-276,-2031,1,21,51,-519,-714,195,616
,1113,2023-10-27 11:50:44.38,90,-278,-2041,1,20,53,-640,-823,183,731
,1114,2023-10-27 11:50:44.39,74,-266,-2035,-2,18,49,-504,-707,203,605
,1115,2023-10-27 11:50:44.40,84,-274,-2048,-5,12,51,-640,-825,185,732
,1116,2023-10-27 11:50:44.41,75,-261,-2042,-1,11,49,-514,-715,201,614
,1117,2023-10-27 11:50:44.42,79,-257,-2046,4,4,44,-650,-829,179,739
,1118,2023-10-27 11:50:44.43,88,-257,-2040,10,0,41,-520,-710,190,615
,1119,2023-10-27 11:50:44.44,94,-252,-2035,14,3,33,-651,-834,183,742
,1120,2023-10-27 11:50:44.45,85,-257,-2036,18,8,25,-510,-715,205,612
,1121,2023-10-27 11:50:44.46,91,-261,-2038,27,8,19,-650,-830,180,740
,1122,2023-10-27 11:50:44.47,74,-266,-2039,39,2,15,-523,-713,190,618
,1123,2023-10-27 11:50:44.48,76,-271,-2038,47,-4,12,-665,-845,180,755
,1124,2023-10-27 11:50:44.49,91,-275,-2033,51,-8,7,-515,-710,195,612
,1125,2023-10-27 11:50:44.50,77,-275,-2038,55,-10,7,-648,-826,178,737
,1126,2023-10-27 11:50:44.51,74,-281,-2035,54,-10,9,-499,-698,199,598
,1127,2023-10-27 11:50:44.52,80,-286,-2030,55,-7,11,-650,-830,180,740
,1128,2023-10-27 11:50:44.53,81,-288,-2028,52,-2,13,-518,-711,193,614
,1129,2023-10-27 11:50:44.54,73,-284,-2034,48,3,13,-667,-846,179,756
,1130,2023-10-27 11:50:44.55,82,-283,-2031,44,4,13,-521,-708,187,614
,1131,2023-10-27 11:50:44.56,90,-285,-2029,39,4,10,-667,-834,167,750
,1132,2023-10-27 11:50:44.57,78,-279,-2041,36,5,9,-519,-698,179,608
,1133,2023-10-27 11:50:44.58,80,-275,-2038,32,0,6,-660,-827,167,743
,1134,2023-10-27 11:50:44.59,77,-288,-2041,32,-5,5,-508,-699,191,603
,1135,2023-10-27 11:50:44.60,71,-286,-2047,32,-12,6,-660,-849,189,754
,1136,2023-10-27 11:50:44.61,71,-284,-2042,29,-17,5,-518,-714,196,616
,1137,2023-10-27 11:50:44.62,75,-288,-2032,29,-24,6,-676,-854,178,765
,1138,2023-10-27 11:50:44.63,68,-285,-2037,27,-23,5,-525,-706,181,615
,1139,2023-10-27 11:50:44.64,76,-286,-2029,22,-19,5,-674,-832,158,753
,1140,2023-10-27 11:50:44.65,72,-285,-2034,17,-16,6,-520,-694,174,607
,1141,2023-10-27 11:50:44.66,63,-287,-2033,14,-8,6,-672,-845,173,758
,1142,2023-10-27 11:50:44.67,58,-291,-2035,12,-5,9,-523,-709,186,616
,1143,2023-10-27 11:50:44.68,55,-294,-2048,11,-10,11,-682,-858,176,770
,1144,2023-10-27 11:50:44.69,67,-293,-2037,10,-12,17,-528,-710,182,619
,1145,2023-10-27 11:50:44.70,68,-289,-2043,9,-10,20,-682,-843,161,762
,1146,2023-10-27 11:50:44.71,68,-295,-2031,13,-14,25,-528,-699,171,613
,1147,2023-10-27 11:50:44.72,68,-291,-2030,14,-10,27,-679,-843,164,761
,1148,2023-10-27 11:50:44.73,68,-284,-2034,12,-9,29,-530,-696,166,613
,1149,2023-10-27 11:50:44.74,73,-284,-2041,14,-6,28,-689,-836,147,762
,1150,2023-10-27 11:50:44.75,63,-279,-2032,14,-2,27,-536,-696,160,616
,1151,2023-10-27 11:50:44.76,75,-285,-2042,12,0,25,-690,-843,153,766
,1152,2023-10-27 11:50:44.77,76,-288,-2030,12,2,22,-538,-695,157,616
,1153,2023-10-27 11:50:44.78,75,-288,-2031,8,6,21,-679,-829,150,754
,1154,2023-10-27 11:50:44.79,74,-281,-2039,6,8,19,-518,-681,163,599
,1155,2023-10-27 11:50:44.80,74,-296,-2041,5,7,19,-651,-821,170,736
,1156,2023-10-27 11:50:44.81,70,-293,-2039,5,5,20,-500,-689,189,594
,1157,2023-10-27 11:50:44.82,64,-290,-2038,2,4,19,-638,-835,197,736
,1158,2023-10-27 11:50:44.83,77,-293,-2029,0,7,19,-496,-701,205,598
,1159,2023-10-27 11:50:44.84,80,-288,-2039,-5,7,19,-644,-846,202,745
,1160,2023-10-27 11:50:44.85,75,-287,-2045,-10,9,19,-500,-698,198,599
,1161,2023-10-27 11:50:44.86,75,-287,-2043,-13,8,19,-648,-832,184,740
,1162,2023-10-27 11:50:44.87,71,-289,-2046,-19,4,21,-495,-683,188,589
,1163,2023-10-27 11:50:44.88,72,-288,-2038,-17,0,22,-625,-821,196,723
,1164,2023-10-27 11:50:44.89,70,-285,-2034,-19,-4,25,-476,-674,198,575
,1165,2023-10-27 11:50:44.90,65,-277,-2042,-19,-4,27,-613,-816,203,714
,1166,2023-10-27 11:50:44.91,75,-278,-2030,-20,-1,28,-471,-685,214,578
,1167,2023-10-27 11:50:44.92,72,-271,-2028,-21,4,30,-598,-827,229,712
,1168,2023-10-27 11:50:44.93,70,-269,-2031,-21,8,25,-460,-688,228,574
,1169,2023-10-27 11:50:44.94,70,-266,-2040,-17,6,24,-588,-823,235,705
,1170,2023-10-27 11:50:44.95,61,-265,-2037,-9,5,24,-448,-684,236,566
,1171,2023-10-27 11:50:44.96,62,-273,-2042,-4,0,21,-583,-824,241,703
,1172,2023-10-27 11:50:44.97,68,-271,-2046,-3,0,21,-454,-692,238,573
,1173,2023-10-27 11:50:44.98,72,-269,-2035,-2,5,19,-580,-825,245,702
,1174,2023-10-27 11:50:44.99,74,-268,-2033,0,11,14,-452,-691,239,571
,1175,2023-10-27 11:50:45.00,63,-264,-2035,-1,20,13,-572,-825,253,698
,1176,2023-10-27 11:50:45.01,67,-268,-2030,-2,26,10,-448,-698,250,573
,1177,2023-10-27 11:50:45.02,71,-263,-2031,-1,32,5,-570,-835,265,702
,1178,2023-10-27 11:50:45.03,67,-269,-2041,-1,34,4,-450,-702,252,576
,1179,2023-10-27 11:50:45.04,70,-272,-2040,3,33,2,-571,-825,254,698
,1180,2023-10-27 11:50:45.05,80,-276,-2043,7,33,3,-461,-697,236,579
,1181,2023-10-27 11:50:45.06,88,-276,-2035,5,29,3,-579,-825,246,702
,1182,2023-10-27 11:50:45.07,78,-275,-2039,7,27,1,-464,-709,245,586
,1183,2023-10-27 11:50:45.08,89,-285,-2034,8,26,3,-586,-835,249,710
,1184,2023-10-27 11:50:45.09,83,-274,-2036,9,26,6,-481,-716,235,598
,1185,2023-10-27 11:50:45.10,90,-283,-2049,4,21,7,-592,-834,242,713
,1186,2023-10-27 11:50:45.11,88,-289,-2042,2,19,10,-482,-712,230,597
,1187,2023-10-27 11:50:45.12,81,-291,-2048,1,16,10,-590,-828,238,709
,1188,2023-10-27 11:50:45.13,77,-279,-2051,0,15,12,-488,-711,223,599
,1189,2023-10-27 11:50:45.14,83,-286,-2043,-5,14,16,-587,-817,230,702
,1190,2023-10-27 11:50:45.15,83,-292,-2039,0,10,20,-489,-707,218,598
,1191,2023-10-27 11:50:45.16,90,-282,-2038,1,10,21,-580,-814,234,697
,1192,2023-10-27 11:50:45.17,76,-278,-2034,2,9,27,-481,-710,229,595
,1193,2023-10-27 11:50:45.18,77,-283,-2033,3,8,28,-581,-819,238,700
,1194,2023-10-27 11:50:45.19,81,-279,-2032,4,10,28,-500,-723,223,611
,1195,2023-10-27 11:50:45.20,82,-271,-2034,2,10,28,-595,-823,228,709
,1196,2023-10-27 11:50:45.21,80,-272,-2033,1,16,24,-510,-719,209,614
,1197,2023-10-27 11:50:45.22,74,-271,-2035,-3,18,23,-595,-819,224,707
,1198,2023-10-27 11:50:45.23,78,-266,-2037,-7,17,22,-509,-726,217,617
,1199,2023-10-27 11:50:45.24,78,-271,-2044,-9,15,19,-587,-817,230,702
,1200,2023-10-27 11:50:45.25,83,-273,-2042,-8,13,18,-509,-724,215,616
,1201,2023-10-27 11:50:45.26,77,-269,-2041,-10,8,15,-580,-810,230,695
,1202,2023-10-27 11:50:45.27,76,-272,-2033,-10,8,13,-512,-722,210,617
,1203,2023-10-27 11:50:45.28,88,-266,-2032,-10,10,13,-561,-796,235,678
,1204,2023-10-27 11:50:45.29,81,-272,-2038,-8,11,8,-491,-723,232,607
,1205,2023-10-27 11:50:45.30,85,-271,-2034,-11,10,8,-552,-803,251,677
,1206,2023-10-27 11:50:45.31,82,-270,-2041,-9,13,8,-501,-730,229,615
,1207,2023-10-27 11:50:45.32,88,-265,-2042,-9,13,10,-562,-801,239,681
,1208,2023-10-27 11:50:45.33,73,-274,-2052,-6,12,11,-511,-737,226,624
,1209,2023-10-27 11:50:45.34,78,-273,-2039,-2,11,18,-567,-810,243,688
,1210,2023-10-27 11:50:45.35,86,-277,-2045,0,14,22,-522,-746,224,634
,1211,2023-10-27 11:50:45.36,88,-274,-2044,3,10,25,-560,-800,240,680
,1212,2023-10-27 11:50:45.37,77,-277,-2042,6,12,27,-519,-747,228,633
,1213,2023-10-27 11:50:45.38,88,-276,-2039,6,8,33,-570,-804,234,687
,1214,2023-10-27 11:50:45.39,75,-279,-2034,5,12,34,-535,-745,210,640
,1215,2023-10-27 11:50:45.40,84,-276,-2033,6,16,38,-567,-790,223,678
,1216,2023-10-27 11:50:45.41,92,-272,-2029,9,21,38,-532,-746,214,639
,1217,2023-10-27 11:50:45.42,88,-273,-2033,8,20,37,-559,-795,236,677
,1218,2023-10-27 11:50:45.43,86,-265,-2040,7,19,37,-541,-761,220,651
,1219,2023-10-27 11:50:45.44,78,-266,-2036,1,18,36,-570,-804,234,687
,1220,2023-10-27 11:50:45.45,84,-270,-2046,-8,22,32,-553,-770,217,661
,1221,2023-10-27 11:50:45.46,85,-268,-2039,-16,27,32,-576,-798,222,687
,1222,2023-10-27 11:50:45.47,81,-275,-2044,-24,29,33,-564,-765,201,664
,1223,2023-10-27 11:50:45.48,93,-270,-2046,-28,29,30,-568,-788,220,678
,1224,2023-10-27 11:50:45.49,81,-269,-2040,-32,33,29,-562,-766,204,664
,1225,2023-10-27 11:50:45.50,77,-259,-2037,-39,31,29,-576,-791,215,683
,1226,2023-10-27 11:50:45.51,80,-256,-2040,-41,35,24,-578,-771,193,674
,1227,2023-10-27 11:50:45.52,94,-256,-2034,-43,35,23,-571,-781,210,676
,1228,2023-10-27 11:50:45.53,89,-252,-2040,-45,36,19,-576,-774,198,675
,1229,2023-10-27 11:50:45.54,86,-255,-2032,-39,29,17,-569,-784,215,676
,1230,2023-10-27 11:50:45.55,92,-265,-2040,-32,24,19,-578,-774,196,676
