// Data mode  : Full
// Data quality  : High
// Acceleration sensor's range  : 16g
// Gyroscope sensor's range  : 2000dps
//
//ARTIFACT,NUM,DATE,ACC_X,ACC_Y,ACC_Z,GYRO_X,GYRO_Y,GYRO_Z,EOG_L,EOG_R,EOG_H,EOG_V
,1,2023-10-27 11:38:46.95,104,532,-1980,70,31,33,-736,-782,46,759
,2,2023-10-27 11:38:46.96,94,538,-1989,75,32,37,-579,-639,60,609
,3,2023-10-27 11:38:46.97,110,553,-1992,76,26,42,-735,-780,45,757
,4,2023-10-27 11:38:46.98,107,556,-1986,77,22,44,-579,-636,57,607
,5,2023-10-27 11:38:46.99,102,557,-1988,79,21,48,-732,-774,42,753
,6,2023-10-27 11:38:47.00,108,538,-1991,81,23,49,-578,-634,56,606
,7,2023-10-27 11:38:47.01,79,576,-2009,86,30,47,-742,-784,42,763
,8,2023-10-27 11:38:47.02,86,579,-2001,86,17,54,-583,-641,58,612
,9,2023-10-27 11:38:47.03,85,574,-1985,84,3,63,-752,-789,37,770
,10,2023-10-27 11:38:47.04,84,558,-1965,74,-11,76,-599,-644,45,621
,11,2023-10-27 11:38:47.05,93,547,-1955,56,-14,83,-778,-808,30,793
,12,2023-10-27 11:38:47.06,118,534,-1943,39,-5,93,-619,-661,42,640
,13,2023-10-27 11:38:47.07,115,538,-1952,38,6,96,-789,-820,31,804
,14,2023-10-27 11:38:47.08,104,544,-1958,52,11,101,-630,-673,43,651
,15,2023-10-27 11:38:47.09,101,560,-1972,58,16,107,-806,-832,26,819
,16,2023-10-27 11:38:47.10,112,556,-1971,51,14,116,-652,-688,36,670
,17,2023-10-27 11:38:47.11,137,532,-1978,46,12,122,-826,-847,21,836
,18,2023-10-27 11:38:47.12,104,552,-1987,45,10,127,-660,-693,33,676
,19,2023-10-27 11:38:47.13,130,540,-1979,47,-5,131,-822,-843,21,832
,20,2023-10-27 11:38:47.14,116,549,-1983,52,-3,126,-650,-684,34,667
,21,2023-10-27 11:38:47.15,117,570,-1972,60,0,130,-819,-838,19,828
,22,2023-10-27 11:38:47.16,119,553,-1972,62,6,127,-652,-681,29,666
,23,2023-10-27 11:38:47.17,113,546,-1984,63,3,129,-825,-838,13,831
,24,2023-10-27 11:38:47.18,105,552,-1983,69,-2,132,-657,-680,23,668
,25,2023-10-27 11:38:47.19,141,550,-1980,91,7,128,-833,-842,9,837
,26,2023-10-27 11:38:47.20,125,536,-1975,114,17,125,-668,-688,20,678
,27,2023-10-27 11:38:47.21,110,543,-1991,125,24,117,-839,-846,7,842
,28,2023-10-27 11:38:47.22,118,550,-1988,126,20,117,-665,-682,17,673
,29,2023-10-27 11:38:47.23,130,528,-1957,120,24,114,-832,-837,5,834
,30,2023-10-27 11:38:47.24,129,511,-1976,128,42,103,-658,-672,14,665
,31,2023-10-27 11:38:47.25,130,497,-2002,147,45,94,-825,-825,0,825
,32,2023-10-27 11:38:47.26,140,481,-2015,151,46,92,-645,-654,9,649
,33,2023-10-27 11:38:47.27,141,479,-1996,157,49,85,-807,-805,-2,806
,34,2023-10-27 11:38:47.28,142,481,-1989,165,53,71,-622,-634,12,628
,35,2023-10-27 11:38:47.29,136,480,-1993,162,61,63,-788,-790,2,789
,36,2023-10-27 11:38:47.30,138,476,-2004,156,62,56,-608,-624,16,616
,37,2023-10-27 11:38:47.31,132,473,-2003,148,65,51,-780,-787,7,783
,38,2023-10-27 11:38:47.32,144,468,-1999,139,60,47,-607,-628,21,617
,39,2023-10-27 11:38:47.33,131,462,-2005,129,45,44,-774,-785,11,779
,40,2023-10-27 11:38:47.34,127,462,-1996,116,33,43,-596,-618,22,607
,41,2023-10-27 11:38:47.35,126,443,-1995,101,24,38,-757,-772,15,764
,42,2023-10-27 11:38:47.36,143,436,-1968,90,21,38,-579,-604,25,591
,43,2023-10-27 11:38:47.37,140,448,-2000,84,20,37,-735,-756,21,745
,44,2023-10-27 11:38:47.38,131,421,-2002,79,7,40,-552,-591,39,571
,45,2023-10-27 11:38:47.39,130,456,-1996,78,15,38,-710,-741,31,725
,46,2023-10-27 11:38:47.40,118,439,-2005,67,5,41,-528,-571,43,549
,47,2023-10-27 11:38:47.41,119,428,-2016,40,-13,46,-688,-724,36,706
,48,2023-10-27 11:38:47.42,106,440,-2018,19,-27,54,-515,-567,52,541
,49,2023-10-27 11:38:47.43,122,450,-2019,11,-37,60,-673,-720,47,696
,50,2023-10-27 11:38:47.44,126,457,-2019,0,-36,59,-513,-566,53,539
,51,2023-10-27 11:38:47.45,108,462,-1988,-11,-50,61,-671,-715,44,693
,52,2023-10-27 11:38:47.46,132,477,-1992,-25,-52,60,-512,-568,56,540
,53,2023-10-27 11:38:47.47,123,466,-1984,-44,-42,53,-653,-704,51,678
,54,2023-10-27 11:38:47.48,116,479,-1978,-53,-36,50,-489,-555,66,522
,55,2023-10-27 11:38:47.49,131,476,-1988,-54,-25,47,-638,-694,56,666
,56,2023-10-27 11:38:47.50,130,475,-1986,-54,-15,43,-494,-555,61,524
,57,2023-10-27 11:38:47.51,128,479,-1984,-50,-5,37,-647,-699,52,673
,58,2023-10-27 11:38:47.52,131,473,-1986,-49,4,37,-504,-566,62,535
,59,2023-10-27 11:38:47.53,137,477,-1976,-55,16,33,-658,-710,52,684
,60,2023-10-27 11:38:47.54,131,475,-1990,-61,31,32,-521,-581,60,551
,61,2023-10-27 11:38:47.55,137,481,-1988,-61,42,31,-664,-715,51,689
,62,2023-10-27 11:38:47.56,137,485,-1982,-62,51,29,-525,-585,60,555
,63,2023-10-27 11:38:47.57,138,482,-1983,-59,56,25,-653,-709,56,681
,64,2023-10-27 11:38:47.58,133,476,-1979,-55,58,25,-519,-583,64,551
,65,2023-10-27 11:38:47.59,134,501,-1984,-49,60,30,-647,-704,57,675
,66,2023-10-27 11:38:47.60,132,498,-1984,-46,58,22,-522,-584,62,553
,67,2023-10-27 11:38:47.61,136,515,-1986,-44,55,22,-645,-699,54,672
,68,2023-10-27 11:38:47.62,150,524,-1981,-48,58,17,-528,-588,60,558
,69,2023-10-27 11:38:47.63,147,535,-1988,-58,62,9,-651,-706,55,678
,70,2023-10-27 11:38:47.64,157,529,-1984,-70,63,-4,-543,-603,60,573
,71,2023-10-27 11:38:47.65,146,536,-1990,-78,68,-9,-658,-714,56,686
,72,2023-10-27 11:38:47.66,142,530,-1981,-80,61,-18,-559,-619,60,589
,73,2023-10-27 11:38:47.67,145,534,-1992,-72,48,-21,-659,-714,55,686
,74,2023-10-27 11:38:47.68,145,523,-1995,-67,31,-25,-560,-618,58,589
,75,2023-10-27 11:38:47.69,137,537,-1987,-55,6,-27,-660,-710,50,685
,76,2023-10-27 11:38:47.70,179,541,-1997,-53,8,-31,-571,-625,54,598
,77,2023-10-27 11:38:47.71,159,539,-1982,-66,41,-40,-665,-717,52,691
,78,2023-10-27 11:38:47.72,142,536,-1984,-70,39,-47,-589,-640,51,614
,79,2023-10-27 11:38:47.73,145,524,-1978,-62,19,-45,-670,-720,50,695
,80,2023-10-27 11:38:47.74,178,522,-1984,-44,8,-38,-595,-645,50,620
,81,2023-10-27 11:38:47.75,153,515,-1983,-29,11,-36,-670,-717,47,693
,82,2023-10-27 11:38:47.76,146,510,-1983,-22,14,-37,-597,-647,50,622
,83,2023-10-27 11:38:47.77,155,511,-1976,-27,21,-32,-662,-714,52,688
,84,2023-10-27 11:38:47.78,177,525,-1981,-20,15,-27,-601,-652,51,626
,85,2023-10-27 11:38:47.79,171,531,-1974,-11,4,-25,-662,-710,48,686
,86,2023-10-27 11:38:47.80,155,534,-1986,-10,11,-23,-606,-654,48,630
,87,2023-10-27 11:38:47.81,167,519,-1994,-16,30,-29,-655,-703,48,679
,88,2023-10-27 11:38:47.82,143,520,-1995,-24,32,-26,-609,-658,49,633
,89,2023-10-27 11:38:47.83,161,514,-2000,-25,21,-21,-662,-713,51,687
,90,2023-10-27 11:38:47.84,146,515,-1999,-18,5,-15,-623,-677,54,650
,91,2023-10-27 11:38:47.85,153,522,-1994,-12,-6,-4,-663,-714,51,688
,92,2023-10-27 11:38:47.86,146,517,-1983,-15,-21,2,-629,-675,46,652
,93,2023-10-27 11:38:47.87,156,518,-1978,-17,-22,9,-666,-713,47,689
,94,2023-10-27 11:38:47.88,157,529,-1973,-16,-22,11,-635,-678,43,656
,95,2023-10-27 11:38:47.89,141,533,-1974,-12,-24,14,-661,-709,48,685
,96,2023-10-27 11:38:47.90,144,524,-1977,-10,-25,15,-642,-689,47,665
,97,2023-10-27 11:38:47.91,156,521,-1984,-14,-22,14,-656,-704,48,680
,98,2023-10-27 11:38:47.92,130,531,-1983,-13,-21,8,-646,-693,47,669
,99,2023-10-27 11:38:47.93,154,528,-1978,-10,-19,7,-656,-705,49,680
,100,2023-10-27 11:38:47.94,151,533,-1983,-5,-17,-5,-654,-699,45,676
,101,2023-10-27 11:38:47.95,147,532,-1982,-3,-13,-17,-648,-697,49,672
,102,2023-10-27 11:38:47.96,139,535,-1982,-1,-9,-25,-652,-696,44,674
,103,2023-10-27 11:38:47.97,150,538,-1988,-1,-8,-38,-638,-687,49,662
,104,2023-10-27 11:38:47.98,140,524,-1977,-5,-4,-51,-651,-699,48,675
,105,2023-10-27 11:38:47.99,138,522,-1978,-5,2,-66,-630,-683,53,656
,106,2023-10-27 11:38:48.00,137,522,-1980,-7,3,-82,-651,-697,46,674
,107,2023-10-27 11:38:48.01,128,525,-1978,-7,1,-97,-629,-680,51,654
,108,2023-10-27 11:38:48.02,131,520,-1972,-3,-7,-113,-662,-706,44,684
,109,2023-10-27 11:38:48.03,154,514,-1963,9,-12,-132,-634,-688,54,661
,110,2023-10-27 11:38:48.04,153,505,-1965,31,-14,-152,-672,-719,47,695
,111,2023-10-27 11:38:48.05,158,489,-1942,48,-10,-174,-631,-689,58,660
,112,2023-10-27 11:38:48.06,157,495,-1927,75,7,-201,-674,-723,49,698
,113,2023-10-27 11:38:48.07,147,492,-1956,94,12,-221,-625,-679,54,652
,114,2023-10-27 11:38:48.08,137,467,-1991,96,10,-227,-677,-721,44,699
,115,2023-10-27 11:38:48.09,148,448,-1990,101,-3,-231,-624,-675,51,649
,116,2023-10-27 11:38:48.10,146,447,-1974,121,-13,-234,-683,-724,41,703
,117,2023-10-27 11:38:48.11,152,440,-1983,141,-17,-239,-620,-673,53,646
,118,2023-10-27 11:38:48.12,155,442,-2041,129,-4,-250,-689,-733,44,711
,119,2023-10-27 11:38:48.13,144,443,-2047,96,11,-259,-626,-678,52,652
,120,2023-10-27 11:38:48.14,174,449,-2067,52,39,-268,-698,-741,43,719
,121,2023-10-27 11:38:48.15,146,435,-2061,14,54,-282,-623,-674,51,648
,122,2023-10-27 11:38:48.16,160,417,-2028,-11,56,-288,-700,-742,42,721
,123,2023-10-27 11:38:48.17,142,417,-2001,-10,37,-294,-616,-667,51,641
,124,2023-10-27 11:38:48.18,149,430,-1980,8,20,-298,-703,-744,41,723
,125,2023-10-27 11:38:48.19,141,424,-1974,25,16,-309,-610,-662,52,636
,126,2023-10-27 11:38:48.20,141,420,-1989,36,17,-320,-705,-745,40,725
,127,2023-10-27 11:38:48.21,137,421,-2020,26,24,-334,-610,-659,49,634
,128,2023-10-27 11:38:48.22,130,424,-2029,9,33,-344,-706,-741,35,723
,129,2023-10-27 11:38:48.23,123,427,-2046,-9,37,-351,-602,-649,47,625
,130,2023-10-27 11:38:48.24,125,428,-2025,-22,32,-358,-713,-746,33,729
,131,2023-10-27 11:38:48.25,105,431,-2017,-22,20,-369,-611,-659,48,635
,132,2023-10-27 11:38:48.26,112,443,-2026,-28,3,-376,-728,-766,38,747
,133,2023-10-27 11:38:48.27,104,450,-2015,-32,-11,-381,-619,-669,50,644
,134,2023-10-27 11:38:48.28,91,459,-1996,-24,-23,-392,-737,-773,36,755
,135,2023-10-27 11:38:48.29,88,461,-1997,-15,-28,-400,-615,-664,49,639
,136,2023-10-27 11:38:48.30,86,449,-2005,-13,-42,-409,-734,-770,36,752
,137,2023-10-27 11:38:48.31,80,453,-2032,-20,-56,-414,-612,-661,49,636
,138,2023-10-27 11:38:48.32,56,464,-2020,-35,-65,-420,-727,-765,38,746
,139,2023-10-27 11:38:48.33,64,455,-2006,-36,-76,-421,-592,-644,52,618
,140,2023-10-27 11:38:48.34,79,458,-2012,-35,-77,-421,-723,-759,36,741
,141,2023-10-27 11:38:48.35,81,473,-2003,-38,-78,-427,-583,-630,47,606
,142,2023-10-27 11:38:48.36,80,499,-1993,-46,-74,-431,-718,-752,34,735
,143,2023-10-27 11:38:48.37,60,497,-1979,-56,-71,-439,-577,-622,45,599
,144,2023-10-27 11:38:48.38,36,500,-1950,-65,-63,-444,-719,-752,33,735
,145,2023-10-27 11:38:48.39,40,518,-1993,-72,-42,-446,-576,-623,47,599
,146,2023-10-27 11:38:48.40,36,513,-1986,-85,-44,-446,-722,-756,34,739
,147,2023-10-27 11:38:48.41,37,510,-1990,-92,-38,-450,-568,-617,49,592
,148,2023-10-27 11:38:48.42,26,509,-2031,-105,-27,-450,-716,-750,34,733
,149,2023-10-27 11:38:48.43,20,514,-2003,-113,-24,-450,-561,-608,47,584
,150,2023-10-27 11:38:48.44,10,502,-1990,-111,-23,-447,-718,-749,31,733
,151,2023-10-27 11:38:48.45,18,514,-1984,-110,-14,-448,-562,-607,45,584
,152,2023-10-27 11:38:48.46,0,522,-1984,-107,-13,-448,-720,-753,33,736
,153,2023-10-27 11:38:48.47,4,544,-1966,-106,-16,-445,-556,-601,45,578
,154,2023-10-27 11:38:48.48,-14,542,-1976,-98,-26,-444,-721,-750,29,735
,155,2023-10-27 11:38:48.49,-6,568,-2008,-86,-31,-443,-562,-606,44,584
,156,2023-10-27 11:38:48.50,11,594,-2028,-89,-15,-446,-728,-759,31,743
,157,2023-10-27 11:38:48.51,8,605,-2002,-89,-12,-460,-562,-607,45,584
,158,2023-10-27 11:38:48.52,33,594,-2005,-102,28,-470,-728,-759,31,743
,159,2023-10-27 11:38:48.53,25,591,-1984,-122,65,-486,-557,-603,46,580
,160,2023-10-27 11:38:48.54,-6,546,-1973,-126,85,-499,-726,-757,31,741
,161,2023-10-27 11:38:48.55,7,530,-1997,-117,97,-498,-557,-599,42,578
,162,2023-10-27 11:38:48.56,3,552,-1977,-97,105,-507,-722,-748,26,735
,163,2023-10-27 11:38:48.57,41,569,-1968,-74,119,-515,-545,-583,38,564
,164,2023-10-27 11:38:48.58,28,561,-1953,-70,152,-533,-724,-746,22,735
,165,2023-10-27 11:38:48.59,13,553,-1949,-82,183,-544,-549,-584,35,566
,166,2023-10-27 11:38:48.60,11,542,-1952,-97,209,-548,-761,-784,23,772
,167,2023-10-27 11:38:48.61,20,537,-1950,-99,224,-548,-612,-655,43,633
,168,2023-10-27 11:38:48.62,33,531,-1955,-86,232,-542,-779,-813,34,796
,169,2023-10-27 11:38:48.63,8,520,-1965,-71,234,-536,-578,-629,51,603
,170,2023-10-27 11:38:48.64,13,513,-2009,-82,236,-522,-750,-789,39,769
,171,2023-10-27 11:38:48.65,37,521,-1978,-97,225,-506,-567,-623,56,595
,172,2023-10-27 11:38:48.66,42,526,-1898,-87,213,-491,-738,-784,46,761
,173,2023-10-27 11:38:48.67,27,551,-1883,-49,190,-481,-550,-615,65,582
,174,2023-10-27 11:38:48.68,15,574,-1921,-12,170,-464,-725,-776,51,750
,175,2023-10-27 11:38:48.69,28,563,-1962,-15,162,-455,-540,-608,68,574
,176,2023-10-27 11:38:48.70,16,528,-1943,-23,167,-438,-717,-767,50,742
,177,2023-10-27 11:38:48.71,15,530,-1966,-24,174,-422,-536,-600,64,568
,178,2023-10-27 11:38:48.72,7,540,-1963,-30,151,-401,-718,-768,50,743
,179,2023-10-27 11:38:48.73,15,559,-1960,-24,132,-376,-530,-591,61,560
,180,2023-10-27 11:38:48.74,1,564,-1955,-14,116,-361,-705,-754,49,729
,181,2023-10-27 11:38:48.75,9,539,-1936,-2,113,-345,-528,-588,60,558
,182,2023-10-27 11:38:48.76,8,529,-1952,7,105,-335,-717,-762,45,739
,183,2023-10-27 11:38:48.77,8,536,-1950,12,104,-321,-549,-604,55,576
,184,2023-10-27 11:38:48.78,1,553,-1958,9,97,-309,-732,-770,38,751
,185,2023-10-27 11:38:48.79,-3,574,-1981,2,86,-301,-562,-610,48,586
,186,2023-10-27 11:38:48.80,3,580,-1986,-13,79,-296,-740,-775,35,757
,187,2023-10-27 11:38:48.81,3,602,-1988,-18,67,-291,-569,-616,47,592
,188,2023-10-27 11:38:48.82,16,627,-1972,-23,65,-297,-745,-779,34,762
,189,2023-10-27 11:38:48.83,-7,635,-2031,-36,78,-308,-581,-624,43,602
,190,2023-10-27 11:38:48.84,24,626,-1990,-65,72,-319,-760,-788,28,774
,191,2023-10-27 11:38:48.85,24,637,-1933,-82,87,-328,-603,-638,35,620
,192,2023-10-27 11:38:48.86,16,619,-1894,-59,88,-343,-778,-801,23,789
,193,2023-10-27 11:38:48.87,23,591,-1945,-21,101,-353,-619,-652,33,635
,194,2023-10-27 11:38:48.88,36,554,-1986,6,108,-361,-794,-818,24,806
,195,2023-10-27 11:38:48.89,41,538,-1963,26,124,-370,-637,-674,37,655
,196,2023-10-27 11:38:48.90,54,532,-1943,54,133,-376,-803,-832,29,817
,197,2023-10-27 11:38:48.91,60,505,-1925,83,144,-383,-639,-681,42,660
,198,2023-10-27 11:38:48.92,73,484,-1957,94,161,-389,-802,-832,30,817
,199,2023-10-27 11:38:48.93,66,481,-1948,98,177,-396,-639,-680,41,659
,200,2023-10-27 11:38:48.94,59,472,-1889,118,190,-398,-793,-827,34,810
,201,2023-10-27 11:38:48.95,63,460,-1892,143,208,-401,-629,-674,45,651
,202,2023-10-27 11:38:48.96,56,430,-1897,163,205,-407,-791,-828,37,809
,203,2023-10-27 11:38:48.97,57,427,-1899,169,210,-403,-638,-686,48,662
,204,2023-10-27 11:38:48.98,66,443,-1920,164,198,-395,-788,-829,41,808
,205,2023-10-27 11:38:48.99,80,445,-1941,146,189,-393,-632,-684,52,658
,206,2023-10-27 11:38:49.00,82,435,-1964,113,193,-390,-786,-829,43,807
,207,2023-10-27 11:38:49.01,98,427,-1939,80,196,-387,-637,-689,52,663
,208,2023-10-27 11:38:49.02,87,427,-1924,60,201,-389,-781,-824,43,802
,209,2023-10-27 11:38:49.03,71,424,-1908,50,210,-384,-634,-684,50,659
,210,2023-10-27 11:38:49.04,36,412,-1886,36,199,-379,-768,-812,44,790
,211,2023-10-27 11:38:49.05,24,428,-1958,20,201,-357,-630,-684,54,657
,212,2023-10-27 11:38:49.06,58,438,-2001,8,203,-334,-770,-815,45,792
,213,2023-10-27 11:38:49.07,44,428,-2009,-6,182,-313,-639,-689,50,664
,214,2023-10-27 11:38:49.08,30,439,-2036,-23,167,-288,-773,-814,41,793
,215,2023-10-27 11:38:49.09,32,460,-2027,-53,145,-266,-644,-691,47,667
,216,2023-10-27 11:38:49.10,23,492,-1997,-83,124,-240,-778,-821,43,799
,217,2023-10-27 11:38:49.11,48,519,-1984,-95,104,-213,-652,-703,51,677
,218,2023-10-27 11:38:49.12,30,526,-1954,-85,74,-186,-773,-821,48,797
,219,2023-10-27 11:38:49.13,52,543,-2008,-85,83,-161,-651,-704,53,677
,220,2023-10-27 11:38:49.14,34,527,-1985,-109,79,-144,-768,-818,50,793
,221,2023-10-27 11:38:49.15,39,542,-1985,-146,83,-116,-650,-706,56,678
,222,2023-10-27 11:38:49.16,20,515,-2038,-195,72,-87,-759,-809,50,784
,223,2023-10-27 11:38:49.17,28,517,-1976,-227,60,-53,-644,-699,55,671
,224,2023-10-27 11:38:49.18,23,534,-1975,-225,48,-19,-748,-799,51,773
,225,2023-10-27 11:38:49.19,38,537,-1931,-224,29,11,-650,-702,52,676
,226,2023-10-27 11:38:49.20,24,542,-1886,-234,17,37,-754,-801,47,777
,227,2023-10-27 11:38:49.21,48,560,-1886,-252,31,60,-658,-711,53,684
,228,2023-10-27 11:38:49.22,18,568,-1889,-270,33,80,-745,-798,53,771
,229,2023-10-27 11:38:49.23,24,594,-1898,-282,32,101,-654,-708,54,681
,230,2023-10-27 11:38:49.24,31,589,-1898,-290,28,118,-736,-790,54,763
,231,2023-10-27 11:38:49.25,16,594,-1911,-296,21,135,-655,-711,56,683
,232,2023-10-27 11:38:49.26,43,585,-1930,-308,15,148,-736,-786,50,761
,233,2023-10-27 11:38:49.27,43,563,-1944,-343,18,158,-666,-716,50,691
,234,2023-10-27 11:38:49.28,44,561,-1961,-378,17,169,-740,-788,48,764
,235,2023-10-27 11:38:49.29,76,605,-1936,-407,39,175,-680,-726,46,703
,236,2023-10-27 11:38:49.30,78,634,-1863,-409,26,169,-746,-794,48,770
,237,2023-10-27 11:38:49.31,108,656,-1839,-402,47,162,-690,-739,49,714
,238,2023-10-27 11:38:49.32,86,647,-1808,-399,55,148,-751,-803,52,777
,239,2023-10-27 11:38:49.33,87,658,-1794,-393,75,137,-701,-752,51,726
,240,2023-10-27 11:38:49.34,68,645,-1843,-389,88,128,-755,-810,55,782
,241,2023-10-27 11:38:49.35,78,658,-1896,-412,115,121,-711,-765,54,738
,242,2023-10-27 11:38:49.36,71,663,-1919,-428,117,118,-752,-813,61,782
,243,2023-10-27 11:38:49.37,37,694,-1912,-419,84,115,-706,-768,62,737
,244,2023-10-27 11:38:49.38,56,713,-1898,-412,54,117,-729,-797,68,763
,245,2023-10-27 11:38:49.39,54,748,-1898,-415,41,118,-689,-758,69,723
,246,2023-10-27 11:38:49.40,60,780,-1885,-412,1,108,-704,-783,79,743
,247,2023-10-27 11:38:49.41,90,825,-1845,-406,-8,101,-677,-752,75,714
,248,2023-10-27 11:38:49.42,50,825,-1891,-405,13,82,-692,-772,80,732
,249,2023-10-27 11:38:49.43,88,814,-1963,-407,14,73,-676,-752,76,714
,250,2023-10-27 11:38:49.44,59,822,-1932,-415,42,66,-687,-769,82,728
,251,2023-10-27 11:38:49.45,35,822,-1873,-394,27,65,-680,-753,73,716
,252,2023-10-27 11:38:49.46,68,871,-1817,-336,26,67,-686,-770,84,728
,253,2023-10-27 11:38:49.47,69,903,-1860,-258,18,57,-681,-761,80,721
,254,2023-10-27 11:38:49.48,24,922,-1823,-206,18,55,-673,-765,92,719
,255,2023-10-27 11:38:49.49,18,927,-1880,-169,3,64,-677,-762,85,719
,256,2023-10-27 11:38:49.50,23,932,-1908,-153,3,75,-657,-752,95,704
,257,2023-10-27 11:38:49.51,34,938,-1931,-118,-34,92,-668,-756,88,712
,258,2023-10-27 11:38:49.52,30,971,-1942,-88,-44,99,-638,-737,99,687
,259,2023-10-27 11:38:49.53,15,998,-1940,-81,-43,103,-659,-750,91,704
,260,2023-10-27 11:38:49.54,-8,989,-1922,-91,-48,110,-624,-727,103,675
,261,2023-10-27 11:38:49.55,-17,980,-1942,-103,-47,117,-654,-750,96,702
,262,2023-10-27 11:38:49.56,5,990,-1928,-101,-58,128,-615,-722,107,668
,263,2023-10-27 11:38:49.57,3,1001,-1898,-71,-90,143,-657,-749,92,703
,264,2023-10-27 11:38:49.58,0,1015,-1889,-51,-96,140,-614,-713,99,663
,265,2023-10-27 11:38:49.59,30,1059,-1889,-51,-78,140,-662,-751,89,706
,266,2023-10-27 11:38:49.60,-20,1043,-1877,-75,-75,135,-607,-708,101,657
,267,2023-10-27 11:38:49.61,0,1035,-1907,-112,-54,136,-664,-753,89,708
,268,2023-10-27 11:38:49.62,1,1027,-1925,-131,-60,139,-603,-703,100,653
,269,2023-10-27 11:38:49.63,-13,1001,-1898,-122,-85,146,-668,-758,90,713
,270,2023-10-27 11:38:49.64,18,992,-1881,-101,-104,158,-605,-705,100,655
,271,2023-10-27 11:38:49.65,16,979,-1848,-93,-107,163,-676,-762,86,719
,272,2023-10-27 11:38:49.66,29,994,-1852,-97,-108,169,-607,-702,95,654
,273,2023-10-27 11:38:49.67,15,970,-1840,-116,-108,169,-690,-769,79,729
,274,2023-10-27 11:38:49.68,74,1005,-1845,-140,-91,175,-613,-703,90,658
,275,2023-10-27 11:38:49.69,44,1022,-1841,-159,-80,176,-699,-778,79,738
,276,2023-10-27 11:38:49.70,41,991,-1812,-177,-74,167,-614,-708,94,661
,277,2023-10-27 11:38:49.71,77,977,-1809,-185,-60,163,-701,-782,81,741
,278,2023-10-27 11:38:49.72,89,979,-1817,-193,-36,155,-608,-701,93,654
,279,2023-10-27 11:38:49.73,62,967,-1769,-195,-40,144,-703,-782,79,742
,280,2023-10-27 11:38:49.74,92,985,-1782,-201,-15,138,-602,-692,90,647
,281,2023-10-27 11:38:49.75,86,977,-1773,-206,1,127,-711,-787,76,749
,282,2023-10-27 11:38:49.76,75,948,-1759,-200,2,120,-614,-704,90,659
,283,2023-10-27 11:38:49.77,77,957,-1781,-188,-4,122,-728,-803,75,765
,284,2023-10-27 11:38:49.78,62,952,-1789,-177,-1,114,-625,-711,86,668
,285,2023-10-27 11:38:49.79,41,940,-1793,-164,-3,111,-744,-812,68,778
,286,2023-10-27 11:38:49.80,65,953,-1800,-160,-6,113,-630,-710,80,670
,287,2023-10-27 11:38:49.81,57,961,-1795,-153,-19,115,-749,-812,63,780
,288,2023-10-27 11:38:49.82,93,973,-1807,-146,-23,120,-625,-702,77,663
,289,2023-10-27 11:38:49.83,56,965,-1808,-151,-22,118,-747,-810,63,778
,290,2023-10-27 11:38:49.84,77,979,-1811,-150,-32,120,-622,-701,79,661
,291,2023-10-27 11:38:49.85,74,990,-1832,-161,-13,118,-755,-821,66,788
,292,2023-10-27 11:38:49.86,51,996,-1835,-172,-21,117,-626,-702,76,664
,293,2023-10-27 11:38:49.87,69,1009,-1858,-180,-24,119,-759,-825,66,792
,294,2023-10-27 11:38:49.88,51,1029,-1873,-190,-30,118,-620,-703,83,661
,295,2023-10-27 11:38:49.89,64,1042,-1885,-198,-31,119,-754,-824,70,789
,296,2023-10-27 11:38:49.90,59,1037,-1900,-210,-41,118,-609,-694,85,651
,297,2023-10-27 11:38:49.91,59,1060,-1916,-215,-52,121,-752,-821,69,786
,298,2023-10-27 11:38:49.92,50,1071,-1921,-212,-66,120,-605,-696,91,650
,299,2023-10-27 11:38:49.93,68,1097,-1907,-212,-71,116,-749,-821,72,785
,300,2023-10-27 11:38:49.94,51,1094,-1881,-208,-80,114,-593,-682,89,637
,301,2023-10-27 11:38:49.95,66,1092,-1866,-204,-78,106,-744,-816,72,780
,302,2023-10-27 11:38:49.96,49,1086,-1860,-189,-78,107,-585,-676,91,630
,303,2023-10-27 11:38:49.97,47,1095,-1860,-165,-75,100,-744,-816,72,780
,304,2023-10-27 11:38:49.98,64,1098,-1828,-131,-80,96,-584,-674,90,629
,305,2023-10-27 11:38:49.99,72,1102,-1804,-94,-73,90,-744,-816,72,780
,306,2023-10-27 11:38:50.00,73,1087,-1789,-39,-50,71,-581,-671,90,626
,307,2023-10-27 11:38:50.01,73,1087,-1789,-39,-50,71,-748,-816,68,782
,308,2023-10-27 11:38:50.02,61,1059,-1809,22,-32,54,-583,-665,82,624
,309,2023-10-27 11:38:50.03,65,1051,-1805,55,-31,55,-756,-820,64,788
,310,2023-10-27 11:38:50.04,54,1022,-1815,78,-40,58,-592,-672,80,632
,311,2023-10-27 11:38:50.05,63,1005,-1817,90,-47,63,-766,-828,62,797
,312,2023-10-27 11:38:50.06,66,1020,-1814,105,-44,69,-600,-676,76,638
,313,2023-10-27 11:38:50.07,81,1012,-1786,118,-31,69,-771,-832,61,801
,314,2023-10-27 11:38:50.08,95,1002,-1788,132,-21,69,-600,-677,77,638
,315,2023-10-27 11:38:50.09,83,990,-1763,133,-15,66,-777,-836,59,806
,316,2023-10-27 11:38:50.10,79,970,-1771,126,4,64,-606,-681,75,643
,317,2023-10-27 11:38:50.11,91,962,-1809,118,19,62,-783,-842,59,812
,318,2023-10-27 11:38:50.12,96,943,-1834,116,23,67,-607,-683,76,645
,319,2023-10-27 11:38:50.13,80,937,-1838,118,21,75,-784,-843,59,813
,320,2023-10-27 11:38:50.14,87,944,-1829,121,20,78,-608,-684,76,646
,321,2023-10-27 11:38:50.15,89,933,-1837,119,15,85,-787,-844,57,815
,322,2023-10-27 11:38:50.16,85,914,-1825,113,17,90,-607,-682,75,644
,323,2023-10-27 11:38:50.17,89,934,-1841,105,21,95,-790,-846,56,818
,324,2023-10-27 11:38:50.18,95,903,-1833,102,18,97,-619,-688,69,653
,325,2023-10-27 11:38:50.19,99,904,-1834,104,18,99,-807,-857,50,832
,326,2023-10-27 11:38:50.20,104,907,-1837,103,19,99,-632,-695,63,663
,327,2023-10-27 11:38:50.21,110,914,-1832,97,22,96,-815,-861,46,838
,328,2023-10-27 11:38:50.22,107,908,-1826,95,25,95,-636,-701,65,668
,329,2023-10-27 11:38:50.23,109,910,-1830,95,30,94,-806,-861,55,833
,330,2023-10-27 11:38:50.24,105,903,-1811,98,29,90,-614,-687,73,650
,331,2023-10-27 11:38:50.25,95,896,-1809,97,27,88,-793,-849,56,821
,332,2023-10-27 11:38:50.26,104,874,-1822,91,27,90,-615,-685,70,650
,333,2023-10-27 11:38:50.27,106,870,-1832,85,25,92,-798,-851,53,824
,334,2023-10-27 11:38:50.28,112,871,-1841,85,16,93,-611,-684,73,647
,335,2023-10-27 11:38:50.29,121,873,-1843,86,16,97,-790,-848,58,819
,336,2023-10-27 11:38:50.30,115,886,-1834,81,20,93,-605,-681,76,643
,337,2023-10-27 11:38:50.31,115,877,-1839,74,23,95,-789,-849,60,819
,338,2023-10-27 11:38:50.32,102,878,-1836,65,26,94,-611,-690,79,650
,339,2023-10-27 11:38:50.33,113,891,-1827,55,33,93,-791,-855,64,823
,340,2023-10-27 11:38:50.34,110,892,-1822,47,32,87,-607,-687,80,647
,341,2023-10-27 11:38:50.35,108,878,-1834,37,30,84,-785,-847,62,816
,342,2023-10-27 11:38:50.36,111,897,-1834,24,26,81,-611,-690,79,650
,343,2023-10-27 11:38:50.37,106,896,-1845,12,27,71,-784,-847,63,815
,344,2023-10-27 11:38:50.38,89,899,-1846,8,16,61,-607,-685,78,646
,345,2023-10-27 11:38:50.39,91,905,-1843,5,9,56,-782,-846,64,814
,346,2023-10-27 11:38:50.40,92,901,-1840,1,0,52,-611,-691,80,651
,347,2023-10-27 11:38:50.41,109,914,-1847,-4,-4,44,-783,-847,64,815
,348,2023-10-27 11:38:50.42,116,925,-1819,-9,-10,34,-612,-691,79,651
,349,2023-10-27 11:38:50.43,107,921,-1824,-16,-8,22,-781,-845,64,813
,350,2023-10-27 11:38:50.44,89,927,-1824,-29,-10,13,-614,-692,78,653
,351,2023-10-27 11:38:50.45,99,931,-1821,-36,-15,-1,-783,-847,64,815
,352,2023-10-27 11:38:50.46,89,935,-1824,-44,-22,-9,-619,-696,77,657
,353,2023-10-27 11:38:50.47,102,938,-1834,-50,-33,-10,-784,-845,61,814
,354,2023-10-27 11:38:50.48,90,913,-1827,-49,-48,-12,-623,-697,74,660
,355,2023-10-27 11:38:50.49,94,911,-1836,-46,-50,-11,-784,-849,65,816
,356,2023-10-27 11:38:50.50,98,912,-1826,-41,-46,-7,-624,-705,81,664
,357,2023-10-27 11:38:50.51,86,907,-1819,-35,-42,-5,-779,-849,70,814
,358,2023-10-27 11:38:50.52,91,918,-1811,-31,-38,-2,-622,-706,84,664
,359,2023-10-27 11:38:50.53,86,921,-1823,-31,-24,2,-775,-847,72,811
,360,2023-10-27 11:38:50.54,101,928,-1824,-37,-11,1,-626,-710,84,668
,361,2023-10-27 11:38:50.55,89,933,-1837,-42,4,2,-779,-849,70,814
,362,2023-10-27 11:38:50.56,93,940,-1843,-42,7,5,-633,-713,80,673
,363,2023-10-27 11:38:50.57,93,944,-1842,-46,12,6,-773,-845,72,809
,364,2023-10-27 11:38:50.58,85,941,-1838,-46,10,6,-628,-712,84,670
,365,2023-10-27 11:38:50.59,93,936,-1850,-42,6,11,-769,-839,70,804
,366,2023-10-27 11:38:50.60,96,951,-1839,-33,2,11,-632,-709,77,670
,367,2023-10-27 11:38:50.61,113,961,-1834,-22,4,5,-768,-836,68,802
,368,2023-10-27 11:38:50.62,109,955,-1845,-19,3,1,-636,-716,80,676
,369,2023-10-27 11:38:50.63,98,960,-1841,-22,6,-4,-766,-833,67,799
,370,2023-10-27 11:38:50.64,104,955,-1831,-18,11,-8,-640,-715,75,677
,371,2023-10-27 11:38:50.65,110,948,-1830,-6,9,-12,-756,-824,68,790
,372,2023-10-27 11:38:50.66,100,947,-1816,4,5,-12,-634,-713,79,673
,373,2023-10-27 11:38:50.67,102,950,-1805,7,3,-15,-752,-820,68,786
,374,2023-10-27 11:38:50.68,97,945,-1813,12,1,-14,-647,-717,70,682
,375,2023-10-27 11:38:50.69,110,931,-1827,18,-6,-14,-755,-818,63,786
,376,2023-10-27 11:38:50.70,100,916,-1830,23,-15,-11,-651,-722,71,686
,377,2023-10-27 11:38:50.71,109,922,-1836,24,-18,-6,-749,-814,65,781
,378,2023-10-27 11:38:50.72,88,912,-1845,21,-22,0,-647,-718,71,682
,379,2023-10-27 11:38:50.73,92,908,-1831,14,-24,11,-740,-808,68,774
,380,2023-10-27 11:38:50.74,102,912,-1816,16,-30,17,-652,-724,72,688
,381,2023-10-27 11:38:50.75,110,910,-1814,15,-22,19,-739,-808,69,773
,382,2023-10-27 11:38:50.76,118,919,-1796,6,-4,16,-654,-728,74,691
,383,2023-10-27 11:38:50.77,113,936,-1808,-6,17,8,-740,-812,72,776
,384,2023-10-27 11:38:50.78,109,930,-1827,-22,36,2,-664,-736,72,700
,385,2023-10-27 11:38:50.79,98,928,-1833,-33,43,3,-736,-802,66,769
,386,2023-10-27 11:38:50.80,106,923,-1828,-39,34,5,-666,-737,71,701
,387,2023-10-27 11:38:50.81,101,914,-1823,-41,30,3,-730,-800,70,765
,388,2023-10-27 11:38:50.82,97,925,-1821,-45,37,6,-668,-741,73,704
,389,2023-10-27 11:38:50.83,62,905,-1898,-61,48,2,-726,-798,72,762
,390,2023-10-27 11:38:50.84,100,936,-1791,-67,37,9,-668,-743,75,705
,391,2023-10-27 11:38:50.85,107,947,-1779,-46,55,3,-719,-789,70,754
,392,2023-10-27 11:38:50.86,94,941,-1821,-37,56,-5,-671,-742,71,706
,393,2023-10-27 11:38:50.87,47,928,-1735,-33,40,-12,-714,-787,73,750
,394,2023-10-27 11:38:50.88,127,964,-1778,4,30,-11,-672,-750,78,711
,395,2023-10-27 11:38:50.89,86,943,-1830,21,17,-17,-701,-784,83,742
,396,2023-10-27 11:38:50.90,102,948,-1848,11,27,-15,-665,-748,83,706
,397,2023-10-27 11:38:50.91,71,931,-1829,3,23,-21,-693,-778,85,735
,398,2023-10-27 11:38:50.92,101,956,-1828,0,31,-22,-670,-754,84,712
,399,2023-10-27 11:38:50.93,105,960,-1811,-1,32,-25,-688,-776,88,732
,400,2023-10-27 11:38:50.94,110,962,-1790,-3,36,-31,-674,-758,84,716
,401,2023-10-27 11:38:50.95,109,957,-1787,-1,35,-34,-689,-773,84,731
,402,2023-10-27 11:38:50.96,107,949,-1816,-11,44,-37,-684,-766,82,725
,403,2023-10-27 11:38:50.97,112,943,-1843,-26,42,-32,-685,-775,90,730
,404,2023-10-27 11:38:50.98,99,952,-1830,-26,47,-25,-684,-775,91,729
,405,2023-10-27 11:38:50.99,86,951,-1863,-21,34,-18,-682,-776,94,729
,406,2023-10-27 11:38:51.00,90,952,-1870,-26,19,-3,-694,-778,84,736
,407,2023-10-27 11:38:51.01,103,962,-1859,-29,1,13,-681,-769,88,725
,408,2023-10-27 11:38:51.02,101,956,-1832,-26,-17,30,-699,-778,79,738
,409,2023-10-27 11:38:51.03,117,963,-1819,-16,-30,42,-679,-763,84,721
,410,2023-10-27 11:38:51.04,120,977,-1808,-2,-34,49,-702,-777,75,739
,411,2023-10-27 11:38:51.05,121,982,-1801,11,-27,56,-677,-752,75,714
,412,2023-10-27 11:38:51.06,116,979,-1815,26,-20,61,-713,-782,69,747
,413,2023-10-27 11:38:51.07,101,978,-1823,41,-11,68,-693,-765,72,729
,414,2023-10-27 11:38:51.08,112,989,-1824,58,-7,77,-737,-799,62,768
,415,2023-10-27 11:38:51.09,103,1006,-1834,72,-8,88,-701,-770,69,735
,416,2023-10-27 11:38:51.10,99,1029,-1839,80,-16,98,-737,-800,63,768
,417,2023-10-27 11:38:51.11,95,1041,-1844,89,-23,104,-683,-756,73,719
,418,2023-10-27 11:38:51.12,83,1052,-1853,100,-24,109,-733,-800,67,766
,419,2023-10-27 11:38:51.13,74,1049,-1842,110,-29,113,-674,-758,84,716
,420,2023-10-27 11:38:51.14,92,1058,-1845,123,-23,118,-730,-806,76,768
,421,2023-10-27 11:38:51.15,99,1054,-1832,139,-25,121,-665,-752,87,708
,422,2023-10-27 11:38:51.16,81,1074,-1846,154,-20,128,-733,-807,74,770
,423,2023-10-27 11:38:51.17,78,1104,-1844,164,-13,127,-660,-746,86,703
,424,2023-10-27 11:38:51.18,82,1133,-1856,170,-9,123,-735,-813,78,774
,425,2023-10-27 11:38:51.19,96,1096,-1819,190,-12,116,-662,-753,91,707
,426,2023-10-27 11:38:51.20,103,1111,-1857,203,6,117,-742,-825,83,783
,427,2023-10-27 11:38:51.21,89,1076,-1823,212,0,112,-649,-742,93,695
,428,2023-10-27 11:38:51.22,100,1073,-1848,223,9,108,-739,-819,80,779
,429,2023-10-27 11:38:51.23,77,1106,-1856,226,9,110,-647,-736,89,691
,430,2023-10-27 11:38:51.24,89,1122,-1891,228,16,114,-745,-821,76,783
,431,2023-10-27 11:38:51.25,87,1104,-1880,240,11,115,-645,-736,91,690
,432,2023-10-27 11:38:51.26,102,1100,-1884,266,11,116,-753,-825,72,789
,433,2023-10-27 11:38:51.27,61,1134,-1878,300,-9,122,-645,-734,89,689
,434,2023-10-27 11:38:51.28,107,1103,-1876,329,-4,126,-752,-827,75,789
,435,2023-10-27 11:38:51.29,85,1043,-1838,362,-2,119,-639,-730,91,684
,436,2023-10-27 11:38:51.30,72,1038,-1853,396,11,124,-754,-830,76,792
,437,2023-10-27 11:38:51.31,93,1041,-1879,411,18,132,-633,-724,91,678
,438,2023-10-27 11:38:51.32,109,1052,-1893,422,36,132,-755,-827,72,791
,439,2023-10-27 11:38:51.33,109,1038,-1920,439,45,126,-628,-715,87,671
,440,2023-10-27 11:38:51.34,105,1046,-1926,465,51,123,-752,-825,73,788
,441,2023-10-27 11:38:51.35,118,1037,-1921,496,60,120,-611,-702,91,656
,442,2023-10-27 11:38:51.36,114,973,-1850,530,57,113,-746,-820,74,783
,443,2023-10-27 11:38:51.37,100,942,-1822,568,79,112,-617,-710,93,663
,444,2023-10-27 11:38:51.38,134,929,-1839,607,101,112,-766,-837,71,801
,445,2023-10-27 11:38:51.39,147,895,-1837,649,112,114,-639,-722,83,680
,446,2023-10-27 11:38:51.40,108,852,-1830,697,114,120,-788,-854,66,821
,447,2023-10-27 11:38:51.41,138,832,-1856,749,126,134,-657,-738,81,697
,448,2023-10-27 11:38:51.42,149,816,-1881,789,127,145,-808,-866,58,837
,449,2023-10-27 11:38:51.43,156,797,-1900,812,135,158,-664,-739,75,701
,450,2023-10-27 11:38:51.44,130,750,-1899,823,140,172,-812,-870,58,841
,451,2023-10-27 11:38:51.45,143,720,-1933,841,142,195,-666,-744,78,705
,452,2023-10-27 11:38:51.46,176,710,-1965,863,125,211,-816,-874,58,845
,453,2023-10-27 11:38:51.47,134,693,-1986,885,115,220,-661,-733,72,697
,454,2023-10-27 11:38:51.48,152,673,-2008,900,104,230,-819,-871,52,845
,455,2023-10-27 11:38:51.49,138,619,-2004,916,80,237,-666,-734,68,700
,456,2023-10-27 11:38:51.50,125,618,-2019,917,70,244,-834,-882,48,858
,457,2023-10-27 11:38:51.51,159,642,-1991,922,55,258,-669,-733,64,701
,458,2023-10-27 11:38:51.52,181,657,-1971,936,38,261,-830,-879,49,854
,459,2023-10-27 11:38:51.53,165,638,-1925,948,19,250,-659,-728,69,693
,460,2023-10-27 11:38:51.54,184,604,-1937,960,10,242,-813,-873,60,843
,461,2023-10-27 11:38:51.55,195,589,-2001,941,36,227,-630,-709,79,669
,462,2023-10-27 11:38:51.56,142,544,-2026,915,41,216,-782,-848,66,815
,463,2023-10-27 11:38:51.57,132,514,-2009,920,14,229,-585,-669,84,627
,464,2023-10-27 11:38:51.58,196,527,-2076,931,14,241,-747,-814,67,780
,465,2023-10-27 11:38:51.59,146,500,-2061,905,11,236,-562,-649,87,605
,466,2023-10-27 11:38:51.60,136,471,-2025,878,16,247,-740,-816,76,778
,467,2023-10-27 11:38:51.61,157,448,-2022,867,18,260,-567,-663,96,615
,468,2023-10-27 11:38:51.62,162,431,-2039,861,15,265,-739,-818,79,778
,469,2023-10-27 11:38:51.63,131,417,-2020,855,-1,274,-564,-654,90,609
,470,2023-10-27 11:38:51.64,152,397,-1988,851,-20,291,-742,-812,70,777
,471,2023-10-27 11:38:51.65,167,370,-1956,865,-36,296,-576,-657,81,616
,472,2023-10-27 11:38:51.66,163,373,-1991,858,-31,294,-765,-825,60,795
,473,2023-10-27 11:38:51.67,206,386,-2005,803,26,289,-600,-672,72,636
,474,2023-10-27 11:38:51.68,133,306,-1955,787,25,281,-789,-842,53,815
,475,2023-10-27 11:38:51.69,196,276,-1970,787,54,283,-632,-694,62,663
,476,2023-10-27 11:38:51.70,201,270,-1970,782,73,280,-825,-871,46,848
,477,2023-10-27 11:38:51.71,199,243,-1939,779,77,280,-662,-724,62,693
,478,2023-10-27 11:38:51.72,209,211,-1934,776,97,273,-847,-893,46,870
,479,2023-10-27 11:38:51.73,188,161,-1905,784,111,270,-671,-732,61,701
,480,2023-10-27 11:38:51.74,218,154,-1941,788,128,277,-850,-898,48,874
,481,2023-10-27 11:38:51.75,180,89,-1924,802,108,279,-660,-729,69,694
,482,2023-10-27 11:38:51.76,235,109,-1982,793,131,294,-827,-884,57,855
,483,2023-10-27 11:38:51.77,203,94,-1971,789,124,291,-627,-706,79,666
,484,2023-10-27 11:38:51.78,224,104,-1998,780,132,294,-790,-858,68,824
,485,2023-10-27 11:38:51.79,234,67,-1997,767,138,294,-590,-676,86,633
,486,2023-10-27 11:38:51.80,222,27,-2019,747,142,297,-768,-844,76,806
,487,2023-10-27 11:38:51.81,219,27,-2050,719,135,304,-563,-664,101,613
,488,2023-10-27 11:38:51.82,219,38,-2078,686,129,305,-714,-816,102,765
,489,2023-10-27 11:38:51.83,209,16,-2079,659,105,309,-488,-618,130,553
,490,2023-10-27 11:38:51.84,214,-1,-2099,637,100,309,-636,-769,133,702
,491,2023-10-27 11:38:51.85,190,-10,-2145,617,74,312,-421,-580,159,500
,492,2023-10-27 11:38:51.86,191,-6,-2162,585,57,317,-576,-741,165,658
,493,2023-10-27 11:38:51.87,160,0,-2183,548,33,321,-362,-557,195,459
,494,2023-10-27 11:38:51.88,160,-9,-2175,504,21,318,-519,-720,201,619
,495,2023-10-27 11:38:51.89,144,-9,-2160,461,-14,317,-316,-538,222,427
,496,2023-10-27 11:38:51.90,160,12,-2169,415,-40,318,-460,-692,232,576
,497,2023-10-27 11:38:51.91,156,-20,-2148,367,-70,309,-286,-528,242,407
,498,2023-10-27 11:38:51.92,146,1,-2135,314,-88,300,-442,-684,242,563
,499,2023-10-27 11:38:51.93,157,-7,-2102,277,-113,291,-293,-530,237,411
,500,2023-10-27 11:38:51.94,141,-12,-2044,260,-157,278,-465,-688,223,576
,501,2023-10-27 11:38:51.95,191,-14,-2031,246,-171,262,-325,-546,221,435
,502,2023-10-27 11:38:51.96,177,-29,-1995,218,-153,235,-514,-706,192,610
,503,2023-10-27 11:38:51.97,185,-37,-1974,200,-129,208,-402,-577,175,489
,504,2023-10-27 11:38:51.98,189,-70,-1971,191,-100,184,-598,-743,145,670
,505,2023-10-27 11:38:51.99,186,-35,-1977,188,-78,154,-487,-619,132,553
,506,2023-10-27 11:38:52.00,188,-81,-1970,176,-66,136,-675,-786,111,730
,507,2023-10-27 11:38:52.01,163,-142,-1960,170,-54,120,-564,-668,104,616
,508,2023-10-27 11:38:52.02,182,-150,-1981,171,-38,122,-734,-819,85,776
,509,2023-10-27 11:38:52.03,160,-191,-1978,175,-48,125,-623,-696,73,659
,510,2023-10-27 11:38:52.04,175,-216,-1975,191,-59,145,-791,-843,52,817
,511,2023-10-27 11:38:52.05,180,-252,-1981,207,-57,162,-685,-730,45,707
,512,2023-10-27 11:38:52.06,177,-252,-1959,218,-67,182,-836,-868,32,852
,513,2023-10-27 11:38:52.07,204,-239,-1903,257,-56,217,-720,-748,28,734
,514,2023-10-27 11:38:52.08,221,-220,-1871,267,-41,228,-850,-871,21,860
,515,2023-10-27 11:38:52.09,209,-228,-1869,257,-37,240,-738,-759,21,748
,516,2023-10-27 11:38:52.10,224,-234,-1905,230,-22,246,-873,-886,13,879
,517,2023-10-27 11:38:52.11,211,-262,-1927,196,-5,249,-773,-784,11,778
,518,2023-10-27 11:38:52.12,178,-289,-1978,163,25,251,-899,-904,5,901
,519,2023-10-27 11:38:52.13,145,-313,-1995,148,27,258,-796,-803,7,799
,520,2023-10-27 11:38:52.14,141,-370,-2012,137,23,272,-903,-906,3,904
,521,2023-10-27 11:38:52.15,133,-386,-2013,134,-8,292,-804,-803,-1,803
,522,2023-10-27 11:38:52.16,113,-368,-1996,128,-40,315,-916,-910,-6,913
,523,2023-10-27 11:38:52.17,130,-355,-1984,119,-73,334,-826,-822,-4,824
,524,2023-10-27 11:38:52.18,132,-339,-1964,115,-109,351,-930,-928,-2,929
,525,2023-10-27 11:38:52.19,138,-329,-1955,102,-119,358,-834,-837,3,835
,526,2023-10-27 11:38:52.20,136,-379,-1991,83,-118,356,-921,-926,5,923
,527,2023-10-27 11:38:52.21,156,-323,-1933,51,-124,352,-822,-833,11,827
,528,2023-10-27 11:38:52.22,183,-287,-1865,35,-106,336,-897,-911,14,904
,529,2023-10-27 11:38:52.23,181,-302,-1848,26,-88,314,-805,-823,18,814
,530,2023-10-27 11:38:52.24,188,-332,-1890,18,-52,289,-874,-896,22,885
,531,2023-10-27 11:38:52.25,200,-356,-1949,-3,-6,266,-779,-806,27,792
,532,2023-10-27 11:38:52.26,171,-382,-1943,-11,8,248,-842,-869,27,855
,533,2023-10-27 11:38:52.27,221,-385,-2049,-15,58,237,-758,-787,29,772
,534,2023-10-27 11:38:52.28,183,-406,-2112,-49,81,217,-823,-852,29,837
,535,2023-10-27 11:38:52.29,223,-392,-2040,-85,78,208,-749,-783,34,766
,536,2023-10-27 11:38:52.30,201,-384,-2002,-93,85,200,-808,-845,37,826
,537,2023-10-27 11:38:52.31,191,-401,-2038,-85,81,195,-733,-773,40,753
,538,2023-10-27 11:38:52.32,189,-422,-2077,-75,49,195,-785,-826,41,805
,539,2023-10-27 11:38:52.33,202,-416,-2082,-59,16,202,-713,-758,45,735
,540,2023-10-27 11:38:52.34,191,-409,-2075,-40,-10,208,-750,-802,52,776
,541,2023-10-27 11:38:52.35,183,-411,-2068,-33,-46,214,-689,-745,56,717
,542,2023-10-27 11:38:52.36,188,-401,-2077,-43,-64,218,-736,-793,57,764
,543,2023-10-27 11:38:52.37,189,-378,-2057,-63,-81,223,-696,-755,59,725
,544,2023-10-27 11:38:52.38,176,-358,-2037,-65,-107,226,-730,-789,59,759
,545,2023-10-27 11:38:52.39,178,-368,-2017,-59,-137,236,-686,-744,58,715
,546,2023-10-27 11:38:52.40,218,-389,-1918,-33,-154,235,-719,-779,60,749
,547,2023-10-27 11:38:52.41,173,-378,-1950,-3,-134,228,-690,-752,62,721
,548,2023-10-27 11:38:52.42,156,-391,-2015,-12,-123,227,-717,-780,63,748
,549,2023-10-27 11:38:52.43,153,-417,-2039,-44,-113,232,-699,-756,57,727
,550,2023-10-27 11:38:52.44,146,-410,-2034,-42,-112,243,-714,-769,55,741
,551,2023-10-27 11:38:52.45,158,-393,-2017,-13,-134,252,-695,-751,56,723
,552,2023-10-27 11:38:52.46,139,-381,-2014,7,-148,257,-712,-767,55,739
,553,2023-10-27 11:38:52.47,144,-377,-2019,-8,-141,257,-707,-759,52,733
,554,2023-10-27 11:38:52.48,166,-358,-2030,-47,-115,253,-715,-763,48,739
,555,2023-10-27 11:38:52.49,158,-325,-2049,-91,-97,245,-717,-759,42,738
,556,2023-10-27 11:38:52.50,140,-313,-2049,-136,-90,234,-722,-761,39,741
,557,2023-10-27 11:38:52.51,160,-318,-2006,-167,-101,225,-728,-766,38,747
,558,2023-10-27 11:38:52.52,153,-294,-1978,-178,-108,215,-718,-762,44,740
,559,2023-10-27 11:38:52.53,150,-293,-1971,-190,-109,201,-730,-770,40,750
,560,2023-10-27 11:38:52.54,151,-304,-1949,-207,-88,185,-711,-757,46,734
,561,2023-10-27 11:38:52.55,145,-302,-1964,-210,-75,169,-731,-771,40,751
,562,2023-10-27 11:38:52.56,155,-312,-1966,-208,-78,154,-710,-756,46,733
,563,2023-10-27 11:38:52.57,151,-298,-1972,-200,-81,140,-740,-779,39,759
,564,2023-10-27 11:38:52.58,166,-286,-1952,-192,-68,123,-710,-752,42,731
,565,2023-10-27 11:38:52.59,171,-300,-1963,-185,-54,106,-741,-777,36,759
,566,2023-10-27 11:38:52.60,164,-306,-1974,-173,-44,85,-707,-747,40,727
,567,2023-10-27 11:38:52.61,172,-327,-1994,-153,-42,71,-745,-782,37,763
,568,2023-10-27 11:38:52.62,190,-321,-2023,-135,-31,58,-696,-742,46,719
,569,2023-10-27 11:38:52.63,182,-321,-2024,-125,-2,42,-734,-782,48,758
,570,2023-10-27 11:38:52.64,177,-335,-2035,-113,26,27,-683,-735,52,709
,571,2023-10-27 11:38:52.65,197,-352,-2059,-86,32,26,-741,-782,41,761
,572,2023-10-27 11:38:52.66,197,-342,-2058,-56,36,26,-685,-732,47,708
,573,2023-10-27 11:38:52.67,190,-341,-2073,-26,46,28,-733,-777,44,755
,574,2023-10-27 11:38:52.68,194,-363,-2073,-2,47,38,-659,-711,52,685
,575,2023-10-27 11:38:52.69,190,-360,-2064,29,42,51,-726,-769,43,747
,576,2023-10-27 11:38:52.70,183,-365,-2074,64,39,69,-650,-699,49,674
,577,2023-10-27 11:38:52.71,166,-386,-2078,97,26,87,-729,-770,41,749
,578,2023-10-27 11:38:52.72,187,-378,-2075,122,33,108,-652,-704,52,678
,579,2023-10-27 11:38:52.73,155,-334,-2101,115,67,120,-742,-782,40,762
,580,2023-10-27 11:38:52.74,150,-379,-2084,105,58,146,-655,-702,47,678
,581,2023-10-27 11:38:52.75,168,-390,-2080,119,45,174,-745,-781,36,763
,582,2023-10-27 11:38:52.76,159,-360,-2051,148,33,195,-647,-689,42,668
,583,2023-10-27 11:38:52.77,153,-347,-2064,157,32,215,-741,-776,35,758
,584,2023-10-27 11:38:52.78,161,-343,-2041,146,28,228,-646,-692,46,669
,585,2023-10-27 11:38:52.79,157,-326,-2030,138,41,240,-746,-787,41,766
,586,2023-10-27 11:38:52.80,139,-309,-2043,140,41,245,-642,-690,48,666
,587,2023-10-27 11:38:52.81,126,-279,-2052,122,42,250,-741,-781,40,761
,588,2023-10-27 11:38:52.82,120,-249,-2052,92,34,256,-627,-675,48,651
,589,2023-10-27 11:38:52.83,118,-230,-2080,56,14,262,-728,-771,43,749
,590,2023-10-27 11:38:52.84,104,-220,-2092,18,-8,261,-606,-661,55,633
,591,2023-10-27 11:38:52.85,113,-207,-2075,-27,-16,263,-714,-764,50,739
,592,2023-10-27 11:38:52.86,91,-200,-2064,-62,-37,266,-589,-652,63,620
,593,2023-10-27 11:38:52.87,93,-196,-2064,-104,-41,264,-710,-764,54,737
,594,2023-10-27 11:38:52.88,78,-191,-2063,-145,-44,260,-577,-643,66,610
,595,2023-10-27 11:38:52.89,99,-180,-2069,-188,-53,260,-704,-758,54,731
,596,2023-10-27 11:38:52.90,106,-176,-2086,-221,-56,260,-575,-637,62,606
,597,2023-10-27 11:38:52.91,79,-169,-2075,-246,-62,258,-714,-759,45,736
