// Data mode  : Full
// Data quality  : High
// Acceleration sensor's range  : 16g
// Gyroscope sensor's range  : 2000dps
//
//ARTIFACT,NUM,DATE,ACC_X,ACC_Y,ACC_Z,GYRO_X,GYRO_Y,GYRO_Z,EOG_L,EOG_R,EOG_H,EOG_V
,1,2023-10-27 12:31:48.40,85,-253,-2038,31,-18,30,9,-368,377,179
,2,2023-10-27 12:31:48.41,97,-251,-2039,32,-4,37,109,-381,490,136
,3,2023-10-27 12:31:48.42,100,-255,-2037,28,-5,39,11,-376,387,182
,4,2023-10-27 12:31:48.43,106,-251,-2036,28,3,42,104,-376,480,136
,5,2023-10-27 12:31:48.44,102,-249,-2031,23,9,45,9,-368,377,179
,6,2023-10-27 12:31:48.45,90,-255,-2034,21,11,42,92,-362,454,135
,7,2023-10-27 12:31:48.46,99,-251,-2038,21,23,46,14,-347,361,166
,8,2023-10-27 12:31:48.47,107,-249,-2036,16,23,42,108,-342,450,117
,9,2023-10-27 12:31:48.48,94,-251,-2042,19,27,44,28,-346,374,159
,10,2023-10-27 12:31:48.49,91,-248,-2040,18,26,40,95,-372,467,138
,11,2023-10-27 12:31:48.50,104,-245,-2038,20,32,38,21,-366,387,172
,12,2023-10-27 12:31:48.51,95,-239,-2037,19,28,32,95,-373,468,139
,13,2023-10-27 12:31:48.52,106,-247,-2033,18,37,28,36,-358,394,161
,14,2023-10-27 12:31:48.53,108,-241,-2033,14,39,19,92,-358,450,133
,15,2023-10-27 12:31:48.54,106,-242,-2025,17,43,14,34,-351,385,158
,16,2023-10-27 12:31:48.55,104,-244,-2041,13,53,5,98,-397,495,149
,17,2023-10-27 12:31:48.56,100,-244,-2045,14,62,2,49,-385,434,168
,18,2023-10-27 12:31:48.57,110,-243,-2048,15,54,-7,76,-366,442,145
,19,2023-10-27 12:31:48.58,104,-244,-2044,16,56,-14,22,-319,341,148
,20,2023-10-27 12:31:48.59,96,-246,-2046,20,51,-21,-1,-163,162,82
,21,2023-10-27 12:31:48.60,118,-239,-2041,23,48,-33,-46,-174,128,110
,22,2023-10-27 12:31:48.61,114,-245,-2042,27,48,-44,-195,-166,-29,180
,23,2023-10-27 12:31:48.62,112,-241,-2042,36,53,-55,-183,-233,50,208
,24,2023-10-27 12:31:48.63,114,-241,-2037,43,52,-68,-229,-178,-51,203
,25,2023-10-27 12:31:48.64,108,-246,-2035,49,54,-74,-165,-201,36,183
,26,2023-10-27 12:31:48.65,107,-247,-2040,57,57,-85,-233,-112,-121,172
,27,2023-10-27 12:31:48.66,117,-243,-2035,62,60,-96,-173,-142,-31,157
,28,2023-10-27 12:31:48.67,113,-243,-2042,69,57,-105,-270,-65,-205,167
,29,2023-10-27 12:31:48.68,116,-235,-2044,73,58,-114,-207,-120,-87,163
,30,2023-10-27 12:31:48.69,120,-236,-2035,72,55,-123,-310,-48,-262,179
,31,2023-10-27 12:31:48.70,121,-244,-2043,72,54,-137,-215,-95,-120,155
,32,2023-10-27 12:31:48.71,117,-251,-2031,74,52,-143,-297,-12,-285,154
,33,2023-10-27 12:31:48.72,141,-267,-2020,91,45,-142,-210,-69,-141,139
,34,2023-10-27 12:31:48.73,133,-238,-2065,79,56,-158,-300,30,-330,135
,35,2023-10-27 12:31:48.74,136,-266,-2026,71,38,-155,-211,-37,-174,124
,36,2023-10-27 12:31:48.75,126,-275,-2020,63,61,-163,-313,36,-349,138
,37,2023-10-27 12:31:48.76,142,-264,-2039,67,53,-158,-204,-37,-167,120
,38,2023-10-27 12:31:48.77,109,-271,-2008,56,60,-161,-304,62,-366,121
,39,2023-10-27 12:31:48.78,147,-276,-2045,55,50,-159,-192,1,-193,95
,40,2023-10-27 12:31:48.79,152,-289,-2003,51,46,-155,-298,77,-375,110
,41,2023-10-27 12:31:48.80,129,-280,-2020,61,53,-147,-188,11,-199,88
,42,2023-10-27 12:31:48.81,145,-275,-2066,55,49,-144,-312,65,-377,123
,43,2023-10-27 12:31:48.82,181,-284,-2056,56,50,-133,-203,-29,-174,116
,44,2023-10-27 12:31:48.83,165,-287,-2063,53,60,-128,-348,-32,-316,190
,45,2023-10-27 12:31:48.84,184,-284,-2053,42,67,-117,-195,-103,-92,149
,46,2023-10-27 12:31:48.85,151,-294,-2028,24,81,-113,-332,-45,-287,188
,47,2023-10-27 12:31:48.86,172,-297,-2023,15,86,-106,-174,-67,-107,120
,48,2023-10-27 12:31:48.87,166,-297,-2032,9,90,-90,-330,-15,-315,172
,49,2023-10-27 12:31:48.88,160,-291,-2032,3,85,-81,-179,-56,-123,117
,50,2023-10-27 12:31:48.89,176,-289,-2030,-10,89,-70,-337,-21,-316,179
,51,2023-10-27 12:31:48.90,178,-287,-2038,-20,94,-60,-176,-64,-112,120
,52,2023-10-27 12:31:48.91,177,-279,-2050,-32,83,-55,-330,-30,-300,180
,53,2023-10-27 12:31:48.92,190,-272,-2039,-36,84,-46,-165,-55,-110,110
,54,2023-10-27 12:31:48.93,184,-269,-2043,-41,80,-38,-336,-26,-310,181
,55,2023-10-27 12:31:48.94,188,-272,-2050,-46,73,-36,-171,-53,-118,112
,56,2023-10-27 12:31:48.95,201,-274,-2053,-45,61,-31,-341,-33,-308,187
,57,2023-10-27 12:31:48.96,206,-264,-2046,-45,57,-30,-172,-53,-119,112
,58,2023-10-27 12:31:48.97,206,-265,-2045,-47,45,-22,-348,-38,-310,193
,59,2023-10-27 12:31:48.98,206,-265,-2048,-50,47,-18,-168,-59,-109,113
,60,2023-10-27 12:31:48.99,195,-259,-2045,-48,45,-14,-344,-44,-300,194
,61,2023-10-27 12:31:49.00,211,-253,-2048,-56,38,-12,-170,-53,-117,111
,62,2023-10-27 12:31:49.01,215,-253,-2045,-56,41,-12,-357,-43,-314,200
,63,2023-10-27 12:31:49.02,219,-254,-2059,-58,39,-6,-175,-50,-125,112
,64,2023-10-27 12:31:49.03,212,-259,-2069,-58,30,-5,-357,-49,-308,203
,65,2023-10-27 12:31:49.04,215,-252,-2064,-60,32,6,-170,-50,-120,110
,66,2023-10-27 12:31:49.05,215,-251,-2048,-64,17,8,-347,-30,-317,188
,67,2023-10-27 12:31:49.06,213,-254,-2058,-62,5,7,-164,-22,-142,93
,68,2023-10-27 12:31:49.07,218,-241,-2064,-58,-7,16,-350,-28,-322,189
,69,2023-10-27 12:31:49.08,241,-230,-2073,-61,-23,13,-166,-38,-128,102
,70,2023-10-27 12:31:49.09,238,-228,-2044,-69,-15,16,-358,-61,-297,209
,71,2023-10-27 12:31:49.10,269,-201,-2056,-78,0,16,-169,-62,-107,115
,72,2023-10-27 12:31:49.11,250,-205,-2033,-96,8,3,-350,-48,-302,199
,73,2023-10-27 12:31:49.12,271,-206,-2027,-108,36,-5,-161,-28,-133,94
,74,2023-10-27 12:31:49.13,288,-199,-2045,-112,64,-9,-363,-54,-309,208
,75,2023-10-27 12:31:49.14,279,-175,-2059,-119,83,-11,-170,-32,-138,101
,76,2023-10-27 12:31:49.15,283,-207,-2042,-134,112,-15,-368,-62,-306,215
,77,2023-10-27 12:31:49.16,269,-219,-2033,-145,127,-8,-165,-39,-126,102
,78,2023-10-27 12:31:49.17,279,-211,-2069,-140,114,5,-352,-58,-294,205
,79,2023-10-27 12:31:49.18,253,-210,-2058,-140,115,17,-158,-25,-133,91
,80,2023-10-27 12:31:49.19,231,-231,-2051,-142,101,33,-360,-53,-307,206
,81,2023-10-27 12:31:49.20,253,-229,-2073,-132,91,52,-166,-15,-151,90
,82,2023-10-27 12:31:49.21,250,-209,-2096,-123,67,79,-379,-58,-321,218
,83,2023-10-27 12:31:49.22,252,-203,-2114,-138,47,98,-177,-20,-157,98
,84,2023-10-27 12:31:49.23,224,-208,-2113,-153,30,123,-368,-45,-323,206
,85,2023-10-27 12:31:49.24,232,-186,-2129,-171,26,147,-168,-2,-166,85
,86,2023-10-27 12:31:49.25,226,-202,-2136,-210,25,167,-371,-46,-325,208
,87,2023-10-27 12:31:49.26,205,-226,-2114,-239,19,195,-186,-9,-177,97
,88,2023-10-27 12:31:49.27,214,-216,-2130,-259,21,220,-404,-66,-338,235
,89,2023-10-27 12:31:49.28,192,-229,-2083,-265,15,247,-201,-25,-176,113
,90,2023-10-27 12:31:49.29,186,-225,-2094,-260,10,277,-387,-81,-306,234
,91,2023-10-27 12:31:49.30,170,-211,-2126,-270,2,296,-189,-24,-165,106
,92,2023-10-27 12:31:49.31,181,-218,-2082,-282,-9,320,-388,-84,-304,236
,93,2023-10-27 12:31:49.32,174,-243,-2096,-282,-16,338,-193,-34,-159,113
,94,2023-10-27 12:31:49.33,149,-249,-2135,-267,-38,361,-388,-91,-297,239
,95,2023-10-27 12:31:49.34,164,-238,-2161,-266,-51,387,-197,-31,-166,114
,96,2023-10-27 12:31:49.35,158,-215,-2119,-259,-84,397,-380,-96,-284,238
,97,2023-10-27 12:31:49.36,177,-184,-2074,-241,-90,390,-200,-19,-181,109
,98,2023-10-27 12:31:49.37,182,-163,-2091,-225,-98,373,-389,-85,-304,237
,99,2023-10-27 12:31:49.38,176,-84,-2109,-230,-112,349,-213,-10,-203,111
,100,2023-10-27 12:31:49.39,187,-76,-2024,-265,-95,312,-394,-87,-307,240
,101,2023-10-27 12:31:49.40,226,-80,-1998,-264,-103,263,-220,-8,-212,114
,102,2023-10-27 12:31:49.41,242,-64,-1938,-245,-99,216,-409,-97,-312,253
,103,2023-10-27 12:31:49.42,228,-48,-1926,-218,-100,174,-232,-9,-223,120
,104,2023-10-27 12:31:49.43,191,-34,-1950,-228,-87,121,-407,-89,-318,248
,105,2023-10-27 12:31:49.44,213,-47,-1969,-265,-91,87,-223,8,-231,107
,106,2023-10-27 12:31:49.45,196,-84,-1953,-301,-73,43,-381,-76,-305,228
,107,2023-10-27 12:31:49.46,184,-104,-1969,-310,-53,13,-213,35,-248,89
,108,2023-10-27 12:31:49.47,205,-143,-1966,-304,-34,-14,-390,-77,-313,233
,109,2023-10-27 12:31:49.48,232,-184,-1939,-268,-12,-33,-242,12,-254,115
,110,2023-10-27 12:31:49.49,227,-258,-1890,-191,9,-52,-447,-116,-331,281
,111,2023-10-27 12:31:49.50,182,-260,-1962,-90,-19,-51,-304,-24,-280,164
,112,2023-10-27 12:31:49.51,261,-273,-1913,39,-72,-41,-462,-139,-323,300
,113,2023-10-27 12:31:49.52,224,-301,-1907,121,-8,-41,-287,-11,-276,149
,114,2023-10-27 12:31:49.53,253,-326,-1907,176,23,-19,-428,-123,-305,275
,115,2023-10-27 12:31:49.54,289,-348,-1855,240,95,-16,-284,-11,-273,147
,116,2023-10-27 12:31:49.55,287,-366,-1878,336,168,1,-427,-124,-303,275
,117,2023-10-27 12:31:49.56,305,-372,-1863,435,219,18,-289,4,-293,142
,118,2023-10-27 12:31:49.57,308,-393,-1858,526,296,29,-432,-117,-315,274
,119,2023-10-27 12:31:49.58,342,-426,-1888,615,368,39,-290,19,-309,135
,120,2023-10-27 12:31:49.59,348,-481,-1880,709,456,48,-418,-106,-312,262
,121,2023-10-27 12:31:49.60,375,-488,-1881,814,535,73,-301,14,-315,143
,122,2023-10-27 12:31:49.61,373,-519,-1893,913,625,100,-424,-122,-302,273
,123,2023-10-27 12:31:49.62,324,-518,-1918,999,688,126,-314,9,-323,152
,124,2023-10-27 12:31:49.63,296,-490,-1969,1052,727,160,-425,-122,-303,273
,125,2023-10-27 12:31:49.64,309,-486,-2008,1059,718,200,-310,21,-331,144
,126,2023-10-27 12:31:49.65,304,-449,-2060,1028,685,243,-410,-111,-299,260
,127,2023-10-27 12:31:49.66,327,-408,-2124,975,659,273,-308,26,-334,141
,128,2023-10-27 12:31:49.67,329,-409,-2089,910,615,297,-413,-120,-293,266
,129,2023-10-27 12:31:49.68,399,-439,-2038,857,585,327,-309,24,-333,142
,130,2023-10-27 12:31:49.69,384,-506,-2018,831,573,351,-407,-115,-292,261
,131,2023-10-27 12:31:49.70,379,-550,-2017,797,539,375,-311,26,-337,142
,132,2023-10-27 12:31:49.71,407,-552,-1969,752,513,385,-397,-110,-287,253
,133,2023-10-27 12:31:49.72,408,-567,-1975,710,496,395,-308,37,-345,135
,134,2023-10-27 12:31:49.73,415,-535,-1994,660,471,393,-396,-104,-292,250
,135,2023-10-27 12:31:49.74,411,-540,-2010,598,446,386,-320,43,-363,138
,136,2023-10-27 12:31:49.75,408,-520,-1986,533,421,384,-391,-110,-281,250
,137,2023-10-27 12:31:49.76,426,-512,-1977,459,392,374,-308,27,-335,140
,138,2023-10-27 12:31:49.77,413,-514,-1965,400,358,365,-374,-112,-262,243
,139,2023-10-27 12:31:49.78,407,-511,-1943,333,342,350,-300,39,-339,130
,140,2023-10-27 12:31:49.79,398,-492,-1941,283,308,334,-364,-103,-261,233
,141,2023-10-27 12:31:49.80,410,-493,-1962,235,269,322,-308,48,-356,130
,142,2023-10-27 12:31:49.81,406,-483,-1944,188,231,313,-368,-101,-267,234
,143,2023-10-27 12:31:49.82,415,-446,-1988,147,189,297,-319,41,-360,139
,144,2023-10-27 12:31:49.83,402,-442,-1997,87,166,286,-365,-108,-257,236
,145,2023-10-27 12:31:49.84,413,-444,-1964,46,131,277,-326,37,-363,144
,146,2023-10-27 12:31:49.85,418,-446,-1993,22,116,259,-366,-110,-256,238
,147,2023-10-27 12:31:49.86,417,-455,-2033,10,91,251,-335,48,-383,143
,148,2023-10-27 12:31:49.87,422,-438,-2002,-15,87,254,-371,-99,-272,235
,149,2023-10-27 12:31:49.88,436,-413,-1995,-40,70,253,-352,54,-406,149
,150,2023-10-27 12:31:49.89,423,-423,-1978,-60,69,257,-364,-86,-278,225
,151,2023-10-27 12:31:49.90,411,-409,-1981,-73,64,258,-356,54,-410,151
,152,2023-10-27 12:31:49.91,420,-415,-1997,-88,66,264,-369,-100,-269,234
,153,2023-10-27 12:31:49.92,442,-392,-1999,-99,55,264,-358,49,-407,154
,154,2023-10-27 12:31:49.93,427,-377,-2016,-95,58,266,-362,-91,-271,226
,155,2023-10-27 12:31:49.94,441,-360,-2056,-98,42,260,-362,64,-426,149
,156,2023-10-27 12:31:49.95,427,-345,-2011,-106,41,255,-358,-85,-273,221
,157,2023-10-27 12:31:49.96,419,-337,-1992,-105,47,249,-366,64,-430,151
,158,2023-10-27 12:31:49.97,411,-326,-1985,-111,60,241,-354,-94,-260,224
,159,2023-10-27 12:31:49.98,419,-332,-1967,-121,50,237,-371,52,-423,159
,160,2023-10-27 12:31:49.99,418,-316,-1953,-126,63,230,-347,-90,-257,218
,161,2023-10-27 12:31:50.00,398,-307,-1927,-116,60,220,-373,67,-440,153
,162,2023-10-27 12:31:50.01,401,-317,-1911,-102,78,212,-349,-84,-265,216
,163,2023-10-27 12:31:50.02,393,-329,-1952,-100,84,205,-371,81,-452,145
,164,2023-10-27 12:31:50.03,406,-316,-1972,-86,74,200,-342,-64,-278,203
,165,2023-10-27 12:31:50.04,386,-324,-1956,-65,74,203,-370,98,-468,136
,166,2023-10-27 12:31:50.05,389,-275,-1921,-51,67,198,-335,-50,-285,192
,167,2023-10-27 12:31:50.06,389,-306,-1938,-55,77,191,-373,104,-477,134
,168,2023-10-27 12:31:50.07,367,-338,-1952,-56,79,194,-332,-50,-282,191
,169,2023-10-27 12:31:50.08,374,-315,-1961,-43,87,190,-375,107,-482,134
,170,2023-10-27 12:31:50.09,392,-360,-1965,-28,81,198,-326,-46,-280,186
,171,2023-10-27 12:31:50.10,393,-346,-1985,-16,86,191,-381,102,-483,139
,172,2023-10-27 12:31:50.11,383,-345,-2014,-5,92,187,-322,-56,-266,189
,173,2023-10-27 12:31:50.12,398,-326,-2008,-9,86,182,-389,91,-480,149
,174,2023-10-27 12:31:50.13,392,-299,-2005,-13,102,181,-322,-69,-253,195
,175,2023-10-27 12:31:50.14,394,-276,-1972,-27,94,175,-393,77,-470,158
,176,2023-10-27 12:31:50.15,399,-308,-1949,-33,109,169,-317,-86,-231,201
,177,2023-10-27 12:31:50.16,418,-353,-1971,-27,115,159,-398,59,-457,169
,178,2023-10-27 12:31:50.17,416,-367,-2024,-12,115,155,-313,-100,-213,206
,179,2023-10-27 12:31:50.18,402,-383,-1995,-7,116,156,-402,48,-450,177
,180,2023-10-27 12:31:50.19,427,-378,-1992,5,111,156,-308,-103,-205,205
,181,2023-10-27 12:31:50.20,397,-433,-2019,16,92,154,-393,47,-440,173
,182,2023-10-27 12:31:50.21,402,-385,-2021,18,85,158,-294,-100,-194,197
,183,2023-10-27 12:31:50.22,392,-407,-1982,2,94,167,-393,49,-442,172
,184,2023-10-27 12:31:50.23,407,-447,-1977,-9,84,169,-289,-103,-186,196
,185,2023-10-27 12:31:50.24,376,-463,-1996,-20,88,176,-394,44,-438,175
,186,2023-10-27 12:31:50.25,394,-477,-1964,-26,81,187,-282,-104,-178,193
,187,2023-10-27 12:31:50.26,402,-458,-1953,-41,101,193,-396,39,-435,178
,188,2023-10-27 12:31:50.27,393,-487,-1958,-64,109,196,-282,-103,-179,192
,189,2023-10-27 12:31:50.28,398,-494,-1960,-82,128,205,-404,35,-439,184
,190,2023-10-27 12:31:50.29,388,-506,-1972,-90,121,216,-283,-110,-173,196
,191,2023-10-27 12:31:50.30,383,-520,-1981,-102,116,225,-392,46,-438,173
,192,2023-10-27 12:31:50.31,377,-516,-1996,-113,112,234,-270,-93,-177,181
,193,2023-10-27 12:31:50.32,377,-482,-1970,-126,105,229,-398,45,-443,176
,194,2023-10-27 12:31:50.33,394,-471,-1953,-143,96,221,-267,-99,-168,183
,195,2023-10-27 12:31:50.34,399,-461,-1959,-167,103,204,-400,38,-438,181
,196,2023-10-27 12:31:50.35,384,-445,-1942,-188,107,196,-261,-95,-166,178
,197,2023-10-27 12:31:50.36,405,-471,-1977,-194,100,182,-394,33,-427,180
,198,2023-10-27 12:31:50.37,402,-432,-1960,-196,101,172,-256,-85,-171,170
,199,2023-10-27 12:31:50.38,400,-404,-1951,-203,101,156,-400,43,-443,178
,200,2023-10-27 12:31:50.39,408,-398,-1923,-218,105,142,-249,-79,-170,164
,201,2023-10-27 12:31:50.40,415,-410,-1964,-221,111,121,-400,46,-446,177
,202,2023-10-27 12:31:50.41,432,-394,-2013,-221,108,99,-250,-77,-173,163
,203,2023-10-27 12:31:50.42,437,-365,-2033,-226,109,78,-404,37,-441,183
,204,2023-10-27 12:31:50.43,443,-330,-2037,-239,106,59,-255,-75,-180,165
,205,2023-10-27 12:31:50.44,446,-312,-2038,-251,98,41,-416,35,-451,190
,206,2023-10-27 12:31:50.45,468,-295,-2044,-257,100,28,-253,-80,-173,166
,207,2023-10-27 12:31:50.46,463,-277,-2043,-260,104,19,-420,29,-449,195
,208,2023-10-27 12:31:50.47,472,-281,-2027,-265,95,9,-251,-81,-170,166
,209,2023-10-27 12:31:50.48,485,-277,-1995,-267,93,-2,-416,25,-441,195
,210,2023-10-27 12:31:50.49,485,-280,-2032,-254,97,-3,-252,-71,-181,161
,211,2023-10-27 12:31:50.50,478,-254,-2035,-239,72,-4,-433,32,-465,200
,212,2023-10-27 12:31:50.51,489,-252,-2045,-226,58,1,-261,-72,-189,166
,213,2023-10-27 12:31:50.52,492,-229,-2056,-222,49,3,-436,28,-464,204
,214,2023-10-27 12:31:50.53,494,-238,-2056,-220,57,7,-257,-67,-190,162
,215,2023-10-27 12:31:50.54,487,-222,-2072,-208,61,10,-441,21,-462,210
,216,2023-10-27 12:31:50.55,482,-223,-2073,-192,43,17,-258,-67,-191,162
,217,2023-10-27 12:31:50.56,480,-223,-2054,-171,27,35,-444,13,-457,215
,218,2023-10-27 12:31:50.57,476,-231,-2079,-148,-6,47,-258,-74,-184,166
,219,2023-10-27 12:31:50.58,447,-214,-2089,-135,-25,54,-437,4,-441,216
,220,2023-10-27 12:31:50.59,469,-219,-2045,-128,-48,63,-248,-66,-182,157
,221,2023-10-27 12:31:50.60,474,-212,-2045,-121,-41,67,-438,13,-451,212
,222,2023-10-27 12:31:50.61,471,-197,-2046,-111,-44,66,-251,-50,-201,150
,223,2023-10-27 12:31:50.62,478,-201,-2048,-107,-42,63,-444,23,-467,210
,224,2023-10-27 12:31:50.63,463,-212,-2045,-87,-38,66,-254,-40,-214,147
,225,2023-10-27 12:31:50.64,494,-225,-2014,-65,-33,68,-442,19,-461,211
,226,2023-10-27 12:31:50.65,487,-243,-2007,-46,-19,69,-249,-30,-219,139
,227,2023-10-27 12:31:50.66,490,-269,-2009,-23,2,76,-440,27,-467,206
,228,2023-10-27 12:31:50.67,501,-280,-1968,6,16,86,-251,-24,-227,137
,229,2023-10-27 12:31:50.68,506,-294,-1965,33,48,94,-449,26,-475,211
,230,2023-10-27 12:31:50.69,502,-344,-1991,66,57,101,-256,-23,-233,139
,231,2023-10-27 12:31:50.70,515,-332,-2007,92,73,112,-455,18,-473,218
,232,2023-10-27 12:31:50.71,500,-329,-2003,109,78,123,-246,-11,-235,128
,233,2023-10-27 12:31:50.72,501,-301,-2010,111,76,124,-454,26,-480,214
,234,2023-10-27 12:31:50.73,484,-303,-1998,108,71,132,-260,-14,-246,137
,235,2023-10-27 12:31:50.74,483,-319,-1992,108,80,134,-459,13,-472,223
,236,2023-10-27 12:31:50.75,481,-329,-1989,111,86,135,-257,-13,-244,135
,237,2023-10-27 12:31:50.76,485,-326,-1968,107,94,132,-460,17,-477,221
,238,2023-10-27 12:31:50.77,495,-324,-1955,116,92,124,-262,-14,-248,138
,239,2023-10-27 12:31:50.78,503,-310,-1943,106,91,110,-458,17,-475,220
,240,2023-10-27 12:31:50.79,497,-312,-1957,99,93,100,-255,-7,-248,131
,241,2023-10-27 12:31:50.80,514,-330,-1988,101,88,91,-456,3,-459,226
,242,2023-10-27 12:31:50.81,508,-322,-2003,105,82,81,-248,-15,-233,131
,243,2023-10-27 12:31:50.82,517,-318,-1984,110,63,75,-457,6,-463,225
,244,2023-10-27 12:31:50.83,513,-310,-1984,102,64,67,-260,-2,-258,131
,245,2023-10-27 12:31:50.84,518,-287,-2000,92,77,57,-459,14,-473,222
,246,2023-10-27 12:31:50.85,523,-293,-1969,89,91,47,-251,14,-265,118
,247,2023-10-27 12:31:50.86,540,-306,-1967,101,92,36,-455,15,-470,220
,248,2023-10-27 12:31:50.87,544,-321,-1983,118,94,32,-251,21,-272,115
,249,2023-10-27 12:31:50.88,558,-309,-2011,125,102,28,-455,17,-472,219
,250,2023-10-27 12:31:50.89,570,-298,-2009,128,95,34,-254,21,-275,116
,251,2023-10-27 12:31:50.90,557,-328,-2026,133,88,36,-454,11,-465,221
,252,2023-10-27 12:31:50.91,563,-323,-2048,138,86,39,-250,20,-270,115
,253,2023-10-27 12:31:50.92,560,-295,-2085,149,91,39,-453,-1,-452,227
,254,2023-10-27 12:31:50.93,557,-287,-2086,146,92,35,-249,18,-267,115
,255,2023-10-27 12:31:50.94,554,-273,-2117,149,93,39,-451,-4,-447,227
,256,2023-10-27 12:31:50.95,571,-239,-2140,144,75,39,-253,21,-274,116
,257,2023-10-27 12:31:50.96,573,-233,-2182,144,58,41,-449,-1,-448,225
,258,2023-10-27 12:31:50.97,574,-203,-2206,134,32,43,-250,35,-285,107
,259,2023-10-27 12:31:50.98,571,-171,-2246,124,6,52,-448,1,-449,223
,260,2023-10-27 12:31:50.99,580,-139,-2239,117,-2,56,-250,40,-290,105
,261,2023-10-27 12:31:51.00,576,-112,-2237,114,-39,60,-452,2,-454,225
,262,2023-10-27 12:31:51.01,575,-103,-2242,102,-45,63,-262,35,-297,113
,263,2023-10-27 12:31:51.02,586,-82,-2226,99,-70,61,-453,-6,-447,229
,264,2023-10-27 12:31:51.03,567,-61,-2271,126,-86,56,-262,40,-302,111
,265,2023-10-27 12:31:51.04,594,-18,-2252,160,-94,56,-459,-10,-449,234
,266,2023-10-27 12:31:51.05,588,7,-2251,174,-102,56,-268,44,-312,112
,267,2023-10-27 12:31:51.06,571,-36,-2115,219,-138,55,-460,-14,-446,237
,268,2023-10-27 12:31:51.07,541,-100,-2210,350,-207,67,-277,36,-313,120
,269,2023-10-27 12:31:51.08,471,-129,-2341,502,-342,111,-458,-16,-442,237
,270,2023-10-27 12:31:51.09,531,-93,-2518,640,-645,198,-280,52,-332,114
,271,2023-10-27 12:31:51.10,450,-42,-2334,517,-387,219,-462,-9,-453,235
,272,2023-10-27 12:31:51.11,545,-111,-2206,477,-506,245,-280,56,-336,112
,273,2023-10-27 12:31:51.12,456,-138,-2169,438,-374,220,-456,-13,-443,234
,274,2023-10-27 12:31:51.13,438,-126,-2356,504,-469,255,-282,47,-329,117
,275,2023-10-27 12:31:51.14,478,-142,-2186,525,-536,280,-454,-20,-434,237
,276,2023-10-27 12:31:51.15,463,-174,-2098,534,-543,284,-287,60,-347,113
,277,2023-10-27 12:31:51.16,455,-227,-2082,523,-521,284,-461,-8,-453,234
,278,2023-10-27 12:31:51.17,417,-254,-2121,505,-528,284,-289,69,-358,110
,279,2023-10-27 12:31:51.18,408,-251,-2186,476,-541,288,-457,-28,-429,242
,280,2023-10-27 12:31:51.19,373,-299,-2062,429,-539,286,-283,52,-335,115
,281,2023-10-27 12:31:51.20,375,-328,-2085,390,-525,272,-442,-40,-402,241
,282,2023-10-27 12:31:51.21,345,-354,-2114,342,-520,266,-278,54,-332,112
,283,2023-10-27 12:31:51.22,336,-356,-2082,305,-545,259,-439,-34,-405,236
,284,2023-10-27 12:31:51.23,314,-336,-2087,263,-553,245,-272,59,-331,106
,285,2023-10-27 12:31:51.24,317,-324,-2036,191,-572,223,-430,-27,-403,228
,286,2023-10-27 12:31:51.25,313,-344,-2024,102,-572,181,-259,74,-333,92
,287,2023-10-27 12:31:51.26,291,-335,-2002,22,-556,133,-403,-6,-397,204
,288,2023-10-27 12:31:51.27,279,-367,-1971,-50,-564,87,-238,109,-347,64
,289,2023-10-27 12:31:51.28,257,-367,-1945,-120,-558,38,-378,14,-392,182
,290,2023-10-27 12:31:51.29,240,-389,-1905,-183,-556,-4,-236,120,-356,58
,291,2023-10-27 12:31:51.30,224,-401,-1923,-241,-570,-47,-388,8,-396,190
,292,2023-10-27 12:31:51.31,227,-403,-1894,-300,-573,-92,-264,105,-369,79
,293,2023-10-27 12:31:51.32,187,-425,-1847,-349,-559,-129,-415,-32,-383,223
,294,2023-10-27 12:31:51.33,183,-434,-1798,-382,-550,-173,-279,66,-345,106
,295,2023-10-27 12:31:51.34,185,-424,-1831,-413,-521,-211,-420,-72,-348,246
,296,2023-10-27 12:31:51.35,166,-424,-1779,-454,-502,-247,-284,33,-317,125
,297,2023-10-27 12:31:51.36,171,-439,-1760,-486,-478,-294,-418,-89,-329,253
,298,2023-10-27 12:31:51.37,140,-463,-1779,-496,-462,-339,-290,29,-319,130
,299,2023-10-27 12:31:51.38,116,-475,-1795,-504,-444,-372,-412,-88,-324,250
,300,2023-10-27 12:31:51.39,101,-436,-1805,-512,-444,-399,-280,39,-319,120
,301,2023-10-27 12:31:51.40,118,-457,-1794,-520,-441,-429,-397,-91,-306,244
,302,2023-10-27 12:31:51.41,118,-463,-1794,-525,-429,-457,-274,33,-307,120
,303,2023-10-27 12:31:51.42,80,-443,-1819,-535,-388,-512,-392,-92,-300,242
,304,2023-10-27 12:31:51.43,84,-467,-1812,-533,-386,-537,-280,36,-316,122
,305,2023-10-27 12:31:51.44,80,-473,-1815,-529,-389,-565,-387,-97,-290,242
,306,2023-10-27 12:31:51.45,75,-456,-1822,-518,-374,-583,-282,34,-316,124
,307,2023-10-27 12:31:51.46,101,-466,-1813,-507,-354,-597,-385,-100,-285,242
,308,2023-10-27 12:31:51.47,80,-500,-1801,-490,-330,-617,-272,34,-306,119
,309,2023-10-27 12:31:51.48,70,-526,-1821,-460,-318,-625,-370,-93,-277,231
,310,2023-10-27 12:31:51.49,82,-528,-1835,-433,-278,-624,-280,46,-326,117
,311,2023-10-27 12:31:51.50,90,-524,-1842,-382,-291,-622,-374,-86,-288,230
,312,2023-10-27 12:31:51.51,84,-523,-1847,-342,-267,-621,-291,56,-347,117
,313,2023-10-27 12:31:51.52,83,-538,-1860,-312,-249,-623,-373,-79,-294,226
,314,2023-10-27 12:31:51.53,81,-530,-1885,-273,-231,-618,-288,71,-359,108
,315,2023-10-27 12:31:51.54,68,-514,-1913,-237,-228,-616,-376,-80,-296,228
,316,2023-10-27 12:31:51.55,88,-506,-1876,-202,-224,-615,-303,55,-358,124
,317,2023-10-27 12:31:51.56,98,-512,-1877,-175,-189,-612,-374,-90,-284,232
,318,2023-10-27 12:31:51.57,110,-536,-1906,-139,-174,-613,-299,58,-357,120
,319,2023-10-27 12:31:51.58,98,-502,-1950,-111,-146,-611,-358,-82,-276,220
,320,2023-10-27 12:31:51.59,95,-505,-1924,-82,-131,-603,-307,65,-372,121
,321,2023-10-27 12:31:51.60,83,-510,-1950,-57,-102,-604,-368,-76,-292,222
,322,2023-10-27 12:31:51.61,112,-526,-1969,-30,-102,-598,-309,67,-376,121
,323,2023-10-27 12:31:51.62,124,-493,-1948,1,-85,-588,-367,-81,-286,224
,324,2023-10-27 12:31:51.63,117,-476,-1928,31,-74,-580,-300,73,-373,113
,325,2023-10-27 12:31:51.64,162,-467,-1942,51,-64,-577,-342,-74,-268,208
,326,2023-10-27 12:31:51.65,142,-497,-1943,75,-42,-570,-307,72,-379,117
,327,2023-10-27 12:31:51.66,137,-507,-1951,108,-26,-557,-354,-78,-276,216
,328,2023-10-27 12:31:51.67,147,-527,-1962,144,-14,-543,-315,68,-383,123
,329,2023-10-27 12:31:51.68,171,-541,-1940,175,11,-525,-349,-77,-272,213
,330,2023-10-27 12:31:51.69,188,-539,-1939,205,35,-497,-301,67,-368,117
,331,2023-10-27 12:31:51.70,173,-573,-1939,232,41,-478,-321,-80,-241,200
,332,2023-10-27 12:31:51.71,178,-564,-1969,255,59,-447,-268,65,-333,101
,333,2023-10-27 12:31:51.72,177,-580,-1968,267,78,-414,-295,-77,-218,186
,334,2023-10-27 12:31:51.73,172,-609,-1955,273,80,-373,-268,67,-335,100
,335,2023-10-27 12:31:51.74,158,-625,-1963,276,69,-331,-298,-75,-223,186
,336,2023-10-27 12:31:51.75,187,-613,-1969,283,48,-282,-272,70,-342,101
,337,2023-10-27 12:31:51.76,178,-629,-2012,293,23,-232,-286,-71,-215,178
,338,2023-10-27 12:31:51.77,168,-654,-2021,290,-18,-190,-264,76,-340,94
,339,2023-10-27 12:31:51.78,174,-676,-1988,281,-12,-150,-281,-66,-215,173
,340,2023-10-27 12:31:51.79,179,-672,-1985,300,-35,-104,-267,71,-338,98
,341,2023-10-27 12:31:51.80,169,-674,-1965,323,-37,-68,-280,-68,-212,174
,342,2023-10-27 12:31:51.81,147,-681,-1938,331,-28,-35,-264,77,-341,93
,343,2023-10-27 12:31:51.82,156,-653,-2010,311,-12,-4,-263,-59,-204,161
,344,2023-10-27 12:31:51.83,130,-658,-1993,271,-6,17,-258,86,-344,86
,345,2023-10-27 12:31:51.84,149,-625,-2006,229,12,35,-259,-54,-205,156
,346,2023-10-27 12:31:51.85,139,-604,-2067,192,11,48,-264,82,-346,91
,347,2023-10-27 12:31:51.86,130,-597,-2014,151,-17,56,-260,-50,-210,155
,348,2023-10-27 12:31:51.87,132,-572,-2025,141,-57,58,-261,80,-341,90
,349,2023-10-27 12:31:51.88,117,-552,-2024,97,-52,52,-252,-43,-209,147
,350,2023-10-27 12:31:51.89,121,-561,-2045,53,-71,51,-263,90,-353,86
,351,2023-10-27 12:31:51.90,92,-544,-2056,-37,-41,37,-246,-37,-209,141
,352,2023-10-27 12:31:51.91,118,-566,-2008,-135,-4,36,-272,93,-365,89
,353,2023-10-27 12:31:51.92,127,-582,-1919,-150,-12,20,-247,-46,-201,146
,354,2023-10-27 12:31:51.93,113,-524,-2008,-128,-21,9,-276,82,-358,97
,355,2023-10-27 12:31:51.94,131,-528,-1980,-151,-37,2,-243,-32,-211,137
,356,2023-10-27 12:31:51.95,114,-501,-1991,-191,-10,-15,-294,78,-372,108
,357,2023-10-27 12:31:51.96,128,-501,-2024,-216,-7,-25,-250,-52,-198,151
,358,2023-10-27 12:31:51.97,128,-486,-2016,-225,-19,-27,-284,69,-353,107
,359,2023-10-27 12:31:51.98,118,-464,-2016,-238,-24,-26,-236,-49,-187,142
,360,2023-10-27 12:31:51.99,118,-480,-2012,-244,-27,-25,-271,76,-347,97
,361,2023-10-27 12:31:52.00,116,-469,-2001,-257,-18,-20,-222,-37,-185,129
,362,2023-10-27 12:31:52.01,101,-468,-2019,-249,-17,-13,-270,74,-344,98
,363,2023-10-27 12:31:52.02,108,-464,-2031,-242,-19,-1,-210,-45,-165,127
,364,2023-10-27 12:31:52.03,105,-460,-2004,-239,-15,19,-270,64,-334,103
,365,2023-10-27 12:31:52.04,98,-465,-2030,-232,-7,23,-213,-54,-159,133
,366,2023-10-27 12:31:52.05,88,-437,-2074,-208,-29,34,-261,67,-328,97
,367,2023-10-27 12:31:52.06,90,-417,-2049,-225,4,51,-195,-23,-172,109
,368,2023-10-27 12:31:52.07,90,-391,-2030,-243,9,57,-246,96,-342,75
,369,2023-10-27 12:31:52.08,79,-393,-2021,-255,27,52,-187,-2,-185,94
,370,2023-10-27 12:31:52.09,88,-371,-2018,-254,45,51,-268,93,-361,87
,371,2023-10-27 12:31:52.10,82,-355,-2034,-256,55,54,-203,-5,-198,104
,372,2023-10-27 12:31:52.11,81,-340,-2034,-264,52,51,-268,96,-364,86
,373,2023-10-27 12:31:52.12,79,-332,-2032,-277,74,39,-196,-8,-188,102
,374,2023-10-27 12:31:52.13,103,-314,-2016,-272,77,33,-288,77,-365,105
,375,2023-10-27 12:31:52.14,107,-307,-2024,-259,84,23,-202,-18,-184,110
,376,2023-10-27 12:31:52.15,122,-288,-2009,-241,87,11,-296,71,-367,112
,377,2023-10-27 12:31:52.16,100,-281,-1991,-229,110,4,-199,-28,-171,113
,378,2023-10-27 12:31:52.17,71,-323,-2032,-219,120,-5,-278,67,-345,105
,379,2023-10-27 12:31:52.18,74,-331,-2042,-210,120,6,-184,-21,-163,102
,380,2023-10-27 12:31:52.19,60,-354,-2074,-195,112,25,-279,73,-352,103
,381,2023-10-27 12:31:52.20,57,-355,-2067,-176,81,43,-176,-6,-170,91
,382,2023-10-27 12:31:52.21,78,-366,-2089,-157,65,61,-270,77,-347,96
,383,2023-10-27 12:31:52.22,80,-379,-2070,-138,59,83,-164,-6,-158,85
,384,2023-10-27 12:31:52.23,102,-359,-2056,-99,46,95,-258,81,-339,88
,385,2023-10-27 12:31:52.24,102,-356,-2091,-75,53,102,-160,5,-165,77
,386,2023-10-27 12:31:52.25,102,-378,-2057,-59,50,108,-271,79,-350,96
,387,2023-10-27 12:31:52.26,104,-363,-2055,-37,56,107,-161,11,-172,75
,388,2023-10-27 12:31:52.27,117,-348,-2088,-23,56,106,-276,72,-348,102
,389,2023-10-27 12:31:52.28,133,-363,-2076,-20,55,107,-163,6,-169,78
,390,2023-10-27 12:31:52.29,137,-361,-2070,-22,63,100,-278,78,-356,100
,391,2023-10-27 12:31:52.30,158,-356,-2066,-21,69,95,-162,21,-183,70
,392,2023-10-27 12:31:52.31,159,-350,-2070,-20,82,83,-281,82,-363,99
,393,2023-10-27 12:31:52.32,160,-365,-2070,-21,90,63,-156,28,-184,64
,394,2023-10-27 12:31:52.33,170,-373,-2047,-19,103,53,-291,78,-369,106
,395,2023-10-27 12:31:52.34,168,-373,-2042,-15,106,37,-158,25,-183,66
,396,2023-10-27 12:31:52.35,171,-375,-2047,-12,119,19,-287,80,-367,103
,397,2023-10-27 12:31:52.36,176,-393,-2047,-2,133,9,-162,18,-180,72
,398,2023-10-27 12:31:52.37,181,-386,-2042,12,126,-11,-303,59,-362,122
,399,2023-10-27 12:31:52.38,183,-391,-2046,20,116,-26,-160,17,-177,71
,400,2023-10-27 12:31:52.39,191,-398,-2038,35,118,-40,-298,51,-349,123
,401,2023-10-27 12:31:52.40,198,-421,-2048,47,101,-58,-145,14,-159,65
,402,2023-10-27 12:31:52.41,197,-428,-2049,67,82,-83,-286,50,-336,118
,403,2023-10-27 12:31:52.42,208,-418,-2048,93,66,-109,-150,19,-169,65
,404,2023-10-27 12:31:52.43,205,-413,-2065,117,33,-127,-310,50,-360,130
,405,2023-10-27 12:31:52.44,202,-413,-2079,135,6,-156,-158,26,-184,66
,406,2023-10-27 12:31:52.45,203,-413,-2076,153,-23,-173,-303,52,-355,125
,407,2023-10-27 12:31:52.46,177,-407,-2062,162,-54,-187,-144,38,-182,53
,408,2023-10-27 12:31:52.47,204,-388,-2054,169,-93,-199,-299,58,-357,120
,409,2023-10-27 12:31:52.48,194,-365,-2064,172,-104,-218,-149,34,-183,57
,410,2023-10-27 12:31:52.49,195,-377,-2041,171,-119,-225,-316,53,-369,131
,411,2023-10-27 12:31:52.50,182,-368,-2035,183,-132,-236,-160,42,-202,59
,412,2023-10-27 12:31:52.51,155,-349,-2060,199,-114,-233,-318,55,-373,131
,413,2023-10-27 12:31:52.52,165,-308,-2036,243,-166,-231,-151,50,-201,50
,414,2023-10-27 12:31:52.53,168,-315,-1992,298,-171,-229,-314,56,-370,129
,415,2023-10-27 12:31:52.54,151,-302,-1968,369,-164,-231,-144,50,-194,47
,416,2023-10-27 12:31:52.55,157,-290,-1906,401,-142,-229,-314,63,-377,125
,417,2023-10-27 12:31:52.56,154,-277,-1946,451,-94,-238,-147,61,-208,43
,418,2023-10-27 12:31:52.57,160,-241,-1951,501,-62,-240,-313,65,-378,124
,419,2023-10-27 12:31:52.58,142,-263,-1875,553,-56,-246,-144,73,-217,35
,420,2023-10-27 12:31:52.59,157,-293,-1869,620,-23,-253,-315,67,-382,124
,421,2023-10-27 12:31:52.60,127,-496,-1959,601,73,-269,-133,79,-212,27
