// Data mode  : Full
// Data quality  : High
// Acceleration sensor's range  : 16g
// Gyroscope sensor's range  : 2000dps
//
//ARTIFACT,NUM,DATE,ACC_X,ACC_Y,ACC_Z,GYRO_X,GYRO_Y,GYRO_Z,EOG_L,EOG_R,EOG_H,EOG_V
,1,2023-10-27 12:03:24.99,-34,-114,-2049,-2,2,21,-80,-244,164,162
,2,2023-10-27 12:03:25.00,-26,-111,-2053,-2,5,24,-85,-252,167,168
,3,2023-10-27 12:03:25.01,-29,-112,-2059,0,7,26,-81,-245,164,163
,4,2023-10-27 12:03:25.02,-27,-112,-2055,-2,1,23,-79,-246,167,162
,5,2023-10-27 12:03:25.03,-37,-110,-2054,-1,1,23,-76,-242,166,159
,6,2023-10-27 12:03:25.04,-28,-102,-2055,-2,3,22,-79,-250,171,164
,7,2023-10-27 12:03:25.05,-28,-102,-2050,-4,1,17,-86,-250,164,168
,8,2023-10-27 12:03:25.06,-30,-107,-2050,-3,5,19,-88,-255,167,171
,9,2023-10-27 12:03:25.07,-22,-110,-2047,-3,6,15,-88,-250,162,169
,10,2023-10-27 12:03:25.08,-20,-114,-2056,-4,7,16,-83,-251,168,167
,11,2023-10-27 12:03:25.09,-20,-110,-2058,-4,8,16,-91,-253,162,172
,12,2023-10-27 12:03:25.10,-20,-111,-2059,-2,4,14,-91,-254,163,172
,13,2023-10-27 12:03:25.11,-24,-105,-2057,-3,1,14,-98,-259,161,178
,14,2023-10-27 12:03:25.12,-25,-109,-2063,1,5,17,-90,-252,162,171
,15,2023-10-27 12:03:25.13,-16,-105,-2053,1,4,14,-96,-262,166,179
,16,2023-10-27 12:03:25.14,-17,-108,-2053,-1,3,17,-90,-254,164,172
,17,2023-10-27 12:03:25.15,-30,-113,-2055,2,1,14,-99,-267,168,183
,18,2023-10-27 12:03:25.16,-35,-107,-2055,2,4,16,-89,-250,161,169
,19,2023-10-27 12:03:25.17,-17,-111,-2049,5,1,17,-100,-265,165,182
,20,2023-10-27 12:03:25.18,-25,-114,-2054,7,-3,19,-88,-252,164,170
,21,2023-10-27 12:03:25.19,-29,-111,-2052,6,-1,22,-104,-273,169,188
,22,2023-10-27 12:03:25.20,-32,-109,-2056,8,0,25,-93,-254,161,173
,23,2023-10-27 12:03:25.21,-22,-106,-2051,9,0,23,-111,-272,161,191
,24,2023-10-27 12:03:25.22,-27,-111,-2050,9,-4,25,-92,-252,160,172
,25,2023-10-27 12:03:25.23,-30,-112,-2055,10,-3,24,-111,-277,166,194
,26,2023-10-27 12:03:25.24,-25,-109,-2054,12,5,25,-94,-254,160,174
,27,2023-10-27 12:03:25.25,-26,-111,-2055,13,9,24,-117,-282,165,199
,28,2023-10-27 12:03:25.26,-24,-110,-2059,15,5,24,-96,-256,160,176
,29,2023-10-27 12:03:25.27,-31,-113,-2053,13,8,22,-116,-284,168,200
,30,2023-10-27 12:03:25.28,-28,-105,-2056,13,2,19,-94,-254,160,174
,31,2023-10-27 12:03:25.29,-25,-105,-2046,11,6,20,-119,-285,166,202
,32,2023-10-27 12:03:25.30,-33,-103,-2048,6,7,17,-92,-252,160,172
,33,2023-10-27 12:03:25.31,-22,-106,-2067,4,11,16,-123,-285,162,204
,34,2023-10-27 12:03:25.32,-24,-106,-2065,1,6,14,-93,-252,159,172
,35,2023-10-27 12:03:25.33,-18,-107,-2062,3,0,15,-123,-288,165,205
,36,2023-10-27 12:03:25.34,-27,-104,-2050,1,-1,15,-90,-250,160,170
,37,2023-10-27 12:03:25.35,-31,-104,-2044,-2,-1,16,-125,-292,167,208
,38,2023-10-27 12:03:25.36,-17,-103,-2051,-3,-1,22,-93,-255,162,174
,39,2023-10-27 12:03:25.37,-15,-105,-2046,-2,-3,21,-130,-293,163,211
,40,2023-10-27 12:03:25.38,-25,-110,-2054,-3,-4,19,-94,-252,158,173
,41,2023-10-27 12:03:25.39,-22,-104,-2052,-1,-5,23,-133,-297,164,215
,42,2023-10-27 12:03:25.40,-34,-108,-2045,-2,-8,28,-94,-253,159,173
,43,2023-10-27 12:03:25.41,-37,-105,-2057,-2,-7,26,-145,-301,156,223
,44,2023-10-27 12:03:25.42,-38,-102,-2050,0,-7,30,-96,-250,154,173
,45,2023-10-27 12:03:25.43,-27,-100,-2057,-1,-9,30,-138,-296,158,217
,46,2023-10-27 12:03:25.44,-26,-99,-2063,0,-6,32,-86,-242,156,164
,47,2023-10-27 12:03:25.45,-32,-96,-2051,3,-4,28,-137,-297,160,217
,48,2023-10-27 12:03:25.46,-39,-103,-2055,5,-1,28,-90,-246,156,168
,49,2023-10-27 12:03:25.47,-16,-100,-2069,6,-6,24,-137,-299,162,218
,50,2023-10-27 12:03:25.48,-37,-84,-2064,0,5,20,-90,-248,158,169
,51,2023-10-27 12:03:25.49,-36,-104,-2058,-6,12,14,-139,-302,163,220
,52,2023-10-27 12:03:25.50,-25,-115,-2056,-1,4,12,-88,-248,160,168
,53,2023-10-27 12:03:25.51,-33,-101,-2054,7,3,11,-140,-301,161,220
,54,2023-10-27 12:03:25.52,-25,-128,-2046,11,3,14,-89,-244,155,166
,55,2023-10-27 12:03:25.53,-30,-124,-2043,14,11,22,-138,-299,161,218
,56,2023-10-27 12:03:25.54,-32,-110,-2053,11,21,25,-88,-245,157,166
,57,2023-10-27 12:03:25.55,-26,-114,-2058,14,23,28,-141,-303,162,222
,58,2023-10-27 12:03:25.56,-28,-111,-2051,16,26,33,-86,-244,158,165
,59,2023-10-27 12:03:25.57,-19,-108,-2068,27,20,34,-137,-301,164,219
,60,2023-10-27 12:03:25.58,-33,-84,-2067,35,17,32,-84,-240,156,162
,61,2023-10-27 12:03:25.59,-34,-89,-2064,42,4,35,-138,-302,164,220
,62,2023-10-27 12:03:25.60,-24,-100,-2054,54,-5,32,-84,-243,159,163
,63,2023-10-27 12:03:25.61,-13,-104,-2056,60,-5,34,-139,-304,165,221
,64,2023-10-27 12:03:25.62,-15,-99,-2059,61,-8,32,-81,-244,163,162
,65,2023-10-27 12:03:25.63,-33,-94,-2044,57,-4,25,-138,-306,168,222
,66,2023-10-27 12:03:25.64,-31,-103,-2047,55,-4,19,-82,-241,159,161
,67,2023-10-27 12:03:25.65,-30,-90,-2041,51,-8,14,-140,-306,166,223
,68,2023-10-27 12:03:25.66,-20,-94,-2054,39,-3,8,-81,-244,163,162
,69,2023-10-27 12:03:25.67,-35,-109,-2051,24,6,7,-142,-308,166,225
,70,2023-10-27 12:03:25.68,-32,-119,-2062,15,2,4,-84,-242,158,163
,71,2023-10-27 12:03:25.69,-40,-107,-2062,7,-4,5,-143,-310,167,226
,72,2023-10-27 12:03:25.70,-22,-119,-2050,5,-18,5,-83,-244,161,163
,73,2023-10-27 12:03:25.71,-40,-121,-2059,3,-18,6,-144,-311,167,227
,74,2023-10-27 12:03:25.72,-30,-114,-2057,-2,-17,8,-87,-244,157,165
,75,2023-10-27 12:03:25.73,-27,-117,-2052,-5,-18,8,-146,-312,166,229
,76,2023-10-27 12:03:25.74,-38,-119,-2049,-4,-22,11,-85,-246,161,165
,77,2023-10-27 12:03:25.75,-33,-125,-2047,1,-19,11,-149,-312,163,230
,78,2023-10-27 12:03:25.76,-28,-109,-2040,7,-16,16,-86,-245,159,165
,79,2023-10-27 12:03:25.77,-33,-116,-2056,7,-16,16,-149,-312,163,230
,80,2023-10-27 12:03:25.78,-35,-121,-2054,11,-20,19,-89,-243,154,166
,81,2023-10-27 12:03:25.79,-37,-121,-2056,11,-16,25,-143,-309,166,226
,82,2023-10-27 12:03:25.80,-39,-120,-2051,12,-17,29,-86,-242,156,164
,83,2023-10-27 12:03:25.81,-32,-120,-2046,12,-13,30,-146,-311,165,228
,84,2023-10-27 12:03:25.82,-30,-108,-2056,13,-12,34,-95,-249,154,172
,85,2023-10-27 12:03:25.83,-39,-115,-2055,10,-10,35,-148,-313,165,230
,86,2023-10-27 12:03:25.84,-38,-121,-2062,8,-6,37,-88,-242,154,165
,87,2023-10-27 12:03:25.85,-35,-120,-2058,10,-8,36,-148,-310,162,229
,88,2023-10-27 12:03:25.86,-28,-111,-2065,10,-4,38,-90,-242,152,166
,89,2023-10-27 12:03:25.87,-42,-103,-2054,10,-8,39,-150,-313,163,231
,90,2023-10-27 12:03:25.88,-42,-109,-2051,11,-4,41,-91,-244,153,167
,91,2023-10-27 12:03:25.89,-42,-108,-2045,13,-5,40,-152,-314,162,233
,92,2023-10-27 12:03:25.90,-34,-106,-2050,18,2,41,-90,-242,152,166
,93,2023-10-27 12:03:25.91,-38,-103,-2042,20,6,32,-150,-312,162,231
,94,2023-10-27 12:03:25.92,-40,-100,-2042,22,14,35,-86,-239,153,162
,95,2023-10-27 12:03:25.93,-32,-98,-2053,25,18,31,-150,-311,161,230
,96,2023-10-27 12:03:25.94,-24,-108,-2052,29,14,27,-85,-237,152,161
,97,2023-10-27 12:03:25.95,-37,-102,-2050,31,11,24,-149,-312,163,230
,98,2023-10-27 12:03:25.96,-30,-107,-2058,31,5,18,-83,-238,155,160
,99,2023-10-27 12:03:25.97,-42,-110,-2058,30,2,19,-149,-310,161,229
,100,2023-10-27 12:03:25.98,-48,-120,-2053,29,-6,19,-88,-239,151,163
,101,2023-10-27 12:03:25.99,-36,-112,-2047,29,-9,21,-166,-327,161,246
,102,2023-10-27 12:03:26.00,-39,-107,-2045,27,-7,18,-111,-264,153,187
,103,2023-10-27 12:03:26.01,-27,-105,-2038,21,-1,15,-190,-355,165,272
,104,2023-10-27 12:03:26.02,-34,-118,-2049,17,6,12,-125,-282,157,203
,105,2023-10-27 12:03:26.03,-48,-123,-2059,16,8,12,-180,-352,172,266
,106,2023-10-27 12:03:26.04,-43,-120,-2055,16,10,14,-109,-267,158,188
,107,2023-10-27 12:03:26.05,-41,-122,-2054,16,4,16,-167,-333,166,250
,108,2023-10-27 12:03:26.06,-29,-123,-2054,13,10,17,-99,-254,155,176
,109,2023-10-27 12:03:26.07,-26,-121,-2052,13,13,21,-161,-324,163,242
,110,2023-10-27 12:03:26.08,-30,-121,-2056,13,10,20,-97,-250,153,173
,111,2023-10-27 12:03:26.09,-33,-119,-2049,12,5,21,-155,-321,166,238
,112,2023-10-27 12:03:26.10,-34,-123,-2052,12,4,20,-91,-248,157,169
,113,2023-10-27 12:03:26.11,-34,-118,-2046,11,4,18,-152,-317,165,234
,114,2023-10-27 12:03:26.12,-36,-126,-2050,9,3,22,-88,-241,153,164
,115,2023-10-27 12:03:26.13,-39,-122,-2051,10,-1,18,-149,-314,165,231
,116,2023-10-27 12:03:26.14,-31,-127,-2048,11,1,20,-88,-240,152,164
,117,2023-10-27 12:03:26.15,-46,-125,-2056,7,7,19,-146,-313,167,229
,118,2023-10-27 12:03:26.16,-38,-131,-2046,3,5,18,-85,-238,153,161
,119,2023-10-27 12:03:26.17,-36,-122,-2050,3,3,19,-147,-308,161,227
,120,2023-10-27 12:03:26.18,-27,-122,-2050,0,4,19,-92,-241,149,166
,121,2023-10-27 12:03:26.19,-35,-117,-2049,-1,0,17,-151,-315,164,233
,122,2023-10-27 12:03:26.20,-42,-133,-2065,-5,0,19,-88,-242,154,165
,123,2023-10-27 12:03:26.21,-33,-133,-2061,-6,-1,18,-150,-311,161,230
,124,2023-10-27 12:03:26.22,-28,-122,-2054,-2,-11,19,-88,-240,152,164
,125,2023-10-27 12:03:26.23,-18,-132,-2050,-1,-9,18,-157,-318,161,237
,126,2023-10-27 12:03:26.24,-31,-124,-2046,-2,-2,17,-94,-246,152,170
,127,2023-10-27 12:03:26.25,-31,-122,-2041,0,3,12,-152,-315,163,233
,128,2023-10-27 12:03:26.26,-28,-127,-2050,-7,6,15,-96,-241,145,168
,129,2023-10-27 12:03:26.27,-26,-127,-2049,-5,6,12,-150,-309,159,229
,130,2023-10-27 12:03:26.28,-31,-134,-2052,-7,12,14,-96,-245,149,170
,131,2023-10-27 12:03:26.29,-39,-131,-2060,-8,11,16,-152,-313,161,232
,132,2023-10-27 12:03:26.30,-27,-132,-2062,-16,2,15,-98,-249,151,173
,133,2023-10-27 12:03:26.31,-32,-140,-2061,-22,0,20,-153,-317,164,235
,134,2023-10-27 12:03:26.32,-32,-135,-2048,-30,-5,21,-100,-248,148,174
,135,2023-10-27 12:03:26.33,-31,-135,-2058,-41,-6,19,-152,-316,164,234
,136,2023-10-27 12:03:26.34,-43,-131,-2057,-50,-11,21,-100,-249,149,174
,137,2023-10-27 12:03:26.35,-31,-121,-2057,-58,-14,25,-147,-311,164,229
,138,2023-10-27 12:03:26.36,-27,-133,-2049,-68,-16,28,-96,-247,151,171
,139,2023-10-27 12:03:26.37,-34,-127,-2039,-75,-17,28,-146,-311,165,228
,140,2023-10-27 12:03:26.38,-23,-122,-2043,-83,-13,26,-100,-251,151,175
,141,2023-10-27 12:03:26.39,-25,-135,-2043,-91,-10,31,-148,-310,162,229
,142,2023-10-27 12:03:26.40,-40,-141,-2060,-100,-5,37,-98,-250,152,174
,143,2023-10-27 12:03:26.41,-46,-134,-2068,-106,-16,42,-144,-308,164,226
,144,2023-10-27 12:03:26.42,-36,-144,-2047,-114,-23,50,-98,-248,150,173
,145,2023-10-27 12:03:26.43,-38,-142,-2029,-121,-23,55,-145,-303,158,224
,146,2023-10-27 12:03:26.44,-17,-143,-2010,-127,-16,61,-102,-250,148,176
,147,2023-10-27 12:03:26.45,-2,-126,-1988,-134,-5,59,-147,-306,159,226
,148,2023-10-27 12:03:26.46,15,-129,-1967,-146,28,54,-107,-256,149,181
,149,2023-10-27 12:03:26.47,39,-162,-1991,-150,55,41,-149,-312,163,230
,150,2023-10-27 12:03:26.48,42,-191,-2071,-138,65,26,-108,-259,151,183
,151,2023-10-27 12:03:26.49,37,-248,-2139,-129,64,20,-151,-311,160,231
,152,2023-10-27 12:03:26.50,61,-275,-2076,-117,46,29,-114,-261,147,187
,153,2023-10-27 12:03:26.51,121,-305,-1992,-103,39,35,-160,-318,158,239
,154,2023-10-27 12:03:26.52,150,-333,-1953,-85,65,25,-125,-274,149,199
,155,2023-10-27 12:03:26.53,169,-360,-1992,-65,101,16,-172,-332,160,252
,156,2023-10-27 12:03:26.54,183,-392,-2061,-39,123,11,-140,-287,147,213
,157,2023-10-27 12:03:26.55,194,-407,-2105,-32,123,11,-184,-339,155,261
,158,2023-10-27 12:03:26.56,214,-443,-2131,-39,112,14,-149,-295,146,222
,159,2023-10-27 12:03:26.57,230,-480,-2152,-51,94,14,-194,-349,155,271
,160,2023-10-27 12:03:26.58,254,-475,-2159,-69,56,23,-166,-311,145,238
,161,2023-10-27 12:03:26.59,269,-481,-2132,-94,25,35,-216,-372,156,294
,162,2023-10-27 12:03:26.60,301,-506,-2107,-121,10,43,-192,-336,144,264
,163,2023-10-27 12:03:26.61,308,-510,-2135,-148,1,47,-240,-392,152,316
,164,2023-10-27 12:03:26.62,301,-501,-2162,-167,-25,52,-222,-362,140,292
,165,2023-10-27 12:03:26.63,280,-509,-2161,-182,-68,61,-275,-427,152,351
,166,2023-10-27 12:03:26.64,267,-508,-2175,-197,-115,68,-261,-400,139,330
,167,2023-10-27 12:03:26.65,236,-501,-2191,-218,-166,72,-310,-457,147,383
,168,2023-10-27 12:03:26.66,199,-478,-2195,-239,-224,77,-287,-422,135,354
,169,2023-10-27 12:03:26.67,174,-475,-2193,-265,-276,89,-343,-483,140,413
,170,2023-10-27 12:03:26.68,168,-461,-2147,-297,-332,96,-328,-457,129,392
,171,2023-10-27 12:03:26.69,140,-450,-2121,-330,-364,110,-391,-526,135,458
,172,2023-10-27 12:03:26.70,88,-444,-2131,-355,-378,126,-382,-499,117,440
,173,2023-10-27 12:03:26.71,42,-407,-2144,-385,-395,147,-455,-572,117,513
,174,2023-10-27 12:03:26.72,16,-382,-2134,-420,-419,170,-451,-549,98,500
,175,2023-10-27 12:03:26.73,11,-347,-2074,-454,-432,187,-534,-630,96,582
,176,2023-10-27 12:03:26.74,10,-339,-2044,-483,-429,193,-537,-607,70,572
,177,2023-10-27 12:03:26.75,5,-341,-1991,-491,-412,193,-640,-697,57,668
,178,2023-10-27 12:03:26.76,12,-343,-1936,-476,-394,194,-641,-670,29,655
,179,2023-10-27 12:03:26.77,6,-358,-1891,-451,-386,194,-728,-745,17,736
,180,2023-10-27 12:03:26.78,8,-366,-1867,-429,-363,204,-684,-694,10,689
,181,2023-10-27 12:03:26.79,-4,-363,-1919,-421,-361,217,-700,-726,26,713
,182,2023-10-27 12:03:26.80,-17,-373,-1925,-439,-350,249,-595,-635,40,615
,183,2023-10-27 12:03:26.81,-20,-355,-1876,-471,-312,272,-530,-609,79,569
,184,2023-10-27 12:03:26.82,-23,-293,-1840,-524,-240,284,-408,-505,97,456
,185,2023-10-27 12:03:26.83,-62,-201,-1886,-569,-179,277,-331,-465,134,398
,186,2023-10-27 12:03:26.84,-87,-101,-1930,-605,-144,263,-244,-389,145,316
,187,2023-10-27 12:03:26.85,-130,-24,-1943,-620,-131,240,-177,-359,182,268
,188,2023-10-27 12:03:26.86,-163,48,-1967,-612,-139,214,-115,-300,185,207
,189,2023-10-27 12:03:26.87,-193,100,-1987,-609,-155,181,-48,-263,215,155
,190,2023-10-27 12:03:26.88,-210,83,-1895,-587,-195,151,-2,-214,212,108
,191,2023-10-27 12:03:26.89,-153,193,-1892,-519,-188,112,60,-174,234,57
,192,2023-10-27 12:03:26.90,-232,338,-1980,-526,-166,74,77,-146,223,34
,193,2023-10-27 12:03:26.91,-210,358,-1976,-544,-220,16,127,-117,244,-5
,194,2023-10-27 12:03:26.92,-179,329,-1782,-512,-215,-34,122,-106,228,-8
,195,2023-10-27 12:03:26.93,-195,367,-1862,-385,-305,-81,158,-87,245,-35
,196,2023-10-27 12:03:26.94,-201,452,-1969,-378,-179,-100,139,-91,230,-24
,197,2023-10-27 12:03:26.95,-212,424,-1938,-426,-145,-129,174,-72,246,-51
,198,2023-10-27 12:03:26.96,-206,325,-1833,-420,-131,-155,156,-76,232,-40
,199,2023-10-27 12:03:26.97,-221,373,-1854,-344,-158,-154,191,-54,245,-68
,200,2023-10-27 12:03:26.98,-171,440,-1840,-298,-194,-141,154,-73,227,-40
,201,2023-10-27 12:03:26.99,-174,466,-1813,-300,-182,-152,171,-67,238,-52
,202,2023-10-27 12:03:27.00,-185,495,-1855,-330,-151,-176,120,-101,221,-9
,203,2023-10-27 12:03:27.01,-211,530,-1903,-361,-153,-196,106,-120,226,7
,204,2023-10-27 12:03:27.02,-215,535,-2019,-404,-179,-201,8,-188,196,90
,205,2023-10-27 12:03:27.03,-279,397,-1786,-466,-146,-202,-55,-248,193,151
,206,2023-10-27 12:03:27.04,-245,497,-1884,-441,-234,-188,-178,-334,156,256
,207,2023-10-27 12:03:27.05,-331,497,-1935,-458,-222,-170,-272,-416,144,344
,208,2023-10-27 12:03:27.06,-334,520,-1860,-456,-231,-166,-398,-490,92,444
,209,2023-10-27 12:03:27.07,-333,554,-1869,-433,-247,-172,-516,-572,56,544
,210,2023-10-27 12:03:27.08,-301,564,-1874,-369,-302,-174,-691,-662,-29,676
,211,2023-10-27 12:03:27.09,-344,575,-1862,-339,-281,-183,-856,-758,-98,807
,212,2023-10-27 12:03:27.10,-354,594,-1902,-337,-234,-189,-1011,-864,-147,937
,213,2023-10-27 12:03:27.11,-367,588,-1941,-350,-203,-189,-1099,-959,-140,1029
,214,2023-10-27 12:03:27.12,-376,587,-1938,-351,-188,-178,-1130,-1040,-90,1085
,215,2023-10-27 12:03:27.13,-364,599,-1922,-354,-177,-160,-1180,-1138,-42,1159
,216,2023-10-27 12:03:27.14,-373,623,-1930,-361,-172,-142,-1226,-1203,-23,1214
,217,2023-10-27 12:03:27.15,-412,637,-1922,-372,-158,-123,-1343,-1316,-27,1329
,218,2023-10-27 12:03:27.16,-412,678,-1900,-375,-159,-118,-1419,-1381,-38,1400
,219,2023-10-27 12:03:27.17,-415,705,-1900,-382,-155,-115,-1481,-1399,-82,1440
,220,2023-10-27 12:03:27.18,-397,705,-1909,-392,-151,-118,-1492,-1334,-158,1413
,221,2023-10-27 12:03:27.19,-373,705,-1893,-408,-150,-106,-1445,-1180,-265,1312
,222,2023-10-27 12:03:27.20,-326,663,-1891,-429,-154,-63,-1297,-982,-315,1139
,223,2023-10-27 12:03:27.21,-299,652,-1913,-428,-170,13,-977,-726,-251,851
,224,2023-10-27 12:03:27.22,-310,624,-1915,-425,-173,110,-622,-506,-116,564
,225,2023-10-27 12:03:27.23,-283,592,-1998,-373,-270,210,-188,-277,89,232
,226,2023-10-27 12:03:27.24,-430,593,-2097,-382,-247,305,134,-122,256,-6
,227,2023-10-27 12:03:27.25,-395,576,-1743,-289,-465,374,412,43,369,-227
,228,2023-10-27 12:03:27.26,-517,688,-1763,-208,-342,399,563,140,423,-351
,229,2023-10-27 12:03:27.27,-522,774,-1720,-183,-390,389,742,267,475,-504
,230,2023-10-27 12:03:27.28,-566,826,-1695,-233,-297,348,835,332,503,-583
,231,2023-10-27 12:03:27.29,-563,803,-1724,-259,-249,307,964,432,532,-698
,232,2023-10-27 12:03:27.30,-557,815,-1864,-279,-201,284,1014,454,560,-734
,233,2023-10-27 12:03:27.31,-558,820,-1933,-389,-64,272,1068,517,551,-792
,234,2023-10-27 12:03:27.32,-556,806,-1893,-448,-96,262,1044,481,563,-762
,235,2023-10-27 12:03:27.33,-551,850,-1938,-431,-56,264,1082,525,557,-803
,236,2023-10-27 12:03:27.34,-543,875,-1875,-358,-149,283,1058,494,564,-776
,237,2023-10-27 12:03:27.35,-551,895,-1839,-310,-185,282,1101,546,555,-823
,238,2023-10-27 12:03:27.36,-548,898,-1820,-274,-212,286,1088,522,566,-805
,239,2023-10-27 12:03:27.37,-538,956,-1804,-259,-210,281,1109,570,539,-839
,240,2023-10-27 12:03:27.38,-525,1038,-1822,-287,-171,268,1076,525,551,-800
,241,2023-10-27 12:03:27.39,-518,1076,-1886,-313,-137,217,1070,555,515,-812
,242,2023-10-27 12:03:27.40,-528,1067,-1914,-329,-113,160,1006,490,516,-748
,243,2023-10-27 12:03:27.41,-545,1036,-1862,-319,-114,108,993,512,481,-752
,244,2023-10-27 12:03:27.42,-580,972,-1812,-291,-101,63,910,436,474,-673
,245,2023-10-27 12:03:27.43,-591,915,-1791,-272,-71,23,907,466,441,-686
,246,2023-10-27 12:03:27.44,-590,890,-1778,-265,-44,-5,801,371,430,-586
,247,2023-10-27 12:03:27.45,-568,869,-1799,-267,-22,-21,786,384,402,-585
,248,2023-10-27 12:03:27.46,-573,847,-1811,-261,7,-30,671,279,392,-475
,249,2023-10-27 12:03:27.47,-547,848,-1854,-240,26,-43,684,316,368,-500
,250,2023-10-27 12:03:27.48,-532,892,-1819,-224,35,-61,592,231,361,-411
,251,2023-10-27 12:03:27.49,-506,892,-1802,-224,48,-84,604,267,337,-435
,252,2023-10-27 12:03:27.50,-491,854,-1842,-216,43,-115,537,199,338,-368
,253,2023-10-27 12:03:27.51,-477,853,-1819,-206,35,-141,578,250,328,-414
,254,2023-10-27 12:03:27.52,-463,858,-1774,-226,24,-170,512,191,321,-351
,255,2023-10-27 12:03:27.53,-459,811,-1833,-263,11,-190,574,257,317,-415
,256,2023-10-27 12:03:27.54,-456,784,-1935,-276,-20,-183,526,206,320,-366
,257,2023-10-27 12:03:27.55,-486,809,-1948,-281,-84,-169,574,267,307,-420
,258,2023-10-27 12:03:27.56,-486,889,-1890,-274,-138,-172,516,200,316,-358
,259,2023-10-27 12:03:27.57,-481,949,-1859,-289,-134,-197,552,250,302,-401
,260,2023-10-27 12:03:27.58,-463,919,-1808,-332,-112,-229,480,170,310,-325
,261,2023-10-27 12:03:27.59,-483,855,-1763,-345,-62,-237,505,206,299,-355
,262,2023-10-27 12:03:27.60,-492,778,-1860,-306,-62,-226,425,123,302,-274
,263,2023-10-27 12:03:27.61,-516,800,-1915,-258,-84,-191,453,172,281,-312
,264,2023-10-27 12:03:27.62,-505,859,-1919,-240,-97,-152,378,90,288,-234
,265,2023-10-27 12:03:27.63,-523,896,-1943,-246,-77,-131,413,141,272,-277
,266,2023-10-27 12:03:27.64,-528,905,-1915,-232,-77,-103,336,59,277,-197
,267,2023-10-27 12:03:27.65,-530,924,-1893,-203,-54,-80,388,123,265,-255
,268,2023-10-27 12:03:27.66,-518,907,-1837,-185,-37,-65,322,56,266,-189
,269,2023-10-27 12:03:27.67,-503,872,-1790,-169,9,-36,382,130,252,-256
,270,2023-10-27 12:03:27.68,-486,836,-1869,-109,8,-1,327,69,258,-198
,271,2023-10-27 12:03:27.69,-499,827,-1953,-32,-34,38,385,145,240,-265
,272,2023-10-27 12:03:27.70,-485,913,-1957,21,-54,49,323,74,249,-198
,273,2023-10-27 12:03:27.71,-495,989,-1916,30,-71,30,375,138,237,-256
,274,2023-10-27 12:03:27.72,-517,1010,-1890,13,-39,-16,310,65,245,-187
,275,2023-10-27 12:03:27.73,-514,994,-1882,-9,-26,-49,362,133,229,-247
,276,2023-10-27 12:03:27.74,-516,918,-1867,-8,-16,-62,299,61,238,-180
,277,2023-10-27 12:03:27.75,-509,881,-1845,15,-24,-56,344,120,224,-232
,278,2023-10-27 12:03:27.76,-505,861,-1840,47,-22,-43,274,40,234,-157
,279,2023-10-27 12:03:27.77,-521,845,-1831,78,-20,-32,311,89,222,-200
,280,2023-10-27 12:03:27.78,-546,861,-1819,101,-4,-23,232,0,232,-116
,281,2023-10-27 12:03:27.79,-560,888,-1810,114,25,-23,263,37,226,-150
,282,2023-10-27 12:03:27.80,-510,921,-1816,96,80,-29,162,-68,230,-47
,283,2023-10-27 12:03:27.81,-532,825,-1731,104,61,-46,189,-37,226,-76
,284,2023-10-27 12:03:27.82,-610,861,-1840,132,130,-60,74,-156,230,41
,285,2023-10-27 12:03:27.83,-613,905,-1828,172,43,-60,110,-127,237,8
,286,2023-10-27 12:03:27.84,-610,924,-1791,169,-5,-73,27,-224,251,98
,287,2023-10-27 12:03:27.85,-592,963,-1770,134,-2,-83,85,-178,263,46
,288,2023-10-27 12:03:27.86,-609,961,-1773,102,51,-90,9,-255,264,123
,289,2023-10-27 12:03:27.87,-622,973,-1838,81,130,-93,83,-182,265,49
,290,2023-10-27 12:03:27.88,-639,1009,-1864,77,131,-91,42,-218,260,88
,291,2023-10-27 12:03:27.89,-666,1032,-1876,94,112,-84,141,-111,252,-15
,292,2023-10-27 12:03:27.90,-676,1058,-1872,122,112,-74,93,-156,249,31
,293,2023-10-27 12:03:27.91,-724,1103,-1868,141,162,-62,190,-53,243,-68
,294,2023-10-27 12:03:27.92,-755,1139,-1866,149,225,-54,156,-85,241,-35
,295,2023-10-27 12:03:27.93,-770,1167,-1859,157,293,-47,251,27,224,-139
,296,2023-10-27 12:03:27.94,-778,1189,-1865,172,354,-45,216,-8,224,-104
,297,2023-10-27 12:03:27.95,-758,1179,-1837,205,398,-35,298,86,212,-192
,298,2023-10-27 12:03:27.96,-728,1163,-1864,248,439,-7,256,36,220,-146
,299,2023-10-27 12:03:27.97,-690,1160,-1827,297,468,33,335,123,212,-229
,300,2023-10-27 12:03:27.98,-627,1148,-1783,351,512,61,296,76,220,-186
,301,2023-10-27 12:03:27.99,-597,1154,-1811,390,572,85,372,165,207,-268
,302,2023-10-27 12:03:28.00,-558,1134,-1822,446,599,99,340,124,216,-232
,303,2023-10-27 12:03:28.01,-540,1091,-1855,515,606,112,412,209,203,-310
,304,2023-10-27 12:03:28.02,-556,1081,-1895,568,599,116,379,162,217,-270
,305,2023-10-27 12:03:28.03,-540,1085,-1919,608,597,115,444,243,201,-343
,306,2023-10-27 12:03:28.04,-500,1062,-1902,624,581,102,418,201,217,-309
,307,2023-10-27 12:03:28.05,-481,1054,-1924,644,572,93,479,278,201,-378
,308,2023-10-27 12:03:28.06,-448,1006,-1910,666,547,96,457,240,217,-348
,309,2023-10-27 12:03:28.07,-427,1000,-1878,689,525,101,502,303,199,-402
,310,2023-10-27 12:03:28.08,-430,972,-1877,699,504,101,468,248,220,-358
,311,2023-10-27 12:03:28.09,-433,920,-1864,706,496,100,475,278,197,-376
,312,2023-10-27 12:03:28.10,-420,894,-1883,714,498,100,408,194,214,-301
,313,2023-10-27 12:03:28.11,-444,872,-1895,725,477,101,400,208,192,-304
,314,2023-10-27 12:03:28.12,-426,830,-1871,725,456,103,309,104,205,-206
,315,2023-10-27 12:03:28.13,-410,805,-1845,721,454,122,296,107,189,-201
,316,2023-10-27 12:03:28.14,-358,760,-1815,733,440,156,188,-11,199,-88
,317,2023-10-27 12:03:28.15,-315,694,-1824,746,441,203,176,-17,193,-79
,318,2023-10-27 12:03:28.16,-274,671,-1778,780,436,263,51,-142,193,45
,319,2023-10-27 12:03:28.17,-282,691,-1772,831,442,309,61,-134,195,36
,320,2023-10-27 12:03:28.18,-274,683,-1793,881,446,338,-44,-243,199,143
,321,2023-10-27 12:03:28.19,-287,699,-1844,937,439,358,18,-187,205,84
,322,2023-10-27 12:03:28.20,-310,696,-1858,980,423,368,-37,-241,204,139
,323,2023-10-27 12:03:28.21,-325,692,-1836,997,421,362,68,-131,199,31
,324,2023-10-27 12:03:28.22,-338,670,-1809,996,432,342,60,-141,201,40
,325,2023-10-27 12:03:28.23,-308,631,-1799,980,443,317,188,-6,194,-91
,326,2023-10-27 12:03:28.24,-278,586,-1812,963,438,295,218,11,207,-114
,327,2023-10-27 12:03:28.25,-269,549,-1810,932,436,280,336,143,193,-239
,328,2023-10-27 12:03:28.26,-232,505,-1830,888,430,255,363,149,214,-256
,329,2023-10-27 12:03:28.27,-212,442,-1864,843,418,236,406,213,193,-309
,330,2023-10-27 12:03:28.28,-172,395,-1866,799,398,216,396,169,227,-282
,331,2023-10-27 12:03:28.29,-145,361,-1855,754,385,192,404,199,205,-301
,332,2023-10-27 12:03:28.30,-122,315,-1825,711,374,161,381,145,236,-263
,333,2023-10-27 12:03:28.31,-102,254,-1822,690,363,129,338,135,203,-236
,334,2023-10-27 12:03:28.32,-68,182,-1832,680,336,109,296,62,234,-179
,335,2023-10-27 12:03:28.33,12,110,-1812,671,283,94,247,44,203,-145
,336,2023-10-27 12:03:28.34,39,45,-1809,662,314,84,185,-39,224,-73
,337,2023-10-27 12:03:28.35,88,-22,-1837,700,289,85,128,-60,188,-34
,338,2023-10-27 12:03:28.36,82,-64,-1827,735,294,86,48,-144,192,48
,339,2023-10-27 12:03:28.37,93,-68,-1821,743,289,84,11,-160,171,74
,340,2023-10-27 12:03:28.38,115,-176,-1767,808,217,73,-76,-259,183,167
,341,2023-10-27 12:03:28.39,165,-44,-2017,869,189,62,-94,-262,168,178
,342,2023-10-27 12:03:28.40,108,48,-2076,675,465,45,-174,-351,177,262
,343,2023-10-27 12:03:28.41,143,-246,-1736,563,376,0,-164,-329,165,246
,344,2023-10-27 12:03:28.42,124,-275,-1916,623,470,-29,-216,-384,168,300
,345,2023-10-27 12:03:28.43,72,-166,-2133,664,400,-10,-173,-335,162,254
,346,2023-10-27 12:03:28.44,51,-253,-1928,633,239,-16,-205,-366,161,285
,347,2023-10-27 12:03:28.45,87,-364,-1901,682,129,-22,-163,-316,153,239
,348,2023-10-27 12:03:28.46,117,-304,-2055,714,88,-5,-186,-348,162,267
,349,2023-10-27 12:03:28.47,101,-340,-1917,668,134,10,-143,-304,161,223
,350,2023-10-27 12:03:28.48,123,-348,-1918,656,101,17,-161,-332,171,246
,351,2023-10-27 12:03:28.49,153,-324,-1918,623,162,22,-121,-294,173,207
,352,2023-10-27 12:03:28.50,159,-329,-1898,599,211,24,-141,-315,174,228
,353,2023-10-27 12:03:28.51,191,-347,-1843,575,270,10,-114,-278,164,196
,354,2023-10-27 12:03:28.52,206,-378,-1833,574,311,-14,-126,-296,170,211
,355,2023-10-27 12:03:28.53,204,-416,-1833,622,287,-29,-98,-262,164,180
,356,2023-10-27 12:03:28.54,271,-444,-1808,701,254,-39,-106,-276,170,191
,357,2023-10-27 12:03:28.55,317,-437,-1815,753,297,-58,-80,-249,169,164
,358,2023-10-27 12:03:28.56,330,-453,-1875,767,357,-89,-87,-260,173,173
,359,2023-10-27 12:03:28.57,349,-498,-1975,765,401,-117,-69,-240,171,154
,360,2023-10-27 12:03:28.58,372,-554,-2065,760,412,-129,-83,-258,175,170
,361,2023-10-27 12:03:28.59,416,-600,-2091,753,384,-131,-81,-248,167,164
,362,2023-10-27 12:03:28.60,436,-608,-2084,731,372,-132,-98,-268,170,183
,363,2023-10-27 12:03:28.61,473,-627,-2070,697,377,-141,-98,-267,169,182
,364,2023-10-27 12:03:28.62,493,-653,-2102,656,385,-152,-123,-292,169,207
,365,2023-10-27 12:03:28.63,559,-699,-2033,624,361,-155,-122,-290,168,206
,366,2023-10-27 12:03:28.64,580,-709,-2025,601,376,-157,-136,-306,170,221
,367,2023-10-27 12:03:28.65,631,-720,-2063,574,367,-153,-128,-296,168,212
,368,2023-10-27 12:03:28.66,649,-737,-2111,526,350,-141,-126,-296,170,211
,369,2023-10-27 12:03:28.67,653,-759,-2131,474,337,-126,-125,-293,168,209
,370,2023-10-27 12:03:28.68,644,-822,-2068,445,296,-107,-132,-305,173,218
,371,2023-10-27 12:03:28.69,657,-839,-2016,450,270,-89,-142,-321,179,231
,372,2023-10-27 12:03:28.70,606,-842,-2025,473,271,-60,-145,-329,184,237
,373,2023-10-27 12:03:28.71,625,-871,-1948,538,189,-38,-155,-337,182,246
,374,2023-10-27 12:03:28.72,576,-857,-1889,605,158,-13,-167,-350,183,258
,375,2023-10-27 12:03:28.73,618,-777,-1829,661,96,3,-180,-360,180,270
,376,2023-10-27 12:03:28.74,576,-728,-1816,673,124,6,-199,-383,184,291
,377,2023-10-27 12:03:28.75,560,-722,-1816,657,114,-13,-240,-423,183,331
,378,2023-10-27 12:03:28.76,554,-709,-1849,644,133,-30,-289,-471,182,380
,379,2023-10-27 12:03:28.77,467,-734,-1874,620,167,-37,-332,-512,180,422
,380,2023-10-27 12:03:28.78,519,-822,-1811,680,45,-50,-373,-552,179,462
,381,2023-10-27 12:03:28.79,439,-783,-1948,742,60,-50,-394,-573,179,483
,382,2023-10-27 12:03:28.80,391,-777,-2002,730,38,-44,-412,-584,172,498
,383,2023-10-27 12:03:28.81,362,-792,-1995,702,-28,-40,-403,-579,176,491
,384,2023-10-27 12:03:28.82,363,-779,-2029,678,-64,-33,-394,-562,168,478
,385,2023-10-27 12:03:28.83,354,-762,-1993,647,-96,-26,-374,-549,175,461
,386,2023-10-27 12:03:28.84,357,-753,-1957,593,-96,-29,-350,-515,165,432
,387,2023-10-27 12:03:28.85,351,-790,-1950,552,-88,-37,-330,-503,173,416
,388,2023-10-27 12:03:28.86,341,-806,-1917,525,-79,-41,-300,-461,161,380
,389,2023-10-27 12:03:28.87,350,-818,-1903,517,-88,-51,-295,-462,167,378
,390,2023-10-27 12:03:28.88,336,-821,-1937,511,-96,-60,-276,-427,151,351
,391,2023-10-27 12:03:28.89,324,-828,-2018,481,-89,-57,-277,-438,161,357
,392,2023-10-27 12:03:28.90,302,-858,-2001,454,-133,-57,-255,-398,143,326
,393,2023-10-27 12:03:28.91,294,-861,-2067,425,-167,-47,-256,-414,158,335
,394,2023-10-27 12:03:28.92,265,-840,-2057,365,-187,-32,-235,-373,138,304
,395,2023-10-27 12:03:28.93,257,-829,-2091,264,-173,-22,-240,-392,152,316
,396,2023-10-27 12:03:28.94,242,-826,-2002,164,-200,-5,-209,-344,135,276
,397,2023-10-27 12:03:28.95,211,-803,-1959,82,-200,3,-219,-368,149,293
,398,2023-10-27 12:03:28.96,206,-793,-1944,23,-227,12,-193,-320,127,256
,399,2023-10-27 12:03:28.97,175,-797,-1945,-38,-246,22,-212,-352,140,282
,400,2023-10-27 12:03:28.98,167,-778,-1942,-108,-268,46,-187,-307,120,247
,401,2023-10-27 12:03:28.99,178,-789,-1905,-164,-302,73,-220,-354,134,287
,402,2023-10-27 12:03:29.00,161,-781,-1880,-201,-325,103,-197,-312,115,254
,403,2023-10-27 12:03:29.01,166,-746,-1856,-237,-344,133,-227,-355,128,291
,404,2023-10-27 12:03:29.02,153,-725,-1858,-277,-358,156,-203,-311,108,257
,405,2023-10-27 12:03:29.03,146,-722,-1884,-304,-362,177,-243,-362,119,302
,406,2023-10-27 12:03:29.04,124,-712,-1930,-325,-368,195,-214,-317,103,265
,407,2023-10-27 12:03:29.05,125,-702,-1931,-342,-398,212,-249,-365,116,307
,408,2023-10-27 12:03:29.06,132,-695,-1914,-356,-403,230,-207,-306,99,256
,409,2023-10-27 12:03:29.07,119,-686,-1918,-365,-398,239,-226,-338,112,282
,410,2023-10-27 12:03:29.08,127,-672,-1909,-375,-375,243,-189,-278,89,233
,411,2023-10-27 12:03:29.09,113,-655,-1919,-383,-340,240,-218,-320,102,269
,412,2023-10-27 12:03:29.10,118,-649,-1928,-382,-321,234,-176,-260,84,218
,413,2023-10-27 12:03:29.11,111,-637,-1929,-372,-296,226,-202,-303,101,252
,414,2023-10-27 12:03:29.12,125,-624,-1924,-360,-276,208,-152,-233,81,192
,415,2023-10-27 12:03:29.13,119,-610,-1922,-353,-252,181,-189,-288,99,238
,416,2023-10-27 12:03:29.14,115,-602,-1933,-348,-219,151,-143,-223,80,183
,417,2023-10-27 12:03:29.15,108,-586,-1938,-343,-176,121,-188,-289,101,238
,418,2023-10-27 12:03:29.16,119,-580,-1946,-341,-125,85,-149,-231,82,190
,419,2023-10-27 12:03:29.17,123,-567,-1942,-336,-76,53,-189,-290,101,239
