// Data mode  : Full
// Data quality  : High
// Acceleration sensor's range  : 16g
// Gyroscope sensor's range  : 2000dps
//
//ARTIFACT,NUM,DATE,ACC_X,ACC_Y,ACC_Z,GYRO_X,GYRO_Y,GYRO_Z,EOG_L,EOG_R,EOG_H,EOG_V
,1,2023-10-27 11:44:32.06,-97,349,-2005,8,24,19,438,46,392,-242
,2,2023-10-27 11:44:32.07,-96,350,-2013,12,28,19,500,21,479,-260
,3,2023-10-27 11:44:32.08,-95,342,-2020,15,34,20,442,50,392,-246
,4,2023-10-27 11:44:32.09,-108,346,-2025,17,36,18,512,35,477,-273
,5,2023-10-27 11:44:32.10,-104,340,-2026,20,44,17,435,53,382,-244
,6,2023-10-27 11:44:32.11,-95,344,-2025,20,41,16,492,27,465,-259
,7,2023-10-27 11:44:32.12,-100,343,-2027,24,40,17,430,49,381,-239
,8,2023-10-27 11:44:32.13,-98,344,-2021,19,36,15,507,40,467,-273
,9,2023-10-27 11:44:32.14,-91,341,-2016,19,37,17,438,56,382,-247
,10,2023-10-27 11:44:32.15,-91,343,-2021,20,40,16,505,40,465,-272
,11,2023-10-27 11:44:32.16,-97,345,-2021,20,35,15,408,38,370,-223
,12,2023-10-27 11:44:32.17,-87,336,-2022,20,43,19,489,31,458,-260
,13,2023-10-27 11:44:32.18,-76,347,-2028,20,40,13,403,38,365,-220
,14,2023-10-27 11:44:32.19,-85,339,-2022,23,40,18,497,43,454,-270
,15,2023-10-27 11:44:32.20,-94,336,-2022,24,38,14,411,50,361,-230
,16,2023-10-27 11:44:32.21,-86,341,-2029,26,34,13,507,55,452,-281
,17,2023-10-27 11:44:32.22,-86,342,-2019,29,38,17,405,42,363,-223
,18,2023-10-27 11:44:32.23,-75,341,-2025,30,33,15,510,59,451,-284
,19,2023-10-27 11:44:32.24,-75,333,-2015,30,40,16,404,41,363,-222
,20,2023-10-27 11:44:32.25,-88,337,-2019,27,36,13,523,64,459,-293
,21,2023-10-27 11:44:32.26,-78,335,-2019,26,32,13,409,44,365,-226
,22,2023-10-27 11:44:32.27,-86,340,-2016,28,33,13,515,66,449,-290
,23,2023-10-27 11:44:32.28,-74,340,-2023,30,30,10,405,47,358,-226
,24,2023-10-27 11:44:32.29,-77,343,-2023,28,35,14,524,74,450,-299
,25,2023-10-27 11:44:32.30,-79,338,-2024,26,29,14,399,34,365,-216
,26,2023-10-27 11:44:32.31,-81,335,-2030,25,29,12,518,68,450,-293
,27,2023-10-27 11:44:32.32,-84,334,-2028,23,28,14,396,34,362,-215
,28,2023-10-27 11:44:32.33,-79,332,-2032,23,19,12,530,75,455,-302
,29,2023-10-27 11:44:32.34,-77,331,-2029,18,16,12,396,36,360,-216
,30,2023-10-27 11:44:32.35,-73,330,-2032,16,14,12,525,72,453,-298
,31,2023-10-27 11:44:32.36,-83,328,-2027,15,16,17,398,25,373,-211
,32,2023-10-27 11:44:32.37,-82,342,-2023,13,9,14,530,74,456,-302
,33,2023-10-27 11:44:32.38,-81,336,-2026,8,8,14,388,21,367,-204
,34,2023-10-27 11:44:32.39,-90,340,-2034,7,13,18,535,76,459,-305
,35,2023-10-27 11:44:32.40,-88,339,-2033,8,5,14,394,25,369,-209
,36,2023-10-27 11:44:32.41,-83,338,-2025,6,-2,17,537,83,454,-310
,37,2023-10-27 11:44:32.42,-81,339,-2023,5,0,17,399,29,370,-214
,38,2023-10-27 11:44:32.43,-89,335,-2021,2,5,19,540,88,452,-314
,39,2023-10-27 11:44:32.44,-87,330,-2030,0,-2,18,393,26,367,-209
,40,2023-10-27 11:44:32.45,-78,329,-2024,5,-2,18,548,97,451,-322
,41,2023-10-27 11:44:32.46,-80,321,-2016,14,2,21,391,26,365,-208
,42,2023-10-27 11:44:32.47,-86,324,-2032,16,-5,25,534,92,442,-313
,43,2023-10-27 11:44:32.48,-74,328,-2024,15,-2,21,379,21,358,-200
,44,2023-10-27 11:44:32.49,-74,335,-2006,17,4,25,529,93,436,-311
,45,2023-10-27 11:44:32.50,-79,334,-2014,16,17,24,374,19,355,-196
,46,2023-10-27 11:44:32.51,-65,334,-2028,15,14,22,527,102,425,-314
,47,2023-10-27 11:44:32.52,-83,339,-2031,17,10,20,366,17,349,-191
,48,2023-10-27 11:44:32.53,-73,332,-2030,20,7,21,532,112,420,-322
,49,2023-10-27 11:44:32.54,-85,338,-2023,21,1,24,371,22,349,-196
,50,2023-10-27 11:44:32.55,-90,331,-2030,18,10,30,538,114,424,-326
,51,2023-10-27 11:44:32.56,-75,328,-2029,14,10,27,379,21,358,-200
,52,2023-10-27 11:44:32.57,-89,341,-2016,12,1,27,541,112,429,-326
,53,2023-10-27 11:44:32.58,-80,349,-2018,9,3,29,380,18,362,-199
,54,2023-10-27 11:44:32.59,-87,340,-2015,8,-1,25,541,111,430,-326
,55,2023-10-27 11:44:32.60,-74,345,-2023,3,-6,22,380,9,371,-194
,56,2023-10-27 11:44:32.61,-82,339,-2024,1,5,23,542,113,429,-327
,57,2023-10-27 11:44:32.62,-89,337,-2023,2,-8,21,381,8,373,-194
,58,2023-10-27 11:44:32.63,-86,327,-2031,3,-16,20,548,114,434,-331
,59,2023-10-27 11:44:32.64,-80,325,-2028,6,-18,23,378,9,369,-193
,60,2023-10-27 11:44:32.65,-86,325,-2035,6,-25,23,541,116,425,-328
,61,2023-10-27 11:44:32.66,-91,317,-2029,6,-22,32,379,11,368,-195
,62,2023-10-27 11:44:32.67,-86,331,-2029,8,-28,36,543,113,430,-328
,63,2023-10-27 11:44:32.68,-83,330,-2028,7,-36,38,372,-1,373,-185
,64,2023-10-27 11:44:32.69,-86,334,-2013,6,-39,40,534,106,428,-320
,65,2023-10-27 11:44:32.70,-88,336,-2015,8,-35,42,377,-4,381,-186
,66,2023-10-27 11:44:32.71,-92,328,-2028,7,-32,46,546,119,427,-332
,67,2023-10-27 11:44:32.72,-96,333,-2022,7,-44,47,388,12,376,-200
,68,2023-10-27 11:44:32.73,-95,342,-2010,5,-41,47,552,120,432,-336
,69,2023-10-27 11:44:32.74,-88,341,-2012,3,-30,47,378,0,378,-189
,70,2023-10-27 11:44:32.75,-85,336,-2016,0,-29,47,536,114,422,-325
,71,2023-10-27 11:44:32.76,-81,337,-2020,-2,-20,43,386,-2,388,-192
,72,2023-10-27 11:44:32.77,-101,338,-2023,-2,-18,42,550,122,428,-336
,73,2023-10-27 11:44:32.78,-102,335,-2022,2,-14,41,387,0,387,-193
,74,2023-10-27 11:44:32.79,-94,335,-2029,2,-10,38,548,122,426,-335
,75,2023-10-27 11:44:32.80,-92,340,-2028,2,-11,36,390,2,388,-196
,76,2023-10-27 11:44:32.81,-91,335,-2031,5,-14,35,549,122,427,-335
,77,2023-10-27 11:44:32.82,-101,335,-2014,6,-8,35,385,-6,391,-189
,78,2023-10-27 11:44:32.83,-87,337,-2015,3,-5,35,536,117,419,-326
,79,2023-10-27 11:44:32.84,-99,337,-2018,2,-5,37,393,-2,395,-195
,80,2023-10-27 11:44:32.85,-91,338,-2011,4,-9,37,548,128,420,-338
,81,2023-10-27 11:44:32.86,-83,338,-2013,6,-5,37,394,0,394,-197
,82,2023-10-27 11:44:32.87,-95,335,-2017,10,-3,35,548,120,428,-334
,83,2023-10-27 11:44:32.88,-91,332,-2024,10,-4,34,386,-10,396,-188
,84,2023-10-27 11:44:32.89,-94,333,-2013,12,0,32,529,116,413,-322
,85,2023-10-27 11:44:32.90,-89,332,-2016,14,3,33,400,-6,406,-197
,86,2023-10-27 11:44:32.91,-92,330,-2017,13,3,31,544,126,418,-335
,87,2023-10-27 11:44:32.92,-96,333,-2017,15,8,34,395,-2,397,-196
,88,2023-10-27 11:44:32.93,-104,318,-2013,16,8,36,523,119,404,-321
,89,2023-10-27 11:44:32.94,-83,309,-2012,14,13,43,395,-1,396,-197
,90,2023-10-27 11:44:32.95,-83,300,-2018,11,12,49,530,124,406,-327
,91,2023-10-27 11:44:32.96,-74,290,-2022,14,11,63,400,2,398,-201
,92,2023-10-27 11:44:32.97,-79,284,-2029,15,7,75,532,126,406,-329
,93,2023-10-27 11:44:32.98,-60,274,-2042,17,-5,89,406,0,406,-203
,94,2023-10-27 11:44:32.99,-50,258,-2054,20,-37,115,531,133,398,-332
,95,2023-10-27 11:44:33.00,-35,242,-2054,30,-72,136,416,15,401,-215
,96,2023-10-27 11:44:33.01,-6,234,-2024,40,-103,163,555,156,399,-355
,97,2023-10-27 11:44:33.02,17,213,-2028,41,-111,190,438,41,397,-239
,98,2023-10-27 11:44:33.03,18,207,-2061,39,-112,211,563,169,394,-366
,99,2023-10-27 11:44:33.04,48,207,-2039,31,-115,234,434,46,388,-240
,100,2023-10-27 11:44:33.05,70,221,-2001,21,-113,270,543,171,372,-357
,101,2023-10-27 11:44:33.06,69,203,-2026,8,-107,303,424,50,374,-237
,102,2023-10-27 11:44:33.07,58,185,-2092,5,-123,319,539,184,355,-361
,103,2023-10-27 11:44:33.08,59,171,-2099,11,-159,332,424,56,368,-240
,104,2023-10-27 11:44:33.09,65,138,-2114,17,-191,344,530,178,352,-354
,105,2023-10-27 11:44:33.10,60,118,-2113,33,-204,357,402,47,355,-224
,106,2023-10-27 11:44:33.11,65,108,-2113,51,-226,364,496,157,339,-326
,107,2023-10-27 11:44:33.12,73,98,-2104,67,-251,368,377,30,347,-203
,108,2023-10-27 11:44:33.13,69,98,-2090,79,-273,371,462,139,323,-300
,109,2023-10-27 11:44:33.14,74,97,-2064,86,-283,358,351,7,344,-179
,110,2023-10-27 11:44:33.15,73,102,-2062,96,-282,341,421,102,319,-261
,111,2023-10-27 11:44:33.16,87,104,-2065,107,-265,319,302,-36,338,-133
,112,2023-10-27 11:44:33.17,90,117,-2044,128,-253,291,379,64,315,-221
,113,2023-10-27 11:44:33.18,87,116,-2041,161,-234,251,290,-53,343,-118
,114,2023-10-27 11:44:33.19,93,110,-2029,198,-225,199,383,62,321,-222
,115,2023-10-27 11:44:33.20,77,115,-2035,224,-193,148,300,-38,338,-131
,116,2023-10-27 11:44:33.21,90,111,-2018,247,-166,101,362,57,305,-209
,117,2023-10-27 11:44:33.22,87,131,-2028,283,-134,49,270,-63,333,-103
,118,2023-10-27 11:44:33.23,65,125,-2035,318,-112,0,332,31,301,-181
,119,2023-10-27 11:44:33.24,54,127,-2056,350,-86,-54,248,-83,331,-82
,120,2023-10-27 11:44:33.25,37,125,-2081,374,-66,-108,300,8,292,-154
,121,2023-10-27 11:44:33.26,30,110,-2065,401,-54,-150,222,-99,321,-61
,122,2023-10-27 11:44:33.27,14,130,-2081,425,-46,-196,292,-3,295,-144
,123,2023-10-27 11:44:33.28,1,137,-2046,435,-40,-235,250,-84,334,-83
,124,2023-10-27 11:44:33.29,-12,174,-2019,445,-27,-273,338,30,308,-184
,125,2023-10-27 11:44:33.30,-34,185,-2021,444,-15,-318,311,-30,341,-140
,126,2023-10-27 11:44:33.31,-51,189,-2040,437,1,-370,383,76,307,-229
,127,2023-10-27 11:44:33.32,-54,219,-2048,424,14,-434,346,-7,353,-169
,128,2023-10-27 11:44:33.33,-48,230,-2008,410,23,-502,395,86,309,-240
,129,2023-10-27 11:44:33.34,-38,234,-1966,403,55,-561,339,-10,349,-164
,130,2023-10-27 11:44:33.35,-59,243,-1981,394,81,-626,393,85,308,-239
,131,2023-10-27 11:44:33.36,-77,238,-1992,383,102,-690,355,2,353,-178
,132,2023-10-27 11:44:33.37,-81,235,-2003,371,122,-753,397,88,309,-242
,133,2023-10-27 11:44:33.38,-54,227,-1974,366,136,-813,366,14,352,-190
,134,2023-10-27 11:44:33.39,-55,187,-1929,365,157,-872,387,83,304,-235
,135,2023-10-27 11:44:33.40,-45,133,-1909,374,190,-924,362,13,349,-187
,136,2023-10-27 11:44:33.41,-14,95,-1886,389,220,-966,382,86,296,-234
,137,2023-10-27 11:44:33.42,-2,69,-1881,414,241,-994,339,4,335,-171
,138,2023-10-27 11:44:33.43,9,50,-1803,438,282,-1019,346,62,284,-204
,139,2023-10-27 11:44:33.44,20,25,-1686,457,351,-1039,294,-24,318,-135
,140,2023-10-27 11:44:33.45,28,-24,-1658,519,394,-1061,290,17,273,-153
,141,2023-10-27 11:44:33.46,42,-18,-1765,607,382,-1071,193,-99,292,-47
,142,2023-10-27 11:44:33.47,62,-16,-1811,695,313,-1084,152,-99,251,-26
,143,2023-10-27 11:44:33.48,74,-17,-1774,761,293,-1100,96,-193,289,48
,144,2023-10-27 11:44:33.49,72,-4,-1760,785,349,-1113,113,-139,252,13
,145,2023-10-27 11:44:33.50,36,28,-1819,783,433,-1126,130,-166,296,18
,146,2023-10-27 11:44:33.51,12,57,-1880,778,475,-1144,162,-90,252,-36
,147,2023-10-27 11:44:33.52,-1,59,-1924,777,467,-1156,150,-140,290,-5
,148,2023-10-27 11:44:33.53,-38,33,-1966,772,458,-1155,151,-99,250,-26
,149,2023-10-27 11:44:33.54,-61,18,-2044,766,412,-1152,117,-169,286,26
,150,2023-10-27 11:44:33.55,-84,43,-2124,745,347,-1131,105,-135,240,15
,151,2023-10-27 11:44:33.56,-47,-66,-2044,686,247,-1116,34,-228,262,97
,152,2023-10-27 11:44:33.57,-46,1,-2114,647,234,-1107,-17,-227,210,122
,153,2023-10-27 11:44:33.58,-30,50,-2085,609,140,-1093,-141,-353,212,247
,154,2023-10-27 11:44:33.59,-27,98,-2052,553,122,-1103,-195,-361,166,278
,155,2023-10-27 11:44:33.60,-48,67,-2058,500,105,-1135,-307,-473,166,390
,156,2023-10-27 11:44:33.61,-33,0,-2115,457,93,-1162,-333,-453,120,393
,157,2023-10-27 11:44:33.62,-17,-84,-2300,431,38,-1166,-480,-580,100,530
,158,2023-10-27 11:44:33.63,-20,-153,-2061,440,-36,-1140,-509,-572,63,540
,159,2023-10-27 11:44:33.64,2,-122,-2055,476,-74,-1101,-660,-693,33,676
,160,2023-10-27 11:44:33.65,-25,-128,-2010,421,-41,-1082,-653,-663,10,658
,161,2023-10-27 11:44:33.66,-50,-156,-1990,381,-23,-1101,-799,-772,-27,785
,162,2023-10-27 11:44:33.67,-48,-154,-2122,355,-7,-1116,-788,-739,-49,763
,163,2023-10-27 11:44:33.68,-42,-129,-2218,360,-60,-1097,-910,-834,-76,872
,164,2023-10-27 11:44:33.69,-45,-84,-2293,382,-146,-1068,-862,-777,-85,819
,165,2023-10-27 11:44:33.70,-65,-121,-2192,404,-254,-1046,-1003,-888,-115,945
,166,2023-10-27 11:44:33.71,-140,-123,-2259,409,-308,-1028,-960,-843,-117,901
,167,2023-10-27 11:44:33.72,-171,-179,-2289,370,-370,-995,-1073,-927,-146,1000
,168,2023-10-27 11:44:33.73,-201,-246,-2259,345,-419,-951,-1006,-865,-141,935
,169,2023-10-27 11:44:33.74,-224,-278,-2328,320,-463,-889,-1063,-902,-161,982
,170,2023-10-27 11:44:33.75,-289,-324,-2266,294,-508,-831,-970,-826,-144,898
,171,2023-10-27 11:44:33.76,-342,-312,-2280,286,-540,-786,-982,-834,-148,908
,172,2023-10-27 11:44:33.77,-342,-300,-2211,272,-592,-756,-892,-762,-130,827
,173,2023-10-27 11:44:33.78,-378,-298,-2140,287,-636,-737,-847,-738,-109,792
,174,2023-10-27 11:44:33.79,-425,-291,-2099,297,-652,-720,-743,-659,-84,701
,175,2023-10-27 11:44:33.80,-414,-285,-2032,281,-639,-698,-594,-573,-21,583
,176,2023-10-27 11:44:33.81,-442,-258,-2040,258,-612,-687,-466,-475,9,470
,177,2023-10-27 11:44:33.82,-460,-248,-2026,251,-602,-700,-224,-338,114,281
,178,2023-10-27 11:44:33.83,-474,-231,-1987,258,-609,-739,-94,-242,148,168
,179,2023-10-27 11:44:33.84,-472,-245,-1939,291,-606,-786,214,-57,271,-78
,180,2023-10-27 11:44:33.85,-498,-338,-1912,333,-602,-814,302,32,270,-167
,181,2023-10-27 11:44:33.86,-499,-411,-1990,377,-596,-814,622,223,399,-422
,182,2023-10-27 11:44:33.87,-506,-557,-1920,424,-601,-773,647,291,356,-469
,183,2023-10-27 11:44:33.88,-493,-631,-1901,458,-581,-717,964,496,468,-730
,184,2023-10-27 11:44:33.89,-473,-654,-1861,444,-513,-659,902,520,382,-711
,185,2023-10-27 11:44:33.90,-452,-675,-1886,431,-439,-602,1147,686,461,-916
,186,2023-10-27 11:44:33.91,-458,-640,-1925,447,-417,-547,1035,662,373,-848
,187,2023-10-27 11:44:33.92,-466,-646,-1932,495,-418,-475,1237,811,426,-1024
,188,2023-10-27 11:44:33.93,-500,-692,-1974,560,-456,-411,1012,682,330,-847
,189,2023-10-27 11:44:33.94,-484,-730,-1974,619,-497,-348,1176,753,423,-964
,190,2023-10-27 11:44:33.95,-448,-746,-1904,652,-477,-288,977,620,357,-798
,191,2023-10-27 11:44:33.96,-475,-686,-1991,666,-428,-238,1200,774,426,-987
,192,2023-10-27 11:44:33.97,-470,-716,-1954,655,-412,-209,1026,682,344,-854
,193,2023-10-27 11:44:33.98,-466,-667,-1928,660,-405,-211,1219,816,403,-1017
,194,2023-10-27 11:44:33.99,-462,-674,-1973,671,-409,-206,1002,689,313,-845
,195,2023-10-27 11:44:34.00,-492,-709,-1964,671,-418,-201,1214,849,365,-1031
,196,2023-10-27 11:44:34.01,-515,-716,-1942,668,-420,-189,1040,782,258,-911
,197,2023-10-27 11:44:34.02,-558,-787,-1979,657,-423,-169,1250,1011,239,-1130
,198,2023-10-27 11:44:34.03,-566,-828,-1986,627,-408,-135,1100,928,172,-1014
,199,2023-10-27 11:44:34.04,-546,-887,-1944,580,-334,-79,1313,1125,188,-1219
,200,2023-10-27 11:44:34.05,-556,-873,-1885,531,-273,-33,1171,988,183,-1079
,201,2023-10-27 11:44:34.06,-546,-786,-1890,535,-252,-17,1382,1182,200,-1282
,202,2023-10-27 11:44:34.07,-550,-774,-2073,483,-162,-13,1233,993,240,-1113
,203,2023-10-27 11:44:34.08,-539,-721,-1975,389,-134,-16,1421,1143,278,-1282
,204,2023-10-27 11:44:34.09,-525,-707,-1922,330,-92,-21,1264,929,335,-1096
,205,2023-10-27 11:44:34.10,-531,-718,-1884,330,-78,-38,1436,1069,367,-1252
,206,2023-10-27 11:44:34.11,-538,-742,-1830,323,-84,-55,1291,865,426,-1078
,207,2023-10-27 11:44:34.12,-522,-800,-1816,276,-62,-56,1451,1007,444,-1229
,208,2023-10-27 11:44:34.13,-492,-803,-1846,188,16,-34,1317,810,507,-1063
,209,2023-10-27 11:44:34.14,-457,-770,-1827,122,43,-13,1458,956,502,-1207
,210,2023-10-27 11:44:34.15,-435,-730,-1829,83,69,8,1296,745,551,-1020
,211,2023-10-27 11:44:34.16,-420,-713,-1834,49,94,20,1423,859,564,-1141
,212,2023-10-27 11:44:34.17,-399,-732,-1872,25,118,28,1263,652,611,-957
,213,2023-10-27 11:44:34.18,-371,-754,-1933,12,124,43,1411,773,638,-1092
,214,2023-10-27 11:44:34.19,-339,-768,-1969,-1,115,65,1228,590,638,-909
,215,2023-10-27 11:44:34.20,-333,-747,-1957,-16,114,102,1368,716,652,-1042
,216,2023-10-27 11:44:34.21,-335,-717,-1943,-40,123,134,1197,537,660,-867
,217,2023-10-27 11:44:34.22,-317,-698,-1950,-66,143,157,1344,667,677,-1005
,218,2023-10-27 11:44:34.23,-299,-682,-1953,-91,164,167,1165,498,667,-831
,219,2023-10-27 11:44:34.24,-281,-662,-1946,-111,172,185,1314,643,671,-978
,220,2023-10-27 11:44:34.25,-261,-629,-1942,-125,174,201,1136,465,671,-800
,221,2023-10-27 11:44:34.26,-253,-623,-1944,-140,169,206,1280,588,692,-934
,222,2023-10-27 11:44:34.27,-246,-627,-1932,-150,166,201,1074,391,683,-732
,223,2023-10-27 11:44:34.28,-233,-621,-1952,-158,159,188,1228,495,733,-861
,224,2023-10-27 11:44:34.29,-216,-618,-1984,-165,144,184,1016,301,715,-658
,225,2023-10-27 11:44:34.30,-227,-612,-1981,-165,135,189,1160,396,764,-778
,226,2023-10-27 11:44:34.31,-219,-609,-1959,-154,105,190,958,219,739,-588
,227,2023-10-27 11:44:34.32,-234,-601,-1959,-157,107,197,1100,330,770,-715
,228,2023-10-27 11:44:34.33,-236,-586,-1923,-165,108,200,900,167,733,-533
,229,2023-10-27 11:44:34.34,-240,-554,-1928,-173,126,197,1044,283,761,-663
,230,2023-10-27 11:44:34.35,-236,-543,-1919,-182,132,176,871,119,752,-495
,231,2023-10-27 11:44:34.36,-240,-514,-1941,-179,137,152,988,222,766,-605
,232,2023-10-27 11:44:34.37,-224,-492,-1939,-166,125,120,768,51,717,-409
,233,2023-10-27 11:44:34.38,-239,-506,-1967,-140,96,78,805,138,667,-471
,234,2023-10-27 11:44:34.39,-239,-562,-1971,-131,97,56,616,-22,638,-297
,235,2023-10-27 11:44:34.40,-251,-603,-1993,-108,82,42,669,60,609,-364
,236,2023-10-27 11:44:34.41,-241,-615,-1963,-91,63,53,516,-94,610,-211
,237,2023-10-27 11:44:34.42,-252,-578,-1960,-74,47,63,591,8,583,-299
,238,2023-10-27 11:44:34.43,-257,-580,-1921,-81,55,58,478,-128,606,-175
,239,2023-10-27 11:44:34.44,-256,-553,-1959,-63,42,39,554,-22,576,-266
,240,2023-10-27 11:44:34.45,-268,-550,-1962,-43,21,23,437,-160,597,-138
,241,2023-10-27 11:44:34.46,-264,-539,-1958,-24,3,15,522,-53,575,-234
,242,2023-10-27 11:44:34.47,-279,-541,-1963,-13,-4,3,434,-175,609,-129
,243,2023-10-27 11:44:34.48,-311,-550,-1971,-1,-7,-7,533,-47,580,-243
,244,2023-10-27 11:44:34.49,-321,-564,-1979,7,-22,-18,469,-155,624,-157
,245,2023-10-27 11:44:34.50,-346,-573,-1966,13,-25,-27,554,-36,590,-259
,246,2023-10-27 11:44:34.51,-343,-578,-1943,5,-28,-34,479,-163,642,-158
,247,2023-10-27 11:44:34.52,-359,-566,-1929,-5,-22,-39,543,-39,582,-252
,248,2023-10-27 11:44:34.53,-355,-572,-1916,-10,-3,-54,477,-164,641,-156
,249,2023-10-27 11:44:34.54,-350,-574,-1918,-20,15,-64,544,-46,590,-249
,250,2023-10-27 11:44:34.55,-353,-591,-1916,-26,22,-72,471,-178,649,-146
,251,2023-10-27 11:44:34.56,-354,-598,-1923,-25,29,-71,560,-49,609,-255
,252,2023-10-27 11:44:34.57,-374,-621,-1930,-28,31,-61,510,-168,678,-171
,253,2023-10-27 11:44:34.58,-400,-621,-1937,-38,31,-43,603,-18,621,-292
,254,2023-10-27 11:44:34.59,-414,-645,-1933,-57,33,-23,587,-118,705,-234
,255,2023-10-27 11:44:34.60,-433,-652,-1935,-75,43,-6,675,35,640,-355
,256,2023-10-27 11:44:34.61,-453,-656,-1951,-87,47,2,656,-81,737,-287
,257,2023-10-27 11:44:34.62,-474,-672,-1967,-100,53,22,705,59,646,-382
,258,2023-10-27 11:44:34.63,-497,-676,-2022,-106,49,53,662,-71,733,-295
,259,2023-10-27 11:44:34.64,-519,-690,-2057,-110,44,80,712,66,646,-389
,260,2023-10-27 11:44:34.65,-536,-677,-2084,-122,30,101,639,-63,702,-288
,261,2023-10-27 11:44:34.66,-556,-650,-2091,-140,34,128,652,69,583,-360
,262,2023-10-27 11:44:34.67,-560,-610,-2076,-158,44,149,620,-53,673,-283
,263,2023-10-27 11:44:34.68,-579,-586,-2038,-176,68,159,612,64,548,-338
,264,2023-10-27 11:44:34.69,-582,-608,-2040,-199,82,166,513,-78,591,-217
,265,2023-10-27 11:44:34.70,-590,-615,-2058,-228,124,176,440,40,400,-240
,266,2023-10-27 11:44:34.71,-586,-608,-2065,-259,149,187,392,-85,477,-153
,267,2023-10-27 11:44:34.72,-598,-586,-2054,-290,178,203,382,34,348,-208
,268,2023-10-27 11:44:34.73,-591,-586,-2040,-319,209,221,402,-95,497,-153
,269,2023-10-27 11:44:34.74,-594,-595,-2027,-340,223,243,432,3,429,-217
,270,2023-10-27 11:44:34.75,-585,-626,-2027,-345,228,265,414,-137,551,-138
,271,2023-10-27 11:44:34.76,-571,-624,-2030,-363,237,303,375,-46,421,-164
,272,2023-10-27 11:44:34.77,-562,-574,-1991,-407,281,342,340,-179,519,-80
,273,2023-10-27 11:44:34.78,-536,-562,-1927,-439,322,360,276,-87,363,-94
,274,2023-10-27 11:44:34.79,-531,-528,-1997,-456,361,373,253,-210,463,-21
,275,2023-10-27 11:44:34.80,-501,-562,-2004,-467,364,404,248,-98,346,-75
,276,2023-10-27 11:44:34.81,-467,-576,-2028,-467,375,451,194,-219,413,12
,277,2023-10-27 11:44:34.82,-451,-593,-2049,-467,372,511,138,-143,281,2
,278,2023-10-27 11:44:34.83,-431,-508,-2025,-466,359,634,65,-314,379,124
,279,2023-10-27 11:44:34.84,-438,-429,-1975,-482,366,683,22,-291,313,134
,280,2023-10-27 11:44:34.85,-441,-394,-1960,-512,401,705,-5,-444,439,224
,281,2023-10-27 11:44:34.86,-403,-411,-1988,-537,441,716,-33,-396,363,214
,282,2023-10-27 11:44:34.87,-363,-433,-2007,-560,468,738,-37,-519,482,278
,283,2023-10-27 11:44:34.88,-349,-368,-2247,-565,429,770,-59,-459,400,259
,284,2023-10-27 11:44:34.89,-234,-489,-1715,-565,228,810,-76,-563,487,319
,285,2023-10-27 11:44:34.90,-319,-438,-2011,-484,409,807,-90,-484,394,287
,286,2023-10-27 11:44:34.91,-192,-367,-2077,-476,293,869,-126,-580,454,353
,287,2023-10-27 11:44:34.92,-269,-357,-2198,-478,339,906,-137,-515,378,326
,288,2023-10-27 11:44:34.93,-258,-355,-2123,-458,277,929,-133,-577,444,355
,289,2023-10-27 11:44:34.94,-223,-359,-2019,-452,265,967,-104,-472,368,288
,290,2023-10-27 11:44:34.95,-245,-385,-1938,-414,243,993,8,-461,469,226
,291,2023-10-27 11:44:34.96,-236,-374,-1900,-361,236,1025,79,-312,391,116
,292,2023-10-27 11:44:34.97,-183,-315,-2062,-364,295,1070,204,-269,473,32
,293,2023-10-27 11:44:34.98,-180,-283,-2082,-388,299,1109,269,-110,379,-79
,294,2023-10-27 11:44:34.99,-161,-255,-2091,-387,286,1128,422,-50,472,-186
,295,2023-10-27 11:44:35.00,-173,-254,-2075,-372,236,1149,475,102,373,-288
,296,2023-10-27 11:44:35.01,-161,-216,-2075,-358,179,1166,630,135,495,-382
,297,2023-10-27 11:44:35.02,-167,-197,-2092,-345,118,1170,635,235,400,-435
,298,2023-10-27 11:44:35.03,-170,-187,-2082,-338,55,1163,764,241,523,-502
,299,2023-10-27 11:44:35.04,-155,-211,-2103,-339,7,1164,711,307,404,-509
,300,2023-10-27 11:44:35.05,-158,-223,-2110,-339,-37,1176,842,311,531,-576
,301,2023-10-27 11:44:35.06,-147,-202,-2079,-343,-93,1189,766,366,400,-566
,302,2023-10-27 11:44:35.07,-157,-172,-2031,-360,-112,1211,886,366,520,-626
,303,2023-10-27 11:44:35.08,-151,-144,-2006,-390,-129,1214,797,402,395,-599
,304,2023-10-27 11:44:35.09,-175,-88,-2022,-447,-121,1203,932,391,541,-661
,305,2023-10-27 11:44:35.10,-184,-83,-2035,-509,-114,1180,816,401,415,-608
,306,2023-10-27 11:44:35.11,-212,-85,-2075,-553,-129,1161,944,381,563,-662
,307,2023-10-27 11:44:35.12,-211,-96,-2060,-593,-177,1159,801,376,425,-588
,308,2023-10-27 11:44:35.13,-203,-103,-2030,-622,-224,1156,940,362,578,-651
,309,2023-10-27 11:44:35.14,-189,-97,-2014,-644,-262,1148,784,352,432,-568
,310,2023-10-27 11:44:35.15,-190,-92,-1989,-665,-299,1133,928,346,582,-637
,311,2023-10-27 11:44:35.16,-187,-73,-1937,-686,-327,1122,776,338,438,-557
,312,2023-10-27 11:44:35.17,-193,-53,-1936,-713,-328,1117,903,326,577,-614
,313,2023-10-27 11:44:35.18,-205,-45,-1926,-730,-338,1119,744,309,435,-526
,314,2023-10-27 11:44:35.19,-214,-41,-1914,-733,-339,1116,868,291,577,-579
,315,2023-10-27 11:44:35.20,-213,-41,-1878,-725,-346,1125,707,265,442,-486
,316,2023-10-27 11:44:35.21,-213,-53,-1857,-723,-351,1142,822,255,567,-538
,317,2023-10-27 11:44:35.22,-217,-27,-1838,-734,-346,1155,661,232,429,-446
,318,2023-10-27 11:44:35.23,-200,-3,-1814,-739,-324,1165,788,235,553,-511
,319,2023-10-27 11:44:35.24,-186,36,-1788,-741,-300,1163,622,201,421,-411
,320,2023-10-27 11:44:35.25,-169,61,-1781,-736,-277,1161,742,203,539,-472
,321,2023-10-27 11:44:35.26,-177,91,-1798,-721,-245,1139,586,173,413,-379
,322,2023-10-27 11:44:35.27,-156,112,-1747,-690,-251,1125,722,181,541,-451
,323,2023-10-27 11:44:35.28,-174,139,-1842,-653,-209,1108,571,161,410,-366
,324,2023-10-27 11:44:35.29,-165,148,-1889,-631,-176,1102,702,180,522,-441
,325,2023-10-27 11:44:35.30,-178,166,-1857,-619,-173,1102,556,150,406,-353
,326,2023-10-27 11:44:35.31,-180,163,-1843,-613,-156,1107,673,155,518,-414
,327,2023-10-27 11:44:35.32,-170,185,-1841,-608,-126,1104,519,114,405,-316
,328,2023-10-27 11:44:35.33,-137,215,-1899,-597,-139,1091,697,164,533,-430
,329,2023-10-27 11:44:35.34,-111,274,-1782,-585,-139,1066,570,149,421,-359
,330,2023-10-27 11:44:35.35,-116,319,-1752,-555,-113,1056,773,227,546,-500
,331,2023-10-27 11:44:35.36,-143,302,-1922,-538,-72,1033,637,212,425,-424
,332,2023-10-27 11:44:35.37,-160,270,-2001,-531,-55,1001,803,260,543,-531
,333,2023-10-27 11:44:35.38,-124,285,-1975,-502,-81,987,618,200,418,-409
,334,2023-10-27 11:44:35.39,-109,315,-1937,-473,-71,998,738,222,516,-480
,335,2023-10-27 11:44:35.40,-132,333,-1906,-453,-35,990,588,176,412,-382
,336,2023-10-27 11:44:35.41,-123,354,-1991,-434,-8,952,772,236,536,-504
,337,2023-10-27 11:44:35.42,-113,367,-2029,-441,34,898,598,174,424,-386
,338,2023-10-27 11:44:35.43,-83,389,-1993,-449,49,859,706,198,508,-452
,339,2023-10-27 11:44:35.44,-83,407,-1940,-456,111,835,492,101,391,-296
,340,2023-10-27 11:44:35.45,-76,394,-1953,-439,145,811,564,90,474,-327
,341,2023-10-27 11:44:35.46,-79,380,-1996,-404,142,789,384,3,381,-193
,342,2023-10-27 11:44:35.47,-66,373,-2041,-342,63,778,502,19,483,-260
,343,2023-10-27 11:44:35.48,-71,378,-2060,-278,-3,765,368,-33,401,-167
,344,2023-10-27 11:44:35.49,-63,380,-2011,-241,-35,758,516,27,489,-271
,345,2023-10-27 11:44:35.50,-59,402,-1980,-236,2,749,385,-12,397,-186
,346,2023-10-27 11:44:35.51,-50,393,-1999,-252,61,744,553,67,486,-310
,347,2023-10-27 11:44:35.52,-67,394,-2027,-253,102,730,421,11,410,-216
,348,2023-10-27 11:44:35.53,-38,400,-2025,-226,106,722,591,95,496,-343
,349,2023-10-27 11:44:35.54,-29,416,-1995,-187,81,725,444,29,415,-236
,350,2023-10-27 11:44:35.55,-39,430,-1981,-146,56,735,625,116,509,-370
,351,2023-10-27 11:44:35.56,-34,430,-1976,-121,40,724,468,39,429,-253
,352,2023-10-27 11:44:35.57,-30,442,-2002,-94,30,715,645,124,521,-384
,353,2023-10-27 11:44:35.58,-39,443,-2019,-64,12,704,483,45,438,-264
,354,2023-10-27 11:44:35.59,-43,435,-2023,-43,-7,700,663,131,532,-397
,355,2023-10-27 11:44:35.60,-47,452,-2029,-28,-26,701,500,49,451,-274
,356,2023-10-27 11:44:35.61,-62,455,-2038,-15,-38,705,670,141,529,-405
,357,2023-10-27 11:44:35.62,-63,451,-2040,-13,-49,714,505,52,453,-278
,358,2023-10-27 11:44:35.63,-72,456,-2040,-16,-54,735,677,146,531,-411
,359,2023-10-27 11:44:35.64,-73,467,-2052,-26,-74,758,510,46,464,-278
,360,2023-10-27 11:44:35.65,-43,481,-2034,-28,-92,773,701,152,549,-426
,361,2023-10-27 11:44:35.66,-79,495,-2038,-30,-121,777,540,54,486,-297
,362,2023-10-27 11:44:35.67,-79,508,-2039,-30,-132,780,739,170,569,-454
,363,2023-10-27 11:44:35.68,-71,504,-2022,-28,-160,775,587,83,504,-335
,364,2023-10-27 11:44:35.69,-64,508,-1998,-21,-173,768,793,217,576,-505
,365,2023-10-27 11:44:35.70,-38,543,-2010,-14,-178,757,631,126,505,-378
,366,2023-10-27 11:44:35.71,-47,537,-1980,-16,-155,742,821,262,559,-541
,367,2023-10-27 11:44:35.72,-74,553,-1953,-17,-133,729,659,156,503,-407
,368,2023-10-27 11:44:35.73,-66,550,-1949,-24,-145,718,854,291,563,-572
,369,2023-10-27 11:44:35.74,-77,557,-1960,-43,-140,704,669,150,519,-409
,370,2023-10-27 11:44:35.75,-78,557,-1982,-55,-148,692,846,266,580,-556
,371,2023-10-27 11:44:35.76,-60,559,-1968,-61,-140,671,658,130,528,-394
,372,2023-10-27 11:44:35.77,-41,572,-2005,-62,-137,655,848,269,579,-558
,373,2023-10-27 11:44:35.78,-42,596,-1960,-68,-94,640,644,127,517,-385
,374,2023-10-27 11:44:35.79,-17,585,-1922,-66,-70,618,826,251,575,-538
,375,2023-10-27 11:44:35.80,-28,583,-1949,-60,-39,590,635,110,525,-372
,376,2023-10-27 11:44:35.81,-42,580,-1971,-39,-36,565,821,250,571,-535
,377,2023-10-27 11:44:35.82,-28,583,-1969,-11,-54,536,644,118,526,-381
,378,2023-10-27 11:44:35.83,-31,594,-1969,16,-68,517,802,238,564,-520
,379,2023-10-27 11:44:35.84,-52,578,-1972,24,-66,497,612,83,529,-347
,380,2023-10-27 11:44:35.85,-53,567,-1987,24,-64,482,747,191,556,-469
,381,2023-10-27 11:44:35.86,-56,547,-1978,19,-57,471,571,55,516,-313
,382,2023-10-27 11:44:35.87,-48,521,-2000,21,-53,475,716,181,535,-448
,383,2023-10-27 11:44:35.88,-38,511,-1995,31,-58,484,543,39,504,-291
,384,2023-10-27 11:44:35.89,-43,507,-1970,58,-64,492,685,154,531,-419
,385,2023-10-27 11:44:35.90,-34,508,-1956,83,-59,494,526,27,499,-276
,386,2023-10-27 11:44:35.91,-28,531,-1964,91,-57,496,668,153,515,-410
,387,2023-10-27 11:44:35.92,-21,560,-1952,95,-69,485,532,30,502,-281
,388,2023-10-27 11:44:35.93,-13,579,-1960,90,-71,478,681,160,521,-420
,389,2023-10-27 11:44:35.94,-19,597,-1964,72,-64,469,538,29,509,-283
,390,2023-10-27 11:44:35.95,-29,609,-1980,56,-46,451,674,158,516,-416
,391,2023-10-27 11:44:35.96,-24,607,-2006,45,-36,443,538,23,515,-280
,392,2023-10-27 11:44:35.97,-22,586,-2002,33,-41,436,679,159,520,-419
,393,2023-10-27 11:44:35.98,-34,560,-2007,27,-51,435,536,30,506,-283
,394,2023-10-27 11:44:35.99,-39,572,-2010,24,-59,424,664,161,503,-412
,395,2023-10-27 11:44:36.00,-25,582,-1970,8,-76,413,525,28,497,-276
,396,2023-10-27 11:44:36.01,-40,576,-1964,-11,-70,401,643,151,492,-397
,397,2023-10-27 11:44:36.02,-51,617,-1979,-14,-67,377,510,21,489,-265
,398,2023-10-27 11:44:36.03,-21,635,-1960,-29,-69,364,628,149,479,-388
,399,2023-10-27 11:44:36.04,-28,624,-1954,-56,-65,360,514,24,490,-269
,400,2023-10-27 11:44:36.05,-42,647,-1965,-79,-57,344,625,154,471,-389
,401,2023-10-27 11:44:36.06,-49,642,-1959,-82,-58,298,505,20,485,-262
,402,2023-10-27 11:44:36.07,-31,620,-1961,-78,-50,255,609,142,467,-375
,403,2023-10-27 11:44:36.08,-14,602,-1955,-86,-33,246,475,8,467,-241
,404,2023-10-27 11:44:36.09,-18,596,-1954,-83,-27,247,577,136,441,-356
,405,2023-10-27 11:44:36.10,-46,602,-1965,-73,-26,236,473,16,457,-244
,406,2023-10-27 11:44:36.11,-39,614,-1955,-68,-26,226,588,148,440,-368
,407,2023-10-27 11:44:36.12,-48,595,-1979,-82,-32,226,483,29,454,-256
,408,2023-10-27 11:44:36.13,-67,605,-1999,-91,-53,231,585,156,429,-370
,409,2023-10-27 11:44:36.14,-78,594,-2023,-93,-82,230,498,36,462,-267
,410,2023-10-27 11:44:36.15,-76,572,-2032,-86,-111,227,586,153,433,-369
,411,2023-10-27 11:44:36.16,-74,569,-2027,-75,-140,231,489,31,458,-260
,412,2023-10-27 11:44:36.17,-54,579,-2030,-65,-157,236,573,158,415,-365
,413,2023-10-27 11:44:36.18,-63,588,-2000,-59,-171,236,492,48,444,-270
,414,2023-10-27 11:44:36.19,-72,610,-1980,-64,-168,235,570,165,405,-367
,415,2023-10-27 11:44:36.20,-63,617,-1969,-68,-165,232,489,48,441,-268
,416,2023-10-27 11:44:36.21,-69,621,-1971,-72,-168,223,563,154,409,-358
,417,2023-10-27 11:44:36.22,-76,620,-1986,-76,-165,215,494,50,444,-272
,418,2023-10-27 11:44:36.23,-82,620,-1980,-75,-171,205,558,157,401,-357
,419,2023-10-27 11:44:36.24,-85,610,-1979,-68,-170,199,482,37,445,-259
,420,2023-10-27 11:44:36.25,-91,604,-1979,-68,-170,194,557,151,406,-354
,421,2023-10-27 11:44:36.26,-89,607,-1971,-70,-171,199,500,46,454,-273
,422,2023-10-27 11:44:36.27,-90,628,-1969,-78,-175,197,557,157,400,-357
,423,2023-10-27 11:44:36.28,-105,631,-1960,-75,-183,193,502,45,457,-273
,424,2023-10-27 11:44:36.29,-103,643,-1954,-72,-181,178,554,151,403,-352
,425,2023-10-27 11:44:36.30,-95,654,-1949,-74,-174,163,496,40,456,-268
,426,2023-10-27 11:44:36.31,-109,649,-1944,-78,-155,146,546,145,401,-345
,427,2023-10-27 11:44:36.32,-123,648,-1938,-79,-153,125,494,36,458,-265
,428,2023-10-27 11:44:36.33,-128,643,-1940,-83,-144,104,534,134,400,-334
,429,2023-10-27 11:44:36.34,-112,619,-1950,-90,-134,89,502,38,464,-270
,430,2023-10-27 11:44:36.35,-124,598,-1949,-98,-130,84,534,128,406,-331
,431,2023-10-27 11:44:36.36,-118,577,-1966,-101,-129,96,490,27,463,-258
,432,2023-10-27 11:44:36.37,-117,565,-1969,-93,-125,116,512,120,392,-316
,433,2023-10-27 11:44:36.38,-116,566,-1975,-84,-122,134,488,34,454,-261
,434,2023-10-27 11:44:36.39,-109,567,-1964,-69,-126,149,521,135,386,-328
,435,2023-10-27 11:44:36.40,-112,578,-1954,-54,-141,158,496,48,448,-272
,436,2023-10-27 11:44:36.41,-117,594,-1965,-39,-161,160,517,130,387,-323
,437,2023-10-27 11:44:36.42,-125,611,-1945,-32,-163,161,492,39,453,-265
,438,2023-10-27 11:44:36.43,-124,609,-1939,-30,-159,161,505,116,389,-310
,439,2023-10-27 11:44:36.44,-131,599,-1944,-33,-152,165,499,47,452,-273
,440,2023-10-27 11:44:36.45,-128,587,-1947,-26,-139,177,508,129,379,-318
,441,2023-10-27 11:44:36.46,-132,591,-1935,-17,-139,190,507,54,453,-280
,442,2023-10-27 11:44:36.47,-148,583,-1937,-12,-137,203,496,122,374,-309
,443,2023-10-27 11:44:36.48,-143,598,-1941,-20,-138,212,499,40,459,-269
,444,2023-10-27 11:44:36.49,-146,625,-1934,-20,-142,214,491,109,382,-300
,445,2023-10-27 11:44:36.50,-146,638,-1921,-7,-143,214,493,39,454,-266
,446,2023-10-27 11:44:36.51,-144,651,-1931,16,-143,213,478,113,365,-295
,447,2023-10-27 11:44:36.52,-155,649,-1926,31,-147,217,498,48,450,-273
,448,2023-10-27 11:44:36.53,-165,658,-1920,39,-144,221,479,111,368,-295
,449,2023-10-27 11:44:36.54,-182,650,-1946,39,-140,223,499,47,452,-273
,450,2023-10-27 11:44:36.55,-183,645,-1938,40,-153,222,474,100,374,-287
,451,2023-10-27 11:44:36.56,-185,647,-1943,46,-154,234,498,41,457,-269
,452,2023-10-27 11:44:36.57,-191,631,-1959,47,-163,248,468,97,371,-282
,453,2023-10-27 11:44:36.58,-199,631,-1961,50,-172,268,492,40,452,-266
,454,2023-10-27 11:44:36.59,-191,633,-1960,55,-185,290,456,86,370,-271
,455,2023-10-27 11:44:36.60,-172,633,-1943,64,-189,309,476,19,457,-247
,456,2023-10-27 11:44:36.61,-187,646,-1927,72,-188,327,429,64,365,-246
,457,2023-10-27 11:44:36.62,-187,671,-1913,82,-179,342,471,14,457,-242
,458,2023-10-27 11:44:36.63,-169,667,-1904,82,-177,349,436,75,361,-255
,459,2023-10-27 11:44:36.64,-181,668,-1910,76,-174,357,482,38,444,-260
,460,2023-10-27 11:44:36.65,-206,670,-1917,85,-188,365,419,68,351,-243
,461,2023-10-27 11:44:36.66,-189,660,-1923,90,-207,380,468,32,436,-250
,462,2023-10-27 11:44:36.67,-193,644,-1913,96,-215,403,407,56,351,-231
,463,2023-10-27 11:44:36.68,-195,654,-1930,99,-215,434,458,31,427,-244
,464,2023-10-27 11:44:36.69,-192,657,-1929,102,-222,459,392,55,337,-223
,465,2023-10-27 11:44:36.70,-181,667,-1922,94,-230,482,464,34,430,-249
,466,2023-10-27 11:44:36.71,-187,691,-1903,84,-234,495,402,55,347,-228
,467,2023-10-27 11:44:36.72,-194,706,-1911,67,-227,502,485,37,448,-261
,468,2023-10-27 11:44:36.73,-177,711,-1918,49,-226,514,409,57,352,-233
,469,2023-10-27 11:44:36.74,-196,688,-1932,37,-226,524,489,48,441,-268
,470,2023-10-27 11:44:36.75,-185,683,-1929,37,-237,538,405,66,339,-235
,471,2023-10-27 11:44:36.76,-183,680,-1923,40,-243,557,494,65,429,-279
,472,2023-10-27 11:44:36.77,-199,679,-1915,39,-245,572,409,73,336,-241
,473,2023-10-27 11:44:36.78,-202,689,-1912,34,-246,578,495,72,423,-283
,474,2023-10-27 11:44:36.79,-185,704,-1900,29,-244,582,404,71,333,-237
,475,2023-10-27 11:44:36.80,-190,709,-1901,26,-236,589,507,84,423,-295
,476,2023-10-27 11:44:36.81,-194,691,-1918,28,-242,595,406,73,333,-239
,477,2023-10-27 11:44:36.82,-187,692,-1918,45,-253,600,508,89,419,-298
,478,2023-10-27 11:44:36.83,-186,683,-1904,60,-261,616,396,70,326,-233
