// Data mode  : Full
// Data quality  : High
// Acceleration sensor's range  : 16g
// Gyroscope sensor's range  : 2000dps
//
//ARTIFACT,NUM,DATE,ACC_X,ACC_Y,ACC_Z,GYRO_X,GYRO_Y,GYRO_Z,EOG_L,EOG_R,EOG_H,EOG_V
,1,2023-10-27 12:31:57.45,190,-331,-2035,5,-12,27,-277,74,-351,101
,2,2023-10-27 12:31:57.46,208,-334,-2030,13,-14,28,-215,-34,-181,124
,3,2023-10-27 12:31:57.47,193,-329,-2026,17,-16,27,-288,76,-364,106
,4,2023-10-27 12:31:57.48,198,-328,-2035,21,-19,28,-212,-30,-182,121
,5,2023-10-27 12:31:57.49,184,-333,-2026,25,-21,27,-291,74,-365,108
,6,2023-10-27 12:31:57.50,174,-326,-2029,27,-22,30,-208,-27,-181,117
,7,2023-10-27 12:31:57.51,176,-330,-2026,26,-22,29,-304,72,-376,116
,8,2023-10-27 12:31:57.52,189,-331,-2024,24,-20,26,-212,-19,-193,115
,9,2023-10-27 12:31:57.53,185,-331,-2022,20,-19,24,-299,75,-374,112
,10,2023-10-27 12:31:57.54,177,-334,-2027,18,-17,23,-198,-10,-188,104
,11,2023-10-27 12:31:57.55,179,-329,-2029,13,-13,23,-290,75,-365,107
,12,2023-10-27 12:31:57.56,181,-332,-2023,9,-10,22,-191,-16,-175,103
,13,2023-10-27 12:31:57.57,186,-335,-2019,3,-7,21,-294,67,-361,113
,14,2023-10-27 12:31:57.58,181,-330,-2027,1,-2,20,-193,-17,-176,105
,15,2023-10-27 12:31:57.59,183,-326,-2026,-2,3,20,-297,76,-373,110
,16,2023-10-27 12:31:57.60,179,-326,-2023,-3,4,19,-188,-5,-183,96
,17,2023-10-27 12:31:57.61,177,-325,-2026,-4,6,18,-295,70,-365,112
,18,2023-10-27 12:31:57.62,184,-327,-2030,-5,8,18,-183,-14,-169,98
,19,2023-10-27 12:31:57.63,180,-325,-2037,-3,3,17,-300,59,-359,120
,20,2023-10-27 12:31:57.64,190,-323,-2031,-3,5,16,-184,-16,-168,100
,21,2023-10-27 12:31:57.65,189,-327,-2031,1,1,17,-312,58,-370,127
,22,2023-10-27 12:31:57.66,193,-326,-2030,3,-1,20,-184,0,-184,92
,23,2023-10-27 12:31:57.67,179,-325,-2031,6,-3,20,-310,63,-373,123
,24,2023-10-27 12:31:57.68,192,-324,-2027,8,-4,19,-176,8,-184,84
,25,2023-10-27 12:31:57.69,187,-324,-2026,9,-5,21,-308,62,-370,123
,26,2023-10-27 12:31:57.70,192,-322,-2024,8,-7,23,-170,6,-176,82
,27,2023-10-27 12:31:57.71,188,-329,-2028,7,-7,25,-307,61,-368,123
,28,2023-10-27 12:31:57.72,187,-326,-2034,8,-8,26,-165,24,-189,70
,29,2023-10-27 12:31:57.73,183,-324,-2027,9,-10,29,-316,67,-383,124
,30,2023-10-27 12:31:57.74,171,-318,-2026,6,-9,31,-171,16,-187,77
,31,2023-10-27 12:31:57.75,192,-325,-2027,7,-7,32,-311,56,-367,127
,32,2023-10-27 12:31:57.76,176,-321,-2037,4,-6,32,-159,20,-179,69
,33,2023-10-27 12:31:57.77,181,-325,-2032,4,-4,34,-311,64,-375,123
,34,2023-10-27 12:31:57.78,177,-324,-2028,3,-4,33,-169,23,-192,73
,35,2023-10-27 12:31:57.79,171,-318,-2030,2,-2,32,-330,55,-385,137
,36,2023-10-27 12:31:57.80,183,-319,-2037,2,-5,30,-172,16,-188,78
,37,2023-10-27 12:31:57.81,183,-322,-2031,0,-3,30,-334,48,-382,143
,38,2023-10-27 12:31:57.82,186,-316,-2039,2,-5,31,-160,24,-184,68
,39,2023-10-27 12:31:57.83,191,-312,-2027,0,-8,27,-321,54,-375,133
,40,2023-10-27 12:31:57.84,176,-317,-2033,0,-5,25,-152,29,-181,61
,41,2023-10-27 12:31:57.85,172,-311,-2030,0,-3,24,-307,53,-360,127
,42,2023-10-27 12:31:57.86,176,-315,-2024,-1,-6,23,-140,39,-179,50
,43,2023-10-27 12:31:57.87,177,-319,-2032,2,-6,19,-307,50,-357,128
,44,2023-10-27 12:31:57.88,181,-315,-2024,2,-3,19,-140,35,-175,52
,45,2023-10-27 12:31:57.89,179,-318,-2021,3,-1,20,-310,46,-356,132
,46,2023-10-27 12:31:57.90,185,-318,-2012,2,1,18,-152,36,-188,58
,47,2023-10-27 12:31:57.91,174,-321,-2014,8,5,15,-330,46,-376,142
,48,2023-10-27 12:31:57.92,182,-325,-2020,8,5,15,-163,35,-198,64
,49,2023-10-27 12:31:57.93,177,-325,-2027,10,4,16,-333,37,-370,148
,50,2023-10-27 12:31:57.94,178,-326,-2027,15,6,16,-146,34,-180,56
,51,2023-10-27 12:31:57.95,186,-316,-2032,16,11,16,-317,41,-358,138
,52,2023-10-27 12:31:57.96,192,-320,-2032,14,16,12,-132,52,-184,40
,53,2023-10-27 12:31:57.97,179,-318,-2030,12,22,7,-310,46,-356,132
,54,2023-10-27 12:31:57.98,176,-318,-2018,12,24,6,-135,53,-188,41
,55,2023-10-27 12:31:57.99,177,-314,-2023,12,24,5,-328,38,-366,145
,56,2023-10-27 12:31:58.00,187,-316,-2026,8,22,5,-147,54,-201,46
,57,2023-10-27 12:31:58.01,175,-320,-2025,9,23,4,-325,41,-366,142
,58,2023-10-27 12:31:58.02,196,-319,-2026,6,25,4,-138,61,-199,38
,59,2023-10-27 12:31:58.03,181,-324,-2025,5,26,1,-318,49,-367,134
,60,2023-10-27 12:31:58.04,189,-314,-2022,1,24,3,-143,68,-211,37
,61,2023-10-27 12:31:58.05,189,-321,-2032,0,25,1,-334,45,-379,144
,62,2023-10-27 12:31:58.06,192,-312,-2028,-1,23,-1,-145,63,-208,41
,63,2023-10-27 12:31:58.07,182,-324,-2026,-5,23,-2,-326,39,-365,143
,64,2023-10-27 12:31:58.08,191,-320,-2028,-4,20,2,-139,64,-203,37
,65,2023-10-27 12:31:58.09,184,-329,-2032,-4,22,5,-332,32,-364,150
,66,2023-10-27 12:31:58.10,201,-323,-2037,-7,18,6,-144,65,-209,39
,67,2023-10-27 12:31:58.11,182,-320,-2036,-3,14,8,-336,29,-365,153
,68,2023-10-27 12:31:58.12,182,-316,-2034,-5,12,12,-149,70,-219,39
,69,2023-10-27 12:31:58.13,184,-321,-2032,-5,12,15,-331,33,-364,149
,70,2023-10-27 12:31:58.14,194,-321,-2032,-6,9,18,-148,72,-220,38
,71,2023-10-27 12:31:58.15,197,-319,-2028,-6,8,22,-333,34,-367,149
,72,2023-10-27 12:31:58.16,192,-315,-2036,-4,9,23,-162,66,-228,48
,73,2023-10-27 12:31:58.17,197,-319,-2036,-3,7,25,-344,31,-375,156
,74,2023-10-27 12:31:58.18,192,-313,-2032,-1,7,22,-166,73,-239,46
,75,2023-10-27 12:31:58.19,195,-304,-2023,0,8,22,-348,30,-378,159
,76,2023-10-27 12:31:58.20,192,-315,-2024,5,10,21,-143,79,-222,32
,77,2023-10-27 12:31:58.21,168,-322,-2011,-2,8,14,-317,32,-349,142
,78,2023-10-27 12:31:58.22,189,-311,-2026,7,1,18,-146,84,-230,31
,79,2023-10-27 12:31:58.23,203,-307,-2028,18,6,16,-343,28,-371,157
,80,2023-10-27 12:31:58.24,201,-308,-2014,19,4,15,-160,85,-245,37
,81,2023-10-27 12:31:58.25,191,-310,-2023,18,10,11,-344,23,-367,160
,82,2023-10-27 12:31:58.26,195,-313,-2028,23,9,10,-156,93,-249,31
,83,2023-10-27 12:31:58.27,183,-311,-2031,27,8,6,-347,22,-369,162
,84,2023-10-27 12:31:58.28,192,-317,-2031,30,10,6,-158,87,-245,35
,85,2023-10-27 12:31:58.29,194,-321,-2031,28,8,7,-339,12,-351,163
,86,2023-10-27 12:31:58.30,196,-320,-2030,33,9,8,-172,80,-252,46
,87,2023-10-27 12:31:58.31,185,-321,-2028,33,9,10,-358,2,-360,178
,88,2023-10-27 12:31:58.32,182,-325,-2025,28,12,9,-170,72,-242,49
,89,2023-10-27 12:31:58.33,181,-321,-2017,26,15,11,-336,1,-337,167
,90,2023-10-27 12:31:58.34,195,-320,-2027,22,21,12,-156,83,-239,36
,91,2023-10-27 12:31:58.35,200,-326,-2022,18,24,15,-335,13,-348,161
,92,2023-10-27 12:31:58.36,195,-321,-2028,17,26,16,-162,95,-257,33
,93,2023-10-27 12:31:58.37,193,-326,-2030,14,27,16,-340,9,-349,165
,94,2023-10-27 12:31:58.38,190,-328,-2029,13,26,19,-154,92,-246,31
,95,2023-10-27 12:31:58.39,198,-324,-2025,14,29,17,-327,6,-333,160
,96,2023-10-27 12:31:58.40,194,-319,-2030,13,31,16,-158,97,-255,30
,97,2023-10-27 12:31:58.41,207,-319,-2027,14,28,17,-333,-2,-331,167
,98,2023-10-27 12:31:58.42,197,-318,-2030,15,30,13,-164,93,-257,35
,99,2023-10-27 12:31:58.43,204,-324,-2027,12,34,12,-329,-6,-323,167
,100,2023-10-27 12:31:58.44,204,-313,-2025,14,29,8,-167,95,-262,36
,101,2023-10-27 12:31:58.45,198,-310,-2023,12,25,1,-329,-3,-326,166
,102,2023-10-27 12:31:58.46,213,-314,-2032,15,30,3,-175,101,-276,37
,103,2023-10-27 12:31:58.47,206,-319,-2039,19,28,0,-335,4,-339,165
,104,2023-10-27 12:31:58.48,204,-316,-2024,23,27,-3,-180,103,-283,38
,105,2023-10-27 12:31:58.49,203,-318,-2033,23,22,-6,-334,-2,-332,168
,106,2023-10-27 12:31:58.50,214,-319,-2019,26,21,-6,-183,95,-278,44
,107,2023-10-27 12:31:58.51,205,-322,-2028,29,19,-8,-331,-12,-319,171
,108,2023-10-27 12:31:58.52,206,-322,-2026,29,20,-10,-182,93,-275,44
,109,2023-10-27 12:31:58.53,205,-326,-2021,32,19,-12,-328,-13,-315,170
,110,2023-10-27 12:31:58.54,212,-327,-2027,35,18,-8,-180,101,-281,39
,111,2023-10-27 12:31:58.55,209,-331,-2026,39,16,-8,-329,-20,-309,174
,112,2023-10-27 12:31:58.56,209,-333,-2032,38,14,-5,-184,94,-278,45
,113,2023-10-27 12:31:58.57,208,-335,-2029,42,13,-3,-335,-36,-299,185
,114,2023-10-27 12:31:58.58,217,-335,-2020,43,10,0,-189,96,-285,46
,115,2023-10-27 12:31:58.59,220,-338,-2024,42,13,6,-327,-22,-305,174
,116,2023-10-27 12:31:58.60,208,-338,-2026,41,14,6,-192,108,-300,42
,117,2023-10-27 12:31:58.61,203,-332,-2018,41,18,11,-327,-26,-301,176
,118,2023-10-27 12:31:58.62,217,-341,-2026,40,17,10,-205,95,-300,55
,119,2023-10-27 12:31:58.63,222,-337,-2030,42,19,13,-330,-34,-296,182
,120,2023-10-27 12:31:58.64,228,-335,-2019,42,22,17,-200,86,-286,57
,121,2023-10-27 12:31:58.65,226,-344,-2019,42,25,18,-314,-38,-276,176
,122,2023-10-27 12:31:58.66,221,-336,-2025,42,23,20,-192,82,-274,55
,123,2023-10-27 12:31:58.67,220,-343,-2023,44,21,23,-301,-34,-267,167
,124,2023-10-27 12:31:58.68,217,-348,-2028,44,21,24,-198,97,-295,50
,125,2023-10-27 12:31:58.69,235,-355,-2034,45,17,28,-312,-28,-284,170
,126,2023-10-27 12:31:58.70,239,-355,-2037,47,11,30,-210,102,-312,54
,127,2023-10-27 12:31:58.71,238,-354,-2040,51,7,33,-317,-24,-293,170
,128,2023-10-27 12:31:58.72,232,-349,-2041,44,14,33,-212,112,-324,50
,129,2023-10-27 12:31:58.73,251,-339,-2031,39,11,33,-306,-22,-284,164
,130,2023-10-27 12:31:58.74,258,-351,-2033,27,25,31,-207,110,-317,48
,131,2023-10-27 12:31:58.75,257,-335,-2044,7,29,31,-294,-26,-268,160
,132,2023-10-27 12:31:58.76,265,-331,-2026,-20,32,30,-212,104,-316,54
,133,2023-10-27 12:31:58.77,252,-357,-2007,-47,51,32,-298,-27,-271,162
,134,2023-10-27 12:31:58.78,262,-383,-2034,-76,72,33,-229,106,-335,61
,135,2023-10-27 12:31:58.79,253,-395,-2047,-109,82,41,-301,-19,-282,160
,136,2023-10-27 12:31:58.80,264,-407,-2049,-137,97,48,-220,115,-335,52
,137,2023-10-27 12:31:58.81,273,-409,-2051,-172,124,56,-285,-14,-271,149
,138,2023-10-27 12:31:58.82,270,-410,-2080,-226,152,63,-214,115,-329,49
,139,2023-10-27 12:31:58.83,291,-448,-1995,-271,168,73,-285,-22,-263,153
,140,2023-10-27 12:31:58.84,292,-464,-2002,-258,166,79,-230,112,-342,59
,141,2023-10-27 12:31:58.85,302,-431,-2045,-251,173,95,-290,-27,-263,158
,142,2023-10-27 12:31:58.86,296,-408,-2004,-273,157,103,-236,109,-345,63
,143,2023-10-27 12:31:58.87,301,-415,-2023,-308,169,106,-285,-28,-257,156
,144,2023-10-27 12:31:58.88,296,-412,-2030,-347,176,116,-245,108,-353,68
,145,2023-10-27 12:31:58.89,319,-433,-1980,-366,172,131,-287,-31,-256,159
,146,2023-10-27 12:31:58.90,303,-432,-1984,-367,178,143,-249,109,-358,70
,147,2023-10-27 12:31:58.91,287,-421,-2021,-383,172,157,-276,-23,-253,149
,148,2023-10-27 12:31:58.92,316,-422,-1982,-389,163,175,-254,105,-359,74
,149,2023-10-27 12:31:58.93,304,-412,-2007,-367,156,183,-278,-32,-246,155
,150,2023-10-27 12:31:58.94,299,-393,-2029,-349,150,191,-248,93,-341,77
,151,2023-10-27 12:31:58.95,331,-396,-2046,-352,173,195,-253,-32,-221,142
,152,2023-10-27 12:31:58.96,268,-430,-2058,-352,221,190,-252,93,-345,79
,153,2023-10-27 12:31:58.97,288,-400,-1997,-310,215,200,-268,-42,-226,155
,154,2023-10-27 12:31:58.98,299,-392,-2013,-245,208,208,-276,79,-355,98
,155,2023-10-27 12:31:58.99,267,-386,-2058,-203,181,217,-274,-33,-241,153
,156,2023-10-27 12:31:59.00,260,-339,-2094,-191,149,227,-268,98,-366,85
,157,2023-10-27 12:31:59.01,288,-324,-2038,-207,155,235,-268,-38,-230,153
,158,2023-10-27 12:31:59.02,269,-342,-2000,-210,155,239,-256,95,-351,80
,159,2023-10-27 12:31:59.03,297,-323,-2005,-194,122,253,-248,-35,-213,141
,160,2023-10-27 12:31:59.04,319,-334,-1989,-183,109,255,-263,100,-363,81
,161,2023-10-27 12:31:59.05,301,-294,-2021,-173,85,266,-253,-31,-222,142
,162,2023-10-27 12:31:59.06,337,-315,-1979,-169,40,277,-282,96,-378,93
,163,2023-10-27 12:31:59.07,326,-338,-1995,-178,39,288,-263,-37,-226,150
,164,2023-10-27 12:31:59.08,311,-309,-1976,-184,9,301,-299,84,-383,107
,165,2023-10-27 12:31:59.09,322,-247,-1982,-218,23,309,-262,-46,-216,154
,166,2023-10-27 12:31:59.10,380,-160,-1933,-256,7,305,-303,80,-383,111
,167,2023-10-27 12:31:59.11,368,-160,-1910,-328,53,281,-259,-43,-216,151
,168,2023-10-27 12:31:59.12,359,-143,-1907,-392,89,262,-298,75,-373,111
,169,2023-10-27 12:31:59.13,365,-174,-1930,-417,113,232,-243,-45,-198,144
,170,2023-10-27 12:31:59.14,369,-142,-1963,-437,118,211,-288,75,-363,106
,171,2023-10-27 12:31:59.15,332,-232,-1947,-450,118,191,-234,-37,-197,135
,172,2023-10-27 12:31:59.16,326,-309,-1951,-401,48,182,-284,73,-357,105
,173,2023-10-27 12:31:59.17,393,-320,-1935,-259,-50,189,-234,-45,-189,139
,174,2023-10-27 12:31:59.18,332,-302,-1978,-168,-38,198,-305,63,-368,121
,175,2023-10-27 12:31:59.19,362,-313,-1922,-160,-31,198,-243,-48,-195,145
,176,2023-10-27 12:31:59.20,352,-321,-1904,-142,-6,190,-307,56,-363,125
,177,2023-10-27 12:31:59.21,379,-388,-1846,-73,38,195,-235,-57,-178,146
,178,2023-10-27 12:31:59.22,357,-405,-1866,20,27,211,-308,52,-360,128
,179,2023-10-27 12:31:59.23,332,-440,-1871,60,95,225,-227,-56,-171,141
,180,2023-10-27 12:31:59.24,371,-419,-1892,86,136,245,-302,56,-358,123
,181,2023-10-27 12:31:59.25,366,-404,-1924,101,173,262,-213,-45,-168,129
,182,2023-10-27 12:31:59.26,320,-396,-1956,78,212,284,-304,65,-369,119
,183,2023-10-27 12:31:59.27,254,-347,-2013,26,213,318,-212,-35,-177,123
,184,2023-10-27 12:31:59.28,199,-356,-2118,-35,151,367,-304,69,-373,117
,185,2023-10-27 12:31:59.29,191,-322,-2127,-100,75,428,-203,-27,-176,115
,186,2023-10-27 12:31:59.30,251,-274,-1966,-176,36,461,-291,70,-361,110
,187,2023-10-27 12:31:59.31,281,-241,-1782,-242,47,443,-196,-23,-173,109
,188,2023-10-27 12:31:59.32,346,-280,-1734,-276,217,398,-316,56,-372,130
,189,2023-10-27 12:31:59.33,389,-301,-1772,-274,322,369,-212,-28,-184,120
,190,2023-10-27 12:31:59.34,396,-292,-1738,-270,439,338,-316,52,-368,132
,191,2023-10-27 12:31:59.35,420,-332,-1791,-244,529,312,-208,-26,-182,117
,192,2023-10-27 12:31:59.36,422,-332,-1895,-199,578,304,-332,60,-392,136
,193,2023-10-27 12:31:59.37,398,-326,-1918,-150,607,306,-237,-25,-212,131
,194,2023-10-27 12:31:59.38,420,-283,-1941,-100,606,314,-375,51,-426,162
,195,2023-10-27 12:31:59.39,418,-226,-1920,-81,587,329,-253,-36,-217,144
,196,2023-10-27 12:31:59.40,444,-146,-1882,-69,567,335,-358,52,-410,153
,197,2023-10-27 12:31:59.41,451,-136,-1904,-68,552,324,-218,-16,-202,117
,198,2023-10-27 12:31:59.42,459,-107,-1974,-92,519,322,-363,49,-412,157
,199,2023-10-27 12:31:59.43,453,-24,-2015,-115,496,324,-226,-15,-211,120
,200,2023-10-27 12:31:59.44,425,-59,-2053,-134,448,333,-373,49,-422,162
,201,2023-10-27 12:31:59.45,398,-75,-2070,-141,409,348,-222,-17,-205,119
,202,2023-10-27 12:31:59.46,391,-75,-2116,-148,355,376,-376,44,-420,166
,203,2023-10-27 12:31:59.47,384,-38,-2091,-167,294,418,-221,-20,-201,120
,204,2023-10-27 12:31:59.48,410,9,-2051,-214,263,452,-384,30,-414,177
,205,2023-10-27 12:31:59.49,417,28,-2055,-274,245,476,-224,-28,-196,126
,206,2023-10-27 12:31:59.50,437,54,-2062,-328,222,502,-380,13,-393,183
,207,2023-10-27 12:31:59.51,450,87,-2032,-359,207,520,-221,-40,-181,130
,208,2023-10-27 12:31:59.52,465,95,-2047,-385,215,528,-386,4,-390,191
,209,2023-10-27 12:31:59.53,453,92,-2078,-428,222,545,-223,-41,-182,132
,210,2023-10-27 12:31:59.54,448,108,-2082,-475,226,560,-389,7,-396,191
,211,2023-10-27 12:31:59.55,470,144,-2085,-506,236,574,-221,-39,-182,130
,212,2023-10-27 12:31:59.56,438,172,-2048,-526,260,578,-390,-3,-387,196
,213,2023-10-27 12:31:59.57,462,227,-2047,-535,270,581,-218,-38,-180,128
,214,2023-10-27 12:31:59.58,461,246,-2017,-558,283,562,-393,-5,-388,199
,215,2023-10-27 12:31:59.59,492,287,-2029,-567,304,540,-214,-39,-175,126
,216,2023-10-27 12:31:59.60,505,310,-2013,-567,308,514,-403,-9,-394,206
,217,2023-10-27 12:31:59.61,501,327,-2065,-553,328,489,-223,-35,-188,129
,218,2023-10-27 12:31:59.62,519,325,-2067,-528,316,463,-413,-19,-394,216
,219,2023-10-27 12:31:59.63,538,356,-2106,-494,305,435,-228,-32,-196,130
,220,2023-10-27 12:31:59.64,557,364,-2072,-461,297,408,-422,-15,-407,218
,221,2023-10-27 12:31:59.65,568,361,-2037,-417,296,379,-232,-25,-207,128
,222,2023-10-27 12:31:59.66,575,349,-2036,-372,284,349,-422,-16,-406,219
,223,2023-10-27 12:31:59.67,563,327,-2040,-336,279,323,-236,-28,-208,132
,224,2023-10-27 12:31:59.68,574,339,-2047,-290,260,302,-434,-15,-419,224
,225,2023-10-27 12:31:59.69,575,320,-2034,-243,237,286,-246,-22,-224,134
,226,2023-10-27 12:31:59.70,590,316,-2036,-203,212,270,-436,-11,-425,223
,227,2023-10-27 12:31:59.71,602,310,-1999,-169,206,254,-239,-20,-219,129
,228,2023-10-27 12:31:59.72,625,321,-2005,-137,205,233,-436,-21,-415,228
,229,2023-10-27 12:31:59.73,618,302,-1985,-116,212,204,-236,-26,-210,131
,230,2023-10-27 12:31:59.74,641,274,-1977,-95,220,184,-434,-23,-411,228
,231,2023-10-27 12:31:59.75,642,268,-2016,-55,217,152,-237,-13,-224,125
,232,2023-10-27 12:31:59.76,648,262,-2022,-54,204,146,-443,-22,-421,232
,233,2023-10-27 12:31:59.77,659,265,-2002,-43,190,148,-238,-2,-236,120
,234,2023-10-27 12:31:59.78,665,268,-1981,-39,185,145,-449,-32,-417,240
,235,2023-10-27 12:31:59.79,663,254,-1987,-42,179,139,-244,-11,-233,127
,236,2023-10-27 12:31:59.80,668,245,-1986,-47,180,137,-447,-31,-416,239
,237,2023-10-27 12:31:59.81,683,247,-2012,-47,170,133,-248,7,-255,120
,238,2023-10-27 12:31:59.82,676,258,-2021,-43,163,129,-449,-9,-440,229
,239,2023-10-27 12:31:59.83,693,283,-1977,-43,163,119,-251,14,-265,118
,240,2023-10-27 12:31:59.84,703,296,-1995,-41,169,102,-447,-14,-433,230
,241,2023-10-27 12:31:59.85,711,296,-1985,-44,175,80,-251,11,-262,120
,242,2023-10-27 12:31:59.86,714,288,-1987,-46,189,60,-453,-19,-434,236
,243,2023-10-27 12:31:59.87,741,268,-1964,-39,196,46,-255,18,-273,118
,244,2023-10-27 12:31:59.88,734,271,-1976,-21,191,38,-456,-14,-442,235
,245,2023-10-27 12:31:59.89,730,265,-1977,-5,184,33,-260,14,-274,123
,246,2023-10-27 12:31:59.90,740,239,-1969,8,181,34,-459,-24,-435,241
,247,2023-10-27 12:31:59.91,751,216,-1981,29,169,36,-258,16,-274,121
,248,2023-10-27 12:31:59.92,747,221,-2016,56,152,39,-450,-29,-421,239
,249,2023-10-27 12:31:59.93,746,242,-2017,70,141,44,-257,16,-273,120
,250,2023-10-27 12:31:59.94,755,251,-2004,75,129,44,-451,-27,-424,239
,251,2023-10-27 12:31:59.95,750,259,-2018,79,108,45,-263,23,-286,120
,252,2023-10-27 12:31:59.96,750,253,-2018,87,97,50,-450,-25,-425,237
,253,2023-10-27 12:31:59.97,741,228,-1997,95,101,54,-268,24,-292,122
,254,2023-10-27 12:31:59.98,727,189,-1984,95,98,63,-457,-25,-432,241
,255,2023-10-27 12:31:59.99,741,213,-1964,90,98,72,-279,29,-308,125
,256,2023-10-27 12:32:00.00,725,191,-1941,89,97,79,-461,-27,-434,244
,257,2023-10-27 12:32:00.01,727,168,-1944,90,109,75,-274,29,-303,122
,258,2023-10-27 12:32:00.02,728,193,-1946,84,125,77,-451,-30,-421,240
,259,2023-10-27 12:32:00.03,717,167,-1953,79,138,71,-266,38,-304,114
,260,2023-10-27 12:32:00.04,728,144,-1955,72,154,70,-447,-31,-416,239
,261,2023-10-27 12:32:00.05,733,140,-1966,68,163,72,-265,36,-301,114
,262,2023-10-27 12:32:00.06,751,163,-1957,73,164,80,-444,-45,-399,244
,263,2023-10-27 12:32:00.07,749,159,-1934,71,173,80,-269,28,-297,120
,264,2023-10-27 12:32:00.08,739,157,-1941,63,174,72,-444,-51,-393,247
,265,2023-10-27 12:32:00.09,758,145,-1969,58,174,68,-273,29,-302,122
,266,2023-10-27 12:32:00.10,749,138,-1974,60,174,60,-439,-43,-396,241
,267,2023-10-27 12:32:00.11,771,126,-1975,71,168,45,-272,41,-313,115
,268,2023-10-27 12:32:00.12,773,142,-1982,72,171,30,-436,-38,-398,237
,269,2023-10-27 12:32:00.13,772,143,-1994,75,165,10,-268,43,-311,112
,270,2023-10-27 12:32:00.14,789,142,-2021,80,157,-9,-430,-39,-391,234
,271,2023-10-27 12:32:00.15,784,159,-2026,96,146,-33,-273,55,-328,109
,272,2023-10-27 12:32:00.16,760,160,-2038,125,136,-64,-439,-36,-403,237
,273,2023-10-27 12:32:00.17,748,218,-2071,157,115,-96,-280,64,-344,108
,274,2023-10-27 12:32:00.18,742,266,-2042,158,66,-127,-426,-29,-397,227
,275,2023-10-27 12:32:00.19,770,240,-1883,147,55,-167,-278,57,-335,110
,276,2023-10-27 12:32:00.20,795,242,-1839,174,77,-216,-425,-48,-377,236
,277,2023-10-27 12:32:00.21,801,226,-1850,206,91,-265,-283,42,-325,120
,278,2023-10-27 12:32:00.22,828,222,-1842,233,126,-313,-422,-48,-374,235
,279,2023-10-27 12:32:00.23,834,186,-1865,261,144,-350,-289,57,-346,116
,280,2023-10-27 12:32:00.24,837,170,-1912,295,146,-377,-428,-45,-383,236
,281,2023-10-27 12:32:00.25,841,157,-1923,325,129,-389,-283,54,-337,114
,282,2023-10-27 12:32:00.26,851,129,-1904,352,121,-391,-413,-53,-360,233
,283,2023-10-27 12:32:00.27,861,93,-1918,376,109,-390,-291,46,-337,122
,284,2023-10-27 12:32:00.28,873,92,-1920,385,110,-375,-420,-52,-368,236
,285,2023-10-27 12:32:00.29,882,95,-1936,389,116,-361,-297,61,-358,118
,286,2023-10-27 12:32:00.30,906,89,-1914,385,123,-351,-420,-54,-366,237
,287,2023-10-27 12:32:00.31,919,74,-1925,394,126,-338,-294,64,-358,115
,288,2023-10-27 12:32:00.32,940,57,-1939,414,124,-320,-410,-56,-354,233
,289,2023-10-27 12:32:00.33,936,55,-1990,441,119,-291,-301,66,-367,117
,290,2023-10-27 12:32:00.34,920,31,-2007,458,87,-251,-411,-60,-351,235
,291,2023-10-27 12:32:00.35,910,22,-2026,471,61,-198,-306,65,-371,120
,292,2023-10-27 12:32:00.36,903,30,-2018,488,23,-145,-405,-65,-340,235
,293,2023-10-27 12:32:00.37,910,31,-2000,501,-5,-97,-308,60,-368,124
,294,2023-10-27 12:32:00.38,904,93,-2003,510,-43,-59,-402,-59,-343,230
,295,2023-10-27 12:32:00.39,899,95,-2021,526,-66,-34,-313,66,-379,123
,296,2023-10-27 12:32:00.40,876,118,-2052,548,-96,-12,-402,-62,-340,232
,297,2023-10-27 12:32:00.41,902,115,-2038,581,-129,8,-308,64,-372,122
,298,2023-10-27 12:32:00.42,889,127,-2016,637,-157,17,-391,-66,-325,228
,299,2023-10-27 12:32:00.43,876,130,-2058,696,-205,24,-304,68,-372,118
,300,2023-10-27 12:32:00.44,860,146,-2112,754,-230,10,-385,-67,-318,226
,301,2023-10-27 12:32:00.45,867,125,-1995,820,-267,-3,-307,72,-379,117
,302,2023-10-27 12:32:00.46,825,128,-2049,942,-303,-25,-383,-70,-313,226
,303,2023-10-27 12:32:00.47,818,203,-2161,1027,-359,-46,-312,66,-378,123
,304,2023-10-27 12:32:00.48,807,173,-2115,1050,-398,-74,-377,-73,-304,225
,305,2023-10-27 12:32:00.49,825,118,-2026,1066,-413,-93,-304,66,-370,119
,306,2023-10-27 12:32:00.50,807,75,-1988,1129,-425,-115,-358,-77,-281,217
,307,2023-10-27 12:32:00.51,765,72,-2103,1183,-430,-133,-295,61,-356,117
,308,2023-10-27 12:32:00.52,752,17,-2048,1208,-451,-146,-348,-74,-274,211
,309,2023-10-27 12:32:00.53,748,-2,-2145,1209,-439,-154,-294,70,-364,112
,310,2023-10-27 12:32:00.54,742,-46,-2044,1170,-423,-162,-340,-70,-270,205
,311,2023-10-27 12:32:00.55,737,-128,-1990,1159,-410,-167,-287,64,-351,111
,312,2023-10-27 12:32:00.56,735,-176,-2093,1173,-409,-152,-327,-83,-244,205
,313,2023-10-27 12:32:00.57,692,-206,-2057,1165,-401,-140,-270,56,-326,107
,314,2023-10-27 12:32:00.58,711,-222,-2013,1141,-403,-116,-318,-82,-236,200
,315,2023-10-27 12:32:00.59,692,-244,-2017,1097,-394,-107,-263,78,-341,92
,316,2023-10-27 12:32:00.60,688,-318,-1996,1074,-380,-98,-311,-82,-229,196
,317,2023-10-27 12:32:00.61,646,-329,-2089,1060,-367,-88,-270,57,-327,106
,318,2023-10-27 12:32:00.62,626,-333,-2131,987,-365,-69,-304,-105,-199,204
,319,2023-10-27 12:32:00.63,621,-415,-2016,932,-378,-44,-257,52,-309,102
,320,2023-10-27 12:32:00.64,627,-413,-2030,926,-380,-27,-287,-90,-197,188
,321,2023-10-27 12:32:00.65,599,-426,-2072,897,-401,0,-257,60,-317,98
,322,2023-10-27 12:32:00.66,582,-440,-2069,839,-411,29,-278,-81,-197,179
,323,2023-10-27 12:32:00.67,590,-450,-2044,771,-403,45,-249,61,-310,94
,324,2023-10-27 12:32:00.68,582,-468,-2030,707,-416,66,-277,-88,-189,182
,325,2023-10-27 12:32:00.69,565,-511,-2004,658,-421,75,-266,59,-325,103
,326,2023-10-27 12:32:00.70,557,-547,-1963,630,-429,80,-283,-81,-202,182
,327,2023-10-27 12:32:00.71,574,-578,-1970,633,-442,84,-284,41,-325,121
,328,2023-10-27 12:32:00.72,578,-600,-2074,633,-468,94,-290,-98,-192,194
,329,2023-10-27 12:32:00.73,551,-614,-2177,600,-478,106,-288,33,-321,127
,330,2023-10-27 12:32:00.74,535,-600,-2124,524,-490,121,-280,-99,-181,189
,331,2023-10-27 12:32:00.75,474,-588,-2009,452,-505,121,-278,46,-324,116
,332,2023-10-27 12:32:00.76,484,-576,-2005,406,-536,124,-268,-89,-179,178
,333,2023-10-27 12:32:00.77,473,-597,-1969,391,-631,124,-280,54,-334,113
,334,2023-10-27 12:32:00.78,429,-602,-1970,347,-659,108,-263,-82,-181,172
,335,2023-10-27 12:32:00.79,404,-615,-1913,301,-699,100,-282,58,-340,112
,336,2023-10-27 12:32:00.80,386,-617,-1851,274,-742,79,-257,-80,-177,168
,337,2023-10-27 12:32:00.81,374,-606,-1868,246,-769,60,-287,54,-341,116
,338,2023-10-27 12:32:00.82,348,-622,-1852,212,-789,39,-258,-80,-178,169
,339,2023-10-27 12:32:00.83,365,-615,-1838,160,-791,11,-298,50,-348,124
,340,2023-10-27 12:32:00.84,324,-635,-1771,96,-769,-17,-260,-77,-183,168
,341,2023-10-27 12:32:00.85,313,-654,-1769,59,-757,-43,-307,49,-356,129
,342,2023-10-27 12:32:00.86,300,-658,-1784,39,-759,-69,-258,-75,-183,166
,343,2023-10-27 12:32:00.87,287,-647,-1780,-2,-739,-93,-305,46,-351,129
,344,2023-10-27 12:32:00.88,289,-636,-1735,-51,-710,-125,-253,-82,-171,167
,345,2023-10-27 12:32:00.89,278,-634,-1723,-90,-692,-163,-309,40,-349,134
,346,2023-10-27 12:32:00.90,270,-683,-1654,-118,-664,-199,-252,-87,-165,169
,347,2023-10-27 12:32:00.91,287,-684,-1651,-110,-637,-231,-323,36,-359,143
,348,2023-10-27 12:32:00.92,257,-697,-1715,-75,-650,-259,-253,-87,-166,170
,349,2023-10-27 12:32:00.93,235,-683,-1739,-63,-662,-281,-308,36,-344,136
,350,2023-10-27 12:32:00.94,234,-686,-1759,-62,-683,-300,-230,-80,-150,155
,351,2023-10-27 12:32:00.95,230,-716,-1763,-61,-687,-327,-306,40,-346,133
,352,2023-10-27 12:32:00.96,210,-706,-1812,-72,-664,-348,-229,-70,-159,149
,353,2023-10-27 12:32:00.97,235,-703,-1772,-76,-679,-360,-315,49,-364,133
,354,2023-10-27 12:32:00.98,208,-736,-1732,-76,-665,-382,-223,-56,-167,139
,355,2023-10-27 12:32:00.99,227,-760,-1740,-63,-666,-392,-301,48,-349,126
,356,2023-10-27 12:32:01.00,208,-774,-1757,-63,-627,-402,-201,-52,-149,126
,357,2023-10-27 12:32:01.01,190,-780,-1729,-66,-613,-405,-290,46,-336,122
,358,2023-10-27 12:32:01.02,181,-798,-1751,-62,-599,-413,-198,-50,-148,124
,359,2023-10-27 12:32:01.03,163,-803,-1770,-52,-580,-416,-289,50,-339,119
,360,2023-10-27 12:32:01.04,154,-787,-1770,-59,-557,-414,-196,-41,-155,118
,361,2023-10-27 12:32:01.05,145,-814,-1775,-63,-539,-417,-288,61,-349,113
,362,2023-10-27 12:32:01.06,128,-815,-1789,-89,-506,-420,-198,-46,-152,122
,363,2023-10-27 12:32:01.07,159,-823,-1788,-89,-501,-414,-298,64,-362,117
,364,2023-10-27 12:32:01.08,143,-809,-1823,-92,-488,-409,-200,-30,-170,115
,365,2023-10-27 12:32:01.09,134,-840,-1800,-88,-478,-404,-309,68,-377,120
,366,2023-10-27 12:32:01.10,125,-848,-1809,-84,-457,-405,-198,-21,-177,109
,367,2023-10-27 12:32:01.11,136,-850,-1846,-75,-435,-396,-312,69,-381,121
,368,2023-10-27 12:32:01.12,125,-835,-1826,-93,-420,-393,-190,-12,-178,101
,369,2023-10-27 12:32:01.13,132,-850,-1825,-95,-415,-379,-305,64,-369,120
,370,2023-10-27 12:32:01.14,122,-829,-1777,-106,-399,-372,-179,-13,-166,96
,371,2023-10-27 12:32:01.15,120,-836,-1791,-93,-414,-363,-298,64,-362,117
,372,2023-10-27 12:32:01.16,96,-832,-1827,-99,-418,-346,-172,-5,-167,88
,373,2023-10-27 12:32:01.17,95,-829,-1851,-121,-438,-326,-295,69,-364,113
,374,2023-10-27 12:32:01.18,100,-809,-1877,-145,-459,-307,-169,0,-169,84
,375,2023-10-27 12:32:01.19,101,-814,-1874,-175,-458,-295,-291,71,-362,110
,376,2023-10-27 12:32:01.20,101,-800,-1868,-194,-453,-283,-160,4,-164,78
,377,2023-10-27 12:32:01.21,102,-779,-1869,-212,-458,-273,-287,74,-361,106
,378,2023-10-27 12:32:01.22,78,-787,-1885,-239,-443,-262,-158,8,-166,75
,379,2023-10-27 12:32:01.23,67,-777,-1889,-272,-447,-250,-298,72,-370,113
,380,2023-10-27 12:32:01.24,60,-772,-1874,-303,-466,-225,-164,16,-180,74
,381,2023-10-27 12:32:01.25,52,-773,-1886,-332,-493,-203,-310,75,-385,117
,382,2023-10-27 12:32:01.26,58,-755,-1869,-357,-492,-178,-166,25,-191,70
,383,2023-10-27 12:32:01.27,61,-754,-1874,-370,-486,-155,-305,79,-384,113
,384,2023-10-27 12:32:01.28,62,-742,-1864,-376,-460,-141,-154,38,-192,58
,385,2023-10-27 12:32:01.29,51,-723,-1918,-365,-457,-123,-300,80,-380,110
,386,2023-10-27 12:32:01.30,41,-731,-1920,-354,-429,-104,-144,39,-183,52
,387,2023-10-27 12:32:01.31,38,-740,-1899,-345,-411,-78,-285,75,-360,105
,388,2023-10-27 12:32:01.32,4,-745,-1889,-317,-395,-54,-128,42,-170,43
,389,2023-10-27 12:32:01.33,12,-752,-1911,-262,-404,-17,-274,81,-355,96
,390,2023-10-27 12:32:01.34,-13,-774,-1890,-224,-366,16,-126,55,-181,35
,391,2023-10-27 12:32:01.35,-40,-782,-1876,-173,-376,60,-283,86,-369,98
,392,2023-10-27 12:32:01.36,-47,-727,-1934,-140,-344,99,-122,57,-179,32
,393,2023-10-27 12:32:01.37,-31,-655,-1942,-152,-302,128,-264,92,-356,86
,394,2023-10-27 12:32:01.38,-53,-613,-2003,-181,-291,145,-98,69,-167,14
,395,2023-10-27 12:32:01.39,-55,-513,-2180,-270,-240,157,-241,119,-360,61
,396,2023-10-27 12:32:01.40,-84,-527,-1911,-430,-192,164,-86,103,-189,-8
,397,2023-10-27 12:32:01.41,-133,-768,-1682,-373,-167,126,-255,121,-376,67
,398,2023-10-27 12:32:01.42,-53,-582,-2000,-201,-215,143,-108,79,-187,14
,399,2023-10-27 12:32:01.43,-93,-537,-2023,-124,-278,153,-257,108,-365,74
,400,2023-10-27 12:32:01.44,-83,-595,-1961,-115,-286,163,-86,100,-186,-7
,401,2023-10-27 12:32:01.45,-147,-577,-1910,-110,-276,153,-221,111,-332,55
,402,2023-10-27 12:32:01.46,-82,-537,-2028,-68,-287,162,-1,102,-103,-50
,403,2023-10-27 12:32:01.47,-104,-510,-2005,-56,-280,153,42,75,-33,-58
,404,2023-10-27 12:32:01.48,-70,-519,-1944,-26,-305,141,124,76,48,-100
,405,2023-10-27 12:32:01.49,-98,-525,-1963,11,-304,129,116,60,56,-88
,406,2023-10-27 12:32:01.50,-164,-583,-1801,40,-263,109,116,74,42,-95
,407,2023-10-27 12:32:01.51,-112,-654,-1827,191,-321,114,54,71,-17,-62
,408,2023-10-27 12:32:01.52,-163,-574,-2022,297,-332,129,79,133,-54,-106
,409,2023-10-27 12:32:01.53,-179,-498,-2096,280,-312,143,26,127,-101,-76
,410,2023-10-27 12:32:01.54,-193,-549,-1953,211,-278,124,66,134,-68,-100
,411,2023-10-27 12:32:01.55,-148,-626,-1894,194,-273,112,-8,6,-14,1
,412,2023-10-27 12:32:01.56,-159,-544,-1937,212,-290,93,-107,-119,12,113
,413,2023-10-27 12:32:01.57,-181,-522,-1969,198,-257,61,-290,-57,-233,173
,414,2023-10-27 12:32:01.58,-163,-545,-1944,135,-195,36,-200,-164,-36,182
,415,2023-10-27 12:32:01.59,-184,-646,-1837,105,-175,32,-248,-149,-99,198
,416,2023-10-27 12:32:01.60,-213,-644,-1898,130,-164,34,-135,-237,102,186
,417,2023-10-27 12:32:01.61,-187,-606,-1952,125,-158,31,-200,-214,14,207
,418,2023-10-27 12:32:01.62,-187,-550,-1982,73,-112,14,-122,-276,154,199
,419,2023-10-27 12:32:01.63,-218,-613,-1927,21,-70,-2,-205,-253,48,229
,420,2023-10-27 12:32:01.64,-195,-607,-1935,1,-59,-2,-84,-306,222,195
,421,2023-10-27 12:32:01.65,-260,-654,-1898,-11,-34,-7,-138,-276,138,207
,422,2023-10-27 12:32:01.66,-187,-547,-1936,-19,-38,-4,46,-318,364,136
,423,2023-10-27 12:32:01.67,-223,-583,-1918,-62,11,-20,51,-294,345,121
,424,2023-10-27 12:32:01.68,-219,-603,-1925,-85,12,-23,185,-274,459,44
,425,2023-10-27 12:32:01.69,-229,-598,-1919,-100,21,-34,211,-144,355,-33
,426,2023-10-27 12:32:01.70,-208,-582,-1946,-110,19,-36,108,-112,220,2
,427,2023-10-27 12:32:01.71,-192,-580,-1978,-133,18,-40,43,-97,140,27
,428,2023-10-27 12:32:01.72,-174,-557,-1990,-172,49,-48,7,-136,143,64
,429,2023-10-27 12:32:01.73,-148,-555,-1989,-212,65,-56,-17,-156,139,86
,430,2023-10-27 12:32:01.74,-166,-534,-2011,-249,102,-77,-27,-166,139,96
,431,2023-10-27 12:32:01.75,-148,-547,-2037,-276,111,-103,-53,-170,117,111
,432,2023-10-27 12:32:01.76,-150,-547,-2040,-282,105,-121,-60,-169,109,114
,433,2023-10-27 12:32:01.77,-139,-542,-2026,-271,80,-136,-94,-188,94,141
,434,2023-10-27 12:32:01.78,-153,-549,-2006,-250,59,-149,-87,-179,92,133
,435,2023-10-27 12:32:01.79,-145,-553,-2013,-224,39,-155,-120,-197,77,158
,436,2023-10-27 12:32:01.80,-138,-549,-2015,-201,14,-150,-96,-174,78,135
,437,2023-10-27 12:32:01.81,-140,-559,-2011,-164,-16,-146,-150,-207,57,178
,438,2023-10-27 12:32:01.82,-140,-573,-2010,-134,-32,-140,-111,-175,64,143
,439,2023-10-27 12:32:01.83,-152,-571,-2029,-108,-35,-135,-188,-144,-44,166
,440,2023-10-27 12:32:01.84,-146,-589,-2016,-83,-37,-119,-210,-224,14,217
,441,2023-10-27 12:32:01.85,-160,-592,-2022,-71,-24,-104,-399,-271,-128,335
,442,2023-10-27 12:32:01.86,-164,-607,-2027,-58,-15,-84,-375,-106,-269,240
,443,2023-10-27 12:32:01.87,-163,-589,-2020,-46,-6,-60,-454,-48,-406,251
,444,2023-10-27 12:32:01.88,-179,-579,-2003,-36,8,-41,-348,82,-430,133
,445,2023-10-27 12:32:01.89,-168,-590,-1989,-42,28,-20,-430,81,-511,174
,446,2023-10-27 12:32:01.90,-179,-578,-1986,-45,49,0,-336,154,-490,91
,447,2023-10-27 12:32:01.91,-174,-576,-1975,-52,72,21,-444,114,-558,165
,448,2023-10-27 12:32:01.92,-173,-584,-1964,-55,99,39,-335,188,-523,73
,449,2023-10-27 12:32:01.93,-172,-575,-1961,-60,129,57,-440,151,-591,144
,450,2023-10-27 12:32:01.94,-161,-563,-1959,-65,159,74,-336,218,-554,59
,451,2023-10-27 12:32:01.95,-169,-556,-1954,-67,188,86,-459,160,-619,149
,452,2023-10-27 12:32:01.96,-152,-546,-1942,-72,216,100,-338,164,-502,87
,453,2023-10-27 12:32:01.97,-146,-533,-1952,-79,246,109,-456,76,-532,190
,454,2023-10-27 12:32:01.98,-153,-544,-1961,-88,273,115,-327,23,-350,152
,455,2023-10-27 12:32:01.99,-153,-555,-1975,-90,296,120,-463,-82,-381,272
,456,2023-10-27 12:32:02.00,-147,-519,-1949,-90,309,125,-329,-73,-256,201
,457,2023-10-27 12:32:02.01,-141,-520,-1956,-89,334,125,-482,-117,-365,299
,458,2023-10-27 12:32:02.02,-130,-526,-1984,-101,358,126,-336,-201,-135,268
,459,2023-10-27 12:32:02.03,-111,-517,-1980,-118,382,123,-493,-309,-184,401
,460,2023-10-27 12:32:02.04,-93,-512,-1970,-124,400,120,-337,-279,-58,308
,461,2023-10-27 12:32:02.05,-106,-504,-2002,-119,415,116,-495,-291,-204,393
,462,2023-10-27 12:32:02.06,-93,-486,-1997,-122,431,110,-330,-284,-46,307
,463,2023-10-27 12:32:02.07,-85,-470,-1994,-128,452,106,-493,-329,-164,411
,464,2023-10-27 12:32:02.08,-70,-474,-1971,-129,458,94,-333,-329,-4,331
,465,2023-10-27 12:32:02.09,-89,-491,-1945,-111,464,82,-504,-347,-157,425
,466,2023-10-27 12:32:02.10,-77,-456,-2027,-89,462,69,-326,-331,5,328
