// Data mode  : Full
// Data quality  : High
// Acceleration sensor's range  : 16g
// Gyroscope sensor's range  : 2000dps
//
//ARTIFACT,NUM,DATE,ACC_X,ACC_Y,ACC_Z,GYRO_X,GYRO_Y,GYRO_Z,EOG_L,EOG_R,EOG_H,EOG_V
,1,2023-10-27 11:44:55.21,-221,493,-2014,97,199,1005,-155,-1060,905,607
,2,2023-10-27 11:44:55.22,-222,488,-2008,106,171,983,-442,-997,555,719
,3,2023-10-27 11:44:55.23,-209,503,-2009,118,148,949,-165,-1029,864,597
,4,2023-10-27 11:44:55.24,-200,534,-2026,119,124,916,-457,-963,506,710
,5,2023-10-27 11:44:55.25,-202,512,-2003,104,128,883,-171,-1041,870,606
,6,2023-10-27 11:44:55.26,-181,524,-2015,93,115,849,-445,-989,544,717
,7,2023-10-27 11:44:55.27,-185,534,-2016,76,115,822,-148,-1059,911,603
,8,2023-10-27 11:44:55.28,-161,523,-1986,62,120,787,-434,-986,552,710
,9,2023-10-27 11:44:55.29,-157,538,-1997,66,124,747,-156,-1048,892,602
,10,2023-10-27 11:44:55.30,-155,542,-2007,74,117,691,-449,-977,528,713
,11,2023-10-27 11:44:55.31,-149,539,-2010,94,114,637,-160,-1051,891,605
,12,2023-10-27 11:44:55.32,-149,539,-1999,113,102,579,-442,-980,538,711
,13,2023-10-27 11:44:55.33,-138,524,-2013,130,84,526,-154,-1064,910,609
,14,2023-10-27 11:44:55.34,-156,531,-2014,143,64,479,-444,-985,541,714
,15,2023-10-27 11:44:55.35,-144,531,-2015,151,55,437,-152,-1045,893,598
,16,2023-10-27 11:44:55.36,-153,526,-2021,143,58,398,-440,-958,518,699
,17,2023-10-27 11:44:55.37,-141,528,-2036,131,56,360,-155,-1045,890,600
,18,2023-10-27 11:44:55.38,-142,509,-2003,125,47,318,-434,-966,532,700
,19,2023-10-27 11:44:55.39,-138,514,-2028,119,57,293,-160,-1051,891,605
,20,2023-10-27 11:44:55.40,-135,505,-2022,107,40,265,-439,-964,525,701
,21,2023-10-27 11:44:55.41,-128,498,-2019,103,31,236,-162,-1058,896,610
,22,2023-10-27 11:44:55.42,-117,494,-2004,102,21,205,-435,-969,534,702
,23,2023-10-27 11:44:55.43,-113,492,-2002,99,11,178,-164,-1048,884,606
,24,2023-10-27 11:44:55.44,-119,491,-1996,100,6,152,-437,-958,521,697
,25,2023-10-27 11:44:55.45,-114,479,-1993,104,2,131,-164,-1058,894,611
,26,2023-10-27 11:44:55.46,-118,471,-2002,106,-7,107,-433,-972,539,702
,27,2023-10-27 11:44:55.47,-121,466,-1995,105,-14,95,-173,-1069,896,621
,28,2023-10-27 11:44:55.48,-123,465,-1997,103,-14,80,-442,-974,532,708
,29,2023-10-27 11:44:55.49,-132,452,-2000,97,-16,66,-166,-1074,908,620
,30,2023-10-27 11:44:55.50,-124,465,-1994,92,-20,54,-424,-978,554,701
,31,2023-10-27 11:44:55.51,-125,461,-2003,84,-20,42,-157,-1077,920,617
,32,2023-10-27 11:44:55.52,-118,453,-1997,79,-18,20,-417,-975,558,696
,33,2023-10-27 11:44:55.53,-122,458,-2001,82,-19,8,-170,-1078,908,624
,34,2023-10-27 11:44:55.54,-133,456,-2002,81,-21,-8,-418,-970,552,694
,35,2023-10-27 11:44:55.55,-130,445,-1996,83,-22,-16,-174,-1066,892,620
,36,2023-10-27 11:44:55.56,-134,439,-1994,81,-21,-29,-415,-958,543,686
,37,2023-10-27 11:44:55.57,-132,438,-1990,83,-16,-37,-182,-1068,886,625
,38,2023-10-27 11:44:55.58,-136,438,-1990,81,-11,-46,-403,-963,560,683
,39,2023-10-27 11:44:55.59,-136,435,-1987,78,-6,-55,-169,-1072,903,620
,40,2023-10-27 11:44:55.60,-131,434,-1987,77,4,-59,-402,-964,562,683
,41,2023-10-27 11:44:55.61,-138,432,-1994,76,12,-68,-182,-1062,880,622
,42,2023-10-27 11:44:55.62,-142,428,-1990,76,15,-72,-410,-956,546,683
,43,2023-10-27 11:44:55.63,-145,428,-1996,77,17,-78,-186,-1065,879,625
,44,2023-10-27 11:44:55.64,-129,425,-2002,76,21,-82,-399,-965,566,682
,45,2023-10-27 11:44:55.65,-139,417,-2003,77,13,-88,-189,-1080,891,634
,46,2023-10-27 11:44:55.66,-149,415,-2014,76,16,-92,-400,-973,573,686
,47,2023-10-27 11:44:55.67,-140,418,-2012,79,13,-99,-203,-1081,878,642
,48,2023-10-27 11:44:55.68,-136,420,-2000,78,12,-103,-399,-969,570,684
,49,2023-10-27 11:44:55.69,-144,410,-1995,78,18,-106,-190,-1069,879,629
,50,2023-10-27 11:44:55.70,-143,404,-2009,76,21,-110,-373,-954,581,663
,51,2023-10-27 11:44:55.71,-146,403,-1988,82,17,-114,-201,-1058,857,629
,52,2023-10-27 11:44:55.72,-150,393,-2005,85,23,-110,-383,-950,567,666
,53,2023-10-27 11:44:55.73,-140,382,-2020,89,12,-111,-213,-1056,843,634
,54,2023-10-27 11:44:55.74,-152,391,-2012,91,9,-116,-377,-956,579,666
,55,2023-10-27 11:44:55.75,-134,403,-2007,82,12,-117,-205,-1066,861,635
,56,2023-10-27 11:44:55.76,-145,412,-1998,76,31,-122,-367,-970,603,668
,57,2023-10-27 11:44:55.77,-129,408,-2010,72,38,-120,-218,-1084,866,651
,58,2023-10-27 11:44:55.78,-135,401,-2014,76,38,-123,-369,-969,600,669
,59,2023-10-27 11:44:55.79,-146,394,-2017,74,34,-126,-210,-1057,847,633
,60,2023-10-27 11:44:55.80,-150,386,-2002,71,32,-125,-355,-956,601,655
,61,2023-10-27 11:44:55.81,-147,369,-2007,65,32,-123,-222,-1076,854,649
,62,2023-10-27 11:44:55.82,-146,370,-2005,61,28,-120,-360,-977,617,668
,63,2023-10-27 11:44:55.83,-154,375,-1999,59,33,-115,-235,-1075,840,655
,64,2023-10-27 11:44:55.84,-149,375,-1998,61,25,-116,-354,-961,607,657
,65,2023-10-27 11:44:55.85,-149,376,-1995,59,23,-114,-224,-1056,832,640
,66,2023-10-27 11:44:55.86,-136,378,-1998,56,28,-109,-332,-960,628,646
,67,2023-10-27 11:44:55.87,-140,369,-1999,57,29,-110,-234,-1077,843,655
,68,2023-10-27 11:44:55.88,-151,368,-2016,56,30,-107,-339,-975,636,657
,69,2023-10-27 11:44:55.89,-138,361,-2015,60,24,-104,-242,-1067,825,654
,70,2023-10-27 11:44:55.90,-146,358,-2023,57,19,-103,-327,-965,638,646
,71,2023-10-27 11:44:55.91,-148,358,-2020,54,14,-100,-244,-1067,823,655
,72,2023-10-27 11:44:55.92,-156,369,-2030,52,13,-97,-319,-972,653,645
,73,2023-10-27 11:44:55.93,-143,360,-2010,45,24,-94,-249,-1064,815,656
,74,2023-10-27 11:44:55.94,-139,363,-2012,41,25,-93,-318,-972,654,645
,75,2023-10-27 11:44:55.95,-147,363,-2022,39,26,-91,-255,-1065,810,660
,76,2023-10-27 11:44:55.96,-139,354,-2014,40,26,-88,-312,-968,656,640
,77,2023-10-27 11:44:55.97,-135,344,-2013,41,28,-87,-263,-1046,783,654
,78,2023-10-27 11:44:55.98,-137,350,-2003,45,26,-81,-319,-970,651,644
,79,2023-10-27 11:44:55.99,-140,351,-1996,45,38,-81,-265,-1062,797,663
,80,2023-10-27 11:44:56.00,-132,346,-1995,44,50,-80,-300,-973,673,636
,81,2023-10-27 11:44:56.01,-124,346,-1996,43,54,-76,-271,-1047,776,659
,82,2023-10-27 11:44:56.02,-138,351,-2014,49,58,-70,-303,-962,659,632
,83,2023-10-27 11:44:56.03,-131,339,-2002,50,61,-72,-297,-1045,748,671
,84,2023-10-27 11:44:56.04,-133,342,-2013,52,62,-64,-303,-968,665,635
,85,2023-10-27 11:44:56.05,-136,342,-2016,47,62,-57,-287,-1050,763,668
,86,2023-10-27 11:44:56.06,-129,345,-2027,43,60,-54,-278,-979,701,628
,87,2023-10-27 11:44:56.07,-146,353,-2022,36,57,-49,-285,-1070,785,677
,88,2023-10-27 11:44:56.08,-126,364,-2009,29,59,-48,-268,-986,718,627
,89,2023-10-27 11:44:56.09,-124,343,-2009,17,64,-38,-302,-1050,748,676
,90,2023-10-27 11:44:56.10,-125,344,-2023,11,63,-33,-276,-976,700,626
,91,2023-10-27 11:44:56.11,-121,343,-2013,15,61,-29,-309,-1046,737,677
,92,2023-10-27 11:44:56.12,-112,322,-2002,22,60,-27,-267,-974,707,620
,93,2023-10-27 11:44:56.13,-116,298,-2004,17,67,-15,-313,-1040,727,676
,94,2023-10-27 11:44:56.14,-115,309,-2020,20,75,-1,-256,-978,722,617
,95,2023-10-27 11:44:56.15,-115,303,-2023,29,80,13,-320,-1043,723,681
,96,2023-10-27 11:44:56.16,-105,302,-2034,35,75,33,-259,-997,738,628
,97,2023-10-27 11:44:56.17,-96,281,-2038,49,66,49,-316,-1067,751,691
,98,2023-10-27 11:44:56.18,-104,280,-2040,74,61,59,-241,-1011,770,626
,99,2023-10-27 11:44:56.19,-80,279,-2029,97,49,67,-321,-1062,741,691
,100,2023-10-27 11:44:56.20,-81,258,-2026,126,47,80,-245,-1005,760,625
,101,2023-10-27 11:44:56.21,-85,241,-2032,142,48,102,-334,-1054,720,694
,102,2023-10-27 11:44:56.22,-76,240,-2051,144,36,131,-237,-992,755,614
,103,2023-10-27 11:44:56.23,-77,220,-2065,156,16,161,-333,-1033,700,683
,104,2023-10-27 11:44:56.24,-74,245,-2062,175,-11,177,-232,-982,750,607
,105,2023-10-27 11:44:56.25,-62,223,-2061,180,-33,202,-354,-1032,678,693
,106,2023-10-27 11:44:56.26,-48,197,-2061,176,-47,223,-240,-992,752,616
,107,2023-10-27 11:44:56.27,-71,211,-2061,193,-78,239,-359,-1036,677,697
,108,2023-10-27 11:44:56.28,-50,210,-2067,216,-101,256,-221,-994,773,607
,109,2023-10-27 11:44:56.29,-62,196,-2059,222,-130,274,-351,-1030,679,690
,110,2023-10-27 11:44:56.30,-44,182,-2051,206,-167,303,-214,-987,773,600
,111,2023-10-27 11:44:56.31,-54,168,-2056,201,-196,323,-366,-1021,655,693
,112,2023-10-27 11:44:56.32,-42,164,-2076,223,-225,329,-218,-1006,788,612
,113,2023-10-27 11:44:56.33,-39,137,-2120,246,-275,338,-365,-1047,682,706
,114,2023-10-27 11:44:56.34,-34,66,-2152,251,-310,364,-204,-1020,816,612
,115,2023-10-27 11:44:56.35,-36,52,-2180,273,-340,385,-361,-1039,678,700
,116,2023-10-27 11:44:56.36,-24,57,-2163,303,-368,399,-188,-1007,819,597
,117,2023-10-27 11:44:56.37,7,35,-2161,332,-390,418,-360,-1028,668,694
,118,2023-10-27 11:44:56.38,1,25,-2162,355,-406,439,-190,-1002,812,596
,119,2023-10-27 11:44:56.39,23,59,-2084,381,-417,446,-383,-1022,639,702
,120,2023-10-27 11:44:56.40,68,89,-2038,405,-411,458,-199,-1007,808,603
,121,2023-10-27 11:44:56.41,50,88,-2040,407,-397,470,-388,-1027,639,707
,122,2023-10-27 11:44:56.42,58,92,-2046,397,-370,462,-195,-1007,812,601
,123,2023-10-27 11:44:56.43,71,128,-2027,385,-350,442,-395,-1013,618,704
,124,2023-10-27 11:44:56.44,51,147,-2019,365,-321,427,-200,-1017,817,608
,125,2023-10-27 11:44:56.45,31,160,-2057,318,-289,433,-413,-1034,621,723
,126,2023-10-27 11:44:56.46,-15,161,-2067,241,-272,457,-203,-1011,808,607
,127,2023-10-27 11:44:56.47,-57,158,-2092,153,-280,489,-416,-997,581,706
,128,2023-10-27 11:44:56.48,-112,150,-2130,71,-329,522,-188,-1008,820,598
,129,2023-10-27 11:44:56.49,-137,135,-2109,-3,-401,557,-402,-1016,614,709
,130,2023-10-27 11:44:56.50,-178,136,-2104,-71,-469,602,-186,-1019,833,602
,131,2023-10-27 11:44:56.51,-194,102,-2099,-147,-535,652,-429,-1012,583,720
,132,2023-10-27 11:44:56.52,-224,115,-2076,-220,-596,709,-206,-1022,816,614
,133,2023-10-27 11:44:56.53,-229,147,-2064,-291,-666,767,-446,-1008,562,727
,134,2023-10-27 11:44:56.54,-245,191,-2057,-349,-733,815,-204,-1012,808,608
,135,2023-10-27 11:44:56.55,-247,235,-1986,-404,-771,844,-444,-987,543,715
,136,2023-10-27 11:44:56.56,-264,287,-1915,-447,-800,850,-199,-1015,816,607
,137,2023-10-27 11:44:56.57,-270,324,-1906,-483,-790,846,-446,-1002,556,724
,138,2023-10-27 11:44:56.58,-296,320,-1923,-516,-775,828,-221,-1025,804,623
,139,2023-10-27 11:44:56.59,-298,322,-1895,-539,-767,807,-494,-999,505,746
,140,2023-10-27 11:44:56.60,-309,337,-1867,-561,-744,793,-227,-1037,810,632
,141,2023-10-27 11:44:56.61,-327,342,-1881,-560,-714,773,-454,-1003,549,728
,142,2023-10-27 11:44:56.62,-347,357,-1900,-552,-686,747,-207,-1034,827,620
,143,2023-10-27 11:44:56.63,-367,358,-1918,-548,-645,718,-484,-991,507,737
,144,2023-10-27 11:44:56.64,-391,344,-1958,-540,-605,697,-243,-1028,785,635
,145,2023-10-27 11:44:56.65,-419,361,-1991,-515,-584,674,-509,-984,475,746
,146,2023-10-27 11:44:56.66,-412,389,-1995,-488,-569,648,-226,-1036,810,631
,147,2023-10-27 11:44:56.67,-420,382,-1991,-470,-552,626,-467,-992,525,729
,148,2023-10-27 11:44:56.68,-425,382,-1979,-442,-526,605,-195,-1047,852,621
,149,2023-10-27 11:44:56.69,-440,399,-1985,-430,-501,581,-466,-989,523,727
,150,2023-10-27 11:44:56.70,-422,383,-1977,-433,-473,564,-270,-1041,771,655
,151,2023-10-27 11:44:56.71,-440,397,-2010,-415,-441,552,-578,-983,405,780
,152,2023-10-27 11:44:56.72,-460,399,-2001,-381,-423,533,-289,-1041,752,665
,153,2023-10-27 11:44:56.73,-465,392,-2001,-350,-414,516,-521,-977,456,749
,154,2023-10-27 11:44:56.74,-473,373,-1991,-339,-392,516,-270,-1028,758,649
,155,2023-10-27 11:44:56.75,-481,347,-1992,-355,-391,537,-560,-937,377,748
,156,2023-10-27 11:44:56.76,-497,384,-1968,-372,-355,550,-318,-1003,685,660
,157,2023-10-27 11:44:56.77,-473,390,-1934,-388,-335,561,-585,-945,360,765
,158,2023-10-27 11:44:56.78,-475,386,-1918,-405,-285,581,-335,-1048,713,691
,159,2023-10-27 11:44:56.79,-477,404,-1919,-397,-268,589,-596,-987,391,791
,160,2023-10-27 11:44:56.80,-494,425,-1910,-382,-255,586,-320,-1109,789,714
,161,2023-10-27 11:44:56.81,-519,456,-1864,-375,-266,570,-567,-1034,467,800
,162,2023-10-27 11:44:56.82,-487,477,-1825,-396,-278,557,-300,-1120,820,710
,163,2023-10-27 11:44:56.83,-499,463,-1820,-442,-282,550,-575,-1027,452,801
,164,2023-10-27 11:44:56.84,-514,469,-1829,-477,-270,536,-342,-1083,741,712
,165,2023-10-27 11:44:56.85,-508,464,-1819,-512,-258,526,-614,-983,369,798
,166,2023-10-27 11:44:56.86,-495,451,-1805,-547,-255,520,-342,-1099,757,720
,167,2023-10-27 11:44:56.87,-491,463,-1840,-592,-220,539,-684,-1023,339,853
,168,2023-10-27 11:44:56.88,-483,440,-1845,-622,-213,542,-1294,-1152,-142,1223
,169,2023-10-27 11:44:56.89,-464,456,-1803,-631,-205,534,-1379,-1095,-284,1237
,170,2023-10-27 11:44:56.90,-443,482,-1772,-643,-183,530,-1410,-1187,-223,1298
,171,2023-10-27 11:44:56.91,-414,490,-1780,-645,-169,523,-1226,-1086,-140,1156
,172,2023-10-27 11:44:56.92,-411,496,-1803,-607,-156,507,-1281,-1123,-158,1202
,173,2023-10-27 11:44:56.93,-402,600,-1680,-549,-147,485,-1194,-984,-210,1089
,174,2023-10-27 11:44:56.94,-402,590,-1690,-537,-120,495,-1306,-959,-347,1132
,175,2023-10-27 11:44:56.95,-445,629,-1741,-566,-110,508,-1215,-780,-435,997
,176,2023-10-27 11:44:56.96,-487,735,-1794,-594,-122,496,-1308,-722,-586,1015
,177,2023-10-27 11:44:56.97,-537,821,-1814,-592,-142,449,-1167,-552,-615,859
,178,2023-10-27 11:44:56.98,-539,895,-1818,-577,-148,383,-1072,-491,-581,781
,179,2023-10-27 11:44:56.99,-534,912,-1811,-573,-131,332,-765,-331,-434,548
,180,2023-10-27 11:44:57.00,-549,966,-1821,-563,-100,291,-302,-274,-28,288
,181,2023-10-27 11:44:57.01,-531,924,-1802,-553,-100,267,-104,-140,36,122
,182,2023-10-27 11:44:57.02,-553,923,-1774,-522,-86,232,459,-197,656,-131
,183,2023-10-27 11:44:57.03,-570,971,-1742,-476,-76,185,32,-119,151,43
,184,2023-10-27 11:44:57.04,-559,968,-1730,-440,-68,146,-20,-438,418,229
,185,2023-10-27 11:44:57.05,-571,984,-1726,-425,-42,116,-458,-490,32,474
,186,2023-10-27 11:44:57.06,-566,1000,-1732,-426,-21,108,-242,-830,588,536
,187,2023-10-27 11:44:57.07,-561,1025,-1742,-413,-5,100,-465,-910,445,687
,188,2023-10-27 11:44:57.08,-580,1021,-1704,-379,-9,76,-196,-1077,881,636
,189,2023-10-27 11:44:57.09,-571,1029,-1699,-347,3,50,-449,-947,498,698
,190,2023-10-27 11:44:57.10,-589,1028,-1704,-337,18,23,-220,-1024,804,622
,191,2023-10-27 11:44:57.11,-629,1145,-1705,-327,33,1,-473,-896,423,684
,192,2023-10-27 11:44:57.12,-585,1117,-1676,-342,3,3,-226,-1023,797,624
,193,2023-10-27 11:44:57.13,-625,1058,-1715,-359,-28,11,-457,-936,479,696
,194,2023-10-27 11:44:57.14,-630,1143,-1699,-356,-63,-23,-236,-1080,844,658
,195,2023-10-27 11:44:57.15,-616,1176,-1658,-342,-44,-67,-472,-991,519,731
,196,2023-10-27 11:44:57.16,-595,1112,-1716,-336,-6,-80,-241,-986,745,613
,197,2023-10-27 11:44:57.17,-580,1036,-1664,-312,-7,-70,-460,-784,324,622
,198,2023-10-27 11:44:57.18,-600,1161,-1658,-266,9,-62,-251,-920,669,585
,199,2023-10-27 11:44:57.19,-575,1128,-1580,-269,-5,-47,-475,-858,383,666
,200,2023-10-27 11:44:57.20,-566,1085,-1535,-276,37,-68,-264,-923,659,593
,201,2023-10-27 11:44:57.21,-545,1179,-1536,-242,54,-102,-467,-772,305,619
,202,2023-10-27 11:44:57.22,-539,1227,-1543,-213,34,-124,-241,-776,535,508
,203,2023-10-27 11:44:57.23,-544,1224,-1529,-190,48,-145,-437,-635,198,536
,204,2023-10-27 11:44:57.24,-552,1256,-1528,-175,66,-176,-249,-739,490,494
,205,2023-10-27 11:44:57.25,-566,1217,-1547,-182,73,-190,-435,-675,240,555
,206,2023-10-27 11:44:57.26,-592,1139,-1548,-188,64,-204,-239,-754,515,496
,207,2023-10-27 11:44:57.27,-635,1102,-1642,-197,41,-193,-421,-628,207,524
,208,2023-10-27 11:44:57.28,-635,1076,-1694,-226,1,-157,-247,-652,405,449
,209,2023-10-27 11:44:57.29,-614,1070,-1683,-246,-29,-113,-428,-545,117,486
,210,2023-10-27 11:44:57.30,-594,1092,-1626,-247,-29,-72,-247,-557,310,402
,211,2023-10-27 11:44:57.31,-583,1133,-1590,-238,-5,-58,-416,-453,37,434
,212,2023-10-27 11:44:57.32,-586,1178,-1593,-228,39,-65,-258,-436,178,347
,213,2023-10-27 11:44:57.33,-572,1209,-1583,-226,59,-70,-420,-367,-53,393
,214,2023-10-27 11:44:57.34,-568,1281,-1531,-193,68,-86,-265,-416,151,340
,215,2023-10-27 11:44:57.35,-607,1344,-1531,-137,48,-121,-411,-390,-21,400
,216,2023-10-27 11:44:57.36,-645,1353,-1539,-95,37,-156,-319,-486,167,402
,217,2023-10-27 11:44:57.37,-636,1242,-1580,-69,24,-176,-448,-475,27,461
,218,2023-10-27 11:44:57.38,-676,1251,-1614,-40,-10,-195,-305,-561,256,433
,219,2023-10-27 11:44:57.39,-657,1236,-1605,-7,-33,-216,-406,-540,134,473
,220,2023-10-27 11:44:57.40,-677,1229,-1610,28,-26,-235,-273,-713,440,493
,221,2023-10-27 11:44:57.41,-569,1235,-1513,51,-9,-250,-378,-727,349,552
,222,2023-10-27 11:44:57.42,-519,1190,-1372,107,29,-316,-247,-992,745,619
,223,2023-10-27 11:44:57.43,-511,1192,-1301,194,115,-433,-359,-1008,649,683
,224,2023-10-27 11:44:57.44,-518,1195,-1354,224,221,-505,-267,-1096,829,681
,225,2023-10-27 11:44:57.45,-500,1102,-1503,208,264,-529,-368,-974,606,671
,226,2023-10-27 11:44:57.46,-524,1053,-1551,170,273,-512,-292,-1015,723,653
,227,2023-10-27 11:44:57.47,-570,1014,-1608,147,227,-471,-376,-914,538,645
,228,2023-10-27 11:44:57.48,-591,982,-1729,89,207,-427,-299,-920,621,609
,229,2023-10-27 11:44:57.49,-602,930,-1773,12,218,-381,-379,-819,440,599
,230,2023-10-27 11:44:57.50,-576,872,-1761,0,204,-342,-402,-869,467,635
,231,2023-10-27 11:44:57.51,-575,873,-1686,92,139,-324,-434,-817,383,625
,232,2023-10-27 11:44:57.52,-583,976,-1620,219,100,-330,-312,-862,550,587
,233,2023-10-27 11:44:57.53,-546,1040,-1625,266,97,-314,-328,-798,470,563
,234,2023-10-27 11:44:57.54,-568,1060,-1670,237,73,-277,-268,-792,524,530
,235,2023-10-27 11:44:57.55,-569,1079,-1721,189,22,-251,-322,-719,397,520
,236,2023-10-27 11:44:57.56,-562,1121,-1627,162,-58,-275,-287,-626,339,456
,237,2023-10-27 11:44:57.57,-495,1218,-1407,136,30,-450,-324,-564,240,444
,238,2023-10-27 11:44:57.58,-453,1163,-1429,86,161,-508,-297,-562,265,429
,239,2023-10-27 11:44:57.59,-490,1102,-1519,57,237,-538,-308,-542,234,425
,240,2023-10-27 11:44:57.60,-507,1084,-1566,43,232,-561,-300,-435,135,367
,241,2023-10-27 11:44:57.61,-530,1098,-1571,28,192,-602,-316,-378,62,347
,242,2023-10-27 11:44:57.62,-551,1137,-1548,8,177,-664,-328,-288,-40,308
,243,2023-10-27 11:44:57.63,-506,1168,-1543,-19,191,-729,-317,-253,-64,285
,244,2023-10-27 11:44:57.64,-474,1125,-1524,-29,226,-785,-311,-100,-211,205
,245,2023-10-27 11:44:57.65,-476,1064,-1570,-5,266,-841,-292,-42,-250,167
,246,2023-10-27 11:44:57.66,-438,1002,-1582,16,290,-881,-314,156,-470,79
,247,2023-10-27 11:44:57.67,-424,1012,-1631,33,306,-901,-296,178,-474,59
,248,2023-10-27 11:44:57.68,-433,1060,-1708,58,294,-914,-347,350,-697,-1
,249,2023-10-27 11:44:57.69,-495,1110,-1784,121,260,-956,-309,297,-606,6
,250,2023-10-27 11:44:57.70,-552,1147,-1851,188,216,-1031,-345,441,-786,-48
,251,2023-10-27 11:44:57.71,-588,1168,-1900,229,175,-1111,-293,333,-626,-20
,252,2023-10-27 11:44:57.72,-645,1140,-1965,263,111,-1177,-352,464,-816,-56
,253,2023-10-27 11:44:57.73,-674,1170,-1955,316,38,-1253,-294,322,-616,-14
,254,2023-10-27 11:44:57.74,-671,1204,-1879,370,-6,-1343,-365,418,-783,-26
,255,2023-10-27 11:44:57.75,-680,1220,-1859,386,-1,-1440,-284,264,-548,10
,256,2023-10-27 11:44:57.76,-667,1184,-1839,344,63,-1528,-357,356,-713,0
,257,2023-10-27 11:44:57.77,-642,1129,-1831,310,118,-1592,-284,235,-519,24
,258,2023-10-27 11:44:57.78,-628,1137,-1824,307,155,-1656,-374,335,-709,19
,259,2023-10-27 11:44:57.79,-563,1168,-1700,308,186,-1749,-286,140,-426,73
,260,2023-10-27 11:44:57.80,-483,1231,-1539,311,304,-1894,-396,172,-568,112
,261,2023-10-27 11:44:57.81,-414,1174,-1399,302,462,-2067,-291,-39,-252,165
,262,2023-10-27 11:44:57.82,-364,1059,-1430,314,632,-2223,-389,-11,-378,200
,263,2023-10-27 11:44:57.83,-344,930,-1532,362,722,-2336,-273,-176,-97,224
,264,2023-10-27 11:44:57.84,-319,840,-1518,480,719,-2401,-400,-105,-295,252
,265,2023-10-27 11:44:57.85,-256,869,-1614,614,629,-2459,-260,-250,-10,255
,266,2023-10-27 11:44:57.86,-349,825,-1595,661,543,-2540,-371,-187,-184,279
,267,2023-10-27 11:44:57.87,-372,803,-1645,632,670,-2638,-236,-320,84,278
,268,2023-10-27 11:44:57.88,-423,747,-1784,564,796,-2737,-379,-245,-134,312
,269,2023-10-27 11:44:57.89,-466,590,-2025,514,857,-2781,-234,-378,144,306
,270,2023-10-27 11:44:57.90,-493,498,-2145,490,855,-2799,-388,-325,-63,356
,271,2023-10-27 11:44:57.91,-499,342,-2144,494,806,-2795,-257,-463,206,360
,272,2023-10-27 11:44:57.92,-459,301,-2100,462,827,-2768,-454,-416,-38,435
,273,2023-10-27 11:44:57.93,-460,225,-1891,466,767,-2751,-285,-569,284,427
,274,2023-10-27 11:44:57.94,-437,230,-2009,475,764,-2710,-443,-565,122,504
,275,2023-10-27 11:44:57.95,-465,61,-1856,460,790,-2656,-234,-725,491,479
,276,2023-10-27 11:44:57.96,-538,-56,-1711,519,867,-2633,-391,-772,381,581
,277,2023-10-27 11:44:57.97,-514,-101,-1852,578,790,-2568,-179,-881,702,530
,278,2023-10-27 11:44:57.98,-563,65,-2083,481,668,-2461,-352,-848,496,600
,279,2023-10-27 11:44:57.99,-611,57,-1883,438,303,-2373,-110,-874,764,492
,280,2023-10-27 11:44:58.00,-619,61,-1802,518,117,-2347,-206,-689,483,447
,281,2023-10-27 11:44:58.01,-670,24,-1832,559,28,-2362,-13,-637,624,325
,282,2023-10-27 11:44:58.02,-678,-103,-1816,513,-4,-2346,-218,-335,117,276
,283,2023-10-27 11:44:58.03,-752,-265,-1901,465,-9,-2262,-72,-264,192,168
,284,2023-10-27 11:44:58.04,-803,-404,-1968,431,-43,-2096,-292,-10,-282,151
,285,2023-10-27 11:44:58.05,-862,-471,-1977,462,-132,-1914,-44,-88,44,66
,286,2023-10-27 11:44:58.06,-868,-510,-1872,506,-245,-1744,-176,103,-279,36
,287,2023-10-27 11:44:58.07,-890,-506,-1737,532,-251,-1604,-37,58,-95,-10
,288,2023-10-27 11:44:58.08,-885,-471,-1690,522,-201,-1485,-376,229,-605,73
,289,2023-10-27 11:44:58.09,-866,-470,-1654,483,-128,-1364,-158,59,-217,49
,290,2023-10-27 11:44:58.10,-879,-562,-1669,486,-67,-1265,-312,179,-491,66
,291,2023-10-27 11:44:58.11,-897,-578,-1741,540,-77,-1168,-41,46,-87,-2
,292,2023-10-27 11:44:58.12,-883,-597,-1795,593,-128,-1047,-256,214,-470,21
,293,2023-10-27 11:44:58.13,-914,-698,-1745,645,-138,-925,-5,104,-109,-49
,294,2023-10-27 11:44:58.14,-919,-717,-1830,670,-105,-806,-226,279,-505,-26
,295,2023-10-27 11:44:58.15,-904,-777,-1851,670,-68,-689,17,197,-180,-107
,296,2023-10-27 11:44:58.16,-920,-775,-1906,672,-18,-572,-232,388,-620,-78
,297,2023-10-27 11:44:58.17,-923,-766,-1912,694,8,-465,3,333,-330,-168
,298,2023-10-27 11:44:58.18,-930,-740,-1943,718,69,-380,-245,495,-740,-125
,299,2023-10-27 11:44:58.19,-915,-722,-1928,725,116,-300,-17,396,-413,-189
,300,2023-10-27 11:44:58.20,-856,-720,-1834,708,202,-220,-308,509,-817,-100
,301,2023-10-27 11:44:58.21,-839,-672,-1889,701,259,-151,-63,374,-437,-155
,302,2023-10-27 11:44:58.22,-804,-645,-1838,690,279,-94,-331,467,-798,-68
,303,2023-10-27 11:44:58.23,-770,-570,-1867,690,302,-74,-31,293,-324,-131
,304,2023-10-27 11:44:58.24,-742,-526,-1851,680,296,-58,-279,373,-652,-47
,305,2023-10-27 11:44:58.25,-727,-510,-1863,655,317,-54,-28,240,-268,-106
,306,2023-10-27 11:44:58.26,-754,-492,-1957,621,305,-43,-346,336,-682,5
,307,2023-10-27 11:44:58.27,-737,-488,-1928,585,288,-22,-60,166,-226,-53
,308,2023-10-27 11:44:58.28,-721,-478,-1866,576,254,14,-320,244,-564,38
,309,2023-10-27 11:44:58.29,-703,-488,-1898,572,217,60,-16,83,-99,-33
,310,2023-10-27 11:44:58.30,-695,-512,-1906,558,222,95,-303,189,-492,57
,311,2023-10-27 11:44:58.31,-690,-504,-1929,538,214,113,-3,55,-58,-26
,312,2023-10-27 11:44:58.32,-671,-521,-1992,497,219,144,-287,178,-465,54
,313,2023-10-27 11:44:58.33,-692,-493,-2007,447,199,164,-1,64,-65,-31
,314,2023-10-27 11:44:58.34,-680,-451,-1970,403,145,172,-310,191,-501,59
,315,2023-10-27 11:44:58.35,-666,-416,-1926,367,101,170,-48,72,-120,-12
,316,2023-10-27 11:44:58.36,-675,-434,-1894,340,53,153,-366,167,-533,99
,317,2023-10-27 11:44:58.37,-646,-487,-1895,314,6,147,-87,-11,-76,49
,318,2023-10-27 11:44:58.38,-624,-535,-1856,284,-25,143,-385,66,-451,159
,319,2023-10-27 11:44:58.39,-623,-545,-1873,240,-50,133,-71,-98,27,84
,320,2023-10-27 11:44:58.40,-637,-551,-1880,182,-71,130,-352,-8,-344,180
,321,2023-10-27 11:44:58.41,-663,-573,-1911,148,-84,130,-8,-153,145,80
,322,2023-10-27 11:44:58.42,-684,-585,-1930,132,-96,140,-299,-52,-247,175
,323,2023-10-27 11:44:58.43,-684,-600,-1914,124,-105,142,1,-172,173,85
,324,2023-10-27 11:44:58.44,-695,-581,-1863,104,-101,150,-316,-62,-254,189
,325,2023-10-27 11:44:58.45,-712,-568,-1835,73,-69,152,-4,-166,162,85
,326,2023-10-27 11:44:58.46,-736,-543,-1844,43,-33,135,-307,-52,-255,179
,327,2023-10-27 11:44:58.47,-748,-531,-1850,21,-18,97,17,-177,194,80
,328,2023-10-27 11:44:58.48,-772,-547,-1851,-4,-1,66,-282,-74,-208,178
,329,2023-10-27 11:44:58.49,-780,-584,-1852,-13,10,38,5,-190,195,92
,330,2023-10-27 11:44:58.50,-768,-591,-1845,-15,27,23,-328,-95,-233,211
,331,2023-10-27 11:44:58.51,-758,-590,-1825,-25,51,26,-15,-194,179,104
,332,2023-10-27 11:44:58.52,-732,-582,-1803,-32,89,26,-317,-92,-225,204
,333,2023-10-27 11:44:58.53,-731,-559,-1826,-40,129,16,0,-225,225,112
,334,2023-10-27 11:44:58.54,-734,-537,-1823,-44,151,-1,-304,-141,-163,222
,335,2023-10-27 11:44:58.55,-708,-513,-1821,-43,164,-11,-10,-251,241,130
,336,2023-10-27 11:44:58.56,-695,-496,-1835,-33,160,-31,-323,-148,-175,235
,337,2023-10-27 11:44:58.57,-687,-487,-1838,-27,173,-63,-12,-250,238,131
,338,2023-10-27 11:44:58.58,-655,-517,-1858,-25,198,-87,-315,-154,-161,234
,339,2023-10-27 11:44:58.59,-658,-546,-1883,-18,213,-80,-8,-269,261,138
,340,2023-10-27 11:44:58.60,-646,-558,-1894,-2,209,-60,-309,-192,-117,250
,341,2023-10-27 11:44:58.61,-624,-568,-1867,7,211,-36,-24,-331,307,177
,342,2023-10-27 11:44:58.62,-625,-572,-1866,3,215,-12,-331,-261,-70,296
,343,2023-10-27 11:44:58.63,-610,-572,-1880,2,232,7,-28,-396,368,212
,344,2023-10-27 11:44:58.64,-588,-562,-1882,16,239,24,-310,-323,13,316
,345,2023-10-27 11:44:58.65,-579,-538,-1876,24,231,45,-2,-459,457,230
,346,2023-10-27 11:44:58.66,-577,-508,-1848,35,229,60,-291,-375,84,333
,347,2023-10-27 11:44:58.67,-580,-502,-1833,48,233,45,-20,-498,478,259
,348,2023-10-27 11:44:58.68,-579,-520,-1855,51,234,31,-311,-410,99,360
,349,2023-10-27 11:44:58.69,-568,-541,-1834,54,233,32,-49,-543,494,296
,350,2023-10-27 11:44:58.70,-572,-578,-1809,59,229,42,-322,-463,141,392
,351,2023-10-27 11:44:58.71,-570,-598,-1810,57,225,64,-52,-595,543,323
,352,2023-10-27 11:44:58.72,-561,-615,-1820,27,252,89,-312,-508,196,410
,353,2023-10-27 11:44:58.73,-582,-601,-1864,6,240,101,-43,-618,575,330
,354,2023-10-27 11:44:58.74,-617,-612,-1929,-8,203,105,-303,-517,214,410
,355,2023-10-27 11:44:58.75,-610,-628,-1941,-6,170,115,-37,-600,563,318
,356,2023-10-27 11:44:58.76,-631,-665,-1924,-3,132,131,-285,-494,209,389
,357,2023-10-27 11:44:58.77,-677,-716,-1922,-19,147,151,-48,-576,528,312
,358,2023-10-27 11:44:58.78,-718,-764,-1937,-24,151,183,-303,-483,180,393
,359,2023-10-27 11:44:58.79,-754,-785,-1948,-42,165,223,-59,-562,503,310
,360,2023-10-27 11:44:58.80,-769,-753,-1906,-90,189,248,-300,-475,175,387
,361,2023-10-27 11:44:58.81,-792,-723,-1998,-154,238,249,-60,-554,494,307
,362,2023-10-27 11:44:58.82,-858,-680,-2055,-212,249,215,-283,-469,186,376
,363,2023-10-27 11:44:58.83,-865,-672,-1989,-260,275,187,-74,-565,491,319
,364,2023-10-27 11:44:58.84,-875,-656,-1976,-298,301,184,-302,-501,199,401
,365,2023-10-27 11:44:58.85,-892,-721,-2007,-342,317,195,-94,-593,499,343
,366,2023-10-27 11:44:58.86,-904,-763,-2027,-394,334,218,-294,-515,221,404
,367,2023-10-27 11:44:58.87,-925,-771,-2016,-465,361,269,-77,-586,509,331
,368,2023-10-27 11:44:58.88,-943,-729,-1999,-540,389,317,-287,-518,231,402
,369,2023-10-27 11:44:58.89,-954,-640,-2003,-597,415,337,-99,-570,471,334
,370,2023-10-27 11:44:58.90,-923,-590,-1986,-637,437,346,-297,-504,207,400
,371,2023-10-27 11:44:58.91,-920,-553,-1995,-675,457,359,-136,-557,421,346
,372,2023-10-27 11:44:58.92,-923,-548,-1993,-710,467,381,-326,-499,173,412
,373,2023-10-27 11:44:58.93,-898,-538,-1980,-725,475,424,-165,-555,390,360
,374,2023-10-27 11:44:58.94,-864,-528,-1977,-747,473,482,-327,-507,180,417
,375,2023-10-27 11:44:58.95,-869,-473,-1988,-760,467,552,-148,-557,409,352
,376,2023-10-27 11:44:58.96,-843,-425,-1974,-780,481,642,-297,-511,214,404
,377,2023-10-27 11:44:58.97,-786,-409,-1962,-795,502,717,-185,-561,376,373
,378,2023-10-27 11:44:58.98,-732,-386,-1965,-812,526,783,-340,-533,193,436
,379,2023-10-27 11:44:58.99,-675,-362,-1984,-831,519,880,-237,-616,379,426
,380,2023-10-27 11:44:59.00,-627,-295,-1982,-844,510,994,-348,-611,263,479
,381,2023-10-27 11:44:59.01,-607,-257,-1976,-799,466,1116,-242,-724,482,483
,382,2023-10-27 11:44:59.02,-608,-196,-1993,-730,401,1227,-339,-710,371,524
,383,2023-10-27 11:44:59.03,-610,-122,-2044,-685,366,1328,-238,-801,563,519
,384,2023-10-27 11:44:59.04,-618,-108,-1951,-692,343,1428,-322,-763,441,542
,385,2023-10-27 11:44:59.05,-609,-109,-1969,-671,310,1509,-208,-782,574,495
,386,2023-10-27 11:44:59.06,-601,-167,-2018,-644,200,1598,-287,-692,405,489
,387,2023-10-27 11:44:59.07,-556,-180,-2028,-564,214,1715,-163,-604,441,383
,388,2023-10-27 11:44:59.08,-544,-182,-2051,-480,73,1864,-254,-484,230,369
,389,2023-10-27 11:44:59.09,-528,-68,-1930,-470,31,2011,-235,-387,152,311
,390,2023-10-27 11:44:59.10,-538,109,-1775,-485,115,2077,-320,-342,22,331
,391,2023-10-27 11:44:59.11,-519,164,-1763,-518,176,2057,-257,-299,42,278
,392,2023-10-27 11:44:59.12,-508,179,-1918,-532,264,2002,-297,-262,-35,279
,393,2023-10-27 11:44:59.13,-397,55,-1793,-451,74,1991,-269,-120,-149,194
,394,2023-10-27 11:44:59.14,-351,54,-1938,-287,145,2047,-318,-36,-282,177
,395,2023-10-27 11:44:59.15,-302,-9,-1994,-150,-13,2148,-300,164,-464,68
,396,2023-10-27 11:44:59.16,-291,-40,-2002,-74,-16,2208,-322,226,-548,48
,397,2023-10-27 11:44:59.17,-232,-64,-2051,23,-54,2276,-312,430,-742,-59
,398,2023-10-27 11:44:59.18,-179,-85,-2096,138,-138,2352,-320,405,-725,-42
,399,2023-10-27 11:44:59.19,-179,-43,-2098,260,-209,2414,-328,547,-875,-109
,400,2023-10-27 11:44:59.20,-172,31,-2027,374,-254,2442,-323,436,-759,-56
,401,2023-10-27 11:44:59.21,-180,148,-2050,441,-268,2447,-343,540,-883,-98
,402,2023-10-27 11:44:59.22,-190,224,-2071,483,-293,2421,-331,350,-681,-9
,403,2023-10-27 11:44:59.23,-208,299,-2068,524,-335,2365,-353,291,-644,31
,404,2023-10-27 11:44:59.24,-196,299,-2101,522,-387,2299,-328,86,-414,121
,405,2023-10-27 11:44:59.25,-211,301,-2098,494,-457,2222,-373,112,-485,130
,406,2023-10-27 11:44:59.26,-279,357,-2075,467,-521,2132,-327,10,-337,158
,407,2023-10-27 11:44:59.27,-316,402,-2072,449,-594,2038,-381,111,-492,135
,408,2023-10-27 11:44:59.28,-357,360,-2035,415,-675,1917,-326,-4,-322,165
,409,2023-10-27 11:44:59.29,-386,283,-2030,346,-730,1801,-404,-30,-374,217
,410,2023-10-27 11:44:59.30,-459,242,-1994,225,-763,1705,-320,-230,-90,275
,411,2023-10-27 11:44:59.31,-414,229,-1918,63,-775,1649,-391,-386,-5,388
,412,2023-10-27 11:44:59.32,-345,218,-1770,-70,-784,1613,-310,-570,260,440
,413,2023-10-27 11:44:59.33,-317,280,-1650,-138,-756,1528,-414,-749,335,581
,414,2023-10-27 11:44:59.34,-315,371,-1518,-204,-662,1410,-319,-850,531,584
,415,2023-10-27 11:44:59.35,-319,408,-1508,-285,-510,1260,-405,-1031,626,718
,416,2023-10-27 11:44:59.36,-334,396,-1554,-362,-327,1101,-300,-1071,771,685
,417,2023-10-27 11:44:59.37,-346,324,-1619,-366,-198,957,-419,-1137,718,778
,418,2023-10-27 11:44:59.38,-342,229,-1816,-305,-154,844,-303,-1104,801,703
,419,2023-10-27 11:44:59.39,-325,146,-1724,-240,-170,776,-418,-1156,738,787
,420,2023-10-27 11:44:59.40,-338,140,-1708,-132,-283,732,-293,-1114,821,703
,421,2023-10-27 11:44:59.41,-334,141,-1695,-26,-337,704,-439,-1149,710,794
,422,2023-10-27 11:44:59.42,-444,172,-1955,31,-363,672,-291,-1113,822,702
,423,2023-10-27 11:44:59.43,-408,184,-1842,-2,-364,662,-413,-1144,731,778
,424,2023-10-27 11:44:59.44,-525,245,-1864,-26,-331,635,-258,-1097,839,677
,425,2023-10-27 11:44:59.45,-460,257,-1872,-76,-267,621,-415,-1122,707,768
,426,2023-10-27 11:44:59.46,-491,304,-1914,-143,-162,591,-272,-1092,820,682
,427,2023-10-27 11:44:59.47,-459,318,-1843,-205,-120,583,-452,-1117,665,784
,428,2023-10-27 11:44:59.48,-455,311,-1850,-273,-26,581,-281,-1098,817,689
,429,2023-10-27 11:44:59.49,-432,274,-1828,-327,27,567,-451,-1112,661,781
,430,2023-10-27 11:44:59.50,-407,288,-1771,-349,36,531,-292,-1089,797,690
,431,2023-10-27 11:44:59.51,-415,347,-1759,-346,59,483,-510,-1096,586,803
,432,2023-10-27 11:44:59.52,-431,339,-1763,-340,85,432,-344,-1075,731,709
,433,2023-10-27 11:44:59.53,-480,361,-1791,-340,135,359,-549,-1066,517,807
,434,2023-10-27 11:44:59.54,-488,351,-1817,-339,186,288,-352,-1077,725,714
,435,2023-10-27 11:44:59.55,-483,337,-1776,-323,211,248,-556,-1085,529,820
,436,2023-10-27 11:44:59.56,-467,345,-1800,-308,235,227,-346,-1087,741,716
,437,2023-10-27 11:44:59.57,-458,273,-1781,-294,260,211,-544,-1076,532,810
,438,2023-10-27 11:44:59.58,-463,304,-1803,-267,309,177,-330,-1069,739,699
,439,2023-10-27 11:44:59.59,-448,253,-1824,-238,324,149,-549,-1057,508,803
,440,2023-10-27 11:44:59.60,-405,270,-1805,-191,327,136,-333,-1081,748,707
,441,2023-10-27 11:44:59.61,-391,234,-1861,-144,323,137,-552,-1083,531,817
,442,2023-10-27 11:44:59.62,-396,254,-1849,-89,304,133,-328,-1086,758,707
,443,2023-10-27 11:44:59.63,-387,250,-1903,-26,306,143,-556,-1066,510,811
,444,2023-10-27 11:44:59.64,-369,278,-1911,3,299,148,-333,-1076,743,704
,445,2023-10-27 11:44:59.65,-359,302,-1943,15,282,143,-574,-1068,494,821
,446,2023-10-27 11:44:59.66,-347,320,-1957,7,282,137,-322,-1073,751,697
,447,2023-10-27 11:44:59.67,-326,351,-1978,-13,297,134,-538,-1053,515,795
,448,2023-10-27 11:44:59.68,-312,370,-1984,-40,305,134,-271,-1074,803,672
,449,2023-10-27 11:44:59.69,-315,390,-1989,-65,314,130,-501,-1059,558,780
,450,2023-10-27 11:44:59.70,-291,415,-1972,-98,308,118,-245,-1082,837,663
,451,2023-10-27 11:44:59.71,-288,414,-1957,-146,325,112,-491,-1056,565,773
,452,2023-10-27 11:44:59.72,-282,425,-1952,-199,317,96,-232,-1063,831,647
,453,2023-10-27 11:44:59.73,-272,433,-1978,-252,329,85,-482,-1038,556,760
,454,2023-10-27 11:44:59.74,-255,450,-1983,-306,310,81,-208,-1060,852,634
,455,2023-10-27 11:44:59.75,-276,429,-2030,-361,291,76,-463,-1042,579,752
,456,2023-10-27 11:44:59.76,-276,452,-2034,-405,263,75,-191,-1062,871,626
,457,2023-10-27 11:44:59.77,-245,449,-1992,-453,228,79,-453,-1030,577,741
,458,2023-10-27 11:44:59.78,-262,445,-2015,-504,225,80,-181,-1056,875,618
,459,2023-10-27 11:44:59.79,-242,441,-2019,-544,205,83,-452,-1025,573,738
,460,2023-10-27 11:44:59.80,-247,447,-2025,-576,187,88,-174,-1057,883,615
,461,2023-10-27 11:44:59.81,-232,448,-2004,-622,196,88,-449,-1024,575,736
,462,2023-10-27 11:44:59.82,-237,468,-2009,-667,186,83,-166,-1058,892,612
,463,2023-10-27 11:44:59.83,-227,470,-2001,-713,200,78,-438,-1021,583,729
,464,2023-10-27 11:44:59.84,-250,498,-2075,-732,192,74,-149,-1074,925,611
,465,2023-10-27 11:44:59.85,-219,510,-2160,-775,187,77,-427,-1034,607,730
,466,2023-10-27 11:44:59.86,-218,505,-2188,-793,140,80,-131,-1062,931,596
,467,2023-10-27 11:44:59.87,-215,527,-2230,-790,137,78,-409,-1013,604,711
,468,2023-10-27 11:44:59.88,-202,515,-2227,-755,149,73,-122,-1074,952,598
,469,2023-10-27 11:44:59.89,-191,487,-2236,-688,152,57,-410,-1027,617,718
,470,2023-10-27 11:44:59.90,-194,446,-2300,-594,175,45,-116,-1086,970,601
,471,2023-10-27 11:44:59.91,-178,394,-2292,-470,182,28,-397,-1012,615,704
,472,2023-10-27 11:44:59.92,-173,368,-2282,-328,218,15,-122,-1066,944,594
,473,2023-10-27 11:44:59.93,-145,331,-2274,-184,246,14,-415,-989,574,702
,474,2023-10-27 11:44:59.94,-129,319,-2263,-47,296,20,-121,-1044,923,582
,475,2023-10-27 11:44:59.95,-128,302,-2239,108,362,24,-403,-970,567,686
,476,2023-10-27 11:44:59.96,-116,268,-2200,263,448,27,-130,-1050,920,590
,477,2023-10-27 11:44:59.97,-74,224,-2136,411,539,23,-425,-986,561,705
,478,2023-10-27 11:44:59.98,-66,202,-2094,558,615,23,-140,-1052,912,596
,479,2023-10-27 11:44:59.99,-78,203,-2077,708,688,24,-414,-962,548,688
,480,2023-10-27 11:45:00.00,-63,202,-2013,859,748,27,-120,-1038,918,579
,481,2023-10-27 11:45:00.01,-66,206,-1994,1001,791,35,-418,-976,558,697
,482,2023-10-27 11:45:00.02,-65,188,-1976,1116,825,48,-147,-1066,919,606
,483,2023-10-27 11:45:00.03,-99,205,-1964,1203,832,57,-435,-984,549,709
,484,2023-10-27 11:45:00.04,-104,230,-1981,1252,814,80,-146,-1070,924,608
,485,2023-10-27 11:45:00.05,-169,205,-2032,1259,778,109,-415,-967,552,691
,486,2023-10-27 11:45:00.06,-189,161,-2102,1243,711,153,-138,-1060,922,599
,487,2023-10-27 11:45:00.07,-189,167,-2114,1209,610,213,-419,-957,538,688
,488,2023-10-27 11:45:00.08,-184,178,-2119,1162,486,285,-187,-1049,862,618
,489,2023-10-27 11:45:00.09,-171,192,-2131,1112,411,353,-467,-946,479,706
,490,2023-10-27 11:45:00.10,-150,250,-2127,1041,319,409,-237,-1072,835,654
,491,2023-10-27 11:45:00.11,-135,271,-2101,934,291,448,-503,-980,477,741
,492,2023-10-27 11:45:00.12,-100,307,-2050,823,250,472,-204,-1071,867,637
,493,2023-10-27 11:45:00.13,-56,332,-1976,730,227,479,-452,-971,519,711
,494,2023-10-27 11:45:00.14,-32,366,-1947,649,212,476,-207,-1074,867,640
,495,2023-10-27 11:45:00.15,-29,379,-1933,576,221,453,-466,-968,502,717
,496,2023-10-27 11:45:00.16,-15,363,-1921,518,221,415,-198,-1062,864,630
,497,2023-10-27 11:45:00.17,-16,360,-1922,455,234,380,-452,-971,519,711
,498,2023-10-27 11:45:00.18,-16,354,-1887,393,232,337,-195,-1081,886,638
,499,2023-10-27 11:45:00.19,-5,340,-1896,324,252,304,-450,-988,538,719
,500,2023-10-27 11:45:00.20,-24,336,-1915,258,277,271,-210,-1087,877,648
,501,2023-10-27 11:45:00.21,-25,313,-1941,191,282,256,-463,-987,524,725
,502,2023-10-27 11:45:00.22,-51,281,-2014,106,278,266,-205,-1084,879,644
,503,2023-10-27 11:45:00.23,-39,261,-2025,21,266,288,-438,-983,545,710
,504,2023-10-27 11:45:00.24,-27,276,-2036,-50,235,320,-194,-1080,886,637
,505,2023-10-27 11:45:00.25,-20,294,-2045,-120,202,350,-430,-981,551,705
,506,2023-10-27 11:45:00.26,-10,318,-2066,-189,177,373,-201,-1079,878,640
,507,2023-10-27 11:45:00.27,-15,346,-2091,-252,136,391,-429,-977,548,703
,508,2023-10-27 11:45:00.28,-13,348,-2094,-299,86,402,-199,-1079,880,639
,509,2023-10-27 11:45:00.29,10,347,-2081,-334,28,415,-417,-979,562,698
,510,2023-10-27 11:45:00.30,9,337,-2061,-368,-8,430,-192,-1084,892,638
,511,2023-10-27 11:45:00.31,16,312,-2047,-397,-23,447,-407,-978,571,692
,512,2023-10-27 11:45:00.32,22,295,-2041,-428,-43,462,-187,-1069,882,628
,513,2023-10-27 11:45:00.33,36,271,-2038,-456,-33,478,-391,-963,572,677
,514,2023-10-27 11:45:00.34,28,264,-2034,-465,-39,506,-183,-1066,883,624
,515,2023-10-27 11:45:00.35,25,217,-2049,-460,-39,542,-388,-962,574,675
,516,2023-10-27 11:45:00.36,17,172,-2074,-437,-56,594,-200,-1060,860,630
,517,2023-10-27 11:45:00.37,23,100,-2073,-408,-88,663,-394,-962,568,678
,518,2023-10-27 11:45:00.38,34,49,-2098,-358,-121,753,-191,-1080,889,635
,519,2023-10-27 11:45:00.39,55,27,-2106,-299,-158,860,-370,-975,605,672
