// Data mode  : Full
// Data quality  : High
// Acceleration sensor's range  : 16g
// Gyroscope sensor's range  : 2000dps
//
//ARTIFACT,NUM,DATE,ACC_X,ACC_Y,ACC_Z,GYRO_X,GYRO_Y,GYRO_Z,EOG_L,EOG_R,EOG_H,EOG_V
,1,2023-10-20 13:47:50.41,324,-328,-2051,41,10,298,-222,-617,395,419
,2,2023-10-20 13:47:50.42,326,-331,-2039,39,-14,285,-320,-627,307,473
,3,2023-10-20 13:47:50.43,332,-320,-2035,48,-31,273,-224,-548,324,386
,4,2023-10-20 13:47:50.44,330,-310,-2026,50,-42,260,-327,-591,264,459
,5,2023-10-20 13:47:50.45,318,-329,-2041,50,-49,248,-213,-578,365,395
,6,2023-10-20 13:47:50.46,307,-346,-2029,52,-52,240,-324,-642,318,483
,7,2023-10-20 13:47:50.47,296,-353,-2028,67,-66,235,-210,-603,393,406
,8,2023-10-20 13:47:50.48,309,-341,-2038,79,-76,237,-325,-626,301,475
,9,2023-10-20 13:47:50.49,298,-350,-2027,85,-96,233,-213,-611,398,412
,10,2023-10-20 13:47:50.50,297,-348,-2031,95,-109,224,-349,-652,303,500
,11,2023-10-20 13:47:50.51,290,-343,-2026,101,-114,216,-213,-607,394,410
,12,2023-10-20 13:47:50.52,282,-350,-2010,110,-124,214,-336,-613,277,474
,13,2023-10-20 13:47:50.53,258,-352,-2042,110,-129,201,-203,-592,389,397
,14,2023-10-20 13:47:50.54,277,-362,-2045,95,-138,194,-351,-627,276,489
,15,2023-10-20 13:47:50.55,265,-372,-2042,82,-152,189,-218,-639,421,428
,16,2023-10-20 13:47:50.56,258,-375,-2032,83,-172,180,-372,-672,300,522
,17,2023-10-20 13:47:50.57,260,-368,-2025,87,-179,170,-225,-616,391,420
,18,2023-10-20 13:47:50.58,250,-365,-2014,83,-182,160,-368,-606,238,487
,19,2023-10-20 13:47:50.59,247,-349,-2014,76,-172,152,-207,-570,363,388
,20,2023-10-20 13:47:50.60,242,-354,-2001,60,-174,143,-361,-582,221,471
,21,2023-10-20 13:47:50.61,242,-380,-2000,52,-179,130,-204,-577,373,390
,22,2023-10-20 13:47:50.62,266,-375,-1995,47,-180,123,-371,-606,235,488
,23,2023-10-20 13:47:50.63,244,-379,-1997,45,-180,121,-200,-628,428,414
,24,2023-10-20 13:47:50.64,275,-408,-1976,45,-170,118,-365,-648,283,506
,25,2023-10-20 13:47:50.65,219,-464,-1997,19,-118,132,-204,-631,427,417
,26,2023-10-20 13:47:50.66,213,-399,-2015,22,-111,160,-381,-626,245,503
,27,2023-10-20 13:47:50.67,199,-357,-2041,68,-123,156,-206,-621,415,413
,28,2023-10-20 13:47:50.68,193,-318,-2040,105,-150,121,-380,-612,232,496
,29,2023-10-20 13:47:50.69,214,-307,-2015,94,-184,76,-198,-652,454,425
,30,2023-10-20 13:47:50.70,207,-315,-2012,46,-171,26,-377,-661,284,519
,31,2023-10-20 13:47:50.71,193,-353,-1985,30,-165,-23,-188,-646,458,417
,32,2023-10-20 13:47:50.72,207,-374,-1986,45,-136,-61,-372,-611,239,491
,33,2023-10-20 13:47:50.73,206,-398,-1987,65,-115,-69,-185,-611,426,398
,34,2023-10-20 13:47:50.74,194,-382,-2041,71,-85,-78,-383,-597,214,490
,35,2023-10-20 13:47:50.75,192,-401,-2013,77,-85,-83,-196,-628,432,412
,36,2023-10-20 13:47:50.76,172,-345,-2080,61,-79,-102,-390,-622,232,506
,37,2023-10-20 13:47:50.77,189,-353,-1993,75,-88,-134,-186,-669,483,427
,38,2023-10-20 13:47:50.78,199,-331,-2008,95,-117,-182,-383,-652,269,517
,39,2023-10-20 13:47:50.79,205,-342,-2009,94,-132,-220,-191,-662,471,426
,40,2023-10-20 13:47:50.80,193,-364,-2029,73,-137,-232,-399,-626,227,512
,41,2023-10-20 13:47:50.81,204,-396,-2022,55,-115,-232,-195,-645,450,420
,42,2023-10-20 13:47:50.82,194,-392,-1999,56,-112,-243,-400,-610,210,505
,43,2023-10-20 13:47:50.83,212,-395,-1988,51,-110,-252,-196,-630,434,413
,44,2023-10-20 13:47:50.84,218,-397,-1978,42,-96,-242,-396,-595,199,495
,45,2023-10-20 13:47:50.85,202,-394,-1999,51,-80,-237,-192,-671,479,431
,46,2023-10-20 13:47:50.86,184,-373,-2002,67,-78,-250,-397,-641,244,519
,47,2023-10-20 13:47:50.87,172,-371,-2014,65,-78,-259,-197,-640,443,418
,48,2023-10-20 13:47:50.88,176,-396,-2001,70,-78,-272,-398,-581,183,489
,49,2023-10-20 13:47:50.89,181,-388,-2025,60,-80,-276,-192,-680,488,436
,50,2023-10-20 13:47:50.90,166,-393,-2029,36,-70,-276,-400,-658,258,529
,51,2023-10-20 13:47:50.91,175,-364,-2009,18,-65,-282,-185,-652,467,418
,52,2023-10-20 13:47:50.92,185,-370,-1997,4,-60,-300,-392,-569,177,480
,53,2023-10-20 13:47:50.93,175,-375,-1988,-18,-49,-318,-200,-640,440,420
,54,2023-10-20 13:47:50.94,192,-386,-1976,-36,-25,-326,-414,-612,198,513
,55,2023-10-20 13:47:50.95,186,-385,-2001,-46,15,-335,-206,-702,496,454
,56,2023-10-20 13:47:50.96,190,-396,-2015,-52,33,-340,-404,-636,232,520
,57,2023-10-20 13:47:50.97,184,-405,-1996,-77,64,-346,-196,-663,467,429
,58,2023-10-20 13:47:50.98,177,-414,-2007,-80,76,-348,-396,-583,187,489
,59,2023-10-20 13:47:50.99,192,-415,-2030,-87,69,-341,-200,-590,390,395
,60,2023-10-20 13:47:51.00,192,-403,-2021,-106,61,-341,-404,-522,118,463
,61,2023-10-20 13:47:51.01,199,-402,-2019,-134,53,-347,-196,-570,374,383
,62,2023-10-20 13:47:51.02,191,-424,-1999,-154,54,-350,-392,-523,131,457
,63,2023-10-20 13:47:51.03,219,-429,-1984,-157,58,-339,-195,-535,340,365
,64,2023-10-20 13:47:51.04,225,-430,-1985,-161,69,-320,-393,-477,84,435
,65,2023-10-20 13:47:51.05,219,-445,-1997,-167,84,-302,-192,-518,326,355
,66,2023-10-20 13:47:51.06,224,-440,-1988,-172,98,-288,-380,-476,96,428
,67,2023-10-20 13:47:51.07,221,-409,-1996,-160,111,-273,-182,-559,377,370
,68,2023-10-20 13:47:51.08,206,-364,-2033,-141,117,-265,-373,-506,133,439
,69,2023-10-20 13:47:51.09,222,-371,-2055,-130,104,-238,-200,-526,326,363
,70,2023-10-20 13:47:51.10,235,-359,-2021,-119,89,-225,-393,-464,71,428
,71,2023-10-20 13:47:51.11,220,-349,-2027,-88,65,-225,-185,-526,341,355
,72,2023-10-20 13:47:51.12,227,-375,-2037,-81,55,-210,-368,-489,121,428
,73,2023-10-20 13:47:51.13,241,-415,-2013,-62,40,-189,-180,-563,383,371
,74,2023-10-20 13:47:51.14,242,-425,-2036,-38,36,-156,-364,-511,147,437
,75,2023-10-20 13:47:51.15,240,-431,-2053,-41,42,-109,-197,-609,412,403
,76,2023-10-20 13:47:51.16,225,-435,-2049,-30,30,-66,-372,-529,157,450
,77,2023-10-20 13:47:51.17,225,-456,-2061,-20,20,-22,-192,-552,360,372
,78,2023-10-20 13:47:51.18,230,-459,-2058,-21,10,42,-355,-469,114,412
,79,2023-10-20 13:47:51.19,223,-444,-2049,-17,6,106,-190,-580,390,385
,80,2023-10-20 13:47:51.20,217,-416,-2027,-21,9,158,-356,-520,164,438
,81,2023-10-20 13:47:51.21,214,-394,-2017,-37,17,203,-203,-582,379,392
,82,2023-10-20 13:47:51.22,215,-381,-2011,-46,20,241,-363,-491,128,427
,83,2023-10-20 13:47:51.23,228,-370,-2004,-57,23,268,-201,-554,353,377
,84,2023-10-20 13:47:51.24,219,-362,-1994,-69,30,288,-349,-488,139,418
,85,2023-10-20 13:47:51.25,238,-371,-1979,-70,34,305,-207,-569,362,388
,86,2023-10-20 13:47:51.26,232,-358,-2011,-63,35,323,-354,-485,131,419
,87,2023-10-20 13:47:51.27,222,-341,-2020,-74,45,334,-225,-548,323,386
,88,2023-10-20 13:47:51.28,214,-349,-2024,-85,52,343,-355,-474,119,414
,89,2023-10-20 13:47:51.29,213,-351,-2033,-87,43,352,-205,-571,366,388
,90,2023-10-20 13:47:51.30,224,-338,-2017,-95,51,364,-329,-496,167,412
,91,2023-10-20 13:47:51.31,238,-327,-2012,-97,49,373,-211,-548,337,379
,92,2023-10-20 13:47:51.32,220,-315,-2034,-102,45,377,-345,-465,120,405
,93,2023-10-20 13:47:51.33,224,-306,-2035,-107,36,370,-240,-538,298,389
,94,2023-10-20 13:47:51.34,234,-300,-2030,-117,36,359,-348,-461,113,404
,95,2023-10-20 13:47:51.35,229,-298,-2037,-119,38,351,-226,-533,307,379
,96,2023-10-20 13:47:51.36,240,-291,-2024,-120,44,343,-324,-446,122,385
,97,2023-10-20 13:47:51.37,251,-295,-2018,-120,45,332,-231,-521,290,376
,98,2023-10-20 13:47:51.38,235,-312,-2024,-124,59,326,-328,-460,132,394
,99,2023-10-20 13:47:51.39,213,-333,-2068,-116,50,329,-239,-549,310,394
,100,2023-10-20 13:47:51.40,210,-240,-2046,-79,25,304,-326,-480,154,403
,101,2023-10-20 13:47:51.41,218,-224,-2027,-29,-3,245,-230,-599,369,414
,102,2023-10-20 13:47:51.42,225,-236,-2001,-5,-13,179,-312,-544,232,428
,103,2023-10-20 13:47:51.43,228,-213,-1999,22,-22,116,-237,-663,426,450
,104,2023-10-20 13:47:51.44,236,-227,-2011,21,-23,72,-313,-549,236,431
,105,2023-10-20 13:47:51.45,246,-274,-2028,-15,-20,43,-245,-597,352,421
,106,2023-10-20 13:47:51.46,239,-292,-2028,-58,-12,30,-306,-531,225,418
,107,2023-10-20 13:47:51.47,243,-331,-2036,-76,-10,41,-254,-691,437,472
,108,2023-10-20 13:47:51.48,239,-350,-2033,-58,-9,61,-308,-585,277,446
,109,2023-10-20 13:47:51.49,237,-342,-2045,-29,-6,81,-254,-615,361,434
,110,2023-10-20 13:47:51.50,235,-309,-2041,-2,-8,90,-296,-514,218,405
,111,2023-10-20 13:47:51.51,226,-289,-2047,17,-16,95,-258,-635,377,446
,112,2023-10-20 13:47:51.52,224,-270,-2049,27,-25,87,-288,-556,268,422
,113,2023-10-20 13:47:51.53,220,-239,-2036,27,-39,73,-249,-638,389,443
,114,2023-10-20 13:47:51.54,202,-246,-2047,16,-47,57,-281,-525,244,403
,115,2023-10-20 13:47:51.55,199,-250,-2039,5,-51,42,-243,-564,321,403
,116,2023-10-20 13:47:51.56,196,-256,-2039,-4,-51,30,-268,-475,207,371
,117,2023-10-20 13:47:51.57,200,-266,-2034,-6,-53,17,-247,-569,322,408
,118,2023-10-20 13:47:51.58,200,-297,-2035,3,-57,11,-268,-513,245,390
,119,2023-10-20 13:47:51.59,211,-305,-2012,16,-51,1,-261,-605,344,433
,120,2023-10-20 13:47:51.60,195,-301,-2008,28,-25,-5,-272,-490,218,381
,121,2023-10-20 13:47:51.61,196,-293,-2029,44,-11,4,-282,-511,229,396
,122,2023-10-20 13:47:51.62,190,-274,-2035,52,-18,15,-271,-468,197,369
,123,2023-10-20 13:47:51.63,194,-267,-2043,43,-31,8,-269,-589,320,429
,124,2023-10-20 13:47:51.64,225,-294,-2034,9,-36,3,-258,-507,249,382
,125,2023-10-20 13:47:51.65,228,-319,-2022,-16,-21,10,-281,-535,254,408
,126,2023-10-20 13:47:51.66,221,-328,-2012,-12,-14,29,-256,-504,248,380
,127,2023-10-20 13:47:51.67,216,-342,-2050,6,-7,57,-268,-644,376,456
,128,2023-10-20 13:47:51.68,212,-322,-2078,35,-21,84,-243,-589,346,416
,129,2023-10-20 13:47:51.69,216,-278,-2056,68,-30,82,-280,-646,366,463
,130,2023-10-20 13:47:51.70,193,-233,-2056,102,-48,63,-248,-576,328,412
,131,2023-10-20 13:47:51.71,212,-245,-2066,122,-67,41,-295,-662,367,478
,132,2023-10-20 13:47:51.72,223,-261,-2042,112,-80,15,-240,-617,377,428
,133,2023-10-20 13:47:51.73,217,-290,-2021,93,-84,-5,-282,-693,411,487
,134,2023-10-20 13:47:51.74,216,-322,-2017,84,-92,-12,-231,-596,365,413
,135,2023-10-20 13:47:51.75,205,-337,-2032,90,-98,-6,-306,-617,311,461
,136,2023-10-20 13:47:51.76,186,-347,-2033,94,-114,8,-248,-538,290,393
,137,2023-10-20 13:47:51.77,195,-328,-2037,91,-116,12,-310,-592,282,451
,138,2023-10-20 13:47:51.78,191,-280,-2088,69,-97,13,-232,-530,298,381
,139,2023-10-20 13:47:51.79,182,-332,-2007,62,-83,16,-305,-585,280,445
,140,2023-10-20 13:47:51.80,167,-295,-2025,67,-81,13,-232,-524,292,378
,141,2023-10-20 13:47:51.81,167,-296,-2021,64,-82,17,-315,-576,261,445
,142,2023-10-20 13:47:51.82,167,-302,-2015,56,-77,6,-227,-534,307,380
,143,2023-10-20 13:47:51.83,175,-302,-1999,46,-68,-5,-320,-593,273,456
,144,2023-10-20 13:47:51.84,171,-306,-2006,33,-51,-10,-229,-547,318,388
,145,2023-10-20 13:47:51.85,184,-307,-2000,30,-35,-12,-331,-583,252,457
,146,2023-10-20 13:47:51.86,176,-321,-2011,35,-22,-13,-222,-526,304,374
,147,2023-10-20 13:47:51.87,165,-318,-2025,35,-13,-14,-330,-562,232,446
,148,2023-10-20 13:47:51.88,181,-316,-2024,38,-9,-13,-216,-533,317,374
,149,2023-10-20 13:47:51.89,181,-323,-2039,38,-10,-16,-342,-587,245,464
,150,2023-10-20 13:47:51.90,172,-329,-2038,31,-12,-15,-220,-549,329,384
,151,2023-10-20 13:47:51.91,174,-332,-2038,27,-10,-10,-347,-580,233,463
,152,2023-10-20 13:47:51.92,174,-329,-2029,26,-10,-4,-217,-540,323,378
,153,2023-10-20 13:47:51.93,166,-323,-2025,26,-15,2,-341,-558,217,449
,154,2023-10-20 13:47:51.94,187,-331,-2024,27,-14,5,-212,-562,350,387
,155,2023-10-20 13:47:51.95,173,-330,-2027,28,-10,6,-352,-602,250,477
,156,2023-10-20 13:47:51.96,182,-332,-2023,29,-6,11,-208,-541,333,374
,157,2023-10-20 13:47:51.97,171,-342,-2014,29,-8,14,-349,-543,194,446
,158,2023-10-20 13:47:51.98,166,-349,-2031,25,1,25,-199,-549,350,374
,159,2023-10-20 13:47:51.99,164,-336,-2041,36,-2,28,-356,-614,258,485
,160,2023-10-20 13:47:52.00,171,-334,-2046,49,-15,17,-195,-578,383,386
,161,2023-10-20 13:47:52.01,159,-306,-2039,75,-26,-6,-355,-572,217,463
,162,2023-10-20 13:47:52.02,159,-283,-2020,110,-39,-47,-194,-583,389,388
,163,2023-10-20 13:47:52.03,157,-296,-2039,110,-41,-83,-358,-622,264,490
,164,2023-10-20 13:47:52.04,171,-272,-2030,85,-55,-114,-198,-565,367,381
,165,2023-10-20 13:47:52.05,189,-287,-2028,42,-89,-128,-372,-548,176,460
,166,2023-10-20 13:47:52.06,190,-336,-2012,-16,-87,-135,-202,-592,390,397
,167,2023-10-20 13:47:52.07,177,-402,-2023,-50,-61,-114,-368,-617,249,492
,168,2023-10-20 13:47:52.08,191,-422,-2010,-60,-17,-69,-199,-583,384,391
,169,2023-10-20 13:47:52.09,163,-399,-2018,-30,-4,-28,-379,-558,179,468
,170,2023-10-20 13:47:52.10,175,-374,-2030,10,-10,3,-196,-557,361,376
,171,2023-10-20 13:47:52.11,167,-339,-2027,30,-23,13,-372,-568,196,470
,172,2023-10-20 13:47:52.12,185,-313,-2024,27,-32,16,-188,-557,369,372
,173,2023-10-20 13:47:52.13,172,-306,-2030,17,-29,11,-371,-542,171,456
,174,2023-10-20 13:47:52.14,172,-300,-2028,13,-17,-2,-189,-592,403,390
,175,2023-10-20 13:47:52.15,160,-314,-2033,21,-16,-11,-382,-616,234,499
,176,2023-10-20 13:47:52.16,153,-311,-2041,30,-11,-12,-199,-679,480,439
,177,2023-10-20 13:47:52.17,140,-299,-2050,42,-14,-20,-395,-665,270,530
,178,2023-10-20 13:47:52.18,154,-270,-2031,54,-24,-43,-198,-653,455,425
,179,2023-10-20 13:47:52.19,168,-289,-2039,56,-38,-74,-394,-609,215,501
,180,2023-10-20 13:47:52.20,161,-301,-2037,44,-42,-91,-187,-552,365,369
,181,2023-10-20 13:47:52.21,167,-319,-2024,33,-31,-96,-385,-505,120,445
,182,2023-10-20 13:47:52.22,152,-315,-2019,42,-25,-103,-190,-413,223,301
,183,2023-10-20 13:47:52.23,159,-348,-2005,53,-27,-99,-393,-382,-11,387
,184,2023-10-20 13:47:52.24,144,-337,-2025,60,-29,-100,-190,-500,310,345
,185,2023-10-20 13:47:52.25,155,-348,-2021,69,-38,-99,-386,-553,167,469
,186,2023-10-20 13:47:52.26,151,-340,-2025,67,-36,-98,-198,-624,426,411
,187,2023-10-20 13:47:52.27,164,-329,-2034,62,-36,-97,-402,-586,184,494
,188,2023-10-20 13:47:52.28,151,-340,-2031,50,-28,-100,-185,-591,406,388
,189,2023-10-20 13:47:52.29,156,-283,-2154,25,-17,-97,-381,-552,171,466
,190,2023-10-20 13:47:52.30,167,-333,-1987,-26,6,-91,-168,-403,235,285
,191,2023-10-20 13:47:52.31,136,-373,-2006,-12,23,-97,-372,-344,-28,358
,192,2023-10-20 13:47:52.32,139,-344,-2023,0,-7,-94,-188,-486,298,337
,193,2023-10-20 13:47:52.33,141,-344,-1988,2,-27,-100,-400,-542,142,471
,194,2023-10-20 13:47:52.34,142,-346,-2022,11,-54,-103,-179,-539,360,359
,195,2023-10-20 13:47:52.35,154,-346,-2018,8,-51,-99,-372,-479,107,425
,196,2023-10-20 13:47:52.36,155,-339,-1993,1,-35,-92,-168,-461,293,314
,197,2023-10-20 13:47:52.37,160,-362,-2016,-7,-24,-78,-378,-439,61,408
,198,2023-10-20 13:47:52.38,151,-343,-2014,-9,-17,-78,-186,-535,349,360
,199,2023-10-20 13:47:52.39,118,-360,-2059,-4,-6,-65,-391,-529,138,460
,200,2023-10-20 13:47:52.40,138,-281,-2072,26,1,-91,-182,-539,357,360
,201,2023-10-20 13:47:52.41,166,-182,-2099,48,-7,-147,-376,-478,102,427
,202,2023-10-20 13:47:52.42,151,-257,-1995,36,-13,-209,-175,-486,311,330
,203,2023-10-20 13:47:52.43,175,-289,-1964,24,-12,-256,-379,-457,78,418
,204,2023-10-20 13:47:52.44,150,-298,-2030,10,-18,-285,-183,-560,377,371
,205,2023-10-20 13:47:52.45,166,-331,-2039,-17,-19,-295,-385,-538,153,461
,206,2023-10-20 13:47:52.46,175,-375,-2018,-36,-10,-280,-190,-617,427,403
,207,2023-10-20 13:47:52.47,186,-413,-2039,-38,5,-254,-388,-542,154,465
,208,2023-10-20 13:47:52.48,155,-359,-2041,-11,13,-239,-191,-508,317,349
,209,2023-10-20 13:47:52.49,158,-343,-2074,6,-8,-218,-375,-433,58,404
,210,2023-10-20 13:47:52.50,173,-340,-2064,1,-17,-200,-183,-497,314,340
,211,2023-10-20 13:47:52.51,165,-309,-2055,9,-26,-211,-374,-463,89,418
,212,2023-10-20 13:47:52.52,160,-299,-2040,18,-41,-223,-200,-509,309,354
,213,2023-10-20 13:47:52.53,155,-310,-2047,10,-46,-225,-389,-452,63,420
,214,2023-10-20 13:47:52.54,139,-302,-2052,-11,-35,-231,-201,-493,292,347
,215,2023-10-20 13:47:52.55,145,-304,-2043,-18,-36,-230,-392,-493,101,442
,216,2023-10-20 13:47:52.56,148,-321,-2021,-8,-33,-240,-230,-744,514,487
,217,2023-10-20 13:47:52.57,157,-334,-2011,-1,-25,-249,-389,-730,341,559
,218,2023-10-20 13:47:52.58,149,-340,-1999,8,-10,-256,-195,-922,727,558
,219,2023-10-20 13:47:52.59,166,-345,-2001,30,6,-265,-355,-801,446,578
,220,2023-10-20 13:47:52.60,161,-350,-2015,52,25,-268,-188,-891,703,539
,221,2023-10-20 13:47:52.61,158,-341,-2015,72,38,-271,-362,-755,393,558
,222,2023-10-20 13:47:52.62,163,-325,-2027,86,43,-278,-222,-897,675,559
,223,2023-10-20 13:47:52.63,146,-320,-2037,88,36,-280,-382,-750,368,566
,224,2023-10-20 13:47:52.64,156,-295,-2033,83,23,-296,-227,-725,498,476
,225,2023-10-20 13:47:52.65,162,-290,-2041,75,-1,-319,-371,-549,178,460
,226,2023-10-20 13:47:52.66,171,-297,-2038,52,-22,-335,-209,-601,392,405
,227,2023-10-20 13:47:52.67,154,-331,-2037,21,-26,-337,-350,-467,117,408
,228,2023-10-20 13:47:52.68,191,-347,-2037,-9,-28,-331,-224,-371,147,297
,229,2023-10-20 13:47:52.69,184,-365,-2007,-28,-22,-332,-362,-337,-25,349
,230,2023-10-20 13:47:52.70,187,-322,-2043,-28,-10,-322,-238,-589,351,413
,231,2023-10-20 13:47:52.71,185,-375,-2009,-31,3,-310,-358,-593,235,475
,232,2023-10-20 13:47:52.72,190,-343,-2035,-29,19,-293,-230,-722,492,476
,233,2023-10-20 13:47:52.73,191,-334,-2032,-35,25,-283,-346,-610,264,478
,234,2023-10-20 13:47:52.74,177,-330,-2039,-53,35,-281,-231,-684,453,457
,235,2023-10-20 13:47:52.75,186,-333,-2033,-61,42,-278,-348,-565,217,456
,236,2023-10-20 13:47:52.76,184,-337,-2033,-52,27,-269,-237,-640,403,438
,237,2023-10-20 13:47:52.77,175,-331,-2037,-41,14,-263,-339,-546,207,442
,238,2023-10-20 13:47:52.78,183,-322,-2038,-34,4,-260,-239,-674,435,456
,239,2023-10-20 13:47:52.79,181,-340,-2010,-45,6,-269,-332,-595,263,463
,240,2023-10-20 13:47:52.80,197,-341,-1987,-36,8,-276,-240,-679,439,459
,241,2023-10-20 13:47:52.81,225,-342,-2013,-20,14,-265,-338,-565,227,451
,242,2023-10-20 13:47:52.82,199,-342,-2009,-13,36,-257,-258,-633,375,445
,243,2023-10-20 13:47:52.83,224,-315,-2004,-21,57,-244,-334,-540,206,437
,244,2023-10-20 13:47:52.84,231,-305,-2007,-40,78,-243,-255,-634,379,444
,245,2023-10-20 13:47:52.85,205,-328,-1985,-34,62,-257,-325,-557,232,441
,246,2023-10-20 13:47:52.86,225,-309,-1995,-27,64,-255,-264,-671,407,467
,247,2023-10-20 13:47:52.87,230,-316,-2005,-21,50,-253,-329,-632,303,480
,248,2023-10-20 13:47:52.88,236,-323,-1992,-2,48,-256,-272,-820,548,546
,249,2023-10-20 13:47:52.89,222,-315,-2007,16,50,-253,-329,-734,405,531
,250,2023-10-20 13:47:52.90,237,-326,-2019,21,52,-246,-280,-821,541,550
,251,2023-10-20 13:47:52.91,230,-324,-2032,24,61,-237,-330,-616,286,473
,252,2023-10-20 13:47:52.92,221,-310,-2072,28,52,-226,-283,-562,279,422
,253,2023-10-20 13:47:52.93,247,-308,-2043,11,50,-213,-324,-448,124,386
,254,2023-10-20 13:47:52.94,237,-281,-2059,-10,55,-209,-293,-560,267,426
,255,2023-10-20 13:47:52.95,241,-283,-2058,-29,53,-210,-320,-517,197,418
,256,2023-10-20 13:47:52.96,236,-270,-2035,-49,57,-208,-286,-637,351,461
,257,2023-10-20 13:47:52.97,243,-270,-2040,-64,53,-198,-303,-561,258,432
,258,2023-10-20 13:47:52.98,250,-268,-2031,-75,43,-199,-283,-667,384,475
,259,2023-10-20 13:47:52.99,257,-272,-2008,-72,43,-200,-292,-533,241,412
,260,2023-10-20 13:47:53.00,255,-301,-2006,-63,34,-189,-279,-540,261,409
,261,2023-10-20 13:47:53.01,262,-301,-2000,-45,28,-177,-289,-449,160,369
,262,2023-10-20 13:47:53.02,250,-296,-1993,-24,33,-158,-292,-549,257,420
,263,2023-10-20 13:47:53.03,247,-290,-2015,-10,37,-139,-287,-526,239,406
,264,2023-10-20 13:47:53.04,238,-301,-2018,0,35,-119,-291,-653,362,472
,265,2023-10-20 13:47:53.05,243,-312,-2032,9,22,-100,-280,-554,274,417
,266,2023-10-20 13:47:53.06,225,-305,-2039,7,20,-78,-295,-587,292,441
,267,2023-10-20 13:47:53.07,227,-303,-2068,1,25,-52,-273,-500,227,386
,268,2023-10-20 13:47:53.08,227,-291,-2071,0,21,-35,-293,-581,288,437
,269,2023-10-20 13:47:53.09,223,-288,-2090,-4,25,-27,-265,-504,239,384
,270,2023-10-20 13:47:53.10,229,-265,-2082,6,32,-29,-303,-562,259,432
,271,2023-10-20 13:47:53.11,236,-247,-2063,40,39,-55,-265,-505,240,385
,272,2023-10-20 13:47:53.12,246,-257,-2055,44,36,-71,-305,-588,283,446
,273,2023-10-20 13:47:53.13,234,-241,-2056,21,36,-93,-257,-479,222,368
,274,2023-10-20 13:47:53.14,266,-258,-2044,4,27,-109,-307,-498,191,402
,275,2023-10-20 13:47:53.15,255,-303,-2035,-7,14,-106,-254,-480,226,367
,276,2023-10-20 13:47:53.16,257,-329,-2026,-21,16,-75,-310,-605,295,457
,277,2023-10-20 13:47:53.17,252,-360,-1994,-18,28,-28,-251,-555,304,403
,278,2023-10-20 13:47:53.18,251,-313,-2047,-6,32,19,-320,-592,272,456
,279,2023-10-20 13:47:53.19,251,-306,-2028,8,30,48,-242,-550,308,396
,280,2023-10-20 13:47:53.20,246,-296,-2021,24,20,66,-320,-646,326,483
,281,2023-10-20 13:47:53.21,243,-280,-2007,36,8,79,-243,-542,299,392
,282,2023-10-20 13:47:53.22,253,-277,-2006,52,3,77,-332,-539,207,435
,283,2023-10-20 13:47:53.23,234,-277,-2007,74,-13,81,-246,-438,192,342
,284,2023-10-20 13:47:53.24,245,-270,-1999,90,-25,83,-338,-482,144,410
,285,2023-10-20 13:47:53.25,240,-259,-2009,93,-26,78,-245,-459,214,352
,286,2023-10-20 13:47:53.26,248,-256,-2016,88,-21,65,-345,-533,188,439
,287,2023-10-20 13:47:53.27,244,-265,-2039,83,-6,56,-242,-478,236,360
,288,2023-10-20 13:47:53.28,245,-264,-2040,83,0,48,-346,-514,168,430
,289,2023-10-20 13:47:53.29,258,-287,-2030,89,8,38,-236,-455,219,345
,290,2023-10-20 13:47:53.30,243,-290,-2038,91,23,33,-348,-489,141,418
,291,2023-10-20 13:47:53.31,248,-291,-2042,105,33,29,-230,-489,259,359
,292,2023-10-20 13:47:53.32,256,-285,-2044,117,34,24,-352,-558,206,455
,293,2023-10-20 13:47:53.33,247,-271,-2037,123,38,19,-235,-527,292,381
,294,2023-10-20 13:47:53.34,251,-270,-2032,127,40,5,-364,-558,194,461
,295,2023-10-20 13:47:53.35,253,-292,-2023,123,43,-4,-232,-534,302,383
,296,2023-10-20 13:47:53.36,260,-286,-2019,119,48,-5,-364,-568,204,466
,297,2023-10-20 13:47:53.37,254,-299,-2014,114,50,-5,-227,-525,298,376
,298,2023-10-20 13:47:53.38,260,-302,-2023,100,57,1,-365,-550,185,457
,299,2023-10-20 13:47:53.39,256,-293,-2030,89,49,4,-225,-539,314,382
,300,2023-10-20 13:47:53.40,270,-284,-2028,76,48,4,-370,-578,208,474
,301,2023-10-20 13:47:53.41,267,-302,-2024,53,35,12,-222,-545,323,383
,302,2023-10-20 13:47:53.42,268,-326,-2037,46,32,17,-370,-554,184,462
,303,2023-10-20 13:47:53.43,260,-304,-2039,38,27,24,-219,-565,346,392
,304,2023-10-20 13:47:53.44,273,-307,-2029,28,18,31,-376,-589,213,482
,305,2023-10-20 13:47:53.45,268,-306,-2036,27,13,32,-220,-552,332,386
,306,2023-10-20 13:47:53.46,270,-300,-2049,25,5,32,-385,-557,172,471
,307,2023-10-20 13:47:53.47,249,-304,-2058,30,-2,32,-226,-531,305,378
,308,2023-10-20 13:47:53.48,238,-246,-2059,54,-8,4,-391,-544,153,467
,309,2023-10-20 13:47:53.49,247,-245,-2034,82,-17,-31,-225,-559,334,392
,310,2023-10-20 13:47:53.50,239,-250,-2022,75,-30,-61,-393,-580,187,486
,311,2023-10-20 13:47:53.51,247,-266,-2014,57,-45,-80,-222,-565,343,393
,312,2023-10-20 13:47:53.52,256,-299,-2001,43,-57,-101,-394,-558,164,476
,313,2023-10-20 13:47:53.53,287,-336,-1985,19,-47,-105,-216,-493,277,354
,314,2023-10-20 13:47:53.54,261,-416,-2007,-20,-14,-59,-392,-477,85,434
,315,2023-10-20 13:47:53.55,273,-425,-2028,-28,21,14,-218,-500,282,359
,316,2023-10-20 13:47:53.56,260,-359,-2013,1,40,52,-403,-534,131,468
,317,2023-10-20 13:47:53.57,265,-332,-2033,16,49,83,-222,-572,350,397
,318,2023-10-20 13:47:53.58,257,-325,-2004,23,37,90,-400,-581,181,490
,319,2023-10-20 13:47:53.59,254,-331,-2066,30,31,91,-209,-540,331,374
,320,2023-10-20 13:47:53.60,256,-299,-2043,9,23,108,-400,-501,101,450
,321,2023-10-20 13:47:53.61,229,-292,-2028,1,20,105,-218,-495,277,356
,322,2023-10-20 13:47:53.62,238,-284,-2034,-6,6,93,-415,-500,85,457
,323,2023-10-20 13:47:53.63,251,-307,-2013,-13,-3,70,-222,-615,393,418
,324,2023-10-20 13:47:53.64,252,-334,-1989,-8,11,52,-406,-636,230,521
,325,2023-10-20 13:47:53.65,253,-342,-1995,12,57,52,-214,-589,375,401
,326,2023-10-20 13:47:53.66,237,-322,-2004,35,83,54,-414,-519,105,466
,327,2023-10-20 13:47:53.67,218,-324,-2001,55,80,45,-219,-553,334,386
,328,2023-10-20 13:47:53.68,241,-292,-2051,43,70,31,-421,-556,135,488
,329,2023-10-20 13:47:53.69,242,-290,-2045,13,75,35,-216,-456,240,336
,330,2023-10-20 13:47:53.70,252,-310,-1987,-13,80,39,-406,-407,1,406
,331,2023-10-20 13:47:53.71,252,-343,-1982,-22,89,42,-204,-551,347,377
,332,2023-10-20 13:47:53.72,272,-319,-2008,-32,106,44,-412,-600,188,506
,333,2023-10-20 13:47:53.73,286,-326,-1994,-42,118,48,-204,-637,433,420
,334,2023-10-20 13:47:53.74,286,-313,-1994,-36,129,47,-406,-573,167,489
,335,2023-10-20 13:47:53.75,306,-304,-2001,-31,130,55,-210,-568,358,389
,336,2023-10-20 13:47:53.76,300,-306,-2006,-40,146,62,-415,-520,105,467
,337,2023-10-20 13:47:53.77,301,-297,-2025,-40,157,61,-210,-521,311,365
,338,2023-10-20 13:47:53.78,319,-286,-2023,-25,155,58,-413,-483,70,448
,339,2023-10-20 13:47:53.79,335,-267,-2040,-11,157,42,-211,-514,303,362
,340,2023-10-20 13:47:53.80,332,-280,-2016,-1,141,21,-418,-493,75,455
,341,2023-10-20 13:47:53.81,344,-262,-2016,-3,149,3,-211,-560,349,385
,342,2023-10-20 13:47:53.82,335,-283,-2024,14,148,-6,-412,-525,113,468
,343,2023-10-20 13:47:53.83,317,-300,-2040,34,138,-15,-208,-548,340,378
,344,2023-10-20 13:47:53.84,310,-284,-2054,39,133,-26,-409,-504,95,456
,345,2023-10-20 13:47:53.85,314,-300,-2034,43,121,-30,-216,-574,358,395
,346,2023-10-20 13:47:53.86,315,-324,-2022,61,108,-35,-415,-538,123,476
,347,2023-10-20 13:47:53.87,313,-298,-2028,84,100,-45,-214,-582,368,398
,348,2023-10-20 13:47:53.88,303,-283,-2035,100,87,-59,-403,-524,121,463
,349,2023-10-20 13:47:53.89,313,-292,-2027,125,68,-88,-213,-605,392,409
,350,2023-10-20 13:47:53.90,308,-309,-2009,151,49,-119,-406,-552,146,479
,351,2023-10-20 13:47:53.91,310,-341,-1995,166,45,-133,-215,-573,358,394
,352,2023-10-20 13:47:53.92,319,-344,-1994,172,39,-140,-406,-499,93,452
,353,2023-10-20 13:47:53.93,315,-369,-2010,149,36,-112,-216,-571,355,393
,354,2023-10-20 13:47:53.94,322,-411,-2024,101,50,-69,-392,-515,123,453
,355,2023-10-20 13:47:53.95,294,-402,-2040,108,48,-40,-212,-579,367,395
,356,2023-10-20 13:47:53.96,313,-372,-2052,104,38,-6,-398,-526,128,462
,357,2023-10-20 13:47:53.97,300,-360,-2027,98,20,14,-220,-639,419,429
,358,2023-10-20 13:47:53.98,297,-343,-2022,88,9,14,-396,-563,167,479
,359,2023-10-20 13:47:53.99,305,-346,-2036,74,-2,29,-219,-585,366,402
,360,2023-10-20 13:47:54.00,316,-367,-2027,50,-15,42,-392,-496,104,444
,361,2023-10-20 13:47:54.01,310,-369,-2030,31,-18,50,-215,-585,370,400
,362,2023-10-20 13:47:54.02,316,-370,-2048,2,-21,78,-386,-525,139,455
,363,2023-10-20 13:47:54.03,318,-358,-2053,-28,-33,104,-217,-565,348,391
,364,2023-10-20 13:47:54.04,313,-352,-2039,-53,-46,108,-386,-491,105,438
,365,2023-10-20 13:47:54.05,302,-355,-2041,-68,-49,112,-223,-575,352,399
,366,2023-10-20 13:47:54.06,287,-344,-2056,-74,-60,128,-380,-491,111,435
,367,2023-10-20 13:47:54.07,279,-333,-2048,-84,-80,135,-226,-487,261,356
,368,2023-10-20 13:47:54.08,279,-324,-2039,-88,-103,137,-377,-412,35,394
,369,2023-10-20 13:47:54.09,303,-329,-2016,-96,-119,131,-233,-480,247,356
,370,2023-10-20 13:47:54.10,288,-323,-2009,-104,-108,131,-375,-441,66,408
,371,2023-10-20 13:47:54.11,294,-314,-2002,-98,-89,129,-226,-546,320,386
,372,2023-10-20 13:47:54.12,291,-309,-2001,-68,-82,119,-358,-495,137,426
,373,2023-10-20 13:47:54.13,284,-262,-2018,-63,-74,103,-230,-598,368,414
,374,2023-10-20 13:47:54.14,284,-252,-2050,-74,-57,86,-360,-503,143,431
,375,2023-10-20 13:47:54.15,287,-269,-2035,-65,-62,71,-236,-518,282,377
,376,2023-10-20 13:47:54.16,296,-307,-1982,-39,-69,49,-359,-435,76,397
,377,2023-10-20 13:47:54.17,282,-308,-2010,-13,-73,36,-234,-525,291,379
,378,2023-10-20 13:47:54.18,287,-302,-2009,-3,-79,36,-348,-448,100,398
,379,2023-10-20 13:47:54.19,293,-310,-1994,8,-74,39,-239,-489,250,364
,380,2023-10-20 13:47:54.20,294,-316,-2001,30,-71,35,-343,-393,50,368
,381,2023-10-20 13:47:54.21,280,-307,-2009,38,-59,33,-241,-417,176,329
,382,2023-10-20 13:47:54.22,300,-314,-2003,48,-56,35,-336,-361,25,348
,383,2023-10-20 13:47:54.23,294,-333,-1992,75,-58,26,-241,-473,232,357
,384,2023-10-20 13:47:54.24,294,-333,-2003,103,-58,23,-330,-417,87,373
,385,2023-10-20 13:47:54.25,285,-331,-2012,115,-61,27,-243,-484,241,363
,386,2023-10-20 13:47:54.26,278,-334,-2016,120,-71,23,-323,-374,51,348
,387,2023-10-20 13:47:54.27,267,-336,-2016,122,-82,15,-246,-373,127,309
,388,2023-10-20 13:47:54.28,270,-362,-2009,120,-85,12,-317,-332,15,324
,389,2023-10-20 13:47:54.29,265,-368,-2002,111,-88,15,-247,-477,230,362
,390,2023-10-20 13:47:54.30,269,-374,-2015,102,-88,18,-317,-411,94,364
,391,2023-10-20 13:47:54.31,259,-376,-2023,92,-89,23,-254,-441,187,347
,392,2023-10-20 13:47:54.32,240,-384,-2036,77,-90,28,-310,-380,70,345
,393,2023-10-20 13:47:54.33,236,-389,-2041,68,-94,34,-251,-516,265,383
,394,2023-10-20 13:47:54.34,242,-369,-2038,57,-103,47,-310,-486,176,398
,395,2023-10-20 13:47:54.35,230,-379,-2018,44,-112,56,-263,-587,324,425
,396,2023-10-20 13:47:54.36,215,-386,-2035,37,-115,56,-303,-489,186,396
,397,2023-10-20 13:47:54.37,223,-377,-2017,32,-112,54,-264,-558,294,411
,398,2023-10-20 13:47:54.38,211,-405,-2030,19,-98,68,-299,-453,154,376
,399,2023-10-20 13:47:54.39,200,-377,-2031,27,-81,67,-266,-497,231,381
