// Data mode  : Full
// Data quality  : High
// Acceleration sensor's range  : 16g
// Gyroscope sensor's range  : 2000dps
//
//ARTIFACT,NUM,DATE,ACC_X,ACC_Y,ACC_Z,GYRO_X,GYRO_Y,GYRO_Z,EOG_L,EOG_R,EOG_H,EOG_V
,1,2023-10-27 12:18:44.61,14,-270,-1973,-86,54,-334,-399,129,-528,135
,2,2023-10-27 12:18:44.62,42,-287,-1943,-75,55,-304,-467,3,-470,232
,3,2023-10-27 12:18:44.63,75,-290,-1941,-77,119,-302,-398,137,-535,130
,4,2023-10-27 12:18:44.64,111,-284,-1937,-76,92,-316,-468,9,-477,229
,5,2023-10-27 12:18:44.65,143,-261,-1947,-52,139,-272,-421,136,-557,142
,6,2023-10-27 12:18:44.66,161,-255,-1955,-62,154,-303,-489,-7,-482,248
,7,2023-10-27 12:18:44.67,200,-250,-1954,-57,147,-288,-433,120,-553,156
,8,2023-10-27 12:18:44.68,213,-223,-2016,-52,207,-282,-478,-20,-458,249
,9,2023-10-27 12:18:44.69,214,-227,-2065,-53,158,-322,-429,113,-542,158
,10,2023-10-27 12:18:44.70,226,-192,-2098,-37,142,-292,-481,-27,-454,254
,11,2023-10-27 12:18:44.71,215,-164,-2108,-39,184,-293,-448,117,-565,165
,12,2023-10-27 12:18:44.72,201,-188,-2129,-66,97,-309,-480,-27,-453,253
,13,2023-10-27 12:18:44.73,188,-211,-2164,-73,113,-278,-438,117,-555,160
,14,2023-10-27 12:18:44.74,175,-217,-2161,-77,29,-285,-463,-28,-435,245
,15,2023-10-27 12:18:44.75,176,-204,-2160,-67,-42,-263,-434,101,-535,166
,16,2023-10-27 12:18:44.76,170,-213,-2137,-86,24,-241,-442,-39,-403,240
,17,2023-10-27 12:18:44.77,161,-192,-2125,-109,-50,-253,-419,98,-517,160
,18,2023-10-27 12:18:44.78,159,-188,-2110,-110,-4,-229,-429,-38,-391,233
,19,2023-10-27 12:18:44.79,137,-208,-2077,-122,-52,-259,-412,105,-517,153
,20,2023-10-27 12:18:44.80,146,-213,-2034,-130,-49,-234,-418,-31,-387,224
,21,2023-10-27 12:18:44.81,119,-249,-2015,-120,-28,-258,-409,117,-526,146
,22,2023-10-27 12:18:44.82,128,-243,-2029,-89,-93,-276,-409,-24,-385,216
,23,2023-10-27 12:18:44.83,144,-238,-2015,-68,-38,-244,-415,142,-557,136
,24,2023-10-27 12:18:44.84,137,-232,-1986,-68,-62,-267,-429,13,-442,208
,25,2023-10-27 12:18:44.85,135,-230,-2004,-58,-2,-241,-445,133,-578,156
,26,2023-10-27 12:18:44.86,124,-225,-2027,-54,34,-262,-422,-31,-391,226
,27,2023-10-27 12:18:44.87,117,-232,-2028,-37,19,-242,-448,92,-540,178
,28,2023-10-27 12:18:44.88,120,-224,-2031,-29,17,-278,-432,-38,-394,235
,29,2023-10-27 12:18:44.89,127,-238,-2019,-3,23,-254,-460,111,-571,174
,30,2023-10-27 12:18:44.90,140,-274,-2012,17,54,-267,-423,-17,-406,220
,31,2023-10-27 12:18:44.91,146,-267,-1988,49,25,-254,-432,130,-562,151
,32,2023-10-27 12:18:44.92,160,-261,-1960,75,73,-267,-390,-20,-370,205
,33,2023-10-27 12:18:44.93,180,-267,-1968,94,59,-261,-432,121,-553,155
,34,2023-10-27 12:18:44.94,160,-269,-2009,103,97,-269,-401,-26,-375,213
,35,2023-10-27 12:18:44.95,181,-245,-2002,113,58,-264,-454,116,-570,169
,36,2023-10-27 12:18:44.96,201,-237,-2010,132,101,-260,-407,-16,-391,211
,37,2023-10-27 12:18:44.97,208,-231,-2023,137,47,-298,-454,118,-572,168
,38,2023-10-27 12:18:44.98,225,-240,-2010,148,97,-264,-401,-24,-377,212
,39,2023-10-27 12:18:44.99,226,-227,-2033,141,70,-305,-455,116,-571,169
,40,2023-10-27 12:18:45.00,235,-243,-2056,145,61,-276,-403,-22,-381,212
,41,2023-10-27 12:18:45.01,221,-249,-2077,131,112,-260,-458,122,-580,168
,42,2023-10-27 12:18:45.02,226,-245,-2071,116,56,-256,-397,-16,-381,206
,43,2023-10-27 12:18:45.03,222,-252,-2052,111,112,-223,-459,127,-586,166
,44,2023-10-27 12:18:45.04,227,-239,-2051,92,45,-233,-379,-5,-374,192
,45,2023-10-27 12:18:45.05,222,-243,-2027,86,65,-182,-454,123,-577,165
,46,2023-10-27 12:18:45.06,224,-259,-2051,78,45,-179,-376,-10,-366,193
,47,2023-10-27 12:18:45.07,204,-253,-2068,76,27,-125,-461,107,-568,177
,48,2023-10-27 12:18:45.08,205,-252,-2062,72,59,-104,-373,-12,-361,192
,49,2023-10-27 12:18:45.09,207,-258,-2054,65,-30,-100,-451,113,-564,169
,50,2023-10-27 12:18:45.10,185,-277,-2060,78,15,-54,-369,-14,-355,191
,51,2023-10-27 12:18:45.11,184,-263,-2091,74,-53,-70,-450,108,-558,171
,52,2023-10-27 12:18:45.12,168,-246,-2078,64,-76,-52,-354,-24,-330,189
,53,2023-10-27 12:18:45.13,154,-255,-2074,46,-36,-45,-440,106,-546,167
,54,2023-10-27 12:18:45.14,150,-266,-2083,30,-93,-47,-344,-11,-333,177
,55,2023-10-27 12:18:45.15,127,-258,-2085,24,-44,-3,-444,110,-554,167
,56,2023-10-27 12:18:45.16,117,-239,-2069,0,-71,-23,-349,-18,-331,183
,57,2023-10-27 12:18:45.17,129,-238,-2048,-17,-73,2,-449,100,-549,174
,58,2023-10-27 12:18:45.18,125,-224,-2030,-41,-44,-10,-344,-18,-326,181
,59,2023-10-27 12:18:45.19,124,-224,-2034,-70,-104,-37,-445,96,-541,174
,60,2023-10-27 12:18:45.20,107,-220,-2048,-86,-35,1,-338,-17,-321,177
,61,2023-10-27 12:18:45.21,113,-224,-2030,-115,-80,-33,-437,99,-536,169
,62,2023-10-27 12:18:45.22,122,-225,-2031,-119,-43,7,-331,-7,-324,169
,63,2023-10-27 12:18:45.23,119,-229,-2029,-132,-12,-7,-445,100,-545,172
,64,2023-10-27 12:18:45.24,116,-231,-2040,-139,-52,8,-337,-12,-325,174
,65,2023-10-27 12:18:45.25,131,-225,-2036,-146,-32,0,-454,95,-549,179
,66,2023-10-27 12:18:45.26,122,-222,-2042,-145,-48,26,-336,-5,-331,170
,67,2023-10-27 12:18:45.27,136,-211,-2061,-144,12,38,-455,102,-557,176
,68,2023-10-27 12:18:45.28,126,-203,-2052,-151,-31,41,-335,21,-356,157
,69,2023-10-27 12:18:45.29,142,-202,-2065,-147,28,60,-458,108,-566,175
,70,2023-10-27 12:18:45.30,145,-184,-2052,-152,-45,42,-336,-2,-334,169
,71,2023-10-27 12:18:45.31,147,-175,-2048,-150,10,75,-465,83,-548,191
,72,2023-10-27 12:18:45.32,150,-166,-2036,-155,-39,66,-335,-11,-324,173
,73,2023-10-27 12:18:45.33,156,-172,-2032,-145,20,102,-471,79,-550,196
,74,2023-10-27 12:18:45.34,155,-175,-2038,-145,-22,72,-336,-7,-329,171
,75,2023-10-27 12:18:45.35,160,-178,-2036,-115,10,111,-482,78,-560,202
,76,2023-10-27 12:18:45.36,160,-183,-2038,-91,-54,77,-340,5,-345,167
,77,2023-10-27 12:18:45.37,170,-196,-2033,-54,-19,121,-477,79,-556,199
,78,2023-10-27 12:18:45.38,170,-196,-2031,-23,8,119,-324,5,-329,159
,79,2023-10-27 12:18:45.39,153,-195,-2041,-2,-63,98,-459,86,-545,186
,80,2023-10-27 12:18:45.40,155,-205,-2058,22,7,132,-321,13,-334,154
,81,2023-10-27 12:18:45.41,161,-194,-2034,28,-49,98,-484,80,-564,202
,82,2023-10-27 12:18:45.42,137,-189,-2069,38,-32,125,-336,7,-343,164
,83,2023-10-27 12:18:45.43,142,-178,-2087,31,-31,108,-488,72,-560,208
,84,2023-10-27 12:18:45.44,129,-170,-2053,25,-36,126,-327,9,-336,159
,85,2023-10-27 12:18:45.45,144,-170,-2055,23,21,127,-474,84,-558,195
,86,2023-10-27 12:18:45.46,139,-161,-2064,14,-25,119,-317,24,-341,146
,87,2023-10-27 12:18:45.47,139,-163,-2054,5,3,106,-478,64,-542,207
,88,2023-10-27 12:18:45.48,144,-172,-2050,-2,-42,91,-328,-2,-326,165
,89,2023-10-27 12:18:45.49,151,-178,-2054,5,-3,119,-483,55,-538,214
,90,2023-10-27 12:18:45.50,144,-186,-2045,0,-29,87,-324,9,-333,157
,91,2023-10-27 12:18:45.51,152,-186,-2040,7,25,110,-488,60,-548,214
,92,2023-10-27 12:18:45.52,142,-174,-2038,3,-13,76,-314,19,-333,147
,93,2023-10-27 12:18:45.53,157,-179,-2040,4,-26,101,-475,64,-539,205
,94,2023-10-27 12:18:45.54,147,-183,-2053,6,-22,82,-304,23,-327,140
,95,2023-10-27 12:18:45.55,150,-188,-2065,18,4,119,-474,53,-527,210
,96,2023-10-27 12:18:45.56,135,-180,-2052,19,-40,85,-310,24,-334,143
,97,2023-10-27 12:18:45.57,139,-191,-2068,20,19,121,-477,56,-533,210
,98,2023-10-27 12:18:45.58,136,-198,-2033,7,-53,106,-299,25,-324,137
,99,2023-10-27 12:18:45.59,137,-209,-2020,26,-13,130,-472,63,-535,204
,100,2023-10-27 12:18:45.60,137,-204,-2011,45,-71,107,-305,40,-345,132
,101,2023-10-27 12:18:45.61,170,-180,-2015,54,-63,130,-485,70,-555,207
,102,2023-10-27 12:18:45.62,160,-191,-2016,42,-9,113,-312,45,-357,133
,103,2023-10-27 12:18:45.63,148,-204,-2023,35,-45,122,-494,54,-548,220
,104,2023-10-27 12:18:45.64,143,-212,-2021,49,15,130,-318,40,-358,139
,105,2023-10-27 12:18:45.65,167,-204,-2022,55,-37,119,-493,48,-541,222
,106,2023-10-27 12:18:45.66,151,-210,-2024,56,29,138,-310,47,-357,131
,107,2023-10-27 12:18:45.67,158,-210,-2039,46,-22,106,-486,59,-545,213
,108,2023-10-27 12:18:45.68,164,-208,-2050,46,-26,124,-316,58,-374,129
,109,2023-10-27 12:18:45.69,156,-193,-2054,36,9,112,-499,57,-556,221
,110,2023-10-27 12:18:45.70,162,-204,-2056,31,-5,125,-323,53,-376,135
,111,2023-10-27 12:18:45.71,155,-197,-2055,17,10,107,-503,50,-553,226
,112,2023-10-27 12:18:45.72,163,-187,-2053,9,-7,114,-325,57,-382,134
,113,2023-10-27 12:18:45.73,159,-199,-2053,2,5,98,-503,46,-549,228
,114,2023-10-27 12:18:45.74,153,-187,-2053,2,35,124,-319,61,-380,129
,115,2023-10-27 12:18:45.75,169,-191,-2033,-4,45,92,-496,39,-535,228
,116,2023-10-27 12:18:45.76,181,-189,-2023,5,43,96,-319,56,-375,131
,117,2023-10-27 12:18:45.77,174,-201,-2032,1,14,57,-496,41,-537,227
,118,2023-10-27 12:18:45.78,167,-198,-2047,9,96,74,-322,60,-382,131
,119,2023-10-27 12:18:45.79,136,-205,-2057,2,41,26,-504,36,-540,234
,120,2023-10-27 12:18:45.80,156,-205,-2033,6,89,50,-328,63,-391,132
,121,2023-10-27 12:18:45.81,151,-203,-2023,9,65,18,-511,41,-552,235
,122,2023-10-27 12:18:45.82,155,-198,-2026,18,93,37,-334,78,-412,128
,123,2023-10-27 12:18:45.83,158,-198,-2041,18,135,24,-510,39,-549,235
,124,2023-10-27 12:18:45.84,158,-205,-2022,20,78,7,-342,72,-414,135
,125,2023-10-27 12:18:45.85,165,-200,-2026,31,147,7,-522,34,-556,244
,126,2023-10-27 12:18:45.86,145,-208,-2018,38,89,-13,-343,83,-426,130
,127,2023-10-27 12:18:45.87,158,-200,-2021,47,147,-12,-525,40,-565,242
,128,2023-10-27 12:18:45.88,151,-210,-2028,49,101,-37,-353,83,-436,135
,129,2023-10-27 12:18:45.89,150,-221,-2070,60,157,-18,-530,21,-551,254
,130,2023-10-27 12:18:45.90,141,-215,-2067,52,110,-53,-330,88,-418,121
,131,2023-10-27 12:18:45.91,142,-215,-2072,67,107,-23,-498,47,-545,225
,132,2023-10-27 12:18:45.92,140,-219,-2069,69,84,-49,-332,99,-431,116
,133,2023-10-27 12:18:45.93,139,-226,-2065,81,60,-19,-498,30,-528,234
,134,2023-10-27 12:18:45.94,123,-234,-2053,89,70,-19,-340,81,-421,129
,135,2023-10-27 12:18:45.95,153,-242,-2055,89,50,-8,-507,22,-529,242
,136,2023-10-27 12:18:45.96,145,-230,-2031,79,9,-38,-343,83,-426,130
,137,2023-10-27 12:18:45.97,149,-236,-2027,82,31,0,-500,17,-517,241
,138,2023-10-27 12:18:45.98,147,-230,-2016,74,51,-11,-334,86,-420,124
,139,2023-10-27 12:18:45.99,151,-244,-2027,58,15,-16,-492,19,-511,236
,140,2023-10-27 12:18:46.00,148,-254,-2044,55,64,7,-339,90,-429,124
,141,2023-10-27 12:18:46.01,142,-253,-2054,42,13,-21,-495,15,-510,240
,142,2023-10-27 12:18:46.02,146,-248,-2057,48,57,22,-339,94,-433,122
,143,2023-10-27 12:18:46.03,151,-245,-2043,29,-2,-8,-478,21,-499,228
,144,2023-10-27 12:18:46.04,149,-233,-2051,19,51,32,-326,101,-427,112
,145,2023-10-27 12:18:46.05,161,-233,-2060,-4,23,8,-473,26,-499,223
,146,2023-10-27 12:18:46.06,157,-240,-2045,-21,60,38,-330,103,-433,113
,147,2023-10-27 12:18:46.07,157,-243,-2051,-41,13,26,-474,10,-484,232
,148,2023-10-27 12:18:46.08,167,-239,-2057,-50,74,55,-337,91,-428,123
,149,2023-10-27 12:18:46.09,161,-240,-2049,-72,19,57,-474,0,-474,237
,150,2023-10-27 12:18:46.10,170,-239,-2044,-90,56,59,-343,95,-438,124
,151,2023-10-27 12:18:46.11,169,-236,-2061,-103,9,63,-479,10,-489,234
,152,2023-10-27 12:18:46.12,171,-224,-2041,-103,34,92,-357,99,-456,129
,153,2023-10-27 12:18:46.13,178,-228,-2057,-113,5,82,-483,1,-484,241
,154,2023-10-27 12:18:46.14,172,-210,-2056,-116,48,87,-362,102,-464,130
,155,2023-10-27 12:18:46.15,176,-230,-2060,-128,-28,75,-484,8,-492,238
,156,2023-10-27 12:18:46.16,166,-219,-2072,-125,-2,97,-366,111,-477,127
,157,2023-10-27 12:18:46.17,159,-198,-2065,-136,-51,72,-479,2,-481,238
,158,2023-10-27 12:18:46.18,154,-202,-2060,-135,-23,104,-366,109,-475,128
,159,2023-10-27 12:18:46.19,145,-195,-2068,-154,-44,72,-474,4,-478,235
,160,2023-10-27 12:18:46.20,151,-195,-2055,-159,-20,100,-376,107,-483,134
,161,2023-10-27 12:18:46.21,153,-188,-2042,-170,-78,83,-480,3,-483,238
,162,2023-10-27 12:18:46.22,150,-185,-2036,-171,-33,102,-375,108,-483,133
,163,2023-10-27 12:18:46.23,154,-178,-2046,-182,-84,71,-472,-5,-467,238
,164,2023-10-27 12:18:46.24,158,-167,-2053,-189,-34,108,-376,108,-484,134
,165,2023-10-27 12:18:46.25,150,-172,-2052,-200,-70,72,-475,-12,-463,243
,166,2023-10-27 12:18:46.26,150,-166,-2067,-191,-50,112,-394,99,-493,147
,167,2023-10-27 12:18:46.27,158,-145,-2041,-203,-61,86,-471,-21,-450,246
,168,2023-10-27 12:18:46.28,138,-154,-2032,-195,-48,103,-392,97,-489,147
,169,2023-10-27 12:18:46.29,150,-165,-2050,-198,-69,76,-464,-12,-452,238
,170,2023-10-27 12:18:46.30,146,-145,-2048,-189,-74,103,-396,101,-497,147
,171,2023-10-27 12:18:46.31,160,-141,-2025,-187,-89,77,-459,-14,-445,236
,172,2023-10-27 12:18:46.32,147,-140,-2056,-172,-39,107,-392,115,-507,138
,173,2023-10-27 12:18:46.33,153,-125,-2058,-174,-98,77,-462,-13,-449,237
,174,2023-10-27 12:18:46.34,153,-139,-2056,-165,-51,97,-402,115,-517,143
,175,2023-10-27 12:18:46.35,149,-122,-2065,-158,-53,99,-456,-16,-440,236
,176,2023-10-27 12:18:46.36,147,-102,-2070,-161,-121,63,-409,100,-509,154
,177,2023-10-27 12:18:46.37,119,-108,-2056,-147,-69,90,-448,-20,-428,234
,178,2023-10-27 12:18:46.38,122,-95,-2065,-147,-131,58,-398,109,-507,144
,179,2023-10-27 12:18:46.39,129,-94,-2058,-140,-85,87,-446,-23,-423,234
,180,2023-10-27 12:18:46.40,125,-99,-2079,-143,-90,60,-406,105,-511,150
,181,2023-10-27 12:18:46.41,104,-91,-2088,-141,-129,70,-450,-30,-420,240
,182,2023-10-27 12:18:46.42,98,-87,-2082,-137,-89,63,-418,105,-523,156
,183,2023-10-27 12:18:46.43,86,-101,-2073,-141,-170,35,-453,-28,-425,240
,184,2023-10-27 12:18:46.44,103,-88,-2055,-125,-124,68,-420,106,-526,157
,185,2023-10-27 12:18:46.45,84,-75,-2046,-123,-169,31,-440,-28,-412,234
,186,2023-10-27 12:18:46.46,95,-82,-2041,-113,-132,62,-419,113,-532,153
,187,2023-10-27 12:18:46.47,83,-78,-2031,-115,-112,33,-438,-12,-426,225
,188,2023-10-27 12:18:46.48,80,-85,-2019,-107,-86,46,-428,127,-555,150
,189,2023-10-27 12:18:46.49,91,-85,-2031,-105,-141,16,-441,-19,-422,230
,190,2023-10-27 12:18:46.50,86,-81,-2038,-95,-56,40,-433,114,-547,159
,191,2023-10-27 12:18:46.51,87,-74,-2030,-92,-68,13,-439,-30,-409,234
,192,2023-10-27 12:18:46.52,90,-74,-2039,-76,-43,38,-446,116,-562,165
