// Data mode  : Full
// Data quality  : High
// Acceleration sensor's range  : 16g
// Gyroscope sensor's range  : 2000dps
//
//ARTIFACT,NUM,DATE,ACC_X,ACC_Y,ACC_Z,GYRO_X,GYRO_Y,GYRO_Z,EOG_L,EOG_R,EOG_H,EOG_V
,1,2023-10-27 11:18:01.34,166,-129,-2054,29,21,33,-886,-898,12,892
,2,2023-10-27 11:18:01.35,156,-131,-2055,29,24,36,-1011,-1008,-3,1009
,3,2023-10-27 11:18:01.36,164,-123,-2051,30,25,41,-885,-892,7,888
,4,2023-10-27 11:18:01.37,176,-123,-2050,27,32,42,-999,-996,-3,997
,5,2023-10-27 11:18:01.38,173,-119,-2051,21,33,38,-871,-884,13,877
,6,2023-10-27 11:18:01.39,160,-127,-2049,18,31,38,-987,-990,3,988
,7,2023-10-27 11:18:01.40,163,-131,-2059,17,31,36,-864,-881,17,872
,8,2023-10-27 11:18:01.41,165,-122,-2056,15,26,39,-999,-995,-4,997
,9,2023-10-27 11:18:01.42,177,-115,-2038,12,26,35,-885,-891,6,888
,10,2023-10-27 11:18:01.43,173,-117,-2038,11,35,31,-1015,-1005,-10,1010
,11,2023-10-27 11:18:01.44,172,-122,-2043,7,39,28,-896,-898,2,897
,12,2023-10-27 11:18:01.45,182,-113,-2040,-2,40,20,-1021,-1014,-7,1017
,13,2023-10-27 11:18:01.46,186,-115,-2040,-1,45,17,-891,-901,10,896
,14,2023-10-27 11:18:01.47,161,-115,-2028,3,37,9,-1008,-1009,1,1008
,15,2023-10-27 11:18:01.48,180,-109,-2058,12,11,11,-884,-893,9,888
,16,2023-10-27 11:18:01.49,198,-116,-2066,10,12,7,-990,-992,2,991
,17,2023-10-27 11:18:01.50,188,-107,-2056,5,21,1,-860,-885,25,872
,18,2023-10-27 11:18:01.51,158,-107,-2048,-7,29,-13,-988,-1003,15,995
,19,2023-10-27 11:18:01.52,185,-116,-2066,-6,5,-16,-880,-899,19,889
,20,2023-10-27 11:18:01.53,200,-115,-2073,0,-3,-18,-1000,-1002,2,1001
,21,2023-10-27 11:18:01.54,206,-97,-2044,-4,14,-23,-880,-888,8,884
,22,2023-10-27 11:18:01.55,177,-95,-2048,-9,18,-31,-1000,-996,-4,998
,23,2023-10-27 11:18:01.56,195,-112,-2059,-16,12,-36,-884,-893,9,888
,24,2023-10-27 11:18:01.57,181,-107,-2064,-15,13,-34,-1004,-1004,0,1004
,25,2023-10-27 11:18:01.58,203,-114,-2068,-6,5,-34,-888,-897,9,892
,26,2023-10-27 11:18:01.59,197,-121,-2063,-1,-1,-33,-1000,-1002,2,1001
,27,2023-10-27 11:18:01.60,195,-115,-2050,-2,-5,-31,-886,-901,15,893
,28,2023-10-27 11:18:01.61,190,-119,-2062,-4,-11,-24,-988,-995,7,991
,29,2023-10-27 11:18:01.62,181,-125,-2063,-2,-24,-17,-878,-896,18,887
,30,2023-10-27 11:18:01.63,156,-126,-2067,4,-39,-1,-992,-1000,8,996
,31,2023-10-27 11:18:01.64,174,-129,-2068,9,-49,13,-890,-909,19,899
,32,2023-10-27 11:18:01.65,181,-129,-2068,8,-56,27,-1005,-1014,9,1009
,33,2023-10-27 11:18:01.66,157,-142,-2068,5,-57,45,-899,-913,14,906
,34,2023-10-27 11:18:01.67,175,-143,-2066,6,-55,60,-1001,-1000,-1,1000
,35,2023-10-27 11:18:01.68,164,-139,-2055,6,-56,74,-895,-908,13,901
,36,2023-10-27 11:18:01.69,183,-136,-2058,5,-49,85,-996,-1009,13,1002
,37,2023-10-27 11:18:01.70,190,-122,-2046,-6,-28,92,-891,-918,27,904
,38,2023-10-27 11:18:01.71,161,-115,-2040,-6,-27,97,-991,-1009,18,1000
,39,2023-10-27 11:18:01.72,184,-105,-2031,-4,-30,101,-889,-915,26,902
,40,2023-10-27 11:18:01.73,170,-94,-2041,-3,-19,103,-993,-1000,7,996
,41,2023-10-27 11:18:01.74,176,-99,-2043,-10,-13,100,-904,-914,10,909
,42,2023-10-27 11:18:01.75,170,-92,-2047,-13,-7,94,-997,-1001,4,999
,43,2023-10-27 11:18:01.76,167,-103,-2056,-11,-12,97,-904,-919,15,911
,44,2023-10-27 11:18:01.77,160,-104,-2059,-10,-12,90,-998,-1004,6,1001
,45,2023-10-27 11:18:01.78,161,-90,-2058,-8,-15,88,-906,-928,22,917
,46,2023-10-27 11:18:01.79,169,-92,-2059,-13,-9,80,-989,-1011,22,1000
,47,2023-10-27 11:18:01.80,164,-90,-2056,-17,-5,74,-895,-919,24,907
,48,2023-10-27 11:18:01.81,167,-90,-2053,-17,-10,68,-975,-980,5,977
,49,2023-10-27 11:18:01.82,158,-96,-2059,-14,-19,64,-894,-906,12,900
,50,2023-10-27 11:18:01.83,164,-102,-2063,-8,-16,58,-974,-990,16,982
,51,2023-10-27 11:18:01.84,158,-105,-2060,-7,-18,52,-894,-921,27,907
,52,2023-10-27 11:18:01.85,177,-101,-2065,-1,-18,49,-969,-991,22,980
,53,2023-10-27 11:18:01.86,159,-101,-2045,1,-13,41,-900,-927,27,913
,54,2023-10-27 11:18:01.87,156,-104,-2031,11,-24,37,-978,-996,18,987
,55,2023-10-27 11:18:01.88,168,-113,-2041,19,-26,31,-906,-928,22,917
,56,2023-10-27 11:18:01.89,170,-119,-2044,23,-17,24,-966,-986,20,976
,57,2023-10-27 11:18:01.90,167,-102,-2033,21,-3,19,-894,-925,31,909
,58,2023-10-27 11:18:01.91,145,-112,-2040,29,-1,14,-964,-985,21,974
,59,2023-10-27 11:18:01.92,156,-125,-2053,35,-4,13,-918,-926,8,922
,60,2023-10-27 11:18:01.93,165,-111,-2054,39,-8,15,-990,-986,-4,988
,61,2023-10-27 11:18:01.94,156,-123,-2056,38,-4,12,-932,-934,2,933
,62,2023-10-27 11:18:01.95,151,-114,-2061,34,-1,16,-968,-978,10,973
,63,2023-10-27 11:18:01.96,162,-122,-2059,27,4,14,-916,-934,18,925
,64,2023-10-27 11:18:01.97,142,-127,-2070,22,-1,16,-969,-982,13,975
,65,2023-10-27 11:18:01.98,153,-128,-2041,24,-7,20,-925,-937,12,931
,66,2023-10-27 11:18:01.99,138,-131,-2052,30,-7,24,-968,-970,2,969
,67,2023-10-27 11:18:02.00,148,-147,-2074,26,-13,34,-922,-925,3,923
,68,2023-10-27 11:18:02.01,156,-134,-2063,17,-21,44,-950,-963,13,956
,69,2023-10-27 11:18:02.02,150,-129,-2046,9,-22,49,-901,-932,31,916
,70,2023-10-27 11:18:02.03,150,-119,-2050,5,-18,54,-951,-971,20,961
,71,2023-10-27 11:18:02.04,160,-115,-2048,-4,-16,55,-934,-945,11,939
,72,2023-10-27 11:18:02.05,160,-116,-2040,-15,-7,57,-962,-971,9,966
,73,2023-10-27 11:18:02.06,162,-116,-2049,-24,-4,58,-928,-939,11,933
,74,2023-10-27 11:18:02.07,154,-112,-2051,-24,0,57,-957,-966,9,961
,75,2023-10-27 11:18:02.08,157,-104,-2050,-27,-5,56,-928,-935,7,931
,76,2023-10-27 11:18:02.09,149,-107,-2054,-32,-1,55,-930,-959,29,944
,77,2023-10-27 11:18:02.10,159,-100,-2059,-34,0,53,-935,-976,41,955
,78,2023-10-27 11:18:02.11,163,-106,-2059,-37,-4,49,-997,-1099,102,1048
,79,2023-10-27 11:18:02.12,159,-98,-2058,-31,-10,46,-970,-1122,152,1046
,80,2023-10-27 11:18:02.13,163,-92,-2057,-31,-10,41,-938,-1157,219,1047
,81,2023-10-27 11:18:02.14,167,-90,-2052,-29,-9,36,-871,-1120,249,995
,82,2023-10-27 11:18:02.15,157,-98,-2054,-27,-10,31,-792,-1137,345,964
,83,2023-10-27 11:18:02.16,159,-109,-2062,-22,-10,28,-748,-1111,363,929
,84,2023-10-27 11:18:02.17,158,-107,-2065,-15,-14,28,-688,-1130,442,909
,85,2023-10-27 11:18:02.18,153,-104,-2064,-7,-16,29,-688,-1109,421,898
,86,2023-10-27 11:18:02.19,157,-112,-2055,-9,0,26,-629,-1120,491,874
,87,2023-10-27 11:18:02.20,146,-102,-2062,-4,-11,29,-637,-1096,459,866
,88,2023-10-27 11:18:02.21,162,-118,-2043,-1,-14,32,-548,-1050,502,799
,89,2023-10-27 11:18:02.22,145,-117,-2054,6,-13,33,-576,-1035,459,805
,90,2023-10-27 11:18:02.23,142,-117,-2062,12,-21,38,-539,-1060,521,799
,91,2023-10-27 11:18:02.24,166,-106,-2047,13,-15,43,-554,-1026,472,790
,92,2023-10-27 11:18:02.25,149,-111,-2041,9,-6,45,-510,-997,487,753
,93,2023-10-27 11:18:02.26,138,-106,-2049,10,-8,47,-574,-993,419,783
,94,2023-10-27 11:18:02.27,148,-104,-2054,5,-7,46,-546,-994,448,770
,95,2023-10-27 11:18:02.28,148,-99,-2065,3,-10,49,-610,-999,389,804
,96,2023-10-27 11:18:02.29,146,-104,-2063,2,-12,51,-656,-982,326,819
,97,2023-10-27 11:18:02.30,153,-104,-2065,-2,-8,49,-759,-990,231,874
,98,2023-10-27 11:18:02.31,126,-103,-2057,-3,-6,48,-765,-969,204,867
,99,2023-10-27 11:18:02.32,153,-106,-2057,-8,-17,49,-822,-996,174,909
,100,2023-10-27 11:18:02.33,132,-98,-2058,-10,-24,48,-812,-975,163,893
,101,2023-10-27 11:18:02.34,154,-97,-2052,-7,-33,48,-878,-999,121,938
,102,2023-10-27 11:18:02.35,151,-98,-2056,-7,-23,44,-862,-966,104,914
,103,2023-10-27 11:18:02.36,152,-97,-2049,-13,-17,41,-906,-989,83,947
,104,2023-10-27 11:18:02.37,140,-97,-2052,-13,-16,40,-866,-958,92,912
,105,2023-10-27 11:18:02.38,149,-108,-2059,-12,-28,40,-905,-984,79,944
,106,2023-10-27 11:18:02.39,133,-103,-2054,-8,-21,41,-873,-948,75,910
,107,2023-10-27 11:18:02.40,151,-103,-2049,-7,-23,40,-933,-971,38,952
,108,2023-10-27 11:18:02.41,132,-104,-2053,-10,-17,41,-883,-928,45,905
,109,2023-10-27 11:18:02.42,132,-106,-2050,-10,-20,40,-927,-969,42,948
,110,2023-10-27 11:18:02.43,138,-97,-2052,-7,-28,45,-876,-923,47,899
,111,2023-10-27 11:18:02.44,141,-103,-2052,-5,-27,46,-939,-976,37,957
,112,2023-10-27 11:18:02.45,134,-99,-2051,-5,-28,47,-902,-939,37,920
,113,2023-10-27 11:18:02.46,147,-97,-2059,-7,-19,47,-953,-974,21,963
,114,2023-10-27 11:18:02.47,140,-99,-2049,-12,-6,44,-895,-919,24,907
,115,2023-10-27 11:18:02.48,129,-95,-2054,-10,-17,45,-954,-971,17,962
,116,2023-10-27 11:18:02.49,141,-100,-2050,-8,-20,45,-887,-920,33,903
,117,2023-10-27 11:18:02.50,139,-97,-2050,-4,-21,44,-1009,-1034,25,1021
,118,2023-10-27 11:18:02.51,135,-103,-2031,-1,-19,43,-1006,-1078,72,1042
,119,2023-10-27 11:18:02.52,132,-91,-2036,8,-6,42,-1069,-1165,96,1117
,120,2023-10-27 11:18:02.53,139,-92,-2073,4,1,36,-872,-1118,246,995
,121,2023-10-27 11:18:02.54,137,-109,-2063,-7,-9,38,-875,-1155,280,1015
,122,2023-10-27 11:18:02.55,146,-107,-2055,-5,-12,43,-711,-1098,387,904
,123,2023-10-27 11:18:02.56,136,-107,-2062,0,-11,40,-787,-1149,362,968
,124,2023-10-27 11:18:02.57,146,-98,-2054,1,-10,46,-627,-1089,462,858
,125,2023-10-27 11:18:02.58,139,-96,-2057,-3,-9,50,-730,-1146,416,938
,126,2023-10-27 11:18:02.59,146,-104,-2054,-3,-7,53,-582,-1084,502,833
,127,2023-10-27 11:18:02.60,125,-113,-2050,-5,-8,59,-703,-1146,443,924
,128,2023-10-27 11:18:02.61,136,-96,-2051,-1,-7,64,-553,-1079,526,816
,129,2023-10-27 11:18:02.62,134,-108,-2053,-7,-5,70,-688,-1144,456,916
,130,2023-10-27 11:18:02.63,121,-105,-2066,-10,-4,75,-539,-1072,533,805
,131,2023-10-27 11:18:02.64,131,-107,-2067,-10,-9,83,-661,-1113,452,887
,132,2023-10-27 11:18:02.65,136,-108,-2060,-8,-9,89,-470,-972,502,721
,133,2023-10-27 11:18:02.66,132,-101,-2052,-10,-1,96,-598,-1015,417,806
,134,2023-10-27 11:18:02.67,115,-96,-2037,-10,4,98,-417,-890,473,653
,135,2023-10-27 11:18:02.68,134,-93,-2039,-10,3,100,-570,-956,386,763
,136,2023-10-27 11:18:02.69,149,-90,-2033,-9,11,96,-394,-811,417,602
,137,2023-10-27 11:18:02.70,142,-93,-2049,-9,17,95,-559,-927,368,743
,138,2023-10-27 11:18:02.71,132,-92,-2058,-5,20,93,-386,-863,477,624
,139,2023-10-27 11:18:02.72,127,-92,-2058,-1,21,89,-554,-998,444,776
,140,2023-10-27 11:18:02.73,126,-98,-2054,2,17,90,-381,-914,533,647
,141,2023-10-27 11:18:02.74,125,-96,-2062,4,16,88,-548,-1004,456,776
,142,2023-10-27 11:18:02.75,137,-90,-2066,6,18,87,-360,-870,510,615
,143,2023-10-27 11:18:02.76,151,-81,-2056,8,18,85,-518,-932,414,725
,144,2023-10-27 11:18:02.77,139,-78,-2054,9,23,79,-315,-758,443,536
,145,2023-10-27 11:18:02.78,128,-79,-2059,5,25,70,-506,-898,392,702
,146,2023-10-27 11:18:02.79,135,-83,-2060,0,26,65,-344,-840,496,592
,147,2023-10-27 11:18:02.80,125,-79,-2048,-1,25,62,-530,-959,429,744
,148,2023-10-27 11:18:02.81,138,-77,-2050,1,25,58,-345,-801,456,573
,149,2023-10-27 11:18:02.82,136,-79,-2056,-1,24,53,-522,-890,368,706
,150,2023-10-27 11:18:02.83,131,-81,-2054,-2,25,49,-346,-764,418,555
,151,2023-10-27 11:18:02.84,128,-83,-2058,-5,22,47,-548,-938,390,743
,152,2023-10-27 11:18:02.85,136,-69,-2057,-2,19,43,-402,-902,500,652
,153,2023-10-27 11:18:02.86,131,-78,-2053,0,11,39,-580,-1032,452,806
,154,2023-10-27 11:18:02.87,137,-77,-2049,2,10,34,-388,-901,513,644
,155,2023-10-27 11:18:02.88,137,-82,-2064,-2,11,32,-561,-1001,440,781
,156,2023-10-27 11:18:02.89,140,-84,-2059,0,9,30,-390,-889,499,639
,157,2023-10-27 11:18:02.90,146,-88,-2056,4,8,28,-556,-984,428,770
,158,2023-10-27 11:18:02.91,137,-89,-2058,6,8,28,-357,-842,485,599
,159,2023-10-27 11:18:02.92,138,-86,-2056,7,10,27,-514,-904,390,709
,160,2023-10-27 11:18:02.93,140,-94,-2049,9,15,27,-316,-731,415,523
,161,2023-10-27 11:18:02.94,136,-94,-2059,10,19,25,-474,-818,344,646
,162,2023-10-27 11:18:02.95,142,-96,-2057,13,19,25,-277,-673,396,475
,163,2023-10-27 11:18:02.96,154,-96,-2058,16,21,25,-476,-839,363,657
,164,2023-10-27 11:18:02.97,134,-92,-2056,19,20,25,-321,-773,452,547
,165,2023-10-27 11:18:02.98,149,-94,-2057,21,21,26,-516,-930,414,723
,166,2023-10-27 11:18:02.99,142,-97,-2057,23,24,26,-343,-811,468,577
,167,2023-10-27 11:18:03.00,151,-94,-2051,24,24,24,-491,-987,496,739
,168,2023-10-27 11:18:03.01,152,-92,-2049,25,23,24,-331,-976,645,653
,169,2023-10-27 11:18:03.02,149,-97,-2034,26,25,26,-561,-1093,532,827
,170,2023-10-27 11:18:03.03,141,-114,-2057,28,25,27,-506,-988,482,747
,171,2023-10-27 11:18:03.04,151,-105,-2063,29,21,29,-746,-1068,322,907
,172,2023-10-27 11:18:03.05,150,-99,-2053,33,18,31,-675,-954,279,814
,173,2023-10-27 11:18:03.06,155,-101,-2053,34,21,33,-846,-1048,202,947
,174,2023-10-27 11:18:03.07,138,-106,-2056,33,19,29,-724,-937,213,830
,175,2023-10-27 11:18:03.08,144,-105,-2060,32,16,33,-881,-1038,157,959
,176,2023-10-27 11:18:03.09,145,-106,-2060,31,15,34,-789,-926,137,857
,177,2023-10-27 11:18:03.10,149,-104,-2060,32,9,33,-928,-1022,94,975
,178,2023-10-27 11:18:03.11,152,-101,-2056,30,10,34,-780,-910,130,845
,179,2023-10-27 11:18:03.12,155,-101,-2052,25,11,34,-919,-1013,94,966
,180,2023-10-27 11:18:03.13,129,-97,-2045,20,8,33,-828,-908,80,868
,181,2023-10-27 11:18:03.14,148,-101,-2057,25,-6,36,-981,-1018,37,999
,182,2023-10-27 11:18:03.15,155,-108,-2056,24,-3,37,-881,-914,33,897
,183,2023-10-27 11:18:03.16,145,-98,-2049,23,6,33,-990,-1016,26,1003
,184,2023-10-27 11:18:03.17,147,-111,-2060,18,15,30,-846,-904,58,875
,185,2023-10-27 11:18:03.18,147,-103,-2049,11,20,31,-935,-1004,69,969
,186,2023-10-27 11:18:03.19,156,-104,-2056,11,17,29,-788,-901,113,844
,187,2023-10-27 11:18:03.20,152,-104,-2051,16,17,32,-894,-1002,108,948
,188,2023-10-27 11:18:03.21,142,-108,-2052,17,16,32,-772,-903,131,837
,189,2023-10-27 11:18:03.22,152,-97,-2051,14,16,31,-930,-1013,83,971
,190,2023-10-27 11:18:03.23,141,-102,-2049,13,17,29,-852,-910,58,881
,191,2023-10-27 11:18:03.24,154,-102,-2051,12,17,30,-971,-1005,34,988
,192,2023-10-27 11:18:03.25,162,-93,-2054,12,17,30,-836,-894,58,865
,193,2023-10-27 11:18:03.26,147,-96,-2053,14,15,28,-946,-996,50,971
,194,2023-10-27 11:18:03.27,138,-105,-2039,17,10,27,-839,-901,62,870
,195,2023-10-27 11:18:03.28,146,-108,-2060,32,-23,33,-973,-1003,30,988
,196,2023-10-27 11:18:03.29,171,-103,-2069,33,-6,32,-880,-905,25,892
,197,2023-10-27 11:18:03.30,132,-100,-2042,26,15,24,-984,-1001,17,992
,198,2023-10-27 11:18:03.31,152,-97,-2048,18,16,25,-865,-904,39,884
,199,2023-10-27 11:18:03.32,148,-101,-2062,16,17,23,-967,-1001,34,984
,200,2023-10-27 11:18:03.33,152,-101,-2064,24,11,23,-866,-909,43,887
,201,2023-10-27 11:18:03.34,141,-94,-2054,27,3,25,-974,-1004,30,989
,202,2023-10-27 11:18:03.35,159,-97,-2050,27,1,22,-878,-912,34,895
,203,2023-10-27 11:18:03.36,155,-95,-2049,24,2,19,-982,-1004,22,993
,204,2023-10-27 11:18:03.37,149,-103,-2053,25,3,19,-878,-908,30,893
,205,2023-10-27 11:18:03.38,146,-98,-2053,29,2,18,-954,-989,35,971
,206,2023-10-27 11:18:03.39,152,-96,-2056,28,0,20,-843,-899,56,871
,207,2023-10-27 11:18:03.40,148,-97,-2052,30,-2,19,-946,-988,42,967
,208,2023-10-27 11:18:03.41,152,-91,-2050,27,-6,20,-868,-913,45,890
,209,2023-10-27 11:18:03.42,147,-98,-2052,28,-2,22,-971,-1006,35,988
,210,2023-10-27 11:18:03.43,138,-113,-2052,29,-5,25,-879,-918,39,898
,211,2023-10-27 11:18:03.44,153,-114,-2049,34,2,28,-961,-989,28,975
,212,2023-10-27 11:18:03.45,152,-128,-2051,43,8,33,-873,-908,35,890
,213,2023-10-27 11:18:03.46,143,-132,-2043,53,13,37,-957,-985,28,971
,214,2023-10-27 11:18:03.47,144,-128,-2048,64,15,42,-885,-914,29,899
,215,2023-10-27 11:18:03.48,145,-129,-2048,78,13,46,-980,-992,12,986
,216,2023-10-27 11:18:03.49,134,-131,-2060,89,13,48,-903,-920,17,911
,217,2023-10-27 11:18:03.50,146,-131,-2057,97,4,47,-971,-990,19,980
,218,2023-10-27 11:18:03.51,131,-127,-2058,105,4,49,-889,-919,30,904
,219,2023-10-27 11:18:03.52,131,-119,-2062,109,-1,45,-967,-989,22,978
,220,2023-10-27 11:18:03.53,144,-114,-2062,105,-5,38,-898,-925,27,911
,221,2023-10-27 11:18:03.54,140,-117,-2067,102,-3,30,-968,-992,24,980
,222,2023-10-27 11:18:03.55,135,-120,-2065,94,-8,22,-906,-931,25,918
,223,2023-10-27 11:18:03.56,139,-118,-2057,86,-11,16,-975,-990,15,982
,224,2023-10-27 11:18:03.57,139,-132,-2049,78,-10,9,-918,-932,14,925
,225,2023-10-27 11:18:03.58,132,-136,-2045,71,-8,11,-976,-987,11,981
,226,2023-10-27 11:18:03.59,134,-147,-2047,57,3,7,-909,-928,19,918
,227,2023-10-27 11:18:03.60,127,-147,-2039,50,3,7,-958,-979,21,968
,228,2023-10-27 11:18:03.61,140,-151,-2046,46,6,9,-896,-925,29,910
,229,2023-10-27 11:18:03.62,134,-152,-2052,35,8,6,-945,-975,30,960
,230,2023-10-27 11:18:03.63,137,-142,-2061,36,9,8,-907,-940,33,923
,231,2023-10-27 11:18:03.64,145,-137,-2057,29,11,6,-967,-996,29,981
,232,2023-10-27 11:18:03.65,139,-132,-2057,24,11,1,-928,-950,22,939
,233,2023-10-27 11:18:03.66,149,-125,-2057,17,13,-5,-961,-980,19,970
,234,2023-10-27 11:18:03.67,145,-122,-2047,7,17,-14,-906,-938,32,922
,235,2023-10-27 11:18:03.68,146,-122,-2041,2,23,-23,-943,-979,36,961
,236,2023-10-27 11:18:03.69,137,-120,-2031,-2,22,-32,-905,-936,31,920
,237,2023-10-27 11:18:03.70,134,-121,-2041,4,-4,-36,-942,-965,23,953
,238,2023-10-27 11:18:03.71,181,-122,-2059,4,6,-45,-914,-933,19,923
,239,2023-10-27 11:18:03.72,152,-116,-2048,-6,37,-57,-949,-963,14,956
,240,2023-10-27 11:18:03.73,139,-121,-2046,-13,38,-66,-934,-946,12,940
,241,2023-10-27 11:18:03.74,151,-125,-2053,-11,26,-73,-972,-980,8,976
,242,2023-10-27 11:18:03.75,164,-122,-2056,-7,20,-79,-955,-963,8,959
,243,2023-10-27 11:18:03.76,162,-128,-2055,-2,28,-88,-966,-976,10,971
,244,2023-10-27 11:18:03.77,151,-132,-2075,-2,32,-93,-935,-947,12,941
,245,2023-10-27 11:18:03.78,141,-121,-2073,-1,24,-100,-933,-953,20,943
,246,2023-10-27 11:18:03.79,147,-117,-2051,7,5,-102,-927,-950,23,938
,247,2023-10-27 11:18:03.80,171,-122,-2066,17,-12,-105,-947,-969,22,958
,248,2023-10-27 11:18:03.81,160,-122,-2046,19,-2,-112,-943,-960,17,951
,249,2023-10-27 11:18:03.82,154,-124,-2046,23,7,-125,-944,-960,16,952
,250,2023-10-27 11:18:03.83,165,-127,-2041,25,12,-127,-939,-950,11,944
,251,2023-10-27 11:18:03.84,157,-125,-2048,31,12,-131,-937,-950,13,943
,252,2023-10-27 11:18:03.85,159,-129,-2050,37,12,-136,-937,-952,15,944
,253,2023-10-27 11:18:03.86,158,-133,-2050,43,19,-137,-930,-952,22,941
,254,2023-10-27 11:18:03.87,150,-130,-2038,43,26,-138,-948,-960,12,954
,255,2023-10-27 11:18:03.88,161,-128,-2051,42,22,-139,-946,-958,12,952
,256,2023-10-27 11:18:03.89,154,-137,-2055,41,27,-141,-958,-967,9,962
,257,2023-10-27 11:18:03.90,165,-140,-2052,37,28,-137,-932,-953,21,942
,258,2023-10-27 11:18:03.91,172,-143,-2043,42,25,-134,-935,-959,24,947
,259,2023-10-27 11:18:03.92,173,-152,-2039,43,25,-129,-911,-942,31,926
,260,2023-10-27 11:18:03.93,170,-158,-2044,43,32,-126,-936,-958,22,947
,261,2023-10-27 11:18:03.94,162,-156,-2047,43,40,-119,-916,-939,23,927
,262,2023-10-27 11:18:03.95,158,-153,-2043,43,40,-116,-944,-962,18,953
,263,2023-10-27 11:18:03.96,167,-149,-2048,44,36,-110,-920,-941,21,930
,264,2023-10-27 11:18:03.97,174,-143,-2051,45,33,-102,-952,-963,11,957
,265,2023-10-27 11:18:03.98,174,-153,-2045,41,45,-101,-924,-935,11,929
,266,2023-10-27 11:18:03.99,171,-163,-2043,43,46,-95,-962,-964,2,963
,267,2023-10-27 11:18:04.00,176,-171,-2046,51,46,-93,-916,-930,14,923
,268,2023-10-27 11:18:04.01,178,-178,-2048,61,57,-88,-954,-974,20,964
,269,2023-10-27 11:18:04.02,153,-171,-2043,77,46,-81,-907,-940,33,923
,270,2023-10-27 11:18:04.03,178,-176,-2060,86,37,-72,-943,-969,26,956
,271,2023-10-27 11:18:04.04,172,-169,-2058,88,47,-68,-907,-929,22,918
,272,2023-10-27 11:18:04.05,184,-151,-2038,93,47,-64,-954,-968,14,961
,273,2023-10-27 11:18:04.06,179,-155,-2042,95,47,-58,-901,-927,26,914
,274,2023-10-27 11:18:04.07,179,-167,-2060,90,44,-55,-945,-969,24,957
,275,2023-10-27 11:18:04.08,173,-158,-2072,86,43,-54,-891,-923,32,907
,276,2023-10-27 11:18:04.09,174,-153,-2071,83,41,-52,-951,-972,21,961
,277,2023-10-27 11:18:04.10,171,-157,-2080,84,33,-53,-878,-914,36,896
,278,2023-10-27 11:18:04.11,184,-158,-2071,80,39,-53,-931,-963,32,947
,279,2023-10-27 11:18:04.12,173,-158,-2050,73,47,-55,-867,-909,42,888
,280,2023-10-27 11:18:04.13,175,-164,-2048,75,27,-54,-942,-966,24,954
,281,2023-10-27 11:18:04.14,185,-174,-2054,79,20,-54,-886,-915,29,900
,282,2023-10-27 11:18:04.15,181,-177,-2046,80,29,-54,-952,-970,18,961
,283,2023-10-27 11:18:04.16,179,-173,-2045,80,28,-55,-878,-909,31,893
,284,2023-10-27 11:18:04.17,183,-169,-2043,79,26,-55,-944,-969,25,956
,285,2023-10-27 11:18:04.18,177,-164,-2042,73,31,-58,-870,-913,43,891
,286,2023-10-27 11:18:04.19,180,-167,-2049,71,12,-55,-958,-987,29,972
,287,2023-10-27 11:18:04.20,189,-163,-2060,69,14,-58,-895,-926,31,910
,288,2023-10-27 11:18:04.21,184,-166,-2055,61,24,-60,-972,-991,19,981
,289,2023-10-27 11:18:04.22,183,-173,-2051,55,19,-62,-898,-920,22,909
,290,2023-10-27 11:18:04.23,180,-174,-2046,47,16,-61,-979,-986,7,982
,291,2023-10-27 11:18:04.24,186,-180,-2048,44,9,-58,-889,-910,21,899
,292,2023-10-27 11:18:04.25,188,-183,-2045,45,1,-55,-957,-978,21,967
,293,2023-10-27 11:18:04.26,185,-181,-2031,47,2,-55,-854,-903,49,878
,294,2023-10-27 11:18:04.27,176,-198,-2037,46,6,-54,-951,-987,36,969
,295,2023-10-27 11:18:04.28,174,-192,-2057,46,6,-52,-884,-920,36,902
,296,2023-10-27 11:18:04.29,181,-185,-2056,47,1,-48,-990,-1005,15,997
,297,2023-10-27 11:18:04.30,187,-187,-2049,47,-6,-46,-897,-922,25,909
,298,2023-10-27 11:18:04.31,186,-188,-2061,43,-14,-42,-977,-989,12,983
,299,2023-10-27 11:18:04.32,170,-192,-2062,41,-17,-37,-874,-900,26,887
,300,2023-10-27 11:18:04.33,163,-185,-2054,36,-21,-36,-974,-989,15,981
,301,2023-10-27 11:18:04.34,198,-174,-2039,32,-21,-34,-876,-906,30,891
,302,2023-10-27 11:18:04.35,189,-184,-2038,26,-11,-37,-967,-996,29,981
,303,2023-10-27 11:18:04.36,184,-190,-2043,16,-7,-41,-845,-906,61,875
,304,2023-10-27 11:18:04.37,184,-198,-2045,15,-1,-39,-941,-977,36,959
,305,2023-10-27 11:18:04.38,186,-194,-2048,17,-3,-39,-856,-885,29,870
,306,2023-10-27 11:18:04.39,173,-190,-2044,18,-3,-38,-971,-974,3,972
,307,2023-10-27 11:18:04.40,170,-195,-2039,11,3,-35,-867,-891,24,879
,308,2023-10-27 11:18:04.41,172,-195,-2044,4,6,-32,-970,-990,20,980
,309,2023-10-27 11:18:04.42,189,-179,-2039,1,10,-28,-853,-901,48,877
,310,2023-10-27 11:18:04.43,197,-177,-2036,-9,15,-26,-958,-995,37,976
,311,2023-10-27 11:18:04.44,183,-165,-2036,-16,18,-25,-846,-899,53,872
,312,2023-10-27 11:18:04.45,183,-170,-2024,-28,26,-24,-962,-991,29,976
,313,2023-10-27 11:18:04.46,184,-186,-2037,-38,31,-22,-860,-896,36,878
,314,2023-10-27 11:18:04.47,202,-182,-2041,-36,34,-22,-977,-999,22,988
,315,2023-10-27 11:18:04.48,194,-187,-2049,-43,36,-19,-845,-900,55,872
,316,2023-10-27 11:18:04.49,183,-176,-2040,-44,30,-14,-962,-1001,39,981
,317,2023-10-27 11:18:04.50,188,-168,-2049,-37,10,-8,-865,-905,40,885
,318,2023-10-27 11:18:04.51,216,-182,-2054,-40,12,-7,-981,-998,17,989
,319,2023-10-27 11:18:04.52,188,-165,-2054,-44,33,-8,-857,-891,34,874
,320,2023-10-27 11:18:04.53,196,-181,-2052,-34,19,-7,-968,-992,24,980
,321,2023-10-27 11:18:04.54,203,-173,-2052,-26,7,-7,-856,-890,34,873
,322,2023-10-27 11:18:04.55,188,-176,-2051,-17,8,-7,-982,-992,10,987
,323,2023-10-27 11:18:04.56,204,-175,-2056,-10,13,-11,-869,-886,17,877
,324,2023-10-27 11:18:04.57,202,-172,-2060,-1,11,-12,-989,-996,7,992
,325,2023-10-27 11:18:04.58,199,-179,-2050,8,9,-12,-864,-892,28,878
,326,2023-10-27 11:18:04.59,184,-173,-2049,17,0,-10,-977,-993,16,985
,327,2023-10-27 11:18:04.60,195,-185,-2050,21,-3,-10,-858,-887,29,872
,328,2023-10-27 11:18:04.61,185,-190,-2055,23,-5,-8,-985,-1002,17,993
,329,2023-10-27 11:18:04.62,196,-189,-2050,28,-9,-1,-872,-895,23,883
,330,2023-10-27 11:18:04.63,197,-188,-2029,30,-5,4,-998,-1006,8,1002
,331,2023-10-27 11:18:04.64,202,-187,-2033,30,3,5,-879,-896,17,887
,332,2023-10-27 11:18:04.65,196,-186,-2026,27,12,10,-996,-1007,11,1001
,333,2023-10-27 11:18:04.66,196,-185,-2043,26,19,9,-874,-897,23,885
,334,2023-10-27 11:18:04.67,193,-179,-2047,26,16,12,-991,-1004,13,997
,335,2023-10-27 11:18:04.68,190,-189,-2047,23,18,16,-865,-895,30,880
,336,2023-10-27 11:18:04.69,191,-181,-2042,19,18,22,-990,-1012,22,1001
,337,2023-10-27 11:18:04.70,176,-185,-2049,14,16,24,-867,-899,32,883
,338,2023-10-27 11:18:04.71,195,-187,-2050,7,16,30,-988,-1003,15,995
,339,2023-10-27 11:18:04.72,206,-180,-2044,6,11,30,-864,-890,26,877
,340,2023-10-27 11:18:04.73,195,-172,-2040,6,5,32,-990,-1001,11,995
,341,2023-10-27 11:18:04.74,188,-171,-2030,9,2,28,-876,-893,17,884
,342,2023-10-27 11:18:04.75,198,-156,-2051,12,-10,26,-998,-1000,2,999
,343,2023-10-27 11:18:04.76,190,-156,-2058,0,-2,21,-866,-892,26,879
,344,2023-10-27 11:18:04.77,178,-157,-2068,-10,-5,16,-989,-1008,19,998
,345,2023-10-27 11:18:04.78,192,-184,-2068,-17,-11,17,-863,-900,37,881
,346,2023-10-27 11:18:04.79,182,-196,-2063,-18,-19,15,-975,-1004,29,989
,347,2023-10-27 11:18:04.80,194,-191,-2062,-8,-26,17,-858,-892,34,875
,348,2023-10-27 11:18:04.81,171,-183,-2064,2,-32,16,-995,-1009,14,1002
,349,2023-10-27 11:18:04.82,151,-202,-2082,5,-36,12,-884,-900,16,892
,350,2023-10-27 11:18:04.83,126,-232,-2099,5,-48,23,-999,-1003,4,1001
,351,2023-10-27 11:18:04.84,132,-245,-2110,17,-72,42,-877,-893,16,885
,352,2023-10-27 11:18:04.85,163,-239,-2087,30,-90,63,-988,-999,11,993
,353,2023-10-27 11:18:04.86,169,-213,-2043,35,-77,71,-870,-897,27,883
,354,2023-10-27 11:18:04.87,154,-199,-2012,17,-45,66,-996,-1003,7,999
,355,2023-10-27 11:18:04.88,160,-183,-1993,-12,-22,67,-890,-906,16,898
,356,2023-10-27 11:18:04.89,176,-165,-1988,-31,-9,67,-1000,-1008,8,1004
,357,2023-10-27 11:18:04.90,186,-172,-1981,-31,0,62,-882,-900,18,891
,358,2023-10-27 11:18:04.91,196,-182,-1993,-31,21,54,-979,-991,12,985
,359,2023-10-27 11:18:04.92,192,-192,-2016,-40,52,47,-864,-890,26,877
,360,2023-10-27 11:18:04.93,196,-192,-1998,-46,80,40,-978,-992,14,985
,361,2023-10-27 11:18:04.94,208,-197,-2004,-40,107,33,-875,-899,24,887
,362,2023-10-27 11:18:04.95,218,-192,-2002,-32,128,27,-975,-1002,27,988
,363,2023-10-27 11:18:04.96,193,-186,-1983,-34,131,25,-860,-904,44,882
,364,2023-10-27 11:18:04.97,171,-168,-2020,-17,86,35,-976,-996,20,986
,365,2023-10-27 11:18:04.98,244,-168,-2061,-4,60,38,-885,-903,18,894
,366,2023-10-27 11:18:04.99,215,-156,-2059,-7,73,30,-990,-1004,14,997
,367,2023-10-27 11:18:05.00,234,-147,-2065,-14,68,23,-887,-915,28,901
,368,2023-10-27 11:18:05.01,243,-135,-2066,-35,67,17,-980,-1002,22,991
,369,2023-10-27 11:18:05.02,229,-139,-2077,-56,76,7,-877,-911,34,894
,370,2023-10-27 11:18:05.03,223,-149,-2074,-68,60,3,-977,-999,22,988
,371,2023-10-27 11:18:05.04,238,-141,-2077,-76,53,3,-889,-910,21,899
,372,2023-10-27 11:18:05.05,228,-163,-2093,-84,41,0,-984,-987,3,985
,373,2023-10-27 11:18:05.06,225,-157,-2087,-101,33,5,-891,-910,19,900
,374,2023-10-27 11:18:05.07,202,-163,-2060,-98,13,7,-982,-1001,19,991
,375,2023-10-27 11:18:05.08,200,-173,-2063,-82,-18,14,-895,-919,24,907
,376,2023-10-27 11:18:05.09,201,-173,-2060,-72,-40,21,-987,-995,8,991
,377,2023-10-27 11:18:05.10,199,-172,-2055,-66,-56,27,-903,-918,15,910
,378,2023-10-27 11:18:05.11,199,-174,-2072,-61,-72,35,-989,-1000,11,994
,379,2023-10-27 11:18:05.12,196,-172,-2086,-55,-82,44,-912,-921,9,916
,380,2023-10-27 11:18:05.13,229,-162,-2094,-58,-73,41,-988,-985,-3,986
,381,2023-10-27 11:18:05.14,176,-142,-2035,-61,-82,37,-903,-912,9,907
,382,2023-10-27 11:18:05.15,180,-141,-2033,-61,-93,38,-968,-984,16,976
,383,2023-10-27 11:18:05.16,180,-151,-2052,-74,-82,38,-887,-915,28,901
,384,2023-10-27 11:18:05.17,183,-141,-2062,-88,-79,41,-957,-983,26,970
,385,2023-10-27 11:18:05.18,180,-122,-2072,-95,-86,45,-884,-918,34,901
,386,2023-10-27 11:18:05.19,197,-115,-2065,-107,-80,46,-946,-979,33,962
,387,2023-10-27 11:18:05.20,170,-118,-2037,-121,-60,37,-877,-920,43,898
,388,2023-10-27 11:18:05.21,170,-128,-2049,-133,-52,34,-948,-986,38,967
,389,2023-10-27 11:18:05.22,151,-136,-2067,-134,-64,38,-890,-929,39,909
,390,2023-10-27 11:18:05.23,148,-131,-2055,-125,-70,40,-936,-976,40,956
,391,2023-10-27 11:18:05.24,169,-119,-2038,-109,-75,45,-863,-921,58,892
,392,2023-10-27 11:18:05.25,165,-119,-2040,-105,-69,51,-931,-970,39,950
,393,2023-10-27 11:18:05.26,144,-117,-2038,-108,-56,50,-902,-927,25,914
,394,2023-10-27 11:18:05.27,160,-117,-2044,-108,-51,53,-974,-984,10,979
,395,2023-10-27 11:18:05.28,153,-99,-2032,-99,-48,59,-932,-945,13,938
,396,2023-10-27 11:18:05.29,169,-101,-2034,-91,-46,60,-976,-992,16,984
,397,2023-10-27 11:18:05.30,155,-106,-2040,-89,-33,61,-918,-940,22,929
,398,2023-10-27 11:18:05.31,152,-96,-2044,-90,-23,58,-950,-973,23,961
,399,2023-10-27 11:18:05.32,158,-98,-2055,-81,-15,56,-920,-943,23,931
,400,2023-10-27 11:18:05.33,145,-80,-2062,-74,-18,53,-972,-989,17,980
,401,2023-10-27 11:18:05.34,146,-68,-2062,-68,-19,51,-944,-959,15,951
,402,2023-10-27 11:18:05.35,157,-64,-2068,-66,-14,44,-968,-987,19,977
,403,2023-10-27 11:18:05.36,169,-62,-2044,-62,-17,33,-931,-949,18,940
,404,2023-10-27 11:18:05.37,178,-64,-2039,-54,-12,25,-944,-965,21,954
,405,2023-10-27 11:18:05.38,171,-71,-2039,-46,-12,11,-916,-941,25,928
,406,2023-10-27 11:18:05.39,175,-64,-2045,-43,-9,3,-932,-966,34,949
,407,2023-10-27 11:18:05.40,171,-64,-2041,-41,-2,-7,-914,-950,36,932
,408,2023-10-27 11:18:05.41,161,-65,-2040,-35,1,-18,-940,-968,28,954
,409,2023-10-27 11:18:05.42,159,-72,-2047,-28,5,-25,-927,-946,19,936
,410,2023-10-27 11:18:05.43,158,-77,-2054,-24,4,-29,-917,-955,38,936
,411,2023-10-27 11:18:05.44,166,-66,-2063,-23,0,-31,-891,-939,48,915
,412,2023-10-27 11:18:05.45,162,-68,-2053,-23,-3,-27,-905,-947,42,926
,413,2023-10-27 11:18:05.46,161,-85,-2055,-20,-7,-25,-911,-943,32,927
,414,2023-10-27 11:18:05.47,160,-93,-2057,-14,-12,-20,-905,-947,42,926
,415,2023-10-27 11:18:05.48,154,-90,-2044,-11,-16,-12,-899,-950,51,924
,416,2023-10-27 11:18:05.49,166,-92,-2053,-8,-14,-6,-889,-954,65,921
,417,2023-10-27 11:18:05.50,159,-80,-2052,-7,-11,0,-888,-949,61,918
,418,2023-10-27 11:18:05.51,145,-86,-2052,-2,-10,6,-882,-939,57,910
,419,2023-10-27 11:18:05.52,154,-100,-2071,1,-12,14,-911,-946,35,928
,420,2023-10-27 11:18:05.53,160,-92,-2066,3,-18,19,-924,-947,23,935
,421,2023-10-27 11:18:05.54,158,-94,-2056,5,-14,28,-944,-960,16,952
,422,2023-10-27 11:18:05.55,167,-93,-2063,-3,0,34,-927,-947,20,937
,423,2023-10-27 11:18:05.56,148,-74,-2046,-9,10,38,-944,-957,13,950
,424,2023-10-27 11:18:05.57,149,-70,-2054,-12,5,44,-915,-938,23,926
,425,2023-10-27 11:18:05.58,163,-71,-2049,-18,8,46,-932,-958,26,945
,426,2023-10-27 11:18:05.59,153,-71,-2050,-19,12,44,-907,-941,34,924
,427,2023-10-27 11:18:05.60,168,-73,-2049,-19,17,44,-936,-961,25,948
,428,2023-10-27 11:18:05.61,160,-71,-2047,-13,22,41,-899,-938,39,918
,429,2023-10-27 11:18:05.62,165,-61,-2046,-7,29,32,-927,-961,34,944
,430,2023-10-27 11:18:05.63,171,-62,-2051,-2,32,23,-890,-930,40,910
,431,2023-10-27 11:18:05.64,169,-56,-2054,2,35,15,-927,-954,27,940
,432,2023-10-27 11:18:05.65,155,-60,-2062,9,30,5,-884,-923,39,903
,433,2023-10-27 11:18:05.66,155,-70,-2063,14,23,2,-929,-956,27,942
,434,2023-10-27 11:18:05.67,166,-77,-2059,31,16,-1,-881,-918,37,899
,435,2023-10-27 11:18:05.68,163,-88,-2051,32,17,-1,-929,-958,29,943
,436,2023-10-27 11:18:05.69,185,-89,-2058,31,20,0,-883,-920,37,901
,437,2023-10-27 11:18:05.70,162,-84,-2058,33,17,4,-927,-961,34,944
,438,2023-10-27 11:18:05.71,167,-93,-2056,39,12,9,-872,-917,45,894
,439,2023-10-27 11:18:05.72,172,-93,-2055,40,10,16,-924,-960,36,942
,440,2023-10-27 11:18:05.73,167,-86,-2057,36,8,21,-871,-923,52,897
,441,2023-10-27 11:18:05.74,172,-92,-2049,34,12,26,-922,-963,41,942
,442,2023-10-27 11:18:05.75,172,-93,-2055,35,11,32,-853,-915,62,884
,443,2023-10-27 11:18:05.76,176,-96,-2050,40,7,33,-921,-970,49,945
,444,2023-10-27 11:18:05.77,177,-90,-2052,40,7,32,-884,-923,39,903
,445,2023-10-27 11:18:05.78,177,-94,-2050,41,4,32,-969,-979,10,974
,446,2023-10-27 11:18:05.79,184,-84,-2057,45,3,30,-906,-922,16,914
,447,2023-10-27 11:18:05.80,172,-81,-2046,50,5,23,-965,-985,20,975
,448,2023-10-27 11:18:05.81,180,-78,-2046,51,2,17,-885,-922,37,903
,449,2023-10-27 11:18:05.82,176,-72,-2050,48,4,9,-964,-992,28,978
,450,2023-10-27 11:18:05.83,173,-77,-2047,44,5,2,-901,-932,31,916
,451,2023-10-27 11:18:05.84,176,-85,-2058,40,4,-5,-986,-1004,18,995
,452,2023-10-27 11:18:05.85,166,-85,-2061,44,-2,-12,-906,-931,25,918
,453,2023-10-27 11:18:05.86,173,-87,-2046,45,-4,-13,-982,-994,12,988
,454,2023-10-27 11:18:05.87,178,-103,-2050,39,-2,-14,-894,-917,23,905
,455,2023-10-27 11:18:05.88,175,-98,-2049,34,-2,-13,-978,-993,15,985
,456,2023-10-27 11:18:05.89,174,-91,-2044,33,-2,-17,-899,-918,19,908
,457,2023-10-27 11:18:05.90,165,-92,-2050,35,-4,-17,-993,-993,0,993
,458,2023-10-27 11:18:05.91,159,-105,-2052,31,-2,-15,-901,-911,10,906
,459,2023-10-27 11:18:05.92,167,-105,-2070,30,-5,-11,-977,-985,8,981
,460,2023-10-27 11:18:05.93,160,-112,-2068,30,-14,-5,-870,-902,32,886
,461,2023-10-27 11:18:05.94,147,-123,-2080,31,-25,2,-960,-984,24,972
,462,2023-10-27 11:18:05.95,155,-119,-2068,34,-29,14,-873,-905,32,889
,463,2023-10-27 11:18:05.96,158,-122,-2052,36,-29,23,-972,-996,24,984
,464,2023-10-27 11:18:05.97,161,-140,-2056,35,-23,29,-877,-910,33,893
,465,2023-10-27 11:18:05.98,171,-127,-2056,24,-1,34,-986,-1000,14,993
,466,2023-10-27 11:18:05.99,157,-124,-2042,21,10,39,-889,-910,21,899
,467,2023-10-27 11:18:06.00,168,-116,-2037,30,3,48,-989,-990,1,989
,468,2023-10-27 11:18:06.01,171,-100,-2050,41,-2,49,-883,-896,13,889
,469,2023-10-27 11:18:06.02,154,-92,-2053,42,-1,43,-987,-990,3,988
,470,2023-10-27 11:18:06.03,151,-85,-2053,39,5,39,-885,-902,17,893
,471,2023-10-27 11:18:06.04,159,-82,-2060,33,6,31,-998,-1003,5,1000
,472,2023-10-27 11:18:06.05,151,-81,-2055,31,-2,23,-886,-909,23,897
,473,2023-10-27 11:18:06.06,173,-75,-2047,30,5,10,-969,-992,23,980
,474,2023-10-27 11:18:06.07,172,-80,-2054,24,11,-4,-833,-892,59,862
,475,2023-10-27 11:18:06.08,151,-98,-2056,23,5,-15,-942,-983,41,962
,476,2023-10-27 11:18:06.09,164,-101,-2072,31,-18,-22,-850,-893,43,871
,477,2023-10-27 11:18:06.10,164,-98,-2066,44,-29,-28,-986,-1006,20,996
,478,2023-10-27 11:18:06.11,163,-101,-2064,43,-20,-32,-886,-907,21,896
,479,2023-10-27 11:18:06.12,145,-107,-2061,31,-5,-41,-1008,-1010,2,1009
,480,2023-10-27 11:18:06.13,144,-121,-2060,25,-8,-35,-892,-904,12,898
,481,2023-10-27 11:18:06.14,144,-126,-2063,29,-25,-25,-1008,-1016,8,1012
,482,2023-10-27 11:18:06.15,162,-127,-2047,34,-24,-18,-885,-902,17,893
,483,2023-10-27 11:18:06.16,143,-131,-2034,30,-6,-11,-992,-997,5,994
,484,2023-10-27 11:18:06.17,155,-139,-2041,18,3,-2,-865,-887,22,876
,485,2023-10-27 11:18:06.18,141,-131,-2050,14,4,13,-992,-998,6,995
,486,2023-10-27 11:18:06.19,159,-125,-2044,19,6,22,-877,-893,16,885
,487,2023-10-27 11:18:06.20,160,-117,-2029,20,13,29,-982,-995,13,988
,488,2023-10-27 11:18:06.21,175,-117,-2033,12,31,34,-849,-886,37,867
,489,2023-10-27 11:18:06.22,161,-112,-2038,-2,46,33,-970,-995,25,982
,490,2023-10-27 11:18:06.23,161,-108,-2048,-5,52,35,-856,-891,35,873
,491,2023-10-27 11:18:06.24,157,-101,-2053,-3,50,35,-991,-1004,13,997
,492,2023-10-27 11:18:06.25,172,-103,-2054,4,50,31,-876,-894,18,885
,493,2023-10-27 11:18:06.26,180,-98,-2041,8,46,24,-988,-998,10,993
,494,2023-10-27 11:18:06.27,168,-111,-2050,10,46,18,-859,-886,27,872
,495,2023-10-27 11:18:06.28,162,-105,-2065,16,36,15,-973,-991,18,982
,496,2023-10-27 11:18:06.29,171,-93,-2063,25,23,14,-847,-883,36,865
,497,2023-10-27 11:18:06.30,177,-90,-2071,32,16,6,-980,-996,16,988
,498,2023-10-27 11:18:06.31,176,-99,-2056,35,10,-1,-849,-891,42,870
,499,2023-10-27 11:18:06.32,172,-108,-2058,39,10,-9,-968,-1000,32,984
,500,2023-10-27 11:18:06.33,179,-119,-2057,42,5,-14,-845,-891,46,868
,501,2023-10-27 11:18:06.34,172,-114,-2052,49,4,-16,-960,-1006,46,983
,502,2023-10-27 11:18:06.35,171,-112,-2043,53,0,-20,-814,-899,85,856
,503,2023-10-27 11:18:06.36,169,-132,-2053,55,-3,-22,-954,-1013,59,983
,504,2023-10-27 11:18:06.37,168,-138,-2052,58,-6,-17,-862,-896,34,879
,505,2023-10-27 11:18:06.38,180,-143,-2053,65,-11,-14,-993,-995,2,994
,506,2023-10-27 11:18:06.39,163,-139,-2042,68,-14,-9,-869,-883,14,876
,507,2023-10-27 11:18:06.40,171,-134,-2049,67,-16,-5,-991,-995,4,993
,508,2023-10-27 11:18:06.41,163,-144,-2043,65,-13,-1,-870,-889,19,879
,509,2023-10-27 11:18:06.42,164,-141,-2052,61,-11,6,-994,-999,5,996
,510,2023-10-27 11:18:06.43,177,-155,-2077,56,-5,11,-867,-889,22,878
,511,2023-10-27 11:18:06.44,148,-162,-2041,39,21,11,-986,-999,13,992
,512,2023-10-27 11:18:06.45,150,-158,-2057,38,6,22,-870,-893,23,881
,513,2023-10-27 11:18:06.46,187,-159,-2055,34,4,31,-996,-1006,10,1001
,514,2023-10-27 11:18:06.47,157,-153,-2043,32,24,30,-871,-899,28,885
,515,2023-10-27 11:18:06.48,156,-142,-2045,29,13,40,-991,-1010,19,1000
,516,2023-10-27 11:18:06.49,167,-141,-2037,23,20,41,-869,-899,30,884
,517,2023-10-27 11:18:06.50,166,-135,-2042,13,32,42,-981,-995,14,988
,518,2023-10-27 11:18:06.51,175,-134,-2036,6,39,37,-865,-886,21,875
,519,2023-10-27 11:18:06.52,181,-125,-2045,4,46,32,-998,-993,-5,995
,520,2023-10-27 11:18:06.53,155,-116,-2047,-5,50,27,-891,-897,6,894
,521,2023-10-27 11:18:06.54,164,-119,-2057,-7,50,22,-1003,-1010,7,1006
,522,2023-10-27 11:18:06.55,165,-120,-2059,-9,43,18,-887,-915,28,901
,523,2023-10-27 11:18:06.56,161,-119,-2058,-8,35,12,-990,-1013,23,1001
,524,2023-10-27 11:18:06.57,169,-117,-2052,-9,32,7,-880,-914,34,897
,525,2023-10-27 11:18:06.58,174,-108,-2053,-12,32,2,-985,-1011,26,998
,526,2023-10-27 11:18:06.59,180,-105,-2035,-16,32,-4,-872,-913,41,892
,527,2023-10-27 11:18:06.60,188,-114,-2047,-19,34,-13,-978,-1005,27,991
,528,2023-10-27 11:18:06.61,162,-113,-2059,-24,29,-16,-876,-906,30,891
,529,2023-10-27 11:18:06.62,169,-107,-2057,-23,27,-21,-983,-998,15,990
,530,2023-10-27 11:18:06.63,171,-121,-2066,-22,22,-24,-881,-905,24,893
,531,2023-10-27 11:18:06.64,165,-114,-2054,-16,3,-26,-982,-996,14,989
,532,2023-10-27 11:18:06.65,189,-115,-2058,-8,-15,-25,-876,-903,27,889
,533,2023-10-27 11:18:06.66,198,-114,-2050,-13,6,-30,-959,-990,31,974
,534,2023-10-27 11:18:06.67,173,-105,-2055,-20,14,-32,-857,-906,49,881
,535,2023-10-27 11:18:06.68,185,-113,-2041,-20,16,-37,-951,-996,45,973
,536,2023-10-27 11:18:06.69,174,-119,-2042,-15,13,-37,-855,-909,54,882
,537,2023-10-27 11:18:06.70,183,-126,-2053,-3,5,-35,-957,-991,34,974
,538,2023-10-27 11:18:06.71,184,-117,-2050,-5,15,-40,-876,-910,34,893
,539,2023-10-27 11:18:06.72,190,-109,-2050,-3,19,-40,-969,-990,21,979
,540,2023-10-27 11:18:06.73,178,-115,-2064,1,7,-40,-882,-910,28,896
,541,2023-10-27 11:18:06.74,185,-113,-2064,6,1,-40,-975,-989,14,982
,542,2023-10-27 11:18:06.75,194,-114,-2055,9,0,-39,-901,-919,18,910
,543,2023-10-27 11:18:06.76,181,-104,-2053,9,-1,-40,-981,-1001,20,991
,544,2023-10-27 11:18:06.77,181,-98,-2066,13,2,-43,-899,-927,28,913
,545,2023-10-27 11:18:06.78,177,-103,-2053,11,-1,-44,-972,-993,21,982
,546,2023-10-27 11:18:06.79,195,-102,-2056,15,-9,-44,-895,-920,25,907
,547,2023-10-27 11:18:06.80,190,-108,-2047,19,-15,-45,-971,-986,15,978
,548,2023-10-27 11:18:06.81,186,-110,-2038,24,-15,-45,-909,-926,17,917
,549,2023-10-27 11:18:06.82,183,-113,-2050,19,-7,-46,-982,-994,12,988
,550,2023-10-27 11:18:06.83,190,-114,-2048,22,-3,-46,-915,-929,14,922
,551,2023-10-27 11:18:06.84,173,-113,-2057,25,-7,-44,-977,-981,4,979
,552,2023-10-27 11:18:06.85,187,-116,-2052,30,-15,-40,-917,-920,3,918
,553,2023-10-27 11:18:06.86,180,-106,-2043,33,-15,-39,-978,-978,0,978
,554,2023-10-27 11:18:06.87,179,-107,-2052,32,-16,-41,-928,-928,0,928
,555,2023-10-27 11:18:06.88,175,-119,-2052,34,-14,-36,-977,-976,-1,976
,556,2023-10-27 11:18:06.89,178,-127,-2059,33,-18,-33,-920,-928,8,924
,557,2023-10-27 11:18:06.90,171,-131,-2053,43,-24,-27,-964,-974,10,969
,558,2023-10-27 11:18:06.91,175,-127,-2061,47,-27,-23,-909,-925,16,917
,559,2023-10-27 11:18:06.92,174,-131,-2058,55,-30,-20,-944,-964,20,954
,560,2023-10-27 11:18:06.93,173,-122,-2060,57,-30,-17,-894,-923,29,908
,561,2023-10-27 11:18:06.94,171,-127,-2056,57,-26,-16,-936,-958,22,947
,562,2023-10-27 11:18:06.95,161,-129,-2051,61,-24,-16,-906,-924,18,915
,563,2023-10-27 11:18:06.96,171,-128,-2053,64,-24,-15,-953,-966,13,959
,564,2023-10-27 11:18:06.97,169,-138,-2053,66,-26,-13,-917,-929,12,923
,565,2023-10-27 11:18:06.98,177,-129,-2058,64,-22,-12,-945,-953,8,949
,566,2023-10-27 11:18:06.99,193,-126,-2063,51,-7,-13,-921,-927,6,924
,567,2023-10-27 11:18:07.00,162,-115,-2035,42,4,-17,-962,-962,0,962
,568,2023-10-27 11:18:07.01,171,-124,-2032,40,9,-19,-932,-938,6,935
,569,2023-10-27 11:18:07.02,159,-139,-2060,46,-5,-15,-944,-962,18,953
,570,2023-10-27 11:18:07.03,171,-139,-2044,51,-13,-14,-913,-935,22,924
,571,2023-10-27 11:18:07.04,174,-141,-2051,52,-8,-11,-929,-951,22,940
,572,2023-10-27 11:18:07.05,182,-133,-2038,49,0,-12,-915,-931,16,923
,573,2023-10-27 11:18:07.06,171,-124,-2042,45,8,-13,-927,-949,22,938
,574,2023-10-27 11:18:07.07,182,-125,-2050,39,7,-16,-923,-947,24,935
,575,2023-10-27 11:18:07.08,171,-125,-2053,37,14,-21,-947,-968,21,957
,576,2023-10-27 11:18:07.09,161,-124,-2055,40,4,-25,-946,-964,18,955
,577,2023-10-27 11:18:07.10,176,-133,-2058,45,-9,-27,-939,-965,26,952
,578,2023-10-27 11:18:07.11,157,-134,-2048,51,-12,-31,-920,-947,27,933
,579,2023-10-27 11:18:07.12,181,-130,-2061,54,-25,-35,-915,-938,23,926
,580,2023-10-27 11:18:07.13,194,-127,-2049,56,-18,-43,-927,-944,17,935
,581,2023-10-27 11:18:07.14,166,-130,-2066,61,-24,-48,-928,-951,23,939
,582,2023-10-27 11:18:07.15,176,-150,-2060,60,-30,-52,-928,-951,23,939
,583,2023-10-27 11:18:07.16,170,-148,-2074,62,-34,-50,-912,-943,31,927
,584,2023-10-27 11:18:07.17,179,-149,-2040,60,-40,-50,-920,-956,36,938
,585,2023-10-27 11:18:07.18,183,-140,-2041,57,-33,-50,-912,-950,38,931
,586,2023-10-27 11:18:07.19,176,-127,-2040,47,-23,-53,-929,-953,24,941
,587,2023-10-27 11:18:07.20,175,-126,-2043,30,-10,-58,-915,-935,20,925
,588,2023-10-27 11:18:07.21,197,-124,-2067,20,-1,-64,-946,-959,13,952
,589,2023-10-27 11:18:07.22,170,-135,-2062,14,-7,-68,-930,-950,20,940
,590,2023-10-27 11:18:07.23,177,-140,-2063,16,-15,-68,-956,-976,20,966
,591,2023-10-27 11:18:07.24,164,-153,-2072,23,-28,-67,-929,-959,30,944
,592,2023-10-27 11:18:07.25,168,-173,-2059,32,-36,-64,-958,-982,24,970
,593,2023-10-27 11:18:07.26,163,-176,-2069,39,-42,-53,-933,-956,23,944
,594,2023-10-27 11:18:07.27,155,-190,-2078,38,-34,-47,-969,-983,14,976
,595,2023-10-27 11:18:07.28,144,-180,-2087,38,-29,-42,-940,-960,20,950
,596,2023-10-27 11:18:07.29,138,-192,-2063,43,-44,-27,-969,-987,18,978
,597,2023-10-27 11:18:07.30,147,-182,-2051,52,-52,-21,-917,-950,33,933
,598,2023-10-27 11:18:07.31,140,-193,-2038,60,-68,-11,-939,-976,37,957
,599,2023-10-27 11:18:07.32,144,-184,-2036,59,-76,0,-859,-940,81,899
,600,2023-10-27 11:18:07.33,146,-180,-2050,57,-71,6,-904,-977,73,940
,601,2023-10-27 11:18:07.34,139,-184,-2032,51,-55,12,-897,-942,45,919
,602,2023-10-27 11:18:07.35,128,-184,-2029,49,-56,19,-974,-980,6,977
,603,2023-10-27 11:18:07.36,144,-188,-2028,47,-53,28,-926,-935,9,930
,604,2023-10-27 11:18:07.37,142,-183,-2028,43,-44,33,-976,-981,5,978
,605,2023-10-27 11:18:07.38,130,-182,-2034,41,-39,38,-909,-938,29,923
,606,2023-10-27 11:18:07.39,142,-178,-2036,41,-38,42,-959,-989,30,974
,607,2023-10-27 11:18:07.40,151,-182,-2029,34,-23,44,-884,-934,50,909
,608,2023-10-27 11:18:07.41,134,-167,-2048,32,-18,43,-940,-983,43,961
,609,2023-10-27 11:18:07.42,159,-164,-2044,21,-4,43,-887,-932,45,909
,610,2023-10-27 11:18:07.43,149,-158,-2050,14,1,38,-970,-998,28,984
,611,2023-10-27 11:18:07.44,142,-159,-2062,7,1,35,-916,-945,29,930
,612,2023-10-27 11:18:07.45,146,-169,-2071,5,0,30,-980,-995,15,987
,613,2023-10-27 11:18:07.46,144,-158,-2060,7,-10,27,-885,-930,45,907
,614,2023-10-27 11:18:07.47,142,-155,-2052,9,-11,20,-950,-991,41,970
,615,2023-10-27 11:18:07.48,148,-157,-2054,10,-13,15,-901,-931,30,916
,616,2023-10-27 11:18:07.49,142,-157,-2056,11,-20,6,-993,-999,6,996
,617,2023-10-27 11:18:07.50,144,-165,-2057,18,-32,1,-919,-930,11,924
,618,2023-10-27 11:18:07.51,144,-169,-2057,31,-41,-1,-996,-1000,4,998
,619,2023-10-27 11:18:07.52,157,-173,-2074,44,-45,-3,-913,-932,19,922
,620,2023-10-27 11:18:07.53,169,-187,-2059,33,-7,-19,-991,-1002,11,996
,621,2023-10-27 11:18:07.54,125,-180,-2067,27,11,-26,-904,-924,20,914
,622,2023-10-27 11:18:07.55,128,-194,-2071,24,-3,-20,-986,-996,10,991
,623,2023-10-27 11:18:07.56,119,-193,-2084,31,-15,-14,-898,-916,18,907
,624,2023-10-27 11:18:07.57,120,-200,-2083,47,-57,-4,-991,-994,3,992
,625,2023-10-27 11:18:07.58,129,-196,-2054,49,-71,5,-907,-913,6,910
,626,2023-10-27 11:18:07.59,110,-190,-2050,28,-51,13,-1003,-999,-4,1001
,627,2023-10-27 11:18:07.60,101,-202,-2039,5,-42,19,-906,-916,10,911
,628,2023-10-27 11:18:07.61,109,-200,-2044,-2,-53,34,-984,-981,-3,982
,629,2023-10-27 11:18:07.62,120,-192,-2045,6,-71,44,-870,-897,27,883
,630,2023-10-27 11:18:07.63,130,-191,-2020,7,-62,52,-968,-997,29,982
,631,2023-10-27 11:18:07.64,133,-194,-2019,-2,-43,58,-873,-915,42,894
,632,2023-10-27 11:18:07.65,111,-182,-2009,-20,-13,57,-984,-1005,21,994
,633,2023-10-27 11:18:07.66,130,-174,-2024,-29,-7,59,-888,-909,21,898
,634,2023-10-27 11:18:07.67,136,-179,-2015,-31,6,58,-997,-1001,4,999
,635,2023-10-27 11:18:07.68,130,-158,-2022,-34,23,57,-896,-907,11,901
,636,2023-10-27 11:18:07.69,146,-157,-2023,-44,39,54,-1007,-1011,4,1009
,637,2023-10-27 11:18:07.70,148,-154,-2034,-61,62,44,-894,-916,22,905
,638,2023-10-27 11:18:07.71,138,-151,-2048,-72,76,38,-995,-1005,10,1000
,639,2023-10-27 11:18:07.72,152,-136,-2049,-71,78,34,-887,-902,15,894
,640,2023-10-27 11:18:07.73,150,-133,-2046,-69,78,29,-1006,-1008,2,1007
,641,2023-10-27 11:18:07.74,108,-133,-2025,-60,55,16,-904,-914,10,909
,642,2023-10-27 11:18:07.75,157,-122,-2075,-40,16,17,-1024,-1017,-7,1020
,643,2023-10-27 11:18:07.76,166,-128,-2083,-28,1,14,-910,-914,4,912
,644,2023-10-27 11:18:07.77,172,-106,-2055,-28,29,-2,-1015,-1016,1,1015
,645,2023-10-27 11:18:07.78,142,-120,-2073,-41,46,-15,-897,-909,12,903
,646,2023-10-27 11:18:07.79,143,-121,-2076,-49,32,-23,-1011,-1011,0,1011
,647,2023-10-27 11:18:07.80,135,-135,-2086,-35,8,-25,-892,-905,13,898
,648,2023-10-27 11:18:07.81,140,-148,-2076,-4,-27,-25,-1003,-1006,3,1004
,649,2023-10-27 11:18:07.82,138,-154,-2062,19,-48,-20,-886,-898,12,892
,650,2023-10-27 11:18:07.83,129,-165,-2057,28,-51,-18,-1000,-999,-1,999
,651,2023-10-27 11:18:07.84,138,-172,-2058,35,-49,-13,-876,-888,12,882
,652,2023-10-27 11:18:07.85,140,-177,-2059,52,-50,-6,-988,-993,5,990
,653,2023-10-27 11:18:07.86,119,-178,-2059,65,-49,-1,-860,-889,29,874
,654,2023-10-27 11:18:07.87,153,-171,-2071,57,-29,8,-987,-1007,20,997
,655,2023-10-27 11:18:07.88,100,-181,-2038,42,-9,10,-876,-902,26,889
,656,2023-10-27 11:18:07.89,115,-172,-2045,41,-15,23,-1004,-1018,14,1011
,657,2023-10-27 11:18:07.90,129,-177,-2037,36,-3,34,-882,-907,25,894
,658,2023-10-27 11:18:07.91,118,-170,-2033,30,9,42,-1002,-1010,8,1006
,659,2023-10-27 11:18:07.92,132,-167,-2029,23,8,51,-884,-894,10,889
,660,2023-10-27 11:18:07.93,130,-158,-2031,10,23,55,-1005,-1001,-4,1003
,661,2023-10-27 11:18:07.94,130,-156,-2043,0,35,52,-881,-892,11,886
,662,2023-10-27 11:18:07.95,133,-153,-2041,-7,39,56,-1006,-1005,-1,1005
,663,2023-10-27 11:18:07.96,136,-148,-2035,-16,53,51,-890,-899,9,894
,664,2023-10-27 11:18:07.97,136,-143,-2043,-23,60,47,-1022,-1018,-4,1020
,665,2023-10-27 11:18:07.98,142,-133,-2042,-30,65,38,-897,-904,7,900
,666,2023-10-27 11:18:07.99,136,-125,-2042,-33,66,29,-1012,-1009,-3,1010
,667,2023-10-27 11:18:08.00,155,-120,-2045,-33,63,20,-877,-894,17,885
,668,2023-10-27 11:18:08.01,139,-123,-2056,-34,59,10,-991,-1003,12,997
,669,2023-10-27 11:18:08.02,124,-132,-2035,-23,42,2,-872,-891,19,881
,670,2023-10-27 11:18:08.03,137,-122,-2057,-9,18,0,-999,-1000,1,999
,671,2023-10-27 11:18:08.04,168,-123,-2067,-1,12,-11,-883,-892,9,887
,672,2023-10-27 11:18:08.05,163,-119,-2056,1,20,-22,-996,-998,2,997
,673,2023-10-27 11:18:08.06,154,-132,-2060,0,27,-34,-873,-893,20,883
,674,2023-10-27 11:18:08.07,157,-137,-2060,3,29,-42,-996,-1007,11,1001
,675,2023-10-27 11:18:08.08,163,-141,-2061,12,18,-49,-886,-902,16,894
,676,2023-10-27 11:18:08.09,166,-149,-2072,25,10,-54,-1001,-1001,0,1001
,677,2023-10-27 11:18:08.10,158,-162,-2067,30,13,-57,-879,-896,17,887
,678,2023-10-27 11:18:08.11,151,-160,-2062,38,8,-53,-980,-998,18,989
,679,2023-10-27 11:18:08.12,154,-169,-2045,40,6,-49,-869,-892,23,880
,680,2023-10-27 11:18:08.13,143,-172,-2047,45,7,-41,-994,-999,5,996
,681,2023-10-27 11:18:08.14,153,-169,-2049,46,13,-33,-871,-894,23,882
,682,2023-10-27 11:18:08.15,150,-167,-2043,43,12,-29,-974,-991,17,982
,683,2023-10-27 11:18:08.16,154,-167,-2033,41,19,-18,-871,-890,19,880
,684,2023-10-27 11:18:08.17,147,-175,-2040,41,22,-14,-1000,-995,-5,997
,685,2023-10-27 11:18:08.18,169,-162,-2044,41,27,-7,-900,-896,-4,898
,686,2023-10-27 11:18:08.19,163,-159,-2032,35,32,-3,-1010,-998,-12,1004
,687,2023-10-27 11:18:08.20,150,-152,-2033,33,31,1,-887,-892,5,889
,688,2023-10-27 11:18:08.21,157,-151,-2043,26,31,2,-978,-989,11,983
,689,2023-10-27 11:18:08.22,160,-149,-2049,21,26,5,-870,-894,24,882
,690,2023-10-27 11:18:08.23,166,-157,-2055,18,20,4,-988,-991,3,989
,691,2023-10-27 11:18:08.24,163,-157,-2045,19,18,7,-893,-902,9,897
,692,2023-10-27 11:18:08.25,180,-146,-2055,16,11,6,-1004,-1005,1,1004
,693,2023-10-27 11:18:08.26,175,-141,-2052,15,14,1,-898,-908,10,903
,694,2023-10-27 11:18:08.27,161,-148,-2060,8,27,-3,-999,-998,-1,998
,695,2023-10-27 11:18:08.28,159,-145,-2066,7,13,-5,-891,-900,9,895
,696,2023-10-27 11:18:08.29,163,-154,-2057,11,1,-4,-986,-987,1,986
,697,2023-10-27 11:18:08.30,169,-151,-2065,10,0,-8,-901,-903,2,902
,698,2023-10-27 11:18:08.31,145,-151,-2067,11,-7,-11,-1010,-1004,-6,1007
,699,2023-10-27 11:18:08.32,169,-167,-2074,15,-20,-9,-914,-918,4,916
,700,2023-10-27 11:18:08.33,159,-156,-2069,27,-31,-8,-994,-995,1,994
,701,2023-10-27 11:18:08.34,158,-157,-2062,38,-37,-10,-898,-912,14,905
,702,2023-10-27 11:18:08.35,148,-163,-2069,42,-47,-10,-989,-994,5,991
,703,2023-10-27 11:18:08.36,137,-160,-2056,44,-53,-9,-902,-915,13,908
,704,2023-10-27 11:18:08.37,140,-167,-2056,49,-60,-10,-992,-995,3,993
,705,2023-10-27 11:18:08.38,146,-160,-2058,55,-68,-8,-913,-920,7,916
,706,2023-10-27 11:18:08.39,140,-156,-2050,56,-74,-8,-1005,-998,-7,1001
,707,2023-10-27 11:18:08.40,162,-165,-1931,92,-71,-21,-918,-905,-13,911
,708,2023-10-27 11:18:08.41,118,-140,-2074,110,-33,-22,-981,-963,-18,972
,709,2023-10-27 11:18:08.42,109,-174,-2136,81,-62,-20,-895,-902,7,898
,710,2023-10-27 11:18:08.43,140,-182,-2058,60,-82,-14,-981,-991,10,986
,711,2023-10-27 11:18:08.44,171,-150,-2079,57,-52,-12,-911,-923,12,917
,712,2023-10-27 11:18:08.45,132,-166,-2080,27,-23,-24,-977,-984,7,980
,713,2023-10-27 11:18:08.46,120,-156,-2041,1,-10,-27,-876,-918,42,897
,714,2023-10-27 11:18:08.47,99,-171,-2050,-3,-19,-23,-927,-982,55,954
,715,2023-10-27 11:18:08.48,129,-176,-2055,11,-53,-14,-837,-925,88,881
,716,2023-10-27 11:18:08.49,132,-160,-2043,28,-56,-13,-904,-991,87,947
,717,2023-10-27 11:18:08.50,116,-163,-2037,25,-41,-15,-877,-934,57,905
,718,2023-10-27 11:18:08.51,135,-158,-2024,4,-10,-21,-984,-994,10,989
,719,2023-10-27 11:18:08.52,105,-168,-2031,3,-7,-19,-918,-916,-2,917
,720,2023-10-27 11:18:08.53,136,-183,-2050,20,-18,-18,-951,-954,3,952
,721,2023-10-27 11:18:08.54,143,-175,-2049,40,-14,-18,-893,-909,16,901
,722,2023-10-27 11:18:08.55,128,-178,-2043,43,-9,-18,-959,-976,17,967
,723,2023-10-27 11:18:08.56,133,-174,-2041,39,4,-17,-901,-938,37,919
,724,2023-10-27 11:18:08.57,131,-181,-2046,37,9,-18,-936,-983,47,959
,725,2023-10-27 11:18:08.58,138,-169,-2048,45,5,-15,-873,-928,55,900
,726,2023-10-27 11:18:08.59,132,-173,-2045,50,6,-17,-907,-964,57,935
,727,2023-10-27 11:18:08.60,119,-187,-2043,52,8,-16,-870,-930,60,900
,728,2023-10-27 11:18:08.61,140,-178,-2050,48,5,-15,-929,-967,38,948
,729,2023-10-27 11:18:08.62,141,-172,-2039,49,8,-14,-913,-929,16,921
,730,2023-10-27 11:18:08.63,152,-181,-2038,51,12,-13,-957,-963,6,960
,731,2023-10-27 11:18:08.64,136,-184,-2040,51,12,-16,-923,-940,17,931
,732,2023-10-27 11:18:08.65,136,-185,-2046,47,18,-18,-962,-975,13,968
,733,2023-10-27 11:18:08.66,131,-197,-2061,49,14,-15,-945,-955,10,950
,734,2023-10-27 11:18:08.67,128,-197,-2070,55,6,-12,-972,-978,6,975
,735,2023-10-27 11:18:08.68,114,-198,-2079,55,1,-7,-953,-953,0,953
,736,2023-10-27 11:18:08.69,139,-200,-2076,54,-11,1,-971,-972,1,971
,737,2023-10-27 11:18:08.70,137,-191,-2051,50,-17,6,-948,-952,4,950
,738,2023-10-27 11:18:08.71,147,-186,-2033,39,-10,5,-962,-966,4,964
,739,2023-10-27 11:18:08.72,141,-174,-2045,25,1,5,-939,-958,19,948
,740,2023-10-27 11:18:08.73,148,-184,-2031,10,11,0,-949,-977,28,963
,741,2023-10-27 11:18:08.74,158,-182,-2037,-2,24,-4,-945,-967,22,956
,742,2023-10-27 11:18:08.75,158,-187,-2031,-8,32,-9,-964,-974,10,969
