// Data mode  : Full
// Data quality  : High
// Acceleration sensor's range  : 16g
// Gyroscope sensor's range  : 2000dps
//
//ARTIFACT,NUM,DATE,ACC_X,ACC_Y,ACC_Z,GYRO_X,GYRO_Y,GYRO_Z,EOG_L,EOG_R,EOG_H,EOG_V
,1,2023-10-27 11:04:27.36,98,-109,-2051,-47,-17,4,-65,101,-166,-18
,2,2023-10-27 11:04:27.37,100,-109,-2063,-51,-17,6,-187,20,-207,83
,3,2023-10-27 11:04:27.38,95,-117,-2065,-51,-18,8,-63,102,-165,-19
,4,2023-10-27 11:04:27.39,89,-113,-2074,-48,-23,11,-172,45,-217,63
,5,2023-10-27 11:04:27.40,83,-114,-2061,-43,-31,13,-56,117,-173,-30
,6,2023-10-27 11:04:27.41,90,-121,-2064,-38,-37,17,-162,59,-221,51
,7,2023-10-27 11:04:27.42,92,-112,-2068,-40,-37,16,-47,117,-164,-35
,8,2023-10-27 11:04:27.43,89,-112,-2059,-38,-32,18,-156,66,-222,45
,9,2023-10-27 11:04:27.44,89,-110,-2058,-34,-25,19,-56,122,-178,-33
,10,2023-10-27 11:04:27.45,90,-108,-2054,-27,-31,21,-164,73,-237,45
,11,2023-10-27 11:04:27.46,114,-107,-2048,-27,-22,19,-62,110,-172,-24
,12,2023-10-27 11:04:27.47,71,-114,-2057,-33,-9,18,-162,71,-233,45
,13,2023-10-27 11:04:27.48,79,-113,-2056,-29,-12,18,-65,111,-176,-23
,14,2023-10-27 11:04:27.49,87,-113,-2057,-26,-10,23,-173,67,-240,53
,15,2023-10-27 11:04:27.50,76,-96,-2057,-23,-12,20,-79,100,-179,-10
,16,2023-10-27 11:04:27.51,83,-107,-2052,-23,-12,19,-171,62,-233,54
,17,2023-10-27 11:04:27.52,79,-104,-2061,-25,-11,20,-81,87,-168,-3
,18,2023-10-27 11:04:27.53,83,-101,-2060,-23,-13,22,-175,57,-232,59
,19,2023-10-27 11:04:27.54,78,-106,-2053,-19,-18,23,-90,84,-174,3
,20,2023-10-27 11:04:27.55,76,-107,-2065,-18,-19,24,-181,56,-237,62
,21,2023-10-27 11:04:27.56,91,-111,-2055,-16,-20,25,-103,74,-177,14
,22,2023-10-27 11:04:27.57,78,-110,-2055,-16,-9,23,-183,53,-236,65
,23,2023-10-27 11:04:27.58,81,-115,-2051,-13,-10,25,-103,60,-163,21
,24,2023-10-27 11:04:27.59,81,-105,-2049,-7,-12,26,-191,50,-241,70
,25,2023-10-27 11:04:27.60,89,-112,-2043,-1,-7,28,-118,57,-175,30
,26,2023-10-27 11:04:27.61,76,-126,-2049,5,-4,27,-194,37,-231,78
,27,2023-10-27 11:04:27.62,75,-124,-2069,11,0,31,-124,40,-164,42
,28,2023-10-27 11:04:27.63,94,-122,-2062,15,1,32,-197,46,-243,75
,29,2023-10-27 11:04:27.64,80,-114,-2056,20,3,34,-126,51,-177,37
,30,2023-10-27 11:04:27.65,92,-93,-2049,24,7,31,-195,60,-255,67
,31,2023-10-27 11:04:27.66,88,-100,-2052,19,12,26,-125,48,-173,38
,32,2023-10-27 11:04:27.67,80,-92,-2063,13,14,21,-181,53,-234,64
,33,2023-10-27 11:04:27.68,82,-91,-2064,12,4,19,-125,46,-171,39
,34,2023-10-27 11:04:27.69,88,-94,-2066,10,-2,20,-175,77,-252,49
,35,2023-10-27 11:04:27.70,81,-95,-2051,8,6,17,-120,50,-170,35
,36,2023-10-27 11:04:27.71,73,-100,-2043,3,5,16,-178,72,-250,53
,37,2023-10-27 11:04:27.72,89,-107,-2047,-2,-3,16,-138,39,-177,49
,38,2023-10-27 11:04:27.73,93,-103,-2049,-2,0,17,-179,72,-251,53
,39,2023-10-27 11:04:27.74,83,-102,-2045,0,0,17,-142,40,-182,51
,40,2023-10-27 11:04:27.75,94,-100,-2053,-4,3,15,-196,77,-273,59
,41,2023-10-27 11:04:27.76,79,-111,-2057,-5,4,16,-157,35,-192,61
,42,2023-10-27 11:04:27.77,81,-116,-2061,-5,5,22,-207,78,-285,64
,43,2023-10-27 11:04:27.78,77,-105,-2057,-7,3,23,-163,38,-201,62
,44,2023-10-27 11:04:27.79,84,-110,-2057,-6,7,27,-183,99,-282,42
,45,2023-10-27 11:04:27.80,77,-101,-2066,-8,8,32,-141,48,-189,46
,46,2023-10-27 11:04:27.81,82,-95,-2053,-8,10,33,-160,110,-270,25
,47,2023-10-27 11:04:27.82,86,-98,-2053,-7,15,32,-128,51,-179,38
,48,2023-10-27 11:04:27.83,84,-104,-2054,-6,17,30,-146,117,-263,14
,49,2023-10-27 11:04:27.84,93,-108,-2055,-1,20,29,-122,57,-179,32
,50,2023-10-27 11:04:27.85,95,-97,-2058,2,24,24,-138,122,-260,8
,51,2023-10-27 11:04:27.86,87,-100,-2059,7,25,19,-126,50,-176,38
,52,2023-10-27 11:04:27.87,93,-94,-2052,12,26,15,-143,119,-262,12
,53,2023-10-27 11:04:27.88,95,-96,-2055,17,26,11,-137,37,-174,50
,54,2023-10-27 11:04:27.89,96,-98,-2053,19,25,4,-158,101,-259,28
,55,2023-10-27 11:04:27.90,91,-109,-2044,24,23,-3,-155,22,-177,66
,56,2023-10-27 11:04:27.91,87,-114,-2066,27,22,0,-166,87,-253,39
,57,2023-10-27 11:04:27.92,89,-113,-2064,25,14,2,-172,2,-174,85
,58,2023-10-27 11:04:27.93,93,-112,-2055,28,9,4,-190,75,-265,57
,59,2023-10-27 11:04:27.94,99,-116,-2051,27,10,6,-211,-32,-179,121
,60,2023-10-27 11:04:27.95,97,-115,-2055,27,11,7,-245,16,-261,114
,61,2023-10-27 11:04:27.96,100,-115,-2055,24,12,8,-262,-81,-181,171
,62,2023-10-27 11:04:27.97,99,-119,-2059,25,13,11,-284,-21,-263,152
,63,2023-10-27 11:04:27.98,104,-125,-2059,22,14,15,-293,-103,-190,198
,64,2023-10-27 11:04:27.99,89,-116,-2059,21,13,15,-282,0,-282,141
,65,2023-10-27 11:04:28.00,84,-118,-2049,18,15,18,-264,-73,-191,168
,66,2023-10-27 11:04:28.01,83,-116,-2057,14,13,19,-220,41,-261,89
,67,2023-10-27 11:04:28.02,86,-107,-2057,12,12,21,-211,-36,-175,123
,68,2023-10-27 11:04:28.03,97,-109,-2061,7,11,22,-166,83,-249,41
,69,2023-10-27 11:04:28.04,85,-107,-2061,5,8,19,-181,-11,-170,96
,70,2023-10-27 11:04:28.05,97,-102,-2054,2,6,18,-130,122,-252,4
,71,2023-10-27 11:04:28.06,91,-109,-2049,2,7,17,-148,14,-162,67
,72,2023-10-27 11:04:28.07,101,-109,-2047,3,8,14,-107,145,-252,-19
,73,2023-10-27 11:04:28.08,103,-101,-2052,3,12,14,-147,24,-171,61
,74,2023-10-27 11:04:28.09,90,-106,-2049,2,14,9,-104,153,-257,-24
,75,2023-10-27 11:04:28.10,98,-108,-2062,-1,11,7,-139,33,-172,53
,76,2023-10-27 11:04:28.11,88,-113,-2064,1,6,7,-84,163,-247,-39
,77,2023-10-27 11:04:28.12,89,-117,-2076,4,1,10,-131,22,-153,54
,78,2023-10-27 11:04:28.13,104,-127,-2059,17,-13,14,-95,152,-247,-28
,79,2023-10-27 11:04:28.14,86,-128,-2051,23,-10,14,-142,26,-168,58
,80,2023-10-27 11:04:28.15,91,-118,-2051,24,-4,14,-88,158,-246,-35
,81,2023-10-27 11:04:28.16,100,-108,-2038,25,5,14,-146,19,-165,63
,82,2023-10-27 11:04:28.17,102,-114,-2044,28,15,12,-84,164,-248,-40
,83,2023-10-27 11:04:28.18,92,-120,-2042,26,23,11,-146,17,-163,64
,84,2023-10-27 11:04:28.19,92,-113,-2049,23,29,9,-80,169,-249,-44
,85,2023-10-27 11:04:28.20,95,-109,-2054,22,33,7,-144,23,-167,60
,86,2023-10-27 11:04:28.21,97,-108,-2050,17,34,5,-73,171,-244,-49
,87,2023-10-27 11:04:28.22,99,-101,-2054,10,37,1,-151,10,-161,70
,88,2023-10-27 11:04:28.23,95,-103,-2053,1,37,-2,-72,167,-239,-47
,89,2023-10-27 11:04:28.24,94,-107,-2042,-5,35,-4,-160,6,-166,77
,90,2023-10-27 11:04:28.25,91,-104,-2045,-9,29,-9,-90,158,-248,-34
,91,2023-10-27 11:04:28.26,77,-95,-2047,-8,20,-10,-178,0,-178,89
,92,2023-10-27 11:04:28.27,116,-96,-2050,-11,14,-13,-100,150,-250,-25
,93,2023-10-27 11:04:28.28,100,-104,-2069,-16,16,-18,-186,-11,-175,98
,94,2023-10-27 11:04:28.29,113,-99,-2062,-15,24,-24,-97,146,-243,-24
,95,2023-10-27 11:04:28.30,97,-107,-2057,-13,28,-30,-187,-18,-169,102
,96,2023-10-27 11:04:28.31,102,-115,-2060,-8,17,-30,-102,138,-240,-18
,97,2023-10-27 11:04:28.32,104,-107,-2058,-4,9,-28,-198,-27,-171,112
,98,2023-10-27 11:04:28.33,114,-110,-2051,2,14,-27,-102,137,-239,-17
,99,2023-10-27 11:04:28.34,105,-124,-2054,1,23,-26,-204,-32,-172,118
,100,2023-10-27 11:04:28.35,91,-121,-2060,1,19,-19,-111,136,-247,-12
,101,2023-10-27 11:04:28.36,107,-123,-2065,1,12,-13,-215,-32,-183,123
,102,2023-10-27 11:04:28.37,101,-113,-2069,2,6,-2,-120,129,-249,-4
,103,2023-10-27 11:04:28.38,101,-115,-2059,0,13,0,-222,-46,-176,134
,104,2023-10-27 11:04:28.39,115,-105,-2057,-4,15,4,-111,123,-234,-6
,105,2023-10-27 11:04:28.40,99,-105,-2057,-9,10,6,-216,-49,-167,132
,106,2023-10-27 11:04:28.41,98,-117,-2066,-9,3,11,-112,129,-241,-8
,107,2023-10-27 11:04:28.42,86,-116,-2066,-7,-5,19,-223,-43,-180,133
,108,2023-10-27 11:04:28.43,90,-115,-2049,-4,-11,24,-105,125,-230,-10
,109,2023-10-27 11:04:28.44,86,-95,-2048,-6,-12,23,-227,-50,-177,138
,110,2023-10-27 11:04:28.45,102,-98,-2040,-9,-8,24,-109,136,-245,-13
,111,2023-10-27 11:04:28.46,104,-86,-2042,-10,-2,26,-221,-44,-177,132
,112,2023-10-27 11:04:28.47,120,-89,-2040,-12,4,19,-103,134,-237,-15
,113,2023-10-27 11:04:28.48,101,-94,-2041,-12,6,16,-222,-45,-177,133
,114,2023-10-27 11:04:28.49,99,-92,-2040,-9,4,14,-95,137,-232,-21
,115,2023-10-27 11:04:28.50,119,-99,-2057,0,-18,15,-220,-40,-180,130
,116,2023-10-27 11:04:28.51,105,-107,-2063,-2,1,16,-84,154,-238,-35
,117,2023-10-27 11:04:28.52,91,-100,-2060,-3,3,14,-214,-33,-181,123
,118,2023-10-27 11:04:28.53,110,-93,-2058,0,-9,15,-81,146,-227,-32
,119,2023-10-27 11:04:28.54,117,-89,-2060,-7,-5,12,-225,-47,-178,136
,120,2023-10-27 11:04:28.55,94,-86,-2073,-12,4,11,-85,151,-236,-33
,121,2023-10-27 11:04:28.56,108,-98,-2071,-17,-5,15,-224,-36,-188,130
,122,2023-10-27 11:04:28.57,111,-101,-2075,-12,-16,15,-84,153,-237,-34
,123,2023-10-27 11:04:28.58,99,-101,-2065,-10,-16,18,-218,-30,-188,124
,124,2023-10-27 11:04:28.59,90,-100,-2062,-9,-27,21,-74,157,-231,-41
,125,2023-10-27 11:04:28.60,104,-100,-2058,-5,-30,19,-217,-24,-193,120
,126,2023-10-27 11:04:28.61,104,-94,-2058,2,-33,19,-68,174,-242,-53
,127,2023-10-27 11:04:28.62,101,-94,-2055,4,-34,19,-203,-17,-186,110
,128,2023-10-27 11:04:28.63,97,-95,-2058,9,-33,20,-56,166,-222,-55
,129,2023-10-27 11:04:28.64,95,-105,-2059,13,-34,18,-212,-25,-187,118
,130,2023-10-27 11:04:28.65,96,-114,-2068,20,-41,23,-68,155,-223,-43
,131,2023-10-27 11:04:28.66,93,-104,-2060,27,-43,22,-224,-26,-198,125
,132,2023-10-27 11:04:28.67,93,-109,-2053,33,-40,28,-80,156,-236,-38
,133,2023-10-27 11:04:28.68,92,-104,-2051,35,-40,26,-224,-28,-196,126
,134,2023-10-27 11:04:28.69,99,-110,-2051,36,-32,25,-80,146,-226,-33
,135,2023-10-27 11:04:28.70,83,-107,-2050,35,-24,27,-233,-39,-194,136
,136,2023-10-27 11:04:28.71,99,-110,-2048,37,-20,26,-90,138,-228,-24
,137,2023-10-27 11:04:28.72,87,-103,-2048,33,-15,29,-243,-47,-196,145
,138,2023-10-27 11:04:28.73,92,-110,-2054,31,-9,28,-97,131,-228,-17
,139,2023-10-27 11:04:28.74,84,-108,-2048,26,-7,29,-247,-46,-201,146
,140,2023-10-27 11:04:28.75,85,-99,-2054,23,-4,31,-98,126,-224,-14
,141,2023-10-27 11:04:28.76,89,-102,-2045,23,2,29,-253,-49,-204,151
,142,2023-10-27 11:04:28.77,88,-105,-2049,19,8,26,-104,125,-229,-10
,143,2023-10-27 11:04:28.78,89,-105,-2052,19,10,21,-263,-56,-207,159
,144,2023-10-27 11:04:28.79,87,-104,-2060,17,14,20,-114,114,-228,0
,145,2023-10-27 11:04:28.80,86,-98,-2050,16,15,15,-266,-60,-206,163
,146,2023-10-27 11:04:28.81,103,-99,-2048,16,15,11,-108,111,-219,-1
,147,2023-10-27 11:04:28.82,84,-103,-2058,14,16,7,-270,-54,-216,162
,148,2023-10-27 11:04:28.83,79,-98,-2060,11,11,1,-112,116,-228,-2
,149,2023-10-27 11:04:28.84,89,-101,-2061,12,8,0,-260,-52,-208,156
,150,2023-10-27 11:04:28.85,95,-97,-2064,12,3,-4,-104,116,-220,-6
,151,2023-10-27 11:04:28.86,88,-99,-2058,14,-2,-7,-256,-44,-212,150
,152,2023-10-27 11:04:28.87,91,-102,-2056,10,-8,-7,-98,118,-216,-10
,153,2023-10-27 11:04:28.88,86,-109,-2062,7,-7,-5,-258,-42,-216,150
,154,2023-10-27 11:04:28.89,78,-125,-2065,9,-11,-2,-99,124,-223,-12
,155,2023-10-27 11:04:28.90,82,-118,-2057,8,-12,3,-250,-33,-217,141
,156,2023-10-27 11:04:28.91,89,-109,-2043,6,-12,9,-95,121,-216,-13
,157,2023-10-27 11:04:28.92,85,-107,-2044,6,-6,10,-241,-24,-217,132
,158,2023-10-27 11:04:28.93,85,-110,-2056,4,-2,14,-89,127,-216,-19
,159,2023-10-27 11:04:28.94,93,-114,-2054,1,1,18,-245,-25,-220,135
,160,2023-10-27 11:04:28.95,97,-120,-2057,3,5,24,-93,119,-212,-13
,161,2023-10-27 11:04:28.96,88,-121,-2049,4,8,29,-231,-14,-217,122
,162,2023-10-27 11:04:28.97,80,-111,-2049,0,11,34,-80,128,-208,-24
,163,2023-10-27 11:04:28.98,81,-112,-2053,-2,17,38,-235,-15,-220,125
,164,2023-10-27 11:04:28.99,79,-111,-2060,-4,12,40,-80,132,-212,-26
,165,2023-10-27 11:04:29.00,73,-108,-2063,-4,11,43,-228,-8,-220,118
,166,2023-10-27 11:04:29.01,84,-100,-2062,-6,10,48,-80,131,-211,-25
,167,2023-10-27 11:04:29.02,74,-100,-2057,-7,10,47,-223,1,-224,111
,168,2023-10-27 11:04:29.03,92,-100,-2049,-5,12,46,-73,131,-204,-29
,169,2023-10-27 11:04:29.04,85,-99,-2051,-5,18,43,-226,-4,-222,115
,170,2023-10-27 11:04:29.05,89,-102,-2056,-4,22,39,-78,125,-203,-23
,171,2023-10-27 11:04:29.06,90,-95,-2051,-1,23,34,-228,-9,-219,118
,172,2023-10-27 11:04:29.07,97,-100,-2053,2,28,25,-87,110,-197,-11
,173,2023-10-27 11:04:29.08,76,-94,-2038,4,28,22,-242,-18,-224,130
,174,2023-10-27 11:04:29.09,101,-88,-2054,12,10,21,-95,107,-202,-6
,175,2023-10-27 11:04:29.10,99,-102,-2051,7,39,14,-244,-21,-223,132
,176,2023-10-27 11:04:29.11,87,-103,-2068,7,36,10,-102,96,-198,3
,177,2023-10-27 11:04:29.12,95,-102,-2072,18,7,10,-248,-18,-230,133
,178,2023-10-27 11:04:29.13,101,-103,-2061,13,23,7,-103,92,-195,5
,179,2023-10-27 11:04:29.14,98,-83,-2057,11,25,4,-249,-25,-224,137
,180,2023-10-27 11:04:29.15,83,-92,-2058,10,19,-4,-107,86,-193,10
,181,2023-10-27 11:04:29.16,84,-94,-2072,9,4,-4,-250,-21,-229,135
,182,2023-10-27 11:04:29.17,86,-112,-2063,5,7,-3,-114,79,-193,17
,183,2023-10-27 11:04:29.18,83,-108,-2059,9,0,-2,-256,-29,-227,142
,184,2023-10-27 11:04:29.19,90,-108,-2042,13,-2,1,-118,71,-189,23
,185,2023-10-27 11:04:29.20,91,-105,-2040,10,0,-1,-256,-32,-224,144
,186,2023-10-27 11:04:29.21,83,-104,-2039,6,8,1,-123,70,-193,26
,187,2023-10-27 11:04:29.22,95,-111,-2044,4,15,3,-257,-22,-235,139
,188,2023-10-27 11:04:29.23,102,-96,-2047,4,17,6,-120,68,-188,26
,189,2023-10-27 11:04:29.24,98,-106,-2042,0,24,6,-256,-14,-242,135
,190,2023-10-27 11:04:29.25,101,-106,-2052,-7,31,8,-122,76,-198,23
,191,2023-10-27 11:04:29.26,73,-100,-2054,-1,9,12,-244,-10,-234,127
,192,2023-10-27 11:04:29.27,101,-112,-2055,-2,21,16,-115,73,-188,21
,193,2023-10-27 11:04:29.28,80,-104,-2066,-1,19,21,-239,0,-239,119
,194,2023-10-27 11:04:29.29,116,-107,-2055,3,18,20,-115,78,-193,18
,195,2023-10-27 11:04:29.30,91,-97,-2062,-2,37,21,-238,0,-238,119
,196,2023-10-27 11:04:29.31,99,-107,-2063,1,22,20,-116,72,-188,22
,197,2023-10-27 11:04:29.32,96,-102,-2057,3,27,18,-230,5,-235,112
,198,2023-10-27 11:04:29.33,107,-103,-2059,10,27,16,-96,80,-176,8
,199,2023-10-27 11:04:29.34,102,-97,-2057,11,30,13,-226,10,-236,108
,200,2023-10-27 11:04:29.35,96,-105,-2059,15,27,10,-113,69,-182,22
,201,2023-10-27 11:04:29.36,120,-106,-2057,20,15,7,-231,5,-236,113
,202,2023-10-27 11:04:29.37,118,-96,-2051,22,35,2,-112,67,-179,22
,203,2023-10-27 11:04:29.38,108,-92,-2047,18,37,-3,-219,18,-237,100
,204,2023-10-27 11:04:29.39,93,-112,-2056,21,32,-8,-112,64,-176,24
,205,2023-10-27 11:04:29.40,105,-113,-2073,21,22,-3,-208,25,-233,91
,206,2023-10-27 11:04:29.41,108,-106,-2060,27,14,-3,-101,71,-172,15
,207,2023-10-27 11:04:29.42,111,-107,-2057,29,13,0,-199,34,-233,82
,208,2023-10-27 11:04:29.43,112,-106,-2049,24,27,-3,-101,69,-170,16
,209,2023-10-27 11:04:29.44,112,-107,-2046,17,30,-3,-192,38,-230,77
,210,2023-10-27 11:04:29.45,100,-115,-2055,15,29,-1,-96,68,-164,14
,211,2023-10-27 11:04:29.46,100,-118,-2055,18,17,3,-192,38,-230,77
,212,2023-10-27 11:04:29.47,105,-117,-2052,22,10,4,-104,62,-166,21
,213,2023-10-27 11:04:29.48,119,-113,-2056,21,12,10,-192,40,-232,76
,214,2023-10-27 11:04:29.49,104,-117,-2055,14,18,12,-110,54,-164,28
,215,2023-10-27 11:04:29.50,104,-112,-2057,6,26,13,-200,35,-235,82
,216,2023-10-27 11:04:29.51,106,-113,-2054,1,27,17,-119,46,-165,36
,217,2023-10-27 11:04:29.52,118,-102,-2056,0,26,18,-207,28,-235,89
,218,2023-10-27 11:04:29.53,113,-100,-2058,-6,23,17,-126,40,-166,43
,219,2023-10-27 11:04:29.54,105,-99,-2054,-7,19,17,-200,33,-233,83
,220,2023-10-27 11:04:29.55,111,-98,-2059,-10,17,18,-126,30,-156,48
,221,2023-10-27 11:04:29.56,107,-95,-2061,-10,12,18,-205,28,-233,88
,222,2023-10-27 11:04:29.57,113,-99,-2062,-10,9,17,-134,30,-164,52
,223,2023-10-27 11:04:29.58,106,-97,-2056,-7,7,15,-206,32,-238,87
,224,2023-10-27 11:04:29.59,102,-97,-2053,-9,8,13,-145,19,-164,63
,225,2023-10-27 11:04:29.60,106,-99,-2059,-9,5,14,-223,19,-242,102
,226,2023-10-27 11:04:29.61,106,-95,-2059,-9,5,13,-164,-2,-162,83
,227,2023-10-27 11:04:29.62,105,-103,-2057,-6,5,11,-230,10,-240,110
,228,2023-10-27 11:04:29.63,118,-102,-2051,-2,3,13,-166,0,-166,83
,229,2023-10-27 11:04:29.64,109,-99,-2056,1,5,15,-213,30,-243,91
,230,2023-10-27 11:04:29.65,120,-97,-2053,4,5,14,-157,7,-164,75
,231,2023-10-27 11:04:29.66,109,-97,-2052,4,9,13,-208,36,-244,86
,232,2023-10-27 11:04:29.67,106,-98,-2060,3,7,14,-158,7,-165,75
,233,2023-10-27 11:04:29.68,107,-96,-2058,3,11,18,-204,46,-250,79
,234,2023-10-27 11:04:29.69,111,-93,-2059,5,7,18,-155,14,-169,70
,235,2023-10-27 11:04:29.70,97,-90,-2061,4,2,18,-194,59,-253,67
,236,2023-10-27 11:04:29.71,108,-93,-2066,7,-2,19,-156,13,-169,71
,237,2023-10-27 11:04:29.72,110,-90,-2064,9,-6,22,-190,60,-250,65
,238,2023-10-27 11:04:29.73,108,-100,-2052,11,-11,23,-151,12,-163,69
,239,2023-10-27 11:04:29.74,109,-92,-2052,12,-10,22,-178,70,-248,54
,240,2023-10-27 11:04:29.75,120,-100,-2045,14,-7,23,-155,10,-165,72
,241,2023-10-27 11:04:29.76,112,-100,-2052,14,-3,19,-177,71,-248,53
,242,2023-10-27 11:04:29.77,100,-99,-2050,21,-5,19,-162,-2,-160,82
,243,2023-10-27 11:04:29.78,107,-103,-2058,22,-2,20,-172,79,-251,46
,244,2023-10-27 11:04:29.79,105,-101,-2056,24,0,21,-152,17,-169,67
,245,2023-10-27 11:04:29.80,108,-105,-2049,26,1,20,-167,89,-256,39
,246,2023-10-27 11:04:29.81,101,-117,-2068,30,0,25,-146,17,-163,64
,247,2023-10-27 11:04:29.82,109,-104,-2059,30,-4,27,-152,96,-248,28
,248,2023-10-27 11:04:29.83,98,-98,-2055,32,-2,27,-148,12,-160,68
,249,2023-10-27 11:04:29.84,107,-93,-2054,35,0,26,-159,90,-249,34
,250,2023-10-27 11:04:29.85,107,-91,-2049,29,3,22,-158,4,-162,77
,251,2023-10-27 11:04:29.86,111,-105,-2062,23,3,21,-170,87,-257,41
,252,2023-10-27 11:04:29.87,92,-94,-2063,22,0,18,-176,-7,-169,91
,253,2023-10-27 11:04:29.88,107,-106,-2064,23,-4,18,-171,78,-249,46
,254,2023-10-27 11:04:29.89,101,-100,-2050,24,-9,17,-177,-17,-160,97
,255,2023-10-27 11:04:29.90,91,-98,-2047,21,-11,17,-181,67,-248,57
,256,2023-10-27 11:04:29.91,93,-108,-2053,20,-7,16,-194,-27,-167,110
,257,2023-10-27 11:04:29.92,95,-90,-2048,17,-6,19,-182,72,-254,55
,258,2023-10-27 11:04:29.93,108,-94,-2040,16,-4,17,-206,-34,-172,120
,259,2023-10-27 11:04:29.94,100,-105,-2051,13,-1,15,-195,64,-259,65
,260,2023-10-27 11:04:29.95,110,-109,-2052,12,2,15,-210,-40,-170,125
,261,2023-10-27 11:04:29.96,108,-110,-2058,10,7,16,-185,65,-250,60
,262,2023-10-27 11:04:29.97,94,-109,-2059,11,7,18,-211,-38,-173,124
,263,2023-10-27 11:04:29.98,95,-115,-2060,10,9,20,-191,74,-265,58
,264,2023-10-27 11:04:29.99,93,-113,-2059,10,15,21,-222,-45,-177,133
,265,2023-10-27 11:04:30.00,102,-108,-2049,11,19,20,-188,72,-260,58
,266,2023-10-27 11:04:30.01,104,-110,-2054,11,24,18,-217,-42,-175,129
,267,2023-10-27 11:04:30.02,107,-110,-2055,13,33,14,-174,83,-257,45
,268,2023-10-27 11:04:30.03,117,-112,-2058,13,38,14,-212,-35,-177,123
,269,2023-10-27 11:04:30.04,107,-109,-2058,16,39,8,-168,100,-268,34
,270,2023-10-27 11:04:30.05,113,-100,-2061,20,38,6,-208,-27,-181,117
,271,2023-10-27 11:04:30.06,111,-107,-2061,22,35,5,-157,102,-259,27
,272,2023-10-27 11:04:30.07,110,-99,-2058,23,31,2,-206,-36,-170,121
,273,2023-10-27 11:04:30.08,101,-101,-2062,25,27,-3,-158,100,-258,29
,274,2023-10-27 11:04:30.09,109,-100,-2054,24,22,-7,-214,-41,-173,127
,275,2023-10-27 11:04:30.10,95,-114,-2071,26,18,-7,-160,99,-259,30
,276,2023-10-27 11:04:30.11,117,-117,-2064,28,8,-7,-221,-47,-174,134
,277,2023-10-27 11:04:30.12,114,-122,-2052,30,6,-2,-169,86,-255,41
,278,2023-10-27 11:04:30.13,120,-125,-2060,31,8,0,-250,-69,-181,159
,279,2023-10-27 11:04:30.14,124,-121,-2043,29,13,1,-203,60,-263,71
,280,2023-10-27 11:04:30.15,108,-131,-2047,29,18,0,-271,-86,-185,178
,281,2023-10-27 11:04:30.16,107,-123,-2048,29,22,5,-224,36,-260,94
,282,2023-10-27 11:04:30.17,117,-129,-2055,31,23,7,-302,-112,-190,207
,283,2023-10-27 11:04:30.18,116,-127,-2057,27,25,11,-253,20,-273,116
,284,2023-10-27 11:04:30.19,113,-125,-2051,22,28,17,-313,-116,-197,214
,285,2023-10-27 11:04:30.20,109,-121,-2050,17,27,19,-225,48,-273,88
,286,2023-10-27 11:04:30.21,122,-116,-2057,10,24,22,-273,-76,-197,174
,287,2023-10-27 11:04:30.22,117,-113,-2050,9,23,23,-166,106,-272,30
,288,2023-10-27 11:04:30.23,117,-110,-2050,3,21,24,-232,-28,-204,130
,289,2023-10-27 11:04:30.24,119,-115,-2057,1,23,23,-131,160,-291,-14
,290,2023-10-27 11:04:30.25,97,-113,-2052,6,-9,26,-206,4,-210,101
,291,2023-10-27 11:04:30.26,154,-114,-2047,13,-22,26,-93,195,-288,-51
,292,2023-10-27 11:04:30.27,114,-111,-2058,3,15,23,-150,50,-200,50
,293,2023-10-27 11:04:30.28,113,-121,-2057,1,18,18,-26,246,-272,-110
,294,2023-10-27 11:04:30.29,114,-107,-2060,-4,13,20,-136,54,-190,41
,295,2023-10-27 11:04:30.30,123,-111,-2067,-2,15,17,-40,227,-267,-93
,296,2023-10-27 11:04:30.31,120,-114,-2070,0,5,18,-152,37,-189,57
,297,2023-10-27 11:04:30.32,130,-116,-2063,2,-9,18,-48,202,-250,-77
,298,2023-10-27 11:04:30.33,116,-119,-2062,2,-12,21,-166,16,-182,75
,299,2023-10-27 11:04:30.34,120,-119,-2058,5,-19,23,-52,194,-246,-71
,300,2023-10-27 11:04:30.35,122,-114,-2051,10,-22,24,-169,3,-172,83
,301,2023-10-27 11:04:30.36,110,-118,-2055,11,-23,26,-63,175,-238,-56
,302,2023-10-27 11:04:30.37,113,-109,-2054,9,-22,27,-182,-8,-174,95
,303,2023-10-27 11:04:30.38,115,-119,-2060,8,-24,28,-65,169,-234,-52
,304,2023-10-27 11:04:30.39,120,-106,-2057,9,-23,30,-181,-20,-161,100
,305,2023-10-27 11:04:30.40,104,-109,-2053,10,-24,31,-58,161,-219,-51
,306,2023-10-27 11:04:30.41,129,-111,-2053,5,-24,35,-181,-28,-153,104
,307,2023-10-27 11:04:30.42,108,-103,-2049,0,-25,32,-68,140,-208,-36
,308,2023-10-27 11:04:30.43,103,-105,-2059,-2,-26,32,-191,-38,-153,114
,309,2023-10-27 11:04:30.44,109,-111,-2061,1,-31,33,-52,146,-198,-47
,310,2023-10-27 11:04:30.45,106,-108,-2060,5,-37,34,-171,-36,-135,103
,311,2023-10-27 11:04:30.46,115,-112,-2056,11,-37,34,-37,144,-181,-53
,312,2023-10-27 11:04:30.47,118,-112,-2050,14,-40,33,-158,-36,-122,97
,313,2023-10-27 11:04:30.48,112,-116,-2050,16,-28,30,-18,149,-167,-65
,314,2023-10-27 11:04:30.49,105,-115,-2051,21,-26,29,-151,-37,-114,94
,315,2023-10-27 11:04:30.50,110,-119,-2052,25,-24,32,-10,152,-162,-71
,316,2023-10-27 11:04:30.51,99,-121,-2052,27,-21,29,-156,-34,-122,95
,317,2023-10-27 11:04:30.52,112,-115,-2053,32,-15,32,-22,145,-167,-61
,318,2023-10-27 11:04:30.53,91,-130,-2047,39,-16,31,-165,-37,-128,101
,319,2023-10-27 11:04:30.54,95,-113,-2071,43,-14,33,-23,149,-172,-63
,320,2023-10-27 11:04:30.55,93,-122,-2074,36,-14,38,-168,-34,-134,101
,321,2023-10-27 11:04:30.56,105,-108,-2051,28,-10,36,-22,153,-175,-65
,322,2023-10-27 11:04:30.57,95,-100,-2052,24,-12,35,-182,-38,-144,110
,323,2023-10-27 11:04:30.58,106,-107,-2053,21,-7,29,-43,148,-191,-52
,324,2023-10-27 11:04:30.59,101,-112,-2060,14,-5,23,-211,-49,-162,130
,325,2023-10-27 11:04:30.60,106,-123,-2055,13,-5,22,-64,144,-208,-40
,326,2023-10-27 11:04:30.61,90,-117,-2046,19,-10,17,-216,-38,-178,127
,327,2023-10-27 11:04:30.62,84,-119,-2076,19,-6,17,-69,144,-213,-37
,328,2023-10-27 11:04:30.63,87,-124,-2056,8,-8,15,-228,-38,-190,133
,329,2023-10-27 11:04:30.64,98,-110,-2049,10,-12,17,-81,142,-223,-30
,330,2023-10-27 11:04:30.65,103,-115,-2047,7,-13,16,-243,-47,-196,145
,331,2023-10-27 11:04:30.66,97,-116,-2041,5,-12,16,-104,127,-231,-11
,332,2023-10-27 11:04:30.67,89,-114,-2048,-1,-6,13,-277,-81,-196,179
,333,2023-10-27 11:04:30.68,91,-113,-2057,-3,-4,15,-144,62,-206,41
,334,2023-10-27 11:04:30.69,100,-123,-2053,-1,0,14,-310,-129,-181,219
,335,2023-10-27 11:04:30.70,94,-120,-2057,2,-2,17,-155,38,-193,58
,336,2023-10-27 11:04:30.71,93,-125,-2062,1,0,19,-298,-127,-171,212
,337,2023-10-27 11:04:30.72,81,-130,-2056,2,2,23,-138,53,-191,42
,338,2023-10-27 11:04:30.73,94,-119,-2057,4,4,25,-283,-100,-183,191
,339,2023-10-27 11:04:30.74,106,-119,-2060,7,3,26,-120,81,-201,19
,340,2023-10-27 11:04:30.75,94,-118,-2049,8,4,27,-272,-83,-189,177
,341,2023-10-27 11:04:30.76,93,-114,-2049,11,9,26,-116,90,-206,13
,342,2023-10-27 11:04:30.77,103,-116,-2056,16,13,23,-268,-68,-200,168
,343,2023-10-27 11:04:30.78,86,-115,-2049,16,14,20,-112,102,-214,5
,344,2023-10-27 11:04:30.79,92,-110,-2057,19,13,17,-267,-64,-203,165
,345,2023-10-27 11:04:30.80,94,-105,-2063,23,9,16,-106,104,-210,1
,346,2023-10-27 11:04:30.81,96,-114,-2054,26,6,11,-253,-48,-205,150
,347,2023-10-27 11:04:30.82,104,-113,-2048,27,8,9,-95,117,-212,-11
,348,2023-10-27 11:04:30.83,93,-133,-2060,30,5,7,-262,-44,-218,153
,349,2023-10-27 11:04:30.84,80,-127,-2064,34,0,6,-108,111,-219,-1
,350,2023-10-27 11:04:30.85,101,-124,-2051,34,2,7,-273,-55,-218,164
,351,2023-10-27 11:04:30.86,99,-122,-2049,28,17,6,-126,94,-220,16
,352,2023-10-27 11:04:30.87,80,-120,-2048,26,15,4,-281,-56,-225,168
,353,2023-10-27 11:04:30.88,102,-125,-2056,23,13,7,-120,98,-218,11
,354,2023-10-27 11:04:30.89,98,-128,-2061,19,11,5,-280,-54,-226,167
,355,2023-10-27 11:04:30.90,86,-129,-2060,16,12,8,-130,95,-225,17
,356,2023-10-27 11:04:30.91,90,-135,-2051,15,11,11,-287,-54,-233,170
,357,2023-10-27 11:04:30.92,104,-126,-2055,14,12,12,-130,86,-216,22
,358,2023-10-27 11:04:30.93,94,-129,-2052,7,16,16,-291,-59,-232,175
,359,2023-10-27 11:04:30.94,101,-120,-2051,5,19,15,-140,80,-220,30
,360,2023-10-27 11:04:30.95,101,-119,-2047,3,24,15,-299,-63,-236,181
,361,2023-10-27 11:04:30.96,111,-115,-2045,-3,26,13,-151,71,-222,40
,362,2023-10-27 11:04:30.97,117,-112,-2049,-4,34,12,-294,-56,-238,175
,363,2023-10-27 11:04:30.98,104,-123,-2053,-7,45,7,-142,68,-210,37
,364,2023-10-27 11:04:30.99,113,-120,-2056,-6,49,7,-295,-65,-230,180
,365,2023-10-27 11:04:31.00,102,-121,-2049,-7,53,4,-149,56,-205,46
,366,2023-10-27 11:04:31.01,106,-118,-2050,-3,57,3,-297,-57,-240,177
,367,2023-10-27 11:04:31.02,106,-112,-2052,-1,55,-1,-150,64,-214,43
,368,2023-10-27 11:04:31.03,112,-111,-2047,-5,57,-4,-298,-54,-244,176
,369,2023-10-27 11:04:31.04,111,-112,-2048,-9,55,-7,-145,68,-213,38
,370,2023-10-27 11:04:31.05,114,-111,-2058,-10,54,-8,-289,-55,-234,172
,371,2023-10-27 11:04:31.06,107,-117,-2061,-8,48,-10,-149,56,-205,46
,372,2023-10-27 11:04:31.07,110,-116,-2054,-4,39,-9,-282,-41,-241,161
,373,2023-10-27 11:04:31.08,108,-125,-2061,1,22,-5,-134,73,-207,30
,374,2023-10-27 11:04:31.09,113,-120,-2054,4,20,-5,-285,-37,-248,161
,375,2023-10-27 11:04:31.10,126,-115,-2058,2,22,-3,-142,71,-213,35
,376,2023-10-27 11:04:31.11,123,-117,-2061,1,30,-5,-289,-34,-255,161
,377,2023-10-27 11:04:31.12,111,-117,-2047,1,26,-1,-155,64,-219,45
,378,2023-10-27 11:04:31.13,116,-124,-2058,2,16,1,-291,-41,-250,166
,379,2023-10-27 11:04:31.14,115,-124,-2061,1,14,2,-145,61,-206,42
,380,2023-10-27 11:04:31.15,114,-122,-2064,1,17,5,-282,-34,-248,158
,381,2023-10-27 11:04:31.16,118,-122,-2066,2,23,7,-149,59,-208,45
,382,2023-10-27 11:04:31.17,122,-122,-2067,3,19,11,-288,-32,-256,160
,383,2023-10-27 11:04:31.18,116,-122,-2058,7,9,16,-154,54,-208,50
,384,2023-10-27 11:04:31.19,110,-125,-2055,8,3,16,-282,-27,-255,154
,385,2023-10-27 11:04:31.20,120,-117,-2053,13,7,19,-147,55,-202,46
,386,2023-10-27 11:04:31.21,117,-113,-2060,10,11,19,-281,-30,-251,155
,387,2023-10-27 11:04:31.22,138,-118,-2055,10,12,20,-152,47,-199,52
,388,2023-10-27 11:04:31.23,135,-106,-2054,6,13,20,-275,-22,-253,148
,389,2023-10-27 11:04:31.24,124,-115,-2057,5,10,17,-150,46,-196,52
,390,2023-10-27 11:04:31.25,111,-113,-2062,4,3,16,-274,-24,-250,149
,391,2023-10-27 11:04:31.26,118,-119,-2056,6,-2,18,-153,42,-195,55
,392,2023-10-27 11:04:31.27,121,-115,-2058,10,-6,19,-272,-21,-251,146
,393,2023-10-27 11:04:31.28,121,-116,-2050,12,-12,18,-156,44,-200,56
,394,2023-10-27 11:04:31.29,116,-114,-2047,11,-11,18,-269,-12,-257,140
,395,2023-10-27 11:04:31.30,122,-113,-2039,12,-5,16,-152,41,-193,55
,396,2023-10-27 11:04:31.31,124,-128,-2057,13,0,14,-271,-16,-255,143
,397,2023-10-27 11:04:31.32,123,-123,-2058,17,0,14,-164,34,-198,65
,398,2023-10-27 11:04:31.33,109,-126,-2049,22,2,15,-274,-10,-264,142
,399,2023-10-27 11:04:31.34,122,-134,-2063,24,2,16,-169,28,-197,70
,400,2023-10-27 11:04:31.35,110,-133,-2066,24,-6,22,-273,-10,-263,141
,401,2023-10-27 11:04:31.36,119,-119,-2067,23,-10,25,-165,32,-197,66
,402,2023-10-27 11:04:31.37,125,-115,-2065,25,-13,27,-265,-6,-259,135
,403,2023-10-27 11:04:31.38,123,-120,-2043,22,-9,28,-156,38,-194,59
,404,2023-10-27 11:04:31.39,117,-113,-2050,19,-5,24,-258,1,-259,128
,405,2023-10-27 11:04:31.40,118,-120,-2056,12,-6,20,-162,24,-186,69
,406,2023-10-27 11:04:31.41,120,-116,-2062,14,-8,21,-264,-10,-254,137
,407,2023-10-27 11:04:31.42,108,-120,-2056,19,-14,22,-166,20,-186,73
,408,2023-10-27 11:04:31.43,115,-110,-2052,17,-21,22,-250,2,-252,124
,409,2023-10-27 11:04:31.44,113,-122,-2048,14,-22,22,-172,10,-182,81
,410,2023-10-27 11:04:31.45,108,-117,-2051,15,-17,20,-246,13,-259,116
,411,2023-10-27 11:04:31.46,116,-120,-2046,17,-18,22,-154,26,-180,64
,412,2023-10-27 11:04:31.47,110,-113,-2051,15,-16,24,-259,-4,-255,131
,413,2023-10-27 11:04:31.48,104,-104,-2055,5,-19,26,-176,6,-182,85
,414,2023-10-27 11:04:31.49,106,-116,-2062,-6,-22,29,-246,11,-257,117
,415,2023-10-27 11:04:31.50,104,-115,-2059,-8,-19,30,-162,9,-171,76
,416,2023-10-27 11:04:31.51,112,-120,-2053,-3,-18,33,-225,24,-249,100
,417,2023-10-27 11:04:31.52,106,-120,-2048,2,-13,31,-150,17,-167,66
,418,2023-10-27 11:04:31.53,112,-122,-2049,6,-8,32,-224,22,-246,101
,419,2023-10-27 11:04:31.54,95,-118,-2063,5,-2,29,-166,3,-169,81
,420,2023-10-27 11:04:31.55,112,-118,-2067,5,-1,26,-220,28,-248,96
,421,2023-10-27 11:04:31.56,110,-111,-2070,11,0,26,-147,8,-155,69
,422,2023-10-27 11:04:31.57,112,-107,-2057,13,-3,27,-186,39,-225,73
,423,2023-10-27 11:04:31.58,108,-109,-2064,12,-4,23,-122,14,-136,54
,424,2023-10-27 11:04:31.59,108,-106,-2048,12,-2,20,-165,39,-204,63
,425,2023-10-27 11:04:31.60,104,-115,-2057,9,-1,17,-119,2,-121,58
,426,2023-10-27 11:04:31.61,96,-110,-2056,17,1,13,-142,49,-191,46
,427,2023-10-27 11:04:31.62,110,-105,-2056,24,4,11,-75,19,-94,28
,428,2023-10-27 11:04:31.63,101,-104,-2046,24,1,7,-86,65,-151,10
,429,2023-10-27 11:04:31.64,115,-118,-2038,23,5,1,-54,21,-75,16
,430,2023-10-27 11:04:31.65,105,-141,-2053,24,14,0,-76,86,-162,-5
,431,2023-10-27 11:04:31.66,92,-106,-2039,33,14,0,-51,30,-81,10
,432,2023-10-27 11:04:31.67,122,-115,-2028,37,14,0,-77,92,-169,-7
,433,2023-10-27 11:04:31.68,110,-137,-2051,38,19,3,-55,32,-87,11
,434,2023-10-27 11:04:31.69,113,-123,-2036,44,28,1,-65,104,-169,-19
,435,2023-10-27 11:04:31.70,125,-123,-2032,59,52,-3,-48,46,-94,1
,436,2023-10-27 11:04:31.71,108,-131,-2056,64,56,-5,-49,150,-199,-50
,437,2023-10-27 11:04:31.72,112,-113,-2062,52,47,-2,-42,85,-127,-21
,438,2023-10-27 11:04:31.73,102,-122,-2072,45,44,3,-54,182,-236,-64
,439,2023-10-27 11:04:31.74,108,-118,-2075,46,34,8,-60,94,-154,-17
,440,2023-10-27 11:04:31.75,111,-131,-2066,42,27,10,-88,171,-259,-41
,441,2023-10-27 11:04:31.76,115,-129,-2053,38,20,14,-109,66,-175,21
,442,2023-10-27 11:04:31.77,115,-132,-2059,33,20,14,-148,150,-298,-1
,443,2023-10-27 11:04:31.78,110,-130,-2050,36,23,14,-175,42,-217,66
,444,2023-10-27 11:04:31.79,118,-139,-2051,38,25,13,-211,122,-333,44
,445,2023-10-27 11:04:31.80,125,-136,-2046,37,25,11,-245,-5,-240,125
,446,2023-10-27 11:04:31.81,129,-145,-2042,33,27,11,-272,67,-339,102
,447,2023-10-27 11:04:31.82,124,-133,-2025,33,32,10,-289,-46,-243,167
,448,2023-10-27 11:04:31.83,133,-140,-2036,36,46,5,-302,48,-350,127
,449,2023-10-27 11:04:31.84,131,-145,-2044,30,51,3,-312,-50,-262,181
,450,2023-10-27 11:04:31.85,121,-136,-2051,24,51,1,-320,41,-361,139
,451,2023-10-27 11:04:31.86,132,-138,-2059,25,48,2,-319,-65,-254,192
,452,2023-10-27 11:04:31.87,126,-136,-2067,20,45,0,-312,34,-346,139
,453,2023-10-27 11:04:31.88,122,-134,-2061,16,39,1,-317,-71,-246,194
,454,2023-10-27 11:04:31.89,122,-140,-2058,13,30,3,-304,40,-344,132
,455,2023-10-27 11:04:31.90,120,-140,-2044,11,20,2,-319,-73,-246,196
,456,2023-10-27 11:04:31.91,140,-129,-2061,12,-4,-2,-293,39,-332,127
,457,2023-10-27 11:04:31.92,150,-142,-2059,6,10,-7,-307,-76,-231,191
,458,2023-10-27 11:04:31.93,122,-136,-2060,6,3,-8,-281,37,-318,122
,459,2023-10-27 11:04:31.94,134,-131,-2050,10,-3,-13,-299,-77,-222,188
,460,2023-10-27 11:04:31.95,123,-142,-2055,12,-4,-15,-259,48,-307,105
,461,2023-10-27 11:04:31.96,126,-143,-2061,10,-9,-16,-293,-79,-214,186
,462,2023-10-27 11:04:31.97,137,-144,-2057,10,-16,-13,-249,49,-298,100
,463,2023-10-27 11:04:31.98,121,-147,-2055,15,-16,-12,-286,-77,-209,181
,464,2023-10-27 11:04:31.99,123,-153,-2056,18,-16,-9,-245,49,-294,98
,465,2023-10-27 11:04:32.00,130,-150,-2048,16,-16,-9,-285,-84,-201,184
,466,2023-10-27 11:04:32.01,125,-146,-2051,14,-11,-3,-232,53,-285,89
,467,2023-10-27 11:04:32.02,133,-145,-2044,13,-8,-1,-284,-88,-196,186
,468,2023-10-27 11:04:32.03,109,-149,-2050,12,-5,3,-228,50,-278,89
,469,2023-10-27 11:04:32.04,132,-144,-2054,9,2,7,-278,-87,-191,182
,470,2023-10-27 11:04:32.05,113,-134,-2052,4,4,11,-208,58,-266,75
,471,2023-10-27 11:04:32.06,126,-136,-2049,0,5,14,-272,-91,-181,181
,472,2023-10-27 11:04:32.07,116,-140,-2052,0,3,15,-209,55,-264,77
,473,2023-10-27 11:04:32.08,128,-135,-2057,-2,4,19,-273,-90,-183,181
,474,2023-10-27 11:04:32.09,115,-139,-2064,-4,1,21,-200,60,-260,70
,475,2023-10-27 11:04:32.10,125,-139,-2063,-3,-4,22,-272,-90,-182,181
,476,2023-10-27 11:04:32.11,121,-134,-2056,-3,-8,21,-193,70,-263,61
,477,2023-10-27 11:04:32.12,123,-130,-2056,-4,-10,22,-273,-86,-187,179
,478,2023-10-27 11:04:32.13,125,-135,-2050,-2,-6,21,-186,73,-259,56
,479,2023-10-27 11:04:32.14,117,-134,-2056,-1,-5,21,-264,-81,-183,172
,480,2023-10-27 11:04:32.15,107,-134,-2061,-1,-10,22,-179,77,-256,51
,481,2023-10-27 11:04:32.16,122,-129,-2048,3,-8,22,-271,-84,-187,177
,482,2023-10-27 11:04:32.17,114,-142,-2053,8,-8,22,-173,87,-260,43
,483,2023-10-27 11:04:32.18,112,-151,-2060,11,-11,23,-258,-81,-177,169
,484,2023-10-27 11:04:32.19,110,-137,-2053,7,-11,25,-162,86,-248,38
,485,2023-10-27 11:04:32.20,118,-131,-2051,10,-9,26,-255,-72,-183,163
,486,2023-10-27 11:04:32.21,129,-126,-2057,8,-2,22,-158,95,-253,31
,487,2023-10-27 11:04:32.22,121,-131,-2057,6,3,17,-259,-79,-180,169
,488,2023-10-27 11:04:32.23,114,-131,-2056,1,2,13,-153,86,-239,33
,489,2023-10-27 11:04:32.24,109,-127,-2065,-2,-1,12,-260,-82,-178,171
,490,2023-10-27 11:04:32.25,114,-131,-2059,0,-6,9,-148,91,-239,28
,491,2023-10-27 11:04:32.26,113,-118,-2046,2,-14,10,-264,-90,-174,177
,492,2023-10-27 11:04:32.27,104,-130,-2049,-3,-11,10,-152,89,-241,31
,493,2023-10-27 11:04:32.28,107,-125,-2046,-1,-11,6,-266,-90,-176,178
,494,2023-10-27 11:04:32.29,113,-124,-2049,-2,-12,8,-155,75,-230,40
,495,2023-10-27 11:04:32.30,111,-129,-2042,-2,-8,9,-268,-88,-180,178
,496,2023-10-27 11:04:32.31,107,-140,-2052,-5,-1,8,-148,95,-243,26
,497,2023-10-27 11:04:32.32,118,-133,-2059,-9,1,11,-267,-89,-178,178
,498,2023-10-27 11:04:32.33,109,-137,-2054,-4,4,16,-137,90,-227,23
,499,2023-10-27 11:04:32.34,120,-128,-2054,0,2,19,-262,-89,-173,175
,500,2023-10-27 11:04:32.35,114,-137,-2049,-1,8,23,-138,92,-230,23
,501,2023-10-27 11:04:32.36,119,-138,-2058,0,11,25,-269,-92,-177,180
,502,2023-10-27 11:04:32.37,115,-130,-2053,1,12,25,-137,89,-226,24
,503,2023-10-27 11:04:32.38,124,-123,-2057,5,12,26,-272,-85,-187,178
,504,2023-10-27 11:04:32.39,115,-130,-2056,5,15,29,-140,100,-240,20
,505,2023-10-27 11:04:32.40,117,-134,-2058,6,15,29,-279,-84,-195,181
,506,2023-10-27 11:04:32.41,119,-123,-2053,13,18,25,-142,94,-236,24
,507,2023-10-27 11:04:32.42,118,-126,-2048,13,16,24,-276,-86,-190,181
,508,2023-10-27 11:04:32.43,121,-125,-2050,17,13,21,-142,94,-236,24
,509,2023-10-27 11:04:32.44,122,-127,-2053,18,15,19,-282,-90,-192,186
,510,2023-10-27 11:04:32.45,133,-121,-2051,19,13,13,-140,94,-234,23
,511,2023-10-27 11:04:32.46,112,-134,-2060,21,10,10,-283,-91,-192,187
,512,2023-10-27 11:04:32.47,118,-139,-2060,22,2,13,-142,94,-236,24
,513,2023-10-27 11:04:32.48,128,-141,-2047,25,0,14,-284,-86,-198,185
,514,2023-10-27 11:04:32.49,126,-144,-2047,26,5,13,-134,88,-222,23
,515,2023-10-27 11:04:32.50,114,-134,-2048,25,7,13,-282,-92,-190,187
,516,2023-10-27 11:04:32.51,120,-144,-2051,22,6,14,-137,89,-226,24
,517,2023-10-27 11:04:32.52,126,-148,-2060,19,9,15,-281,-89,-192,185
,518,2023-10-27 11:04:32.53,119,-150,-2060,16,8,18,-130,88,-218,21
,519,2023-10-27 11:04:32.54,118,-152,-2053,18,6,22,-283,-86,-197,184
,520,2023-10-27 11:04:32.55,121,-150,-2059,15,6,24,-133,95,-228,19
,521,2023-10-27 11:04:32.56,107,-146,-2057,10,8,28,-282,-82,-200,182
,522,2023-10-27 11:04:32.57,125,-141,-2058,6,6,28,-128,88,-216,20
,523,2023-10-27 11:04:32.58,119,-141,-2063,3,8,29,-282,-82,-200,182
,524,2023-10-27 11:04:32.59,118,-135,-2061,4,5,31,-126,99,-225,13
,525,2023-10-27 11:04:32.60,109,-140,-2052,-1,6,33,-284,-76,-208,180
,526,2023-10-27 11:04:32.61,118,-136,-2061,-5,8,32,-128,100,-228,14
,527,2023-10-27 11:04:32.62,114,-135,-2050,-6,8,33,-285,-82,-203,183
,528,2023-10-27 11:04:32.63,117,-138,-2051,-5,11,34,-127,88,-215,19
,529,2023-10-27 11:04:32.64,114,-135,-2052,-5,12,34,-288,-85,-203,186
,530,2023-10-27 11:04:32.65,114,-136,-2054,-4,13,33,-136,92,-228,22
,531,2023-10-27 11:04:32.66,115,-127,-2050,-2,12,31,-286,-76,-210,181
,532,2023-10-27 11:04:32.67,110,-133,-2053,2,11,27,-126,90,-216,18
,533,2023-10-27 11:04:32.68,108,-129,-2052,2,7,28,-289,-76,-213,182
,534,2023-10-27 11:04:32.69,114,-122,-2060,5,7,25,-131,91,-222,20
,535,2023-10-27 11:04:32.70,118,-127,-2051,7,5,21,-291,-83,-208,187
,536,2023-10-27 11:04:32.71,124,-124,-2057,9,7,16,-124,84,-208,20
,537,2023-10-27 11:04:32.72,121,-129,-2050,11,5,11,-281,-72,-209,176
,538,2023-10-27 11:04:32.73,111,-123,-2049,12,5,8,-124,92,-216,16
,539,2023-10-27 11:04:32.74,113,-129,-2046,13,8,4,-281,-66,-215,173
,540,2023-10-27 11:04:32.75,111,-129,-2046,12,12,4,-126,88,-214,19
,541,2023-10-27 11:04:32.76,119,-125,-2048,13,18,-2,-282,-62,-220,172
,542,2023-10-27 11:04:32.77,125,-130,-2049,13,21,-3,-122,91,-213,15
,543,2023-10-27 11:04:32.78,126,-132,-2049,11,20,-6,-284,-59,-225,171
,544,2023-10-27 11:04:32.79,128,-127,-2025,12,26,-8,-127,87,-214,20
,545,2023-10-27 11:04:32.80,127,-124,-2054,31,-22,-2,-279,-60,-219,169
,546,2023-10-27 11:04:32.81,138,-140,-2072,19,24,-5,-116,87,-203,14
,547,2023-10-27 11:04:32.82,99,-122,-2089,13,34,1,-276,-56,-220,166
,548,2023-10-27 11:04:32.83,126,-122,-2066,12,28,4,-112,91,-203,10
,549,2023-10-27 11:04:32.84,105,-127,-2047,11,35,10,-256,-46,-210,151
,550,2023-10-27 11:04:32.85,89,-115,-2044,16,14,13,-100,46,-146,27
,551,2023-10-27 11:04:32.86,115,-126,-2048,9,17,17,-235,-317,82,276
,552,2023-10-27 11:04:32.87,111,-122,-2067,-1,23,25,-76,-322,246,199
,553,2023-10-27 11:04:32.88,93,-119,-2059,-4,35,27,-242,-426,184,334
,554,2023-10-27 11:04:32.89,110,-114,-2047,-3,32,29,-108,-234,126,171
,555,2023-10-27 11:04:32.90,114,-108,-2046,9,0,32,-271,-295,24,283
,556,2023-10-27 11:04:32.91,129,-111,-2017,6,25,26,-131,-147,16,139
,557,2023-10-27 11:04:32.92,126,-114,-2034,21,33,15,-275,-251,-24,263
,558,2023-10-27 11:04:32.93,140,-114,-2036,35,31,7,-126,-110,-16,118
,559,2023-10-27 11:04:32.94,142,-116,-2034,49,43,-4,-274,-207,-67,240
,560,2023-10-27 11:04:32.95,137,-126,-2073,61,48,-12,-122,-72,-50,97
,561,2023-10-27 11:04:32.96,126,-125,-2074,67,48,-19,-270,-175,-95,222
,562,2023-10-27 11:04:32.97,129,-138,-2066,79,46,-19,-128,-48,-80,88
,563,2023-10-27 11:04:32.98,117,-158,-2081,84,44,-20,-279,-150,-129,214
,564,2023-10-27 11:04:32.99,106,-165,-2096,86,31,-12,-153,-46,-107,99
,565,2023-10-27 11:04:33.00,85,-194,-2114,90,21,1,-306,-144,-162,225
,566,2023-10-27 11:04:33.01,101,-190,-2093,98,2,18,-163,-28,-135,95
,567,2023-10-27 11:04:33.02,122,-178,-2044,105,-4,33,-297,-124,-173,210
,568,2023-10-27 11:04:33.03,139,-147,-2009,95,22,35,-168,-33,-135,100
,569,2023-10-27 11:04:33.04,151,-141,-1993,73,57,30,-312,-128,-184,220
,570,2023-10-27 11:04:33.05,118,-139,-1989,70,42,27,-177,-28,-149,102
,571,2023-10-27 11:04:33.06,179,-140,-1998,77,36,19,-300,-107,-193,203
,572,2023-10-27 11:04:33.07,150,-133,-1992,75,65,4,-164,-6,-158,85
,573,2023-10-27 11:04:33.08,168,-127,-1996,74,81,-15,-300,-83,-217,191
,574,2023-10-27 11:04:33.09,165,-121,-2007,67,94,-35,-162,0,-162,81
,575,2023-10-27 11:04:33.10,196,-144,-2031,65,92,-48,-284,-76,-208,180
,576,2023-10-27 11:04:33.11,165,-158,-2073,66,119,-60,-149,10,-159,69
,577,2023-10-27 11:04:33.12,160,-158,-2084,69,100,-72,-280,-61,-219,170
,578,2023-10-27 11:04:33.13,150,-167,-2125,60,101,-73,-164,10,-174,77
,579,2023-10-27 11:04:33.14,138,-185,-2149,50,94,-68,-285,-54,-231,169
,580,2023-10-27 11:04:33.15,126,-186,-2153,54,49,-56,-148,20,-168,64
,581,2023-10-27 11:04:33.16,122,-209,-2121,66,1,-45,-259,-37,-222,148
,582,2023-10-27 11:04:33.17,125,-206,-2094,75,-51,-27,-145,22,-167,61
,583,2023-10-27 11:04:33.18,128,-217,-2080,82,-75,-9,-264,-33,-231,148
,584,2023-10-27 11:04:33.19,123,-214,-2070,87,-86,5,-158,17,-175,70
,585,2023-10-27 11:04:33.20,133,-207,-2051,91,-80,15,-262,-33,-229,147
,586,2023-10-27 11:04:33.21,144,-208,-2041,87,-66,20,-146,18,-164,64
,587,2023-10-27 11:04:33.22,141,-209,-2002,80,-20,17,-254,-22,-232,138
,588,2023-10-27 11:04:33.23,119,-213,-2016,87,-20,22,-155,21,-176,67
,589,2023-10-27 11:04:33.24,121,-238,-2029,95,-16,29,-265,-25,-240,145
,590,2023-10-27 11:04:33.25,116,-242,-2038,97,-1,41,-165,0,-165,82
,591,2023-10-27 11:04:33.26,119,-225,-2025,102,-2,55,-268,-34,-234,151
,592,2023-10-27 11:04:33.27,114,-212,-1991,96,24,63,-170,1,-171,84
,593,2023-10-27 11:04:33.28,149,-206,-2011,80,52,68,-265,-26,-239,145
,594,2023-10-27 11:04:33.29,139,-196,-2011,56,84,66,-166,-1,-165,83
,595,2023-10-27 11:04:33.30,141,-188,-2018,37,106,64,-256,-18,-238,137
,596,2023-10-27 11:04:33.31,155,-180,-2011,25,118,64,-164,3,-167,80
,597,2023-10-27 11:04:33.32,140,-172,-1971,16,121,59,-248,-12,-236,130
,598,2023-10-27 11:04:33.33,135,-171,-2014,23,67,65,-159,1,-160,79
,599,2023-10-27 11:04:33.34,187,-189,-2037,23,51,63,-240,-4,-236,122
,600,2023-10-27 11:04:33.35,163,-182,-2044,16,88,57,-155,14,-169,70
,601,2023-10-27 11:04:33.36,175,-169,-2034,7,101,47,-226,23,-249,101
,602,2023-10-27 11:04:33.37,196,-156,-2035,-5,97,36,-142,22,-164,60
,603,2023-10-27 11:04:33.38,193,-150,-2039,-14,104,24,-212,34,-246,89
,604,2023-10-27 11:04:33.39,200,-163,-2052,-14,107,9,-131,31,-162,50
,605,2023-10-27 11:04:33.40,204,-156,-2068,-8,108,-5,-193,41,-234,76
,606,2023-10-27 11:04:33.41,212,-165,-2082,-8,103,-21,-130,19,-149,55
,607,2023-10-27 11:04:33.42,202,-171,-2091,-8,103,-34,-198,39,-237,79
,608,2023-10-27 11:04:33.43,207,-168,-2091,-5,98,-42,-131,32,-163,49
,609,2023-10-27 11:04:33.44,199,-170,-2091,3,82,-48,-196,41,-237,77
,610,2023-10-27 11:04:33.45,207,-169,-2094,9,59,-54,-149,14,-163,67
,611,2023-10-27 11:04:33.46,188,-177,-2091,9,49,-59,-210,36,-246,87
,612,2023-10-27 11:04:33.47,193,-187,-2093,16,35,-60,-166,9,-175,78
,613,2023-10-27 11:04:33.48,189,-186,-2073,29,4,-56,-216,35,-251,90
,614,2023-10-27 11:04:33.49,201,-185,-2061,40,-22,-49,-173,1,-174,86
,615,2023-10-27 11:04:33.50,179,-194,-2044,45,-36,-41,-218,44,-262,87
,616,2023-10-27 11:04:33.51,178,-202,-2041,50,-42,-33,-177,5,-182,86
,617,2023-10-27 11:04:33.52,165,-211,-2037,49,-40,-25,-216,49,-265,83
,618,2023-10-27 11:04:33.53,175,-227,-2039,49,-39,-10,-174,-3,-171,88
,619,2023-10-27 11:04:33.54,169,-231,-2050,52,-40,8,-210,48,-258,81
,620,2023-10-27 11:04:33.55,166,-228,-2038,53,-39,27,-176,-11,-165,93
,621,2023-10-27 11:04:33.56,176,-214,-2050,52,-32,44,-210,40,-250,85
,622,2023-10-27 11:04:33.57,171,-208,-2025,45,-28,57,-179,-18,-161,98
,623,2023-10-27 11:04:33.58,173,-199,-2024,35,-10,68,-210,46,-256,82
,624,2023-10-27 11:04:33.59,180,-197,-2024,22,7,73,-196,-16,-180,106
,625,2023-10-27 11:04:33.60,192,-194,-2031,11,21,81,-224,53,-277,85
,626,2023-10-27 11:04:33.61,185,-182,-2024,0,39,87,-198,-13,-185,105
,627,2023-10-27 11:04:33.62,207,-178,-2039,-11,52,86,-198,67,-265,65
,628,2023-10-27 11:04:33.63,217,-171,-2028,-23,66,83,-174,-1,-173,87
,629,2023-10-27 11:04:33.64,202,-156,-2037,-28,71,79,-177,84,-261,46
,630,2023-10-27 11:04:33.65,206,-153,-2043,-33,68,72,-170,-6,-164,88
,631,2023-10-27 11:04:33.66,194,-159,-2055,-31,61,62,-184,80,-264,52
,632,2023-10-27 11:04:33.67,202,-168,-2073,-25,43,58,-181,-6,-175,93
,633,2023-10-27 11:04:33.68,190,-171,-2085,-16,21,57,-176,85,-261,45
,634,2023-10-27 11:04:33.69,183,-172,-2083,-7,-7,54,-182,-10,-172,96
,635,2023-10-27 11:04:33.70,179,-172,-2084,4,-38,51,-188,85,-273,51
,636,2023-10-27 11:04:33.71,169,-177,-2077,19,-69,57,-199,-17,-182,108
,637,2023-10-27 11:04:33.72,176,-191,-2075,37,-98,58,-190,66,-256,62
,638,2023-10-27 11:04:33.73,174,-203,-2069,59,-116,66,-202,-37,-165,119
,639,2023-10-27 11:04:33.74,203,-212,-2089,73,-112,70,-183,80,-263,51
,640,2023-10-27 11:04:33.75,171,-239,-2050,81,-95,64,-191,-17,-174,104
,641,2023-10-27 11:04:33.76,176,-210,-2050,103,-110,66,-157,105,-262,26
,642,2023-10-27 11:04:33.77,182,-206,-2030,108,-91,56,-181,-4,-177,92
,643,2023-10-27 11:04:33.78,167,-175,-2053,111,-88,50,-158,108,-266,25
,644,2023-10-27 11:04:33.79,167,-187,-2060,106,-81,40,-192,-22,-170,107
,645,2023-10-27 11:04:33.80,135,-197,-2078,95,-72,35,-165,101,-266,32
,646,2023-10-27 11:04:33.81,128,-235,-2106,84,-69,36,-201,-21,-180,111
,647,2023-10-27 11:04:33.82,81,-243,-2121,70,-76,47,-160,96,-256,32
,648,2023-10-27 11:04:33.83,70,-263,-2123,58,-90,66,-203,-33,-170,118
,649,2023-10-27 11:04:33.84,71,-277,-2094,57,-115,91,-162,104,-266,29
,650,2023-10-27 11:04:33.85,77,-257,-2052,64,-137,112,-209,-34,-175,121
,651,2023-10-27 11:04:33.86,99,-253,-2022,67,-143,127,-165,97,-262,34
,652,2023-10-27 11:04:33.87,92,-233,-1997,70,-140,134,-218,-42,-176,130
,653,2023-10-27 11:04:33.88,120,-219,-1972,67,-122,138,-175,89,-264,43
,654,2023-10-27 11:04:33.89,112,-215,-1961,64,-99,135,-233,-49,-184,141
,655,2023-10-27 11:04:33.90,133,-209,-1960,60,-69,130,-181,90,-271,45
,656,2023-10-27 11:04:33.91,124,-202,-1966,57,-45,123,-221,-44,-177,132
,657,2023-10-27 11:04:33.92,146,-191,-1977,50,-24,111,-158,97,-255,30
,658,2023-10-27 11:04:33.93,146,-195,-1990,35,22,102,-232,-50,-182,141
,659,2023-10-27 11:04:33.94,156,-199,-2015,15,70,86,-170,96,-266,37
,660,2023-10-27 11:04:33.95,148,-204,-2038,-1,95,73,-237,-60,-177,148
,661,2023-10-27 11:04:33.96,157,-186,-2041,-10,99,67,-182,72,-254,55
,662,2023-10-27 11:04:33.97,153,-180,-2047,-18,101,57,-257,-78,-179,167
,663,2023-10-27 11:04:33.98,174,-170,-2031,-31,119,43,-182,77,-259,52
,664,2023-10-27 11:04:33.99,131,-186,-2002,-33,103,30,-259,-81,-178,170
,665,2023-10-27 11:04:34.00,174,-192,-2057,-19,56,28,-192,67,-259,62
,666,2023-10-27 11:04:34.01,214,-185,-2047,-12,63,16,-274,-86,-188,180
,667,2023-10-27 11:04:34.02,182,-187,-2035,-2,74,2,-190,69,-259,60
,668,2023-10-27 11:04:34.03,189,-214,-2061,5,63,-11,-275,-88,-187,181
,669,2023-10-27 11:04:34.04,173,-225,-2083,6,78,-19,-191,79,-270,56
,670,2023-10-27 11:04:34.05,156,-237,-2116,24,49,-23,-275,-80,-195,177
,671,2023-10-27 11:04:34.06,138,-244,-2105,51,7,-19,-176,84,-260,46
,672,2023-10-27 11:04:34.07,144,-236,-2083,77,-44,-9,-265,-77,-188,171
,673,2023-10-27 11:04:34.08,139,-254,-2079,89,-68,-2,-163,97,-260,33
,674,2023-10-27 11:04:34.09,146,-255,-2080,98,-80,6,-258,-70,-188,164
,675,2023-10-27 11:04:34.10,150,-249,-2063,103,-84,13,-161,99,-260,31
,676,2023-10-27 11:04:34.11,153,-244,-2051,105,-80,15,-263,-67,-196,165
,677,2023-10-27 11:04:34.12,158,-263,-2068,99,-66,22,-152,110,-262,21
,678,2023-10-27 11:04:34.13,136,-260,-2047,83,-38,22,-253,-63,-190,158
,679,2023-10-27 11:04:34.14,132,-251,-2015,82,-27,29,-140,108,-248,16
,680,2023-10-27 11:04:34.15,137,-248,-2003,76,-22,36,-251,-62,-189,156
,681,2023-10-27 11:04:34.16,124,-246,-2024,65,-23,40,-132,118,-250,7
,682,2023-10-27 11:04:34.17,128,-253,-2061,52,-5,46,-243,-66,-177,154
,683,2023-10-27 11:04:34.18,97,-275,-2084,49,-10,59,-132,112,-244,10
,684,2023-10-27 11:04:34.19,123,-285,-2083,53,-26,76,-255,-64,-191,159
,685,2023-10-27 11:04:34.20,90,-292,-2075,50,-13,90,-141,113,-254,14
,686,2023-10-27 11:04:34.21,94,-288,-2040,54,-40,106,-274,-76,-198,175
,687,2023-10-27 11:04:34.22,116,-278,-2026,59,-51,121,-162,103,-265,29
,688,2023-10-27 11:04:34.23,126,-267,-2013,60,-35,127,-287,-70,-217,178
,689,2023-10-27 11:04:34.24,133,-255,-2002,65,-36,128,-161,109,-270,26
,690,2023-10-27 11:04:34.25,135,-239,-1985,64,-26,128,-280,-63,-217,171
,691,2023-10-27 11:04:34.26,146,-220,-1991,59,-14,115,-144,116,-260,14
,692,2023-10-27 11:04:34.27,143,-220,-2011,43,10,105,-269,-71,-198,170
,693,2023-10-27 11:04:34.28,130,-237,-2039,25,32,92,-129,114,-243,7
,694,2023-10-27 11:04:34.29,113,-247,-2061,13,33,85,-262,-66,-196,164
,695,2023-10-27 11:04:34.30,120,-253,-2065,8,26,79,-128,114,-242,7
,696,2023-10-27 11:04:34.31,129,-247,-2062,2,17,78,-274,-86,-188,180
,697,2023-10-27 11:04:34.32,127,-255,-2053,-4,17,71,-140,96,-236,22
,698,2023-10-27 11:04:34.33,136,-248,-2037,-18,19,60,-285,-82,-203,183
,699,2023-10-27 11:04:34.34,128,-246,-2035,-22,23,54,-135,98,-233,18
,700,2023-10-27 11:04:34.35,138,-248,-2034,-18,23,47,-269,-76,-193,172
,701,2023-10-27 11:04:34.36,144,-248,-2024,-19,28,43,-126,105,-231,10
,702,2023-10-27 11:04:34.37,135,-260,-2027,-19,37,38,-269,-81,-188,175
,703,2023-10-27 11:04:34.38,147,-258,-2026,-15,41,34,-126,103,-229,11
,704,2023-10-27 11:04:34.39,151,-252,-2018,-15,46,34,-275,-72,-203,173
,705,2023-10-27 11:04:34.40,144,-248,-2017,-13,55,31,-128,107,-235,10
,706,2023-10-27 11:04:34.41,131,-255,-2020,-14,56,32,-281,-72,-209,176
,707,2023-10-27 11:04:34.42,146,-256,-2035,-8,47,36,-123,105,-228,9
,708,2023-10-27 11:04:34.43,145,-234,-2038,-7,43,36,-260,-77,-183,168
,709,2023-10-27 11:04:34.44,147,-243,-2043,-11,47,34,-108,97,-205,5
,710,2023-10-27 11:04:34.45,131,-251,-2067,-23,60,35,-263,-75,-188,169
,711,2023-10-27 11:04:34.46,136,-246,-2076,-28,46,37,-120,101,-221,9
,712,2023-10-27 11:04:34.47,134,-265,-2096,-29,39,45,-282,-75,-207,178
,713,2023-10-27 11:04:34.48,130,-254,-2083,-31,29,55,-126,96,-222,15
,714,2023-10-27 11:04:34.49,129,-240,-2054,-30,19,61,-272,-73,-199,172
,715,2023-10-27 11:04:34.50,125,-246,-2042,-29,11,66,-115,102,-217,6
,716,2023-10-27 11:04:34.51,147,-245,-2044,-32,14,71,-273,-72,-201,172
,717,2023-10-27 11:04:34.52,125,-249,-2045,-31,8,77,-127,94,-221,16
,718,2023-10-27 11:04:34.53,148,-248,-2056,-21,-3,83,-281,-77,-204,179
,719,2023-10-27 11:04:34.54,149,-250,-2045,-15,-3,87,-118,95,-213,11
,720,2023-10-27 11:04:34.55,167,-227,-2052,-7,-5,89,-267,-71,-196,169
,721,2023-10-27 11:04:34.56,149,-228,-2040,-8,10,84,-114,96,-210,9
,722,2023-10-27 11:04:34.57,161,-214,-2038,-4,3,81,-272,-68,-204,170
,723,2023-10-27 11:04:34.58,163,-220,-2030,1,8,73,-114,89,-203,12
,724,2023-10-27 11:04:34.59,149,-222,-2037,5,18,65,-270,-70,-200,170
,725,2023-10-27 11:04:34.60,144,-218,-2051,9,8,59,-119,90,-209,14
,726,2023-10-27 11:04:34.61,158,-218,-2061,10,6,52,-279,-73,-206,176
,727,2023-10-27 11:04:34.62,151,-217,-2062,17,-2,43,-126,79,-205,23
,728,2023-10-27 11:04:34.63,158,-213,-2050,25,-9,37,-281,-77,-204,179
,729,2023-10-27 11:04:34.64,146,-216,-2053,32,-17,30,-128,76,-204,26
,730,2023-10-27 11:04:34.65,142,-215,-2068,31,-22,18,-299,-89,-210,194
,731,2023-10-27 11:04:34.66,140,-212,-2077,27,-32,9,-160,54,-214,53
,732,2023-10-27 11:04:34.67,139,-209,-2071,23,-35,2,-316,-97,-219,206
,733,2023-10-27 11:04:34.68,132,-203,-2068,23,-42,-6,-154,54,-208,50
,734,2023-10-27 11:04:34.69,156,-202,-2065,17,-57,-15,-299,-89,-210,194
,735,2023-10-27 11:04:34.70,148,-203,-2052,6,-48,-30,-143,59,-202,42
,736,2023-10-27 11:04:34.71,152,-199,-2040,6,-60,-40,-299,-84,-215,191
,737,2023-10-27 11:04:34.72,158,-180,-2040,2,-56,-50,-157,52,-209,52
,738,2023-10-27 11:04:34.73,172,-197,-2039,-9,-36,-61,-312,-81,-231,196
,739,2023-10-27 11:04:34.74,140,-227,-2043,-20,-26,-66,-161,54,-215,53
,740,2023-10-27 11:04:34.75,144,-239,-2038,-17,-33,-59,-306,-74,-232,190
,741,2023-10-27 11:04:34.76,161,-246,-2014,-1,-43,-47,-150,62,-212,44
,742,2023-10-27 11:04:34.77,153,-261,-1987,18,-50,-33,-294,-58,-236,176
,743,2023-10-27 11:04:34.78,154,-266,-2003,32,-36,-20,-139,67,-206,36
,744,2023-10-27 11:04:34.79,149,-272,-2024,41,-31,-10,-288,-52,-236,170
,745,2023-10-27 11:04:34.80,147,-282,-2039,53,-16,7,-139,71,-210,34
,746,2023-10-27 11:04:34.81,127,-285,-2065,70,-23,27,-288,-46,-242,167
,747,2023-10-27 11:04:34.82,125,-287,-2050,75,-18,44,-145,71,-216,37
,748,2023-10-27 11:04:34.83,125,-275,-2056,69,-3,57,-290,-45,-245,167
,749,2023-10-27 11:04:34.84,102,-263,-2066,67,-20,72,-146,64,-210,41
,750,2023-10-27 11:04:34.85,116,-258,-2060,76,-36,87,-299,-67,-232,183
,751,2023-10-27 11:04:34.86,129,-273,-2049,78,-31,96,-175,28,-203,73
,752,2023-10-27 11:04:34.87,134,-282,-2037,88,-51,104,-344,-114,-230,229
,753,2023-10-27 11:04:34.88,98,-309,-2036,87,-32,106,-232,-39,-193,135
,754,2023-10-27 11:04:34.89,109,-302,-2055,99,-31,113,-425,-184,-241,304
,755,2023-10-27 11:04:34.90,84,-320,-2063,121,-51,122,-306,-90,-216,198
,756,2023-10-27 11:04:34.91,83,-312,-2053,133,-64,128,-439,-182,-257,310
,757,2023-10-27 11:04:34.92,82,-303,-2054,142,-71,128,-286,-66,-220,176
,758,2023-10-27 11:04:34.93,75,-299,-2050,150,-85,134,-426,-163,-263,294
,759,2023-10-27 11:04:34.94,85,-305,-2058,151,-86,132,-288,-66,-222,177
,760,2023-10-27 11:04:34.95,79,-291,-2044,148,-95,132,-416,-143,-273,279
,761,2023-10-27 11:04:34.96,90,-273,-2026,141,-87,125,-264,-44,-220,154
,762,2023-10-27 11:04:34.97,93,-258,-2040,128,-91,114,-373,-105,-268,239
,763,2023-10-27 11:04:34.98,65,-242,-2041,107,-84,98,-218,3,-221,107
,764,2023-10-27 11:04:34.99,66,-243,-2048,81,-83,79,-317,-42,-275,179
,765,2023-10-27 11:04:35.00,84,-211,-2060,45,-75,65,-167,51,-218,58
,766,2023-10-27 11:04:35.01,63,-202,-2053,6,-73,46,-269,2,-271,133
,767,2023-10-27 11:04:35.02,105,-196,-2063,-42,-46,21,-118,81,-199,18
,768,2023-10-27 11:04:35.03,59,-185,-2062,-108,9,-5,-199,50,-249,74
,769,2023-10-27 11:04:35.04,92,-181,-2064,-156,13,-29,-71,115,-186,-22
,770,2023-10-27 11:04:35.05,69,-207,-2039,-193,10,-55,-191,52,-243,69
,771,2023-10-27 11:04:35.06,86,-204,-2057,-201,-7,-71,-91,86,-177,2
,772,2023-10-27 11:04:35.07,81,-202,-2023,-201,-19,-88,-220,35,-255,92
,773,2023-10-27 11:04:35.08,72,-210,-2014,-197,-39,-102,-108,80,-188,14
,774,2023-10-27 11:04:35.09,81,-223,-2007,-188,-55,-106,-195,47,-242,74
,775,2023-10-27 11:04:35.10,91,-244,-2013,-162,-73,-116,-78,89,-167,-5
,776,2023-10-27 11:04:35.11,65,-275,-2005,-129,-83,-117,-184,54,-238,65
,777,2023-10-27 11:04:35.12,76,-276,-2014,-97,-87,-113,-86,93,-179,-3
,778,2023-10-27 11:04:35.13,87,-278,-2007,-68,-76,-108,-180,61,-241,59
,779,2023-10-27 11:04:35.14,94,-270,-2000,-47,-66,-100,-86,79,-165,3
,780,2023-10-27 11:04:35.15,91,-271,-2025,-20,-48,-93,-186,51,-237,67
,781,2023-10-27 11:04:35.16,85,-284,-2034,1,-38,-83,-100,70,-170,15
,782,2023-10-27 11:04:35.17,90,-288,-2045,32,-28,-74,-200,41,-241,79
,783,2023-10-27 11:04:35.18,74,-302,-2042,54,-21,-62,-114,53,-167,30
,784,2023-10-27 11:04:35.19,92,-301,-2051,80,-6,-52,-200,40,-240,80
,785,2023-10-27 11:04:35.20,79,-306,-2044,102,2,-42,-117,53,-170,32
,786,2023-10-27 11:04:35.21,63,-306,-2066,120,6,-32,-205,34,-239,85
,787,2023-10-27 11:04:35.22,63,-300,-2059,134,9,-22,-130,32,-162,49
,788,2023-10-27 11:04:35.23,69,-304,-2059,142,8,-11,-218,19,-237,99
,789,2023-10-27 11:04:35.24,73,-287,-2039,148,5,2,-144,16,-160,64
,790,2023-10-27 11:04:35.25,66,-280,-2022,141,18,7,-221,12,-233,104
,791,2023-10-27 11:04:35.26,75,-292,-2022,127,35,10,-141,11,-152,65
,792,2023-10-27 11:04:35.27,64,-289,-2033,103,50,15,-204,26,-230,89
,793,2023-10-27 11:04:35.28,81,-287,-2038,88,55,21,-140,20,-160,60
,794,2023-10-27 11:04:35.29,87,-281,-2032,75,66,21,-204,37,-241,83
,795,2023-10-27 11:04:35.30,85,-265,-2027,55,75,23,-138,21,-159,58
,796,2023-10-27 11:04:35.31,84,-271,-2030,28,88,22,-193,38,-231,77
,797,2023-10-27 11:04:35.32,84,-271,-2033,6,92,23,-138,16,-154,61
,798,2023-10-27 11:04:35.33,51,-269,-2012,0,68,27,-192,44,-236,74
,799,2023-10-27 11:04:35.34,99,-261,-2038,-5,27,31,-137,17,-154,60
,800,2023-10-27 11:04:35.35,87,-276,-2049,-18,26,35,-189,41,-230,74
,801,2023-10-27 11:04:35.36,102,-261,-2041,-35,72,31,-146,6,-152,70
,802,2023-10-27 11:04:35.37,74,-267,-2039,-47,66,26,-190,43,-233,73
,803,2023-10-27 11:04:35.38,86,-264,-2045,-48,28,26,-148,2,-150,73
,804,2023-10-27 11:04:35.39,114,-239,-2051,-50,34,22,-195,33,-228,81
,805,2023-10-27 11:04:35.40,107,-232,-2054,-49,47,9,-162,-12,-150,87
,806,2023-10-27 11:04:35.41,87,-234,-2055,-59,48,-6,-202,36,-238,83
,807,2023-10-27 11:04:35.42,105,-236,-2069,-59,29,-14,-168,-14,-154,91
,808,2023-10-27 11:04:35.43,110,-241,-2064,-55,20,-26,-208,33,-241,87
,809,2023-10-27 11:04:35.44,110,-244,-2067,-42,18,-37,-182,-21,-161,101
,810,2023-10-27 11:04:35.45,92,-250,-2071,-35,7,-47,-200,43,-243,78
,811,2023-10-27 11:04:35.46,110,-247,-2072,-33,-4,-54,-170,-22,-148,96
,812,2023-10-27 11:04:35.47,101,-253,-2058,-28,-13,-58,-189,40,-229,74
,813,2023-10-27 11:04:35.48,112,-250,-2047,-18,-23,-58,-180,-29,-151,104
,814,2023-10-27 11:04:35.49,113,-243,-2027,-15,-19,-56,-195,36,-231,79
,815,2023-10-27 11:04:35.50,113,-254,-2032,-22,-4,-55,-184,-35,-149,109
,816,2023-10-27 11:04:35.51,102,-251,-2038,-28,8,-54,-191,43,-234,74
,817,2023-10-27 11:04:35.52,109,-255,-2037,-25,8,-48,-180,-37,-143,108
,818,2023-10-27 11:04:35.53,111,-263,-2035,-16,5,-42,-195,35,-230,80
,819,2023-10-27 11:04:35.54,114,-260,-2031,-7,2,-40,-197,-59,-138,128
,820,2023-10-27 11:04:35.55,116,-262,-2013,0,16,-35,-201,22,-223,89
,821,2023-10-27 11:04:35.56,106,-270,-2042,6,28,-30,-201,-65,-136,133
,822,2023-10-27 11:04:35.57,121,-266,-2042,15,30,-23,-209,22,-231,93
,823,2023-10-27 11:04:35.58,107,-253,-2027,25,26,-13,-227,-70,-157,148
,824,2023-10-27 11:04:35.59,125,-249,-2037,27,23,-4,-229,19,-248,105
,825,2023-10-27 11:04:35.60,120,-249,-2027,22,38,0,-243,-78,-165,160
,826,2023-10-27 11:04:35.61,110,-257,-2039,14,52,6,-228,22,-250,103
,827,2023-10-27 11:04:35.62,115,-255,-2040,12,50,12,-237,-82,-155,159
,828,2023-10-27 11:04:35.63,105,-263,-2039,15,42,19,-214,23,-237,95
,829,2023-10-27 11:04:35.64,129,-265,-2050,15,41,27,-230,-82,-148,156
,830,2023-10-27 11:04:35.65,107,-261,-2045,11,59,34,-204,31,-235,86
,831,2023-10-27 11:04:35.66,115,-253,-2049,11,48,37,-230,-77,-153,153
,832,2023-10-27 11:04:35.67,127,-246,-2039,11,36,43,-208,39,-247,84
,833,2023-10-27 11:04:35.68,117,-247,-2044,8,44,47,-244,-77,-167,160
,834,2023-10-27 11:04:35.69,116,-246,-2044,4,44,47,-211,44,-255,83
,835,2023-10-27 11:04:35.70,110,-242,-2045,-4,43,45,-237,-74,-163,155
,836,2023-10-27 11:04:35.71,112,-248,-2056,-6,40,43,-193,56,-249,68
,837,2023-10-27 11:04:35.72,109,-241,-2052,-10,39,43,-233,-73,-160,153
,838,2023-10-27 11:04:35.73,107,-237,-2047,-9,31,40,-194,63,-257,65
,839,2023-10-27 11:04:35.74,122,-236,-2059,-6,15,35,-232,-69,-163,150
,840,2023-10-27 11:04:35.75,119,-238,-2047,-10,19,28,-181,68,-249,56
,841,2023-10-27 11:04:35.76,117,-232,-2052,-4,10,18,-229,-68,-161,148
,842,2023-10-27 11:04:35.77,111,-236,-2040,-2,7,12,-173,73,-246,50
,843,2023-10-27 11:04:35.78,113,-234,-2049,6,-3,3,-231,-62,-169,146
,844,2023-10-27 11:04:35.79,115,-242,-2051,9,-6,-6,-175,85,-260,45
,845,2023-10-27 11:04:35.80,112,-249,-2053,19,-16,-6,-236,-62,-174,149
,846,2023-10-27 11:04:35.81,114,-258,-2051,28,-25,-11,-170,79,-249,45
,847,2023-10-27 11:04:35.82,102,-248,-2050,34,-31,-13,-235,-68,-167,151
,848,2023-10-27 11:04:35.83,122,-260,-2050,40,-37,-9,-164,82,-246,41
,849,2023-10-27 11:04:35.84,106,-263,-2046,44,-38,-9,-242,-74,-168,158
,850,2023-10-27 11:04:35.85,117,-268,-2050,46,-39,-4,-172,81,-253,45
,851,2023-10-27 11:04:35.86,103,-263,-2042,49,-33,-1,-243,-76,-167,159
,852,2023-10-27 11:04:35.87,117,-257,-2037,46,-26,-1,-164,76,-240,44
,853,2023-10-27 11:04:35.88,102,-254,-2043,46,-20,0,-251,-83,-168,167
,854,2023-10-27 11:04:35.89,106,-263,-2041,39,-16,-1,-182,74,-256,54
,855,2023-10-27 11:04:35.90,100,-259,-2038,39,-11,-1,-256,-81,-175,168
,856,2023-10-27 11:04:35.91,104,-262,-2032,38,-5,1,-162,80,-242,41
,857,2023-10-27 11:04:35.92,102,-266,-2038,35,3,-1,-247,-83,-164,165
,858,2023-10-27 11:04:35.93,118,-265,-2033,32,9,-1,-168,80,-248,44
,859,2023-10-27 11:04:35.94,104,-258,-2037,27,19,-4,-266,-85,-181,175
,860,2023-10-27 11:04:35.95,122,-255,-2027,19,27,-7,-166,80,-246,43
,861,2023-10-27 11:04:35.96,122,-267,-2034,16,44,-9,-257,-89,-168,173
,862,2023-10-27 11:04:35.97,112,-266,-2033,11,51,-10,-160,79,-239,40
,863,2023-10-27 11:04:35.98,118,-267,-2029,6,57,-11,-265,-92,-173,178
,864,2023-10-27 11:04:35.99,109,-261,-2034,4,64,-11,-162,83,-245,39
,865,2023-10-27 11:04:36.00,121,-267,-2035,-2,64,-10,-276,-87,-189,181
,866,2023-10-27 11:04:36.01,125,-268,-2044,-1,60,-6,-177,77,-254,50
,867,2023-10-27 11:04:36.02,123,-277,-2053,1,57,-4,-292,-97,-195,194
,868,2023-10-27 11:04:36.03,121,-268,-2052,5,53,3,-184,70,-254,57
,869,2023-10-27 11:04:36.04,91,-269,-2035,15,27,10,-295,-104,-191,199
,870,2023-10-27 11:04:36.05,148,-270,-2066,22,-7,13,-175,73,-248,51
,871,2023-10-27 11:04:36.06,111,-272,-2054,8,38,15,-289,-101,-188,195
,872,2023-10-27 11:04:36.07,118,-268,-2056,5,31,20,-176,74,-250,51
,873,2023-10-27 11:04:36.08,111,-279,-2045,2,22,28,-300,-98,-202,199
,874,2023-10-27 11:04:36.09,122,-266,-2043,2,14,34,-173,86,-259,43
,875,2023-10-27 11:04:36.10,109,-262,-2039,-1,12,41,-294,-95,-199,194
,876,2023-10-27 11:04:36.11,118,-262,-2048,-7,12,47,-166,85,-251,40
,877,2023-10-27 11:04:36.12,131,-268,-2044,-15,14,50,-292,-100,-192,196
,878,2023-10-27 11:04:36.13,129,-258,-2042,-17,14,54,-167,81,-248,43
,879,2023-10-27 11:04:36.14,123,-246,-2033,-19,13,54,-297,-97,-200,197
,880,2023-10-27 11:04:36.15,123,-255,-2034,-25,18,55,-163,88,-251,37
,881,2023-10-27 11:04:36.16,117,-247,-2039,-34,21,49,-294,-98,-196,196
,882,2023-10-27 11:04:36.17,119,-248,-2045,-35,21,45,-157,84,-241,36
,883,2023-10-27 11:04:36.18,121,-237,-2054,-32,14,41,-291,-97,-194,194
,884,2023-10-27 11:04:36.19,135,-233,-2047,-24,3,31,-156,83,-239,36
,885,2023-10-27 11:04:36.20,134,-236,-2050,-21,0,22,-302,-93,-209,197
,886,2023-10-27 11:04:36.21,132,-232,-2048,-17,-6,14,-162,91,-253,35
,887,2023-10-27 11:04:36.22,124,-233,-2047,-11,-4,0,-302,-91,-211,196
,888,2023-10-27 11:04:36.23,124,-231,-2044,-8,-2,-9,-158,89,-247,34
,889,2023-10-27 11:04:36.24,131,-240,-2029,0,6,-16,-301,-94,-207,197
,890,2023-10-27 11:04:36.25,131,-248,-2039,1,13,-24,-161,85,-246,38
,891,2023-10-27 11:04:36.26,123,-253,-2042,2,21,-27,-306,-92,-214,199
,892,2023-10-27 11:04:36.27,124,-244,-2038,2,27,-27,-157,93,-250,32
,893,2023-10-27 11:04:36.28,126,-265,-2034,5,35,-29,-307,-83,-224,195
,894,2023-10-27 11:04:36.29,111,-261,-2046,2,38,-26,-158,95,-253,31
,895,2023-10-27 11:04:36.30,101,-255,-2038,7,22,-19,-314,-94,-220,204
,896,2023-10-27 11:04:36.31,129,-256,-2048,20,3,-16,-164,84,-248,40
,897,2023-10-27 11:04:36.32,134,-239,-2031,22,16,-14,-317,-88,-229,202
,898,2023-10-27 11:04:36.33,129,-238,-2036,19,19,-17,-164,86,-250,39
,899,2023-10-27 11:04:36.34,131,-238,-2027,7,48,-23,-308,-88,-220,198
,900,2023-10-27 11:04:36.35,127,-238,-2042,15,26,-29,-144,87,-231,28
,901,2023-10-27 11:04:36.36,151,-227,-2025,22,18,-35,-297,-91,-206,194
,902,2023-10-27 11:04:36.37,140,-223,-2021,23,30,-46,-148,80,-228,34
,903,2023-10-27 11:04:36.38,151,-221,-2030,16,41,-60,-307,-91,-216,199
,904,2023-10-27 11:04:36.39,156,-214,-2042,10,49,-69,-156,79,-235,38
,905,2023-10-27 11:04:36.40,151,-225,-2051,15,40,-95,-307,-89,-218,198
,906,2023-10-27 11:04:36.41,142,-226,-2058,16,42,-107,-140,75,-215,32
,907,2023-10-27 11:04:36.42,134,-227,-2073,19,33,-114,-296,-86,-210,191
,908,2023-10-27 11:04:36.43,146,-245,-2070,26,20,-124,-151,80,-231,35
,909,2023-10-27 11:04:36.44,157,-245,-2066,35,14,-128,-312,-83,-229,197
,910,2023-10-27 11:04:36.45,157,-238,-2042,46,14,-135,-151,74,-225,38
,911,2023-10-27 11:04:36.46,155,-245,-2034,52,11,-140,-306,-90,-216,198
,912,2023-10-27 11:04:36.47,158,-247,-2037,48,13,-145,-154,72,-226,41
,913,2023-10-27 11:04:36.48,166,-254,-2043,43,26,-143,-316,-88,-228,202
,914,2023-10-27 11:04:36.49,141,-260,-2057,36,37,-139,-158,67,-225,45
,915,2023-10-27 11:04:36.50,142,-260,-2060,31,28,-130,-310,-86,-224,198
,916,2023-10-27 11:04:36.51,143,-260,-2052,26,19,-121,-161,63,-224,49
,917,2023-10-27 11:04:36.52,138,-269,-2041,23,14,-107,-318,-86,-232,202
,918,2023-10-27 11:04:36.53,153,-270,-2035,20,14,-102,-156,62,-218,47
,919,2023-10-27 11:04:36.54,148,-263,-2033,19,20,-97,-316,-88,-228,202
,920,2023-10-27 11:04:36.55,145,-269,-2032,17,23,-95,-161,55,-216,53
,921,2023-10-27 11:04:36.56,147,-254,-2033,20,19,-96,-317,-92,-225,204
,922,2023-10-27 11:04:36.57,164,-250,-2029,17,19,-94,-163,53,-216,55
,923,2023-10-27 11:04:36.58,151,-248,-2037,20,25,-95,-320,-84,-236,202
,924,2023-10-27 11:04:36.59,149,-245,-2050,16,25,-103,-159,50,-209,54
,925,2023-10-27 11:04:36.60,152,-258,-2063,14,17,-108,-318,-94,-224,206
,926,2023-10-27 11:04:36.61,146,-253,-2092,15,12,-114,-173,35,-208,69
,927,2023-10-27 11:04:36.62,140,-257,-2084,12,5,-112,-320,-90,-230,205
,928,2023-10-27 11:04:36.63,125,-256,-2073,10,-12,-115,-160,44,-204,58
,929,2023-10-27 11:04:36.64,139,-254,-2064,12,-47,-112,-317,-85,-232,201
,930,2023-10-27 11:04:36.65,140,-262,-2042,13,-70,-107,-169,35,-204,67
,931,2023-10-27 11:04:36.66,134,-286,-2046,19,-75,-103,-321,-87,-234,204
,932,2023-10-27 11:04:36.67,123,-296,-2049,19,-77,-95,-173,36,-209,68
,933,2023-10-27 11:04:36.68,121,-296,-2033,22,-79,-79,-311,-70,-241,190
,934,2023-10-27 11:04:36.69,120,-300,-2024,31,-74,-67,-152,54,-206,49
,935,2023-10-27 11:04:36.70,133,-308,-2021,39,-75,-51,-290,-52,-238,171
,936,2023-10-27 11:04:36.71,128,-292,-2027,45,-66,-43,-140,54,-194,43
,937,2023-10-27 11:04:36.72,130,-274,-2030,42,-57,-40,-275,-49,-226,162
,938,2023-10-27 11:04:36.73,145,-262,-2025,53,-34,-35,-130,61,-191,34
,939,2023-10-27 11:04:36.74,134,-266,-2045,50,-21,-35,-262,-35,-227,148
,940,2023-10-27 11:04:36.75,134,-272,-2018,32,-9,-38,-123,68,-191,27
,941,2023-10-27 11:04:36.76,142,-254,-2012,18,23,-41,-263,-26,-237,144
,942,2023-10-27 11:04:36.77,147,-261,-2020,6,47,-44,-122,63,-185,29
,943,2023-10-27 11:04:36.78,145,-247,-2026,-7,64,-47,-251,-28,-223,139
,944,2023-10-27 11:04:36.79,148,-255,-2027,-17,77,-48,-112,64,-176,24
,945,2023-10-27 11:04:36.80,129,-255,-2040,-27,83,-48,-245,-11,-234,128
,946,2023-10-27 11:04:36.81,138,-252,-2040,-35,83,-44,-106,80,-186,13
,947,2023-10-27 11:04:36.82,153,-242,-2040,-41,82,-41,-229,16,-245,106
,948,2023-10-27 11:04:36.83,136,-244,-2030,-32,50,-34,-76,104,-180,-14
,949,2023-10-27 11:04:36.84,172,-256,-2044,-31,25,-32,-169,67,-236,51
,950,2023-10-27 11:04:36.85,172,-242,-2043,-31,45,-27,-26,156,-182,-65
,951,2023-10-27 11:04:36.86,156,-272,-2042,-34,72,-30,-128,115,-243,6
,952,2023-10-27 11:04:36.87,162,-274,-2060,-28,58,-24,-4,174,-178,-85
,953,2023-10-27 11:04:36.88,146,-284,-2060,-13,42,-22,-117,107,-224,5
,954,2023-10-27 11:04:36.89,155,-279,-2067,9,36,-13,-12,146,-158,-67
,955,2023-10-27 11:04:36.90,152,-270,-2063,25,17,-7,-134,84,-218,25
,956,2023-10-27 11:04:36.91,135,-269,-2077,28,-3,-4,-32,126,-158,-47
,957,2023-10-27 11:04:36.92,106,-292,-2102,26,-29,3,-157,70,-227,43
,958,2023-10-27 11:04:36.93,104,-308,-2116,41,-62,16,-55,113,-168,-29
,959,2023-10-27 11:04:36.94,119,-323,-2112,66,-100,35,-163,68,-231,47
,960,2023-10-27 11:04:36.95,129,-321,-2087,85,-118,49,-56,92,-148,-18
,961,2023-10-27 11:04:36.96,145,-300,-2041,81,-99,53,-163,52,-215,55
,962,2023-10-27 11:04:36.97,141,-296,-2007,72,-78,54,-65,88,-153,-11
,963,2023-10-27 11:04:36.98,134,-285,-1977,61,-47,48,-178,49,-227,64
,964,2023-10-27 11:04:36.99,159,-276,-1956,51,-16,44,-95,70,-165,12
,965,2023-10-27 11:04:37.00,156,-273,-1969,53,4,37,-206,24,-230,91
,966,2023-10-27 11:04:37.01,149,-258,-1973,51,13,31,-110,41,-151,34
,967,2023-10-27 11:04:37.02,146,-263,-1982,46,25,26,-211,7,-218,102
,968,2023-10-27 11:04:37.03,169,-253,-2010,30,43,23,-127,25,-152,51
,969,2023-10-27 11:04:37.04,159,-248,-2022,9,64,20,-237,-6,-231,121
,970,2023-10-27 11:04:37.05,158,-245,-2045,-14,78,16,-158,4,-162,77
,971,2023-10-27 11:04:37.06,160,-241,-2048,-35,84,9,-245,-15,-230,130
,972,2023-10-27 11:04:37.07,162,-231,-2058,-51,81,9,-158,0,-158,79
,973,2023-10-27 11:04:37.08,165,-220,-2046,-65,68,7,-236,2,-238,117
,974,2023-10-27 11:04:37.09,167,-212,-2047,-79,61,3,-137,22,-159,57
,975,2023-10-27 11:04:37.10,162,-223,-2060,-93,53,-2,-187,63,-250,62
,976,2023-10-27 11:04:37.11,162,-229,-2077,-99,40,-1,-100,72,-172,14
,977,2023-10-27 11:04:37.12,157,-241,-2086,-100,19,4,-197,41,-238,78
,978,2023-10-27 11:04:37.13,149,-255,-2082,-95,-8,12,-148,-3,-145,75
,979,2023-10-27 11:04:37.14,138,-255,-2071,-88,-22,25,-247,-22,-225,134
,980,2023-10-27 11:04:37.15,145,-254,-2060,-89,-28,40,-190,-35,-155,112
,981,2023-10-27 11:04:37.16,143,-247,-2059,-83,-25,47,-282,-44,-238,163
,982,2023-10-27 11:04:37.17,150,-243,-2042,-83,-26,56,-227,-66,-161,146
,983,2023-10-27 11:04:37.18,141,-231,-2042,-79,-18,64,-307,-58,-249,182
,984,2023-10-27 11:04:37.19,159,-236,-2037,-74,-11,66,-245,-70,-175,157
,985,2023-10-27 11:04:37.20,149,-227,-2035,-70,2,69,-306,-52,-254,179
,986,2023-10-27 11:04:37.21,138,-243,-2039,-66,13,70,-253,-72,-181,162
,987,2023-10-27 11:04:37.22,135,-240,-2041,-55,18,75,-313,-43,-270,178
,988,2023-10-27 11:04:37.23,137,-249,-2032,-43,23,80,-253,-68,-185,160
,989,2023-10-27 11:04:37.24,140,-245,-2025,-31,29,84,-299,-34,-265,166
,990,2023-10-27 11:04:37.25,147,-236,-2013,-24,41,88,-246,-68,-178,157
,991,2023-10-27 11:04:37.26,157,-229,-2005,-20,61,84,-293,-33,-260,163
,992,2023-10-27 11:04:37.27,166,-228,-2004,-20,84,79,-250,-72,-178,161
,993,2023-10-27 11:04:37.28,169,-218,-2023,-25,100,73,-294,-29,-265,161
,994,2023-10-27 11:04:37.29,164,-211,-2029,-25,105,64,-261,-73,-188,167
,995,2023-10-27 11:04:37.30,162,-199,-2026,-26,113,57,-296,-14,-282,155
,996,2023-10-27 11:04:37.31,133,-209,-2033,-9,78,49,-253,-62,-191,157
,997,2023-10-27 11:04:37.32,187,-204,-2054,16,15,49,-269,4,-273,132
,998,2023-10-27 11:04:37.33,200,-193,-2052,18,33,39,-234,-55,-179,144
,999,2023-10-27 11:04:37.34,184,-195,-2065,4,70,22,-256,9,-265,123
,1000,2023-10-27 11:04:37.35,164,-196,-2062,-13,80,9,-234,-60,-174,147
,1001,2023-10-27 11:04:37.36,174,-208,-2088,-17,62,1,-252,11,-263,120
,1002,2023-10-27 11:04:37.37,188,-219,-2097,-8,44,-2,-235,-62,-173,148
,1003,2023-10-27 11:04:37.38,181,-222,-2087,1,39,-3,-254,9,-263,122
,1004,2023-10-27 11:04:37.39,181,-224,-2050,4,26,-7,-247,-70,-177,158
,1005,2023-10-27 11:04:37.40,188,-229,-2074,4,17,-8,-250,16,-266,117
,1006,2023-10-27 11:04:37.41,176,-219,-2063,9,7,-8,-243,-69,-174,156
,1007,2023-10-27 11:04:37.42,181,-238,-2056,20,-1,-2,-250,14,-264,118
,1008,2023-10-27 11:04:37.43,178,-246,-2043,26,-18,3,-255,-70,-185,162
,1009,2023-10-27 11:04:37.44,177,-236,-2029,32,-25,13,-259,19,-278,120
,1010,2023-10-27 11:04:37.45,181,-247,-2025,39,-24,14,-266,-77,-189,171
,1011,2023-10-27 11:04:37.46,179,-237,-2025,48,-15,15,-260,17,-277,121
