// Data mode  : Full
// Data quality  : High
// Acceleration sensor's range  : 16g
// Gyroscope sensor's range  : 2000dps
//
//ARTIFACT,NUM,DATE,ACC_X,ACC_Y,ACC_Z,GYRO_X,GYRO_Y,GYRO_Z,EOG_L,EOG_R,EOG_H,EOG_V
,1,2023-10-20 13:28:35.34,290,-183,-2039,1,4,34,-803,-398,-405,600
,2,2023-10-20 13:28:35.35,309,-173,-2024,32,-2,11,-701,-330,-371,515
,3,2023-10-20 13:28:35.36,310,-196,-2005,42,-8,-3,-674,-430,-244,552
,4,2023-10-20 13:28:35.37,331,-217,-2021,42,5,-12,-576,-505,-71,540
,5,2023-10-20 13:28:35.38,303,-237,-2034,46,25,-11,-505,-425,-80,465
,6,2023-10-20 13:28:35.39,272,-249,-2053,49,18,-3,-426,-340,-86,383
,7,2023-10-20 13:28:35.40,294,-251,-2057,52,1,11,-332,-378,46,355
,8,2023-10-20 13:28:35.41,276,-252,-2048,69,-18,22,-282,-450,168,366
,9,2023-10-20 13:28:35.42,293,-229,-2023,73,-17,18,-145,-373,228,259
,10,2023-10-20 13:28:35.43,280,-210,-2029,71,-22,11,-116,-311,195,213
,11,2023-10-20 13:28:35.44,298,-205,-2027,62,-30,10,51,-140,191,44
,12,2023-10-20 13:28:35.45,298,-217,-2022,46,-23,4,20,-141,161,60
,13,2023-10-20 13:28:35.46,298,-210,-2037,34,-17,-2,180,-357,537,88
,14,2023-10-20 13:28:35.47,308,-237,-2039,28,-14,-6,122,-535,657,206
,15,2023-10-20 13:28:35.48,280,-234,-2044,29,-12,-9,304,-586,890,141
,16,2023-10-20 13:28:35.49,274,-245,-2051,30,-17,-9,212,-559,771,173
,17,2023-10-20 13:28:35.50,271,-262,-2050,29,-22,-1,400,-589,989,94
,18,2023-10-20 13:28:35.51,254,-264,-2036,23,-26,13,280,-600,880,160
,19,2023-10-20 13:28:35.52,273,-265,-2031,5,-21,26,476,-675,1151,99
,20,2023-10-20 13:28:35.53,279,-244,-2012,-1,-21,37,338,-675,1013,168
,21,2023-10-20 13:28:35.54,271,-213,-2004,-9,-9,35,534,-568,1102,17
,22,2023-10-20 13:28:35.55,279,-190,-2000,-20,-1,31,370,-483,853,56
,23,2023-10-20 13:28:35.56,286,-189,-2017,-25,12,14,567,-428,995,-69
,24,2023-10-20 13:28:35.57,266,-191,-2027,-28,22,-2,397,-444,841,23
,25,2023-10-20 13:28:35.58,270,-195,-2035,-30,28,-15,597,-515,1112,-41
,26,2023-10-20 13:28:35.59,264,-213,-2052,-32,23,-18,415,-579,994,82
,27,2023-10-20 13:28:35.60,276,-225,-2061,-28,6,-12,610,-872,1482,131
,28,2023-10-20 13:28:35.61,294,-227,-2050,-29,6,-4,429,-934,1363,252
,29,2023-10-20 13:28:35.62,270,-214,-2037,-35,7,4,652,-966,1618,157
,30,2023-10-20 13:28:35.63,293,-212,-2000,-32,0,14,453,-840,1293,193
,31,2023-10-20 13:28:35.64,294,-207,-2005,-32,19,24,672,-747,1419,37
,32,2023-10-20 13:28:35.65,288,-207,-2009,-39,35,29,461,-652,1113,95
,33,2023-10-20 13:28:35.66,295,-204,-2040,-35,42,37,684,-604,1288,-40
,34,2023-10-20 13:28:35.67,279,-213,-2058,-33,48,48,473,-576,1049,51
,35,2023-10-20 13:28:35.68,291,-204,-2054,-32,49,53,698,-625,1323,-36
,36,2023-10-20 13:28:35.69,296,-214,-2061,-29,46,59,491,-617,1108,63
,37,2023-10-20 13:28:35.70,310,-215,-2043,-20,37,65,719,-532,1251,-93
,38,2023-10-20 13:28:35.71,321,-206,-2035,-11,37,61,500,-476,976,-12
,39,2023-10-20 13:28:35.72,322,-176,-2026,-9,35,60,727,-380,1107,-173
,40,2023-10-20 13:28:35.73,326,-164,-2021,-12,43,53,502,-398,900,-52
,41,2023-10-20 13:28:35.74,323,-161,-2018,-18,59,44,744,-485,1229,-129
,42,2023-10-20 13:28:35.75,318,-170,-2042,-12,61,32,506,-576,1082,35
,43,2023-10-20 13:28:35.76,308,-179,-2049,-2,44,20,745,-734,1479,-5
,44,2023-10-20 13:28:35.77,328,-190,-2067,7,37,11,513,-754,1267,120
,45,2023-10-20 13:28:35.78,304,-202,-2071,12,27,6,755,-755,1510,0
,46,2023-10-20 13:28:35.79,313,-218,-2068,19,12,6,521,-671,1192,75
,47,2023-10-20 13:28:35.80,311,-226,-2057,32,-3,13,750,-571,1321,-89
,48,2023-10-20 13:28:35.81,318,-223,-2036,37,-9,20,516,-490,1006,-13
,49,2023-10-20 13:28:35.82,310,-213,-2025,33,-2,28,744,-345,1089,-199
,50,2023-10-20 13:28:35.83,321,-208,-2005,32,-6,32,509,-343,852,-83
,51,2023-10-20 13:28:35.84,323,-196,-2002,30,6,35,749,-442,1191,-153
,52,2023-10-20 13:28:35.85,313,-208,-2027,31,16,32,523,-532,1055,4
,53,2023-10-20 13:28:35.86,302,-212,-2041,33,17,31,758,-581,1339,-88
,54,2023-10-20 13:28:35.87,304,-205,-2036,39,5,27,527,-547,1074,10
,55,2023-10-20 13:28:35.88,297,-209,-2040,43,-3,25,762,-361,1123,-200
,56,2023-10-20 13:28:35.89,305,-211,-2051,40,-10,24,523,-343,866,-90
,57,2023-10-20 13:28:35.90,301,-208,-2050,39,-13,28,758,-485,1243,-136
,58,2023-10-20 13:28:35.91,302,-213,-2042,34,-18,27,527,-573,1100,23
,59,2023-10-20 13:28:35.92,307,-207,-2025,22,-15,30,762,-547,1309,-107
,60,2023-10-20 13:28:35.93,297,-208,-2021,7,-11,25,528,-485,1013,-21
,61,2023-10-20 13:28:35.94,305,-216,-2029,0,-15,33,760,-334,1094,-213
,62,2023-10-20 13:28:35.95,285,-215,-2031,-11,-12,33,528,-327,855,-100
,63,2023-10-20 13:28:35.96,276,-207,-2031,-11,-18,38,762,-372,1134,-195
,64,2023-10-20 13:28:35.97,279,-216,-2043,-10,-21,41,537,-443,980,-47
,65,2023-10-20 13:28:35.98,289,-222,-2026,-1,-24,51,767,-408,1175,-179
,66,2023-10-20 13:28:35.99,283,-234,-2048,0,-24,64,533,-429,962,-52
,67,2023-10-20 13:28:36.00,291,-230,-2034,-1,-19,78,764,-487,1251,-138
,68,2023-10-20 13:28:36.01,279,-218,-2018,-4,-9,86,541,-536,1077,-2
,69,2023-10-20 13:28:36.02,282,-197,-2014,-13,7,92,768,-545,1313,-111
,70,2023-10-20 13:28:36.03,284,-183,-2028,-13,7,88,545,-518,1063,-13
,71,2023-10-20 13:28:36.04,285,-174,-2039,-5,9,76,778,-424,1202,-177
,72,2023-10-20 13:28:36.05,289,-159,-2042,1,15,58,548,-429,977,-59
,73,2023-10-20 13:28:36.06,290,-168,-2056,5,14,38,788,-505,1293,-141
,74,2023-10-20 13:28:36.07,278,-186,-2064,14,10,20,579,-545,1124,-17
,75,2023-10-20 13:28:36.08,295,-199,-2065,23,9,10,802,-522,1324,-140
,76,2023-10-20 13:28:36.09,289,-205,-2056,32,4,2,571,-472,1043,-49
,77,2023-10-20 13:28:36.10,299,-205,-2052,39,1,0,773,-362,1135,-205
,78,2023-10-20 13:28:36.11,309,-209,-2030,40,0,-3,555,-352,907,-101
,79,2023-10-20 13:28:36.12,291,-209,-2033,41,-1,-1,768,-341,1109,-213
,80,2023-10-20 13:28:36.13,293,-215,-2031,36,1,0,560,-359,919,-100
,81,2023-10-20 13:28:36.14,295,-216,-2023,34,-3,3,764,-263,1027,-250
,82,2023-10-20 13:28:36.15,292,-208,-2029,27,0,3,562,-289,851,-136
,83,2023-10-20 13:28:36.16,289,-222,-2027,18,0,11,755,-338,1093,-208
,84,2023-10-20 13:28:36.17,282,-229,-2029,8,3,18,556,-402,958,-77
,85,2023-10-20 13:28:36.18,279,-254,-2023,2,3,31,753,-371,1124,-191
,86,2023-10-20 13:28:36.19,292,-258,-2021,0,4,54,562,-392,954,-85
,87,2023-10-20 13:28:36.20,281,-245,-2022,3,4,74,759,-417,1176,-171
,88,2023-10-20 13:28:36.21,293,-228,-2021,1,10,79,560,-483,1043,-38
,89,2023-10-20 13:28:36.22,294,-218,-2031,5,14,76,755,-512,1267,-121
,90,2023-10-20 13:28:36.23,284,-240,-2037,10,10,78,567,-464,1031,-51
,91,2023-10-20 13:28:36.24,284,-196,-2042,15,3,80,745,-308,1053,-218
,92,2023-10-20 13:28:36.25,290,-218,-2043,18,-9,80,570,-278,848,-146
,93,2023-10-20 13:28:36.26,288,-227,-2045,19,-11,80,743,-271,1014,-236
,94,2023-10-20 13:28:36.27,281,-217,-2043,25,-17,83,583,-363,946,-110
,95,2023-10-20 13:28:36.28,275,-219,-2034,18,-9,85,751,-424,1175,-163
,96,2023-10-20 13:28:36.29,293,-230,-2029,13,-5,92,591,-451,1042,-70
,97,2023-10-20 13:28:36.30,270,-205,-2033,12,-7,98,743,-415,1158,-164
,98,2023-10-20 13:28:36.31,275,-218,-2048,10,-8,102,588,-481,1069,-53
,99,2023-10-20 13:28:36.32,283,-218,-2034,4,-4,105,737,-596,1333,-70
,100,2023-10-20 13:28:36.33,275,-204,-2029,-3,3,103,594,-716,1310,61
,101,2023-10-20 13:28:36.34,286,-206,-2018,-7,15,103,762,-832,1594,35
,102,2023-10-20 13:28:36.35,299,-218,-2021,-4,22,105,647,-906,1553,129
,103,2023-10-20 13:28:36.36,272,-224,-2030,-2,23,106,799,-992,1791,96
,104,2023-10-20 13:28:36.37,290,-236,-2033,0,26,110,669,-970,1639,150
,105,2023-10-20 13:28:36.38,281,-239,-2039,10,25,118,794,-950,1744,78
,106,2023-10-20 13:28:36.39,288,-241,-2043,17,19,128,671,-828,1499,78
,107,2023-10-20 13:28:36.40,270,-237,-2039,25,11,136,778,-709,1487,-34
,108,2023-10-20 13:28:36.41,290,-230,-2031,29,12,146,646,-588,1234,-29
,109,2023-10-20 13:28:36.42,273,-234,-2036,32,11,147,747,-484,1231,-131
,110,2023-10-20 13:28:36.43,269,-235,-2040,30,10,155,634,-495,1129,-69
,111,2023-10-20 13:28:36.44,279,-226,-2036,26,8,164,739,-549,1288,-95
,112,2023-10-20 13:28:36.45,284,-221,-2030,27,4,163,636,-640,1276,2
,113,2023-10-20 13:28:36.46,298,-231,-2055,23,9,163,737,-712,1449,-12
,114,2023-10-20 13:28:36.47,291,-209,-2047,19,10,160,657,-803,1460,73
,115,2023-10-20 13:28:36.48,301,-205,-2039,15,6,155,756,-886,1642,65
,116,2023-10-20 13:28:36.49,288,-204,-2048,12,5,153,681,-835,1516,77
,117,2023-10-20 13:28:36.50,305,-205,-2043,8,3,147,746,-724,1470,-11
,118,2023-10-20 13:28:36.51,293,-204,-2029,6,6,137,658,-628,1286,-15
,119,2023-10-20 13:28:36.52,291,-219,-2022,6,5,140,709,-570,1279,-69
,120,2023-10-20 13:28:36.53,276,-229,-2043,6,4,136,651,-450,1101,-100
,121,2023-10-20 13:28:36.54,285,-222,-2042,7,-9,142,697,-316,1013,-190
,122,2023-10-20 13:28:36.55,292,-216,-2027,9,-19,143,647,-333,980,-157
,123,2023-10-20 13:28:36.56,299,-205,-2034,5,-22,145,693,-418,1111,-137
,124,2023-10-20 13:28:36.57,291,-213,-2049,2,-15,143,646,-557,1203,-44
,125,2023-10-20 13:28:36.58,277,-210,-2045,5,-23,138,690,-624,1314,-33
,126,2023-10-20 13:28:36.59,288,-201,-2037,13,-41,136,669,-650,1319,-9
,127,2023-10-20 13:28:36.60,286,-219,-2045,16,-41,132,699,-629,1328,-35
,128,2023-10-20 13:28:36.61,274,-203,-2047,11,-36,126,669,-515,1184,-77
,129,2023-10-20 13:28:36.62,270,-218,-2056,6,-43,122,678,-385,1063,-146
,130,2023-10-20 13:28:36.63,270,-212,-2048,16,-58,124,656,-302,958,-177
,131,2023-10-20 13:28:36.64,275,-242,-2058,13,-67,136,665,-279,944,-193
,132,2023-10-20 13:28:36.65,272,-244,-2056,4,-55,149,651,-319,970,-166
,133,2023-10-20 13:28:36.66,268,-242,-2043,-2,-55,157,659,-354,1013,-152
,134,2023-10-20 13:28:36.67,275,-218,-2030,-5,-44,160,663,-373,1036,-145
,135,2023-10-20 13:28:36.68,273,-194,-2013,-6,-43,161,645,-384,1029,-130
,136,2023-10-20 13:28:36.69,275,-195,-2020,-12,-31,153,666,-557,1223,-54
,137,2023-10-20 13:28:36.70,280,-198,-2021,-16,-5,144,662,-710,1372,24
,138,2023-10-20 13:28:36.71,249,-204,-2048,-11,-9,138,708,-719,1427,5
,139,2023-10-20 13:28:36.72,250,-226,-2026,2,-28,135,664,-638,1302,-13
,140,2023-10-20 13:28:36.73,272,-234,-2023,19,-41,136,694,-530,1224,-82
,141,2023-10-20 13:28:36.74,276,-271,-2024,35,-37,149,641,-464,1105,-88
,142,2023-10-20 13:28:36.75,268,-307,-2009,86,-34,162,688,-491,1179,-98
,143,2023-10-20 13:28:36.76,260,-260,-2008,118,-40,169,634,-541,1175,-46
,144,2023-10-20 13:28:36.77,284,-258,-1993,117,-45,175,698,-670,1368,-14
,145,2023-10-20 13:28:36.78,309,-267,-1997,122,-36,193,657,-734,1391,38
,146,2023-10-20 13:28:36.79,298,-294,-1999,137,-4,203,742,-892,1634,75
,147,2023-10-20 13:28:36.80,270,-266,-2018,156,5,208,689,-932,1621,121
,148,2023-10-20 13:28:36.81,286,-253,-2035,155,-12,226,776,-931,1707,77
,149,2023-10-20 13:28:36.82,267,-268,-2076,147,-27,246,677,-844,1521,83
,150,2023-10-20 13:28:36.83,271,-230,-2069,134,-38,255,751,-783,1534,16
,151,2023-10-20 13:28:36.84,261,-226,-2086,112,-42,254,665,-707,1372,21
,152,2023-10-20 13:28:36.85,268,-225,-2070,93,-45,249,763,-589,1352,-87
,153,2023-10-20 13:28:36.86,243,-243,-2068,78,-44,241,652,-495,1147,-78
,154,2023-10-20 13:28:36.87,257,-214,-2062,79,-56,225,740,-403,1143,-168
,155,2023-10-20 13:28:36.88,240,-204,-2045,70,-62,203,627,-385,1012,-121
,156,2023-10-20 13:28:36.89,232,-207,-2047,50,-53,188,734,-395,1129,-169
,157,2023-10-20 13:28:36.90,220,-214,-2046,30,-53,167,616,-437,1053,-89
,158,2023-10-20 13:28:36.91,212,-219,-2033,20,-55,155,742,-475,1217,-133
,159,2023-10-20 13:28:36.92,217,-263,-2070,29,-63,152,633,-509,1142,-62
,160,2023-10-20 13:28:36.93,175,-254,-2065,19,-86,148,771,-549,1320,-111
,161,2023-10-20 13:28:36.94,213,-264,-2050,18,-108,148,634,-567,1201,-33
,162,2023-10-20 13:28:36.95,203,-256,-2031,24,-106,154,765,-568,1333,-98
,163,2023-10-20 13:28:36.96,197,-248,-2047,27,-110,145,614,-560,1174,-27
,164,2023-10-20 13:28:36.97,206,-225,-2043,14,-110,125,768,-568,1336,-100
,165,2023-10-20 13:28:36.98,198,-203,-2036,15,-109,107,612,-580,1192,-16
,166,2023-10-20 13:28:36.99,189,-189,-2028,18,-122,79,775,-693,1468,-41
,167,2023-10-20 13:28:37.00,218,-177,-2012,23,-131,38,639,-731,1370,46
,168,2023-10-20 13:28:37.01,215,-206,-2064,14,-133,-1,801,-676,1477,-62
,169,2023-10-20 13:28:37.02,219,-227,-2019,0,-125,-20,611,-589,1200,-11
,170,2023-10-20 13:28:37.03,223,-259,-2014,-1,-105,-37,755,-516,1271,-119
,171,2023-10-20 13:28:37.04,221,-282,-2014,-5,-100,-43,576,-496,1072,-40
,172,2023-10-20 13:28:37.05,222,-291,-2006,1,-88,-34,753,-534,1287,-109
,173,2023-10-20 13:28:37.06,217,-256,-2019,25,-65,-41,600,-569,1169,-15
,174,2023-10-20 13:28:37.07,197,-260,-2030,44,-58,-51,791,-671,1462,-60
,175,2023-10-20 13:28:37.08,214,-233,-2023,63,-65,-71,614,-698,1312,42
,176,2023-10-20 13:28:37.09,212,-240,-2047,83,-63,-93,798,-736,1534,-31
,177,2023-10-20 13:28:37.10,179,-227,-2072,87,-59,-120,619,-697,1316,39
,178,2023-10-20 13:28:37.11,173,-268,-2087,94,-74,-146,802,-623,1425,-89
,179,2023-10-20 13:28:37.12,177,-272,-2047,99,-92,-156,595,-564,1159,-15
,180,2023-10-20 13:28:37.13,192,-293,-2030,103,-90,-169,782,-698,1480,-42
,181,2023-10-20 13:28:37.14,197,-316,-2009,108,-85,-181,612,-750,1362,69
,182,2023-10-20 13:28:37.15,207,-289,-2004,109,-75,-173,820,-818,1638,-1
,183,2023-10-20 13:28:37.16,203,-292,-1989,113,-75,-167,611,-769,1380,79
,184,2023-10-20 13:28:37.17,187,-290,-2022,104,-69,-166,804,-772,1576,-16
,185,2023-10-20 13:28:37.18,180,-294,-2034,84,-58,-166,604,-729,1333,62
,186,2023-10-20 13:28:37.19,192,-318,-2044,72,-56,-157,819,-869,1688,25
,187,2023-10-20 13:28:37.20,167,-323,-2047,64,-56,-143,606,-872,1478,133
,188,2023-10-20 13:28:37.21,189,-313,-2038,65,-73,-130,812,-922,1734,55
,189,2023-10-20 13:28:37.22,186,-313,-2024,48,-73,-118,583,-843,1426,130
,190,2023-10-20 13:28:37.23,183,-320,-2030,29,-59,-104,807,-881,1688,37
,191,2023-10-20 13:28:37.24,175,-329,-2017,17,-50,-90,605,-818,1423,106
,192,2023-10-20 13:28:37.25,168,-325,-2020,17,-56,-70,840,-746,1586,-47
,193,2023-10-20 13:28:37.26,180,-329,-2014,17,-59,-53,608,-643,1251,17
,194,2023-10-20 13:28:37.27,180,-316,-2020,9,-46,-47,828,-550,1378,-139
,195,2023-10-20 13:28:37.28,181,-314,-2022,4,-31,-35,602,-510,1112,-46
,196,2023-10-20 13:28:37.29,170,-308,-2024,-3,-24,-30,832,-471,1303,-180
,197,2023-10-20 13:28:37.30,165,-297,-2022,-12,-8,-32,598,-483,1081,-57
,198,2023-10-20 13:28:37.31,176,-305,-2031,-17,-1,-32,828,-521,1349,-153
,199,2023-10-20 13:28:37.32,165,-305,-2028,-18,5,-33,596,-536,1132,-30
,200,2023-10-20 13:28:37.33,175,-292,-2038,-21,14,-36,829,-424,1253,-202
,201,2023-10-20 13:28:37.34,168,-292,-2024,-25,5,-34,582,-389,971,-96
,202,2023-10-20 13:28:37.35,176,-284,-2027,-27,9,-31,804,-414,1218,-195
,203,2023-10-20 13:28:37.36,180,-297,-2027,-36,25,-32,560,-469,1029,-45
,204,2023-10-20 13:28:37.37,180,-295,-2027,-31,19,-27,784,-387,1171,-198
,205,2023-10-20 13:28:37.38,188,-286,-2027,-26,14,-16,548,-388,936,-80
,206,2023-10-20 13:28:37.39,188,-293,-2043,-30,26,-9,779,-543,1322,-118
,207,2023-10-20 13:28:37.40,187,-285,-2037,-33,31,-3,561,-641,1202,40
,208,2023-10-20 13:28:37.41,189,-282,-2024,-30,28,6,806,-794,1600,-6
,209,2023-10-20 13:28:37.42,198,-267,-2029,-22,26,16,566,-775,1341,104
,210,2023-10-20 13:28:37.43,193,-267,-2042,-20,36,19,800,-746,1546,-27
,211,2023-10-20 13:28:37.44,181,-262,-2050,-16,40,21,556,-651,1207,47
,212,2023-10-20 13:28:37.45,181,-280,-2043,-13,31,24,790,-505,1295,-142
,213,2023-10-20 13:28:37.46,189,-284,-2029,-4,28,27,540,-443,983,-48
,214,2023-10-20 13:28:37.47,191,-277,-2038,1,28,31,771,-396,1167,-187
,215,2023-10-20 13:28:37.48,203,-286,-2033,11,21,36,550,-418,968,-66
,216,2023-10-20 13:28:37.49,202,-294,-1998,15,53,54,791,-436,1227,-177
,217,2023-10-20 13:28:37.50,189,-299,-2038,14,77,77,548,-441,989,-53
,218,2023-10-20 13:28:37.51,178,-317,-2058,29,66,80,784,-226,1010,-279
,219,2023-10-20 13:28:37.52,175,-257,-2075,80,30,57,534,-199,733,-167
,220,2023-10-20 13:28:37.53,197,-229,-2062,87,3,26,771,-177,948,-297
,221,2023-10-20 13:28:37.54,206,-255,-2038,52,-7,14,528,-284,812,-122
,222,2023-10-20 13:28:37.55,226,-270,-2030,20,2,17,780,-254,1034,-263
,223,2023-10-20 13:28:37.56,212,-307,-2039,-3,11,31,558,-310,868,-124
,224,2023-10-20 13:28:37.57,199,-312,-2040,-14,16,46,800,-320,1120,-240
,225,2023-10-20 13:28:37.58,209,-301,-2029,0,-3,59,558,-371,929,-93
,226,2023-10-20 13:28:37.59,218,-311,-2019,-2,2,70,787,-312,1099,-237
,227,2023-10-20 13:28:37.60,213,-296,-2016,-15,21,79,546,-343,889,-101
,228,2023-10-20 13:28:37.61,205,-307,-2032,-18,29,81,780,-365,1145,-207
,229,2023-10-20 13:28:37.62,198,-300,-2037,-6,23,88,545,-442,987,-51
,230,2023-10-20 13:28:37.63,198,-267,-2037,-1,16,91,780,-512,1292,-134
,231,2023-10-20 13:28:37.64,195,-275,-2052,-8,15,89,551,-536,1087,-7
,232,2023-10-20 13:28:37.65,188,-278,-2064,-13,12,93,781,-505,1286,-138
,233,2023-10-20 13:28:37.66,181,-309,-2043,-11,6,109,558,-441,999,-58
,234,2023-10-20 13:28:37.67,178,-307,-2037,-12,2,123,784,-259,1043,-262
,235,2023-10-20 13:28:37.68,178,-296,-2035,-9,-10,137,551,-243,794,-154
,236,2023-10-20 13:28:37.69,176,-295,-2014,-6,-11,141,770,-237,1007,-266
,237,2023-10-20 13:28:37.70,191,-268,-2061,-2,-1,139,549,-340,889,-104
,238,2023-10-20 13:28:37.71,180,-256,-2044,-9,-7,127,765,-397,1162,-184
,239,2023-10-20 13:28:37.72,192,-251,-2035,1,-21,111,555,-447,1002,-54
,240,2023-10-20 13:28:37.73,193,-243,-2019,4,-16,100,770,-442,1212,-164
,241,2023-10-20 13:28:37.74,187,-252,-2018,6,-8,93,557,-421,978,-68
,242,2023-10-20 13:28:37.75,189,-250,-2035,-1,-11,84,756,-307,1063,-224
,243,2023-10-20 13:28:37.76,188,-265,-2046,0,-19,77,550,-275,825,-137
,244,2023-10-20 13:28:37.77,191,-267,-2040,2,-28,76,754,-179,933,-287
,245,2023-10-20 13:28:37.78,190,-278,-2035,1,-29,75,555,-277,832,-139
,246,2023-10-20 13:28:37.79,207,-288,-2037,-1,-21,82,767,-405,1172,-181
,247,2023-10-20 13:28:37.80,185,-316,-2049,-7,-16,97,572,-473,1045,-49
,248,2023-10-20 13:28:37.81,218,-307,-2029,-8,-16,116,766,-402,1168,-182
,249,2023-10-20 13:28:37.82,191,-308,-2030,-2,4,128,573,-365,938,-104
,250,2023-10-20 13:28:37.83,169,-279,-2043,12,6,131,752,-294,1046,-229
,251,2023-10-20 13:28:37.84,185,-249,-2046,25,-12,121,571,-368,939,-101
,252,2023-10-20 13:28:37.85,168,-225,-2064,28,-20,105,740,-468,1208,-136
,253,2023-10-20 13:28:37.86,156,-215,-2061,28,-37,79,575,-497,1072,-39
,254,2023-10-20 13:28:37.87,166,-232,-2056,25,-53,51,744,-428,1172,-158
,255,2023-10-20 13:28:37.88,175,-250,-2032,27,-63,39,576,-392,968,-92
,256,2023-10-20 13:28:37.89,184,-267,-2024,27,-55,27,738,-349,1087,-194
,257,2023-10-20 13:28:37.90,182,-279,-2028,23,-30,23,576,-399,975,-88
,258,2023-10-20 13:28:37.91,165,-285,-2038,32,-22,21,732,-446,1178,-143
,259,2023-10-20 13:28:37.92,168,-277,-2033,31,-27,25,585,-495,1080,-45
,260,2023-10-20 13:28:37.93,155,-271,-2039,25,-34,23,743,-504,1247,-119
,261,2023-10-20 13:28:37.94,158,-282,-2043,28,-44,20,612,-598,1210,-7
,262,2023-10-20 13:28:37.95,162,-276,-2042,27,-48,17,759,-736,1495,-11
,263,2023-10-20 13:28:37.96,160,-281,-2021,17,-41,12,620,-761,1381,70
,264,2023-10-20 13:28:37.97,147,-285,-2042,11,-36,11,752,-734,1486,-9
,265,2023-10-20 13:28:37.98,158,-296,-2036,13,-38,15,628,-578,1206,-25
,266,2023-10-20 13:28:37.99,155,-295,-2025,14,-34,17,745,-379,1124,-183
,267,2023-10-20 13:28:38.00,156,-295,-2031,10,-32,18,619,-254,873,-182
,268,2023-10-20 13:28:38.01,154,-297,-2032,14,-28,26,727,-157,884,-285
,269,2023-10-20 13:28:38.02,159,-290,-2030,14,-28,32,607,-246,853,-180
,270,2023-10-20 13:28:38.03,161,-299,-2032,11,-28,35,718,-353,1071,-182
,271,2023-10-20 13:28:38.04,153,-288,-2029,12,-21,39,620,-434,1054,-93
,272,2023-10-20 13:28:38.05,147,-293,-2035,9,-21,40,715,-427,1142,-144
,273,2023-10-20 13:28:38.06,162,-288,-2036,2,-8,44,613,-385,998,-114
,274,2023-10-20 13:28:38.07,151,-288,-2029,1,-2,42,706,-310,1016,-198
,275,2023-10-20 13:28:38.08,156,-280,-2038,2,-1,46,617,-256,873,-180
,276,2023-10-20 13:28:38.09,146,-278,-2044,1,-1,44,698,-179,877,-259
,277,2023-10-20 13:28:38.10,151,-284,-2037,-1,-2,43,616,-217,833,-199
,278,2023-10-20 13:28:38.11,161,-286,-2038,-3,2,46,691,-260,951,-215
,279,2023-10-20 13:28:38.12,158,-287,-2042,-3,3,49,629,-314,943,-157
,280,2023-10-20 13:28:38.13,156,-278,-2033,-9,5,51,692,-317,1009,-187
,281,2023-10-20 13:28:38.14,161,-281,-2037,-10,17,52,634,-342,976,-146
,282,2023-10-20 13:28:38.15,158,-263,-2024,-11,24,49,684,-343,1027,-170
,283,2023-10-20 13:28:38.16,162,-262,-2026,-13,24,45,639,-324,963,-157
,284,2023-10-20 13:28:38.17,160,-268,-2032,-11,29,41,680,-281,961,-199
,285,2023-10-20 13:28:38.18,170,-296,-2041,-12,36,40,642,-279,921,-181
,286,2023-10-20 13:28:38.19,158,-236,-2034,-8,41,35,676,-281,957,-197
,287,2023-10-20 13:28:38.20,173,-313,-2006,16,57,44,658,-402,1060,-128
,288,2023-10-20 13:28:38.21,156,-320,-1993,53,69,45,682,-521,1203,-80
,289,2023-10-20 13:28:38.22,139,-308,-2016,69,68,49,671,-616,1287,-27
,290,2023-10-20 13:28:38.23,133,-253,-2093,50,15,47,684,-640,1324,-22
,291,2023-10-20 13:28:38.24,170,-252,-2070,6,-32,47,679,-525,1204,-77
,292,2023-10-20 13:28:38.25,181,-276,-2050,-4,-58,63,672,-387,1059,-142
,293,2023-10-20 13:28:38.26,199,-278,-2024,-25,-32,62,676,-342,1018,-167
,294,2023-10-20 13:28:38.27,183,-293,-2011,-24,7,50,668,-376,1044,-146
,295,2023-10-20 13:28:38.28,164,-297,-2030,-6,34,48,688,-401,1089,-143
,296,2023-10-20 13:28:38.29,166,-296,-2048,16,33,48,670,-403,1073,-133
,297,2023-10-20 13:28:38.30,160,-279,-2053,27,28,48,693,-417,1110,-138
,298,2023-10-20 13:28:38.31,158,-283,-2061,22,19,47,660,-440,1100,-110
,299,2023-10-20 13:28:38.32,159,-252,-2045,14,9,38,691,-306,997,-192
,300,2023-10-20 13:28:38.33,167,-247,-2047,-2,-1,27,645,-197,842,-224
,301,2023-10-20 13:28:38.34,164,-240,-2048,-14,-6,21,685,-165,850,-260
,302,2023-10-20 13:28:38.35,180,-252,-2048,-18,-10,8,653,-244,897,-204
,303,2023-10-20 13:28:38.36,179,-264,-2048,-23,-18,-1,718,-374,1092,-172
,304,2023-10-20 13:28:38.37,174,-268,-2028,-20,-25,-6,661,-470,1131,-95
,305,2023-10-20 13:28:38.38,163,-282,-2027,-13,-19,-13,717,-567,1284,-75
,306,2023-10-20 13:28:38.39,175,-264,-2036,-9,-19,-18,647,-613,1260,-17
,307,2023-10-20 13:28:38.40,173,-274,-2039,-6,-20,-20,722,-731,1453,4
,308,2023-10-20 13:28:38.41,189,-283,-2018,-4,-17,-21,650,-781,1431,65
,309,2023-10-20 13:28:38.42,193,-291,-2025,-19,-2,-9,727,-940,1667,106
,310,2023-10-20 13:28:38.43,159,-300,-2054,-23,12,10,642,-971,1613,164
,311,2023-10-20 13:28:38.44,158,-280,-2069,-6,6,15,726,-949,1675,111
,312,2023-10-20 13:28:38.45,152,-251,-2065,11,-11,8,627,-836,1463,104
,313,2023-10-20 13:28:38.46,153,-215,-2068,14,-24,-2,713,-856,1569,71
,314,2023-10-20 13:28:38.47,165,-202,-2064,10,-38,-24,607,-839,1446,116
,315,2023-10-20 13:28:38.48,176,-219,-2041,-8,-31,-39,704,-786,1490,41
,316,2023-10-20 13:28:38.49,150,-250,-2055,-1,-17,-50,585,-688,1273,51
,317,2023-10-20 13:28:38.50,155,-239,-2056,2,-18,-61,694,-542,1236,-76
,318,2023-10-20 13:28:38.51,155,-251,-2045,17,-34,-65,571,-450,1021,-60
,319,2023-10-20 13:28:38.52,146,-264,-2041,29,-32,-65,694,-447,1141,-123
,320,2023-10-20 13:28:38.53,166,-269,-2030,37,-31,-65,566,-482,1048,-42
,321,2023-10-20 13:28:38.54,159,-279,-2027,37,-23,-57,703,-401,1104,-151
,322,2023-10-20 13:28:38.55,151,-276,-2057,36,-22,-55,573,-361,934,-106
,323,2023-10-20 13:28:38.56,153,-270,-2061,43,-40,-58,717,-378,1095,-169
,324,2023-10-20 13:28:38.57,170,-259,-2059,50,-55,-55,578,-454,1032,-62
,325,2023-10-20 13:28:38.58,136,-267,-2045,46,-48,-54,722,-595,1317,-63
,326,2023-10-20 13:28:38.59,137,-270,-2037,48,-54,-53,574,-655,1229,40
,327,2023-10-20 13:28:38.60,140,-267,-2039,49,-64,-52,722,-549,1271,-86
,328,2023-10-20 13:28:38.61,138,-255,-2041,46,-66,-52,568,-448,1016,-60
,329,2023-10-20 13:28:38.62,129,-262,-2030,39,-59,-58,730,-451,1181,-139
,330,2023-10-20 13:28:38.63,136,-257,-2036,30,-54,-71,570,-507,1077,-31
,331,2023-10-20 13:28:38.64,137,-233,-2028,22,-50,-85,735,-522,1257,-106
,332,2023-10-20 13:28:38.65,140,-233,-2032,13,-34,-105,567,-519,1086,-24
,333,2023-10-20 13:28:38.66,141,-229,-2055,5,-21,-129,746,-631,1377,-57
,334,2023-10-20 13:28:38.67,138,-232,-2068,14,-22,-154,592,-685,1277,46
,335,2023-10-20 13:28:38.68,151,-226,-2072,20,-20,-181,776,-558,1334,-109
,336,2023-10-20 13:28:38.69,167,-236,-2061,25,-30,-212,586,-440,1026,-73
,337,2023-10-20 13:28:38.70,138,-263,-2066,41,-58,-250,764,-295,1059,-234
,338,2023-10-20 13:28:38.71,138,-276,-2053,54,-74,-261,562,-308,870,-127
,339,2023-10-20 13:28:38.72,133,-323,-2049,65,-98,-260,746,-202,948,-272
,340,2023-10-20 13:28:38.73,130,-303,-2034,56,-90,-258,543,-230,773,-156
,341,2023-10-20 13:28:38.74,139,-308,-2014,46,-88,-246,739,-160,899,-289
,342,2023-10-20 13:28:38.75,151,-285,-1990,39,-80,-244,540,-233,773,-153
,343,2023-10-20 13:28:38.76,152,-285,-1992,34,-72,-240,738,-138,876,-300
,344,2023-10-20 13:28:38.77,135,-289,-2002,31,-62,-245,538,-187,725,-175
,345,2023-10-20 13:28:38.78,131,-269,-2019,23,-56,-252,738,-137,875,-300
,346,2023-10-20 13:28:38.79,109,-245,-2039,19,-53,-265,529,-228,757,-150
,347,2023-10-20 13:28:38.80,149,-306,-2043,21,-42,-277,733,-275,1008,-229
,348,2023-10-20 13:28:38.81,110,-316,-2022,66,-42,-274,522,-377,899,-72
,349,2023-10-20 13:28:38.82,96,-288,-2040,56,-63,-278,740,-592,1332,-74
,350,2023-10-20 13:28:38.83,96,-298,-2066,18,-92,-273,524,-677,1201,76
,351,2023-10-20 13:28:38.84,111,-304,-2090,2,-127,-247,741,-627,1368,-57
,352,2023-10-20 13:28:38.85,117,-277,-2080,-35,-123,-248,515,-539,1054,12
,353,2023-10-20 13:28:38.86,107,-276,-2078,-67,-99,-255,739,-412,1151,-163
,354,2023-10-20 13:28:38.87,125,-302,-2047,-66,-104,-253,512,-393,905,-59
,355,2023-10-20 13:28:38.88,105,-281,-2042,-52,-96,-266,741,-323,1064,-209
,356,2023-10-20 13:28:38.89,109,-294,-2033,-30,-101,-274,519,-365,884,-77
,357,2023-10-20 13:28:38.90,112,-274,-2039,-19,-108,-274,746,-398,1144,-174
,358,2023-10-20 13:28:38.91,107,-287,-2037,-20,-115,-270,517,-465,982,-26
,359,2023-10-20 13:28:38.92,113,-300,-2039,-27,-113,-266,752,-540,1292,-106
,360,2023-10-20 13:28:38.93,124,-286,-2033,-29,-105,-264,524,-596,1120,36
,361,2023-10-20 13:28:38.94,121,-295,-2022,-29,-103,-258,756,-752,1508,-2
,362,2023-10-20 13:28:38.95,129,-272,-2030,-22,-99,-254,534,-781,1315,123
,363,2023-10-20 13:28:38.96,137,-265,-2006,-20,-96,-258,783,-895,1678,56
,364,2023-10-20 13:28:38.97,145,-255,-2011,-14,-81,-262,547,-840,1387,146
,365,2023-10-20 13:28:38.98,137,-234,-2037,-23,-51,-270,782,-820,1602,19
,366,2023-10-20 13:28:38.99,153,-275,-2026,-13,-40,-276,544,-757,1301,106
,367,2023-10-20 13:28:39.00,133,-268,-2018,6,-32,-284,782,-913,1695,65
,368,2023-10-20 13:28:39.01,128,-283,-2050,29,-39,-294,558,-889,1447,165
,369,2023-10-20 13:28:39.02,129,-268,-2048,44,-49,-301,799,-890,1689,45
,370,2023-10-20 13:28:39.03,139,-260,-2049,39,-56,-308,564,-768,1332,102
,371,2023-10-20 13:28:39.04,152,-288,-2041,26,-49,-306,806,-709,1515,-48
,372,2023-10-20 13:28:39.05,131,-288,-2012,23,-44,-306,560,-682,1242,61
,373,2023-10-20 13:28:39.06,154,-294,-2033,16,-46,-300,832,-970,1802,69
,374,2023-10-20 13:28:39.07,131,-282,-2053,6,-47,-293,651,-1014,1665,181
,375,2023-10-20 13:28:39.08,163,-287,-2051,-7,-43,-290,904,-1032,1936,64
,376,2023-10-20 13:28:39.09,168,-285,-2013,-34,-22,-270,623,-840,1463,108
,377,2023-10-20 13:28:39.10,193,-274,-2010,-63,9,-251,832,-585,1417,-123
,378,2023-10-20 13:28:39.11,195,-246,-1983,-89,25,-239,550,-515,1065,-17
,379,2023-10-20 13:28:39.12,202,-295,-1984,-105,51,-220,782,-869,1651,43
,380,2023-10-20 13:28:39.13,175,-284,-2054,-99,52,-180,565,-1011,1576,223
,381,2023-10-20 13:28:39.14,151,-292,-2081,-75,60,-157,826,-1166,1992,170
,382,2023-10-20 13:28:39.15,125,-294,-2093,-41,13,-146,585,-1072,1657,243
,383,2023-10-20 13:28:39.16,120,-281,-2094,-17,-28,-134,821,-1146,1967,162
,384,2023-10-20 13:28:39.17,115,-287,-2083,-4,-64,-120,593,-1020,1613,213
,385,2023-10-20 13:28:39.18,120,-255,-2057,3,-75,-99,826,-965,1791,69
,386,2023-10-20 13:28:39.19,118,-274,-2038,16,-104,-77,587,-837,1424,125
,387,2023-10-20 13:28:39.20,104,-246,-2032,10,-99,-61,813,-843,1656,15
,388,2023-10-20 13:28:39.21,96,-238,-2030,8,-93,-52,593,-813,1406,110
,389,2023-10-20 13:28:39.22,99,-234,-2022,5,-92,-46,834,-939,1773,52
,390,2023-10-20 13:28:39.23,94,-232,-2021,-12,-86,-40,618,-942,1560,162
,391,2023-10-20 13:28:39.24,75,-227,-2030,-19,-80,-35,832,-1076,1908,122
,392,2023-10-20 13:28:39.25,68,-227,-2075,-19,-77,-36,590,-999,1589,204
,393,2023-10-20 13:28:39.26,70,-220,-2082,-22,-92,-35,802,-987,1789,92
,394,2023-10-20 13:28:39.27,72,-216,-2056,-36,-96,-37,569,-864,1433,147
,395,2023-10-20 13:28:39.28,77,-223,-2073,-39,-91,-37,797,-854,1651,28
,396,2023-10-20 13:28:39.29,50,-244,-2063,-34,-93,-32,583,-817,1400,117
,397,2023-10-20 13:28:39.30,69,-248,-2064,-22,-94,-32,822,-921,1743,49
,398,2023-10-20 13:28:39.31,55,-261,-2052,-3,-101,-26,624,-898,1522,137
,399,2023-10-20 13:28:39.32,68,-274,-2047,16,-100,-22,836,-937,1773,50
,400,2023-10-20 13:28:39.33,53,-260,-2025,23,-85,-21,612,-856,1468,122
,401,2023-10-20 13:28:39.34,60,-272,-2015,43,-71,-22,801,-833,1634,16
,402,2023-10-20 13:28:39.35,60,-280,-2010,63,-61,-20,594,-761,1355,83
,403,2023-10-20 13:28:39.36,60,-273,-2006,77,-51,-16,788,-755,1543,-16
,404,2023-10-20 13:28:39.37,66,-293,-2016,79,-38,-11,580,-730,1310,75
,405,2023-10-20 13:28:39.38,59,-299,-2013,74,-22,2,770,-777,1547,3
,406,2023-10-20 13:28:39.39,65,-311,-2007,73,-15,23,576,-773,1349,98
,407,2023-10-20 13:28:39.40,58,-304,-2005,65,-5,45,772,-824,1596,26
,408,2023-10-20 13:28:39.41,63,-295,-2014,57,-3,58,581,-808,1389,113
,409,2023-10-20 13:28:39.42,65,-289,-2035,53,0,70,780,-849,1629,34
,410,2023-10-20 13:28:39.43,64,-276,-2032,45,0,76,600,-875,1475,137
,411,2023-10-20 13:28:39.44,57,-271,-2024,42,-8,77,796,-1001,1797,102
,412,2023-10-20 13:28:39.45,60,-274,-2059,36,-3,83,623,-924,1547,150
,413,2023-10-20 13:28:39.46,53,-290,-2078,28,-14,84,798,-816,1614,9
,414,2023-10-20 13:28:39.47,42,-279,-2094,26,-24,91,609,-633,1242,12
,415,2023-10-20 13:28:39.48,57,-257,-2062,15,-27,89,766,-441,1207,-162
,416,2023-10-20 13:28:39.49,64,-244,-2055,6,-21,86,592,-302,894,-145
,417,2023-10-20 13:28:39.50,58,-251,-2042,-11,-6,79,742,-105,847,-318
,418,2023-10-20 13:28:39.51,63,-246,-2037,-26,2,70,580,-165,745,-207
,419,2023-10-20 13:28:39.52,77,-245,-2027,-37,18,65,737,-283,1020,-227
,420,2023-10-20 13:28:39.53,91,-299,-1988,-25,50,78,588,-425,1013,-81
,421,2023-10-20 13:28:39.54,54,-268,-1981,6,93,72,747,-465,1212,-141
,422,2023-10-20 13:28:39.55,56,-237,-2033,2,63,58,606,-534,1140,-36
,423,2023-10-20 13:28:39.56,91,-250,-2055,-5,3,72,737,-609,1346,-64
,424,2023-10-20 13:28:39.57,92,-236,-2070,-28,-10,82,596,-635,1231,19
,425,2023-10-20 13:28:39.58,106,-220,-2049,-76,17,82,722,-629,1351,-46
,426,2023-10-20 13:28:39.59,84,-249,-2038,-90,21,78,600,-568,1168,-16
,427,2023-10-20 13:28:39.60,95,-247,-2016,-74,13,84,720,-473,1193,-123
,428,2023-10-20 13:28:39.61,94,-256,-2039,-54,13,89,608,-580,1188,-14
,429,2023-10-20 13:28:39.62,87,-262,-2058,-42,7,105,734,-754,1488,10
,430,2023-10-20 13:28:39.63,80,-263,-2076,-40,2,126,646,-799,1445,76
,431,2023-10-20 13:28:39.64,63,-254,-2095,-29,-14,144,745,-762,1507,8
,432,2023-10-20 13:28:39.65,55,-229,-2102,-32,-39,160,640,-688,1328,24
,433,2023-10-20 13:28:39.66,56,-206,-2127,-43,-58,165,721,-631,1352,-45
,434,2023-10-20 13:28:39.67,32,-211,-2106,-64,-63,168,630,-547,1177,-41
,435,2023-10-20 13:28:39.68,38,-221,-2095,-78,-69,166,718,-465,1183,-126
,436,2023-10-20 13:28:39.69,30,-221,-2090,-82,-67,164,635,-486,1121,-74
,437,2023-10-20 13:28:39.70,42,-240,-2044,-79,-69,168,712,-536,1248,-88
,438,2023-10-20 13:28:39.71,41,-240,-2024,-72,-58,175,645,-452,1097,-96
,439,2023-10-20 13:28:39.72,57,-229,-2012,-59,-37,177,710,-283,993,-213
,440,2023-10-20 13:28:39.73,56,-218,-1998,-40,-34,162,651,-129,780,-261
,441,2023-10-20 13:28:39.74,60,-201,-1970,-12,-35,153,699,-24,723,-337
,442,2023-10-20 13:28:39.75,66,-188,-1979,3,-6,135,645,-2,647,-321
,443,2023-10-20 13:28:39.76,35,-185,-1998,18,8,114,679,-14,693,-332
,444,2023-10-20 13:28:39.77,53,-208,-2035,47,-11,93,638,-56,694,-291
,445,2023-10-20 13:28:39.78,65,-221,-2032,51,-21,70,670,-84,754,-293
,446,2023-10-20 13:28:39.79,97,-237,-2016,38,0,68,639,-18,657,-310
,447,2023-10-20 13:28:39.80,82,-251,-2030,36,20,71,661,74,587,-367
,448,2023-10-20 13:28:39.81,84,-257,-2034,47,27,78,648,70,578,-359
,449,2023-10-20 13:28:39.82,89,-247,-2044,56,34,79,666,-15,681,-325
,450,2023-10-20 13:28:39.83,97,-255,-2050,63,22,89,654,-113,767,-270
,451,2023-10-20 13:28:39.84,86,-221,-2050,67,23,98,645,-186,831,-229
,452,2023-10-20 13:28:39.85,120,-212,-2067,56,19,97,652,-248,900,-202
,453,2023-10-20 13:28:39.86,97,-225,-2086,43,25,99,654,-299,953,-177
,454,2023-10-20 13:28:39.87,92,-216,-2096,42,16,100,671,-430,1101,-120
,455,2023-10-20 13:28:39.88,83,-213,-2081,42,0,92,676,-540,1216,-68
,456,2023-10-20 13:28:39.89,96,-226,-2049,41,-22,93,705,-628,1333,-38
,457,2023-10-20 13:28:39.90,90,-240,-2043,30,-14,95,678,-647,1325,-15
,458,2023-10-20 13:28:39.91,72,-244,-2040,31,-11,102,714,-544,1258,-85
,459,2023-10-20 13:28:39.92,63,-252,-2029,47,-26,106,671,-440,1111,-115
,460,2023-10-20 13:28:39.93,41,-258,-2037,60,-31,111,710,-442,1152,-134
,461,2023-10-20 13:28:39.94,52,-238,-2059,66,-46,115,662,-494,1156,-84
,462,2023-10-20 13:28:39.95,39,-237,-2051,67,-61,111,715,-521,1236,-97
,463,2023-10-20 13:28:39.96,32,-225,-2037,64,-62,103,674,-519,1193,-77
,464,2023-10-20 13:28:39.97,47,-228,-2041,67,-69,101,740,-455,1195,-142
,465,2023-10-20 13:28:39.98,35,-216,-2018,67,-66,90,672,-412,1084,-130
,466,2023-10-20 13:28:39.99,40,-226,-2014,56,-52,82,727,-382,1109,-172
,467,2023-10-20 13:28:40.00,39,-224,-2023,38,-28,70,648,-392,1040,-128
,468,2023-10-20 13:28:40.01,48,-241,-2030,35,-8,61,724,-452,1176,-136
,469,2023-10-20 13:28:40.02,50,-255,-2041,36,6,54,646,-508,1154,-69
,470,2023-10-20 13:28:40.03,38,-240,-2037,39,11,52,733,-397,1130,-168
,471,2023-10-20 13:28:40.04,46,-244,-2037,35,21,48,637,-320,957,-158
,472,2023-10-20 13:28:40.05,29,-240,-2057,37,28,45,721,-246,967,-237
,473,2023-10-20 13:28:40.06,41,-244,-2058,43,23,41,627,-267,894,-180
,474,2023-10-20 13:28:40.07,37,-231,-2051,49,10,39,733,-95,828,-319
,475,2023-10-20 13:28:40.08,44,-243,-2041,46,10,36,617,-34,651,-291
,476,2023-10-20 13:28:40.09,44,-244,-2048,44,14,32,722,-17,739,-352
,477,2023-10-20 13:28:40.10,49,-246,-2039,41,14,30,605,-148,753,-228
,478,2023-10-20 13:28:40.11,38,-256,-2043,40,16,27,728,-184,912,-272
,479,2023-10-20 13:28:40.12,46,-266,-2047,40,21,27,606,-258,864,-174
,480,2023-10-20 13:28:40.13,50,-277,-2047,48,20,34,731,-437,1168,-147
,481,2023-10-20 13:28:40.14,55,-272,-2039,50,18,39,608,-576,1184,-16
,482,2023-10-20 13:28:40.15,52,-260,-2048,51,17,43,744,-625,1369,-59
,483,2023-10-20 13:28:40.16,57,-251,-2036,45,23,50,603,-601,1204,-1
,484,2023-10-20 13:28:40.17,72,-284,-2024,42,54,63,740,-718,1458,-11
,485,2023-10-20 13:28:40.18,16,-276,-2059,80,74,70,586,-768,1354,91
,486,2023-10-20 13:28:40.19,27,-203,-2056,109,43,38,740,-775,1515,17
,487,2023-10-20 13:28:40.20,33,-226,-2070,85,-4,29,588,-711,1299,61
,488,2023-10-20 13:28:40.21,44,-259,-2078,47,-21,38,740,-601,1341,-69
,489,2023-10-20 13:28:40.22,45,-262,-2066,29,-22,36,582,-530,1112,-26
,490,2023-10-20 13:28:40.23,44,-271,-2050,13,-18,32,736,-611,1347,-62
,491,2023-10-20 13:28:40.24,43,-281,-2038,16,-27,32,578,-665,1243,43
,492,2023-10-20 13:28:40.25,45,-265,-2028,31,-29,24,742,-786,1528,22
,493,2023-10-20 13:28:40.26,38,-274,-2027,39,-22,16,585,-783,1368,99
,494,2023-10-20 13:28:40.27,38,-277,-2029,49,-15,5,766,-725,1491,-20
