// Data mode  : Full
// Data quality  : High
// Acceleration sensor's range  : 16g
// Gyroscope sensor's range  : 2000dps
//
//ARTIFACT,NUM,DATE,ACC_X,ACC_Y,ACC_Z,GYRO_X,GYRO_Y,GYRO_Z,EOG_L,EOG_R,EOG_H,EOG_V
,1,2023-10-27 10:28:23.14,46,-203,-2048,8,44,89,207,18,189,-112
,2,2023-10-27 10:28:23.15,32,-196,-2045,11,43,99,-143,336,-479,-96
,3,2023-10-27 10:28:23.16,30,-194,-2060,12,42,101,200,13,187,-106
,4,2023-10-27 10:28:23.17,40,-172,-2059,14,34,101,-144,334,-478,-95
,5,2023-10-27 10:28:23.18,32,-167,-2066,12,29,99,208,15,193,-111
,6,2023-10-27 10:28:23.19,39,-155,-2058,11,32,86,-137,334,-471,-98
,7,2023-10-27 10:28:23.20,41,-147,-2057,9,37,72,208,18,190,-113
,8,2023-10-27 10:28:23.21,34,-157,-2072,8,51,59,-132,319,-451,-93
,9,2023-10-27 10:28:23.22,38,-159,-2062,6,48,45,203,16,187,-109
,10,2023-10-27 10:28:23.23,40,-164,-2073,6,48,38,-144,321,-465,-88
,11,2023-10-27 10:28:23.24,35,-177,-2072,4,40,35,195,20,175,-107
,12,2023-10-27 10:28:23.25,25,-172,-2071,0,44,35,-147,310,-457,-81
,13,2023-10-27 10:28:23.26,37,-202,-2051,-3,42,33,202,27,175,-114
,14,2023-10-27 10:28:23.27,44,-170,-2053,2,34,33,-125,307,-432,-91
,15,2023-10-27 10:28:23.28,44,-164,-2053,-10,38,33,208,32,176,-120
,16,2023-10-27 10:28:23.29,51,-160,-2050,-10,39,24,-131,309,-440,-89
,17,2023-10-27 10:28:23.30,58,-160,-2036,-10,42,19,197,31,166,-114
,18,2023-10-27 10:28:23.31,55,-184,-2041,-7,48,21,-127,306,-433,-89
,19,2023-10-27 10:28:23.32,41,-193,-2034,-4,62,27,194,32,162,-113
,20,2023-10-27 10:28:23.33,51,-195,-2034,-1,66,38,-127,292,-419,-82
,21,2023-10-27 10:28:23.34,59,-197,-2035,-4,72,50,187,41,146,-114
,22,2023-10-27 10:28:23.35,52,-191,-2045,-1,70,60,-131,300,-431,-84
,23,2023-10-27 10:28:23.36,60,-181,-2048,-2,75,68,174,58,116,-116
,24,2023-10-27 10:28:23.37,60,-178,-2056,-6,68,73,-131,303,-434,-86
,25,2023-10-27 10:28:23.38,66,-175,-2060,-5,71,76,174,56,118,-115
,26,2023-10-27 10:28:23.39,67,-157,-2053,-5,73,76,-124,288,-412,-82
,27,2023-10-27 10:28:23.40,74,-164,-2068,-8,70,72,178,53,125,-115
,28,2023-10-27 10:28:23.41,57,-158,-2068,-5,65,73,-111,276,-387,-82
,29,2023-10-27 10:28:23.42,78,-169,-2059,0,61,71,184,56,128,-120
,30,2023-10-27 10:28:23.43,66,-179,-2064,4,62,69,-98,275,-373,-88
,31,2023-10-27 10:28:23.44,74,-177,-2050,14,56,70,174,67,107,-120
,32,2023-10-27 10:28:23.45,97,-174,-2038,22,59,68,-113,273,-386,-80
,33,2023-10-27 10:28:23.46,75,-181,-2050,30,62,71,156,68,88,-112
,34,2023-10-27 10:28:23.47,88,-177,-2044,36,64,75,-107,262,-369,-77
,35,2023-10-27 10:28:23.48,80,-179,-2066,38,65,74,162,89,73,-125
,36,2023-10-27 10:28:23.49,76,-175,-2066,33,61,74,-93,276,-369,-91
,37,2023-10-27 10:28:23.50,76,-176,-2070,28,64,76,157,76,81,-116
,38,2023-10-27 10:28:23.51,84,-184,-2071,24,61,74,-93,237,-330,-72
,39,2023-10-27 10:28:23.52,89,-165,-2042,22,56,74,155,82,73,-118
,40,2023-10-27 10:28:23.53,92,-177,-2057,15,62,73,-85,252,-337,-83
,41,2023-10-27 10:28:23.54,87,-175,-2056,12,58,70,151,102,49,-126
,42,2023-10-27 10:28:23.55,90,-176,-2046,10,51,67,-86,246,-332,-80
,43,2023-10-27 10:28:23.56,84,-205,-2051,14,47,63,140,111,29,-125
,44,2023-10-27 10:28:23.57,97,-165,-2031,18,51,57,-86,236,-322,-75
,45,2023-10-27 10:28:23.58,89,-188,-2043,20,54,56,139,120,19,-129
,46,2023-10-27 10:28:23.59,118,-189,-2050,21,55,53,-71,238,-309,-83
,47,2023-10-27 10:28:23.60,103,-184,-2060,31,53,45,125,126,-1,-125
,48,2023-10-27 10:28:23.61,95,-177,-2055,30,53,43,-68,228,-296,-80
,49,2023-10-27 10:28:23.62,105,-176,-2047,27,37,44,124,130,-6,-127
,50,2023-10-27 10:28:23.63,110,-173,-2048,26,42,40,-58,218,-276,-80
,51,2023-10-27 10:28:23.64,99,-188,-2067,22,45,36,122,115,7,-118
,52,2023-10-27 10:28:23.65,102,-192,-2054,20,41,34,-51,196,-247,-72
,53,2023-10-27 10:28:23.66,113,-209,-2050,24,41,35,117,134,-17,-125
,54,2023-10-27 10:28:23.67,115,-189,-2036,26,39,34,-40,210,-250,-85
,55,2023-10-27 10:28:23.68,119,-188,-2045,26,44,36,96,146,-50,-121
,56,2023-10-27 10:28:23.69,113,-196,-2059,27,44,35,-53,200,-253,-73
,57,2023-10-27 10:28:23.70,116,-197,-2047,28,44,34,88,148,-60,-118
,58,2023-10-27 10:28:23.71,111,-201,-2054,29,41,36,-45,198,-243,-76
,59,2023-10-27 10:28:23.72,114,-202,-2055,31,40,38,77,173,-96,-125
,60,2023-10-27 10:28:23.73,136,-185,-2043,37,37,37,-42,213,-255,-85
,61,2023-10-27 10:28:23.74,113,-203,-2067,41,41,39,67,188,-121,-127
,62,2023-10-27 10:28:23.75,119,-188,-2066,41,36,41,-38,200,-238,-81
,63,2023-10-27 10:28:23.76,111,-195,-2064,38,29,43,62,187,-125,-124
,64,2023-10-27 10:28:23.77,124,-189,-2069,35,17,39,-28,187,-215,-79
,65,2023-10-27 10:28:23.78,101,-193,-2064,30,14,37,61,198,-137,-129
,66,2023-10-27 10:28:23.79,107,-199,-2056,23,2,37,-16,193,-209,-88
,67,2023-10-27 10:28:23.80,124,-211,-2050,17,5,37,61,192,-131,-126
,68,2023-10-27 10:28:23.81,127,-208,-2047,17,8,40,-2,165,-167,-81
,69,2023-10-27 10:28:23.82,111,-207,-2045,23,17,41,62,190,-128,-126
,70,2023-10-27 10:28:23.83,117,-199,-2045,24,19,41,9,160,-151,-84
,71,2023-10-27 10:28:23.84,116,-202,-2047,23,26,45,54,209,-155,-131
,72,2023-10-27 10:28:23.85,106,-202,-2047,18,29,47,10,162,-152,-86
,73,2023-10-27 10:28:23.86,106,-197,-2063,17,24,53,42,208,-166,-125
,74,2023-10-27 10:28:23.87,99,-197,-2059,14,10,55,21,147,-126,-84
,75,2023-10-27 10:28:23.88,99,-196,-2064,10,2,54,38,217,-179,-127
,76,2023-10-27 10:28:23.89,105,-220,-2092,9,-11,56,23,145,-122,-84
,77,2023-10-27 10:28:23.90,116,-201,-2055,0,0,60,28,227,-199,-127
,78,2023-10-27 10:28:23.91,99,-202,-2049,-1,8,67,26,135,-109,-80
,79,2023-10-27 10:28:23.92,118,-181,-2038,4,0,71,21,213,-192,-117
,80,2023-10-27 10:28:23.93,114,-199,-2038,5,13,77,40,119,-79,-79
,81,2023-10-27 10:28:23.94,117,-188,-2045,5,14,86,22,221,-199,-121
,82,2023-10-27 10:28:23.95,120,-189,-2031,8,17,88,52,114,-62,-83
,83,2023-10-27 10:28:23.96,112,-172,-2036,13,19,90,19,215,-196,-117
,84,2023-10-27 10:28:23.97,130,-166,-2049,9,18,89,62,103,-41,-82
,85,2023-10-27 10:28:23.98,120,-175,-2069,6,19,85,7,233,-226,-120
,86,2023-10-27 10:28:23.99,115,-168,-2047,1,19,80,65,121,-56,-93
,87,2023-10-27 10:28:24.00,110,-167,-2051,0,16,73,3,247,-244,-125
,88,2023-10-27 10:28:24.01,108,-173,-2071,-3,15,68,60,99,-39,-79
,89,2023-10-27 10:28:24.02,109,-169,-2068,2,1,63,-5,238,-243,-116
,90,2023-10-27 10:28:24.03,120,-194,-2061,7,-5,59,76,90,-14,-83
,91,2023-10-27 10:28:24.04,110,-169,-2075,14,-12,53,-1,256,-257,-127
,92,2023-10-27 10:28:24.05,100,-177,-2067,17,-14,50,86,97,-11,-91
,93,2023-10-27 10:28:24.06,114,-177,-2055,23,-24,49,-11,256,-267,-122
,94,2023-10-27 10:28:24.07,101,-180,-2041,26,-24,43,92,75,17,-83
,95,2023-10-27 10:28:24.08,97,-185,-2053,33,-24,39,-14,270,-284,-128
,96,2023-10-27 10:28:24.09,108,-193,-2059,35,-29,34,95,90,5,-92
,97,2023-10-27 10:28:24.10,100,-213,-2072,39,-30,38,-30,278,-308,-124
,98,2023-10-27 10:28:24.11,111,-177,-2037,34,-23,45,96,76,20,-86
,99,2023-10-27 10:28:24.12,98,-215,-2046,34,-12,50,-30,265,-295,-117
,100,2023-10-27 10:28:24.13,94,-216,-2079,44,-19,53,111,63,48,-87
,101,2023-10-27 10:28:24.14,95,-216,-2069,46,-33,56,-40,285,-325,-122
,102,2023-10-27 10:28:24.15,103,-189,-2057,37,-22,54,106,70,36,-88
,103,2023-10-27 10:28:24.16,118,-193,-2062,36,-27,54,-52,297,-349,-122
,104,2023-10-27 10:28:24.17,107,-196,-2060,32,-17,51,111,64,47,-87
,105,2023-10-27 10:28:24.18,94,-190,-2052,31,-12,45,-49,285,-334,-118
,106,2023-10-27 10:28:24.19,102,-181,-2053,26,-8,41,125,58,67,-91
,107,2023-10-27 10:28:24.20,103,-198,-2054,21,-13,41,-56,310,-366,-127
,108,2023-10-27 10:28:24.21,101,-214,-2058,23,-16,45,128,65,63,-96
,109,2023-10-27 10:28:24.22,83,-218,-2064,27,-17,47,-63,313,-376,-125
,110,2023-10-27 10:28:24.23,93,-223,-2061,35,-30,48,130,53,77,-91
,111,2023-10-27 10:28:24.24,89,-227,-2054,34,-40,57,-75,302,-377,-113
,112,2023-10-27 10:28:24.25,81,-226,-2038,34,-44,66,130,39,91,-84
,113,2023-10-27 10:28:24.26,99,-220,-2040,37,-41,71,-74,302,-376,-114
,114,2023-10-27 10:28:24.27,101,-210,-2023,36,-40,71,143,43,100,-93
,115,2023-10-27 10:28:24.28,78,-210,-2018,36,-30,73,-80,321,-401,-120
,116,2023-10-27 10:28:24.29,89,-218,-2036,34,-24,76,142,36,106,-89
,117,2023-10-27 10:28:24.30,76,-209,-2049,31,-22,75,-86,303,-389,-108
,118,2023-10-27 10:28:24.31,86,-219,-2042,25,-15,82,148,24,124,-86
,119,2023-10-27 10:28:24.32,76,-206,-2052,20,-9,87,-92,320,-412,-114
,120,2023-10-27 10:28:24.33,84,-213,-2048,20,-14,91,154,35,119,-94
,121,2023-10-27 10:28:24.34,75,-199,-2049,21,-13,93,-97,326,-423,-114
,122,2023-10-27 10:28:24.35,71,-203,-2055,17,-15,87,162,31,131,-96
,123,2023-10-27 10:28:24.36,64,-199,-2048,15,-16,80,-82,343,-425,-130
,124,2023-10-27 10:28:24.37,93,-199,-2036,12,-18,81,170,26,144,-98
,125,2023-10-27 10:28:24.38,93,-196,-2045,9,-12,79,-94,319,-413,-112
,126,2023-10-27 10:28:24.39,97,-210,-2045,4,-15,74,161,-4,165,-78
,127,2023-10-27 10:28:24.40,72,-201,-2067,2,-13,71,-102,309,-411,-103
,128,2023-10-27 10:28:24.41,81,-175,-2053,-3,-8,69,173,5,168,-89
,129,2023-10-27 10:28:24.42,68,-186,-2067,-8,-4,61,-111,334,-445,-111
,130,2023-10-27 10:28:24.43,82,-179,-2063,-11,-8,57,176,12,164,-94
,131,2023-10-27 10:28:24.44,91,-188,-2062,-14,-11,50,-111,336,-447,-112
,132,2023-10-27 10:28:24.45,109,-167,-2065,-12,-21,52,176,9,167,-92
,133,2023-10-27 10:28:24.46,67,-185,-2050,-14,-12,42,-116,333,-449,-108
,134,2023-10-27 10:28:24.47,78,-175,-2059,-12,-22,37,182,6,176,-94
,135,2023-10-27 10:28:24.48,69,-179,-2051,-4,-17,29,-122,332,-454,-105
,136,2023-10-27 10:28:24.49,70,-179,-2062,-2,-20,22,181,13,168,-97
,137,2023-10-27 10:28:24.50,83,-186,-2066,-2,-21,18,-150,347,-497,-98
,138,2023-10-27 10:28:24.51,74,-195,-2054,1,-25,18,146,22,124,-84
,139,2023-10-27 10:28:24.52,71,-193,-2047,4,-25,18,-194,366,-560,-86
,140,2023-10-27 10:28:24.53,78,-196,-2053,8,-22,21,134,27,107,-80
,141,2023-10-27 10:28:24.54,74,-180,-2041,11,-22,18,-184,365,-549,-90
,142,2023-10-27 10:28:24.55,72,-183,-2063,10,-20,13,150,25,125,-87
,143,2023-10-27 10:28:24.56,71,-182,-2068,6,-24,10,-184,367,-551,-91
,144,2023-10-27 10:28:24.57,75,-187,-2063,4,-25,4,155,23,132,-89
,145,2023-10-27 10:28:24.58,68,-192,-2081,-4,-19,-1,-181,363,-544,-91
,146,2023-10-27 10:28:24.59,79,-185,-2057,-2,-22,0,165,20,145,-92
,147,2023-10-27 10:28:24.60,60,-171,-2060,4,-17,-3,-176,362,-538,-93
,148,2023-10-27 10:28:24.61,67,-177,-2070,4,-22,-11,174,19,155,-96
,149,2023-10-27 10:28:24.62,64,-178,-2069,7,-31,-19,-172,367,-539,-97
,150,2023-10-27 10:28:24.63,63,-189,-2066,7,-37,-20,177,27,150,-102
,151,2023-10-27 10:28:24.64,69,-203,-2064,10,-46,-15,-175,376,-551,-100
,152,2023-10-27 10:28:24.65,61,-203,-2062,20,-46,-12,176,20,156,-98
,153,2023-10-27 10:28:24.66,63,-191,-2053,32,-62,-15,-177,356,-533,-89
,154,2023-10-27 10:28:24.67,69,-202,-2030,37,-56,-11,184,16,168,-100
,155,2023-10-27 10:28:24.68,66,-184,-2046,37,-72,-15,-172,367,-539,-97
,156,2023-10-27 10:28:24.69,63,-188,-2075,42,-73,-18,185,22,163,-103
,157,2023-10-27 10:28:24.70,57,-180,-2083,47,-92,-31,-174,363,-537,-94
,158,2023-10-27 10:28:24.71,70,-170,-2067,41,-111,-42,184,24,160,-104
,159,2023-10-27 10:28:24.72,20,-189,-2107,40,-126,-54,-172,368,-540,-98
,160,2023-10-27 10:28:24.73,42,-168,-2084,46,-136,-73,192,27,165,-109
,161,2023-10-27 10:28:24.74,31,-164,-2076,44,-142,-90,-175,368,-543,-96
,162,2023-10-27 10:28:24.75,24,-181,-2083,41,-155,-112,185,24,161,-104
,163,2023-10-27 10:28:24.76,11,-207,-2070,43,-172,-125,-175,359,-534,-92
,164,2023-10-27 10:28:24.77,30,-193,-2046,39,-180,-132,193,33,160,-113
,165,2023-10-27 10:28:24.78,-5,-234,-2051,34,-170,-132,-178,369,-547,-95
,166,2023-10-27 10:28:24.79,-5,-234,-2054,40,-171,-125,182,36,146,-109
,167,2023-10-27 10:28:24.80,-5,-241,-2048,44,-168,-116,-194,354,-548,-80
,168,2023-10-27 10:28:24.81,-1,-250,-2055,40,-160,-104,179,35,144,-107
,169,2023-10-27 10:28:24.82,-5,-243,-2041,41,-165,-89,-176,362,-538,-93
,170,2023-10-27 10:28:24.83,-1,-249,-2007,38,-150,-74,191,37,154,-114
,171,2023-10-27 10:28:24.84,-12,-246,-1982,39,-139,-60,-172,351,-523,-89
,172,2023-10-27 10:28:24.85,-6,-254,-1989,37,-125,-45,190,29,161,-109
,173,2023-10-27 10:28:24.86,8,-263,-2001,39,-116,-35,-176,344,-520,-84
,174,2023-10-27 10:28:24.87,11,-253,-2038,34,-105,-20,183,39,144,-111
,175,2023-10-27 10:28:24.88,-10,-250,-2052,28,-92,-1,-168,353,-521,-92
,176,2023-10-27 10:28:24.89,-3,-266,-2027,51,-102,12,184,38,146,-111
,177,2023-10-27 10:28:24.90,15,-237,-1999,62,-70,28,-170,345,-515,-87
,178,2023-10-27 10:28:24.91,9,-205,-2000,29,-23,42,181,44,137,-112
,179,2023-10-27 10:28:24.92,-11,-193,-2023,-26,11,50,-166,349,-515,-91
,180,2023-10-27 10:28:24.93,-5,-222,-2035,-30,-14,49,185,40,145,-112
,181,2023-10-27 10:28:24.94,14,-231,-2023,-16,-25,54,-157,333,-490,-88
,182,2023-10-27 10:28:24.95,23,-223,-2043,-20,-4,67,188,40,148,-114
,183,2023-10-27 10:28:24.96,15,-233,-2096,-18,24,83,-154,326,-480,-86
,184,2023-10-27 10:28:24.97,32,-203,-2080,-8,51,94,180,44,136,-112
,185,2023-10-27 10:28:24.98,42,-198,-2089,2,24,105,-159,332,-491,-86
,186,2023-10-27 10:28:24.99,19,-178,-2093,1,54,110,176,50,126,-113
,187,2023-10-27 10:28:25.00,28,-153,-2090,2,44,109,-152,324,-476,-86
,188,2023-10-27 10:28:25.01,24,-148,-2101,-8,47,97,177,51,126,-114
,189,2023-10-27 10:28:25.02,17,-150,-2103,-26,45,81,-150,318,-468,-84
,190,2023-10-27 10:28:25.03,18,-170,-2105,-37,38,77,169,56,113,-112
,191,2023-10-27 10:28:25.04,3,-169,-2100,-35,13,68,-151,315,-466,-82
,192,2023-10-27 10:28:25.05,7,-194,-2084,-22,-10,66,167,59,108,-113
,193,2023-10-27 10:28:25.06,16,-185,-2053,0,-38,60,-147,308,-455,-80
,194,2023-10-27 10:28:25.07,16,-196,-2052,18,-61,53,164,64,100,-114
,195,2023-10-27 10:28:25.08,0,-197,-2035,44,-76,46,-141,302,-443,-80
,196,2023-10-27 10:28:25.09,8,-181,-2021,70,-76,41,162,74,88,-118
,197,2023-10-27 10:28:25.10,21,-194,-2024,81,-61,35,-139,306,-445,-83
,198,2023-10-27 10:28:25.11,15,-183,-2017,88,-51,27,155,78,77,-116
,199,2023-10-27 10:28:25.12,8,-187,-2015,81,-41,19,-135,299,-434,-82
,200,2023-10-27 10:28:25.13,8,-185,-2017,80,-38,5,152,82,70,-117
,201,2023-10-27 10:28:25.14,1,-182,-2028,68,-26,-5,-132,291,-423,-79
,202,2023-10-27 10:28:25.15,9,-193,-2037,72,-30,-14,148,85,63,-116
,203,2023-10-27 10:28:25.16,6,-203,-2051,72,-20,-19,-127,281,-408,-77
,204,2023-10-27 10:28:25.17,13,-221,-2058,68,-13,-24,144,90,54,-117
,205,2023-10-27 10:28:25.18,4,-227,-2062,75,-20,-24,-113,287,-400,-87
,206,2023-10-27 10:28:25.19,5,-239,-2063,82,-31,-21,138,98,40,-118
,207,2023-10-27 10:28:25.20,-3,-241,-2058,85,-32,-17,-119,272,-391,-76
,208,2023-10-27 10:28:25.21,0,-260,-2047,92,-38,-8,120,88,32,-104
,209,2023-10-27 10:28:25.22,6,-246,-2060,96,-45,1,-113,267,-380,-77
,210,2023-10-27 10:28:25.23,-19,-252,-2077,94,-57,8,127,107,20,-117
,211,2023-10-27 10:28:25.24,-7,-246,-2081,94,-69,15,-107,267,-374,-80
,212,2023-10-27 10:28:25.25,-28,-227,-2083,101,-79,23,120,120,0,-120
,213,2023-10-27 10:28:25.26,-21,-244,-2086,95,-81,38,-106,260,-366,-77
,214,2023-10-27 10:28:25.27,-29,-240,-2089,92,-77,48,112,120,-8,-116
,215,2023-10-27 10:28:25.28,-35,-232,-2083,87,-92,60,-99,249,-348,-75
,216,2023-10-27 10:28:25.29,-23,-230,-2079,70,-95,72,112,127,-15,-119
,217,2023-10-27 10:28:25.30,-44,-240,-2061,50,-97,82,-98,242,-340,-72
,218,2023-10-27 10:28:25.31,-18,-240,-2037,32,-96,88,103,133,-30,-118
,219,2023-10-27 10:28:25.32,-23,-250,-2002,26,-90,97,-83,236,-319,-76
,220,2023-10-27 10:28:25.33,-27,-241,-1988,25,-76,105,101,141,-40,-121
,221,2023-10-27 10:28:25.34,-15,-252,-1979,30,-53,121,-76,226,-302,-75
,222,2023-10-27 10:28:25.35,-24,-241,-1980,39,-39,133,99,141,-42,-120
,223,2023-10-27 10:28:25.36,-27,-243,-1996,49,-23,140,-70,223,-293,-76
,224,2023-10-27 10:28:25.37,-40,-241,-1990,60,-11,146,88,150,-62,-119
,225,2023-10-27 10:28:25.38,-40,-242,-2017,65,-11,152,-67,220,-287,-76
,226,2023-10-27 10:28:25.39,-56,-250,-2050,70,-16,155,78,164,-86,-121
,227,2023-10-27 10:28:25.40,-57,-243,-2079,74,-23,160,-61,216,-277,-77
,228,2023-10-27 10:28:25.41,-64,-234,-2078,72,-34,162,76,165,-89,-120
,229,2023-10-27 10:28:25.42,-44,-227,-2059,70,-51,164,-53,202,-255,-74
,230,2023-10-27 10:28:25.43,-29,-238,-2040,59,-39,159,68,169,-101,-118
,231,2023-10-27 10:28:25.44,-59,-215,-2060,55,-35,149,-49,194,-243,-72
,232,2023-10-27 10:28:25.45,-37,-218,-2055,44,-26,129,58,174,-116,-116
,233,2023-10-27 10:28:25.46,-40,-236,-2054,50,-33,117,-42,192,-234,-75
,234,2023-10-27 10:28:25.47,-32,-228,-2051,62,-45,110,52,189,-137,-120
,235,2023-10-27 10:28:25.48,-39,-263,-2090,66,-56,102,-34,188,-222,-77
,236,2023-10-27 10:28:25.49,-48,-267,-2061,75,-65,97,47,193,-146,-120
,237,2023-10-27 10:28:25.50,-54,-250,-2069,88,-81,77,-29,180,-209,-75
,238,2023-10-27 10:28:25.51,-50,-254,-2091,101,-86,59,49,200,-151,-124
,239,2023-10-27 10:28:25.52,-53,-253,-2095,106,-86,54,-17,172,-189,-77
,240,2023-10-27 10:28:25.53,-54,-226,-2092,107,-85,49,39,202,-163,-120
,241,2023-10-27 10:28:25.54,-57,-246,-2107,109,-101,48,-12,164,-176,-76
,242,2023-10-27 10:28:25.55,-85,-240,-2065,107,-115,32,30,212,-182,-121
,243,2023-10-27 10:28:25.56,-75,-277,-2068,104,-115,24,-4,161,-165,-78
,244,2023-10-27 10:28:25.57,-87,-261,-2059,110,-138,22,29,224,-195,-126
,245,2023-10-27 10:28:25.58,-70,-292,-2052,103,-146,21,9,157,-148,-83
,246,2023-10-27 10:28:25.59,-86,-287,-2032,109,-152,18,36,236,-200,-136
,247,2023-10-27 10:28:25.60,-91,-263,-2044,111,-160,14,14,150,-136,-82
,248,2023-10-27 10:28:25.61,-96,-276,-2034,100,-155,3,12,230,-218,-121
,249,2023-10-27 10:28:25.62,-101,-303,-2028,96,-157,0,6,127,-121,-66
,250,2023-10-27 10:28:25.63,-104,-282,-2024,105,-146,2,8,240,-232,-124
,251,2023-10-27 10:28:25.64,-96,-297,-2014,101,-145,4,26,136,-110,-81
,252,2023-10-27 10:28:25.65,-120,-288,-2007,104,-142,4,1,242,-241,-121
,253,2023-10-27 10:28:25.66,-118,-301,-2024,111,-131,6,31,128,-97,-79
,254,2023-10-27 10:28:25.67,-139,-322,-2037,111,-139,9,-9,246,-255,-118
,255,2023-10-27 10:28:25.68,-146,-282,-2005,105,-133,10,32,122,-90,-77
,256,2023-10-27 10:28:25.69,-157,-315,-2040,98,-131,8,-18,255,-273,-118
,257,2023-10-27 10:28:25.70,-122,-296,-2025,74,-137,13,41,116,-75,-78
,258,2023-10-27 10:28:25.71,-138,-326,-2004,49,-140,19,-18,259,-277,-120
,259,2023-10-27 10:28:25.72,-138,-325,-1989,39,-132,26,50,110,-60,-80
,260,2023-10-27 10:28:25.73,-125,-316,-1978,37,-111,31,-27,267,-294,-120
,261,2023-10-27 10:28:25.74,-123,-308,-1965,37,-81,35,54,110,-56,-82
,262,2023-10-27 10:28:25.75,-141,-311,-1967,44,-57,36,-30,272,-302,-121
,263,2023-10-27 10:28:25.76,-128,-308,-1963,43,-42,35,66,107,-41,-86
,264,2023-10-27 10:28:25.77,-128,-313,-1974,40,-26,33,-40,282,-322,-121
,265,2023-10-27 10:28:25.78,-119,-315,-1956,40,-12,30,66,97,-31,-81
,266,2023-10-27 10:28:25.79,-127,-320,-1978,39,18,26,-44,280,-324,-118
,267,2023-10-27 10:28:25.80,-127,-319,-1999,33,35,28,75,89,-14,-82
,268,2023-10-27 10:28:25.81,-135,-331,-2006,27,55,33,-48,290,-338,-121
,269,2023-10-27 10:28:25.82,-116,-339,-2013,27,68,38,81,91,-10,-86
,270,2023-10-27 10:28:25.83,-132,-328,-2036,29,75,40,-59,296,-355,-118
,271,2023-10-27 10:28:25.84,-119,-323,-2038,27,76,46,84,83,1,-83
,272,2023-10-27 10:28:25.85,-133,-328,-2055,24,75,59,-62,295,-357,-116
,273,2023-10-27 10:28:25.86,-114,-326,-2065,18,71,71,94,75,19,-84
,274,2023-10-27 10:28:25.87,-123,-297,-2030,16,61,76,-65,298,-363,-116
,275,2023-10-27 10:28:25.88,-110,-321,-2053,12,58,82,102,71,31,-86
,276,2023-10-27 10:28:25.89,-123,-301,-2050,0,46,83,-73,312,-385,-119
,277,2023-10-27 10:28:25.90,-114,-301,-2043,-4,31,82,104,69,35,-86
,278,2023-10-27 10:28:25.91,-103,-306,-2029,-6,21,82,-78,312,-390,-117
,279,2023-10-27 10:28:25.92,-81,-301,-2035,-4,25,76,115,68,47,-91
,280,2023-10-27 10:28:25.93,-105,-304,-2046,0,28,71,-74,321,-395,-123
,281,2023-10-27 10:28:25.94,-105,-299,-2050,7,31,66,121,66,55,-93
,282,2023-10-27 10:28:25.95,-93,-295,-2046,8,26,63,-89,320,-409,-115
,283,2023-10-27 10:28:25.96,-96,-301,-2037,13,18,55,121,55,66,-88
,284,2023-10-27 10:28:25.97,-79,-314,-2030,19,15,45,-94,321,-415,-113
,285,2023-10-27 10:28:25.98,-88,-317,-2020,18,11,42,126,52,74,-89
,286,2023-10-27 10:28:25.99,-90,-314,-2012,20,10,41,-103,326,-429,-111
,287,2023-10-27 10:28:26.00,-85,-313,-2028,29,4,42,140,62,78,-101
,288,2023-10-27 10:28:26.01,-96,-307,-2021,29,1,40,-103,336,-439,-116
,289,2023-10-27 10:28:26.02,-98,-305,-2022,33,-2,38,137,51,86,-94
,290,2023-10-27 10:28:26.03,-106,-308,-2037,31,-7,37,-118,326,-444,-104
,291,2023-10-27 10:28:26.04,-104,-307,-2049,34,-11,37,143,51,92,-97
,292,2023-10-27 10:28:26.05,-108,-317,-2043,32,-21,40,-110,343,-453,-116
,293,2023-10-27 10:28:26.06,-134,-314,-2056,30,-27,43,141,37,104,-89
,294,2023-10-27 10:28:26.07,-109,-306,-2053,14,-37,57,-117,340,-457,-111
,295,2023-10-27 10:28:26.08,-131,-307,-2066,-3,-50,64,152,35,117,-93
,296,2023-10-27 10:28:26.09,-121,-300,-2042,-15,-60,65,-122,339,-461,-108
,297,2023-10-27 10:28:26.10,-118,-295,-2039,-30,-59,62,154,30,124,-92
,298,2023-10-27 10:28:26.11,-119,-304,-2022,-43,-46,61,-126,343,-469,-108
,299,2023-10-27 10:28:26.12,-129,-294,-2016,-43,-27,67,156,35,121,-95
,300,2023-10-27 10:28:26.13,-124,-292,-2010,-44,-9,72,-130,354,-484,-112
,301,2023-10-27 10:28:26.14,-121,-288,-2015,-45,4,77,162,28,134,-95
,302,2023-10-27 10:28:26.15,-136,-283,-2028,-47,8,79,-134,345,-479,-105
,303,2023-10-27 10:28:26.16,-135,-281,-2023,-48,5,80,166,21,145,-93
,304,2023-10-27 10:28:26.17,-133,-271,-2022,-60,0,82,-138,350,-488,-106
,305,2023-10-27 10:28:26.18,-152,-261,-2044,-75,-4,82,169,28,141,-98
,306,2023-10-27 10:28:26.19,-146,-256,-2056,-84,-13,74,-143,356,-499,-106
,307,2023-10-27 10:28:26.20,-149,-254,-2053,-97,-19,71,176,22,154,-99
,308,2023-10-27 10:28:26.21,-148,-262,-2065,-106,-25,65,-140,356,-496,-108
,309,2023-10-27 10:28:26.22,-158,-244,-2069,-102,-31,55,180,21,159,-100
,310,2023-10-27 10:28:26.23,-145,-247,-2060,-100,-43,43,-145,353,-498,-104
,311,2023-10-27 10:28:26.24,-136,-252,-2048,-102,-48,32,179,16,163,-97
,312,2023-10-27 10:28:26.25,-127,-261,-2036,-94,-47,21,-146,356,-502,-105
,313,2023-10-27 10:28:26.26,-145,-260,-2032,-77,-43,9,186,17,169,-101
,314,2023-10-27 10:28:26.27,-140,-254,-2034,-63,-44,0,-149,357,-506,-104
,315,2023-10-27 10:28:26.28,-145,-256,-2036,-51,-41,-8,189,13,176,-101
,316,2023-10-27 10:28:26.29,-143,-257,-2046,-46,-45,-14,-151,356,-507,-102
,317,2023-10-27 10:28:26.30,-150,-269,-2041,-40,-47,-19,193,12,181,-102
,318,2023-10-27 10:28:26.31,-141,-265,-2028,-33,-49,-25,-151,362,-513,-105
,319,2023-10-27 10:28:26.32,-138,-245,-2010,-23,-40,-29,194,21,173,-107
,320,2023-10-27 10:28:26.33,-130,-256,-2015,-15,-32,-33,-156,364,-520,-104
,321,2023-10-27 10:28:26.34,-141,-252,-2022,-7,-25,-39,196,14,182,-105
,322,2023-10-27 10:28:26.35,-141,-261,-2013,-6,-19,-46,-156,358,-514,-101
,323,2023-10-27 10:28:26.36,-151,-268,-2011,-6,-8,-47,198,17,181,-107
,324,2023-10-27 10:28:26.37,-142,-278,-2017,-3,1,-44,-154,365,-519,-105
,325,2023-10-27 10:28:26.38,-147,-276,-2024,-2,13,-37,198,14,184,-106
,326,2023-10-27 10:28:26.39,-153,-274,-2040,1,16,-30,-162,357,-519,-97
,327,2023-10-27 10:28:26.40,-156,-265,-2036,5,8,-26,195,12,183,-103
,328,2023-10-27 10:28:26.41,-161,-271,-2042,3,4,-22,-156,365,-521,-104
,329,2023-10-27 10:28:26.42,-154,-281,-2033,5,-2,-17,194,10,184,-102
,330,2023-10-27 10:28:26.43,-157,-283,-2044,5,2,-11,-166,354,-520,-94
,331,2023-10-27 10:28:26.44,-165,-287,-2042,12,6,-2,184,1,183,-92
,332,2023-10-27 10:28:26.45,-151,-271,-2033,18,22,28,-169,354,-523,-92
,333,2023-10-27 10:28:26.46,-159,-270,-2030,18,27,40,195,15,180,-105
,334,2023-10-27 10:28:26.47,-164,-267,-2036,17,29,46,-165,356,-521,-95
,335,2023-10-27 10:28:26.48,-157,-252,-2039,15,28,50,198,8,190,-103
,336,2023-10-27 10:28:26.49,-161,-238,-2039,12,26,49,-165,346,-511,-90
,337,2023-10-27 10:28:26.50,-161,-229,-2043,8,33,41,190,5,185,-97
,338,2023-10-27 10:28:26.51,-159,-224,-2049,4,43,33,-163,353,-516,-95
,339,2023-10-27 10:28:26.52,-160,-216,-2046,-5,47,22,197,24,173,-110
,340,2023-10-27 10:28:26.53,-145,-230,-2037,-12,54,8,-161,352,-513,-95
,341,2023-10-27 10:28:26.54,-149,-233,-2027,-15,57,-11,198,23,175,-110
,342,2023-10-27 10:28:26.55,-159,-231,-2033,-9,64,-32,-163,345,-508,-91
,343,2023-10-27 10:28:26.56,-127,-247,-2029,-1,68,-42,195,18,177,-106
,344,2023-10-27 10:28:26.57,-139,-256,-2024,6,72,-47,-163,344,-507,-90
,345,2023-10-27 10:28:26.58,-132,-259,-2003,18,59,-55,198,24,174,-111
,346,2023-10-27 10:28:26.59,-132,-252,-2013,28,60,-62,-156,344,-500,-94
,347,2023-10-27 10:28:26.60,-120,-255,-2015,34,57,-72,198,25,173,-111
,348,2023-10-27 10:28:26.61,-114,-255,-2036,32,60,-72,-159,338,-497,-89
,349,2023-10-27 10:28:26.62,-118,-257,-2041,25,65,-69,194,32,162,-113
,350,2023-10-27 10:28:26.63,-119,-254,-2045,17,61,-75,-159,340,-499,-90
,351,2023-10-27 10:28:26.64,-116,-249,-2051,9,60,-83,189,34,155,-111
,352,2023-10-27 10:28:26.65,-114,-264,-2058,-5,51,-86,-155,336,-491,-90
,353,2023-10-27 10:28:26.66,-90,-273,-2048,-25,51,-83,189,38,151,-113
,354,2023-10-27 10:28:26.67,-92,-289,-2038,-35,38,-76,-156,332,-488,-88
,355,2023-10-27 10:28:26.68,-87,-306,-2042,-36,44,-72,186,34,152,-110
,356,2023-10-27 10:28:26.69,-93,-304,-2038,-23,31,-61,-154,320,-474,-83
,357,2023-10-27 10:28:26.70,-87,-300,-2044,-11,20,-43,181,37,144,-109
,358,2023-10-27 10:28:26.71,-89,-292,-2038,-1,10,-28,-154,322,-476,-84
,359,2023-10-27 10:28:26.72,-78,-288,-2046,1,7,-10,176,44,132,-110
,360,2023-10-27 10:28:26.73,-94,-288,-2034,-4,5,1,-149,316,-465,-83
,361,2023-10-27 10:28:26.74,-84,-281,-2042,-2,4,16,176,47,129,-111
,362,2023-10-27 10:28:26.75,-93,-277,-2031,7,1,25,-143,314,-457,-85
,363,2023-10-27 10:28:26.76,-106,-272,-2048,11,0,38,176,51,125,-113
,364,2023-10-27 10:28:26.77,-97,-275,-2040,14,-2,47,-142,305,-447,-81
,365,2023-10-27 10:28:26.78,-105,-278,-2035,18,-5,54,172,55,117,-113
,366,2023-10-27 10:28:26.79,-126,-277,-2028,24,-11,58,-138,306,-444,-84
,367,2023-10-27 10:28:26.80,-105,-270,-2037,28,-12,65,172,59,113,-115
,368,2023-10-27 10:28:26.81,-120,-258,-2055,30,-9,70,-131,301,-432,-85
,369,2023-10-27 10:28:26.82,-116,-245,-2050,28,-7,70,174,74,100,-124
,370,2023-10-27 10:28:26.83,-121,-248,-2043,24,-6,63,-133,289,-422,-78
,371,2023-10-27 10:28:26.84,-129,-252,-2032,21,-3,55,158,67,91,-112
,372,2023-10-27 10:28:26.85,-126,-253,-2030,19,1,50,-133,275,-408,-71
,373,2023-10-27 10:28:26.86,-128,-260,-2034,21,7,50,157,83,74,-120
,374,2023-10-27 10:28:26.87,-116,-270,-2026,22,15,50,-121,293,-414,-86
,375,2023-10-27 10:28:26.88,-120,-270,-2034,24,22,51,153,83,70,-118
,376,2023-10-27 10:28:26.89,-115,-263,-2027,30,31,50,-118,273,-391,-77
,377,2023-10-27 10:28:26.90,-118,-243,-2025,34,40,47,151,82,69,-116
,378,2023-10-27 10:28:26.91,-110,-239,-2047,25,45,46,-119,259,-378,-70
,379,2023-10-27 10:28:26.92,-95,-249,-2051,22,42,41,150,92,58,-121
,380,2023-10-27 10:28:26.93,-105,-245,-2053,23,33,29,-106,270,-376,-82
,381,2023-10-27 10:28:26.94,-97,-253,-2045,18,20,26,142,97,45,-119
,382,2023-10-27 10:28:26.95,-87,-256,-2044,13,14,25,-100,263,-363,-81
,383,2023-10-27 10:28:26.96,-90,-280,-2038,15,11,28,134,95,39,-114
,384,2023-10-27 10:28:26.97,-93,-288,-2034,15,7,25,-98,246,-344,-74
,385,2023-10-27 10:28:26.98,-77,-282,-2027,18,8,31,125,112,13,-118
,386,2023-10-27 10:28:26.99,-87,-277,-2024,25,11,38,-94,253,-347,-79
,387,2023-10-27 10:28:27.00,-94,-283,-2035,33,16,47,122,118,4,-120
,388,2023-10-27 10:28:27.01,-91,-272,-2034,35,17,50,-86,245,-331,-79
,389,2023-10-27 10:28:27.02,-93,-273,-2038,33,12,54,116,120,-4,-118
,390,2023-10-27 10:28:27.03,-114,-271,-2046,26,5,56,-82,231,-313,-74
,391,2023-10-27 10:28:27.04,-108,-278,-2044,24,-1,65,110,120,-10,-115
,392,2023-10-27 10:28:27.05,-97,-280,-2038,20,-3,74,-75,226,-301,-75
,393,2023-10-27 10:28:27.06,-103,-286,-2032,14,-3,92,101,131,-30,-116
,394,2023-10-27 10:28:27.07,-103,-300,-2038,16,-9,100,-70,223,-293,-76
,395,2023-10-27 10:28:27.08,-107,-270,-2041,13,-10,107,100,141,-41,-120
,396,2023-10-27 10:28:27.09,-103,-266,-2054,14,-11,108,-59,220,-279,-80
,397,2023-10-27 10:28:27.10,-106,-248,-2029,18,-13,108,96,151,-55,-123
,398,2023-10-27 10:28:27.11,-100,-262,-2046,28,-14,104,-54,215,-269,-80
,399,2023-10-27 10:28:27.12,-105,-246,-2024,34,-9,92,86,150,-64,-118
,400,2023-10-27 10:28:27.13,-114,-243,-2035,35,3,73,-52,203,-255,-75
,401,2023-10-27 10:28:27.14,-113,-237,-2050,37,-2,61,77,160,-83,-118
,402,2023-10-27 10:28:27.15,-129,-251,-2055,42,-10,47,-43,202,-245,-79
,403,2023-10-27 10:28:27.16,-119,-254,-2046,47,-19,34,72,169,-97,-120
,404,2023-10-27 10:28:27.17,-128,-260,-2050,48,-24,26,-37,194,-231,-78
,405,2023-10-27 10:28:27.18,-121,-258,-2051,48,-24,19,66,172,-106,-119
,406,2023-10-27 10:28:27.19,-120,-259,-2031,44,-22,19,-31,186,-217,-77
,407,2023-10-27 10:28:27.20,-138,-273,-2029,34,-23,15,57,177,-120,-117
,408,2023-10-27 10:28:27.21,-117,-271,-2028,28,-23,9,-25,179,-204,-77
,409,2023-10-27 10:28:27.22,-113,-271,-2030,27,-19,10,52,185,-133,-118
,410,2023-10-27 10:28:27.23,-120,-274,-2030,25,-15,14,-10,182,-192,-86
,411,2023-10-27 10:28:27.24,-117,-275,-2029,22,-12,10,47,190,-143,-118
,412,2023-10-27 10:28:27.25,-118,-276,-2029,24,-8,11,-10,167,-177,-78
,413,2023-10-27 10:28:27.26,-111,-269,-2029,24,-8,13,39,193,-154,-116
,414,2023-10-27 10:28:27.27,-125,-275,-2035,20,-4,15,-3,166,-169,-81
,415,2023-10-27 10:28:27.28,-127,-275,-2037,16,-5,12,38,200,-162,-119
,416,2023-10-27 10:28:27.29,-116,-270,-2036,13,-6,10,9,155,-146,-82
,417,2023-10-27 10:28:27.30,-122,-273,-2041,13,-5,11,32,211,-179,-121
,418,2023-10-27 10:28:27.31,-122,-280,-2034,5,-7,14,13,153,-140,-83
,419,2023-10-27 10:28:27.32,-118,-282,-2036,5,-8,13,10,207,-197,-108
,420,2023-10-27 10:28:27.33,-120,-276,-2039,6,-6,14,18,143,-125,-80
,421,2023-10-27 10:28:27.34,-130,-266,-2045,6,-4,16,14,226,-212,-120
,422,2023-10-27 10:28:27.35,-137,-273,-2035,9,-4,19,26,137,-111,-81
,423,2023-10-27 10:28:27.36,-124,-277,-2031,10,-3,20,2,232,-230,-117
,424,2023-10-27 10:28:27.37,-127,-281,-2037,10,-1,18,28,134,-106,-81
,425,2023-10-27 10:28:27.38,-125,-277,-2043,13,-3,23,-6,237,-243,-115
,426,2023-10-27 10:28:27.39,-134,-283,-2028,16,-6,24,34,122,-88,-78
,427,2023-10-27 10:28:27.40,-123,-279,-2027,15,1,26,-8,245,-253,-118
,428,2023-10-27 10:28:27.41,-117,-274,-2037,23,2,23,46,124,-78,-85
,429,2023-10-27 10:28:27.42,-121,-265,-2039,25,4,23,-12,254,-266,-121
,430,2023-10-27 10:28:27.43,-122,-268,-2046,23,6,20,48,119,-71,-83
,431,2023-10-27 10:28:27.44,-132,-271,-2038,19,4,19,-20,256,-276,-118
,432,2023-10-27 10:28:27.45,-135,-269,-2041,20,5,14,59,113,-54,-86
,433,2023-10-27 10:28:27.46,-119,-279,-2035,20,2,17,-26,265,-291,-119
,434,2023-10-27 10:28:27.47,-125,-277,-2031,21,0,18,65,111,-46,-88
,435,2023-10-27 10:28:27.48,-123,-288,-2036,20,2,21,-34,268,-302,-117
,436,2023-10-27 10:28:27.49,-120,-273,-2029,19,1,19,68,100,-32,-84
,437,2023-10-27 10:28:27.50,-112,-275,-2031,17,3,21,-43,273,-316,-115
,438,2023-10-27 10:28:27.51,-126,-283,-2028,17,1,25,72,90,-18,-81
,439,2023-10-27 10:28:27.52,-118,-283,-2029,20,-2,23,-47,272,-319,-112
,440,2023-10-27 10:28:27.53,-124,-285,-2022,21,-2,27,80,84,-4,-82
,441,2023-10-27 10:28:27.54,-110,-286,-2030,23,-6,29,-55,280,-335,-112
,442,2023-10-27 10:28:27.55,-124,-294,-2038,25,-7,34,85,83,2,-84
,443,2023-10-27 10:28:27.56,-130,-290,-2031,24,-3,34,-63,288,-351,-112
,444,2023-10-27 10:28:27.57,-112,-283,-2032,22,-8,35,93,76,17,-84
,445,2023-10-27 10:28:27.58,-122,-281,-2033,20,-9,36,-65,287,-352,-111
,446,2023-10-27 10:28:27.59,-112,-286,-2038,15,-11,36,99,71,28,-85
,447,2023-10-27 10:28:27.60,-132,-276,-2048,11,-12,38,-69,300,-369,-115
,448,2023-10-27 10:28:27.61,-118,-275,-2052,11,-16,41,106,77,29,-91
,449,2023-10-27 10:28:27.62,-111,-280,-2043,10,-18,42,-75,306,-381,-115
,450,2023-10-27 10:28:27.63,-117,-273,-2034,4,-23,43,112,69,43,-90
,451,2023-10-27 10:28:27.64,-123,-283,-2039,3,-26,39,-72,322,-394,-125
,452,2023-10-27 10:28:27.65,-116,-284,-2041,7,-28,37,120,66,54,-93
,453,2023-10-27 10:28:27.66,-105,-283,-2047,14,-27,39,-84,316,-400,-116
,454,2023-10-27 10:28:27.67,-123,-288,-2055,24,-25,40,123,53,70,-88
,455,2023-10-27 10:28:27.68,-124,-288,-2039,33,-18,41,-89,322,-411,-116
,456,2023-10-27 10:28:27.69,-128,-283,-2051,34,-14,46,128,60,68,-94
,457,2023-10-27 10:28:27.70,-135,-279,-2049,33,-13,49,-102,320,-422,-109
,458,2023-10-27 10:28:27.71,-135,-280,-2053,29,-14,51,132,56,76,-94
,459,2023-10-27 10:28:27.72,-139,-285,-2037,25,-14,51,-102,328,-430,-113
,460,2023-10-27 10:28:27.73,-128,-270,-2030,21,-16,49,138,48,90,-93
,461,2023-10-27 10:28:27.74,-138,-267,-2040,18,-12,47,-105,328,-433,-111
,462,2023-10-27 10:28:27.75,-146,-257,-2036,18,-8,41,142,43,99,-92
,463,2023-10-27 10:28:27.76,-138,-253,-1995,16,-9,32,-108,332,-440,-112
,464,2023-10-27 10:28:27.77,-138,-263,-2019,18,-1,26,146,40,106,-93
,465,2023-10-27 10:28:27.78,-136,-267,-2014,21,4,13,-111,330,-441,-109
,466,2023-10-27 10:28:27.79,-129,-261,-2013,24,4,2,155,36,119,-95
,467,2023-10-27 10:28:27.80,-136,-251,-2021,23,6,-5,-117,336,-453,-109
,468,2023-10-27 10:28:27.81,-131,-264,-2030,23,3,-9,156,37,119,-96
,469,2023-10-27 10:28:27.82,-135,-269,-2023,20,-1,-15,-121,346,-467,-112
,470,2023-10-27 10:28:27.83,-116,-256,-2026,15,-4,-22,163,34,129,-98
,471,2023-10-27 10:28:27.84,-133,-284,-2040,11,-2,-23,-122,347,-469,-112
,472,2023-10-27 10:28:27.85,-135,-282,-2043,4,-5,-20,167,29,138,-98
,473,2023-10-27 10:28:27.86,-138,-283,-2038,-2,-6,-19,-131,347,-478,-108
,474,2023-10-27 10:28:27.87,-134,-291,-2045,-4,-10,-14,167,30,137,-98
,475,2023-10-27 10:28:27.88,-129,-291,-2053,-4,-13,-6,-136,349,-485,-106
,476,2023-10-27 10:28:27.89,-128,-293,-2043,-5,-20,2,170,24,146,-97
,477,2023-10-27 10:28:27.90,-125,-292,-2049,-4,-23,10,-141,352,-493,-105
,478,2023-10-27 10:28:27.91,-130,-292,-2046,2,-23,16,171,19,152,-95
,479,2023-10-27 10:28:27.92,-134,-288,-2051,5,-26,23,-141,344,-485,-101
,480,2023-10-27 10:28:27.93,-123,-280,-2046,9,-31,26,177,16,161,-96
,481,2023-10-27 10:28:27.94,-151,-285,-2039,13,-30,31,-139,354,-493,-107
,482,2023-10-27 10:28:27.95,-138,-273,-2030,15,-33,31,185,25,160,-105
,483,2023-10-27 10:28:27.96,-149,-274,-2020,14,-31,35,-141,356,-497,-107
,484,2023-10-27 10:28:27.97,-139,-278,-2025,17,-33,36,190,15,175,-102
,485,2023-10-27 10:28:27.98,-146,-272,-2021,20,-29,37,-146,355,-501,-104
,486,2023-10-27 10:28:27.99,-139,-275,-2023,20,-26,38,189,17,172,-103
,487,2023-10-27 10:28:28.00,-162,-273,-2020,25,-27,38,-150,356,-506,-103
,488,2023-10-27 10:28:28.01,-156,-273,-2019,26,-25,36,190,16,174,-103
,489,2023-10-27 10:28:28.02,-149,-274,-2020,26,-22,32,-150,360,-510,-105
,490,2023-10-27 10:28:28.03,-152,-280,-2026,27,-23,30,192,16,176,-104
,491,2023-10-27 10:28:28.04,-149,-277,-2020,29,-21,25,-156,361,-517,-102
,492,2023-10-27 10:28:28.05,-157,-277,-2017,30,-15,23,201,27,174,-114
,493,2023-10-27 10:28:28.06,-151,-279,-2024,32,-11,23,-160,361,-521,-100
,494,2023-10-27 10:28:28.07,-156,-278,-2028,34,-8,20,187,16,171,-101
,495,2023-10-27 10:28:28.08,-153,-283,-2035,35,-8,20,-162,354,-516,-96
,496,2023-10-27 10:28:28.09,-159,-289,-2025,30,-7,22,189,14,175,-101
,497,2023-10-27 10:28:28.10,-154,-284,-2042,28,-6,23,-162,360,-522,-99
,498,2023-10-27 10:28:28.11,-155,-286,-2037,25,-2,25,189,14,175,-101
,499,2023-10-27 10:28:28.12,-156,-285,-2047,21,-1,24,-162,360,-522,-99
,500,2023-10-27 10:28:28.13,-159,-285,-2039,21,1,27,198,17,181,-107
,501,2023-10-27 10:28:28.14,-163,-282,-2038,16,-1,24,-159,360,-519,-100
,502,2023-10-27 10:28:28.15,-140,-283,-2031,14,-4,20,200,16,184,-108
,503,2023-10-27 10:28:28.16,-163,-278,-2027,12,-1,18,-164,359,-523,-97
,504,2023-10-27 10:28:28.17,-150,-278,-2029,13,-2,14,196,16,180,-106
,505,2023-10-27 10:28:28.18,-169,-275,-2032,15,0,13,-164,357,-521,-96
,506,2023-10-27 10:28:28.19,-173,-271,-2031,16,3,9,196,17,179,-106
,507,2023-10-27 10:28:28.20,-167,-280,-2034,16,-1,5,-168,354,-522,-93
,508,2023-10-27 10:28:28.21,-168,-284,-2033,14,-5,3,195,18,177,-106
,509,2023-10-27 10:28:28.22,-157,-274,-2023,12,-4,-3,-166,353,-519,-93
,510,2023-10-27 10:28:28.23,-155,-277,-2022,8,-1,-7,203,18,185,-110
,511,2023-10-27 10:28:28.24,-146,-272,-2015,5,12,-10,-161,352,-513,-95
,512,2023-10-27 10:28:28.25,-154,-284,-2029,4,23,-11,202,16,186,-109
,513,2023-10-27 10:28:28.26,-152,-287,-2023,-1,29,-15,-162,348,-510,-93
,514,2023-10-27 10:28:28.27,-137,-293,-2029,1,33,-16,197,22,175,-109
,515,2023-10-27 10:28:28.28,-151,-289,-2023,2,35,-9,-163,353,-516,-95
,516,2023-10-27 10:28:28.29,-142,-299,-2028,6,34,-4,195,29,166,-112
,517,2023-10-27 10:28:28.30,-141,-305,-2016,10,33,1,-165,349,-514,-92
,518,2023-10-27 10:28:28.31,-140,-298,-2029,13,32,10,193,30,163,-111
,519,2023-10-27 10:28:28.32,-125,-286,-2026,10,27,17,-163,347,-510,-92
,520,2023-10-27 10:28:28.33,-137,-286,-2022,6,25,27,189,32,157,-110
,521,2023-10-27 10:28:28.34,-135,-285,-2041,0,19,31,-161,343,-504,-91
,522,2023-10-27 10:28:28.35,-138,-284,-2034,-4,16,41,189,34,155,-111
,523,2023-10-27 10:28:28.36,-141,-282,-2036,-7,8,49,-161,339,-500,-89
,524,2023-10-27 10:28:28.37,-148,-291,-2044,-8,-2,52,187,37,150,-112
,525,2023-10-27 10:28:28.38,-143,-273,-2049,-6,-7,56,-159,336,-495,-88
,526,2023-10-27 10:28:28.39,-147,-275,-2050,-5,-9,55,186,37,149,-111
,527,2023-10-27 10:28:28.40,-154,-267,-2041,0,-7,54,-158,329,-487,-85
,528,2023-10-27 10:28:28.41,-152,-260,-2045,2,-8,48,187,40,147,-113
,529,2023-10-27 10:28:28.42,-144,-258,-2043,4,-8,43,-152,326,-478,-87
,530,2023-10-27 10:28:28.43,-156,-260,-2039,6,-11,33,181,42,139,-111
,531,2023-10-27 10:28:28.44,-144,-268,-2032,10,-8,27,-153,319,-472,-83
,532,2023-10-27 10:28:28.45,-160,-278,-2031,16,-8,19,177,50,127,-113
,533,2023-10-27 10:28:28.46,-154,-275,-2032,20,-10,16,-140,329,-469,-94
,534,2023-10-27 10:28:28.47,-150,-282,-2027,26,-9,13,177,53,124,-115
,535,2023-10-27 10:28:28.48,-153,-280,-2022,28,-5,12,-143,312,-455,-84
,536,2023-10-27 10:28:28.49,-138,-276,-2023,27,1,10,172,46,126,-109
,537,2023-10-27 10:28:28.50,-142,-284,-2014,26,5,6,-141,303,-444,-81
,538,2023-10-27 10:28:28.51,-154,-289,-2027,22,10,6,172,57,115,-114
,539,2023-10-27 10:28:28.52,-140,-289,-2026,20,9,8,-140,293,-433,-76
,540,2023-10-27 10:28:28.53,-156,-293,-2028,21,9,11,171,65,106,-118
,541,2023-10-27 10:28:28.54,-144,-304,-2033,13,3,21,-130,303,-433,-86
,542,2023-10-27 10:28:28.55,-144,-299,-2031,16,-2,23,156,59,97,-107
,543,2023-10-27 10:28:28.56,-150,-294,-2030,14,-2,26,-128,291,-419,-81
,544,2023-10-27 10:28:28.57,-143,-289,-2029,13,-6,28,157,72,85,-114
,545,2023-10-27 10:28:28.58,-145,-291,-2029,9,-5,30,-127,282,-409,-77
,546,2023-10-27 10:28:28.59,-145,-289,-2032,9,-5,31,152,77,75,-114
,547,2023-10-27 10:28:28.60,-145,-293,-2028,6,-1,31,-124,278,-402,-77
,548,2023-10-27 10:28:28.61,-160,-287,-2030,3,-1,30,149,84,65,-116
,549,2023-10-27 10:28:28.62,-146,-281,-2032,-2,2,29,-114,272,-386,-79
,550,2023-10-27 10:28:28.63,-158,-281,-2032,-3,5,27,146,86,60,-116
,551,2023-10-27 10:28:28.64,-153,-280,-2027,-6,7,24,-108,261,-369,-76
,552,2023-10-27 10:28:28.65,-155,-287,-2032,-5,7,22,138,94,44,-116
,553,2023-10-27 10:28:28.66,-157,-284,-2020,-5,8,24,-104,261,-365,-78
,554,2023-10-27 10:28:28.67,-148,-287,-2027,-6,10,26,133,106,27,-119
,555,2023-10-27 10:28:28.68,-149,-287,-2023,-4,9,28,-104,259,-363,-77
,556,2023-10-27 10:28:28.69,-152,-288,-2032,-2,10,34,128,107,21,-117
,557,2023-10-27 10:28:28.70,-138,-283,-2032,1,11,32,-96,248,-344,-76
,558,2023-10-27 10:28:28.71,-149,-280,-2030,2,12,33,125,116,9,-120
,559,2023-10-27 10:28:28.72,-147,-273,-2034,3,16,35,-88,251,-339,-81
,560,2023-10-27 10:28:28.73,-144,-265,-2042,1,15,34,119,124,-5,-121
,561,2023-10-27 10:28:28.74,-153,-265,-2043,-3,12,31,-82,241,-323,-79
,562,2023-10-27 10:28:28.75,-144,-269,-2048,-5,8,28,114,130,-16,-122
,563,2023-10-27 10:28:28.76,-158,-264,-2044,-9,3,23,-73,234,-307,-80
,564,2023-10-27 10:28:28.77,-147,-265,-2037,-12,-2,21,107,136,-29,-121
,565,2023-10-27 10:28:28.78,-147,-269,-2040,-10,-3,19,-70,225,-295,-77
,566,2023-10-27 10:28:28.79,-140,-273,-2033,-9,-4,18,98,140,-42,-119
,567,2023-10-27 10:28:28.80,-145,-270,-2024,-6,-4,20,-66,221,-287,-77
,568,2023-10-27 10:28:28.81,-154,-277,-2024,-5,-3,18,95,150,-55,-122
,569,2023-10-27 10:28:28.82,-157,-267,-2022,0,-2,19,-51,216,-267,-82
,570,2023-10-27 10:28:28.83,-143,-276,-2032,3,0,22,90,160,-70,-125
,571,2023-10-27 10:28:28.84,-150,-268,-2030,2,0,20,-47,207,-254,-80
,572,2023-10-27 10:28:28.85,-142,-271,-2035,2,1,22,81,158,-77,-119
,573,2023-10-27 10:28:28.86,-144,-263,-2036,2,4,23,-42,196,-238,-77
,574,2023-10-27 10:28:28.87,-142,-264,-2031,2,5,23,79,180,-101,-129
,575,2023-10-27 10:28:28.88,-151,-265,-2038,1,7,20,-38,199,-237,-80
,576,2023-10-27 10:28:28.89,-135,-264,-2041,-1,9,18,64,177,-113,-120
,577,2023-10-27 10:28:28.90,-154,-265,-2042,-1,6,17,-31,181,-212,-75
,578,2023-10-27 10:28:28.91,-160,-266,-2036,1,5,14,58,178,-120,-118
,579,2023-10-27 10:28:28.92,-150,-264,-2042,2,3,19,-22,175,-197,-76
,580,2023-10-27 10:28:28.93,-152,-261,-2036,8,-1,18,51,188,-137,-119
,581,2023-10-27 10:28:28.94,-142,-266,-2034,10,-3,16,-18,175,-193,-78
,582,2023-10-27 10:28:28.95,-157,-259,-2035,9,-5,20,49,199,-150,-124
,583,2023-10-27 10:28:28.96,-156,-265,-2040,11,-11,20,-14,159,-173,-72
,584,2023-10-27 10:28:28.97,-147,-258,-2033,8,-10,14,47,207,-160,-127
,585,2023-10-27 10:28:28.98,-148,-265,-2037,10,-4,9,5,165,-160,-85
,586,2023-10-27 10:28:28.99,-159,-259,-2049,16,3,4,42,214,-172,-128
,587,2023-10-27 10:28:29.00,-157,-261,-2053,18,7,1,13,163,-150,-88
,588,2023-10-27 10:28:29.01,-146,-267,-2058,22,8,-2,32,222,-190,-127
,589,2023-10-27 10:28:29.02,-147,-266,-2043,21,1,-7,14,154,-140,-84
,590,2023-10-27 10:28:29.03,-156,-266,-2045,22,-5,-7,20,220,-200,-120
,591,2023-10-27 10:28:29.04,-143,-275,-2030,17,-9,-8,19,138,-119,-78
,592,2023-10-27 10:28:29.05,-158,-269,-2026,19,-9,-10,16,222,-206,-119
,593,2023-10-27 10:28:29.06,-135,-275,-2009,17,-8,-14,30,134,-104,-82
,594,2023-10-27 10:28:29.07,-141,-275,-2007,19,-5,-15,12,236,-224,-124
,595,2023-10-27 10:28:29.08,-138,-278,-2005,18,-4,-13,38,136,-98,-87
,596,2023-10-27 10:28:29.09,-140,-282,-2014,18,1,-10,3,245,-242,-124
,597,2023-10-27 10:28:29.10,-134,-289,-2015,17,4,-6,42,131,-89,-86
,598,2023-10-27 10:28:29.11,-145,-296,-2025,16,4,5,-7,252,-259,-122
,599,2023-10-27 10:28:29.12,-147,-298,-2029,16,1,16,50,123,-73,-86
,600,2023-10-27 10:28:29.13,-152,-303,-2030,13,-1,32,-9,255,-264,-123
,601,2023-10-27 10:28:29.14,-158,-299,-2028,11,-5,41,60,113,-53,-86
,602,2023-10-27 10:28:29.15,-153,-290,-2036,10,-5,52,-14,256,-270,-121
,603,2023-10-27 10:28:29.16,-147,-283,-2043,10,-5,59,66,106,-40,-86
,604,2023-10-27 10:28:29.17,-152,-274,-2041,7,0,62,-18,263,-281,-122
,605,2023-10-27 10:28:29.18,-171,-267,-2034,6,7,65,70,106,-36,-88
,606,2023-10-27 10:28:29.19,-169,-260,-2038,6,9,62,-26,272,-298,-123
,607,2023-10-27 10:28:29.20,-165,-267,-2043,11,6,52,82,103,-21,-92
,608,2023-10-27 10:28:29.21,-160,-257,-2047,15,-1,43,-33,277,-310,-122
,609,2023-10-27 10:28:29.22,-159,-265,-2045,20,-7,31,85,96,-11,-90
,610,2023-10-27 10:28:29.23,-161,-263,-2035,27,-4,23,-40,284,-324,-122
,611,2023-10-27 10:28:29.24,-154,-257,-2040,31,1,16,94,91,3,-92
,612,2023-10-27 10:28:29.25,-164,-258,-2038,28,4,3,-46,288,-334,-121
,613,2023-10-27 10:28:29.26,-160,-259,-2029,25,3,-7,96,81,15,-88
,614,2023-10-27 10:28:29.27,-154,-265,-2029,22,0,-15,-54,284,-338,-115
,615,2023-10-27 10:28:29.28,-148,-273,-2028,15,1,-19,108,83,25,-95
,616,2023-10-27 10:28:29.29,-165,-282,-2028,16,2,-20,-62,296,-358,-117
,617,2023-10-27 10:28:29.30,-153,-283,-2027,17,0,-21,106,74,32,-90
,618,2023-10-27 10:28:29.31,-158,-282,-2027,17,3,-22,-64,296,-360,-116
,619,2023-10-27 10:28:29.32,-144,-280,-2022,18,3,-19,117,65,52,-91
,620,2023-10-27 10:28:29.33,-151,-280,-2025,14,6,-21,-71,307,-378,-118
,621,2023-10-27 10:28:29.34,-144,-275,-2032,11,9,-18,120,65,55,-92
,622,2023-10-27 10:28:29.35,-156,-280,-2032,9,10,-16,-73,317,-390,-122
,623,2023-10-27 10:28:29.36,-148,-281,-2035,4,7,-15,127,64,63,-95
,624,2023-10-27 10:28:29.37,-159,-286,-2038,3,5,-14,-89,304,-393,-107
,625,2023-10-27 10:28:29.38,-154,-289,-2038,4,1,-8,132,57,75,-94
,626,2023-10-27 10:28:29.39,-150,-288,-2035,3,-1,-1,-86,316,-402,-115
,627,2023-10-27 10:28:29.40,-154,-284,-2040,2,-5,3,139,49,90,-94
,628,2023-10-27 10:28:29.41,-161,-276,-2034,3,-4,5,-89,320,-409,-115
,629,2023-10-27 10:28:29.42,-154,-280,-2031,3,-4,9,144,47,97,-95
,630,2023-10-27 10:28:29.43,-154,-281,-2029,4,-7,10,-94,327,-421,-116
,631,2023-10-27 10:28:29.44,-169,-283,-2024,4,-7,12,147,44,103,-95
,632,2023-10-27 10:28:29.45,-151,-281,-2030,8,-8,17,-99,329,-428,-115
,633,2023-10-27 10:28:29.46,-156,-282,-2020,12,-7,19,156,36,120,-96
,634,2023-10-27 10:28:29.47,-155,-278,-2024,16,-3,25,-99,327,-426,-114
,635,2023-10-27 10:28:29.48,-152,-278,-2034,20,-6,26,166,36,130,-101
,636,2023-10-27 10:28:29.49,-154,-277,-2028,21,-6,29,-98,337,-435,-119
,637,2023-10-27 10:28:29.50,-172,-285,-2025,21,-6,33,164,38,126,-101
,638,2023-10-27 10:28:29.51,-164,-292,-2031,22,-6,39,-119,341,-460,-111
,639,2023-10-27 10:28:29.52,-161,-282,-2031,24,-6,41,161,32,129,-96
,640,2023-10-27 10:28:29.53,-155,-285,-2033,24,-4,43,-120,339,-459,-109
,641,2023-10-27 10:28:29.54,-158,-284,-2041,27,-3,48,166,29,137,-97
,642,2023-10-27 10:28:29.55,-165,-275,-2033,28,-4,45,-122,350,-472,-114
,643,2023-10-27 10:28:29.56,-158,-279,-2042,25,-3,43,170,30,140,-100
,644,2023-10-27 10:28:29.57,-163,-274,-2033,22,-2,39,-125,351,-476,-113
,645,2023-10-27 10:28:29.58,-164,-272,-2042,20,-4,38,180,26,154,-103
,646,2023-10-27 10:28:29.59,-157,-264,-2045,18,-5,33,-126,348,-474,-111
,647,2023-10-27 10:28:29.60,-157,-273,-2044,17,-6,28,180,24,156,-102
,648,2023-10-27 10:28:29.61,-170,-269,-2035,13,-6,25,-137,353,-490,-108
,649,2023-10-27 10:28:29.62,-154,-272,-2020,13,-1,22,179,26,153,-102
,650,2023-10-27 10:28:29.63,-159,-269,-2031,14,2,21,-139,359,-498,-110
,651,2023-10-27 10:28:29.64,-175,-277,-2025,14,5,14,184,25,159,-104
,652,2023-10-27 10:28:29.65,-147,-272,-2026,16,6,10,-139,361,-500,-111
,653,2023-10-27 10:28:29.66,-147,-278,-2028,19,6,6,186,22,164,-104
,654,2023-10-27 10:28:29.67,-163,-278,-2018,21,8,4,-146,358,-504,-106
,655,2023-10-27 10:28:29.68,-156,-276,-2023,24,8,4,188,21,167,-104
,656,2023-10-27 10:28:29.69,-153,-276,-2023,21,8,2,-142,371,-513,-114
,657,2023-10-27 10:28:29.70,-143,-270,-2022,17,4,-2,195,17,178,-106
,658,2023-10-27 10:28:29.71,-153,-272,-2016,11,7,-5,-148,354,-502,-103
,659,2023-10-27 10:28:29.72,-146,-277,-2023,7,12,-9,200,11,189,-105
,660,2023-10-27 10:28:29.73,-143,-282,-2034,7,17,-7,-149,358,-507,-104
,661,2023-10-27 10:28:29.74,-143,-279,-2044,11,19,-11,198,17,181,-107
,662,2023-10-27 10:28:29.75,-147,-281,-2052,13,13,-10,-156,358,-514,-101
,663,2023-10-27 10:28:29.76,-146,-281,-2050,14,7,-12,198,16,182,-107
,664,2023-10-27 10:28:29.77,-145,-283,-2056,12,-2,-12,-154,360,-514,-103
,665,2023-10-27 10:28:29.78,-134,-283,-2048,9,-6,-13,199,16,183,-107
,666,2023-10-27 10:28:29.79,-135,-287,-2038,8,-10,-9,-159,360,-519,-100
,667,2023-10-27 10:28:29.80,-126,-282,-2044,3,-13,-3,198,13,185,-105
,668,2023-10-27 10:28:29.81,-129,-276,-2033,3,-17,1,-161,356,-517,-97
,669,2023-10-27 10:28:29.82,-146,-285,-2033,4,-15,7,201,12,189,-106
,670,2023-10-27 10:28:29.83,-149,-282,-2040,9,-16,10,-157,362,-519,-102
,671,2023-10-27 10:28:29.84,-143,-281,-2038,15,-20,13,205,17,188,-111
,672,2023-10-27 10:28:29.85,-162,-282,-2043,19,-24,16,-157,365,-522,-104
,673,2023-10-27 10:28:29.86,-160,-282,-2036,20,-28,16,204,20,184,-112
,674,2023-10-27 10:28:29.87,-158,-277,-2033,19,-27,16,-159,363,-522,-102
,675,2023-10-27 10:28:29.88,-168,-269,-2026,17,-19,13,201,17,184,-109
,676,2023-10-27 10:28:29.89,-149,-269,-2022,13,-13,11,-161,355,-516,-97
,677,2023-10-27 10:28:29.90,-154,-266,-2021,10,-5,3,203,16,187,-109
,678,2023-10-27 10:28:29.91,-158,-279,-2017,7,2,0,-163,353,-516,-95
,679,2023-10-27 10:28:29.92,-162,-276,-2014,7,5,-5,203,16,187,-109
,680,2023-10-27 10:28:29.93,-156,-276,-2014,9,7,-8,-164,352,-516,-94
,681,2023-10-27 10:28:29.94,-155,-278,-2026,12,8,-13,202,16,186,-109
,682,2023-10-27 10:28:29.95,-154,-270,-2026,11,7,-18,-160,352,-512,-96
,683,2023-10-27 10:28:29.96,-153,-277,-2024,7,12,-26,202,23,179,-112
,684,2023-10-27 10:28:29.97,-157,-275,-2030,0,7,-28,-160,351,-511,-95
,685,2023-10-27 10:28:29.98,-147,-268,-2030,-6,7,-32,199,21,178,-110
,686,2023-10-27 10:28:29.99,-146,-272,-2019,-15,6,-37,-159,346,-505,-93
,687,2023-10-27 10:28:30.00,-149,-276,-2029,-27,13,-46,198,24,174,-111
,688,2023-10-27 10:28:30.01,-158,-278,-2055,-33,6,-49,-159,342,-501,-91
,689,2023-10-27 10:28:30.02,-145,-279,-2064,-26,-5,-52,200,32,168,-116
,690,2023-10-27 10:28:30.03,-158,-286,-2061,-25,-13,-48,-158,345,-503,-93
,691,2023-10-27 10:28:30.04,-173,-289,-2067,-26,-10,-46,196,28,168,-112
,692,2023-10-27 10:28:30.05,-164,-300,-2064,-25,-20,-43,-155,334,-489,-89
,693,2023-10-27 10:28:30.06,-166,-288,-2055,-18,-18,-36,197,28,169,-112
,694,2023-10-27 10:28:30.07,-167,-281,-2043,-19,-21,-33,-148,333,-481,-92
,695,2023-10-27 10:28:30.08,-168,-278,-2051,-24,-19,-32,196,38,158,-117
,696,2023-10-27 10:28:30.09,-179,-272,-2048,-25,-18,-35,-153,331,-484,-89
,697,2023-10-27 10:28:30.10,-175,-264,-2044,-26,-18,-37,192,42,150,-117
,698,2023-10-27 10:28:30.11,-189,-268,-2030,-27,-22,-42,-144,323,-467,-89
,699,2023-10-27 10:28:30.12,-175,-267,-2028,-19,-23,-48,195,38,157,-116
,700,2023-10-27 10:28:30.13,-169,-263,-2015,-20,-24,-56,-140,324,-464,-92
,701,2023-10-27 10:28:30.14,-162,-253,-1997,-19,-20,-61,192,46,146,-119
,702,2023-10-27 10:28:30.15,-178,-266,-2006,-15,-15,-66,-138,322,-460,-92
,703,2023-10-27 10:28:30.16,-183,-258,-2001,-4,-23,-74,182,45,137,-113
,704,2023-10-27 10:28:30.17,-180,-259,-2001,0,-27,-80,-138,315,-453,-88
,705,2023-10-27 10:28:30.18,-179,-271,-1998,1,-23,-79,179,49,130,-114
,706,2023-10-27 10:28:30.19,-180,-268,-1997,-2,-13,-80,-137,306,-443,-84
,707,2023-10-27 10:28:30.20,-173,-279,-2009,-10,3,-78,180,58,122,-119
,708,2023-10-27 10:28:30.21,-168,-281,-2000,-17,17,-71,-130,305,-435,-87
,709,2023-10-27 10:28:30.22,-169,-271,-2009,-27,29,-69,178,67,111,-122
,710,2023-10-27 10:28:30.23,-174,-289,-2019,-38,45,-66,-128,307,-435,-89
,711,2023-10-27 10:28:30.24,-160,-277,-2036,-45,58,-59,173,66,107,-119
,712,2023-10-27 10:28:30.25,-153,-279,-2031,-42,53,-51,-124,291,-415,-83
,713,2023-10-27 10:28:30.26,-146,-283,-2050,-41,50,-36,168,70,98,-119
,714,2023-10-27 10:28:30.27,-148,-276,-2049,-42,45,-30,-122,296,-418,-87
,715,2023-10-27 10:28:30.28,-164,-276,-2044,-42,47,-20,162,80,82,-121
,716,2023-10-27 10:28:30.29,-161,-269,-2056,-40,27,-15,-118,287,-405,-84
,717,2023-10-27 10:28:30.30,-167,-261,-2053,-35,22,-6,158,82,76,-120
,718,2023-10-27 10:28:30.31,-167,-261,-2048,-27,9,0,-113,275,-388,-81
,719,2023-10-27 10:28:30.32,-169,-250,-2042,-26,1,3,155,88,67,-121
,720,2023-10-27 10:28:30.33,-160,-252,-2034,-28,-1,3,-105,278,-383,-86
,721,2023-10-27 10:28:30.34,-151,-243,-2021,-26,-2,3,154,95,59,-124
,722,2023-10-27 10:28:30.35,-149,-239,-2031,-22,2,5,-99,269,-368,-85
,723,2023-10-27 10:28:30.36,-157,-228,-2030,-20,4,-1,144,102,42,-123
,724,2023-10-27 10:28:30.37,-158,-233,-2030,-19,6,-10,-96,264,-360,-84
,725,2023-10-27 10:28:30.38,-158,-229,-2017,-19,13,-23,140,104,36,-122
,726,2023-10-27 10:28:30.39,-152,-232,-2029,-21,19,-36,-90,254,-344,-82
,727,2023-10-27 10:28:30.40,-137,-239,-2035,-16,18,-47,135,111,24,-123
,728,2023-10-27 10:28:30.41,-134,-242,-2041,-17,18,-57,-86,248,-334,-81
,729,2023-10-27 10:28:30.42,-158,-232,-2059,-14,21,-61,132,112,20,-122
,730,2023-10-27 10:28:30.43,-158,-243,-2040,-8,15,-62,-77,236,-313,-79
,731,2023-10-27 10:28:30.44,-148,-254,-2047,-4,8,-62,127,120,7,-123
,732,2023-10-27 10:28:30.45,-132,-260,-2053,-4,14,-59,-68,241,-309,-86
,733,2023-10-27 10:28:30.46,-151,-266,-2033,-8,2,-56,119,136,-17,-127
,734,2023-10-27 10:28:30.47,-138,-262,-2027,-12,13,-56,-66,234,-300,-84
,735,2023-10-27 10:28:30.48,-142,-271,-2027,-9,22,-59,116,133,-17,-124
,736,2023-10-27 10:28:30.49,-146,-270,-2023,-5,23,-56,-56,220,-276,-82
,737,2023-10-27 10:28:30.50,-137,-266,-2015,3,22,-51,107,138,-31,-122
,738,2023-10-27 10:28:30.51,-167,-249,-2044,4,22,-51,-56,214,-270,-79
,739,2023-10-27 10:28:30.52,-164,-243,-2054,6,16,-54,96,146,-50,-121
,740,2023-10-27 10:28:30.53,-149,-239,-2051,6,16,-62,-51,208,-259,-78
,741,2023-10-27 10:28:30.54,-128,-243,-2030,2,10,-72,98,156,-58,-127
,742,2023-10-27 10:28:30.55,-131,-209,-2010,-4,20,-83,-37,202,-239,-82
,743,2023-10-27 10:28:30.56,-132,-226,-2008,-18,41,-108,89,153,-64,-121
,744,2023-10-27 10:28:30.57,-134,-219,-2000,-33,66,-133,-36,186,-222,-75
,745,2023-10-27 10:28:30.58,-142,-243,-2041,-43,79,-155,77,168,-91,-122
,746,2023-10-27 10:28:30.59,-140,-222,-2033,-38,70,-164,-26,195,-221,-84
,747,2023-10-27 10:28:30.60,-126,-250,-2022,-21,52,-172,70,181,-111,-125
,748,2023-10-27 10:28:30.61,-141,-253,-2027,-16,45,-177,-19,185,-204,-83
,749,2023-10-27 10:28:30.62,-113,-275,-2042,-25,42,-192,62,179,-117,-120
,750,2023-10-27 10:28:30.63,-113,-271,-2028,-34,50,-190,-15,174,-189,-79
,751,2023-10-27 10:28:30.64,-110,-278,-2036,-42,49,-194,53,188,-135,-120
,752,2023-10-27 10:28:30.65,-110,-254,-2036,-51,64,-195,-10,172,-182,-81
,753,2023-10-27 10:28:30.66,-123,-263,-2030,-47,39,-184,47,190,-143,-118
,754,2023-10-27 10:28:30.67,-141,-248,-2027,-43,8,-180,-1,164,-165,-81
,755,2023-10-27 10:28:30.68,-153,-252,-2031,-50,-16,-176,42,193,-151,-117
,756,2023-10-27 10:28:30.69,-158,-258,-2030,-62,-38,-173,6,155,-149,-80
,757,2023-10-27 10:28:30.70,-164,-262,-2034,-74,-56,-168,29,208,-179,-118
,758,2023-10-27 10:28:30.71,-170,-260,-2028,-86,-66,-162,12,156,-144,-84
,759,2023-10-27 10:28:30.72,-163,-252,-2024,-97,-76,-157,26,214,-188,-120
,760,2023-10-27 10:28:30.73,-147,-243,-2035,-103,-74,-160,19,144,-125,-81
,761,2023-10-27 10:28:30.74,-154,-235,-2032,-110,-70,-161,22,216,-194,-119
,762,2023-10-27 10:28:30.75,-148,-214,-2046,-114,-64,-168,28,140,-112,-84
,763,2023-10-27 10:28:30.76,-157,-210,-2049,-115,-56,-171,14,223,-209,-118
,764,2023-10-27 10:28:30.77,-166,-207,-2055,-121,-51,-175,35,131,-96,-83
,765,2023-10-27 10:28:30.78,-162,-193,-2066,-130,-42,-181,9,224,-215,-116
,766,2023-10-27 10:28:30.79,-140,-203,-2066,-140,-33,-188,45,123,-78,-84
,767,2023-10-27 10:28:30.80,-156,-204,-2065,-150,-26,-195,3,234,-231,-118
,768,2023-10-27 10:28:30.81,-145,-204,-2063,-149,-20,-201,52,122,-70,-87
,769,2023-10-27 10:28:30.82,-132,-200,-2059,-139,-9,-206,-4,254,-258,-125
,770,2023-10-27 10:28:30.83,-110,-207,-2065,-127,4,-209,60,125,-65,-92
,771,2023-10-27 10:28:30.84,-105,-198,-2059,-114,24,-210,-4,253,-257,-124
,772,2023-10-27 10:28:30.85,-91,-195,-2048,-101,45,-212,66,108,-42,-87
,773,2023-10-27 10:28:30.86,-75,-195,-2030,-98,75,-216,-21,253,-274,-116
,774,2023-10-27 10:28:30.87,-68,-177,-1980,-96,99,-216,64,106,-42,-85
,775,2023-10-27 10:28:30.88,-59,-192,-1989,-102,129,-222,-30,263,-293,-116
,776,2023-10-27 10:28:30.89,-69,-184,-2002,-98,151,-230,77,100,-23,-88
,777,2023-10-27 10:28:30.90,-45,-220,-2027,-77,146,-236,-34,268,-302,-117
,778,2023-10-27 10:28:30.91,-36,-200,-2026,-45,139,-232,80,94,-14,-87
,779,2023-10-27 10:28:30.92,-50,-202,-2033,-18,138,-225,-40,265,-305,-112
,780,2023-10-27 10:28:30.93,-33,-188,-2058,-9,159,-229,90,89,1,-89
,781,2023-10-27 10:28:30.94,-35,-194,-2033,-13,162,-229,-44,283,-327,-119
,782,2023-10-27 10:28:30.95,-45,-204,-2069,-14,172,-230,98,93,5,-95
,783,2023-10-27 10:28:30.96,-38,-206,-2031,-13,134,-225,-51,288,-339,-118
,784,2023-10-27 10:28:30.97,-65,-206,-2016,-11,120,-217,99,82,17,-90
,785,2023-10-27 10:28:30.98,-86,-240,-2048,-9,95,-205,-63,284,-347,-110
,786,2023-10-27 10:28:30.99,-77,-233,-2049,1,53,-192,104,75,29,-89
,787,2023-10-27 10:28:31.00,-81,-234,-2062,4,17,-172,-62,292,-354,-115
,788,2023-10-27 10:28:31.01,-87,-247,-2082,-7,-18,-153,107,64,43,-85
,789,2023-10-27 10:28:31.02,-88,-230,-2096,-17,-35,-131,-68,304,-372,-118
,790,2023-10-27 10:28:31.03,-95,-238,-2118,-36,-42,-104,118,71,47,-94
,791,2023-10-27 10:28:31.04,-114,-218,-2095,-46,-79,-79,-68,304,-372,-118
,792,2023-10-27 10:28:31.05,-124,-186,-2101,-54,-99,-56,130,59,71,-94
,793,2023-10-27 10:28:31.06,-130,-157,-2108,-80,-107,-41,-73,302,-375,-114
,794,2023-10-27 10:28:31.07,-145,-146,-2117,-109,-111,-35,136,56,80,-96
,795,2023-10-27 10:28:31.08,-165,-130,-2148,-144,-119,-32,-78,317,-395,-119
,796,2023-10-27 10:28:31.09,-151,-150,-2133,-173,-135,-26,143,61,82,-102
,797,2023-10-27 10:28:31.10,-163,-145,-2128,-189,-152,-29,-83,324,-407,-120
,798,2023-10-27 10:28:31.11,-180,-144,-2094,-208,-165,-26,146,52,94,-99
,799,2023-10-27 10:28:31.12,-165,-173,-2053,-211,-180,-18,-87,322,-409,-117
,800,2023-10-27 10:28:31.13,-143,-169,-2016,-220,-170,-9,149,44,105,-96
,801,2023-10-27 10:28:31.14,-149,-184,-1993,-225,-156,-1,-97,317,-414,-110
,802,2023-10-27 10:28:31.15,-154,-183,-2002,-217,-139,13,151,36,115,-93
,803,2023-10-27 10:28:31.16,-141,-178,-2009,-198,-109,24,-100,326,-426,-113
,804,2023-10-27 10:28:31.17,-137,-178,-1997,-180,-92,39,158,42,116,-100
,805,2023-10-27 10:28:31.18,-118,-166,-1992,-155,-65,54,-101,331,-432,-115
,806,2023-10-27 10:28:31.19,-123,-175,-1990,-131,-40,65,164,36,128,-100
,807,2023-10-27 10:28:31.20,-130,-175,-2020,-103,-22,76,-110,332,-442,-111
,808,2023-10-27 10:28:31.21,-137,-159,-2037,-73,-13,83,167,31,136,-99
,809,2023-10-27 10:28:31.22,-138,-147,-2049,-48,-4,93,-110,336,-446,-113
,810,2023-10-27 10:28:31.23,-139,-146,-2054,-36,9,104,171,29,142,-100
,811,2023-10-27 10:28:31.24,-132,-139,-2037,-27,13,114,-118,339,-457,-110
,812,2023-10-27 10:28:31.25,-130,-134,-2034,-18,15,120,173,28,145,-100
,813,2023-10-27 10:28:31.26,-121,-119,-2027,-8,5,124,-123,346,-469,-111
,814,2023-10-27 10:28:31.27,-118,-123,-2028,-6,5,124,176,27,149,-101
,815,2023-10-27 10:28:31.28,-112,-116,-2029,1,6,129,-130,346,-476,-108
,816,2023-10-27 10:28:31.29,-112,-120,-2031,2,15,132,176,26,150,-101
,817,2023-10-27 10:28:31.30,-109,-123,-2031,9,24,138,-130,353,-483,-111
,818,2023-10-27 10:28:31.31,-107,-121,-2028,14,30,139,181,26,155,-103
,819,2023-10-27 10:28:31.32,-100,-121,-2045,17,35,141,-135,352,-487,-108
,820,2023-10-27 10:28:31.33,-101,-109,-2046,13,38,138,173,10,163,-91
,821,2023-10-27 10:28:31.34,-117,-111,-2047,13,51,133,-141,348,-489,-103
,822,2023-10-27 10:28:31.35,-102,-129,-2042,18,55,130,185,13,172,-99
,823,2023-10-27 10:28:31.36,-106,-125,-2053,20,58,127,-134,347,-481,-106
,824,2023-10-27 10:28:31.37,-112,-113,-2066,23,49,122,189,10,179,-99
,825,2023-10-27 10:28:31.38,-135,-135,-2066,21,47,120,-142,351,-493,-104
,826,2023-10-27 10:28:31.39,-137,-136,-2060,26,26,118,194,13,181,-103
,827,2023-10-27 10:28:31.40,-133,-151,-2080,31,3,123,-142,353,-495,-105
,828,2023-10-27 10:28:31.41,-144,-152,-2076,33,-24,130,198,16,182,-107
,829,2023-10-27 10:28:31.42,-135,-135,-2062,29,-47,133,-151,352,-503,-100
,830,2023-10-27 10:28:31.43,-132,-134,-2037,19,-56,137,201,17,184,-109
,831,2023-10-27 10:28:31.44,-136,-136,-2036,10,-52,136,-145,356,-501,-105
,832,2023-10-27 10:28:31.45,-139,-127,-2048,8,-51,138,202,6,196,-104
,833,2023-10-27 10:28:31.46,-130,-149,-2050,8,-52,135,-151,352,-503,-100
,834,2023-10-27 10:28:31.47,-161,-121,-2061,8,-57,132,201,7,194,-104
,835,2023-10-27 10:28:31.48,-159,-132,-2069,5,-48,129,-154,353,-507,-99
,836,2023-10-27 10:28:31.49,-174,-135,-2074,10,-56,132,198,11,187,-104
,837,2023-10-27 10:28:31.50,-184,-123,-2060,6,-62,136,-156,360,-516,-102
,838,2023-10-27 10:28:31.51,-174,-141,-2054,-7,-68,133,204,15,189,-109
,839,2023-10-27 10:28:31.52,-162,-127,-2046,-14,-72,123,-154,358,-512,-102
,840,2023-10-27 10:28:31.53,-154,-108,-2037,-17,-66,113,208,11,197,-109
,841,2023-10-27 10:28:31.54,-156,-107,-2041,-22,-51,107,-154,352,-506,-99
,842,2023-10-27 10:28:31.55,-152,-99,-2028,-23,-37,94,207,7,200,-107
,843,2023-10-27 10:28:31.56,-165,-82,-2023,-26,-22,82,-160,352,-512,-96
,844,2023-10-27 10:28:31.57,-151,-94,-2016,-28,-23,69,197,12,185,-104
,845,2023-10-27 10:28:31.58,-160,-101,-2021,-35,-9,58,-168,354,-522,-93
,846,2023-10-27 10:28:31.59,-156,-115,-2013,-35,-6,50,202,14,188,-108
,847,2023-10-27 10:28:31.60,-164,-121,-2028,-27,-2,42,-161,356,-517,-97
,848,2023-10-27 10:28:31.61,-157,-132,-2037,-18,-5,41,204,20,184,-112
,849,2023-10-27 10:28:31.62,-155,-124,-2032,-12,-11,48,-163,362,-525,-99
,850,2023-10-27 10:28:31.63,-161,-127,-2026,-5,-13,53,198,22,176,-110
,851,2023-10-27 10:28:31.64,-156,-128,-2035,3,-14,61,-166,356,-522,-95
,852,2023-10-27 10:28:31.65,-160,-112,-2035,2,-10,63,198,24,174,-111
,853,2023-10-27 10:28:31.66,-158,-97,-2039,1,-8,66,-164,361,-525,-98
,854,2023-10-27 10:28:31.67,-148,-95,-2036,-5,2,63,194,27,167,-110
,855,2023-10-27 10:28:31.68,-155,-80,-2033,-12,12,55,-171,352,-523,-90
,856,2023-10-27 10:28:31.69,-158,-77,-2043,-23,22,49,191,20,171,-105
,857,2023-10-27 10:28:31.70,-167,-75,-2062,-29,18,39,-167,347,-514,-90
,858,2023-10-27 10:28:31.71,-162,-86,-2078,-32,12,36,195,30,165,-112
,859,2023-10-27 10:28:31.72,-154,-83,-2076,-29,7,27,-160,353,-513,-96
,860,2023-10-27 10:28:31.73,-151,-85,-2072,-26,7,26,208,27,181,-117
,861,2023-10-27 10:28:31.74,-162,-81,-2069,-23,9,26,-141,336,-477,-97
,862,2023-10-27 10:28:31.75,-165,-82,-2048,-18,6,24,222,21,201,-121
,863,2023-10-27 10:28:31.76,-169,-89,-2055,-13,-2,21,-133,332,-465,-99
,864,2023-10-27 10:28:31.77,-156,-91,-2050,-8,-13,19,208,35,173,-121
,865,2023-10-27 10:28:31.78,-158,-89,-2052,-5,-19,21,-156,340,-496,-92
,866,2023-10-27 10:28:31.79,-165,-94,-2054,-1,-27,24,187,32,155,-109
,867,2023-10-27 10:28:31.80,-160,-89,-2043,4,-25,29,-156,323,-479,-83
,868,2023-10-27 10:28:31.81,-153,-89,-2023,7,-23,31,193,29,164,-111
,869,2023-10-27 10:28:31.82,-156,-87,-2019,6,-17,29,-148,321,-469,-86
,870,2023-10-27 10:28:31.83,-155,-84,-2030,6,-17,24,209,38,171,-123
,871,2023-10-27 10:28:31.84,-147,-72,-2037,5,-13,21,-107,327,-434,-110
,872,2023-10-27 10:28:31.85,-153,-80,-2049,2,-5,16,222,29,193,-125
,873,2023-10-27 10:28:31.86,-162,-83,-2055,0,1,12,-114,302,-416,-94
,874,2023-10-27 10:28:31.87,-161,-75,-2054,4,0,10,210,28,182,-119
,875,2023-10-27 10:28:31.88,-171,-80,-2065,2,-7,6,-112,298,-410,-93
,876,2023-10-27 10:28:31.89,-180,-81,-2066,2,-13,-2,208,30,178,-119
,877,2023-10-27 10:28:31.90,-174,-87,-2065,-1,-21,-5,-109,294,-403,-92
,878,2023-10-27 10:28:31.91,-179,-84,-2052,-5,-20,-1,201,40,161,-120
,879,2023-10-27 10:28:31.92,-175,-97,-2039,-4,-12,0,-114,292,-406,-89
,880,2023-10-27 10:28:31.93,-178,-92,-2042,-3,-9,-2,177,33,144,-105
,881,2023-10-27 10:28:31.94,-171,-80,-2046,-5,-3,-4,-137,280,-417,-71
,882,2023-10-27 10:28:31.95,-168,-86,-2042,-10,3,-5,141,52,89,-96
,883,2023-10-27 10:28:31.96,-164,-82,-2038,-6,10,-6,-165,292,-457,-63
,884,2023-10-27 10:28:31.97,-169,-84,-2030,2,19,-11,116,73,43,-94
,885,2023-10-27 10:28:31.98,-163,-84,-2032,12,23,-17,-163,298,-461,-67
,886,2023-10-27 10:28:31.99,-159,-93,-2037,14,26,-22,122,72,50,-97
,887,2023-10-27 10:28:32.00,-160,-94,-2048,17,29,-31,-152,286,-438,-67
,888,2023-10-27 10:28:32.01,-163,-94,-2041,20,32,-32,118,78,40,-98
,889,2023-10-27 10:28:32.02,-159,-104,-2045,23,34,-34,-146,285,-431,-69
,890,2023-10-27 10:28:32.03,-140,-88,-2051,25,37,-37,120,90,30,-105
,891,2023-10-27 10:28:32.04,-157,-80,-2055,27,34,-43,-135,278,-413,-71
,892,2023-10-27 10:28:32.05,-148,-88,-2055,23,30,-45,116,92,24,-104
,893,2023-10-27 10:28:32.06,-143,-97,-2046,21,25,-47,-129,275,-404,-73
,894,2023-10-27 10:28:32.07,-144,-97,-2047,17,22,-41,118,100,18,-109
,895,2023-10-27 10:28:32.08,-147,-107,-2052,18,16,-40,-118,264,-382,-73
,896,2023-10-27 10:28:32.09,-146,-97,-2045,18,12,-40,114,106,8,-110
,897,2023-10-27 10:28:32.10,-153,-101,-2043,18,14,-38,-106,266,-372,-80
,898,2023-10-27 10:28:32.11,-140,-96,-2052,18,11,-35,114,120,-6,-117
,899,2023-10-27 10:28:32.12,-138,-84,-2057,14,16,-39,-96,263,-359,-83
,900,2023-10-27 10:28:32.13,-143,-83,-2051,13,19,-44,108,122,-14,-115
,901,2023-10-27 10:28:32.14,-139,-84,-2072,13,28,-53,-90,254,-344,-82
,902,2023-10-27 10:28:32.15,-135,-76,-2070,10,34,-63,98,118,-20,-108
,903,2023-10-27 10:28:32.16,-133,-75,-2054,12,32,-71,-85,237,-322,-76
,904,2023-10-27 10:28:32.17,-145,-75,-2038,9,38,-82,104,131,-27,-117
,905,2023-10-27 10:28:32.18,-136,-86,-2037,6,36,-90,-70,245,-315,-87
,906,2023-10-27 10:28:32.19,-143,-90,-2032,6,33,-95,94,134,-40,-114
,907,2023-10-27 10:28:32.20,-138,-108,-2037,7,24,-101,-71,221,-292,-75
,908,2023-10-27 10:28:32.21,-140,-117,-2048,0,35,-106,87,133,-46,-110
,909,2023-10-27 10:28:32.22,-139,-122,-2030,3,22,-110,-65,221,-286,-78
,910,2023-10-27 10:28:32.23,-152,-116,-2038,7,17,-107,82,148,-66,-115
,911,2023-10-27 10:28:32.24,-163,-115,-2046,7,18,-99,-56,217,-273,-80
,912,2023-10-27 10:28:32.25,-151,-112,-2034,8,5,-96,78,161,-83,-119
,913,2023-10-27 10:28:32.26,-143,-114,-2048,-1,4,-87,-48,208,-256,-80
,914,2023-10-27 10:28:32.27,-157,-111,-2042,-14,4,-80,77,153,-76,-115
,915,2023-10-27 10:28:32.28,-151,-105,-2044,-29,7,-76,-32,192,-224,-80
,916,2023-10-27 10:28:32.29,-149,-97,-2059,-41,15,-75,71,167,-96,-119
,917,2023-10-27 10:28:32.30,-147,-101,-2053,-56,20,-73,-31,197,-228,-83
,918,2023-10-27 10:28:32.31,-152,-99,-2058,-66,21,-70,65,181,-116,-123
,919,2023-10-27 10:28:32.32,-143,-85,-2058,-71,20,-71,-20,194,-214,-87
,920,2023-10-27 10:28:32.33,-161,-98,-2070,-78,20,-67,56,178,-122,-117
,921,2023-10-27 10:28:32.34,-165,-94,-2068,-81,12,-67,-15,175,-190,-80
,922,2023-10-27 10:28:32.35,-148,-96,-2076,-82,7,-65,56,188,-132,-122
,923,2023-10-27 10:28:32.36,-152,-91,-2074,-85,-3,-61,-5,171,-176,-83
,924,2023-10-27 10:28:32.37,-150,-86,-2066,-90,-7,-57,45,198,-153,-121
,925,2023-10-27 10:28:32.38,-152,-98,-2069,-92,-13,-48,4,172,-168,-88
,926,2023-10-27 10:28:32.39,-146,-92,-2058,-91,-8,-42,43,211,-168,-127
,927,2023-10-27 10:28:32.40,-127,-75,-2042,-88,-12,-38,10,166,-156,-88
,928,2023-10-27 10:28:32.41,-127,-89,-2031,-90,3,-36,32,202,-170,-117
,929,2023-10-27 10:28:32.42,-122,-91,-2036,-84,13,-32,16,153,-137,-84
,930,2023-10-27 10:28:32.43,-125,-83,-2024,-66,17,-31,27,220,-193,-123
,931,2023-10-27 10:28:32.44,-118,-87,-2027,-54,22,-33,22,154,-132,-88
,932,2023-10-27 10:28:32.45,-109,-90,-2042,-41,37,-35,24,223,-199,-123
,933,2023-10-27 10:28:32.46,-113,-78,-2035,-21,39,-35,34,143,-109,-88
,934,2023-10-27 10:28:32.47,-113,-79,-2037,-1,40,-31,11,228,-217,-119
,935,2023-10-27 10:28:32.48,-118,-92,-2033,15,37,-29,38,137,-99,-87
,936,2023-10-27 10:28:32.49,-104,-80,-2045,31,25,-30,11,230,-219,-120
,937,2023-10-27 10:28:32.50,-124,-83,-2043,40,19,-36,48,131,-83,-89
,938,2023-10-27 10:28:32.51,-99,-51,-2038,46,21,-42,0,238,-238,-119
,939,2023-10-27 10:28:32.52,-108,-63,-2029,42,27,-52,52,123,-71,-87
,940,2023-10-27 10:28:32.53,-121,-50,-2039,41,37,-69,-2,251,-253,-124
,941,2023-10-27 10:28:32.54,-111,-81,-2039,39,42,-85,59,120,-61,-89
,942,2023-10-27 10:28:32.55,-95,-69,-2048,44,32,-90,-15,249,-264,-117
,943,2023-10-27 10:28:32.56,-117,-66,-2040,44,38,-94,60,101,-41,-80
,944,2023-10-27 10:28:32.57,-107,-83,-2025,39,42,-97,-20,252,-272,-116
,945,2023-10-27 10:28:32.58,-118,-97,-2042,31,51,-99,73,99,-26,-86
,946,2023-10-27 10:28:32.59,-123,-96,-2058,12,63,-106,-21,258,-279,-118
,947,2023-10-27 10:28:32.60,-118,-97,-2051,7,47,-106,81,99,-18,-90
,948,2023-10-27 10:28:32.61,-116,-101,-2046,9,42,-101,-35,272,-307,-118
,949,2023-10-27 10:28:32.62,-95,-98,-2046,5,38,-95,84,94,-10,-89
,950,2023-10-27 10:28:32.63,-98,-103,-2042,0,34,-92,-33,276,-309,-121
,951,2023-10-27 10:28:32.64,-99,-96,-2042,-4,38,-94,96,88,8,-92
,952,2023-10-27 10:28:32.65,-97,-83,-2034,-10,42,-96,-41,276,-317,-117
,953,2023-10-27 10:28:32.66,-91,-65,-1993,-15,50,-96,102,84,18,-93
