// Data mode  : Full
// Data quality  : High
// Acceleration sensor's range  : 16g
// Gyroscope sensor's range  : 2000dps
//
//ARTIFACT,NUM,DATE,ACC_X,ACC_Y,ACC_Z,GYRO_X,GYRO_Y,GYRO_Z,EOG_L,EOG_R,EOG_H,EOG_V
,1,2023-10-27 11:59:24.53,14,-261,-2029,-14,3,59,-336,-691,355,513
,2,2023-10-27 11:59:24.54,24,-244,-2024,-23,14,59,-352,-739,387,545
,3,2023-10-27 11:59:24.55,24,-238,-2022,-29,28,53,-335,-696,361,515
,4,2023-10-27 11:59:24.56,32,-249,-2019,-30,31,46,-351,-739,388,545
,5,2023-10-27 11:59:24.57,35,-248,-2026,-24,38,43,-335,-700,365,517
,6,2023-10-27 11:59:24.58,43,-247,-2030,-12,41,36,-343,-736,393,539
,7,2023-10-27 11:59:24.59,38,-252,-2048,-3,40,30,-334,-702,368,518
,8,2023-10-27 11:59:24.60,50,-250,-2036,7,39,28,-344,-734,390,539
,9,2023-10-27 11:59:24.61,58,-254,-2042,15,39,24,-343,-706,363,524
,10,2023-10-27 11:59:24.62,48,-260,-2063,24,34,19,-346,-731,385,538
,11,2023-10-27 11:59:24.63,58,-264,-2068,27,27,21,-346,-708,362,527
,12,2023-10-27 11:59:24.64,58,-264,-2058,34,13,21,-341,-729,388,535
,13,2023-10-27 11:59:24.65,60,-264,-2057,39,-1,22,-348,-712,364,530
,14,2023-10-27 11:59:24.66,57,-258,-2049,41,-5,21,-341,-728,387,534
,15,2023-10-27 11:59:24.67,57,-258,-2036,41,-5,21,-349,-716,367,532
,16,2023-10-27 11:59:24.68,60,-267,-2034,40,-2,23,-336,-724,388,530
,17,2023-10-27 11:59:24.69,56,-261,-2038,38,4,21,-344,-715,371,529
,18,2023-10-27 11:59:24.70,50,-263,-2047,33,11,23,-327,-718,391,522
,19,2023-10-27 11:59:24.71,54,-272,-2049,30,10,26,-343,-714,371,528
,20,2023-10-27 11:59:24.72,51,-274,-2043,30,0,28,-321,-709,388,515
,21,2023-10-27 11:59:24.73,46,-261,-2043,28,-5,32,-339,-710,371,524
,22,2023-10-27 11:59:24.74,41,-269,-2045,28,-10,37,-316,-705,389,510
,23,2023-10-27 11:59:24.75,48,-263,-2039,25,-17,35,-346,-715,369,530
,24,2023-10-27 11:59:24.76,43,-268,-2039,26,-18,40,-322,-705,383,513
,25,2023-10-27 11:59:24.77,42,-273,-2041,24,-19,40,-355,-716,361,535
,26,2023-10-27 11:59:24.78,44,-275,-2036,20,-17,37,-328,-701,373,514
,27,2023-10-27 11:59:24.79,38,-272,-2028,14,-9,35,-356,-717,361,536
,28,2023-10-27 11:59:24.80,38,-268,-2037,12,-5,34,-327,-703,376,515
,29,2023-10-27 11:59:24.81,23,-274,-2041,10,2,30,-361,-725,364,543
,30,2023-10-27 11:59:24.82,41,-275,-2043,12,3,32,-333,-704,371,518
,31,2023-10-27 11:59:24.83,41,-274,-2033,13,0,27,-358,-723,365,540
,32,2023-10-27 11:59:24.84,42,-277,-2038,16,9,28,-317,-693,376,505
,33,2023-10-27 11:59:24.85,41,-282,-2036,20,11,25,-355,-721,366,538
,34,2023-10-27 11:59:24.86,46,-273,-2038,26,18,23,-317,-692,375,504
,35,2023-10-27 11:59:24.87,46,-265,-2036,27,13,14,-359,-728,369,543
,36,2023-10-27 11:59:24.88,47,-273,-2036,33,14,9,-314,-689,375,501
,37,2023-10-27 11:59:24.89,42,-275,-2046,33,15,6,-356,-727,371,541
,38,2023-10-27 11:59:24.90,35,-282,-2050,33,12,2,-308,-681,373,494
,39,2023-10-27 11:59:24.91,53,-276,-2026,28,24,0,-360,-731,371,545
,40,2023-10-27 11:59:24.92,52,-295,-2027,25,21,-1,-313,-682,369,497
,41,2023-10-27 11:59:24.93,54,-291,-2032,26,24,3,-370,-738,368,554
,42,2023-10-27 11:59:24.94,58,-297,-2038,29,13,3,-319,-688,369,503
,43,2023-10-27 11:59:24.95,65,-297,-2035,26,8,5,-382,-751,369,566
,44,2023-10-27 11:59:24.96,69,-291,-2051,17,9,10,-325,-690,365,507
,45,2023-10-27 11:59:24.97,52,-302,-2055,12,6,19,-385,-755,370,570
,46,2023-10-27 11:59:24.98,53,-310,-2060,7,-5,27,-325,-688,363,506
,47,2023-10-27 11:59:24.99,45,-301,-2057,3,-11,38,-396,-760,364,578
,48,2023-10-27 11:59:25.00,47,-297,-2035,-6,-20,46,-324,-688,364,506
,49,2023-10-27 11:59:25.01,39,-287,-2035,-10,-29,51,-384,-758,374,571
,50,2023-10-27 11:59:25.02,44,-268,-2026,-15,-20,54,-310,-681,371,495
,51,2023-10-27 11:59:25.03,34,-273,-2038,-19,-19,54,-385,-761,376,573
,52,2023-10-27 11:59:25.04,38,-260,-2045,-27,-19,49,-311,-683,372,497
,53,2023-10-27 11:59:25.05,30,-259,-2034,-35,-7,48,-386,-761,375,573
,54,2023-10-27 11:59:25.06,24,-266,-2042,-32,-6,40,-308,-677,369,492
,55,2023-10-27 11:59:25.07,22,-264,-2043,-26,-7,36,-381,-761,380,571
,56,2023-10-27 11:59:25.08,22,-267,-2037,-20,-3,37,-301,-676,375,488
,57,2023-10-27 11:59:25.09,45,-262,-2035,-19,6,30,-380,-760,380,570
,58,2023-10-27 11:59:25.10,30,-260,-2033,-18,22,29,-302,-668,366,485
,59,2023-10-27 11:59:25.11,29,-255,-2034,-18,35,25,-377,-756,379,566
,60,2023-10-27 11:59:25.12,48,-252,-2025,-15,44,17,-293,-660,367,476
,61,2023-10-27 11:59:25.13,43,-248,-2032,-12,48,10,-370,-754,384,562
,62,2023-10-27 11:59:25.14,49,-250,-2040,-11,49,2,-288,-655,367,471
,63,2023-10-27 11:59:25.15,54,-249,-2038,-6,45,-4,-372,-758,386,565
,64,2023-10-27 11:59:25.16,62,-252,-2048,-4,36,-12,-288,-656,368,472
,65,2023-10-27 11:59:25.17,57,-258,-2052,4,24,-12,-373,-764,391,568
,66,2023-10-27 11:59:25.18,53,-255,-2055,8,10,-16,-289,-656,367,472
,67,2023-10-27 11:59:25.19,55,-270,-2051,14,-5,-13,-380,-767,387,573
,68,2023-10-27 11:59:25.20,53,-275,-2049,21,-5,-8,-284,-654,370,469
,69,2023-10-27 11:59:25.21,51,-276,-2039,26,-13,-5,-382,-770,388,576
,70,2023-10-27 11:59:25.22,43,-288,-2032,28,-14,3,-291,-656,365,473
,71,2023-10-27 11:59:25.23,51,-289,-2044,30,-15,10,-395,-779,384,587
,72,2023-10-27 11:59:25.24,47,-291,-2048,31,-8,20,-288,-653,365,470
,73,2023-10-27 11:59:25.25,58,-284,-2040,28,-3,29,-380,-773,393,576
,74,2023-10-27 11:59:25.26,38,-285,-2040,23,0,35,-278,-646,368,462
,75,2023-10-27 11:59:25.27,48,-279,-2041,18,6,41,-381,-773,392,577
,76,2023-10-27 11:59:25.28,45,-277,-2044,12,10,42,-281,-648,367,464
,77,2023-10-27 11:59:25.29,40,-273,-2035,10,14,44,-383,-775,392,579
,78,2023-10-27 11:59:25.30,49,-263,-2034,9,13,40,-279,-645,366,462
,79,2023-10-27 11:59:25.31,49,-253,-2037,8,10,35,-382,-775,393,578
,80,2023-10-27 11:59:25.32,37,-259,-2042,7,10,27,-278,-646,368,462
,81,2023-10-27 11:59:25.33,64,-254,-2036,7,4,17,-389,-776,387,582
,82,2023-10-27 11:59:25.34,48,-261,-2039,9,0,10,-288,-645,357,466
,83,2023-10-27 11:59:25.35,37,-267,-2036,11,-5,5,-390,-776,386,583
,84,2023-10-27 11:59:25.36,53,-266,-2037,12,-4,-1,-281,-645,364,463
,85,2023-10-27 11:59:25.37,55,-279,-2037,16,0,-3,-387,-778,391,582
,86,2023-10-27 11:59:25.38,58,-278,-2030,15,0,-6,-284,-645,361,464
,87,2023-10-27 11:59:25.39,53,-276,-2033,15,3,-9,-389,-780,391,584
,88,2023-10-27 11:59:25.40,47,-274,-2041,11,8,-9,-281,-645,364,463
,89,2023-10-27 11:59:25.41,50,-284,-2032,7,13,-7,-386,-780,394,583
,90,2023-10-27 11:59:25.42,47,-281,-2035,2,17,-6,-281,-644,363,462
,91,2023-10-27 11:59:25.43,54,-286,-2042,1,17,-1,-386,-781,395,583
,92,2023-10-27 11:59:25.44,35,-294,-2055,2,13,3,-278,-639,361,458
,93,2023-10-27 11:59:25.45,51,-299,-2046,8,2,12,-376,-776,400,576
,94,2023-10-27 11:59:25.46,60,-289,-2043,11,-3,19,-268,-638,370,453
,95,2023-10-27 11:59:25.47,54,-289,-2035,16,-7,25,-375,-778,403,576
,96,2023-10-27 11:59:25.48,39,-279,-2032,17,-3,29,-272,-637,365,454
,97,2023-10-27 11:59:25.49,51,-274,-2040,14,2,30,-375,-774,399,574
,98,2023-10-27 11:59:25.50,39,-275,-2050,12,4,31,-268,-631,363,449
,99,2023-10-27 11:59:25.51,38,-269,-2051,8,4,33,-372,-772,400,572
,100,2023-10-27 11:59:25.52,59,-272,-2054,9,-6,34,-268,-629,361,448
,101,2023-10-27 11:59:25.53,47,-269,-2046,7,-6,33,-373,-773,400,573
,102,2023-10-27 11:59:25.54,44,-269,-2041,3,-6,35,-270,-628,358,449
,103,2023-10-27 11:59:25.55,43,-267,-2034,-3,-6,36,-373,-772,399,572
,104,2023-10-27 11:59:25.56,35,-263,-2033,-6,3,37,-270,-629,359,449
,105,2023-10-27 11:59:25.57,51,-255,-2037,-7,9,31,-376,-774,398,575
,106,2023-10-27 11:59:25.58,48,-256,-2038,-11,16,28,-277,-632,355,454
,107,2023-10-27 11:59:25.59,30,-251,-2040,-13,22,21,-378,-775,397,576
,108,2023-10-27 11:59:25.60,43,-248,-2040,-15,25,16,-274,-631,357,452
,109,2023-10-27 11:59:25.61,38,-250,-2043,-10,21,6,-371,-773,402,572
,110,2023-10-27 11:59:25.62,47,-247,-2036,-4,15,1,-278,-633,355,455
,111,2023-10-27 11:59:25.63,59,-254,-2032,6,13,-8,-380,-780,400,580
,112,2023-10-27 11:59:25.64,43,-251,-2045,13,8,-15,-291,-642,351,466
,113,2023-10-27 11:59:25.65,47,-262,-2057,22,6,-13,-380,-777,397,578
,114,2023-10-27 11:59:25.66,40,-263,-2054,26,-4,-14,-276,-630,354,453
,115,2023-10-27 11:59:25.67,49,-276,-2046,32,-8,-11,-370,-773,403,571
,116,2023-10-27 11:59:25.68,52,-283,-2040,35,-4,-6,-280,-632,352,456
,117,2023-10-27 11:59:25.69,47,-288,-2039,43,10,2,-380,-779,399,579
,118,2023-10-27 11:59:25.70,53,-278,-2025,48,22,5,-284,-634,350,459
,119,2023-10-27 11:59:25.71,58,-279,-2028,54,32,6,-376,-776,400,576
,120,2023-10-27 11:59:25.72,70,-278,-2020,56,33,2,-282,-633,351,457
,121,2023-10-27 11:59:25.73,73,-275,-2042,65,41,-5,-383,-779,396,581
,122,2023-10-27 11:59:25.74,75,-277,-2055,72,37,-16,-295,-639,344,467
,123,2023-10-27 11:59:25.75,79,-277,-2051,78,38,-27,-399,-788,389,593
,124,2023-10-27 11:59:25.76,78,-289,-2064,80,28,-36,-304,-646,342,475
,125,2023-10-27 11:59:25.77,70,-287,-2055,79,23,-42,-388,-786,398,587
,126,2023-10-27 11:59:25.78,67,-301,-2051,82,18,-41,-286,-640,354,463
,127,2023-10-27 11:59:25.79,61,-317,-2057,78,14,-31,-384,-780,396,582
,128,2023-10-27 11:59:25.80,55,-335,-2050,82,2,-20,-296,-643,347,469
,129,2023-10-27 11:59:25.81,51,-335,-2039,86,-1,-1,-389,-782,393,585
,130,2023-10-27 11:59:25.82,57,-326,-2031,92,-10,13,-296,-646,350,471
,131,2023-10-27 11:59:25.83,64,-331,-2021,97,-13,28,-397,-784,387,590
,132,2023-10-27 11:59:25.84,60,-322,-2018,99,-11,34,-308,-649,341,478
,133,2023-10-27 11:59:25.85,60,-310,-2018,97,6,33,-392,-783,391,587
,134,2023-10-27 11:59:25.86,60,-299,-2015,99,3,30,-304,-653,349,478
,135,2023-10-27 11:59:25.87,57,-305,-2025,93,10,29,-390,-782,392,586
,136,2023-10-27 11:59:25.88,53,-297,-2017,89,7,27,-305,-653,348,479
,137,2023-10-27 11:59:25.89,51,-298,-2027,84,3,28,-396,-779,383,587
,138,2023-10-27 11:59:25.90,31,-305,-2032,70,4,25,-312,-653,341,482
,139,2023-10-27 11:59:25.91,37,-313,-2042,54,5,28,-395,-775,380,585
,140,2023-10-27 11:59:25.92,29,-313,-2043,35,4,32,-313,-653,340,483
,141,2023-10-27 11:59:25.93,37,-307,-2034,20,3,34,-384,-771,387,577
,142,2023-10-27 11:59:25.94,32,-304,-2025,11,-4,34,-310,-653,343,481
,143,2023-10-27 11:59:25.95,23,-306,-2013,8,-4,31,-386,-771,385,578
,144,2023-10-27 11:59:25.96,22,-279,-2023,2,-1,21,-318,-658,340,488
,145,2023-10-27 11:59:25.97,40,-273,-2024,-18,21,10,-392,-774,382,583
,146,2023-10-27 11:59:25.98,30,-262,-2027,-41,44,-6,-321,-661,340,491
,147,2023-10-27 11:59:25.99,43,-255,-2030,-62,61,-23,-390,-774,384,582
,148,2023-10-27 11:59:26.00,36,-261,-2038,-75,66,-39,-321,-668,347,494
,149,2023-10-27 11:59:26.01,46,-260,-2044,-88,69,-52,-381,-775,394,578
,150,2023-10-27 11:59:26.02,46,-271,-2046,-94,65,-64,-319,-668,349,493
,151,2023-10-27 11:59:26.03,33,-285,-2046,-91,57,-72,-392,-777,385,584
,152,2023-10-27 11:59:26.04,34,-293,-2054,-78,32,-78,-326,-671,345,498
,153,2023-10-27 11:59:26.05,42,-293,-2055,-61,25,-77,-389,-778,389,583
,154,2023-10-27 11:59:26.06,41,-305,-2047,-45,19,-73,-328,-675,347,501
,155,2023-10-27 11:59:26.07,50,-293,-2036,-36,21,-71,-382,-774,392,578
,156,2023-10-27 11:59:26.08,39,-291,-2032,-26,26,-68,-329,-676,347,502
,157,2023-10-27 11:59:26.09,50,-295,-2026,-13,20,-65,-372,-763,391,567
,158,2023-10-27 11:59:26.10,51,-286,-2032,1,19,-63,-325,-672,347,498
,159,2023-10-27 11:59:26.11,66,-287,-2024,10,26,-61,-383,-769,386,576
,160,2023-10-27 11:59:26.12,53,-289,-2016,17,26,-63,-338,-682,344,510
,161,2023-10-27 11:59:26.13,69,-285,-2018,22,34,-64,-376,-764,388,570
,162,2023-10-27 11:59:26.14,83,-285,-2009,31,42,-69,-315,-672,357,493
,163,2023-10-27 11:59:26.15,90,-281,-2022,36,53,-74,-350,-752,402,551
,164,2023-10-27 11:59:26.16,74,-266,-2036,35,61,-78,-314,-674,360,494
,165,2023-10-27 11:59:26.17,90,-269,-2052,34,58,-87,-359,-754,395,556
,166,2023-10-27 11:59:26.18,99,-269,-2054,33,56,-93,-327,-678,351,502
,167,2023-10-27 11:59:26.19,106,-274,-2055,28,47,-102,-366,-751,385,558
,168,2023-10-27 11:59:26.20,107,-276,-2062,24,35,-106,-334,-680,346,507
,169,2023-10-27 11:59:26.21,111,-277,-2063,19,38,-110,-363,-744,381,553
,170,2023-10-27 11:59:26.22,102,-280,-2056,16,25,-115,-326,-676,350,501
,171,2023-10-27 11:59:26.23,103,-295,-2049,16,19,-116,-344,-733,389,538
,172,2023-10-27 11:59:26.24,108,-293,-2030,17,20,-118,-310,-670,360,490
,173,2023-10-27 11:59:26.25,113,-298,-2020,21,23,-121,-323,-724,401,523
,174,2023-10-27 11:59:26.26,105,-312,-2009,32,16,-120,-294,-666,372,480
,175,2023-10-27 11:59:26.27,98,-325,-2010,64,-12,-119,-310,-713,403,511
,176,2023-10-27 11:59:26.28,101,-331,-2005,98,-33,-113,-293,-663,370,478
,177,2023-10-27 11:59:26.29,84,-328,-2014,123,-41,-103,-311,-708,397,509
,178,2023-10-27 11:59:26.30,98,-330,-2015,132,-41,-98,-299,-668,369,483
,179,2023-10-27 11:59:26.31,89,-323,-2017,130,-16,-90,-314,-710,396,512
,180,2023-10-27 11:59:26.32,89,-319,-2032,115,4,-83,-289,-672,383,480
,181,2023-10-27 11:59:26.33,98,-332,-2040,101,14,-78,-252,-693,441,472
,182,2023-10-27 11:59:26.34,90,-325,-2041,90,19,-67,-227,-655,428,441
,183,2023-10-27 11:59:26.35,80,-342,-2035,90,12,-58,-233,-677,444,455
,184,2023-10-27 11:59:26.36,89,-339,-2037,96,-7,-44,-264,-663,399,463
,185,2023-10-27 11:59:26.37,96,-325,-2036,93,-11,-38,-283,-693,410,488
,186,2023-10-27 11:59:26.38,86,-321,-2041,80,-9,-35,-261,-665,404,463
,187,2023-10-27 11:59:26.39,111,-312,-2040,63,3,-31,-215,-669,454,442
,188,2023-10-27 11:59:26.40,102,-307,-2037,45,18,-34,-204,-649,445,426
,189,2023-10-27 11:59:26.41,94,-308,-2039,30,28,-36,-192,-660,468,426
,190,2023-10-27 11:59:26.42,86,-322,-2046,21,26,-37,-227,-653,426,440
,191,2023-10-27 11:59:26.43,90,-328,-2060,18,9,-33,-222,-661,439,441
,192,2023-10-27 11:59:26.44,79,-326,-2065,19,-5,-27,-261,-669,408,465
,193,2023-10-27 11:59:26.45,73,-317,-2062,4,-3,-19,-248,-676,428,462
,194,2023-10-27 11:59:26.46,81,-325,-2056,-11,-7,-9,-285,-685,400,485
,195,2023-10-27 11:59:26.47,76,-317,-2053,-20,-9,-4,-260,-677,417,468
,196,2023-10-27 11:59:26.48,92,-299,-2041,-29,-7,6,-295,-686,391,490
,197,2023-10-27 11:59:26.49,80,-292,-2044,-36,-1,11,-280,-684,404,482
,198,2023-10-27 11:59:26.50,89,-285,-2039,-36,0,11,-312,-696,384,504
,199,2023-10-27 11:59:26.51,82,-283,-2036,-33,1,10,-287,-682,395,484
,200,2023-10-27 11:59:26.52,91,-271,-2026,-30,5,6,-312,-697,385,504
,201,2023-10-27 11:59:26.53,80,-267,-2029,-30,10,1,-274,-674,400,474
,202,2023-10-27 11:59:26.54,82,-273,-2026,-30,9,-7,-309,-696,387,502
,203,2023-10-27 11:59:26.55,90,-264,-2025,-26,15,-12,-277,-676,399,476
,204,2023-10-27 11:59:26.56,98,-273,-2021,-25,14,-14,-313,-702,389,507
,205,2023-10-27 11:59:26.57,88,-277,-2027,-19,16,-17,-268,-666,398,467
,206,2023-10-27 11:59:26.58,66,-283,-2034,-14,19,-21,-276,-689,413,482
,207,2023-10-27 11:59:26.59,83,-290,-2029,-9,15,-23,-197,-640,443,418
,208,2023-10-27 11:59:26.60,78,-297,-2034,-2,19,-24,-213,-668,455,440
,209,2023-10-27 11:59:26.61,93,-299,-2032,10,17,-25,-178,-629,451,403
,210,2023-10-27 11:59:26.62,94,-307,-2023,23,13,-26,-248,-680,432,464
,211,2023-10-27 11:59:26.63,97,-304,-2026,37,19,-25,-221,-641,420,431
,212,2023-10-27 11:59:26.64,97,-312,-2028,47,17,-24,-281,-697,416,489
,213,2023-10-27 11:59:26.65,94,-306,-2049,54,18,-25,-239,-648,409,443
,214,2023-10-27 11:59:26.66,102,-308,-2045,60,25,-24,-289,-698,409,493
,215,2023-10-27 11:59:26.67,100,-324,-2054,61,28,-24,-233,-644,411,438
,216,2023-10-27 11:59:26.68,90,-331,-2049,61,26,-21,-276,-706,430,491
,217,2023-10-27 11:59:26.69,81,-346,-2048,70,12,-13,-215,-643,428,429
,218,2023-10-27 11:59:26.70,84,-351,-2030,83,3,-5,-281,-706,425,493
,219,2023-10-27 11:59:26.71,96,-361,-2024,91,0,5,-232,-640,408,436
,220,2023-10-27 11:59:26.72,92,-357,-2020,98,2,12,-296,-712,416,504
,221,2023-10-27 11:59:26.73,87,-361,-2018,103,0,20,-233,-638,405,435
,222,2023-10-27 11:59:26.74,97,-364,-2018,106,5,28,-305,-713,408,509
,223,2023-10-27 11:59:26.75,98,-353,-2017,108,10,31,-246,-641,395,443
,224,2023-10-27 11:59:26.76,99,-353,-2020,109,10,32,-331,-723,392,527
,225,2023-10-27 11:59:26.77,94,-343,-2021,109,6,27,-270,-649,379,459
,226,2023-10-27 11:59:26.78,110,-347,-2038,110,1,23,-346,-733,387,539
,227,2023-10-27 11:59:26.79,103,-335,-2035,109,-11,20,-270,-650,380,460
,228,2023-10-27 11:59:26.80,105,-343,-2039,106,-19,15,-344,-735,391,539
,229,2023-10-27 11:59:26.81,103,-350,-2041,98,-27,9,-269,-647,378,458
,230,2023-10-27 11:59:26.82,96,-348,-2041,91,-32,5,-351,-737,386,544
,231,2023-10-27 11:59:26.83,90,-350,-2042,83,-33,4,-274,-647,373,460
,232,2023-10-27 11:59:26.84,104,-354,-2037,72,-40,-1,-349,-736,387,542
,233,2023-10-27 11:59:26.85,99,-345,-2035,62,-42,4,-276,-650,374,463
,234,2023-10-27 11:59:26.86,95,-350,-2024,50,-31,5,-367,-748,381,557
,235,2023-10-27 11:59:26.87,93,-358,-2028,40,-27,11,-294,-659,365,476
,236,2023-10-27 11:59:26.88,81,-370,-2034,36,-23,14,-376,-752,376,564
,237,2023-10-27 11:59:26.89,96,-355,-2039,33,-16,23,-289,-651,362,470
,238,2023-10-27 11:59:26.90,84,-361,-2031,27,-14,27,-381,-759,378,570
,239,2023-10-27 11:59:26.91,88,-354,-2034,24,-18,35,-284,-652,368,468
,240,2023-10-27 11:59:26.92,71,-354,-2026,25,-12,42,-376,-756,380,566
