// Data mode  : Full
// Data quality  : High
// Acceleration sensor's range  : 16g
// Gyroscope sensor's range  : 2000dps
//
//ARTIFACT,NUM,DATE,ACC_X,ACC_Y,ACC_Z,GYRO_X,GYRO_Y,GYRO_Z,EOG_L,EOG_R,EOG_H,EOG_V
,1,2023-10-27 11:52:01.82,-9,-121,-2053,5,7,8,-645,-829,184,737
,2,2023-10-27 11:52:01.83,-12,-113,-2054,5,9,9,-539,-708,169,623
,3,2023-10-27 11:52:01.84,-17,-122,-2067,1,4,9,-642,-823,181,732
,4,2023-10-27 11:52:01.85,-2,-116,-2065,1,1,8,-534,-709,175,621
,5,2023-10-27 11:52:01.86,-2,-110,-2062,1,4,10,-634,-828,194,731
,6,2023-10-27 11:52:01.87,-13,-105,-2055,2,12,16,-532,-710,178,621
,7,2023-10-27 11:52:01.88,1,-115,-2052,3,0,12,-628,-826,198,727
,8,2023-10-27 11:52:01.89,5,-113,-2046,4,4,11,-525,-727,202,626
,9,2023-10-27 11:52:01.90,11,-105,-2048,8,11,21,-627,-849,222,738
,10,2023-10-27 11:52:01.91,2,-106,-2047,6,-5,14,-537,-742,205,639
,11,2023-10-27 11:52:01.92,4,-112,-2049,3,13,18,-633,-842,209,737
,12,2023-10-27 11:52:01.93,-2,-109,-2039,4,13,19,-545,-730,185,637
,13,2023-10-27 11:52:01.94,10,-114,-2049,4,12,18,-634,-828,194,731
,14,2023-10-27 11:52:01.95,8,-108,-2052,6,23,17,-548,-733,185,640
,15,2023-10-27 11:52:01.96,4,-111,-2054,4,4,12,-636,-836,200,736
,16,2023-10-27 11:52:01.97,7,-103,-2049,7,12,12,-560,-732,172,646
,17,2023-10-27 11:52:01.98,7,-109,-2058,8,20,14,-636,-816,180,726
,18,2023-10-27 11:52:01.99,2,-107,-2057,7,0,5,-561,-724,163,642
,19,2023-10-27 11:52:02.00,10,-114,-2046,11,7,4,-636,-815,179,725
,20,2023-10-27 11:52:02.01,0,-118,-2040,21,7,9,-567,-734,167,650
,21,2023-10-27 11:52:02.02,12,-115,-2053,33,-12,7,-640,-822,182,731
,22,2023-10-27 11:52:02.03,13,-109,-2061,37,-23,2,-578,-737,159,657
,23,2023-10-27 11:52:02.04,6,-107,-2068,23,-5,-4,-639,-810,171,724
,24,2023-10-27 11:52:02.05,2,-132,-2060,12,11,6,-575,-729,154,652
,25,2023-10-27 11:52:02.06,-5,-124,-2065,10,11,9,-630,-805,175,717
,26,2023-10-27 11:52:02.07,1,-133,-2044,11,4,19,-579,-746,167,662
,27,2023-10-27 11:52:02.08,-5,-127,-2049,11,-6,17,-630,-822,192,726
,28,2023-10-27 11:52:02.09,8,-122,-2050,6,16,26,-586,-746,160,666
,29,2023-10-27 11:52:02.10,-3,-116,-2054,-1,15,29,-635,-799,164,717
,30,2023-10-27 11:52:02.11,11,-107,-2056,-5,10,20,-594,-736,142,665
,31,2023-10-27 11:52:02.12,-17,-100,-2052,-3,21,28,-632,-800,168,716
,32,2023-10-27 11:52:02.13,2,-105,-2053,-6,10,24,-594,-737,143,665
,33,2023-10-27 11:52:02.14,-4,-107,-2060,-4,-1,10,-620,-784,164,702
,34,2023-10-27 11:52:02.15,3,-102,-2058,-2,7,15,-588,-733,145,660
,35,2023-10-27 11:52:02.16,0,-103,-2056,-3,-1,10,-615,-784,169,699
,36,2023-10-27 11:52:02.17,-15,-104,-2053,0,1,7,-595,-754,159,674
,37,2023-10-27 11:52:02.18,-2,-112,-2048,1,-1,9,-617,-804,187,710
,38,2023-10-27 11:52:02.19,0,-115,-2043,0,-8,6,-605,-769,164,687
,39,2023-10-27 11:52:02.20,-7,-116,-2033,0,6,8,-621,-800,179,710
,40,2023-10-27 11:52:02.21,-8,-116,-2039,0,10,12,-604,-757,153,680
,41,2023-10-27 11:52:02.22,-8,-108,-2054,-4,7,8,-620,-786,166,703
,42,2023-10-27 11:52:02.23,-18,-124,-2046,-1,22,13,-620,-759,139,689
,43,2023-10-27 11:52:02.24,-2,-117,-2053,15,6,20,-631,-793,162,712
,44,2023-10-27 11:52:02.25,-6,-99,-2061,24,-23,16,-624,-757,133,690
,45,2023-10-27 11:52:02.26,3,-96,-2057,17,1,18,-611,-771,160,691
,46,2023-10-27 11:52:02.27,8,-98,-2054,5,9,10,-623,-778,155,700
,47,2023-10-27 11:52:02.28,3,-101,-2053,0,6,1,-611,-795,184,703
,48,2023-10-27 11:52:02.29,2,-101,-2050,9,20,3,-627,-783,156,705
,49,2023-10-27 11:52:02.30,10,-104,-2045,15,10,-3,-614,-781,167,697
,50,2023-10-27 11:52:02.31,11,-103,-2057,15,3,-17,-630,-757,127,693
,51,2023-10-27 11:52:02.32,3,-111,-2054,17,6,-15,-602,-751,149,676
,52,2023-10-27 11:52:02.33,0,-120,-2052,21,10,-13,-630,-773,143,701
,53,2023-10-27 11:52:02.34,1,-113,-2059,22,14,-6,-599,-780,181,689
,54,2023-10-27 11:52:02.35,7,-122,-2054,18,23,-6,-630,-772,142,701
,55,2023-10-27 11:52:02.36,-4,-114,-2051,14,21,-4,-593,-752,159,672
,56,2023-10-27 11:52:02.37,5,-126,-2065,13,17,-4,-625,-754,129,689
,57,2023-10-27 11:52:02.38,4,-128,-2057,11,21,4,-576,-741,165,658
,58,2023-10-27 11:52:02.39,1,-126,-2058,10,3,6,-624,-771,147,697
,59,2023-10-27 11:52:02.40,-3,-123,-2052,10,11,14,-579,-760,181,669
,60,2023-10-27 11:52:02.41,-2,-122,-2051,8,5,24,-631,-787,156,709
,61,2023-10-27 11:52:02.42,6,-128,-2048,7,5,24,-579,-759,180,669
,62,2023-10-27 11:52:02.43,10,-123,-2049,5,4,20,-635,-786,151,710
,63,2023-10-27 11:52:02.44,-2,-119,-2048,12,3,28,-572,-753,181,662
,64,2023-10-27 11:52:02.45,5,-117,-2051,14,-7,29,-634,-780,146,707
,65,2023-10-27 11:52:02.46,3,-119,-2049,12,-8,28,-572,-746,174,659
,66,2023-10-27 11:52:02.47,-2,-107,-2050,7,5,23,-641,-798,157,719
,67,2023-10-27 11:52:02.48,6,-104,-2053,0,13,18,-572,-760,188,666
,68,2023-10-27 11:52:02.49,5,-110,-2053,-6,11,16,-649,-807,158,728
,69,2023-10-27 11:52:02.50,-8,-110,-2053,-2,10,10,-578,-756,178,667
,70,2023-10-27 11:52:02.51,-16,-107,-2058,6,-2,14,-652,-807,155,729
,71,2023-10-27 11:52:02.52,2,-108,-2054,13,-4,10,-571,-749,178,660
,72,2023-10-27 11:52:02.53,6,-104,-2049,9,-1,6,-647,-795,148,721
,73,2023-10-27 11:52:02.54,10,-110,-2046,-2,9,-1,-556,-736,180,646
,74,2023-10-27 11:52:02.55,4,-103,-2046,-1,18,1,-645,-805,160,725
,75,2023-10-27 11:52:02.56,4,-110,-2040,-1,32,4,-551,-743,192,647
,76,2023-10-27 11:52:02.57,3,-117,-2040,-1,21,4,-644,-794,150,719
,77,2023-10-27 11:52:02.58,14,-121,-2044,11,12,3,-553,-722,169,637
,78,2023-10-27 11:52:02.59,5,-101,-2048,14,23,8,-648,-800,152,724
,79,2023-10-27 11:52:02.60,6,-113,-2053,9,20,1,-549,-731,182,640
,80,2023-10-27 11:52:02.61,13,-113,-2061,10,25,2,-656,-810,154,733
,81,2023-10-27 11:52:02.62,5,-114,-2054,10,26,2,-544,-723,179,633
,82,2023-10-27 11:52:02.63,2,-116,-2062,11,20,-1,-651,-797,146,724
,83,2023-10-27 11:52:02.64,1,-113,-2055,11,5,0,-543,-713,170,628
,84,2023-10-27 11:52:02.65,5,-112,-2050,16,11,1,-653,-803,150,728
,85,2023-10-27 11:52:02.66,11,-104,-2046,15,16,-2,-532,-716,184,624
,86,2023-10-27 11:52:02.67,15,-102,-2051,15,24,-3,-648,-818,170,733
,87,2023-10-27 11:52:02.68,5,-97,-2057,11,27,-5,-533,-728,195,630
,88,2023-10-27 11:52:02.69,16,-112,-2069,12,16,-11,-651,-817,166,734
,89,2023-10-27 11:52:02.70,20,-103,-2079,12,24,-9,-533,-716,183,624
,90,2023-10-27 11:52:02.71,17,-123,-2066,11,4,-9,-646,-813,167,729
,91,2023-10-27 11:52:02.72,18,-108,-2077,5,2,-11,-520,-713,193,616
,92,2023-10-27 11:52:02.73,20,-119,-2057,3,11,-5,-653,-812,159,732
,93,2023-10-27 11:52:02.74,-1,-137,-2052,7,14,7,-531,-708,177,619
,94,2023-10-27 11:52:02.75,11,-132,-2049,6,0,9,-659,-810,151,734
,95,2023-10-27 11:52:02.76,-2,-128,-2046,14,-2,19,-533,-700,167,616
,96,2023-10-27 11:52:02.77,13,-117,-2054,10,3,22,-664,-809,145,736
,97,2023-10-27 11:52:02.78,18,-118,-2051,3,-2,22,-528,-695,167,611
,98,2023-10-27 11:52:02.79,8,-114,-2052,-6,-6,19,-661,-803,142,732
,99,2023-10-27 11:52:02.80,7,-112,-2049,-8,9,21,-525,-697,172,611
,100,2023-10-27 11:52:02.81,13,-110,-2042,-8,3,19,-663,-822,159,742
,101,2023-10-27 11:52:02.82,9,-107,-2049,-2,-17,15,-531,-707,176,619
,102,2023-10-27 11:52:02.83,7,-103,-2062,4,-8,14,-670,-823,153,746
,103,2023-10-27 11:52:02.84,1,-124,-2050,9,0,27,-530,-704,174,617
,104,2023-10-27 11:52:02.85,-2,-127,-2051,15,-18,27,-673,-842,169,757
,105,2023-10-27 11:52:02.86,2,-133,-2048,27,-18,39,-541,-718,177,629
,106,2023-10-27 11:52:02.87,6,-128,-2041,36,-20,42,-694,-827,133,760
,107,2023-10-27 11:52:02.88,1,-131,-2037,35,-15,43,-554,-699,145,626
,108,2023-10-27 11:52:02.89,-3,-130,-2049,40,0,54,-689,-835,146,762
,109,2023-10-27 11:52:02.90,7,-111,-2047,39,-2,56,-538,-708,170,623
,110,2023-10-27 11:52:02.91,11,-102,-2038,30,5,49,-680,-832,152,756
,111,2023-10-27 11:52:02.92,-4,-107,-2051,19,29,55,-535,-697,162,616
,112,2023-10-27 11:52:02.93,-1,-107,-2057,10,22,46,-676,-824,148,750
,113,2023-10-27 11:52:02.94,0,-111,-2061,6,-1,28,-527,-694,167,610
,114,2023-10-27 11:52:02.95,10,-111,-2067,13,12,33,-666,-833,167,749
,115,2023-10-27 11:52:02.96,8,-102,-2059,10,4,26,-521,-697,176,609
,116,2023-10-27 11:52:02.97,-4,-108,-2055,3,2,16,-667,-824,157,745
,117,2023-10-27 11:52:02.98,-4,-120,-2063,4,4,19,-514,-691,177,602
,118,2023-10-27 11:52:02.99,-9,-121,-2057,12,-2,15,-648,-832,184,740
,119,2023-10-27 11:52:03.00,-4,-120,-2045,14,4,12,-493,-698,205,595
,120,2023-10-27 11:52:03.01,-2,-117,-2050,13,9,16,-642,-836,194,739
,121,2023-10-27 11:52:03.02,-16,-117,-2057,10,3,11,-498,-705,207,601
,122,2023-10-27 11:52:03.03,6,-124,-2047,6,14,12,-637,-850,213,743
,123,2023-10-27 11:52:03.04,-9,-130,-2046,10,20,22,-495,-716,221,605
,124,2023-10-27 11:52:03.05,13,-107,-2038,7,14,20,-642,-844,202,743
,125,2023-10-27 11:52:03.06,11,-116,-2042,3,16,17,-496,-716,220,606
,126,2023-10-27 11:52:03.07,13,-117,-2054,-2,20,19,-643,-869,226,756
,127,2023-10-27 11:52:03.08,18,-116,-2058,-1,14,22,-502,-730,228,616
,128,2023-10-27 11:52:03.09,13,-104,-2045,-7,33,24,-663,-868,205,765
,129,2023-10-27 11:52:03.10,19,-105,-2047,-12,36,26,-523,-718,195,620
,130,2023-10-27 11:52:03.11,15,-106,-2039,-15,31,24,-676,-857,181,766
,131,2023-10-27 11:52:03.12,20,-114,-2048,-6,15,25,-533,-706,173,619
,132,2023-10-27 11:52:03.13,29,-104,-2063,0,11,34,-680,-831,151,755
,133,2023-10-27 11:52:03.14,21,-115,-2070,4,-5,38,-535,-683,148,609
,134,2023-10-27 11:52:03.15,28,-105,-2066,6,-13,40,-676,-819,143,747
,135,2023-10-27 11:52:03.16,36,-105,-2057,7,-8,49,-528,-698,170,613
,136,2023-10-27 11:52:03.17,31,-99,-2055,16,-5,54,-666,-864,198,765
,137,2023-10-27 11:52:03.18,35,-94,-2061,18,-14,57,-527,-722,195,624
,138,2023-10-27 11:52:03.19,20,-112,-2060,28,-17,55,-670,-847,177,758
,139,2023-10-27 11:52:03.20,20,-114,-2056,41,-26,51,-530,-700,170,615
,140,2023-10-27 11:52:03.21,16,-113,-2055,59,-40,49,-666,-842,176,754
,141,2023-10-27 11:52:03.22,15,-110,-2050,73,-58,42,-532,-704,172,618
,142,2023-10-27 11:52:03.23,7,-113,-2054,80,-68,39,-673,-839,166,756
,143,2023-10-27 11:52:03.24,-2,-120,-2057,86,-83,40,-539,-697,158,618
,144,2023-10-27 11:52:03.25,-2,-131,-2066,88,-102,38,-672,-832,160,752
,145,2023-10-27 11:52:03.26,-1,-134,-2051,84,-97,45,-540,-697,157,618
,146,2023-10-27 11:52:03.27,-20,-135,-2049,82,-92,57,-674,-833,159,753
,147,2023-10-27 11:52:03.28,-24,-149,-2045,74,-98,56,-546,-706,160,626
,148,2023-10-27 11:52:03.29,-28,-147,-2046,67,-85,59,-678,-843,165,760
,149,2023-10-27 11:52:03.30,-23,-153,-2040,57,-68,64,-552,-712,160,632
,150,2023-10-27 11:52:03.31,-26,-147,-2046,49,-56,62,-678,-841,163,759
,151,2023-10-27 11:52:03.32,-32,-146,-2037,41,-31,59,-554,-710,156,632
,152,2023-10-27 11:52:03.33,-25,-150,-2041,40,-21,51,-670,-841,171,755
,153,2023-10-27 11:52:03.34,-31,-133,-2029,39,-12,41,-544,-716,172,630
,154,2023-10-27 11:52:03.35,-19,-123,-2040,35,12,34,-659,-843,184,751
,155,2023-10-27 11:52:03.36,-26,-128,-2047,20,22,19,-544,-714,170,629
,156,2023-10-27 11:52:03.37,-27,-129,-2066,14,28,14,-665,-840,175,752
,157,2023-10-27 11:52:03.38,-22,-140,-2063,4,37,8,-556,-708,152,632
,158,2023-10-27 11:52:03.39,-16,-142,-2063,5,13,14,-668,-819,151,743
,159,2023-10-27 11:52:03.40,-37,-144,-2068,0,13,14,-559,-701,142,630
,160,2023-10-27 11:52:03.41,-6,-156,-2052,-2,9,23,-671,-819,148,745
,161,2023-10-27 11:52:03.42,-9,-161,-2056,-4,3,31,-574,-713,139,643
,162,2023-10-27 11:52:03.43,-22,-159,-2046,-7,14,37,-679,-836,157,757
,163,2023-10-27 11:52:03.44,-25,-162,-2040,5,7,43,-572,-714,142,643
,164,2023-10-27 11:52:03.45,-3,-134,-2045,9,14,48,-671,-819,148,745
,165,2023-10-27 11:52:03.46,-14,-143,-2032,7,33,53,-569,-711,142,640
,166,2023-10-27 11:52:03.47,-10,-139,-2035,14,25,47,-650,-827,177,738
,167,2023-10-27 11:52:03.48,-5,-109,-2028,13,43,48,-559,-726,167,642
,168,2023-10-27 11:52:03.49,-1,-108,-2035,13,39,38,-652,-829,177,740
,169,2023-10-27 11:52:03.50,-3,-110,-2053,12,43,30,-570,-735,165,652
,170,2023-10-27 11:52:03.51,6,-103,-2064,11,37,25,-649,-825,176,737
,171,2023-10-27 11:52:03.52,4,-109,-2063,12,28,21,-570,-736,166,653
,172,2023-10-27 11:52:03.53,6,-118,-2062,9,17,8,-648,-829,181,738
,173,2023-10-27 11:52:03.54,12,-126,-2049,8,11,7,-578,-737,159,657
,174,2023-10-27 11:52:03.55,11,-114,-2031,10,24,6,-657,-824,167,740
,175,2023-10-27 11:52:03.56,24,-119,-2045,6,16,2,-591,-746,155,668
,176,2023-10-27 11:52:03.57,17,-121,-2048,4,20,3,-664,-835,171,749
,177,2023-10-27 11:52:03.58,20,-137,-2058,-1,26,6,-600,-751,151,675
,178,2023-10-27 11:52:03.59,29,-133,-2070,-5,20,5,-663,-818,155,740
,179,2023-10-27 11:52:03.60,21,-142,-2075,-11,29,15,-603,-735,132,669
,180,2023-10-27 11:52:03.61,9,-148,-2072,-18,22,23,-660,-807,147,733
,181,2023-10-27 11:52:03.62,13,-142,-2066,-21,10,34,-609,-742,133,675
,182,2023-10-27 11:52:03.63,5,-132,-2066,-26,-3,43,-659,-815,156,737
,183,2023-10-27 11:52:03.64,0,-136,-2064,-23,5,59,-606,-735,129,670
,184,2023-10-27 11:52:03.65,-5,-120,-2056,-28,-9,63,-641,-789,148,715
,185,2023-10-27 11:52:03.66,-7,-116,-2057,-29,-15,68,-597,-741,144,669
,186,2023-10-27 11:52:03.67,-1,-118,-2056,-30,3,73,-637,-810,173,723
,187,2023-10-27 11:52:03.68,-3,-117,-2040,-23,-2,73,-602,-763,161,682
,188,2023-10-27 11:52:03.69,3,-122,-2025,-12,-8,69,-633,-814,181,723
,189,2023-10-27 11:52:03.70,-9,-115,-2024,-4,3,67,-604,-761,157,682
,190,2023-10-27 11:52:03.71,-11,-105,-2030,6,21,68,-632,-802,170,717
,191,2023-10-27 11:52:03.72,-2,-120,-2036,11,20,60,-609,-761,152,685
,192,2023-10-27 11:52:03.73,-11,-119,-2046,11,19,54,-629,-799,170,714
,193,2023-10-27 11:52:03.74,-9,-118,-2055,8,21,45,-606,-749,143,677
,194,2023-10-27 11:52:03.75,-8,-108,-2049,1,31,46,-616,-780,164,698
,195,2023-10-27 11:52:03.76,-9,-118,-2057,-5,28,43,-606,-742,136,674
,196,2023-10-27 11:52:03.77,-1,-126,-2061,-9,12,29,-612,-776,164,694
,197,2023-10-27 11:52:03.78,-5,-133,-2073,-9,15,31,-605,-770,165,687
,198,2023-10-27 11:52:03.79,-1,-136,-2078,-12,13,32,-606,-803,197,704
,199,2023-10-27 11:52:03.80,-3,-137,-2058,-6,20,33,-611,-774,163,692
,200,2023-10-27 11:52:03.81,7,-121,-2029,-10,40,38,-608,-780,172,694
,201,2023-10-27 11:52:03.82,8,-118,-2042,-8,36,37,-620,-766,146,693
,202,2023-10-27 11:52:03.83,3,-127,-2063,-7,23,35,-602,-780,178,691
,203,2023-10-27 11:52:03.84,4,-130,-2056,-1,20,41,-613,-771,158,692
,204,2023-10-27 11:52:03.85,6,-128,-2054,3,22,44,-592,-773,181,682
,205,2023-10-27 11:52:03.86,16,-130,-2062,4,26,51,-627,-769,142,698
,206,2023-10-27 11:52:03.87,1,-125,-2053,2,17,57,-609,-767,158,688
,207,2023-10-27 11:52:03.88,6,-126,-2050,7,12,60,-631,-779,148,705
,208,2023-10-27 11:52:03.89,4,-119,-2056,12,1,63,-605,-776,171,690
,209,2023-10-27 11:52:03.90,6,-110,-2056,14,7,68,-633,-788,155,710
,210,2023-10-27 11:52:03.91,0,-114,-2043,12,0,60,-595,-775,180,685
,211,2023-10-27 11:52:03.92,7,-104,-2040,11,-4,49,-623,-777,154,700
,212,2023-10-27 11:52:03.93,1,-107,-2044,16,4,48,-579,-754,175,666
,213,2023-10-27 11:52:03.94,5,-108,-2043,17,23,46,-625,-772,147,698
,214,2023-10-27 11:52:03.95,23,-117,-2043,16,4,36,-581,-754,173,667
,215,2023-10-27 11:52:03.96,23,-117,-2060,15,-2,26,-633,-778,145,705
,216,2023-10-27 11:52:03.97,4,-117,-2069,12,-3,32,-578,-751,173,664
,217,2023-10-27 11:52:03.98,5,-125,-2063,9,-4,34,-634,-776,142,705
,218,2023-10-27 11:52:03.99,2,-119,-2060,1,-11,34,-584,-741,157,662
,219,2023-10-27 11:52:04.00,-4,-129,-2063,-2,-18,35,-650,-783,133,716
,220,2023-10-27 11:52:04.01,8,-127,-2057,-2,-23,39,-584,-749,165,666
,221,2023-10-27 11:52:04.02,5,-132,-2061,-2,-14,50,-652,-810,158,731
,222,2023-10-27 11:52:04.03,-7,-138,-2053,3,-21,54,-586,-766,180,676
,223,2023-10-27 11:52:04.04,-14,-136,-2052,7,-40,56,-658,-796,138,727
,224,2023-10-27 11:52:04.05,-9,-136,-2046,19,-32,64,-575,-738,163,656
,225,2023-10-27 11:52:04.06,-14,-134,-2048,23,-30,67,-647,-801,154,724
,226,2023-10-27 11:52:04.07,-13,-130,-2052,30,-18,78,-566,-750,184,658
,227,2023-10-27 11:52:04.08,-15,-133,-2048,34,-22,71,-653,-794,141,723
,228,2023-10-27 11:52:04.09,-15,-124,-2035,35,-12,76,-565,-732,167,648
,229,2023-10-27 11:52:04.10,0,-119,-2033,31,-5,72,-648,-794,146,721
,230,2023-10-27 11:52:04.11,-21,-112,-2050,27,1,75,-555,-737,182,646
,231,2023-10-27 11:52:04.12,-9,-116,-2062,23,-3,72,-647,-810,163,728
,232,2023-10-27 11:52:04.13,-14,-118,-2069,16,-22,69,-557,-741,184,649
,233,2023-10-27 11:52:04.14,-28,-129,-2060,13,-28,66,-658,-821,163,739
,234,2023-10-27 11:52:04.15,-17,-120,-2055,9,-32,62,-557,-736,179,646
,235,2023-10-27 11:52:04.16,-10,-121,-2043,11,-12,63,-650,-817,167,733
,236,2023-10-27 11:52:04.17,-9,-127,-2044,13,-15,59,-538,-737,199,637
,237,2023-10-27 11:52:04.18,-9,-127,-2043,17,-9,48,-646,-824,178,735
,238,2023-10-27 11:52:04.19,-8,-122,-2035,24,2,45,-542,-739,197,640
,239,2023-10-27 11:52:04.20,-11,-114,-2041,24,16,40,-654,-829,175,741
,240,2023-10-27 11:52:04.21,-2,-118,-2046,21,22,34,-544,-736,192,640
,241,2023-10-27 11:52:04.22,-1,-121,-2058,19,23,31,-658,-822,164,740
,242,2023-10-27 11:52:04.23,-15,-120,-2069,13,17,26,-540,-719,179,629
,243,2023-10-27 11:52:04.24,-15,-128,-2069,8,7,22,-662,-805,143,733
,244,2023-10-27 11:52:04.25,-5,-126,-2062,11,11,27,-545,-707,162,626
,245,2023-10-27 11:52:04.26,-14,-130,-2053,13,9,25,-668,-809,141,738
,246,2023-10-27 11:52:04.27,-5,-135,-2040,14,9,30,-545,-714,169,629
,247,2023-10-27 11:52:04.28,0,-129,-2032,15,15,28,-661,-820,159,740
,248,2023-10-27 11:52:04.29,10,-122,-2039,14,22,24,-520,-714,194,617
,249,2023-10-27 11:52:04.30,-9,-122,-2056,13,27,25,-654,-812,158,733
,250,2023-10-27 11:52:04.31,3,-130,-2064,9,24,25,-527,-703,176,615
,251,2023-10-27 11:52:04.32,-6,-131,-2062,10,26,28,-665,-826,161,745
,252,2023-10-27 11:52:04.33,-3,-127,-2059,10,29,31,-531,-714,183,622
,253,2023-10-27 11:52:04.34,19,-125,-2052,10,26,32,-660,-827,167,743
,254,2023-10-27 11:52:04.35,-10,-120,-2036,5,31,27,-528,-710,182,619
,255,2023-10-27 11:52:04.36,-1,-117,-2043,4,26,16,-660,-812,152,736
,256,2023-10-27 11:52:04.37,11,-116,-2039,6,40,9,-525,-698,173,611
,257,2023-10-27 11:52:04.38,14,-115,-2037,5,38,1,-666,-836,170,751
,258,2023-10-27 11:52:04.39,9,-112,-2045,6,38,0,-530,-713,183,621
,259,2023-10-27 11:52:04.40,14,-127,-2055,9,27,-5,-671,-815,144,743
,260,2023-10-27 11:52:04.41,-2,-135,-2066,8,20,-5,-528,-681,153,604
,261,2023-10-27 11:52:04.42,11,-150,-2066,13,4,4,-665,-800,135,732
,262,2023-10-27 11:52:04.43,4,-151,-2068,19,-19,9,-516,-675,159,595
,263,2023-10-27 11:52:04.44,-5,-151,-2061,30,-29,25,-655,-801,146,728
,264,2023-10-27 11:52:04.45,8,-145,-2054,26,-25,46,-508,-680,172,594
,265,2023-10-27 11:52:04.46,2,-147,-2059,24,-17,62,-653,-816,163,734
,266,2023-10-27 11:52:04.47,-2,-138,-2049,22,-30,72,-509,-690,181,599
,267,2023-10-27 11:52:04.48,0,-132,-2049,25,-20,82,-652,-823,171,737
,268,2023-10-27 11:52:04.49,4,-134,-2046,29,-13,87,-508,-685,177,596
,269,2023-10-27 11:52:04.50,-17,-125,-2048,34,-4,95,-654,-813,159,733
,270,2023-10-27 11:52:04.51,-7,-118,-2042,36,-3,87,-508,-677,169,592
,271,2023-10-27 11:52:04.52,-14,-119,-2040,38,8,84,-649,-813,164,731
,272,2023-10-27 11:52:04.53,-3,-122,-2043,42,9,80,-498,-682,184,590
,273,2023-10-27 11:52:04.54,-6,-114,-2044,44,-5,70,-635,-820,185,727
,274,2023-10-27 11:52:04.55,-8,-112,-2053,42,2,63,-484,-683,199,583
,275,2023-10-27 11:52:04.56,2,-112,-2045,36,11,55,-629,-819,190,724
,276,2023-10-27 11:52:04.57,-21,-124,-2046,29,7,49,-486,-676,190,581
,277,2023-10-27 11:52:04.58,-10,-137,-2055,27,20,51,-623,-802,179,712
,278,2023-10-27 11:52:04.59,-14,-125,-2068,23,23,46,-474,-668,194,571
,279,2023-10-27 11:52:04.60,-4,-133,-2060,17,6,45,-611,-817,206,714
,280,2023-10-27 11:52:04.61,-10,-135,-2053,20,-2,44,-465,-688,223,576
,281,2023-10-27 11:52:04.62,-9,-142,-2051,21,-2,42,-610,-833,223,721
,282,2023-10-27 11:52:04.63,-8,-141,-2056,24,-5,45,-468,-696,228,582
,283,2023-10-27 11:52:04.64,-11,-131,-2051,26,-4,51,-608,-834,226,721
,284,2023-10-27 11:52:04.65,-10,-150,-2045,28,-21,51,-473,-689,216,581
,285,2023-10-27 11:52:04.66,-6,-146,-2044,28,-14,52,-619,-814,195,716
,286,2023-10-27 11:52:04.67,-6,-155,-2045,27,0,63,-474,-677,203,575
,287,2023-10-27 11:52:04.68,-11,-149,-2053,28,15,71,-602,-834,232,718
,288,2023-10-27 11:52:04.69,-4,-144,-2048,31,14,72,-462,-693,231,577
,289,2023-10-27 11:52:04.70,-6,-145,-2046,30,15,66,-602,-820,218,711
,290,2023-10-27 11:52:04.71,0,-138,-2040,28,23,69,-471,-687,216,579
,291,2023-10-27 11:52:04.72,2,-129,-2041,29,26,63,-603,-828,225,715
,292,2023-10-27 11:52:04.73,2,-130,-2049,24,19,54,-475,-692,217,583
,293,2023-10-27 11:52:04.74,-6,-125,-2052,22,23,50,-601,-808,207,704
,294,2023-10-27 11:52:04.75,6,-125,-2056,20,12,47,-470,-674,204,572
,295,2023-10-27 11:52:04.76,-2,-120,-2054,20,17,45,-592,-816,224,704
,296,2023-10-27 11:52:04.77,-8,-133,-2054,13,3,30,-465,-685,220,575
,297,2023-10-27 11:52:04.78,-3,-142,-2056,16,-8,24,-596,-806,210,701
,298,2023-10-27 11:52:04.79,5,-136,-2058,16,4,26,-479,-678,199,578
,299,2023-10-27 11:52:04.80,0,-140,-2055,12,-2,21,-601,-816,215,708
,300,2023-10-27 11:52:04.81,-3,-134,-2043,8,3,16,-480,-706,226,593
,301,2023-10-27 11:52:04.82,8,-139,-2051,6,3,14,-592,-840,248,716
,302,2023-10-27 11:52:04.83,9,-152,-2047,10,-1,15,-472,-712,240,592
,303,2023-10-27 11:52:04.84,2,-143,-2043,12,0,16,-587,-833,246,710
,304,2023-10-27 11:52:04.85,3,-147,-2049,15,0,17,-476,-711,235,593
,305,2023-10-27 11:52:04.86,-8,-139,-2043,16,2,19,-578,-832,254,705
,306,2023-10-27 11:52:04.87,1,-148,-2057,12,6,19,-470,-729,259,599
,307,2023-10-27 11:52:04.88,-3,-145,-2047,13,10,26,-570,-856,286,713
,308,2023-10-27 11:52:04.89,-2,-136,-2050,10,3,27,-463,-741,278,602
,309,2023-10-27 11:52:04.90,0,-146,-2049,8,-7,28,-554,-844,290,699
,310,2023-10-27 11:52:04.91,-5,-140,-2053,13,-6,35,-458,-741,283,599
,311,2023-10-27 11:52:04.92,5,-138,-2061,14,-6,39,-555,-853,298,704
,312,2023-10-27 11:52:04.93,-5,-146,-2059,16,-16,37,-467,-751,284,609
,313,2023-10-27 11:52:04.94,2,-150,-2060,18,-10,45,-553,-855,302,704
,314,2023-10-27 11:52:04.95,-4,-145,-2050,21,-21,45,-458,-755,297,606
,315,2023-10-27 11:52:04.96,-13,-148,-2047,19,-15,41,-534,-849,315,691
,316,2023-10-27 11:52:04.97,-4,-149,-2051,20,7,48,-448,-757,309,602
,317,2023-10-27 11:52:04.98,-20,-146,-2041,18,5,45,-518,-854,336,686
,318,2023-10-27 11:52:04.99,-8,-154,-2043,23,-13,40,-438,-774,336,606
,319,2023-10-27 11:52:05.00,-5,-155,-2044,25,6,42,-503,-867,364,685
,320,2023-10-27 11:52:05.01,-8,-141,-2057,29,-1,42,-436,-778,342,607
,321,2023-10-27 11:52:05.02,-11,-136,-2052,23,16,38,-503,-863,360,683
,322,2023-10-27 11:52:05.03,-11,-135,-2053,17,20,32,-434,-783,349,608
,323,2023-10-27 11:52:05.04,-12,-133,-2057,25,11,26,-484,-863,379,673
,324,2023-10-27 11:52:05.05,-6,-125,-2052,31,-5,24,-428,-797,369,612
,325,2023-10-27 11:52:05.06,1,-124,-2050,30,-16,19,-487,-872,385,679
,326,2023-10-27 11:52:05.07,1,-128,-2062,23,-10,13,-443,-803,360,623
,327,2023-10-27 11:52:05.08,0,-144,-2063,13,5,10,-492,-868,376,680
,328,2023-10-27 11:52:05.09,-11,-153,-2058,12,15,19,-451,-826,375,638
,329,2023-10-27 11:52:05.10,6,-163,-2050,18,-4,17,-488,-901,413,694
,330,2023-10-27 11:52:05.11,5,-157,-2039,28,-17,23,-441,-848,407,644
,331,2023-10-27 11:52:05.12,2,-158,-2044,39,-21,27,-480,-887,407,683
,332,2023-10-27 11:52:05.13,3,-147,-2053,40,-7,32,-448,-821,373,634
,333,2023-10-27 11:52:05.14,-9,-153,-2053,31,-6,27,-480,-869,389,674
,334,2023-10-27 11:52:05.15,-19,-150,-2055,33,6,28,-446,-823,377,634
,335,2023-10-27 11:52:05.16,-12,-140,-2047,36,1,29,-477,-873,396,675
,336,2023-10-27 11:52:05.17,-1,-139,-2055,41,-4,29,-454,-836,382,645
,337,2023-10-27 11:52:05.18,4,-145,-2054,39,-11,25,-476,-878,402,677
,338,2023-10-27 11:52:05.19,6,-142,-2039,34,-10,21,-463,-846,383,654
,339,2023-10-27 11:52:05.20,-12,-164,-2049,26,1,19,-481,-888,407,684
,340,2023-10-27 11:52:05.21,-13,-173,-2048,34,-14,23,-477,-850,373,663
,341,2023-10-27 11:52:05.22,-11,-178,-2043,40,-25,30,-481,-870,389,675
,342,2023-10-27 11:52:05.23,-20,-175,-2035,39,-23,34,-475,-836,361,655
,343,2023-10-27 11:52:05.24,-11,-163,-2041,33,8,45,-478,-858,380,668
,344,2023-10-27 11:52:05.25,-34,-169,-2042,21,20,42,-484,-825,341,654
,345,2023-10-27 11:52:05.26,-23,-162,-2061,21,19,54,-483,-837,354,660
,346,2023-10-27 11:52:05.27,-17,-167,-2054,20,0,47,-503,-804,301,653
,347,2023-10-27 11:52:05.28,-17,-168,-2055,17,6,51,-494,-817,323,655
,348,2023-10-27 11:52:05.29,-22,-157,-2048,17,9,52,-505,-813,308,659
,349,2023-10-27 11:52:05.30,-20,-139,-2046,11,11,52,-486,-838,352,662
,350,2023-10-27 11:52:05.31,-20,-155,-2044,9,12,45,-506,-833,327,669
,351,2023-10-27 11:52:05.32,-32,-154,-2049,12,14,45,-487,-833,346,660
,352,2023-10-27 11:52:05.33,-10,-155,-2042,15,7,39,-519,-818,299,668
,353,2023-10-27 11:52:05.34,-9,-156,-2047,13,2,31,-488,-815,327,651
,354,2023-10-27 11:52:05.35,-2,-163,-2043,16,15,33,-519,-818,299,668
,355,2023-10-27 11:52:05.36,-8,-167,-2029,17,28,35,-478,-821,343,649
,356,2023-10-27 11:52:05.37,-10,-174,-2024,22,20,29,-504,-828,324,666
,357,2023-10-27 11:52:05.38,-12,-170,-2040,27,30,28,-454,-819,365,636
,358,2023-10-27 11:52:05.39,3,-155,-2044,29,33,21,-493,-831,338,662
,359,2023-10-27 11:52:05.40,8,-154,-2051,27,41,24,-454,-820,366,637
,360,2023-10-27 11:52:05.41,10,-165,-2046,27,37,18,-517,-832,315,674
,361,2023-10-27 11:52:05.42,11,-156,-2062,24,36,14,-467,-809,342,638
,362,2023-10-27 11:52:05.43,27,-143,-2056,17,33,14,-514,-840,326,677
,363,2023-10-27 11:52:05.44,25,-148,-2050,7,26,12,-456,-822,366,639
,364,2023-10-27 11:52:05.45,25,-145,-2057,4,11,9,-521,-850,329,685
,365,2023-10-27 11:52:05.46,15,-157,-2067,-3,1,11,-462,-816,354,639
,366,2023-10-27 11:52:05.47,8,-167,-2090,-1,1,19,-528,-843,315,685
,367,2023-10-27 11:52:05.48,14,-161,-2079,-4,-10,32,-457,-810,353,633
,368,2023-10-27 11:52:05.49,2,-160,-2064,-4,-30,37,-525,-848,323,686
,369,2023-10-27 11:52:05.50,6,-163,-2061,-1,-43,38,-455,-813,358,634
,370,2023-10-27 11:52:05.51,4,-148,-2050,0,-42,47,-535,-860,325,697
,371,2023-10-27 11:52:05.52,-10,-153,-2051,-2,-32,55,-456,-810,354,633
,372,2023-10-27 11:52:05.53,-14,-150,-2061,-6,-33,58,-539,-849,310,694
,373,2023-10-27 11:52:05.54,-31,-154,-2060,-9,-24,56,-456,-787,331,621
,374,2023-10-27 11:52:05.55,-27,-148,-2050,-12,-33,53,-544,-845,301,694
,375,2023-10-27 11:52:05.56,-28,-144,-2039,-12,-30,50,-443,-794,351,618
,376,2023-10-27 11:52:05.57,-18,-134,-2023,-11,-27,50,-531,-857,326,694
,377,2023-10-27 11:52:05.58,-27,-143,-2027,-4,-21,50,-436,-795,359,615
,378,2023-10-27 11:52:05.59,-26,-147,-2032,5,-18,49,-537,-858,321,697
,379,2023-10-27 11:52:05.60,1,-141,-2042,12,-18,46,-441,-802,361,621
,380,2023-10-27 11:52:05.61,-10,-135,-2045,11,-2,37,-537,-873,336,705
,381,2023-10-27 11:52:05.62,-34,-150,-2040,4,22,34,-431,-806,375,618
,382,2023-10-27 11:52:05.63,-23,-149,-2049,9,16,34,-533,-890,357,711
,383,2023-10-27 11:52:05.64,-20,-150,-2043,16,-7,30,-427,-824,397,625
,384,2023-10-27 11:52:05.65,-16,-154,-2052,17,-5,24,-536,-901,365,718
,385,2023-10-27 11:52:05.66,-24,-145,-2053,10,-2,19,-426,-814,388,620
,386,2023-10-27 11:52:05.67,-20,-155,-2050,6,8,18,-537,-885,348,711
,387,2023-10-27 11:52:05.68,-14,-142,-2056,5,6,12,-420,-805,385,612
,388,2023-10-27 11:52:05.69,1,-144,-2051,-1,6,14,-541,-902,361,721
,389,2023-10-27 11:52:05.70,-15,-162,-2057,-3,-3,3,-428,-822,394,625
,390,2023-10-27 11:52:05.71,-3,-160,-2064,2,-10,4,-549,-913,364,731
,391,2023-10-27 11:52:05.72,-7,-153,-2052,7,-10,3,-426,-807,381,616
,392,2023-10-27 11:52:05.73,-9,-152,-2060,8,-10,4,-551,-880,329,715
,393,2023-10-27 11:52:05.74,-4,-156,-2057,7,-6,4,-422,-788,366,605
,394,2023-10-27 11:52:05.75,-20,-160,-2051,11,-5,5,-549,-898,349,723
,395,2023-10-27 11:52:05.76,-19,-161,-2050,14,-15,0,-426,-818,392,622
,396,2023-10-27 11:52:05.77,-10,-163,-2040,15,-7,9,-559,-925,366,742
,397,2023-10-27 11:52:05.78,-15,-171,-2046,12,-5,9,-428,-817,389,622
,398,2023-10-27 11:52:05.79,-17,-169,-2051,16,0,17,-555,-900,345,727
,399,2023-10-27 11:52:05.80,-33,-174,-2043,16,4,24,-417,-781,364,599
,400,2023-10-27 11:52:05.81,-12,-170,-2046,15,0,25,-550,-876,326,713
,401,2023-10-27 11:52:05.82,-22,-163,-2046,15,7,28,-421,-771,350,596
,402,2023-10-27 11:52:05.83,-31,-156,-2040,12,18,26,-562,-888,326,725
,403,2023-10-27 11:52:05.84,-17,-159,-2038,9,27,28,-425,-778,353,601
,404,2023-10-27 11:52:05.85,-13,-153,-2046,7,19,18,-561,-884,323,722
,405,2023-10-27 11:52:05.86,-12,-151,-2053,5,15,16,-412,-770,358,591
,406,2023-10-27 11:52:05.87,-10,-157,-2048,5,14,11,-544,-888,344,716
,407,2023-10-27 11:52:05.88,-15,-148,-2044,6,15,6,-404,-769,365,586
,408,2023-10-27 11:52:05.89,-16,-159,-2044,4,12,3,-557,-878,321,717
,409,2023-10-27 11:52:05.90,-17,-158,-2046,1,8,-3,-410,-756,346,583
,410,2023-10-27 11:52:05.91,-19,-152,-2056,-1,-2,-9,-554,-889,335,721
,411,2023-10-27 11:52:05.92,-12,-165,-2053,3,1,-9,-411,-775,364,593
,412,2023-10-27 11:52:05.93,-23,-160,-2059,2,7,-5,-549,-898,349,723
,413,2023-10-27 11:52:05.94,-13,-157,-2066,0,3,-3,-415,-770,355,592
,414,2023-10-27 11:52:05.95,-17,-152,-2058,-3,-10,-3,-570,-888,318,729
,415,2023-10-27 11:52:05.96,-23,-155,-2053,-4,-2,3,-430,-762,332,596
,416,2023-10-27 11:52:05.97,-22,-158,-2048,-2,0,4,-564,-887,323,725
,417,2023-10-27 11:52:05.98,-14,-159,-2043,1,8,12,-412,-767,355,589
,418,2023-10-27 11:52:05.99,-16,-149,-2036,0,12,15,-556,-898,342,727
,419,2023-10-27 11:52:06.00,-9,-153,-2036,7,16,16,-410,-770,360,590
,420,2023-10-27 11:52:06.01,-11,-145,-2038,8,16,15,-553,-888,335,720
,421,2023-10-27 11:52:06.02,-3,-143,-2045,5,21,12,-411,-747,336,579
,422,2023-10-27 11:52:06.03,-14,-143,-2045,5,32,4,-561,-878,317,719
,423,2023-10-27 11:52:06.04,-7,-142,-2065,3,36,6,-410,-760,350,585
,424,2023-10-27 11:52:06.05,-18,-145,-2069,-1,21,-3,-549,-898,349,723
,425,2023-10-27 11:52:06.06,-21,-145,-2074,-2,12,-9,-402,-777,375,589
,426,2023-10-27 11:52:06.07,-16,-141,-2072,-2,9,-8,-538,-912,374,725
,427,2023-10-27 11:52:06.08,-19,-138,-2061,6,1,-10,-397,-787,390,592
,428,2023-10-27 11:52:06.09,-5,-135,-2037,13,-12,-21,-537,-915,378,726
,429,2023-10-27 11:52:06.10,-11,-126,-2027,22,-21,-38,-391,-779,388,585
,430,2023-10-27 11:52:06.11,-12,-133,-2042,30,-4,-52,-530,-900,370,715
,431,2023-10-27 11:52:06.12,-12,-132,-2043,38,-3,-56,-388,-756,368,572
,432,2023-10-27 11:52:06.13,-13,-128,-2041,41,-9,-60,-538,-876,338,707
,433,2023-10-27 11:52:06.14,-16,-154,-2044,51,-20,-58,-404,-739,335,571
,434,2023-10-27 11:52:06.15,-19,-156,-2060,54,-17,-49,-539,-875,336,707
,435,2023-10-27 11:52:06.16,-26,-174,-2064,56,-32,-42,-396,-761,365,578
,436,2023-10-27 11:52:06.17,-27,-170,-2058,60,-43,-26,-532,-902,370,717
,437,2023-10-27 11:52:06.18,-18,-180,-2049,57,-54,-22,-400,-770,370,585
,438,2023-10-27 11:52:06.19,-4,-175,-2052,48,-33,-8,-528,-897,369,712
,439,2023-10-27 11:52:06.20,-10,-172,-2058,43,-18,1,-388,-766,378,577
,440,2023-10-27 11:52:06.21,-14,-168,-2044,43,-12,5,-517,-894,377,705
,441,2023-10-27 11:52:06.22,-9,-172,-2041,44,-3,2,-389,-756,367,572
,442,2023-10-27 11:52:06.23,-14,-167,-2041,44,5,5,-519,-879,360,699
,443,2023-10-27 11:52:06.24,-10,-169,-2043,41,12,10,-394,-745,351,569
,444,2023-10-27 11:52:06.25,-21,-174,-2029,36,21,14,-527,-872,345,699
,445,2023-10-27 11:52:06.26,-14,-169,-2041,31,24,14,-408,-754,346,581
,446,2023-10-27 11:52:06.27,-11,-172,-2055,26,18,14,-541,-892,351,716
,447,2023-10-27 11:52:06.28,-14,-168,-2064,24,21,21,-417,-767,350,592
,448,2023-10-27 11:52:06.29,-19,-156,-2061,7,31,25,-535,-882,347,708
,449,2023-10-27 11:52:06.30,-26,-176,-2052,2,19,19,-409,-748,339,578
,450,2023-10-27 11:52:06.31,-22,-161,-2059,-3,20,18,-534,-866,332,700
,451,2023-10-27 11:52:06.32,-14,-159,-2041,-2,14,12,-414,-757,343,585
,452,2023-10-27 11:52:06.33,-16,-160,-2040,1,29,10,-531,-895,364,713
,453,2023-10-27 11:52:06.34,0,-147,-2036,2,44,9,-410,-777,367,593
,454,2023-10-27 11:52:06.35,14,-155,-2028,6,52,-4,-526,-887,361,706
,455,2023-10-27 11:52:06.36,3,-159,-2032,15,70,-9,-411,-756,345,583
,456,2023-10-27 11:52:06.37,9,-163,-2044,32,53,-18,-509,-866,357,687
,457,2023-10-27 11:52:06.38,14,-159,-2052,55,48,-16,-400,-752,352,576
,458,2023-10-27 11:52:06.39,16,-169,-2058,59,38,-29,-512,-880,368,696
,459,2023-10-27 11:52:06.40,23,-171,-2071,62,31,-31,-415,-779,364,597
,460,2023-10-27 11:52:06.41,11,-176,-2063,70,17,-26,-504,-882,378,693
,461,2023-10-27 11:52:06.42,21,-187,-2071,70,6,-30,-400,-768,368,584
,462,2023-10-27 11:52:06.43,16,-189,-2066,69,10,-25,-494,-871,377,682
,463,2023-10-27 11:52:06.44,10,-194,-2058,69,17,-23,-407,-771,364,589
,464,2023-10-27 11:52:06.45,4,-193,-2069,64,-2,-28,-510,-878,368,694
,465,2023-10-27 11:52:06.46,-1,-199,-2061,59,0,-34,-424,-772,348,598
,466,2023-10-27 11:52:06.47,-10,-202,-2053,62,5,-35,-520,-874,354,697
,467,2023-10-27 11:52:06.48,-8,-207,-2051,66,4,-37,-437,-789,352,613
,468,2023-10-27 11:52:06.49,-10,-201,-2036,68,8,-46,-530,-900,370,715
,469,2023-10-27 11:52:06.50,-8,-198,-2019,61,32,-56,-453,-795,342,624
,470,2023-10-27 11:52:06.51,-9,-199,-2015,60,35,-70,-536,-877,341,706
,471,2023-10-27 11:52:06.52,-10,-206,-2011,58,38,-80,-450,-780,330,615
,472,2023-10-27 11:52:06.53,-6,-205,-2010,55,53,-87,-511,-875,364,693
,473,2023-10-27 11:52:06.54,1,-201,-2024,48,45,-101,-437,-794,357,615
,474,2023-10-27 11:52:06.55,-1,-208,-2041,36,55,-109,-520,-885,365,702
,475,2023-10-27 11:52:06.56,4,-204,-2059,19,58,-116,-455,-794,339,624
,476,2023-10-27 11:52:06.57,9,-204,-2064,0,67,-117,-516,-868,352,692
,477,2023-10-27 11:52:06.58,10,-200,-2057,-22,71,-119,-448,-782,334,615
,478,2023-10-27 11:52:06.59,16,-192,-2043,-47,75,-123,-504,-860,356,682
,479,2023-10-27 11:52:06.60,18,-172,-2037,-61,84,-119,-450,-776,326,613
,480,2023-10-27 11:52:06.61,21,-167,-2042,-77,90,-124,-508,-843,335,675
,481,2023-10-27 11:52:06.62,20,-163,-2051,-82,85,-125,-452,-768,316,610
,482,2023-10-27 11:52:06.63,12,-153,-2052,-88,75,-126,-504,-838,334,671
,483,2023-10-27 11:52:06.64,17,-153,-2072,-86,53,-134,-465,-770,305,617
,484,2023-10-27 11:52:06.65,14,-151,-2067,-82,40,-125,-512,-840,328,676
,485,2023-10-27 11:52:06.66,10,-139,-2068,-78,28,-128,-473,-790,317,631
,486,2023-10-27 11:52:06.67,12,-127,-2050,-73,9,-131,-504,-863,359,683
,487,2023-10-27 11:52:06.68,20,-120,-2036,-66,10,-137,-470,-812,342,641
,488,2023-10-27 11:52:06.69,11,-115,-2027,-59,9,-140,-514,-863,349,688
,489,2023-10-27 11:52:06.70,10,-114,-2041,-54,10,-147,-489,-807,318,648
,490,2023-10-27 11:52:06.71,11,-125,-2037,-46,14,-146,-511,-850,339,680
,491,2023-10-27 11:52:06.72,8,-132,-2048,-40,10,-143,-500,-780,280,640
,492,2023-10-27 11:52:06.73,-6,-140,-2058,-31,-4,-147,-523,-812,289,667
,493,2023-10-27 11:52:06.74,-4,-155,-2072,-21,-11,-132,-496,-775,279,635
,494,2023-10-27 11:52:06.75,0,-161,-2070,-6,-13,-123,-488,-824,336,656
,495,2023-10-27 11:52:06.76,-10,-162,-2061,8,-20,-111,-456,-759,303,607
,496,2023-10-27 11:52:06.77,-9,-163,-2050,23,-34,-105,-416,-787,371,601
,497,2023-10-27 11:52:06.78,-3,-167,-2052,38,-39,-101,-392,-776,384,584
,498,2023-10-27 11:52:06.79,3,-169,-2038,51,-40,-97,-391,-819,428,605
,499,2023-10-27 11:52:06.80,1,-163,-2020,59,-31,-105,-415,-782,367,598
,500,2023-10-27 11:52:06.81,5,-170,-2023,71,-22,-116,-419,-805,386,612
,501,2023-10-27 11:52:06.82,18,-170,-2043,75,-2,-128,-434,-766,332,600
,502,2023-10-27 11:52:06.83,15,-184,-2029,68,42,-137,-432,-783,351,607
,503,2023-10-27 11:52:06.84,8,-210,-2034,65,58,-149,-445,-770,325,607
,504,2023-10-27 11:52:06.85,6,-225,-2034,63,89,-155,-417,-800,383,608
,505,2023-10-27 11:52:06.86,20,-251,-2025,84,69,-164,-454,-797,343,625
,506,2023-10-27 11:52:06.87,23,-232,-2049,110,56,-165,-437,-808,371,622
,507,2023-10-27 11:52:06.88,17,-234,-2037,101,68,-167,-470,-797,327,633
,508,2023-10-27 11:52:06.89,32,-234,-2036,92,68,-170,-448,-798,350,623
,509,2023-10-27 11:52:06.90,18,-225,-2055,81,62,-175,-478,-790,312,634
,510,2023-10-27 11:52:06.91,16,-202,-2053,71,43,-179,-428,-789,361,608
,511,2023-10-27 11:52:06.92,27,-189,-2051,57,30,-182,-466,-796,330,631
,512,2023-10-27 11:52:06.93,60,-154,-2038,23,30,-190,-437,-787,350,612
,513,2023-10-27 11:52:06.94,58,-134,-2036,-20,72,-205,-490,-795,305,642
,514,2023-10-27 11:52:06.95,60,-135,-2034,-60,117,-221,-442,-776,334,609
,515,2023-10-27 11:52:06.96,60,-137,-2017,-84,132,-229,-484,-794,310,639
,516,2023-10-27 11:52:06.97,64,-142,-2014,-81,128,-233,-424,-774,350,599
,517,2023-10-27 11:52:06.98,70,-143,-2033,-71,112,-242,-474,-788,314,631
,518,2023-10-27 11:52:06.99,80,-136,-2056,-60,102,-241,-411,-771,360,591
,519,2023-10-27 11:52:07.00,84,-150,-2078,-50,75,-234,-479,-803,324,641
,520,2023-10-27 11:52:07.01,75,-159,-2080,-38,34,-222,-415,-777,362,596
,521,2023-10-27 11:52:07.02,86,-155,-2080,-30,19,-205,-491,-813,322,652
,522,2023-10-27 11:52:07.03,88,-144,-2086,-29,16,-182,-435,-788,353,611
,523,2023-10-27 11:52:07.04,88,-151,-2067,-40,34,-157,-519,-831,312,675
,524,2023-10-27 11:52:07.05,90,-172,-2057,-38,22,-142,-446,-794,348,620
,525,2023-10-27 11:52:07.06,81,-169,-2060,-25,32,-120,-520,-842,322,681
,526,2023-10-27 11:52:07.07,100,-184,-2041,-11,19,-99,-442,-788,346,615
,527,2023-10-27 11:52:07.08,88,-184,-2038,8,12,-79,-525,-826,301,675
,528,2023-10-27 11:52:07.09,90,-184,-2043,27,12,-59,-440,-766,326,603
,529,2023-10-27 11:52:07.10,96,-179,-2042,35,14,-49,-526,-834,308,680
,530,2023-10-27 11:52:07.11,103,-175,-2052,38,26,-38,-447,-790,343,618
,531,2023-10-27 11:52:07.12,101,-177,-2056,38,39,-28,-535,-854,319,694
,532,2023-10-27 11:52:07.13,101,-178,-2058,22,60,-17,-443,-788,345,615
,533,2023-10-27 11:52:07.14,96,-179,-2078,8,67,-21,-526,-857,331,691
,534,2023-10-27 11:52:07.15,89,-191,-2086,1,66,-13,-442,-750,308,596
,535,2023-10-27 11:52:07.16,81,-207,-2086,6,58,-7,-558,-672,114,615
,536,2023-10-27 11:52:07.17,98,-205,-2081,6,52,-5,-387,-644,257,515
,537,2023-10-27 11:52:07.18,81,-201,-2084,2,42,-3,-377,-848,471,612
,538,2023-10-27 11:52:07.19,75,-194,-2066,-5,45,3,-250,-844,594,547
,539,2023-10-27 11:52:07.20,67,-186,-2066,-6,19,-1,-383,-918,535,650
,540,2023-10-27 11:52:07.21,65,-184,-2058,-8,7,-1,-320,-817,497,568
,541,2023-10-27 11:52:07.22,68,-167,-2042,-17,-5,-4,-453,-891,438,672
,542,2023-10-27 11:52:07.23,63,-161,-2023,-19,-3,-6,-353,-810,457,581
,543,2023-10-27 11:52:07.24,53,-151,-2037,-31,15,1,-480,-904,424,692
,544,2023-10-27 11:52:07.25,49,-165,-2043,-42,1,-2,-374,-817,443,595
,545,2023-10-27 11:52:07.26,44,-178,-2042,-48,4,6,-504,-895,391,699
,546,2023-10-27 11:52:07.27,50,-184,-2035,-43,0,16,-392,-803,411,597
,547,2023-10-27 11:52:07.28,59,-180,-2024,-30,12,30,-522,-911,389,716
,548,2023-10-27 11:52:07.29,62,-177,-2021,-15,7,41,-407,-815,408,611
,549,2023-10-27 11:52:07.30,53,-164,-2027,1,12,45,-534,-912,378,723
,550,2023-10-27 11:52:07.31,65,-160,-2032,12,15,46,-410,-804,394,607
,551,2023-10-27 11:52:07.32,56,-151,-2043,26,26,45,-543,-901,358,722
,552,2023-10-27 11:52:07.33,78,-145,-2049,32,15,49,-413,-793,380,603
,553,2023-10-27 11:52:07.34,95,-147,-2061,47,6,49,-548,-891,343,719
,554,2023-10-27 11:52:07.35,84,-144,-2064,44,18,51,-423,-774,351,598
,555,2023-10-27 11:52:07.36,79,-152,-2075,37,20,49,-566,-860,294,713
,556,2023-10-27 11:52:07.37,84,-152,-2071,34,16,50,-431,-745,314,588
,557,2023-10-27 11:52:07.38,94,-168,-2064,35,16,51,-562,-864,302,713
,558,2023-10-27 11:52:07.39,100,-165,-2061,41,8,53,-422,-756,334,589
,559,2023-10-27 11:52:07.40,91,-163,-2053,49,-4,55,-562,-872,310,717
,560,2023-10-27 11:52:07.41,88,-178,-2057,47,-2,56,-420,-765,345,592
,561,2023-10-27 11:52:07.42,95,-167,-2050,41,1,55,-563,-883,320,723
,562,2023-10-27 11:52:07.43,91,-160,-2046,40,20,61,-428,-762,334,595
,563,2023-10-27 11:52:07.44,95,-178,-2038,34,21,59,-576,-867,291,721
,564,2023-10-27 11:52:07.45,85,-180,-2042,37,21,62,-436,-738,302,587
,565,2023-10-27 11:52:07.46,88,-171,-2049,31,13,59,-572,-859,287,715
,566,2023-10-27 11:52:07.47,90,-172,-2050,25,7,65,-416,-748,332,582
,567,2023-10-27 11:52:07.48,85,-174,-2037,19,-8,67,-556,-897,341,726
,568,2023-10-27 11:52:07.49,86,-176,-2041,17,6,71,-406,-776,370,591
,569,2023-10-27 11:52:07.50,73,-172,-2045,18,-8,75,-551,-892,341,721
