// Data mode  : Full
// Data quality  : High
// Acceleration sensor's range  : 16g
// Gyroscope sensor's range  : 2000dps
//
//ARTIFACT,NUM,DATE,ACC_X,ACC_Y,ACC_Z,GYRO_X,GYRO_Y,GYRO_Z,EOG_L,EOG_R,EOG_H,EOG_V
,1,2023-10-27 12:26:15.36,118,-44,-2046,73,-37,54,183,326,-143,-254
,2,2023-10-27 12:26:15.37,132,-51,-2052,82,-31,52,430,508,-78,-469
,3,2023-10-27 12:26:15.38,117,-65,-2052,88,-28,46,230,339,-109,-284
,4,2023-10-27 12:26:15.39,124,-66,-2046,95,-27,49,483,541,-58,-512
,5,2023-10-27 12:26:15.40,122,-68,-2047,103,-27,45,264,360,-96,-312
,6,2023-10-27 12:26:15.41,113,-73,-2049,108,-26,47,506,560,-54,-533
,7,2023-10-27 12:26:15.42,116,-78,-2047,113,-25,48,267,369,-102,-318
,8,2023-10-27 12:26:15.43,114,-84,-2048,116,-29,45,509,566,-57,-537
,9,2023-10-27 12:26:15.44,124,-90,-2047,118,-30,50,265,360,-95,-312
,10,2023-10-27 12:26:15.45,119,-91,-2047,118,-32,50,521,574,-53,-547
,11,2023-10-27 12:26:15.46,123,-99,-2048,119,-29,49,272,365,-93,-318
,12,2023-10-27 12:26:15.47,126,-108,-2058,120,-39,53,526,582,-56,-554
,13,2023-10-27 12:26:15.48,108,-115,-2055,126,-40,63,276,366,-90,-321
,14,2023-10-27 12:26:15.49,109,-123,-2048,127,-43,64,535,591,-56,-563
,15,2023-10-27 12:26:15.50,111,-121,-2045,130,-41,75,269,367,-98,-318
,16,2023-10-27 12:26:15.51,106,-126,-2047,127,-35,84,531,590,-59,-560
,17,2023-10-27 12:26:15.52,109,-131,-2042,120,-30,91,264,360,-96,-312
,18,2023-10-27 12:26:15.53,110,-127,-2037,115,-21,98,544,602,-58,-573
,19,2023-10-27 12:26:15.54,108,-124,-2041,109,-21,103,322,411,-89,-366
,20,2023-10-27 12:26:15.55,109,-116,-2036,103,-7,112,554,639,-85,-596
,21,2023-10-27 12:26:15.56,115,-120,-2038,100,3,116,234,373,-139,-303
,22,2023-10-27 12:26:15.57,113,-114,-2029,93,5,114,461,586,-125,-523
,23,2023-10-27 12:26:15.58,116,-110,-2031,81,18,121,181,332,-151,-256
,24,2023-10-27 12:26:15.59,123,-109,-2044,67,16,120,443,572,-129,-507
,25,2023-10-27 12:26:15.60,129,-99,-2045,51,33,130,171,331,-160,-251
,26,2023-10-27 12:26:15.61,130,-89,-2054,36,29,125,420,562,-142,-491
,27,2023-10-27 12:26:15.62,131,-101,-2054,23,40,132,154,320,-166,-237
,28,2023-10-27 12:26:15.63,138,-105,-2067,8,34,136,418,566,-148,-492
,29,2023-10-27 12:26:15.64,154,-99,-2038,2,37,144,149,319,-170,-234
,30,2023-10-27 12:26:15.65,157,-104,-2044,-6,37,150,404,563,-159,-483
,31,2023-10-27 12:26:15.66,140,-105,-2044,-8,45,160,132,308,-176,-220
,32,2023-10-27 12:26:15.67,138,-113,-2041,-6,39,164,397,561,-164,-479
,33,2023-10-27 12:26:15.68,149,-120,-2062,0,39,177,129,303,-174,-216
,34,2023-10-27 12:26:15.69,148,-113,-2063,6,33,182,390,559,-169,-474
,35,2023-10-27 12:26:15.70,129,-112,-2084,11,27,195,130,303,-173,-216
,36,2023-10-27 12:26:15.71,140,-97,-2096,7,21,199,391,564,-173,-477
,37,2023-10-27 12:26:15.72,116,-82,-2092,-2,14,206,128,305,-177,-216
,38,2023-10-27 12:26:15.73,121,-79,-2073,-5,7,214,381,557,-176,-469
,39,2023-10-27 12:26:15.74,129,-84,-2031,-1,-16,216,124,298,-174,-211
,40,2023-10-27 12:26:15.75,131,-80,-1996,3,-15,220,376,557,-181,-466
,41,2023-10-27 12:26:15.76,150,-86,-1984,-2,-7,221,117,302,-185,-209
,42,2023-10-27 12:26:15.77,151,-83,-1999,-16,11,218,363,555,-192,-459
,43,2023-10-27 12:26:15.78,149,-82,-2045,-30,32,221,113,296,-183,-204
,44,2023-10-27 12:26:15.79,144,-81,-2067,-45,18,223,352,550,-198,-451
,45,2023-10-27 12:26:15.80,132,-60,-2091,-63,14,233,100,291,-191,-195
,46,2023-10-27 12:26:15.81,126,-59,-2090,-83,13,238,343,546,-203,-444
,47,2023-10-27 12:26:15.82,137,-66,-2070,-91,-7,246,113,294,-181,-203
,48,2023-10-27 12:26:15.83,137,-75,-2065,-96,-20,251,357,560,-203,-458
,49,2023-10-27 12:26:15.84,133,-82,-2080,-101,-29,256,116,299,-183,-207
,50,2023-10-27 12:26:15.85,115,-81,-2087,-102,-15,267,332,548,-216,-440
,51,2023-10-27 12:26:15.86,112,-65,-2087,-109,-19,269,99,291,-192,-195
,52,2023-10-27 12:26:15.87,116,-61,-2070,-100,-16,284,314,545,-231,-429
,53,2023-10-27 12:26:15.88,117,-64,-2049,-90,-27,279,93,292,-199,-192
,54,2023-10-27 12:26:15.89,125,-58,-2059,-64,-41,289,314,530,-216,-422
,55,2023-10-27 12:26:15.90,111,-58,-2078,-21,-92,294,117,296,-179,-206
,56,2023-10-27 12:26:15.91,124,-62,-2050,21,-150,309,331,544,-213,-437
,57,2023-10-27 12:26:15.92,133,-42,-2049,29,-127,321,108,290,-182,-199
,58,2023-10-27 12:26:15.93,157,-1,-2087,-22,-81,326,278,515,-237,-396
,59,2023-10-27 12:26:15.94,152,-42,-2002,-89,-1,325,83,274,-191,-178
,60,2023-10-27 12:26:15.95,129,-51,-2043,-106,76,325,272,518,-246,-395
,61,2023-10-27 12:26:15.96,124,-63,-2094,-76,26,341,88,285,-197,-186
,62,2023-10-27 12:26:15.97,130,-66,-2064,-48,-6,364,276,516,-240,-396
,63,2023-10-27 12:26:15.98,155,-60,-2066,-32,-27,377,99,286,-187,-192
,64,2023-10-27 12:26:15.99,124,-48,-2080,-40,-16,390,283,515,-232,-399
,65,2023-10-27 12:26:16.00,131,-48,-2064,-44,-2,401,111,291,-180,-201
,66,2023-10-27 12:26:16.01,121,-55,-2069,-42,-13,413,294,521,-227,-407
,67,2023-10-27 12:26:16.02,116,-62,-2092,-39,-27,422,109,285,-176,-197
,68,2023-10-27 12:26:16.03,117,-63,-2074,-27,-66,428,274,516,-242,-395
,69,2023-10-27 12:26:16.04,114,-68,-2068,-18,-79,441,102,288,-186,-195
,70,2023-10-27 12:26:16.05,108,-70,-2072,-14,-82,447,280,517,-237,-398
,71,2023-10-27 12:26:16.06,83,-73,-2081,-22,-82,455,121,301,-180,-211
,72,2023-10-27 12:26:16.07,68,-69,-2046,-30,-87,462,284,521,-237,-402
,73,2023-10-27 12:26:16.08,72,-80,-2029,-27,-96,465,124,299,-175,-211
,74,2023-10-27 12:26:16.09,69,-71,-2025,-21,-99,466,276,511,-235,-393
,75,2023-10-27 12:26:16.10,55,-86,-1998,-22,-96,463,134,305,-171,-219
,76,2023-10-27 12:26:16.11,54,-92,-1977,-28,-80,459,283,513,-230,-398
,77,2023-10-27 12:26:16.12,51,-96,-2003,-24,-88,443,157,317,-160,-237
,78,2023-10-27 12:26:16.13,62,-112,-2001,-20,-84,430,297,518,-221,-407
,79,2023-10-27 12:26:16.14,56,-98,-2024,-16,-76,419,168,328,-160,-248
,80,2023-10-27 12:26:16.15,42,-85,-2031,-23,-67,408,303,519,-216,-411
,81,2023-10-27 12:26:16.16,30,-75,-2042,-44,-61,388,178,329,-151,-253
,82,2023-10-27 12:26:16.17,44,-59,-2035,-63,-53,372,304,521,-217,-412
,83,2023-10-27 12:26:16.18,30,-42,-2049,-82,-39,358,186,338,-152,-262
,84,2023-10-27 12:26:16.19,55,-22,-2053,-105,-35,346,302,515,-213,-408
,85,2023-10-27 12:26:16.20,68,-37,-2049,-131,-25,324,200,340,-140,-270
,86,2023-10-27 12:26:16.21,66,-10,-2070,-157,-7,303,311,518,-207,-414
,87,2023-10-27 12:26:16.22,55,-22,-2074,-173,5,289,214,354,-140,-284
,88,2023-10-27 12:26:16.23,72,-1,-2085,-177,-4,266,308,512,-204,-410
,89,2023-10-27 12:26:16.24,66,-14,-2070,-180,6,250,223,356,-133,-289
,90,2023-10-27 12:26:16.25,56,-12,-2100,-172,-3,235,313,511,-198,-412
,91,2023-10-27 12:26:16.26,59,-31,-2091,-154,-21,233,229,361,-132,-295
,92,2023-10-27 12:26:16.27,45,-46,-2088,-127,-47,227,306,500,-194,-403
,93,2023-10-27 12:26:16.28,53,-34,-2089,-99,-69,224,233,359,-126,-296
,94,2023-10-27 12:26:16.29,53,-37,-2076,-71,-90,225,300,499,-199,-399
,95,2023-10-27 12:26:16.30,48,-30,-2069,-50,-96,219,237,370,-133,-303
,96,2023-10-27 12:26:16.31,35,-22,-2058,-19,-107,213,294,494,-200,-394
,97,2023-10-27 12:26:16.32,41,-23,-2058,1,-109,202,240,374,-134,-307
,98,2023-10-27 12:26:16.33,31,-30,-2054,22,-116,196,281,486,-205,-383
,99,2023-10-27 12:26:16.34,21,-23,-2050,40,-126,186,230,365,-135,-297
,100,2023-10-27 12:26:16.35,21,-9,-2046,53,-119,177,280,476,-196,-378
,101,2023-10-27 12:26:16.36,23,-9,-2035,55,-111,158,256,384,-128,-320
,102,2023-10-27 12:26:16.37,18,-20,-2057,55,-96,144,275,477,-202,-376
,103,2023-10-27 12:26:16.38,13,-28,-2059,57,-84,138,256,384,-128,-320
,104,2023-10-27 12:26:16.39,7,-31,-2044,58,-70,130,278,470,-192,-374
,105,2023-10-27 12:26:16.40,-1,-40,-2054,56,-58,120,268,392,-124,-330
,106,2023-10-27 12:26:16.41,1,-42,-2061,48,-43,113,282,473,-191,-377
,107,2023-10-27 12:26:16.42,-9,-48,-2060,41,-41,104,282,401,-119,-341
,108,2023-10-27 12:26:16.43,7,-54,-2044,36,-23,104,275,471,-196,-373
,109,2023-10-27 12:26:16.44,10,-52,-2040,38,-19,96,283,411,-128,-347
,110,2023-10-27 12:26:16.45,14,-35,-2051,45,-11,96,273,467,-194,-370
,111,2023-10-27 12:26:16.46,2,-56,-2039,33,2,99,302,422,-120,-362
,112,2023-10-27 12:26:16.47,17,-43,-2033,19,15,97,282,472,-190,-377
,113,2023-10-27 12:26:16.48,35,-42,-2037,12,33,95,305,430,-125,-367
,114,2023-10-27 12:26:16.49,37,-37,-2044,8,46,100,261,458,-197,-359
,115,2023-10-27 12:26:16.50,40,-27,-2056,5,42,98,305,427,-122,-366
,116,2023-10-27 12:26:16.51,40,-28,-2068,-2,39,102,260,456,-196,-358
,117,2023-10-27 12:26:16.52,61,-35,-2066,-9,35,101,315,440,-125,-377
,118,2023-10-27 12:26:16.53,70,-25,-2060,-10,31,103,265,458,-193,-361
,119,2023-10-27 12:26:16.54,64,-28,-2062,-9,22,100,330,454,-124,-392
,120,2023-10-27 12:26:16.55,72,-23,-2065,-1,8,101,254,447,-193,-350
,121,2023-10-27 12:26:16.56,54,-30,-2061,4,11,105,328,448,-120,-388
,122,2023-10-27 12:26:16.57,62,-42,-2066,10,-3,105,254,440,-186,-347
,123,2023-10-27 12:26:16.58,68,-44,-2063,24,-9,108,334,460,-126,-397
,124,2023-10-27 12:26:16.59,59,-51,-2061,31,-9,118,242,435,-193,-338
,125,2023-10-27 12:26:16.60,40,-55,-2079,40,-23,126,342,464,-122,-403
,126,2023-10-27 12:26:16.61,47,-55,-2068,49,-29,137,248,439,-191,-343
,127,2023-10-27 12:26:16.62,40,-42,-2059,56,-31,146,351,474,-123,-412
,128,2023-10-27 12:26:16.63,30,-54,-2062,54,-28,153,247,435,-188,-341
,129,2023-10-27 12:26:16.64,34,-51,-2072,53,-41,153,364,482,-118,-423
,130,2023-10-27 12:26:16.65,28,-40,-2069,54,-43,161,238,424,-186,-331
,131,2023-10-27 12:26:16.66,36,-42,-2051,55,-38,163,357,480,-123,-418
,132,2023-10-27 12:26:16.67,22,-42,-2061,54,-42,161,231,419,-188,-325
,133,2023-10-27 12:26:16.68,19,-56,-2064,51,-47,156,373,498,-125,-435
,134,2023-10-27 12:26:16.69,13,-45,-2054,51,-60,151,246,425,-179,-335
,135,2023-10-27 12:26:16.70,15,-41,-2040,53,-53,150,380,496,-116,-438
,136,2023-10-27 12:26:16.71,10,-31,-2037,43,-54,140,238,410,-172,-324
,137,2023-10-27 12:26:16.72,9,-42,-2054,34,-51,134,388,502,-114,-445
,138,2023-10-27 12:26:16.73,7,-55,-2038,28,-68,117,236,408,-172,-322
,139,2023-10-27 12:26:16.74,9,-41,-2048,22,-56,111,389,505,-116,-447
,140,2023-10-27 12:26:16.75,8,-37,-2034,10,-49,89,223,401,-178,-312
,141,2023-10-27 12:26:16.76,5,-31,-2051,-4,-49,78,400,516,-116,-458
,142,2023-10-27 12:26:16.77,20,-18,-2060,-17,-62,63,238,403,-165,-320
,143,2023-10-27 12:26:16.78,21,-25,-2058,-32,-62,38,414,523,-109,-468
,144,2023-10-27 12:26:16.79,11,-26,-2062,-36,-52,26,237,395,-158,-316
,145,2023-10-27 12:26:16.80,8,-27,-2050,-38,-60,8,410,524,-114,-467
,146,2023-10-27 12:26:16.81,5,-34,-2040,-33,-58,-9,226,384,-158,-305
,147,2023-10-27 12:26:16.82,20,-45,-2060,-16,-50,-20,412,523,-111,-467
,148,2023-10-27 12:26:16.83,5,-34,-2051,6,-59,-33,225,386,-161,-305
,149,2023-10-27 12:26:16.84,19,-52,-2028,38,-54,-38,419,535,-116,-477
,150,2023-10-27 12:26:16.85,10,-56,-2037,66,-48,-50,224,388,-164,-306
,151,2023-10-27 12:26:16.86,12,-60,-2040,88,-37,-47,429,540,-111,-484
,152,2023-10-27 12:26:16.87,24,-59,-2033,111,-44,-54,226,385,-159,-305
,153,2023-10-27 12:26:16.88,13,-67,-2021,132,-27,-54,426,542,-116,-484
,154,2023-10-27 12:26:16.89,-3,-111,-2039,155,-17,-64,210,373,-163,-291
,155,2023-10-27 12:26:16.90,-17,-118,-2071,170,1,-59,429,546,-117,-487
,156,2023-10-27 12:26:16.91,-26,-144,-2108,182,2,-56,220,379,-159,-299
,157,2023-10-27 12:26:16.92,-50,-175,-2101,192,4,-50,439,554,-115,-496
,158,2023-10-27 12:26:16.93,-55,-166,-2099,216,-17,-38,220,372,-152,-296
,159,2023-10-27 12:26:16.94,-76,-158,-2056,245,-48,-35,443,553,-110,-498
,160,2023-10-27 12:26:16.95,-64,-134,-2048,268,-50,-37,210,368,-158,-289
,161,2023-10-27 12:26:16.96,-52,-118,-2020,264,-39,-48,438,554,-116,-496
,162,2023-10-27 12:26:16.97,-72,-101,-2020,249,-15,-60,210,361,-151,-285
,163,2023-10-27 12:26:16.98,-82,-88,-2032,235,1,-86,447,555,-108,-501
,164,2023-10-27 12:26:16.99,-66,-72,-2038,215,-5,-106,209,361,-152,-285
,165,2023-10-27 12:26:17.00,-44,-64,-2010,187,29,-132,450,565,-115,-507
,166,2023-10-27 12:26:17.01,-56,-64,-2012,168,58,-163,209,357,-148,-283
,167,2023-10-27 12:26:17.02,-46,-78,-2025,147,81,-194,460,571,-111,-515
,168,2023-10-27 12:26:17.03,-31,-79,-2030,134,103,-220,210,360,-150,-285
,169,2023-10-27 12:26:17.04,-38,-95,-2017,118,107,-245,454,573,-119,-513
,170,2023-10-27 12:26:17.05,-37,-92,-2036,114,109,-265,208,353,-145,-280
,171,2023-10-27 12:26:17.06,-26,-91,-2056,118,104,-283,456,579,-123,-517
,172,2023-10-27 12:26:17.07,-5,-87,-2034,120,86,-319,200,354,-154,-277
,173,2023-10-27 12:26:17.08,-3,-88,-2046,116,96,-332,449,578,-129,-513
,174,2023-10-27 12:26:17.09,21,-98,-2055,116,83,-348,192,350,-158,-271
,175,2023-10-27 12:26:17.10,23,-109,-2052,126,77,-356,450,582,-132,-516
,176,2023-10-27 12:26:17.11,22,-111,-2055,134,74,-364,184,342,-158,-263
,177,2023-10-27 12:26:17.12,18,-116,-2066,138,69,-367,446,576,-130,-511
,178,2023-10-27 12:26:17.13,20,-122,-2085,143,50,-367,188,344,-156,-266
,179,2023-10-27 12:26:17.14,11,-121,-2090,149,39,-361,441,584,-143,-512
,180,2023-10-27 12:26:17.15,9,-116,-2080,157,18,-359,171,338,-167,-254
,181,2023-10-27 12:26:17.16,4,-118,-2057,164,3,-357,427,570,-143,-498
,182,2023-10-27 12:26:17.17,13,-146,-2064,169,1,-354,179,329,-150,-254
,183,2023-10-27 12:26:17.18,6,-160,-2055,175,-5,-354,437,578,-141,-507
,184,2023-10-27 12:26:17.19,5,-173,-2055,184,-13,-346,168,332,-164,-250
,185,2023-10-27 12:26:17.20,4,-173,-2060,195,-8,-341,421,573,-152,-497
,186,2023-10-27 12:26:17.21,-13,-203,-2064,202,-26,-337,158,325,-167,-241
,187,2023-10-27 12:26:17.22,-9,-193,-2048,211,-17,-328,420,575,-155,-497
,188,2023-10-27 12:26:17.23,-5,-194,-2021,219,-4,-319,152,320,-168,-236
,189,2023-10-27 12:26:17.24,2,-188,-2024,223,11,-318,416,573,-157,-494
,190,2023-10-27 12:26:17.25,6,-202,-2013,222,25,-325,141,306,-165,-223
,191,2023-10-27 12:26:17.26,19,-198,-2002,223,50,-326,406,572,-166,-489
,192,2023-10-27 12:26:17.27,18,-197,-2005,228,81,-331,142,313,-171,-227
,193,2023-10-27 12:26:17.28,14,-204,-2022,230,92,-337,406,573,-167,-489
,194,2023-10-27 12:26:17.29,25,-212,-2040,224,107,-337,146,319,-173,-232
,195,2023-10-27 12:26:17.30,35,-204,-2033,216,114,-341,396,573,-177,-484
,196,2023-10-27 12:26:17.31,35,-203,-2043,197,133,-339,133,308,-175,-220
,197,2023-10-27 12:26:17.32,55,-200,-2036,178,140,-343,393,566,-173,-479
,198,2023-10-27 12:26:17.33,61,-200,-2032,151,152,-338,132,306,-174,-219
,199,2023-10-27 12:26:17.34,81,-194,-2024,120,151,-342,398,580,-182,-489
,200,2023-10-27 12:26:17.35,109,-200,-2039,89,159,-336,147,331,-184,-239
,201,2023-10-27 12:26:17.36,116,-209,-2004,70,172,-331,397,572,-175,-484
,202,2023-10-27 12:26:17.37,119,-226,-2021,67,194,-331,139,301,-162,-220
,203,2023-10-27 12:26:17.38,128,-221,-2032,66,218,-318,369,546,-177,-457
,204,2023-10-27 12:26:17.39,112,-238,-2035,57,222,-309,107,278,-171,-192
,205,2023-10-27 12:26:17.40,100,-231,-2029,51,203,-288,341,533,-192,-437
,206,2023-10-27 12:26:17.41,115,-245,-2052,38,183,-267,102,278,-176,-190
,207,2023-10-27 12:26:17.42,124,-228,-2076,17,159,-250,349,537,-188,-443
,208,2023-10-27 12:26:17.43,118,-239,-2078,-7,146,-232,120,284,-164,-202
,209,2023-10-27 12:26:17.44,120,-213,-2089,-25,130,-226,355,536,-181,-445
,210,2023-10-27 12:26:17.45,140,-237,-2060,-46,103,-217,124,291,-167,-207
,211,2023-10-27 12:26:17.46,137,-229,-2064,-58,84,-206,368,552,-184,-460
,212,2023-10-27 12:26:17.47,121,-272,-2041,-57,56,-195,140,299,-159,-219
,213,2023-10-27 12:26:17.48,133,-238,-2062,-52,40,-182,362,544,-182,-453
,214,2023-10-27 12:26:17.49,129,-252,-2037,-62,37,-168,130,297,-167,-213
,215,2023-10-27 12:26:17.50,150,-249,-2028,-83,48,-158,363,552,-189,-457
,216,2023-10-27 12:26:17.51,122,-246,-2051,-87,65,-151,149,307,-158,-228
,217,2023-10-27 12:26:17.52,144,-231,-2052,-96,75,-139,373,562,-189,-467
,218,2023-10-27 12:26:17.53,119,-215,-2062,-113,80,-129,152,315,-163,-233
,219,2023-10-27 12:26:17.54,138,-219,-2058,-133,80,-122,360,553,-193,-456
,220,2023-10-27 12:26:17.55,144,-207,-2054,-137,78,-113,149,305,-156,-227
,221,2023-10-27 12:26:17.56,157,-189,-2037,-141,87,-102,364,552,-188,-458
,222,2023-10-27 12:26:17.57,161,-176,-2035,-148,109,-95,152,305,-153,-228
,223,2023-10-27 12:26:17.58,157,-158,-2028,-165,116,-98,356,545,-189,-450
,224,2023-10-27 12:26:17.59,173,-157,-2022,-166,130,-93,161,314,-153,-237
,225,2023-10-27 12:26:17.60,183,-159,-2017,-154,144,-93,356,551,-195,-453
,226,2023-10-27 12:26:17.61,177,-149,-2029,-136,154,-88,162,316,-154,-239
,227,2023-10-27 12:26:17.62,174,-157,-2044,-120,161,-91,354,543,-189,-448
,228,2023-10-27 12:26:17.63,163,-162,-2036,-93,173,-86,179,320,-141,-249
,229,2023-10-27 12:26:17.64,179,-162,-2029,-45,177,-80,362,553,-191,-457
,230,2023-10-27 12:26:17.65,196,-135,-2034,-2,177,-74,181,327,-146,-254
,231,2023-10-27 12:26:17.66,175,-155,-2033,30,207,-66,338,539,-201,-438
,232,2023-10-27 12:26:17.67,197,-138,-2052,69,188,-58,176,327,-151,-251
