// Data mode  : Full
// Data quality  : High
// Acceleration sensor's range  : 16g
// Gyroscope sensor's range  : 2000dps
//
//ARTIFACT,NUM,DATE,ACC_X,ACC_Y,ACC_Z,GYRO_X,GYRO_Y,GYRO_Z,EOG_L,EOG_R,EOG_H,EOG_V
,1,2023-10-27 12:18:52.66,274,-327,-2027,-50,-54,-58,-534,65,-599,234
,2,2023-10-27 12:18:52.67,273,-320,-2019,-53,-78,-48,-385,101,-486,142
,3,2023-10-27 12:18:52.68,289,-316,-2016,-63,-98,-55,-533,60,-593,236
,4,2023-10-27 12:18:52.69,286,-316,-1993,-65,-53,-43,-380,110,-490,135
,5,2023-10-27 12:18:52.70,265,-339,-1977,-68,-90,-40,-522,64,-586,229
,6,2023-10-27 12:18:52.71,273,-351,-2000,-55,-91,-56,-384,110,-494,137
,7,2023-10-27 12:18:52.72,275,-334,-2018,-31,-45,-32,-528,62,-590,233
,8,2023-10-27 12:18:52.73,271,-339,-2022,-24,-96,-31,-387,117,-504,135
,9,2023-10-27 12:18:52.74,281,-346,-2018,-42,-61,-51,-529,65,-594,232
,10,2023-10-27 12:18:52.75,278,-335,-2035,-44,-24,-46,-390,122,-512,134
,11,2023-10-27 12:18:52.76,270,-330,-2027,-54,-49,-36,-521,58,-579,231
,12,2023-10-27 12:18:52.77,272,-327,-2020,-56,-57,-56,-393,115,-508,139
,13,2023-10-27 12:18:52.78,267,-320,-2026,-57,-19,-43,-525,46,-571,239
,14,2023-10-27 12:18:52.79,267,-294,-2044,-67,-53,-37,-391,110,-501,140
,15,2023-10-27 12:18:52.80,287,-300,-2047,-79,-61,-64,-518,42,-560,238
,16,2023-10-27 12:18:52.81,262,-298,-2052,-85,-44,-43,-387,114,-501,136
,17,2023-10-27 12:18:52.82,269,-291,-2045,-98,-81,-49,-509,40,-549,234
,18,2023-10-27 12:18:52.83,281,-305,-2041,-105,-63,-61,-384,112,-496,136
,19,2023-10-27 12:18:52.84,276,-308,-2034,-98,-74,-40,-496,29,-525,233
,20,2023-10-27 12:18:52.85,270,-310,-2034,-97,-90,-49,-376,113,-489,131
,21,2023-10-27 12:18:52.86,278,-295,-2017,-92,-52,-45,-508,30,-538,239
,22,2023-10-27 12:18:52.87,283,-298,-2008,-88,-75,-24,-400,112,-512,144
,23,2023-10-27 12:18:52.88,280,-288,-1998,-88,-87,-42,-517,24,-541,246
,24,2023-10-27 12:18:52.89,281,-295,-2020,-84,-74,-43,-403,107,-510,148
,25,2023-10-27 12:18:52.90,278,-294,-2010,-77,-60,-15,-506,20,-526,243
,26,2023-10-27 12:18:52.91,278,-270,-2015,-83,-79,-28,-398,122,-520,138
,27,2023-10-27 12:18:52.92,276,-289,-2009,-88,-72,-23,-505,30,-535,237
,28,2023-10-27 12:18:52.93,270,-293,-2020,-83,-65,19,-407,124,-531,141
,29,2023-10-27 12:18:52.94,274,-299,-2003,-79,-100,4,-498,22,-520,238
,30,2023-10-27 12:18:52.95,275,-298,-1983,-61,-88,31,-398,118,-516,140
,31,2023-10-27 12:18:52.96,268,-298,-1994,-45,-62,51,-491,15,-506,238
,32,2023-10-27 12:18:52.97,237,-312,-2012,-38,-75,71,-395,125,-520,135
,33,2023-10-27 12:18:52.98,247,-298,-2020,-42,-47,75,-472,22,-494,225
,34,2023-10-27 12:18:52.99,248,-278,-2016,-52,-25,98,-388,132,-520,128
,35,2023-10-27 12:18:53.00,253,-290,-2026,-70,-65,94,-467,25,-492,221
,36,2023-10-27 12:18:53.01,252,-257,-2027,-81,-37,82,-386,122,-508,132
,37,2023-10-27 12:18:53.02,245,-260,-2029,-78,-8,107,-460,-2,-458,231
,38,2023-10-27 12:18:53.03,256,-247,-2020,-83,-30,107,-382,109,-491,136
,39,2023-10-27 12:18:53.04,246,-244,-2043,-94,-29,82,-451,-2,-449,226
,40,2023-10-27 12:18:53.05,268,-238,-2044,-96,-18,102,-387,120,-507,133
,41,2023-10-27 12:18:53.06,266,-228,-2028,-103,-35,80,-454,9,-463,222
,42,2023-10-27 12:18:53.07,263,-226,-2052,-103,-7,85,-393,132,-525,130
,43,2023-10-27 12:18:53.08,274,-235,-2039,-112,-49,80,-452,12,-464,220
,44,2023-10-27 12:18:53.09,270,-236,-2043,-117,-24,80,-394,134,-528,130
,45,2023-10-27 12:18:53.10,260,-242,-2035,-121,-71,56,-453,10,-463,221
,46,2023-10-27 12:18:53.11,263,-241,-2030,-106,-20,74,-406,125,-531,140
,47,2023-10-27 12:18:53.12,257,-244,-2051,-107,-72,54,-455,-5,-450,230
,48,2023-10-27 12:18:53.13,259,-245,-2041,-104,-58,52,-411,124,-535,143
,49,2023-10-27 12:18:53.14,261,-229,-2037,-89,-34,79,-447,2,-449,222
,50,2023-10-27 12:18:53.15,261,-231,-2025,-89,-87,56,-411,127,-538,142
,51,2023-10-27 12:18:53.16,260,-232,-2021,-87,-51,63,-459,-2,-457,230
,52,2023-10-27 12:18:53.17,238,-243,-2023,-75,-24,64,-430,136,-566,147
,53,2023-10-27 12:18:53.18,231,-245,-2038,-62,-66,71,-465,7,-472,229
,54,2023-10-27 12:18:53.19,238,-235,-2032,-51,-33,65,-436,138,-574,149
,55,2023-10-27 12:18:53.20,248,-222,-2035,-40,-24,80,-453,1,-454,226
,56,2023-10-27 12:18:53.21,236,-212,-2029,-50,-70,58,-431,130,-561,150
,57,2023-10-27 12:18:53.22,213,-213,-2024,-42,-5,71,-453,2,-455,225
,58,2023-10-27 12:18:53.23,230,-213,-2050,-31,-60,63,-437,140,-577,148
,59,2023-10-27 12:18:53.24,218,-195,-2056,-26,-62,43,-453,0,-453,226
,60,2023-10-27 12:18:53.25,212,-176,-2057,-29,-57,59,-437,133,-570,152
,61,2023-10-27 12:18:53.26,215,-193,-2049,-48,-69,21,-442,-8,-434,225
,62,2023-10-27 12:18:53.27,202,-178,-2058,-55,-36,35,-434,128,-562,153
,63,2023-10-27 12:18:53.28,208,-182,-2054,-64,-94,18,-439,-3,-436,221
,64,2023-10-27 12:18:53.29,201,-196,-2055,-68,-48,12,-439,142,-581,148
,65,2023-10-27 12:18:53.30,192,-207,-2073,-69,-68,21,-444,-4,-440,224
,66,2023-10-27 12:18:53.31,191,-205,-2074,-70,-99,2,-447,128,-575,159
,67,2023-10-27 12:18:53.32,193,-193,-2064,-64,-55,22,-431,-16,-415,223
,68,2023-10-27 12:18:53.33,188,-176,-2037,-71,-107,-2,-440,127,-567,156
,69,2023-10-27 12:18:53.34,186,-174,-2021,-71,-70,1,-427,-7,-420,217
,70,2023-10-27 12:18:53.35,201,-180,-2027,-74,-69,22,-454,135,-589,159
,71,2023-10-27 12:18:53.36,189,-189,-2018,-77,-91,-13,-439,-7,-432,223
,72,2023-10-27 12:18:53.37,189,-181,-2017,-61,-49,9,-458,129,-587,164
,73,2023-10-27 12:18:53.38,190,-198,-2021,-53,-68,13,-421,-11,-410,216
,74,2023-10-27 12:18:53.39,203,-202,-2013,-51,-64,0,-448,121,-569,163
,75,2023-10-27 12:18:53.40,190,-201,-2007,-41,-5,9,-420,-20,-400,220
,76,2023-10-27 12:18:53.41,198,-193,-2009,-32,-13,17,-456,120,-576,168
,77,2023-10-27 12:18:53.42,216,-196,-2015,-30,-48,0,-417,-19,-398,218
,78,2023-10-27 12:18:53.43,210,-205,-2010,-25,-6,4,-455,124,-579,165
,79,2023-10-27 12:18:53.44,205,-213,-2018,-9,-15,32,-412,-13,-399,212
,80,2023-10-27 12:18:53.45,211,-208,-2057,8,-31,36,-456,127,-583,164
,81,2023-10-27 12:18:53.46,206,-200,-2072,9,9,42,-406,-5,-401,205
,82,2023-10-27 12:18:53.47,195,-197,-2048,1,-30,54,-457,123,-580,167
,83,2023-10-27 12:18:53.48,222,-195,-2032,7,-32,52,-406,-25,-381,215
,84,2023-10-27 12:18:53.49,205,-196,-2061,14,-15,54,-461,110,-571,175
,85,2023-10-27 12:18:53.50,197,-199,-2056,9,-30,77,-398,-21,-377,209
,86,2023-10-27 12:18:53.51,186,-202,-2038,8,10,82,-457,115,-572,171
,87,2023-10-27 12:18:53.52,192,-222,-2049,12,-15,81,-390,-12,-378,201
,88,2023-10-27 12:18:53.53,181,-208,-2067,22,-27,94,-455,132,-587,161
,89,2023-10-27 12:18:53.54,174,-192,-2078,20,-37,104,-390,3,-393,193
,90,2023-10-27 12:18:53.55,171,-183,-2071,5,-34,107,-464,132,-596,166
,91,2023-10-27 12:18:53.56,179,-186,-2057,-13,-35,114,-388,-4,-384,196
,92,2023-10-27 12:18:53.57,168,-196,-2053,-23,-32,117,-452,126,-578,163
,93,2023-10-27 12:18:53.58,170,-189,-2050,-29,-30,117,-373,-2,-371,187
,94,2023-10-27 12:18:53.59,173,-196,-2034,-33,-27,116,-452,128,-580,162
,95,2023-10-27 12:18:53.60,171,-191,-2018,-30,-30,119,-369,5,-374,182
,96,2023-10-27 12:18:53.61,178,-188,-2016,-24,-21,110,-453,123,-576,165
,97,2023-10-27 12:18:53.62,180,-185,-2020,-19,-10,104,-367,-9,-358,188
,98,2023-10-27 12:18:53.63,183,-189,-2004,-15,-1,98,-454,115,-569,169
,99,2023-10-27 12:18:53.64,169,-199,-1994,0,-5,90,-363,-2,-361,182
,100,2023-10-27 12:18:53.65,181,-199,-2004,17,-1,85,-466,122,-588,172
,101,2023-10-27 12:18:53.66,185,-201,-2012,24,-1,83,-367,1,-368,183
,102,2023-10-27 12:18:53.67,168,-195,-2010,18,20,75,-455,117,-572,169
,103,2023-10-27 12:18:53.68,171,-222,-1982,28,19,71,-350,4,-354,173
,104,2023-10-27 12:18:53.69,184,-218,-2012,53,5,74,-450,119,-569,165
,105,2023-10-27 12:18:53.70,169,-219,-2062,63,4,77,-349,3,-352,173
,106,2023-10-27 12:18:53.71,170,-208,-2078,59,0,77,-447,108,-555,169
,107,2023-10-27 12:18:53.72,165,-214,-2073,39,-4,80,-333,4,-337,164
,108,2023-10-27 12:18:53.73,182,-210,-2071,30,-4,81,-432,118,-550,157
,109,2023-10-27 12:18:53.74,183,-195,-2060,28,-10,87,-317,12,-329,152
,110,2023-10-27 12:18:53.75,166,-195,-2043,12,1,86,-394,117,-511,138
,111,2023-10-27 12:18:53.76,170,-192,-2053,-7,5,84,-282,12,-294,135
,112,2023-10-27 12:18:53.77,159,-196,-2038,-26,22,78,-386,116,-502,135
,113,2023-10-27 12:18:53.78,165,-202,-2049,-23,19,75,-280,15,-295,132
,114,2023-10-27 12:18:53.79,170,-184,-2066,-21,10,76,-367,106,-473,130
,115,2023-10-27 12:18:53.80,167,-188,-2065,-31,20,72,-249,11,-260,119
,116,2023-10-27 12:18:53.81,164,-189,-2051,-46,24,66,-358,108,-466,125
,117,2023-10-27 12:18:53.82,184,-184,-2056,-44,12,62,-250,21,-271,114
,118,2023-10-27 12:18:53.83,187,-179,-2042,-40,13,55,-349,98,-447,125
,119,2023-10-27 12:18:53.84,198,-179,-2049,-41,13,48,-236,14,-250,111
,120,2023-10-27 12:18:53.85,192,-176,-2030,-42,14,39,-356,94,-450,131
,121,2023-10-27 12:18:53.86,182,-172,-2041,-31,8,32,-232,20,-252,106
,122,2023-10-27 12:18:53.87,189,-178,-2040,-23,10,27,-339,96,-435,121
,123,2023-10-27 12:18:53.88,187,-168,-2042,-15,0,19,-215,19,-234,98
,124,2023-10-27 12:18:53.89,187,-174,-2056,-15,-5,16,-341,91,-432,125
,125,2023-10-27 12:18:53.90,182,-184,-2049,-15,-7,12,-222,22,-244,100
,126,2023-10-27 12:18:53.91,174,-178,-2056,-7,-17,7,-351,83,-434,134
,127,2023-10-27 12:18:53.92,178,-172,-2055,-3,-22,2,-219,20,-239,99
,128,2023-10-27 12:18:53.93,179,-183,-2061,-2,-28,2,-347,92,-439,127
,129,2023-10-27 12:18:53.94,177,-179,-2056,-7,-37,2,-209,38,-247,85
,130,2023-10-27 12:18:53.95,182,-184,-2049,-7,-35,0,-336,105,-441,115
,131,2023-10-27 12:18:53.96,183,-196,-2041,2,-31,1,-208,48,-256,80
,132,2023-10-27 12:18:53.97,186,-198,-2037,13,-35,5,-357,88,-445,134
,133,2023-10-27 12:18:53.98,191,-214,-2026,24,-28,8,-214,31,-245,91
,134,2023-10-27 12:18:53.99,185,-219,-2030,33,-24,13,-354,79,-433,137
,135,2023-10-27 12:18:54.00,183,-214,-2023,48,-26,22,-196,44,-240,76
,136,2023-10-27 12:18:54.01,180,-223,-2027,63,-24,26,-336,89,-425,123
,137,2023-10-27 12:18:54.02,173,-226,-2048,71,-27,36,-189,52,-241,68
,138,2023-10-27 12:18:54.03,193,-223,-2031,77,-28,45,-336,85,-421,125
,139,2023-10-27 12:18:54.04,166,-238,-2008,90,-27,52,-185,47,-232,69
,140,2023-10-27 12:18:54.05,189,-224,-2018,103,-17,59,-332,82,-414,125
,141,2023-10-27 12:18:54.06,184,-220,-2031,105,-18,65,-172,55,-227,58
,142,2023-10-27 12:18:54.07,180,-228,-2023,102,-5,68,-314,83,-397,115
,143,2023-10-27 12:18:54.08,203,-210,-2035,99,-4,82,-148,58,-206,45
,144,2023-10-27 12:18:54.09,185,-210,-2045,83,2,86,-298,74,-372,112
,145,2023-10-27 12:18:54.10,175,-240,-2028,69,-3,95,-136,49,-185,43
,146,2023-10-27 12:18:54.11,172,-252,-2034,61,-1,100,-285,65,-350,110
,147,2023-10-27 12:18:54.12,169,-224,-2061,54,-5,110,-112,57,-169,27
,148,2023-10-27 12:18:54.13,154,-210,-2057,35,-5,114,-242,75,-317,83
,149,2023-10-27 12:18:54.14,171,-217,-2056,18,-9,111,-60,70,-130,-5
,150,2023-10-27 12:18:54.15,149,-206,-2066,6,-19,113,-180,72,-252,54
,151,2023-10-27 12:18:54.16,160,-187,-2066,-11,-28,113,-17,67,-84,-25
,152,2023-10-27 12:18:54.17,154,-179,-2063,-34,-31,109,-152,69,-221,41
,153,2023-10-27 12:18:54.18,159,-189,-2053,-42,-41,107,1,72,-71,-36
,154,2023-10-27 12:18:54.19,155,-193,-2044,-52,-46,108,-135,61,-196,37
,155,2023-10-27 12:18:54.20,174,-187,-2048,-62,-45,111,5,63,-58,-34
,156,2023-10-27 12:18:54.21,149,-205,-2036,-76,-31,114,-156,58,-214,49
,157,2023-10-27 12:18:54.22,153,-201,-2055,-84,-30,120,-22,75,-97,-26
,158,2023-10-27 12:18:54.23,136,-188,-2060,-88,-32,125,-184,56,-240,64
,159,2023-10-27 12:18:54.24,154,-182,-2052,-93,-33,133,-14,67,-81,-26
,160,2023-10-27 12:18:54.25,152,-172,-2050,-103,-29,137,-147,50,-197,48
,161,2023-10-27 12:18:54.26,166,-153,-2063,-108,-28,144,6,69,-63,-37
,162,2023-10-27 12:18:54.27,150,-160,-2044,-111,-34,145,-167,41,-208,63
,163,2023-10-27 12:18:54.28,164,-156,-2039,-109,-36,149,-6,65,-71,-29
,164,2023-10-27 12:18:54.29,156,-162,-2036,-100,-37,149,-146,43,-189,51
,165,2023-10-27 12:18:54.30,152,-174,-2049,-90,-41,148,10,75,-65,-42
,166,2023-10-27 12:18:54.31,158,-160,-2053,-80,-49,150,-166,46,-212,60
,167,2023-10-27 12:18:54.32,155,-161,-2029,-65,-49,149,-13,79,-92,-33
,168,2023-10-27 12:18:54.33,155,-167,-2052,-52,-46,148,-184,44,-228,70
,169,2023-10-27 12:18:54.34,151,-163,-2048,-40,-43,144,-12,80,-92,-34
,170,2023-10-27 12:18:54.35,144,-162,-2050,-25,-49,139,-174,50,-224,62
,171,2023-10-27 12:18:54.36,134,-169,-2050,-14,-48,137,-6,94,-100,-44
,172,2023-10-27 12:18:54.37,146,-175,-2042,-5,-46,134,-184,52,-236,66
,173,2023-10-27 12:18:54.38,144,-172,-2033,6,-47,131,-24,93,-117,-34
,174,2023-10-27 12:18:54.39,133,-171,-2027,14,-38,125,-203,32,-235,85
,175,2023-10-27 12:18:54.40,153,-167,-2031,14,-35,120,-49,74,-123,-12
,176,2023-10-27 12:18:54.41,150,-148,-2049,11,-23,110,-231,33,-264,99
,177,2023-10-27 12:18:54.42,136,-167,-2035,5,-15,98,-35,95,-130,-30
,178,2023-10-27 12:18:54.43,150,-174,-2024,6,-15,96,-188,45,-233,71
,179,2023-10-27 12:18:54.44,150,-168,-2042,7,-6,89,-6,99,-105,-46
,180,2023-10-27 12:18:54.45,125,-183,-2048,5,-4,86,-181,40,-221,70
,181,2023-10-27 12:18:54.46,140,-177,-2053,2,-4,82,-28,94,-122,-33
,182,2023-10-27 12:18:54.47,135,-172,-2046,1,-2,76,-213,28,-241,92
,183,2023-10-27 12:18:54.48,144,-176,-2054,-1,-11,71,-11,92,-103,-40
,184,2023-10-27 12:18:54.49,144,-174,-2044,-9,-8,69,-152,29,-181,61
,185,2023-10-27 12:18:54.50,137,-177,-2039,-14,-1,64,28,96,-68,-62
,186,2023-10-27 12:18:54.51,139,-170,-2052,-20,-2,63,-158,28,-186,65
,187,2023-10-27 12:18:54.52,137,-198,-2055,-25,-6,67,-25,88,-113,-31
,188,2023-10-27 12:18:54.53,134,-184,-2052,-31,-6,69,-209,12,-221,98
,189,2023-10-27 12:18:54.54,133,-176,-2061,-38,-10,74,-33,86,-119,-26
,190,2023-10-27 12:18:54.55,135,-186,-2045,-43,-10,77,-200,17,-217,91
,191,2023-10-27 12:18:54.56,131,-166,-2045,-39,-20,80,-27,95,-122,-34
,192,2023-10-27 12:18:54.57,125,-156,-2049,-47,-24,78,-200,6,-206,97
,193,2023-10-27 12:18:54.58,131,-154,-2038,-53,-21,70,-54,77,-131,-11
,194,2023-10-27 12:18:54.59,112,-170,-2049,-54,-28,68,-242,-6,-236,124
,195,2023-10-27 12:18:54.60,137,-144,-2060,-54,-34,69,-80,86,-166,-3
,196,2023-10-27 12:18:54.61,127,-144,-2062,-60,-27,66,-257,4,-261,126
,197,2023-10-27 12:18:54.62,120,-164,-2037,-61,-31,64,-63,103,-166,-20
,198,2023-10-27 12:18:54.63,110,-170,-2048,-52,-36,65,-213,6,-219,103
,199,2023-10-27 12:18:54.64,120,-174,-2048,-45,-44,70,-18,104,-122,-43
,200,2023-10-27 12:18:54.65,111,-180,-2060,-39,-45,77,-176,13,-189,81
,201,2023-10-27 12:18:54.66,114,-171,-2049,-33,-42,82,-19,115,-134,-48
,202,2023-10-27 12:18:54.67,138,-162,-2047,-20,-36,83,-195,10,-205,92
,203,2023-10-27 12:18:54.68,115,-160,-2055,-19,-29,86,3,105,-102,-54
,204,2023-10-27 12:18:54.69,126,-153,-2058,-11,-29,85,-126,0,-126,63
,205,2023-10-27 12:18:54.70,109,-154,-2042,-3,-30,85,45,103,-58,-74
,206,2023-10-27 12:18:54.71,110,-166,-2035,-1,-27,85,-128,-11,-117,69
,207,2023-10-27 12:18:54.72,105,-169,-2046,-4,-25,89,18,89,-71,-53
,208,2023-10-27 12:18:54.73,106,-162,-2055,-8,-31,93,-134,-17,-117,75
,209,2023-10-27 12:18:54.74,114,-156,-2036,-8,-30,98,35,93,-58,-64
,210,2023-10-27 12:18:54.75,116,-159,-2038,-9,-25,104,-113,-10,-103,61
,211,2023-10-27 12:18:54.76,99,-166,-2038,-17,-20,106,32,106,-74,-69
,212,2023-10-27 12:18:54.77,103,-153,-2043,-21,-21,107,-124,-7,-117,65
,213,2023-10-27 12:18:54.78,99,-137,-2041,-23,-20,111,27,104,-77,-65
,214,2023-10-27 12:18:54.79,118,-128,-2033,-27,-18,108,-127,-22,-105,74
,215,2023-10-27 12:18:54.80,112,-134,-2059,-34,-10,107,-19,95,-114,-38
,216,2023-10-27 12:18:54.81,91,-124,-2070,-48,-9,102,-190,-22,-168,106
,217,2023-10-27 12:18:54.82,94,-139,-2085,-51,-14,105,-71,96,-167,-12
,218,2023-10-27 12:18:54.83,85,-133,-2066,-54,-15,103,-212,-25,-187,118
,219,2023-10-27 12:18:54.84,78,-141,-2073,-57,-16,103,-94,102,-196,-4
,220,2023-10-27 12:18:54.85,84,-115,-2051,-61,-20,99,-233,-17,-216,125
,221,2023-10-27 12:18:54.86,106,-102,-2017,-66,-16,95,-89,108,-197,-9
,222,2023-10-27 12:18:54.87,118,-108,-2033,-80,-1,82,-189,-18,-171,103
,223,2023-10-27 12:18:54.88,125,-110,-2038,-88,15,67,-73,114,-187,-20
,224,2023-10-27 12:18:54.89,121,-107,-2053,-92,27,57,-208,-10,-198,109
,225,2023-10-27 12:18:54.90,102,-106,-2066,-86,29,48,-105,112,-217,-3
,226,2023-10-27 12:18:54.91,124,-115,-2052,-81,18,45,-224,-29,-195,126
,227,2023-10-27 12:18:54.92,126,-99,-2077,-86,24,39,-131,102,-233,14
,228,2023-10-27 12:18:54.93,113,-99,-2075,-89,12,35,-249,-27,-222,138
,229,2023-10-27 12:18:54.94,123,-99,-2027,-82,9,28,-89,117,-206,-14
,230,2023-10-27 12:18:54.95,144,-87,-2046,-69,6,22,-150,-18,-132,84
,231,2023-10-27 12:18:54.96,118,-100,-2036,-62,5,12,-80,127,-207,-23
,232,2023-10-27 12:18:54.97,140,-103,-2046,-53,1,9,-208,-13,-195,110
,233,2023-10-27 12:18:54.98,133,-93,-2052,-49,2,3,-150,114,-264,18
,234,2023-10-27 12:18:54.99,133,-112,-2024,-28,-9,-1,-233,-25,-208,129
,235,2023-10-27 12:18:55.00,117,-110,-2069,-10,-13,-2,-166,111,-277,27
,236,2023-10-27 12:18:55.01,121,-103,-2056,1,-28,-5,-241,-22,-219,131
,237,2023-10-27 12:18:55.02,97,-127,-2071,14,-44,-5,-181,118,-299,31
,238,2023-10-27 12:18:55.03,104,-133,-2055,30,-55,-1,-240,-17,-223,128
,239,2023-10-27 12:18:55.04,103,-132,-2064,37,-69,6,-210,118,-328,46
,240,2023-10-27 12:18:55.05,70,-140,-2063,34,-72,11,-270,-26,-244,148
,241,2023-10-27 12:18:55.06,79,-144,-2051,31,-74,19,-220,100,-320,60
,242,2023-10-27 12:18:55.07,70,-140,-2030,29,-78,28,-257,-35,-222,146
,243,2023-10-27 12:18:55.08,52,-132,-2049,28,-90,37,-224,107,-331,58
,244,2023-10-27 12:18:55.09,72,-123,-2059,8,-85,46,-265,-25,-240,145
,245,2023-10-27 12:18:55.10,69,-124,-2031,-4,-75,53,-259,112,-371,73
,246,2023-10-27 12:18:55.11,63,-132,-2047,-11,-73,60,-288,-21,-267,154
,247,2023-10-27 12:18:55.12,52,-133,-2033,-22,-53,66,-283,112,-395,85
,248,2023-10-27 12:18:55.13,63,-140,-2036,-30,-42,74,-292,-21,-271,156
,249,2023-10-27 12:18:55.14,59,-138,-2063,-40,-30,80,-289,100,-389,94
,250,2023-10-27 12:18:55.15,64,-133,-2052,-44,-21,88,-292,-39,-253,165
,251,2023-10-27 12:18:55.16,52,-139,-2041,-42,-17,91,-295,89,-384,103
,252,2023-10-27 12:18:55.17,65,-117,-2032,-52,0,96,-294,-35,-259,164
,253,2023-10-27 12:18:55.18,73,-131,-2027,-50,11,92,-314,103,-417,105
,254,2023-10-27 12:18:55.19,84,-103,-2028,-47,22,97,-303,-25,-278,164
,255,2023-10-27 12:18:55.20,87,-112,-2021,-52,54,96,-322,100,-422,111
,256,2023-10-27 12:18:55.21,116,-111,-2020,-49,51,99,-295,-35,-260,165
,257,2023-10-27 12:18:55.22,92,-103,-2042,-49,88,100,-329,92,-421,118
,258,2023-10-27 12:18:55.23,113,-82,-2037,-52,88,105,-301,-34,-267,167
,259,2023-10-27 12:18:55.24,117,-110,-2026,-60,103,109,-349,94,-443,127
,260,2023-10-27 12:18:55.25,129,-100,-2027,-65,114,112,-310,-33,-277,171
,261,2023-10-27 12:18:55.26,139,-100,-2045,-58,105,115,-358,91,-449,133
,262,2023-10-27 12:18:55.27,121,-109,-2047,-39,87,119,-302,-34,-268,168
,263,2023-10-27 12:18:55.28,129,-95,-2072,-19,64,128,-352,86,-438,133
,264,2023-10-27 12:18:55.29,130,-93,-2067,-11,48,134,-297,-42,-255,169
,265,2023-10-27 12:18:55.30,134,-98,-2052,-11,43,131,-371,91,-462,140
,266,2023-10-27 12:18:55.31,132,-96,-2051,-2,38,127,-303,-16,-287,159
,267,2023-10-27 12:18:55.32,135,-88,-2058,15,34,122,-379,111,-490,134
,268,2023-10-27 12:18:55.33,128,-100,-2046,18,39,115,-302,-7,-295,154
,269,2023-10-27 12:18:55.34,119,-117,-2048,16,46,110,-384,98,-482,143
,270,2023-10-27 12:18:55.35,125,-116,-2070,23,36,104,-290,-13,-277,151
,271,2023-10-27 12:18:55.36,121,-124,-2060,39,13,109,-370,102,-472,134
,272,2023-10-27 12:18:55.37,109,-125,-2067,53,-3,107,-270,-12,-258,141
,273,2023-10-27 12:18:55.38,104,-127,-2071,51,-8,104,-336,95,-431,120
,274,2023-10-27 12:18:55.39,113,-109,-2066,44,-15,103,-252,-18,-234,135
,275,2023-10-27 12:18:55.40,103,-103,-2042,30,-4,95,-368,95,-463,136
,276,2023-10-27 12:18:55.41,99,-106,-2051,25,-2,87,-280,-11,-269,145
,277,2023-10-27 12:18:55.42,92,-99,-2054,17,-14,80,-382,94,-476,144
,278,2023-10-27 12:18:55.43,102,-99,-2055,7,-22,73,-282,-11,-271,146
,279,2023-10-27 12:18:55.44,89,-91,-2063,-6,-19,66,-384,84,-468,150
,280,2023-10-27 12:18:55.45,83,-101,-2051,-18,-16,60,-277,-21,-256,149
,281,2023-10-27 12:18:55.46,95,-93,-2043,-32,-11,54,-393,77,-470,158
,282,2023-10-27 12:18:55.47,101,-101,-2047,-44,-12,49,-282,-14,-268,148
,283,2023-10-27 12:18:55.48,106,-105,-2049,-46,-6,50,-398,81,-479,158
,284,2023-10-27 12:18:55.49,102,-112,-2053,-44,-10,49,-278,-10,-268,144
,285,2023-10-27 12:18:55.50,100,-106,-2057,-49,-14,51,-394,72,-466,161
,286,2023-10-27 12:18:55.51,103,-99,-2050,-49,1,54,-270,-11,-259,140
,287,2023-10-27 12:18:55.52,106,-95,-2052,-50,-5,52,-399,73,-472,163
,288,2023-10-27 12:18:55.53,88,-107,-2051,-46,-3,57,-271,-8,-263,139
,289,2023-10-27 12:18:55.54,98,-99,-2056,-34,-9,58,-399,71,-470,164
,290,2023-10-27 12:18:55.55,92,-106,-2072,-26,-17,63,-270,-2,-268,136
,291,2023-10-27 12:18:55.56,94,-96,-2079,-21,-28,68,-413,74,-487,169
,292,2023-10-27 12:18:55.57,88,-83,-2069,-17,-36,70,-277,5,-282,136
,293,2023-10-27 12:18:55.58,84,-90,-2068,-10,-47,69,-416,70,-486,173
,294,2023-10-27 12:18:55.59,89,-77,-2062,-10,-49,67,-270,4,-274,133
,295,2023-10-27 12:18:55.60,94,-88,-2060,-8,-42,62,-417,62,-479,177
,296,2023-10-27 12:18:55.61,97,-86,-2069,-3,-43,56,-267,6,-273,130
,297,2023-10-27 12:18:55.62,75,-100,-2055,4,-40,51,-407,67,-474,170
,298,2023-10-27 12:18:55.63,68,-79,-2041,13,-43,48,-256,18,-274,119
,299,2023-10-27 12:18:55.64,74,-93,-2034,18,-47,45,-412,71,-483,170
,300,2023-10-27 12:18:55.65,65,-87,-2053,15,-42,43,-259,21,-280,119
,301,2023-10-27 12:18:55.66,71,-75,-2037,8,-35,40,-417,70,-487,173
,302,2023-10-27 12:18:55.67,69,-89,-2041,-3,-23,41,-257,29,-286,114
,303,2023-10-27 12:18:55.68,71,-93,-2039,-8,-17,39,-415,70,-485,172
,304,2023-10-27 12:18:55.69,64,-87,-2047,-11,-23,37,-256,31,-287,112
,305,2023-10-27 12:18:55.70,68,-83,-2044,-7,-23,37,-425,60,-485,182
,306,2023-10-27 12:18:55.71,86,-91,-2040,-3,-28,35,-258,28,-286,115
,307,2023-10-27 12:18:55.72,65,-99,-2046,-5,-11,33,-414,64,-478,175
,308,2023-10-27 12:18:55.73,58,-110,-2042,1,-15,35,-247,32,-279,107
,309,2023-10-27 12:18:55.74,72,-108,-2032,10,-15,35,-412,54,-466,179
,310,2023-10-27 12:18:55.75,69,-102,-2034,18,-12,34,-255,18,-273,118
,311,2023-10-27 12:18:55.76,70,-102,-2029,24,-4,32,-422,54,-476,184
,312,2023-10-27 12:18:55.77,65,-99,-2026,27,8,28,-249,47,-296,101
,313,2023-10-27 12:18:55.78,62,-106,-2048,33,12,26,-421,69,-490,176
,314,2023-10-27 12:18:55.79,49,-115,-2060,32,8,30,-239,54,-293,92
,315,2023-10-27 12:18:55.80,41,-121,-2075,32,-1,37,-412,59,-471,176
,316,2023-10-27 12:18:55.81,48,-119,-2085,32,-11,45,-241,44,-285,98
,317,2023-10-27 12:18:55.82,44,-109,-2061,24,-11,48,-423,56,-479,183
,318,2023-10-27 12:18:55.83,48,-105,-2052,16,-5,47,-243,58,-301,92
,319,2023-10-27 12:18:55.84,48,-104,-2049,7,1,46,-418,63,-481,177
,320,2023-10-27 12:18:55.85,66,-90,-2050,0,9,45,-235,60,-295,87
,321,2023-10-27 12:18:55.86,64,-86,-2064,-9,20,41,-416,56,-472,180
,322,2023-10-27 12:18:55.87,63,-76,-2055,-16,29,34,-238,59,-297,89
,323,2023-10-27 12:18:55.88,53,-79,-2063,-26,33,27,-423,48,-471,187
,324,2023-10-27 12:18:55.89,55,-59,-2053,-33,32,19,-244,57,-301,93
,325,2023-10-27 12:18:55.90,65,-61,-2054,-36,28,15,-428,48,-476,190
,326,2023-10-27 12:18:55.91,55,-71,-2050,-42,27,9,-238,60,-298,89
,327,2023-10-27 12:18:55.92,71,-71,-2041,-44,27,4,-411,39,-450,186
,328,2023-10-27 12:18:55.93,61,-72,-2034,-41,30,0,-229,57,-286,86
,329,2023-10-27 12:18:55.94,72,-75,-2044,-35,39,1,-422,28,-450,197
,330,2023-10-27 12:18:55.95,84,-79,-2043,-35,49,-2,-244,56,-300,94
,331,2023-10-27 12:18:55.96,84,-80,-2043,-28,58,2,-433,35,-468,199
,332,2023-10-27 12:18:55.97,86,-74,-2058,-20,61,5,-244,72,-316,86
,333,2023-10-27 12:18:55.98,81,-76,-2061,-16,58,10,-424,38,-462,193
,334,2023-10-27 12:18:55.99,90,-67,-2060,-11,53,16,-235,69,-304,83
,335,2023-10-27 12:18:56.00,80,-65,-2049,-2,49,20,-421,30,-451,195
,336,2023-10-27 12:18:56.01,80,-61,-2057,6,47,19,-236,72,-308,82
,337,2023-10-27 12:18:56.02,80,-53,-2049,11,45,17,-421,26,-447,197
,338,2023-10-27 12:18:56.03,74,-65,-2052,17,43,11,-240,72,-312,84
,339,2023-10-27 12:18:56.04,90,-56,-2059,26,43,10,-424,25,-449,199
,340,2023-10-27 12:18:56.05,88,-71,-2041,32,41,8,-244,75,-319,84
,341,2023-10-27 12:18:56.06,74,-83,-2041,42,50,7,-429,26,-455,201
,342,2023-10-27 12:18:56.07,63,-94,-2048,57,47,7,-244,84,-328,80
,343,2023-10-27 12:18:56.08,84,-91,-2059,71,41,6,-426,31,-457,197
,344,2023-10-27 12:18:56.09,86,-82,-2050,86,34,4,-238,93,-331,72
,345,2023-10-27 12:18:56.10,66,-95,-2042,103,30,-4,-419,32,-451,193
,346,2023-10-27 12:18:56.11,74,-66,-2075,98,48,-8,-236,94,-330,71
,347,2023-10-27 12:18:56.12,59,-89,-2050,83,46,-18,-418,30,-448,194
,348,2023-10-27 12:18:56.13,77,-102,-2044,74,60,-31,-234,98,-332,68
,349,2023-10-27 12:18:56.14,76,-96,-2052,73,72,-40,-423,23,-446,200
,350,2023-10-27 12:18:56.15,85,-104,-2054,75,76,-46,-238,91,-329,73
,351,2023-10-27 12:18:56.16,66,-99,-2061,76,81,-60,-425,12,-437,206
,352,2023-10-27 12:18:56.17,79,-88,-2061,69,83,-65,-242,95,-337,73
,353,2023-10-27 12:18:56.18,82,-82,-2038,63,85,-75,-419,10,-429,204
,354,2023-10-27 12:18:56.19,83,-98,-2046,57,93,-86,-248,92,-340,78
,355,2023-10-27 12:18:56.20,95,-87,-2046,48,88,-90,-418,23,-441,197
,356,2023-10-27 12:18:56.21,106,-102,-2037,36,86,-95,-242,106,-348,68
,357,2023-10-27 12:18:56.22,108,-98,-2044,27,99,-101,-416,17,-433,199
,358,2023-10-27 12:18:56.23,115,-98,-2037,12,104,-103,-252,101,-353,75
,359,2023-10-27 12:18:56.24,126,-108,-2029,8,112,-104,-421,1,-422,210
,360,2023-10-27 12:18:56.25,132,-96,-2031,4,119,-105,-258,91,-349,83
,361,2023-10-27 12:18:56.26,135,-95,-2021,-2,128,-105,-421,3,-424,209
,362,2023-10-27 12:18:56.27,161,-99,-2044,-1,130,-105,-253,97,-350,78
,363,2023-10-27 12:18:56.28,142,-102,-2054,4,133,-101,-412,2,-414,205
,364,2023-10-27 12:18:56.29,162,-90,-2061,4,141,-101,-254,103,-357,75
,365,2023-10-27 12:18:56.30,159,-92,-2061,4,134,-95,-414,7,-421,203
,366,2023-10-27 12:18:56.31,173,-107,-2046,0,137,-94,-270,107,-377,81
,367,2023-10-27 12:18:56.32,177,-107,-2047,5,132,-87,-421,0,-421,210
,368,2023-10-27 12:18:56.33,173,-104,-2058,11,125,-78,-277,105,-382,86
,369,2023-10-27 12:18:56.34,178,-105,-2044,18,130,-78,-421,11,-432,205
,370,2023-10-27 12:18:56.35,194,-99,-2061,25,128,-72,-278,119,-397,79
,371,2023-10-27 12:18:56.36,188,-103,-2061,28,132,-70,-414,3,-417,205
,372,2023-10-27 12:18:56.37,187,-94,-2056,35,123,-64,-277,114,-391,81
,373,2023-10-27 12:18:56.38,192,-99,-2050,43,124,-62,-416,0,-416,208
,374,2023-10-27 12:18:56.39,203,-108,-2058,51,121,-59,-291,120,-411,85
,375,2023-10-27 12:18:56.40,192,-104,-2049,54,119,-55,-423,9,-432,207
,376,2023-10-27 12:18:56.41,199,-97,-2050,62,112,-54,-296,118,-414,89
,377,2023-10-27 12:18:56.42,189,-110,-2041,72,109,-54,-415,-15,-400,215
,378,2023-10-27 12:18:56.43,190,-101,-2038,90,99,-55,-290,103,-393,93
,379,2023-10-27 12:18:56.44,212,-104,-2050,92,93,-57,-410,-8,-402,209
,380,2023-10-27 12:18:56.45,213,-96,-2057,84,98,-60,-290,125,-415,82
,381,2023-10-27 12:18:56.46,212,-106,-2050,75,102,-58,-399,-1,-398,200
,382,2023-10-27 12:18:56.47,223,-112,-2040,74,112,-60,-314,128,-442,93
,383,2023-10-27 12:18:56.48,215,-113,-2055,83,97,-60,-416,-2,-414,209
,384,2023-10-27 12:18:56.49,193,-130,-2053,95,95,-58,-275,131,-406,72
,385,2023-10-27 12:18:56.50,224,-118,-2055,108,89,-58,-366,3,-369,181
,386,2023-10-27 12:18:56.51,219,-123,-2063,112,75,-59,-269,142,-411,63
,387,2023-10-27 12:18:56.52,227,-124,-2031,111,79,-57,-377,8,-385,184
,388,2023-10-27 12:18:56.53,217,-131,-2041,111,79,-57,-290,133,-423,78
,389,2023-10-27 12:18:56.54,227,-130,-2032,107,77,-57,-364,-1,-363,182
,390,2023-10-27 12:18:56.55,223,-121,-2033,108,76,-57,-264,129,-393,67
,391,2023-10-27 12:18:56.56,219,-145,-2026,101,79,-60,-340,-9,-331,174
,392,2023-10-27 12:18:56.57,215,-142,-2052,112,66,-58,-281,114,-395,83
,393,2023-10-27 12:18:56.58,219,-139,-2056,121,58,-56,-365,-13,-352,189
,394,2023-10-27 12:18:56.59,230,-150,-2044,118,61,-59,-328,119,-447,104
,395,2023-10-27 12:18:56.60,224,-146,-2074,125,51,-63,-403,-18,-385,210
,396,2023-10-27 12:18:56.61,230,-155,-2061,124,46,-63,-326,120,-446,103
,397,2023-10-27 12:18:56.62,225,-163,-2054,127,36,-58,-375,-16,-359,195
,398,2023-10-27 12:18:56.63,217,-154,-2054,130,29,-59,-339,114,-453,112
,399,2023-10-27 12:18:56.64,206,-165,-2037,130,26,-57,-392,-23,-369,207
,400,2023-10-27 12:18:56.65,228,-144,-2054,132,20,-55,-350,113,-463,118
,401,2023-10-27 12:18:56.66,225,-160,-2038,124,21,-56,-384,-25,-359,204
,402,2023-10-27 12:18:56.67,213,-161,-2043,118,17,-56,-344,119,-463,112
,403,2023-10-27 12:18:56.68,195,-170,-2041,113,22,-56,-379,-19,-360,199
,404,2023-10-27 12:18:56.69,239,-169,-2060,112,9,-49,-353,115,-468,119
,405,2023-10-27 12:18:56.70,214,-173,-2063,105,5,-46,-380,-26,-354,203
,406,2023-10-27 12:18:56.71,212,-183,-2057,88,15,-43,-365,112,-477,126
,407,2023-10-27 12:18:56.72,219,-181,-2055,82,6,-41,-378,-23,-355,200
,408,2023-10-27 12:18:56.73,231,-176,-2051,82,-1,-36,-354,114,-468,120
,409,2023-10-27 12:18:56.74,242,-180,-2037,78,-1,-33,-361,-24,-337,192
,410,2023-10-27 12:18:56.75,222,-181,-2045,73,0,-30,-348,113,-461,117
,411,2023-10-27 12:18:56.76,215,-180,-2039,67,-2,-24,-354,-28,-326,191
,412,2023-10-27 12:18:56.77,225,-175,-2041,60,-3,-23,-350,112,-462,119
,413,2023-10-27 12:18:56.78,235,-180,-2045,55,-5,-18,-351,-27,-324,189
,414,2023-10-27 12:18:56.79,238,-173,-2042,39,-2,-13,-351,107,-458,122
,415,2023-10-27 12:18:56.80,227,-179,-2039,29,-1,-9,-342,-31,-311,186
,416,2023-10-27 12:18:56.81,235,-174,-2035,18,2,-8,-358,106,-464,126
,417,2023-10-27 12:18:56.82,222,-174,-2032,12,1,-6,-345,-28,-317,186
,418,2023-10-27 12:18:56.83,230,-189,-2053,7,-5,-5,-369,106,-475,131
,419,2023-10-27 12:18:56.84,221,-181,-2048,2,-5,-1,-348,-31,-317,189
,420,2023-10-27 12:18:56.85,228,-187,-2036,0,-11,-2,-366,97,-463,134
,421,2023-10-27 12:18:56.86,237,-179,-2039,-5,-14,-1,-333,-40,-293,186
,422,2023-10-27 12:18:56.87,234,-179,-2050,-11,-9,4,-368,100,-468,134
,423,2023-10-27 12:18:56.88,231,-182,-2048,-15,-11,3,-337,-30,-307,183
,424,2023-10-27 12:18:56.89,235,-187,-2042,-15,-13,7,-375,105,-480,135
,425,2023-10-27 12:18:56.90,224,-181,-2046,-14,-12,12,-334,-20,-314,177
,426,2023-10-27 12:18:56.91,235,-185,-2030,-17,-14,20,-382,101,-483,140
,427,2023-10-27 12:18:56.92,231,-182,-2041,-21,-15,27,-333,-31,-302,182
,428,2023-10-27 12:18:56.93,238,-185,-2034,-21,-12,31,-378,99,-477,139
,429,2023-10-27 12:18:56.94,229,-178,-2040,-17,-16,36,-322,-17,-305,169
,430,2023-10-27 12:18:56.95,242,-170,-2035,-21,-16,46,-374,118,-492,128
,431,2023-10-27 12:18:56.96,232,-171,-2040,-25,-11,50,-321,-9,-312,165
,432,2023-10-27 12:18:56.97,238,-170,-2041,-31,-9,49,-383,106,-489,138
,433,2023-10-27 12:18:56.98,227,-163,-2054,-33,-9,51,-323,-31,-292,177
,434,2023-10-27 12:18:56.99,237,-163,-2052,-33,-11,52,-381,94,-475,143
,435,2023-10-27 12:18:57.00,237,-156,-2044,-32,-18,53,-304,-13,-291,158
,436,2023-10-27 12:18:57.01,235,-157,-2043,-34,-22,54,-372,115,-487,128
,437,2023-10-27 12:18:57.02,228,-157,-2044,-34,-22,52,-304,-3,-301,153
,438,2023-10-27 12:18:57.03,229,-156,-2036,-34,-25,51,-398,100,-498,149
,439,2023-10-27 12:18:57.04,255,-159,-2044,-31,-26,47,-318,-19,-299,168
,440,2023-10-27 12:18:57.05,235,-151,-2045,-31,-31,47,-407,89,-496,159
,441,2023-10-27 12:18:57.06,236,-155,-2054,-25,-36,45,-309,-12,-297,160
,442,2023-10-27 12:18:57.07,235,-159,-2053,-23,-46,45,-400,104,-504,148
,443,2023-10-27 12:18:57.08,232,-154,-2049,-18,-51,46,-304,12,-316,146
,444,2023-10-27 12:18:57.09,235,-144,-2046,-17,-53,44,-405,105,-510,150
,445,2023-10-27 12:18:57.10,228,-149,-2045,-17,-51,44,-299,-2,-297,150
,446,2023-10-27 12:18:57.11,231,-151,-2048,-20,-54,45,-397,91,-488,153
,447,2023-10-27 12:18:57.12,234,-156,-2044,-20,-56,45,-287,-2,-285,144
,448,2023-10-27 12:18:57.13,227,-157,-2043,-19,-50,50,-396,98,-494,149
,449,2023-10-27 12:18:57.14,214,-159,-2034,-18,-47,52,-285,12,-297,136
,450,2023-10-27 12:18:57.15,227,-161,-2039,-15,-46,58,-411,96,-507,157
,451,2023-10-27 12:18:57.16,212,-157,-2028,-15,-43,60,-294,6,-300,144
,452,2023-10-27 12:18:57.17,231,-165,-2036,-13,-42,66,-415,89,-504,163
,453,2023-10-27 12:18:57.18,213,-169,-2041,-10,-39,66,-284,10,-294,137
,454,2023-10-27 12:18:57.19,222,-177,-2039,-3,-36,71,-408,100,-508,154
,455,2023-10-27 12:18:57.20,206,-167,-2040,-1,-33,76,-278,21,-299,128
,456,2023-10-27 12:18:57.21,214,-157,-2047,-2,-25,76,-409,90,-499,159
,457,2023-10-27 12:18:57.22,220,-150,-2032,-4,-15,74,-278,15,-293,131
,458,2023-10-27 12:18:57.23,215,-152,-2027,-5,-4,72,-416,76,-492,170
,459,2023-10-27 12:18:57.24,217,-143,-2022,-7,2,68,-284,9,-293,137
,460,2023-10-27 12:18:57.25,209,-147,-2025,-10,9,67,-423,74,-497,174
,461,2023-10-27 12:18:57.26,211,-154,-2015,-14,13,63,-279,19,-298,130
,462,2023-10-27 12:18:57.27,209,-148,-2019,-19,15,56,-420,87,-507,166
,463,2023-10-27 12:18:57.28,191,-136,-2029,-23,24,50,-279,33,-312,123
,464,2023-10-27 12:18:57.29,209,-141,-2022,-32,33,41,-432,85,-517,173
,465,2023-10-27 12:18:57.30,208,-134,-2026,-39,42,30,-284,30,-314,127
,466,2023-10-27 12:18:57.31,199,-128,-2030,-48,50,20,-432,70,-502,181
,467,2023-10-27 12:18:57.32,197,-140,-2028,-53,56,11,-274,22,-296,126
,468,2023-10-27 12:18:57.33,195,-136,-2032,-59,63,4,-425,68,-493,178
,469,2023-10-27 12:18:57.34,186,-135,-2037,-61,65,-4,-271,34,-305,118
,470,2023-10-27 12:18:57.35,202,-128,-2029,-64,69,-13,-432,72,-504,180
,471,2023-10-27 12:18:57.36,200,-125,-2039,-63,79,-22,-270,46,-316,112
,472,2023-10-27 12:18:57.37,194,-126,-2041,-58,86,-32,-445,71,-516,187
,473,2023-10-27 12:18:57.38,199,-125,-2033,-51,98,-44,-275,43,-318,116
,474,2023-10-27 12:18:57.39,192,-128,-2043,-40,99,-50,-444,53,-497,195
,475,2023-10-27 12:18:57.40,196,-136,-2049,-29,99,-59,-270,44,-314,113
,476,2023-10-27 12:18:57.41,191,-128,-2053,-18,96,-64,-446,67,-513,189
,477,2023-10-27 12:18:57.42,206,-131,-2069,-6,88,-67,-274,55,-329,109
,478,2023-10-27 12:18:57.43,200,-136,-2061,7,80,-68,-446,66,-512,190
,479,2023-10-27 12:18:57.44,210,-122,-2062,23,61,-63,-267,51,-318,108
,480,2023-10-27 12:18:57.45,214,-131,-2057,39,45,-63,-433,56,-489,188
,481,2023-10-27 12:18:57.46,206,-122,-2074,44,40,-63,-258,56,-314,101
,482,2023-10-27 12:18:57.47,212,-127,-2073,45,29,-62,-435,71,-506,182
,483,2023-10-27 12:18:57.48,226,-131,-2061,55,18,-61,-264,69,-333,97
,484,2023-10-27 12:18:57.49,216,-134,-2067,65,8,-59,-441,71,-512,185
,485,2023-10-27 12:18:57.50,217,-144,-2066,70,1,-52,-270,66,-336,102
,486,2023-10-27 12:18:57.51,207,-153,-2060,77,-5,-49,-454,58,-512,198
,487,2023-10-27 12:18:57.52,208,-149,-2054,87,-7,-43,-273,65,-338,104
,488,2023-10-27 12:18:57.53,212,-155,-2049,91,-14,-33,-451,61,-512,195
,489,2023-10-27 12:18:57.54,216,-164,-2037,93,-16,-27,-267,72,-339,97
,490,2023-10-27 12:18:57.55,211,-165,-2036,100,-19,-20,-444,68,-512,188
,491,2023-10-27 12:18:57.56,204,-166,-2039,104,-18,-14,-264,85,-349,89
,492,2023-10-27 12:18:57.57,202,-163,-2043,104,-14,-9,-459,85,-544,187
,493,2023-10-27 12:18:57.58,189,-169,-2043,103,-11,-1,-278,91,-369,93
,494,2023-10-27 12:18:57.59,196,-169,-2036,103,-11,3,-459,44,-503,207
,495,2023-10-27 12:18:57.60,200,-168,-2043,105,-11,6,-283,62,-345,110
,496,2023-10-27 12:18:57.61,209,-177,-2055,102,-10,14,-471,58,-529,206
,497,2023-10-27 12:18:57.62,194,-171,-2056,97,-10,21,-263,82,-345,90
,498,2023-10-27 12:18:57.63,199,-180,-2058,93,-10,23,-403,38,-441,182
,499,2023-10-27 12:18:57.64,183,-176,-2053,90,-11,29,-218,72,-290,73
,500,2023-10-27 12:18:57.65,192,-174,-2051,84,-14,30,-414,49,-463,182
,501,2023-10-27 12:18:57.66,198,-170,-2053,81,-15,31,-247,88,-335,79
,502,2023-10-27 12:18:57.67,199,-183,-2052,79,-15,31,-436,44,-480,196
,503,2023-10-27 12:18:57.68,195,-177,-2051,74,-17,31,-257,82,-339,87
,504,2023-10-27 12:18:57.69,193,-179,-2064,64,-22,30,-435,41,-476,197
,505,2023-10-27 12:18:57.70,193,-176,-2050,57,-22,31,-256,89,-345,83
,506,2023-10-27 12:18:57.71,195,-187,-2058,55,-28,32,-436,47,-483,194
,507,2023-10-27 12:18:57.72,190,-185,-2061,62,-43,35,-266,92,-358,87
,508,2023-10-27 12:18:57.73,191,-180,-2067,63,-51,37,-452,36,-488,208
,509,2023-10-27 12:18:57.74,189,-177,-2064,58,-57,39,-277,84,-361,96
,510,2023-10-27 12:18:57.75,184,-191,-2056,54,-64,42,-456,23,-479,216
,511,2023-10-27 12:18:57.76,172,-181,-2066,50,-66,45,-278,84,-362,97
,512,2023-10-27 12:18:57.77,176,-194,-2060,44,-72,50,-446,40,-486,203
,513,2023-10-27 12:18:57.78,178,-202,-2043,48,-76,57,-275,107,-382,84
,514,2023-10-27 12:18:57.79,178,-202,-2039,51,-83,60,-444,39,-483,202
,515,2023-10-27 12:18:57.80,177,-197,-2030,53,-85,66,-281,66,-347,107
,516,2023-10-27 12:18:57.81,168,-190,-2029,54,-84,67,-458,21,-479,218
,517,2023-10-27 12:18:57.82,162,-212,-2026,62,-89,71,-287,109,-396,89
,518,2023-10-27 12:18:57.83,170,-212,-2035,71,-88,76,-442,44,-486,199
,519,2023-10-27 12:18:57.84,155,-200,-2055,79,-90,83,-268,118,-386,75
,520,2023-10-27 12:18:57.85,162,-208,-2036,76,-89,83,-437,37,-474,200
,521,2023-10-27 12:18:57.86,159,-209,-2047,69,-71,86,-281,110,-391,85
,522,2023-10-27 12:18:57.87,149,-234,-2011,61,-48,86,-444,38,-482,203
,523,2023-10-27 12:18:57.88,151,-248,-2008,82,-39,90,-280,116,-396,82
,524,2023-10-27 12:18:57.89,129,-241,-2036,96,-40,97,-438,32,-470,203
,525,2023-10-27 12:18:57.90,135,-227,-2059,99,-48,106,-264,113,-377,75
,526,2023-10-27 12:18:57.91,134,-246,-2019,84,-31,110,-408,26,-434,191
,527,2023-10-27 12:18:57.92,135,-252,-2014,90,-20,117,-249,117,-366,66
,528,2023-10-27 12:18:57.93,123,-238,-2052,107,-36,123,-408,31,-439,188
,529,2023-10-27 12:18:57.94,128,-224,-2064,104,-36,127,-264,120,-384,72
,530,2023-10-27 12:18:57.95,132,-225,-2027,81,-11,128,-425,32,-457,196
,531,2023-10-27 12:18:57.96,131,-241,-2020,85,-16,121,-248,127,-375,60
,532,2023-10-27 12:18:57.97,128,-219,-2062,88,-16,122,-391,26,-417,182
,533,2023-10-27 12:18:57.98,119,-191,-2071,66,-4,121,-229,125,-354,52
,534,2023-10-27 12:18:57.99,136,-216,-2049,42,-7,118,-379,26,-405,176
,535,2023-10-27 12:18:58.00,124,-209,-2046,27,9,110,-220,127,-347,46
,536,2023-10-27 12:18:58.01,158,-191,-2054,18,4,105,-371,21,-392,175
,537,2023-10-27 12:18:58.02,143,-185,-2060,3,10,94,-221,123,-344,49
,538,2023-10-27 12:18:58.03,147,-187,-2056,-15,16,81,-374,4,-378,185
,539,2023-10-27 12:18:58.04,149,-178,-2051,-23,19,67,-229,105,-334,62
,540,2023-10-27 12:18:58.05,148,-185,-2054,-28,16,59,-375,-10,-365,192
,541,2023-10-27 12:18:58.06,157,-177,-2047,-37,16,47,-227,107,-334,60
,542,2023-10-27 12:18:58.07,167,-172,-2054,-43,19,34,-366,-6,-360,186
,543,2023-10-27 12:18:58.08,167,-173,-2055,-51,21,22,-231,114,-345,58
,544,2023-10-27 12:18:58.09,172,-169,-2038,-55,24,11,-370,0,-370,185
,545,2023-10-27 12:18:58.10,177,-177,-2049,-58,23,3,-232,115,-347,58
,546,2023-10-27 12:18:58.11,167,-174,-2047,-61,23,-6,-358,-9,-349,183
,547,2023-10-27 12:18:58.12,187,-154,-2031,-68,25,-15,-234,111,-345,61
,548,2023-10-27 12:18:58.13,180,-176,-2027,-69,30,-25,-360,-1,-359,180
,549,2023-10-27 12:18:58.14,197,-176,-2030,-63,32,-29,-228,117,-345,55
,550,2023-10-27 12:18:58.15,184,-174,-2042,-60,33,-37,-345,-13,-332,179
,551,2023-10-27 12:18:58.16,192,-177,-2035,-52,27,-44,-235,106,-341,64
,552,2023-10-27 12:18:58.17,196,-172,-2031,-46,31,-47,-356,-18,-338,187
,553,2023-10-27 12:18:58.18,202,-182,-2039,-40,36,-49,-244,114,-358,65
,554,2023-10-27 12:18:58.19,206,-190,-2029,-29,35,-50,-359,-26,-333,192
,555,2023-10-27 12:18:58.20,205,-190,-2036,-17,35,-51,-257,103,-360,77
,556,2023-10-27 12:18:58.21,201,-192,-2035,-7,32,-50,-364,-29,-335,196
,557,2023-10-27 12:18:58.22,199,-187,-2038,-2,29,-46,-259,113,-372,73
,558,2023-10-27 12:18:58.23,196,-182,-2042,5,28,-46,-353,-17,-336,185
