// Data mode  : Full
// Data quality  : High
// Acceleration sensor's range  : 16g
// Gyroscope sensor's range  : 2000dps
//
//ARTIFACT,NUM,DATE,ACC_X,ACC_Y,ACC_Z,GYRO_X,GYRO_Y,GYRO_Z,EOG_L,EOG_R,EOG_H,EOG_V
,1,2023-10-27 11:04:52.52,128,-112,-2022,42,-54,37,-174,52,-226,61
,2,2023-10-27 11:04:52.53,104,-114,-2025,37,-49,38,-269,-108,-161,188
,3,2023-10-27 11:04:52.54,129,-110,-2031,29,-35,38,-180,48,-228,66
,4,2023-10-27 11:04:52.55,124,-123,-2024,17,-6,36,-278,-107,-171,192
,5,2023-10-27 11:04:52.56,119,-127,-2019,6,10,36,-186,47,-233,69
,6,2023-10-27 11:04:52.57,125,-129,-2036,-3,27,34,-276,-111,-165,193
,7,2023-10-27 11:04:52.58,143,-129,-2037,-16,44,35,-167,54,-221,56
,8,2023-10-27 11:04:52.59,135,-122,-2038,-20,60,33,-270,-120,-150,195
,9,2023-10-27 11:04:52.60,137,-94,-2014,-24,75,23,-175,43,-218,66
,10,2023-10-27 11:04:52.61,121,-103,-2069,-35,83,22,-272,-114,-158,193
,11,2023-10-27 11:04:52.62,114,-66,-2130,-58,69,22,-150,64,-214,43
,12,2023-10-27 11:04:52.63,117,-94,-2091,-87,30,26,-258,-102,-156,180
,13,2023-10-27 11:04:52.64,163,-115,-1998,-78,40,21,-151,69,-220,41
,14,2023-10-27 11:04:52.65,152,-75,-2020,-55,66,4,-265,-98,-167,181
,15,2023-10-27 11:04:52.66,128,-81,-2067,-68,72,-10,-153,78,-231,37
,16,2023-10-27 11:04:52.67,138,-91,-2062,-87,73,-20,-272,-95,-177,183
,17,2023-10-27 11:04:52.68,163,-84,-2053,-75,79,-27,-155,75,-230,40
,18,2023-10-27 11:04:52.69,128,-102,-2008,-44,52,-31,-272,-93,-179,182
,19,2023-10-27 11:04:52.70,169,-95,-2044,-29,59,-36,-154,82,-236,36
,20,2023-10-27 11:04:52.71,154,-86,-2054,-37,68,-41,-271,-91,-180,181
,21,2023-10-27 11:04:52.72,134,-94,-2057,-38,65,-45,-140,82,-222,29
,22,2023-10-27 11:04:52.73,167,-91,-2047,-17,33,-42,-262,-96,-166,179
,23,2023-10-27 11:04:52.74,156,-103,-2072,-5,44,-43,-132,82,-214,25
,24,2023-10-27 11:04:52.75,148,-86,-2068,-2,38,-45,-271,-111,-160,191
,25,2023-10-27 11:04:52.76,151,-104,-2068,-3,41,-43,-150,64,-214,43
,26,2023-10-27 11:04:52.77,138,-97,-2057,6,46,-36,-280,-109,-171,194
,27,2023-10-27 11:04:52.78,139,-99,-2055,14,34,-39,-143,77,-220,33
,28,2023-10-27 11:04:52.79,145,-94,-2059,17,28,-32,-280,-101,-179,190
,29,2023-10-27 11:04:52.80,148,-90,-2074,16,27,-31,-133,82,-215,25
,30,2023-10-27 11:04:52.81,157,-89,-2061,10,35,-30,-286,-99,-187,192
,31,2023-10-27 11:04:52.82,136,-96,-2063,17,20,-27,-160,72,-232,44
,32,2023-10-27 11:04:52.83,179,-94,-2060,27,-4,-25,-304,-109,-195,206
,33,2023-10-27 11:04:52.84,162,-97,-2057,23,20,-29,-156,67,-223,44
,34,2023-10-27 11:04:52.85,152,-92,-2058,24,27,-28,-294,-108,-186,201
,35,2023-10-27 11:04:52.86,160,-98,-2064,26,23,-30,-139,68,-207,35
,36,2023-10-27 11:04:52.87,157,-98,-2052,32,22,-28,-290,-109,-181,199
,37,2023-10-27 11:04:52.88,151,-91,-2053,33,16,-30,-149,65,-214,42
,38,2023-10-27 11:04:52.89,124,-89,-2058,33,5,-31,-298,-112,-186,205
,39,2023-10-27 11:04:52.90,160,-91,-2073,36,-22,-27,-152,53,-205,49
,40,2023-10-27 11:04:52.91,152,-108,-2069,25,-6,-23,-296,-123,-173,209
,41,2023-10-27 11:04:52.92,146,-113,-2064,20,-9,-19,-140,46,-186,47
,42,2023-10-27 11:04:52.93,182,-149,-2038,19,-9,-11,-285,-129,-156,207
,43,2023-10-27 11:04:52.94,147,-111,-2042,24,21,-5,-126,32,-158,47
,44,2023-10-27 11:04:52.95,156,-113,-2049,22,21,1,-281,-128,-153,204
,45,2023-10-27 11:04:52.96,150,-108,-2053,5,15,11,-124,42,-166,41
,46,2023-10-27 11:04:52.97,155,-115,-2057,2,10,25,-273,-130,-143,201
,47,2023-10-27 11:04:52.98,165,-121,-2044,14,12,29,-119,22,-141,48
,48,2023-10-27 11:04:52.99,161,-124,-2056,15,13,36,-278,-143,-135,210
,49,2023-10-27 11:04:53.00,166,-103,-2050,5,2,43,-128,15,-143,56
,50,2023-10-27 11:04:53.01,150,-106,-2069,-1,-1,49,-295,-145,-150,220
,51,2023-10-27 11:04:53.02,156,-97,-2074,-2,-8,56,-146,14,-160,66
,52,2023-10-27 11:04:53.03,143,-90,-2063,-7,-17,61,-297,-142,-155,219
,53,2023-10-27 11:04:53.04,150,-90,-2056,-15,-23,66,-147,21,-168,63
,54,2023-10-27 11:04:53.05,151,-89,-2058,-23,-28,68,-328,-126,-202,227
,55,2023-10-27 11:04:53.06,148,-87,-2047,-24,-31,70,-179,31,-210,74
,56,2023-10-27 11:04:53.07,155,-83,-2053,-14,-29,67,-341,-119,-222,230
,57,2023-10-27 11:04:53.08,171,-93,-2046,-11,-29,64,-198,29,-227,84
,58,2023-10-27 11:04:53.09,164,-87,-2037,-4,-23,60,-365,-111,-254,238
,59,2023-10-27 11:04:53.10,176,-80,-2030,2,-12,53,-202,41,-243,80
,60,2023-10-27 11:04:53.11,168,-82,-2025,7,2,49,-342,-90,-252,216
,61,2023-10-27 11:04:53.12,169,-86,-2018,25,31,38,-182,59,-241,61
,62,2023-10-27 11:04:53.13,151,-106,-2047,37,41,35,-341,-74,-267,207
,63,2023-10-27 11:04:53.14,155,-97,-2075,42,37,38,-190,60,-250,65
,64,2023-10-27 11:04:53.15,162,-91,-2076,47,29,42,-344,-87,-257,215
,65,2023-10-27 11:04:53.16,175,-86,-2070,50,28,46,-189,50,-239,69
,66,2023-10-27 11:04:53.17,166,-77,-2077,45,29,44,-343,-86,-257,214
,67,2023-10-27 11:04:53.18,167,-87,-2083,33,28,41,-190,48,-238,71
,68,2023-10-27 11:04:53.19,169,-97,-2093,20,36,44,-332,-76,-256,204
,69,2023-10-27 11:04:53.20,147,-102,-2087,15,34,47,-180,48,-228,66
,70,2023-10-27 11:04:53.21,178,-104,-2075,15,23,53,-330,-71,-259,200
,71,2023-10-27 11:04:53.22,167,-108,-2057,8,18,58,-184,51,-235,66
,72,2023-10-27 11:04:53.23,150,-114,-2046,6,15,62,-331,-65,-266,198
,73,2023-10-27 11:04:53.24,159,-109,-2045,7,12,64,-177,48,-225,64
,74,2023-10-27 11:04:53.25,154,-119,-2045,11,1,68,-324,-69,-255,196
,75,2023-10-27 11:04:53.26,159,-117,-2054,16,-12,74,-171,46,-217,62
,76,2023-10-27 11:04:53.27,146,-120,-2054,23,-27,77,-320,-70,-250,195
,77,2023-10-27 11:04:53.28,154,-120,-2060,34,-38,84,-175,39,-214,68
,78,2023-10-27 11:04:53.29,142,-131,-2048,43,-45,89,-300,-45,-255,172
,79,2023-10-27 11:04:53.30,155,-129,-2047,53,-43,89,-138,67,-205,35
,80,2023-10-27 11:04:53.31,154,-123,-2062,60,-43,86,-269,-18,-251,143
,81,2023-10-27 11:04:53.32,150,-117,-2077,65,-45,83,-132,83,-215,24
,82,2023-10-27 11:04:53.33,155,-109,-2073,63,-38,83,-260,5,-265,127
,83,2023-10-27 11:04:53.34,139,-116,-2069,66,-39,83,-110,99,-209,5
,84,2023-10-27 11:04:53.35,140,-111,-2073,60,-45,83,-235,20,-255,107
,85,2023-10-27 11:04:53.36,138,-112,-2075,49,-36,84,-96,105,-201,-4
,86,2023-10-27 11:04:53.37,126,-108,-2070,38,-40,87,-215,18,-233,98
,87,2023-10-27 11:04:53.38,137,-113,-2077,34,-49,89,-88,91,-179,-1
,88,2023-10-27 11:04:53.39,127,-115,-2067,23,-49,92,-241,8,-249,116
,89,2023-10-27 11:04:53.40,130,-101,-2066,16,-40,91,-128,75,-203,26
,90,2023-10-27 11:04:53.41,134,-100,-2056,11,-42,92,-230,0,-230,115
,91,2023-10-27 11:04:53.42,121,-111,-2036,11,-32,88,-90,69,-159,10
,92,2023-10-27 11:04:53.43,127,-106,-2036,14,-28,89,-232,-6,-226,119
,93,2023-10-27 11:04:53.44,135,-105,-2035,15,-11,83,-123,56,-179,33
,94,2023-10-27 11:04:53.45,109,-109,-2041,20,-1,77,-259,-13,-246,136
,95,2023-10-27 11:04:53.46,123,-102,-2042,30,-16,79,-149,37,-186,56
,96,2023-10-27 11:04:53.47,109,-89,-2060,41,-23,78,-273,-32,-241,152
,97,2023-10-27 11:04:53.48,115,-107,-2048,47,-33,75,-162,19,-181,71
,98,2023-10-27 11:04:53.49,114,-122,-2043,50,-24,74,-284,-45,-239,164
,99,2023-10-27 11:04:53.50,128,-109,-2035,67,-35,71,-175,2,-177,86
,100,2023-10-27 11:04:53.51,139,-123,-2050,72,-7,65,-302,-46,-256,174
,101,2023-10-27 11:04:53.52,93,-114,-2055,74,4,56,-199,-4,-195,101
,102,2023-10-27 11:04:53.53,101,-119,-2069,75,-11,54,-305,-53,-252,179
,103,2023-10-27 11:04:53.54,106,-117,-2088,78,-17,58,-199,-12,-187,105
,104,2023-10-27 11:04:53.55,109,-109,-2079,75,-19,58,-306,-51,-255,178
,105,2023-10-27 11:04:53.56,123,-110,-2069,61,-14,57,-208,-24,-184,116
,106,2023-10-27 11:04:53.57,102,-112,-2060,46,-7,53,-310,-60,-250,185
,107,2023-10-27 11:04:53.58,102,-108,-2061,37,-29,56,-206,-24,-182,115
,108,2023-10-27 11:04:53.59,122,-114,-2046,36,-35,55,-296,-45,-251,170
,109,2023-10-27 11:04:53.60,119,-115,-2056,33,-28,53,-197,-22,-175,109
,110,2023-10-27 11:04:53.61,112,-115,-2053,19,-19,51,-294,-44,-250,169
,111,2023-10-27 11:04:53.62,108,-114,-2060,8,-18,47,-198,-21,-177,109
,112,2023-10-27 11:04:53.63,108,-122,-2062,4,-25,47,-284,-46,-238,165
,113,2023-10-27 11:04:53.64,107,-119,-2059,4,-26,48,-198,-35,-163,116
,114,2023-10-27 11:04:53.65,112,-117,-2049,-1,-28,44,-282,-46,-236,164
,115,2023-10-27 11:04:53.66,113,-124,-2048,-11,-30,44,-200,-40,-160,120
,116,2023-10-27 11:04:53.67,127,-135,-2056,-21,-21,44,-268,-50,-218,159
,117,2023-10-27 11:04:53.68,114,-149,-2057,-23,-23,41,-187,-48,-139,117
,118,2023-10-27 11:04:53.69,123,-157,-2042,-6,-34,41,-248,-43,-205,145
,119,2023-10-27 11:04:53.70,121,-152,-2037,2,-17,39,-176,-48,-128,112
,120,2023-10-27 11:04:53.71,125,-141,-2040,1,-3,33,-259,-51,-208,155
,121,2023-10-27 11:04:53.72,115,-142,-2053,-3,9,28,-196,-57,-139,126
,122,2023-10-27 11:04:53.73,112,-129,-2055,-3,13,26,-248,-49,-199,148
,123,2023-10-27 11:04:53.74,120,-127,-2062,0,6,20,-184,-64,-120,124
,124,2023-10-27 11:04:53.75,117,-123,-2056,5,1,16,-238,-43,-195,140
,125,2023-10-27 11:04:53.76,120,-131,-2052,5,2,9,-184,-70,-114,127
,126,2023-10-27 11:04:53.77,128,-126,-2049,3,5,0,-233,-45,-188,139
,127,2023-10-27 11:04:53.78,116,-128,-2046,4,10,-6,-184,-72,-112,128
,128,2023-10-27 11:04:53.79,114,-134,-2055,3,12,-13,-237,-42,-195,139
,129,2023-10-27 11:04:53.80,117,-129,-2051,1,14,-17,-194,-82,-112,138
,130,2023-10-27 11:04:53.81,119,-129,-2031,3,16,-20,-234,-45,-189,139
,131,2023-10-27 11:04:53.82,134,-149,-2037,5,23,-23,-198,-88,-110,143
,132,2023-10-27 11:04:53.83,122,-159,-2036,8,29,-23,-235,-43,-192,139
,133,2023-10-27 11:04:53.84,135,-155,-2033,13,37,-24,-205,-85,-120,145
,134,2023-10-27 11:04:53.85,126,-155,-2053,15,50,-25,-235,-32,-203,133
,135,2023-10-27 11:04:53.86,127,-146,-2060,16,60,-28,-207,-83,-124,145
,136,2023-10-27 11:04:53.87,121,-132,-2056,6,65,-29,-233,-27,-206,130
,137,2023-10-27 11:04:53.88,93,-120,-2184,-20,71,-24,-219,-84,-135,151
,138,2023-10-27 11:04:53.89,141,-136,-2060,-45,21,-22,-243,-18,-225,130
,139,2023-10-27 11:04:53.90,150,-102,-2004,-38,37,-23,-222,-91,-131,156
,140,2023-10-27 11:04:53.91,130,-88,-2034,-20,48,-31,-240,-22,-218,131
,141,2023-10-27 11:04:53.92,127,-100,-2078,-41,44,-41,-226,-87,-139,156
,142,2023-10-27 11:04:53.93,140,-97,-2087,-71,34,-44,-241,-3,-238,122
,143,2023-10-27 11:04:53.94,157,-96,-2025,-72,22,-46,-237,-93,-144,165
,144,2023-10-27 11:04:53.95,157,-87,-2016,-54,18,-54,-238,-23,-215,130
,145,2023-10-27 11:04:53.96,135,-91,-2041,-46,16,-62,-239,-102,-137,170
,146,2023-10-27 11:04:53.97,144,-108,-2049,-47,2,-64,-245,-4,-241,124
,147,2023-10-27 11:04:53.98,135,-118,-2054,-39,-6,-64,-253,-89,-164,171
,148,2023-10-27 11:04:53.99,138,-133,-2051,-17,-19,-61,-246,1,-247,122
,149,2023-10-27 11:04:54.00,148,-145,-2049,0,-23,-54,-260,-93,-167,176
,150,2023-10-27 11:04:54.01,128,-138,-2053,8,-24,-45,-251,10,-261,120
,151,2023-10-27 11:04:54.02,135,-137,-2057,13,-20,-37,-261,-82,-179,171
,152,2023-10-27 11:04:54.03,144,-131,-2064,17,-21,-25,-230,27,-257,101
,153,2023-10-27 11:04:54.04,137,-120,-2060,17,-23,-13,-251,-85,-166,168
,154,2023-10-27 11:04:54.05,156,-116,-2051,14,-21,-4,-227,30,-257,98
,155,2023-10-27 11:04:54.06,144,-112,-2052,11,-12,1,-254,-82,-172,168
,156,2023-10-27 11:04:54.07,141,-126,-2053,9,-2,6,-229,23,-252,103
,157,2023-10-27 11:04:54.08,125,-125,-2071,6,1,8,-270,-87,-183,178
,158,2023-10-27 11:04:54.09,149,-125,-2074,4,-3,11,-234,37,-271,98
,159,2023-10-27 11:04:54.10,128,-113,-2065,6,-14,17,-270,-87,-183,178
,160,2023-10-27 11:04:54.11,137,-120,-2056,12,-13,23,-226,38,-264,94
,161,2023-10-27 11:04:54.12,134,-131,-2059,15,-10,23,-268,-95,-173,181
,162,2023-10-27 11:04:54.13,137,-115,-2052,14,-10,24,-207,48,-255,79
,163,2023-10-27 11:04:54.14,138,-120,-2055,18,-12,27,-255,-83,-172,169
,164,2023-10-27 11:04:54.15,137,-126,-2054,25,-16,28,-204,46,-250,79
,165,2023-10-27 11:04:54.16,144,-115,-2048,34,-18,29,-257,-90,-167,173
,166,2023-10-27 11:04:54.17,131,-115,-2047,36,-13,25,-199,51,-250,74
,167,2023-10-27 11:04:54.18,128,-111,-2061,33,-12,23,-262,-86,-176,174
,168,2023-10-27 11:04:54.19,114,-113,-2066,35,-23,23,-200,60,-260,70
,169,2023-10-27 11:04:54.20,121,-118,-2060,35,-31,27,-257,-82,-175,169
,170,2023-10-27 11:04:54.21,116,-117,-2057,38,-39,29,-184,69,-253,57
,171,2023-10-27 11:04:54.22,123,-114,-2058,38,-43,27,-252,-73,-179,162
,172,2023-10-27 11:04:54.23,120,-122,-2057,38,-40,25,-173,78,-251,47
,173,2023-10-27 11:04:54.24,121,-124,-2058,38,-39,28,-258,-76,-182,167
,174,2023-10-27 11:04:54.25,121,-117,-2060,33,-41,28,-192,76,-268,58
,175,2023-10-27 11:04:54.26,112,-112,-2051,32,-37,28,-272,-81,-191,176
,176,2023-10-27 11:04:54.27,104,-116,-2042,33,-30,23,-189,75,-264,57
,177,2023-10-27 11:04:54.28,114,-123,-2047,34,-21,23,-269,-86,-183,177
,178,2023-10-27 11:04:54.29,113,-124,-2049,29,-17,21,-186,63,-249,61
,179,2023-10-27 11:04:54.30,103,-126,-2055,30,-12,20,-289,-96,-193,192
,180,2023-10-27 11:04:54.31,105,-124,-2054,38,-5,19,-205,65,-270,70
,181,2023-10-27 11:04:54.32,113,-132,-2043,43,-7,22,-296,-102,-194,199
,182,2023-10-27 11:04:54.33,103,-130,-2050,46,-3,25,-195,59,-254,68
,183,2023-10-27 11:04:54.34,113,-135,-2048,52,10,22,-294,-108,-186,201
,184,2023-10-27 11:04:54.35,108,-131,-2042,60,14,22,-195,57,-252,69
,185,2023-10-27 11:04:54.36,106,-127,-2044,63,25,22,-298,-113,-185,205
,186,2023-10-27 11:04:54.37,110,-121,-2045,61,31,24,-194,47,-241,73
,187,2023-10-27 11:04:54.38,110,-135,-2050,57,41,22,-303,-121,-182,212
,188,2023-10-27 11:04:54.39,125,-129,-2053,57,52,23,-194,54,-248,70
,189,2023-10-27 11:04:54.40,110,-128,-2052,57,57,21,-297,-106,-191,201
,190,2023-10-27 11:04:54.41,114,-130,-2047,53,63,23,-172,66,-238,53
,191,2023-10-27 11:04:54.42,113,-130,-2057,46,66,21,-277,-104,-173,190
,192,2023-10-27 11:04:54.43,117,-123,-2055,40,69,19,-162,72,-234,45
,193,2023-10-27 11:04:54.44,119,-124,-2056,35,71,19,-275,-87,-188,181
,194,2023-10-27 11:04:54.45,114,-130,-2058,37,70,16,-160,88,-248,36
,195,2023-10-27 11:04:54.46,119,-131,-2057,33,65,14,-280,-89,-191,184
,196,2023-10-27 11:04:54.47,122,-129,-2056,34,61,12,-151,83,-234,34
,197,2023-10-27 11:04:54.48,126,-142,-2069,35,57,13,-279,-88,-191,183
,198,2023-10-27 11:04:54.49,130,-139,-2055,36,53,14,-154,90,-244,32
,199,2023-10-27 11:04:54.50,132,-137,-2047,37,50,12,-284,-100,-184,192
,200,2023-10-27 11:04:54.51,146,-142,-2060,40,49,11,-148,81,-229,33
,201,2023-10-27 11:04:54.52,128,-133,-2058,35,48,14,-284,-91,-193,187
,202,2023-10-27 11:04:54.53,130,-140,-2049,33,45,15,-152,89,-241,31
,203,2023-10-27 11:04:54.54,127,-156,-2052,31,43,17,-284,-90,-194,187
,204,2023-10-27 11:04:54.55,132,-164,-2057,29,42,18,-148,82,-230,33
,205,2023-10-27 11:04:54.56,150,-156,-2057,29,42,20,-288,-93,-195,190
,206,2023-10-27 11:04:54.57,144,-140,-2055,33,43,17,-156,85,-241,35
,207,2023-10-27 11:04:54.58,147,-133,-2058,33,38,16,-289,-90,-199,189
,208,2023-10-27 11:04:54.59,150,-133,-2060,30,30,10,-143,85,-228,29
,209,2023-10-27 11:04:54.60,139,-144,-2064,25,25,7,-284,-88,-196,186
,210,2023-10-27 11:04:54.61,146,-142,-2059,25,20,4,-146,87,-233,29
,211,2023-10-27 11:04:54.62,142,-149,-2057,31,13,6,-284,-92,-192,188
,212,2023-10-27 11:04:54.63,148,-148,-2052,28,7,6,-136,80,-216,28
,213,2023-10-27 11:04:54.64,144,-145,-2050,23,5,11,-290,-92,-198,191
,214,2023-10-27 11:04:54.65,128,-162,-2055,20,1,14,-150,80,-230,35
,215,2023-10-27 11:04:54.66,154,-154,-2052,16,-1,16,-297,-87,-210,192
,216,2023-10-27 11:04:54.67,146,-152,-2046,19,1,22,-144,78,-222,33
,217,2023-10-27 11:04:54.68,140,-155,-2041,20,4,23,-296,-93,-203,194
,218,2023-10-27 11:04:54.69,143,-158,-2039,18,8,27,-146,81,-227,32
,219,2023-10-27 11:04:54.70,148,-160,-2050,16,12,28,-299,-85,-214,192
,220,2023-10-27 11:04:54.71,138,-170,-2054,19,12,30,-144,78,-222,33
,221,2023-10-27 11:04:54.72,143,-164,-2066,25,11,34,-296,-87,-209,191
,222,2023-10-27 11:04:54.73,164,-149,-2052,27,9,34,-147,82,-229,32
,223,2023-10-27 11:04:54.74,138,-147,-2062,27,8,33,-302,-83,-219,192
,224,2023-10-27 11:04:54.75,141,-153,-2069,28,2,32,-144,70,-214,37
,225,2023-10-27 11:04:54.76,144,-152,-2071,32,-10,34,-300,-97,-203,198
,226,2023-10-27 11:04:54.77,133,-152,-2069,38,-19,32,-154,63,-217,45
,227,2023-10-27 11:04:54.78,120,-160,-2070,43,-30,29,-314,-92,-222,203
,228,2023-10-27 11:04:54.79,124,-157,-2068,45,-44,30,-165,58,-223,53
,229,2023-10-27 11:04:54.80,117,-158,-2071,50,-57,32,-308,-96,-212,202
,230,2023-10-27 11:04:54.81,111,-162,-2068,52,-69,38,-148,68,-216,40
,231,2023-10-27 11:04:54.82,121,-154,-2060,54,-78,39,-301,-81,-220,191
,232,2023-10-27 11:04:54.83,120,-169,-2051,55,-76,40,-143,72,-215,35
,233,2023-10-27 11:04:54.84,132,-169,-2053,53,-68,41,-300,-84,-216,192
,234,2023-10-27 11:04:54.85,143,-151,-2027,45,-56,40,-152,69,-221,41
,235,2023-10-27 11:04:54.86,147,-164,-2025,40,-28,35,-295,-79,-216,187
,236,2023-10-27 11:04:54.87,140,-170,-2028,33,-2,31,-133,69,-202,32
,237,2023-10-27 11:04:54.88,138,-175,-2029,27,19,27,-286,-71,-215,178
,238,2023-10-27 11:04:54.89,131,-169,-2038,27,34,28,-138,73,-211,32
,239,2023-10-27 11:04:54.90,126,-167,-2038,24,42,24,-287,-68,-219,177
,240,2023-10-27 11:04:54.91,143,-165,-2042,20,51,25,-140,58,-198,41
,241,2023-10-27 11:04:54.92,139,-168,-2045,12,47,28,-287,-76,-211,181
,242,2023-10-27 11:04:54.93,135,-170,-2050,10,45,27,-141,56,-197,42
,243,2023-10-27 11:04:54.94,129,-169,-2054,7,42,31,-287,-75,-212,181
,244,2023-10-27 11:04:54.95,139,-178,-2055,4,37,35,-133,59,-192,37
,245,2023-10-27 11:04:54.96,139,-177,-2061,-1,34,40,-285,-73,-212,179
,246,2023-10-27 11:04:54.97,147,-168,-2058,-5,30,44,-143,49,-192,47
,247,2023-10-27 11:04:54.98,141,-159,-2053,-15,27,47,-293,-72,-221,182
,248,2023-10-27 11:04:54.99,145,-151,-2054,-22,23,50,-149,48,-197,50
,249,2023-10-27 11:04:55.00,109,-162,-2084,-36,1,55,-292,-82,-210,187
,250,2023-10-27 11:04:55.01,174,-164,-2003,-19,-33,59,-150,29,-179,60
,251,2023-10-27 11:04:55.02,126,-143,-2078,-14,1,53,-299,-78,-221,188
,252,2023-10-27 11:04:55.03,137,-148,-2048,-27,-3,46,-156,42,-198,57
,253,2023-10-27 11:04:55.04,139,-143,-2076,-34,-2,42,-300,-69,-231,184
,254,2023-10-27 11:04:55.05,128,-142,-2067,-29,-13,36,-161,32,-193,64
,255,2023-10-27 11:04:55.06,136,-147,-2059,-21,-21,30,-302,-75,-227,188
,256,2023-10-27 11:04:55.07,144,-140,-2044,-16,-27,20,-161,24,-185,68
,257,2023-10-27 11:04:55.08,152,-141,-2047,-16,-24,13,-301,-75,-226,188
,258,2023-10-27 11:04:55.09,148,-149,-2043,-11,-26,4,-172,18,-190,77
,259,2023-10-27 11:04:55.10,151,-152,-2040,-4,-32,-6,-307,-76,-231,191
,260,2023-10-27 11:04:55.11,147,-152,-2051,3,-39,-11,-166,22,-188,72
,261,2023-10-27 11:04:55.12,150,-148,-2054,1,-28,-17,-299,-66,-233,182
,262,2023-10-27 11:04:55.13,137,-149,-2052,1,-27,-19,-169,16,-185,76
,263,2023-10-27 11:04:55.14,137,-159,-2059,0,-27,-16,-300,-69,-231,184
,264,2023-10-27 11:04:55.15,130,-164,-2059,-3,-30,-16,-168,17,-185,75
,265,2023-10-27 11:04:55.16,138,-161,-2056,-5,-29,-9,-291,-64,-227,177
,266,2023-10-27 11:04:55.17,125,-168,-2050,-10,-23,-5,-165,13,-178,76
,267,2023-10-27 11:04:55.18,132,-177,-2051,-16,-15,4,-296,-56,-240,176
,268,2023-10-27 11:04:55.19,108,-165,-2050,-17,-24,18,-174,16,-190,79
,269,2023-10-27 11:04:55.20,154,-170,-2048,-20,-20,28,-297,-54,-243,175
,270,2023-10-27 11:04:55.21,124,-159,-2056,-29,2,29,-179,5,-184,87
,271,2023-10-27 11:04:55.22,130,-159,-2049,-28,-7,35,-303,-68,-235,185
,272,2023-10-27 11:04:55.23,128,-154,-2053,-26,-8,38,-182,-11,-171,96
,273,2023-10-27 11:04:55.24,126,-158,-2053,-25,-5,43,-302,-66,-236,184
,274,2023-10-27 11:04:55.25,128,-160,-2053,-24,-7,47,-189,-10,-179,99
,275,2023-10-27 11:04:55.26,122,-150,-2056,-23,-7,44,-306,-55,-251,180
,276,2023-10-27 11:04:55.27,131,-139,-2051,-17,-5,41,-193,-10,-183,101
,277,2023-10-27 11:04:55.28,123,-136,-2050,-13,-3,36,-307,-61,-246,184
,278,2023-10-27 11:04:55.29,124,-135,-2048,-9,-4,29,-200,-21,-179,110
,279,2023-10-27 11:04:55.30,115,-141,-2055,-5,-8,25,-313,-78,-235,195
,280,2023-10-27 11:04:55.31,117,-139,-2053,-2,-6,25,-212,-39,-173,125
,281,2023-10-27 11:04:55.32,116,-134,-2051,6,-1,23,-308,-66,-242,187
,282,2023-10-27 11:04:55.33,110,-143,-2046,18,15,27,-196,-21,-175,108
,283,2023-10-27 11:04:55.34,113,-156,-2037,33,41,28,-295,-45,-250,170
,284,2023-10-27 11:04:55.35,120,-164,-2029,37,73,30,-210,-35,-175,122
,285,2023-10-27 11:04:55.36,106,-171,-2024,37,112,34,-347,-108,-239,227
,286,2023-10-27 11:04:55.37,134,-188,-2007,38,146,49,-320,-141,-179,230
,287,2023-10-27 11:04:55.38,29,-220,-1964,80,141,65,-589,-336,-253,462
,288,2023-10-27 11:04:55.39,146,-195,-1993,153,124,95,-595,-397,-198,496
,289,2023-10-27 11:04:55.40,144,-228,-1974,213,166,110,-870,-644,-226,757
,290,2023-10-27 11:04:55.41,136,-243,-1964,249,221,122,-852,-691,-161,771
,291,2023-10-27 11:04:55.42,130,-257,-2036,269,300,127,-1039,-863,-176,951
,292,2023-10-27 11:04:55.43,162,-209,-1976,300,346,129,-952,-830,-122,891
,293,2023-10-27 11:04:55.44,172,-168,-1909,371,381,120,-1079,-920,-159,999
,294,2023-10-27 11:04:55.45,206,-181,-1924,492,379,92,-952,-826,-126,889
,295,2023-10-27 11:04:55.46,213,-150,-1988,600,374,40,-1025,-863,-162,944
,296,2023-10-27 11:04:55.47,233,-81,-1999,690,377,-47,-855,-750,-105,802
,297,2023-10-27 11:04:55.48,256,-31,-2044,775,378,-170,-894,-719,-175,806
,298,2023-10-27 11:04:55.49,244,-14,-2122,838,346,-314,-712,-573,-139,642
,299,2023-10-27 11:04:55.50,250,4,-2189,887,284,-463,-704,-490,-214,597
,300,2023-10-27 11:04:55.51,254,14,-2218,926,203,-616,-493,-349,-144,421
,301,2023-10-27 11:04:55.52,242,-8,-2231,947,99,-761,-440,-209,-231,324
,302,2023-10-27 11:04:55.53,229,-88,-2209,945,-19,-882,-241,-91,-150,166
,303,2023-10-27 11:04:55.54,180,-172,-2178,952,-173,-963,-127,80,-207,23
,304,2023-10-27 11:04:55.55,224,-242,-2152,954,-299,-1001,31,144,-113,-87
,305,2023-10-27 11:04:55.56,282,-424,-1975,950,-407,-1033,123,297,-174,-210
,306,2023-10-27 11:04:55.57,270,-447,-1987,912,-378,-1044,192,269,-77,-230
,307,2023-10-27 11:04:55.58,228,-426,-2139,817,-353,-1023,233,382,-149,-307
,308,2023-10-27 11:04:55.59,244,-438,-2241,660,-345,-974,239,304,-65,-271
,309,2023-10-27 11:04:55.60,276,-453,-2305,465,-290,-916,256,393,-137,-324
,310,2023-10-27 11:04:55.61,246,-536,-2052,295,-283,-860,229,275,-46,-252
,311,2023-10-27 11:04:55.62,236,-542,-1989,209,-261,-776,214,330,-116,-272
,312,2023-10-27 11:04:55.63,239,-573,-1994,144,-294,-688,159,201,-42,-180
,313,2023-10-27 11:04:55.64,228,-566,-1999,80,-308,-604,130,254,-124,-192
,314,2023-10-27 11:04:55.65,242,-530,-2011,23,-316,-528,77,124,-47,-100
,315,2023-10-27 11:04:55.66,242,-531,-1998,-55,-303,-460,53,169,-116,-111
,316,2023-10-27 11:04:55.67,229,-510,-2002,-132,-294,-405,-6,48,-54,-21
,317,2023-10-27 11:04:55.68,229,-496,-2012,-182,-308,-362,-37,102,-139,-32
,318,2023-10-27 11:04:55.69,210,-481,-2016,-209,-342,-315,-83,-17,-66,50
,319,2023-10-27 11:04:55.70,215,-443,-2016,-240,-385,-279,-96,39,-135,28
,320,2023-10-27 11:04:55.71,200,-442,-2034,-281,-427,-245,-144,-66,-78,105
,321,2023-10-27 11:04:55.72,201,-432,-2061,-335,-456,-221,-178,-2,-176,90
,322,2023-10-27 11:04:55.73,197,-455,-2030,-375,-466,-194,-207,-102,-105,154
,323,2023-10-27 11:04:55.74,202,-474,-1973,-382,-454,-162,-160,29,-189,65
,324,2023-10-27 11:04:55.75,186,-500,-1928,-357,-448,-130,-166,-45,-121,105
,325,2023-10-27 11:04:55.76,183,-485,-1891,-330,-422,-96,-168,42,-210,63
,326,2023-10-27 11:04:55.77,165,-528,-1851,-288,-386,-67,-200,-65,-135,132
,327,2023-10-27 11:04:55.78,152,-505,-1857,-224,-332,-31,-185,40,-225,72
,328,2023-10-27 11:04:55.79,135,-475,-1909,-149,-288,6,-208,-58,-150,133
,329,2023-10-27 11:04:55.80,108,-445,-1958,-90,-240,48,-183,52,-235,65
,330,2023-10-27 11:04:55.81,133,-386,-1976,-60,-153,78,-244,-77,-167,160
,331,2023-10-27 11:04:55.82,118,-402,-1943,-36,-44,85,-249,10,-259,119
,332,2023-10-27 11:04:55.83,82,-375,-1998,-18,60,89,-285,-96,-189,190
,333,2023-10-27 11:04:55.84,53,-370,-2049,-7,115,95,-245,47,-292,99
,334,2023-10-27 11:04:55.85,-15,-346,-2112,13,123,122,-278,-57,-221,167
,335,2023-10-27 11:04:55.86,54,-360,-2104,44,102,150,-242,73,-315,84
,336,2023-10-27 11:04:55.87,47,-378,-2009,91,94,160,-283,-56,-227,169
,337,2023-10-27 11:04:55.88,16,-397,-2008,156,72,178,-249,72,-321,88
,338,2023-10-27 11:04:55.89,66,-397,-2115,169,76,211,-294,-49,-245,171
,339,2023-10-27 11:04:55.90,26,-481,-2084,138,102,257,-244,91,-335,76
,340,2023-10-27 11:04:55.91,18,-512,-2099,116,124,333,-292,-44,-248,168
,341,2023-10-27 11:04:55.92,13,-576,-2081,96,134,434,-236,93,-329,71
,342,2023-10-27 11:04:55.93,-13,-632,-2082,77,136,570,-296,-40,-256,168
,343,2023-10-27 11:04:55.94,-19,-692,-2062,49,131,743,-232,117,-349,57
,344,2023-10-27 11:04:55.95,0,-747,-2074,7,137,945,-291,-20,-271,155
,345,2023-10-27 11:04:55.96,10,-794,-2052,-45,136,1174,-215,141,-356,37
,346,2023-10-27 11:04:55.97,59,-776,-2001,-93,146,1404,-261,-4,-257,132
,347,2023-10-27 11:04:55.98,105,-709,-1967,-134,167,1620,-178,160,-338,9
,348,2023-10-27 11:04:55.99,131,-641,-1913,-169,193,1814,-247,7,-254,120
,349,2023-10-27 11:04:56.00,161,-580,-1861,-208,237,1979,-156,170,-326,-7
,350,2023-10-27 11:04:56.01,145,-503,-1888,-244,297,2113,-216,11,-227,102
,351,2023-10-27 11:04:56.02,172,-462,-1911,-283,323,2220,-122,179,-301,-28
,352,2023-10-27 11:04:56.03,181,-418,-1943,-319,344,2292,-203,24,-227,89
,353,2023-10-27 11:04:56.04,174,-368,-1914,-322,358,2322,-103,196,-299,-46
,354,2023-10-27 11:04:56.05,150,-293,-1945,-285,358,2314,-185,30,-215,77
,355,2023-10-27 11:04:56.06,128,-240,-2036,-263,335,2286,-102,191,-293,-44
,356,2023-10-27 11:04:56.07,105,-199,-2101,-274,311,2244,-204,11,-215,96
,357,2023-10-27 11:04:56.08,91,-196,-2065,-282,269,2185,-121,158,-279,-18
,358,2023-10-27 11:04:56.09,81,-217,-2026,-255,218,2126,-228,-15,-213,121
,359,2023-10-27 11:04:56.10,88,-212,-2020,-218,191,2051,-143,136,-279,3
,360,2023-10-27 11:04:56.11,85,-169,-2006,-197,173,1961,-250,-37,-213,143
,361,2023-10-27 11:04:56.12,71,-148,-2016,-178,138,1854,-159,121,-280,19
,362,2023-10-27 11:04:56.13,93,-120,-2073,-166,128,1741,-260,-51,-209,155
,363,2023-10-27 11:04:56.14,44,-132,-2024,-151,122,1620,-140,117,-257,11
,364,2023-10-27 11:04:56.15,41,-120,-2060,-123,108,1513,-247,-53,-194,150
,365,2023-10-27 11:04:56.16,17,-141,-2072,-120,91,1415,-133,128,-261,2
,366,2023-10-27 11:04:56.17,21,-163,-2052,-126,91,1322,-235,-34,-201,134
,367,2023-10-27 11:04:56.18,60,-185,-2023,-119,91,1232,-112,157,-269,-22
,368,2023-10-27 11:04:56.19,63,-147,-2013,-101,91,1134,-220,-19,-201,119
,369,2023-10-27 11:04:56.20,62,-96,-2014,-79,95,1025,-84,158,-242,-37
,370,2023-10-27 11:04:56.21,65,-54,-1998,-62,93,908,-184,-8,-176,96
,371,2023-10-27 11:04:56.22,75,-45,-2012,-49,96,786,-42,180,-222,-69
,372,2023-10-27 11:04:56.23,74,-89,-2014,-35,91,665,-160,14,-174,73
,373,2023-10-27 11:04:56.24,62,-102,-2013,-20,92,552,-16,204,-220,-94
,374,2023-10-27 11:04:56.25,52,-92,-2042,-13,96,449,-114,48,-162,33
,375,2023-10-27 11:04:56.26,36,-116,-2120,-42,80,365,80,306,-226,-193
,376,2023-10-27 11:04:56.27,57,-121,-2144,-95,91,291,37,187,-150,-112
,377,2023-10-27 11:04:56.28,26,-148,-2086,-109,78,223,204,379,-175,-291
,378,2023-10-27 11:04:56.29,30,-199,-2076,-89,58,172,23,142,-119,-82
,379,2023-10-27 11:04:56.30,31,-234,-2052,-70,36,127,119,281,-162,-200
,380,2023-10-27 11:04:56.31,59,-261,-2039,-48,15,90,-46,74,-120,-14
,381,2023-10-27 11:04:56.32,59,-262,-2047,-21,-1,61,80,235,-155,-157
,382,2023-10-27 11:04:56.33,56,-266,-2069,-5,14,36,-101,24,-125,38
,383,2023-10-27 11:04:56.34,27,-270,-2063,14,-10,17,-1,164,-165,-81
,384,2023-10-27 11:04:56.35,76,-268,-2038,24,-19,2,-186,-40,-146,113
,385,2023-10-27 11:04:56.36,83,-265,-2013,38,-18,-13,-71,108,-179,-18
,386,2023-10-27 11:04:56.37,80,-271,-2002,55,-7,-37,-220,-77,-143,148
,387,2023-10-27 11:04:56.38,81,-260,-1989,66,6,-58,-81,94,-175,-6
,388,2023-10-27 11:04:56.39,83,-249,-2009,71,11,-83,-225,-83,-142,154
,389,2023-10-27 11:04:56.40,68,-226,-2068,49,11,-99,-84,89,-173,-2
,390,2023-10-27 11:04:56.41,76,-204,-2076,19,10,-117,-232,-78,-154,155
,391,2023-10-27 11:04:56.42,78,-214,-2074,2,25,-138,-75,95,-170,-10
,392,2023-10-27 11:04:56.43,86,-219,-2064,-13,27,-156,-217,-75,-142,146
,393,2023-10-27 11:04:56.44,88,-214,-2047,-34,29,-176,-64,96,-160,-16
,394,2023-10-27 11:04:56.45,104,-216,-2034,-53,40,-198,-204,-67,-137,135
,395,2023-10-27 11:04:56.46,100,-209,-2035,-65,53,-220,-52,108,-160,-28
,396,2023-10-27 11:04:56.47,93,-206,-2040,-66,61,-244,-198,-56,-142,127
,397,2023-10-27 11:04:56.48,95,-207,-2044,-64,59,-266,-38,112,-150,-37
,398,2023-10-27 11:04:56.49,97,-199,-2043,-65,61,-289,-191,-52,-139,121
,399,2023-10-27 11:04:56.50,93,-193,-2016,-61,56,-315,-28,123,-151,-47
,400,2023-10-27 11:04:56.51,93,-184,-2008,-52,56,-350,-190,-45,-145,117
,401,2023-10-27 11:04:56.52,92,-197,-2009,-30,47,-386,-42,116,-158,-37
,402,2023-10-27 11:04:56.53,94,-217,-2026,-6,34,-418,-208,-54,-154,131
,403,2023-10-27 11:04:56.54,95,-193,-2020,25,9,-457,-74,93,-167,-9
,404,2023-10-27 11:04:56.55,104,-183,-2022,59,-13,-500,-260,-92,-168,176
,405,2023-10-27 11:04:56.56,107,-168,-2032,90,-34,-550,-139,37,-176,51
,406,2023-10-27 11:04:56.57,92,-163,-2036,116,-59,-602,-343,-170,-173,256
,407,2023-10-27 11:04:56.58,94,-170,-2048,141,-80,-659,-234,-59,-175,146
,408,2023-10-27 11:04:56.59,96,-176,-2052,167,-108,-716,-429,-246,-183,337
,409,2023-10-27 11:04:56.60,82,-189,-2051,197,-137,-770,-319,-138,-181,228
,410,2023-10-27 11:04:56.61,86,-188,-2067,228,-166,-822,-496,-307,-189,401
,411,2023-10-27 11:04:56.62,102,-211,-2076,249,-190,-878,-362,-177,-185,269
,412,2023-10-27 11:04:56.63,102,-221,-2076,250,-195,-936,-520,-314,-206,417
,413,2023-10-27 11:04:56.64,84,-201,-2123,251,-182,-985,-367,-176,-191,271
,414,2023-10-27 11:04:56.65,76,-210,-2160,216,-189,-1034,-506,-302,-204,404
,415,2023-10-27 11:04:56.66,60,-248,-2082,186,-210,-1067,-344,-151,-193,247
,416,2023-10-27 11:04:56.67,68,-267,-2061,179,-228,-1089,-456,-257,-199,356
,417,2023-10-27 11:04:56.68,69,-303,-2022,184,-251,-1110,-271,-94,-177,182
,418,2023-10-27 11:04:56.69,79,-293,-2032,189,-255,-1121,-384,-194,-190,289
,419,2023-10-27 11:04:56.70,58,-319,-2064,177,-253,-1127,-202,-45,-157,123
,420,2023-10-27 11:04:56.71,66,-331,-2035,158,-247,-1126,-325,-139,-186,232
,421,2023-10-27 11:04:56.72,74,-351,-2028,146,-221,-1120,-117,48,-165,34
,422,2023-10-27 11:04:56.73,47,-389,-2018,138,-203,-1103,-151,34,-185,58
,423,2023-10-27 11:04:56.74,46,-438,-2018,131,-188,-1069,33,199,-166,-116
,424,2023-10-27 11:04:56.75,43,-458,-2011,124,-160,-1026,-106,78,-184,14
,425,2023-10-27 11:04:56.76,24,-470,-2008,133,-157,-972,8,164,-156,-86
,426,2023-10-27 11:04:56.77,64,-472,-2008,142,-148,-907,-133,43,-176,45
,427,2023-10-27 11:04:56.78,52,-469,-1997,140,-129,-845,5,148,-143,-76
,428,2023-10-27 11:04:56.79,48,-459,-1985,131,-118,-777,-133,57,-190,38
,429,2023-10-27 11:04:56.80,97,-431,-1981,145,-117,-713,-3,164,-167,-80
,430,2023-10-27 11:04:56.81,58,-402,-2053,122,-77,-656,-122,71,-193,25
,431,2023-10-27 11:04:56.82,55,-416,-2043,60,-60,-595,9,158,-149,-83
,432,2023-10-27 11:04:56.83,63,-461,-2016,16,-37,-528,-117,59,-176,29
,433,2023-10-27 11:04:56.84,24,-493,-2040,-8,-17,-446,-7,135,-142,-64
,434,2023-10-27 11:04:56.85,54,-521,-2016,-15,-28,-355,-156,33,-189,61
,435,2023-10-27 11:04:56.86,42,-489,-2068,-43,9,-258,-46,108,-154,-31
,436,2023-10-27 11:04:56.87,26,-481,-2070,-95,27,-164,-173,18,-191,77
,437,2023-10-27 11:04:56.88,35,-515,-2047,-141,62,-62,-63,87,-150,-12
,438,2023-10-27 11:04:56.89,22,-527,-2067,-176,89,46,-196,-4,-192,100
,439,2023-10-27 11:04:56.90,12,-567,-2074,-205,109,166,-90,61,-151,14
,440,2023-10-27 11:04:56.91,16,-598,-2062,-231,123,308,-220,-11,-209,115
,441,2023-10-27 11:04:56.92,16,-612,-2025,-250,145,458,-124,62,-186,31
,442,2023-10-27 11:04:56.93,5,-615,-1976,-232,112,627,-254,-7,-247,130
,443,2023-10-27 11:04:56.94,73,-590,-2011,-201,96,794,-145,62,-207,41
,444,2023-10-27 11:04:56.95,73,-554,-1947,-185,79,937,-252,12,-264,120
,445,2023-10-27 11:04:56.96,108,-497,-1890,-151,70,1061,-132,82,-214,25
,446,2023-10-27 11:04:56.97,140,-416,-1953,-135,126,1158,-236,61,-297,87
,447,2023-10-27 11:04:56.98,116,-387,-1956,-143,182,1222,-111,124,-235,-6
,448,2023-10-27 11:04:56.99,124,-324,-2014,-157,223,1269,-194,100,-294,47
,449,2023-10-27 11:04:57.00,112,-312,-2018,-178,237,1308,-86,137,-223,-25
,450,2023-10-27 11:04:57.01,108,-295,-1964,-166,231,1327,-205,76,-281,64
,451,2023-10-27 11:04:57.02,106,-271,-1993,-134,225,1333,-118,98,-216,10
,452,2023-10-27 11:04:57.03,104,-221,-2054,-121,220,1321,-230,65,-295,82
,453,2023-10-27 11:04:57.04,119,-169,-2073,-129,203,1298,-132,96,-228,18
,454,2023-10-27 11:04:57.05,109,-131,-2086,-142,197,1252,-221,60,-281,80
,455,2023-10-27 11:04:57.06,113,-116,-2051,-152,192,1192,-124,80,-204,22
,456,2023-10-27 11:04:57.07,100,-67,-2041,-149,188,1117,-220,47,-267,86
,457,2023-10-27 11:04:57.08,128,-82,-2080,-147,186,1029,-137,63,-200,37
,458,2023-10-27 11:04:57.09,94,-83,-2077,-146,166,942,-235,49,-284,93
,459,2023-10-27 11:04:57.10,103,-85,-2092,-140,150,859,-143,71,-214,36
,460,2023-10-27 11:04:57.11,106,-109,-2078,-128,133,777,-219,72,-291,73
,461,2023-10-27 11:04:57.12,93,-117,-2074,-114,120,696,-137,74,-211,31
,462,2023-10-27 11:04:57.13,102,-112,-2093,-104,106,623,-219,64,-283,77
,463,2023-10-27 11:04:57.14,102,-122,-2093,-97,90,547,-142,60,-202,41
,464,2023-10-27 11:04:57.15,100,-117,-2073,-85,82,477,-212,67,-279,72
,465,2023-10-27 11:04:57.16,99,-133,-2065,-70,73,410,-136,66,-202,35
,466,2023-10-27 11:04:57.17,110,-144,-2049,-53,68,342,-197,79,-276,59
,467,2023-10-27 11:04:57.18,108,-148,-2040,-40,74,281,-122,67,-189,27
,468,2023-10-27 11:04:57.19,108,-154,-2042,-29,72,225,-186,80,-266,53
,469,2023-10-27 11:04:57.20,96,-178,-2014,-18,54,179,-123,61,-184,31
,470,2023-10-27 11:04:57.21,105,-182,-2000,12,34,133,-180,78,-258,51
,471,2023-10-27 11:04:57.22,94,-179,-2031,36,15,94,-110,58,-168,26
,472,2023-10-27 11:04:57.23,68,-187,-2037,41,4,59,-136,129,-265,3
,473,2023-10-27 11:04:57.24,107,-193,-2051,40,-1,26,-65,124,-189,-29
,474,2023-10-27 11:04:57.25,72,-202,-2071,34,2,-4,-75,200,-275,-62
,475,2023-10-27 11:04:57.26,80,-204,-2071,39,-57,-49,-26,160,-186,-67
,476,2023-10-27 11:04:57.27,83,-213,-2076,40,-81,-68,-53,204,-257,-75
,477,2023-10-27 11:04:57.28,81,-223,-2063,38,-92,-84,-38,127,-165,-44
,478,2023-10-27 11:04:57.29,64,-233,-2069,33,-102,-97,-111,133,-244,-11
,479,2023-10-27 11:04:57.30,73,-251,-2071,35,-111,-108,-112,45,-157,33
,480,2023-10-27 11:04:57.31,50,-249,-2072,36,-117,-113,-181,59,-240,61
,481,2023-10-27 11:04:57.32,70,-253,-2068,39,-124,-114,-165,-9,-156,87
,482,2023-10-27 11:04:57.33,56,-259,-2063,36,-122,-115,-223,17,-240,103
,483,2023-10-27 11:04:57.34,39,-258,-2057,34,-118,-116,-210,-46,-164,128
,484,2023-10-27 11:04:57.35,52,-250,-2042,32,-113,-116,-271,-18,-253,144
,485,2023-10-27 11:04:57.36,56,-257,-2032,35,-108,-118,-257,-78,-179,167
,486,2023-10-27 11:04:57.37,45,-260,-2018,35,-97,-117,-276,12,-288,132
,487,2023-10-27 11:04:57.38,53,-260,-2024,34,-85,-115,-211,-10,-201,110
,488,2023-10-27 11:04:57.39,43,-259,-2041,31,-70,-114,-200,63,-263,68
,489,2023-10-27 11:04:57.40,57,-257,-2028,32,-57,-113,-189,-24,-165,106
,490,2023-10-27 11:04:57.41,55,-261,-2023,38,-48,-110,-203,41,-244,81
,491,2023-10-27 11:04:57.42,43,-269,-2023,44,-35,-112,-200,-37,-163,118
,492,2023-10-27 11:04:57.43,53,-272,-2029,50,-22,-114,-210,43,-253,83
,493,2023-10-27 11:04:57.44,45,-269,-2035,54,-6,-117,-200,-34,-166,117
,494,2023-10-27 11:04:57.45,55,-269,-2035,62,12,-122,-196,51,-247,72
,495,2023-10-27 11:04:57.46,59,-281,-2038,68,30,-128,-202,-38,-164,120
,496,2023-10-27 11:04:57.47,51,-286,-2043,72,40,-129,-207,50,-257,78
,497,2023-10-27 11:04:57.48,62,-276,-2047,75,47,-137,-216,-46,-170,131
,498,2023-10-27 11:04:57.49,55,-273,-2045,79,53,-139,-213,36,-249,88
,499,2023-10-27 11:04:57.50,53,-267,-2037,74,54,-144,-222,-52,-170,137
,500,2023-10-27 11:04:57.51,54,-270,-2030,71,57,-146,-206,53,-259,76
,501,2023-10-27 11:04:57.52,54,-277,-2038,63,50,-149,-219,-51,-168,135
,502,2023-10-27 11:04:57.53,53,-273,-2031,56,42,-146,-193,48,-241,72
,503,2023-10-27 11:04:57.54,68,-275,-2024,46,40,-145,-215,-58,-157,136
,504,2023-10-27 11:04:57.55,65,-260,-2022,36,39,-146,-190,53,-243,68
,505,2023-10-27 11:04:57.56,70,-271,-2029,22,43,-147,-211,-47,-164,129
,506,2023-10-27 11:04:57.57,73,-272,-2032,8,43,-151,-177,78,-255,49
,507,2023-10-27 11:04:57.58,68,-279,-2052,2,38,-150,-208,-36,-172,122
,508,2023-10-27 11:04:57.59,63,-282,-2059,-3,30,-148,-167,85,-252,41
,509,2023-10-27 11:04:57.60,78,-281,-2055,-6,25,-146,-202,-40,-162,121
,510,2023-10-27 11:04:57.61,76,-277,-2051,-7,16,-148,-151,90,-241,30
,511,2023-10-27 11:04:57.62,85,-287,-2057,-8,19,-155,-188,-43,-145,115
,512,2023-10-27 11:04:57.63,72,-282,-2064,-7,18,-158,-143,90,-233,26
,513,2023-10-27 11:04:57.64,82,-283,-2065,-1,12,-161,-195,-36,-159,115
,514,2023-10-27 11:04:57.65,71,-282,-2058,4,5,-164,-131,108,-239,11
,515,2023-10-27 11:04:57.66,81,-283,-2069,9,-5,-169,-188,-28,-160,108
,516,2023-10-27 11:04:57.67,65,-293,-2070,10,-7,-169,-132,109,-241,11
,517,2023-10-27 11:04:57.68,58,-283,-2080,9,-17,-168,-200,-41,-159,120
,518,2023-10-27 11:04:57.69,61,-276,-2073,15,-33,-164,-135,97,-232,19
,519,2023-10-27 11:04:57.70,67,-283,-2070,13,-41,-161,-206,-54,-152,130
,520,2023-10-27 11:04:57.71,64,-289,-2066,5,-39,-157,-131,96,-227,17
,521,2023-10-27 11:04:57.72,61,-285,-2051,4,-40,-148,-220,-61,-159,140
,522,2023-10-27 11:04:57.73,71,-283,-2037,-2,-37,-144,-132,110,-242,11
,523,2023-10-27 11:04:57.74,78,-281,-2020,-6,-27,-138,-206,-42,-164,124
,524,2023-10-27 11:04:57.75,82,-280,-2004,-12,-15,-134,-124,115,-239,4
,525,2023-10-27 11:04:57.76,91,-284,-1995,-15,3,-129,-214,-60,-154,137
,526,2023-10-27 11:04:57.77,96,-282,-1988,-19,17,-126,-142,72,-214,35
,527,2023-10-27 11:04:57.78,93,-274,-1997,-22,35,-123,-251,-92,-159,171
,528,2023-10-27 11:04:57.79,85,-276,-2006,-21,47,-120,-182,65,-247,58
,529,2023-10-27 11:04:57.80,92,-270,-2005,-24,52,-116,-278,-98,-180,188
,530,2023-10-27 11:04:57.81,84,-270,-2017,-25,49,-110,-195,48,-243,73
,531,2023-10-27 11:04:57.82,85,-278,-2033,-28,41,-104,-286,-113,-173,199
,532,2023-10-27 11:04:57.83,78,-270,-2034,-32,29,-91,-185,54,-239,65
,533,2023-10-27 11:04:57.84,72,-269,-2045,-40,17,-84,-271,-97,-174,184
,534,2023-10-27 11:04:57.85,78,-264,-2055,-47,0,-74,-161,73,-234,44
,535,2023-10-27 11:04:57.86,87,-272,-2062,-53,-14,-66,-259,-85,-174,172
,536,2023-10-27 11:04:57.87,71,-269,-2072,-59,-31,-60,-157,89,-246,34
,537,2023-10-27 11:04:57.88,90,-264,-2067,-61,-47,-50,-253,-70,-183,161
,538,2023-10-27 11:04:57.89,84,-269,-2061,-64,-51,-45,-137,102,-239,17
,539,2023-10-27 11:04:57.90,72,-261,-2051,-68,-52,-41,-244,-62,-182,153
,540,2023-10-27 11:04:57.91,83,-262,-2061,-71,-48,-38,-128,121,-249,3
,541,2023-10-27 11:04:57.92,87,-266,-2056,-68,-44,-32,-235,-44,-191,139
,542,2023-10-27 11:04:57.93,81,-261,-2051,-64,-49,-26,-100,141,-241,-20
,543,2023-10-27 11:04:57.94,71,-257,-2059,-62,-51,-22,-212,-21,-191,116
,544,2023-10-27 11:04:57.95,77,-254,-2051,-58,-51,-19,-84,161,-245,-38
,545,2023-10-27 11:04:57.96,82,-237,-2049,-53,-48,-17,-199,-14,-185,106
,546,2023-10-27 11:04:57.97,66,-244,-2068,-47,-47,-17,-56,184,-240,-64
,547,2023-10-27 11:04:57.98,60,-242,-2071,-49,-49,-15,-169,16,-185,76
,548,2023-10-27 11:04:57.99,58,-230,-2058,-49,-51,-14,-35,201,-236,-83
,549,2023-10-27 11:04:58.00,55,-236,-2061,-42,-54,-10,-172,25,-197,73
,550,2023-10-27 11:04:58.01,46,-229,-2045,-40,-49,-7,-24,220,-244,-98
,551,2023-10-27 11:04:58.02,60,-221,-2031,-43,-42,-11,-146,51,-197,47
,552,2023-10-27 11:04:58.03,72,-221,-2031,-44,-22,-12,-12,234,-246,-111
,553,2023-10-27 11:04:58.04,57,-215,-2037,-40,-2,-19,-160,34,-194,63
,554,2023-10-27 11:04:58.05,60,-208,-2036,-34,7,-28,-39,191,-230,-76
,555,2023-10-27 11:04:58.06,55,-209,-2039,-25,14,-34,-188,-3,-185,95
,556,2023-10-27 11:04:58.07,58,-214,-2045,-20,20,-40,-52,165,-217,-56
,557,2023-10-27 11:04:58.08,56,-223,-2045,-8,17,-45,-213,-17,-196,115
,558,2023-10-27 11:04:58.09,69,-228,-2039,0,15,-49,-89,156,-245,-33
,559,2023-10-27 11:04:58.10,48,-230,-2044,11,14,-53,-238,-30,-208,134
,560,2023-10-27 11:04:58.11,47,-226,-2047,25,6,-56,-111,128,-239,-8
,561,2023-10-27 11:04:58.12,51,-214,-2050,35,-1,-62,-259,-61,-198,160
,562,2023-10-27 11:04:58.13,68,-221,-2049,44,-12,-66,-136,95,-231,20
,563,2023-10-27 11:04:58.14,64,-210,-2046,51,-23,-74,-282,-76,-206,179
,564,2023-10-27 11:04:58.15,71,-201,-2038,60,-29,-85,-144,88,-232,28
,565,2023-10-27 11:04:58.16,77,-186,-2034,68,-32,-105,-292,-87,-205,189
,566,2023-10-27 11:04:58.17,74,-171,-2038,70,-28,-128,-163,72,-235,45
,567,2023-10-27 11:04:58.18,77,-167,-2042,66,-7,-158,-332,-121,-211,226
,568,2023-10-27 11:04:58.19,61,-174,-2034,61,6,-189,-212,11,-223,100
,569,2023-10-27 11:04:58.20,82,-186,-2036,64,19,-218,-380,-172,-208,276
,570,2023-10-27 11:04:58.21,85,-208,-2009,78,21,-254,-235,-2,-233,118
,571,2023-10-27 11:04:58.22,104,-153,-2029,107,30,-295,-338,-117,-221,227
,572,2023-10-27 11:04:58.23,98,-122,-2026,115,31,-348,-162,77,-239,42
,573,2023-10-27 11:04:58.24,107,-114,-1986,127,38,-416,-319,-108,-211,213
,574,2023-10-27 11:04:58.25,93,-96,-2014,146,62,-491,-187,22,-209,82
,575,2023-10-27 11:04:58.26,80,-104,-2042,167,65,-574,-361,-171,-190,266
,576,2023-10-27 11:04:58.27,86,-121,-2055,183,58,-644,-232,-34,-198,133
,577,2023-10-27 11:04:58.28,81,-137,-2086,183,66,-709,-382,-193,-189,287
,578,2023-10-27 11:04:58.29,52,-183,-2070,178,52,-765,-227,-35,-192,131
,579,2023-10-27 11:04:58.30,75,-176,-2070,188,40,-809,-365,-178,-187,271
,580,2023-10-27 11:04:58.31,74,-186,-2071,197,17,-852,-203,-25,-178,114
,581,2023-10-27 11:04:58.32,98,-208,-2033,196,5,-890,-329,-164,-165,246
,582,2023-10-27 11:04:58.33,85,-200,-2061,199,7,-915,-156,-2,-154,79
,583,2023-10-27 11:04:58.34,89,-229,-2064,191,-16,-937,-272,-130,-142,201
,584,2023-10-27 11:04:58.35,92,-259,-2049,186,-24,-950,-100,39,-139,30
,585,2023-10-27 11:04:58.36,105,-272,-2058,180,-16,-954,-236,-91,-145,163
,586,2023-10-27 11:04:58.37,102,-278,-2079,159,-4,-951,-82,69,-151,6
,587,2023-10-27 11:04:58.38,100,-325,-2040,141,-11,-937,-217,-62,-155,139
,588,2023-10-27 11:04:58.39,116,-336,-2039,133,4,-913,-62,86,-148,-12
,589,2023-10-27 11:04:58.40,96,-360,-2033,135,5,-882,-199,-46,-153,122
,590,2023-10-27 11:04:58.41,100,-375,-2023,129,10,-840,-52,91,-143,-19
,591,2023-10-27 11:04:58.42,97,-387,-2017,122,22,-794,-204,-37,-167,120
,592,2023-10-27 11:04:58.43,84,-399,-2030,119,21,-744,-65,96,-161,-15
,593,2023-10-27 11:04:58.44,101,-406,-2032,119,22,-685,-210,-32,-178,121
,594,2023-10-27 11:04:58.45,87,-398,-2015,111,34,-630,-64,108,-172,-22
,595,2023-10-27 11:04:58.46,106,-396,-2030,110,29,-574,-209,-6,-203,107
,596,2023-10-27 11:04:58.47,96,-399,-2021,101,29,-520,-65,119,-184,-27
,597,2023-10-27 11:04:58.48,131,-388,-2037,95,38,-467,-203,-6,-197,104
,598,2023-10-27 11:04:58.49,106,-393,-2025,82,41,-422,-75,100,-175,-12
,599,2023-10-27 11:04:58.50,119,-389,-2011,74,53,-379,-232,-24,-208,128
,600,2023-10-27 11:04:58.51,119,-385,-2023,71,48,-336,-86,94,-180,-4
,601,2023-10-27 11:04:58.52,125,-377,-2026,71,47,-301,-229,-26,-203,127
,602,2023-10-27 11:04:58.53,131,-390,-1974,79,45,-274,-89,86,-175,1
,603,2023-10-27 11:04:58.54,157,-352,-2019,89,65,-245,-243,-36,-207,139
,604,2023-10-27 11:04:58.55,142,-359,-2036,85,61,-229,-105,72,-177,16
,605,2023-10-27 11:04:58.56,146,-360,-2044,75,56,-207,-252,-35,-217,143
,606,2023-10-27 11:04:58.57,168,-359,-2060,63,70,-186,-125,60,-185,32
,607,2023-10-27 11:04:58.58,162,-363,-2069,35,86,-170,-256,-39,-217,147
,608,2023-10-27 11:04:58.59,162,-376,-2030,10,93,-153,-127,54,-181,36
,609,2023-10-27 11:04:58.60,153,-367,-2050,2,87,-130,-269,-45,-224,157
,610,2023-10-27 11:04:58.61,171,-364,-2039,-2,78,-111,-149,44,-193,52
,611,2023-10-27 11:04:58.62,164,-374,-2053,0,62,-91,-280,-48,-232,164
,612,2023-10-27 11:04:58.63,196,-373,-2052,-16,69,-70,-150,36,-186,57
,613,2023-10-27 11:04:58.64,167,-382,-2058,-39,79,-52,-276,-53,-223,164
,614,2023-10-27 11:04:58.65,171,-397,-2035,-63,94,-21,-160,28,-188,66
,615,2023-10-27 11:04:58.66,175,-426,-2048,-67,73,15,-290,-52,-238,171
,616,2023-10-27 11:04:58.67,188,-428,-2037,-70,73,64,-167,20,-187,73
,617,2023-10-27 11:04:58.68,173,-446,-2028,-86,89,118,-288,-49,-239,168
,618,2023-10-27 11:04:58.69,192,-492,-2025,-118,119,190,-171,31,-202,70
,619,2023-10-27 11:04:58.70,169,-520,-2050,-154,157,272,-283,-14,-269,148
,620,2023-10-27 11:04:58.71,169,-505,-2083,-188,177,379,-165,63,-228,51
,621,2023-10-27 11:04:58.72,128,-533,-2045,-213,137,502,-264,17,-281,123
,622,2023-10-27 11:04:58.73,222,-539,-1943,-211,119,620,-144,77,-221,33
,623,2023-10-27 11:04:58.74,220,-520,-1878,-165,109,719,-234,49,-283,92
,624,2023-10-27 11:04:58.75,200,-434,-2005,-120,76,818,-120,105,-225,7
,625,2023-10-27 11:04:58.76,257,-412,-2008,-123,66,900,-210,73,-283,68
,626,2023-10-27 11:04:58.77,234,-395,-1988,-143,130,960,-114,110,-224,2
,627,2023-10-27 11:04:58.78,239,-382,-2006,-165,165,1011,-217,82,-299,67
,628,2023-10-27 11:04:58.79,239,-351,-2059,-187,177,1057,-126,112,-238,7
,629,2023-10-27 11:04:58.80,244,-365,-2019,-183,157,1090,-230,74,-304,78
,630,2023-10-27 11:04:58.81,258,-334,-1980,-148,157,1114,-143,85,-228,29
,631,2023-10-27 11:04:58.82,230,-283,-2035,-128,162,1121,-255,41,-296,107
,632,2023-10-27 11:04:58.83,245,-264,-2033,-122,157,1113,-181,42,-223,69
,633,2023-10-27 11:04:58.84,244,-238,-2051,-122,168,1092,-282,3,-285,139
,634,2023-10-27 11:04:58.85,238,-217,-2062,-117,172,1063,-180,21,-201,79
,635,2023-10-27 11:04:58.86,228,-212,-2052,-105,160,1027,-240,41,-281,99
,636,2023-10-27 11:04:58.87,237,-229,-2045,-90,155,984,-146,65,-211,40
,637,2023-10-27 11:04:58.88,192,-172,-2092,-86,166,940,-220,54,-274,83
,638,2023-10-27 11:04:58.89,267,-194,-2062,-62,132,899,-151,47,-198,52
,639,2023-10-27 11:04:58.90,206,-204,-2034,-49,122,853,-233,48,-281,92
,640,2023-10-27 11:04:58.91,232,-226,-2016,-23,93,808,-155,52,-207,51
,641,2023-10-27 11:04:58.92,252,-195,-2043,-3,107,758,-201,72,-273,64
,642,2023-10-27 11:04:58.93,231,-185,-2043,0,119,700,-133,59,-192,37
,643,2023-10-27 11:04:58.94,250,-165,-2071,-15,126,644,-188,78,-266,55
,644,2023-10-27 11:04:58.95,228,-189,-2035,-36,134,585,-134,50,-184,42
,645,2023-10-27 11:04:58.96,227,-193,-1998,-26,133,528,-170,90,-260,40
,646,2023-10-27 11:04:58.97,210,-193,-2025,4,107,477,-112,66,-178,23
,647,2023-10-27 11:04:58.98,231,-195,-2052,27,65,430,-165,96,-261,34
,648,2023-10-27 11:04:58.99,220,-195,-2042,27,55,383,-110,69,-179,20
,649,2023-10-27 11:04:59.00,238,-182,-2033,13,64,331,-155,108,-263,23
,650,2023-10-27 11:04:59.01,224,-185,-2038,-3,76,280,-109,67,-176,21
,651,2023-10-27 11:04:59.02,217,-185,-2055,-18,77,235,-139,105,-244,17
,652,2023-10-27 11:04:59.03,211,-201,-2046,-33,69,189,-103,59,-162,22
,653,2023-10-27 11:04:59.04,235,-221,-2006,-14,23,150,-141,110,-251,15
,654,2023-10-27 11:04:59.05,236,-215,-2045,-2,21,111,-107,59,-166,24
,655,2023-10-27 11:04:59.06,240,-215,-2042,-6,23,70,-133,102,-235,15
,656,2023-10-27 11:04:59.07,210,-238,-2053,-11,23,38,-112,40,-152,36
,657,2023-10-27 11:04:59.08,211,-246,-2055,-6,1,10,-137,91,-228,23
,658,2023-10-27 11:04:59.09,214,-257,-2057,7,-16,-12,-114,34,-148,40
,659,2023-10-27 11:04:59.10,199,-263,-2050,20,-28,-31,-134,95,-229,19
,660,2023-10-27 11:04:59.11,220,-273,-2044,25,-42,-45,-120,23,-143,48
,661,2023-10-27 11:04:59.12,201,-283,-2049,27,-45,-56,-142,87,-229,27
,662,2023-10-27 11:04:59.13,194,-284,-2060,32,-50,-64,-139,17,-156,61
,663,2023-10-27 11:04:59.14,203,-284,-2056,30,-60,-65,-142,110,-252,16
,664,2023-10-27 11:04:59.15,194,-289,-2056,29,-63,-63,-124,39,-163,42
,665,2023-10-27 11:04:59.16,190,-297,-2041,29,-68,-59,-117,137,-254,-10
,666,2023-10-27 11:04:59.17,178,-297,-2046,22,-73,-54,-120,52,-172,34
,667,2023-10-27 11:04:59.18,181,-298,-2035,17,-77,-48,-116,133,-249,-8
,668,2023-10-27 11:04:59.19,172,-289,-2027,15,-76,-40,-125,32,-157,46
,669,2023-10-27 11:04:59.20,176,-294,-2023,11,-74,-35,-122,120,-242,1
,670,2023-10-27 11:04:59.21,192,-290,-2024,10,-65,-33,-141,18,-159,61
,671,2023-10-27 11:04:59.22,179,-292,-2025,6,-49,-34,-138,114,-252,12
,672,2023-10-27 11:04:59.23,160,-304,-2022,12,-48,-28,-162,12,-174,75
,673,2023-10-27 11:04:59.24,172,-306,-2042,25,-57,-20,-141,109,-250,16
,674,2023-10-27 11:04:59.25,194,-299,-2045,34,-47,-18,-159,0,-159,79
,675,2023-10-27 11:04:59.26,187,-290,-2045,32,-30,-17,-148,106,-254,21
,676,2023-10-27 11:04:59.27,156,-285,-2032,23,-9,-24,-181,-9,-172,95
,677,2023-10-27 11:04:59.28,169,-275,-2038,28,-29,-24,-150,95,-245,27
,678,2023-10-27 11:04:59.29,180,-281,-2047,34,-33,-26,-187,-22,-165,104
,679,2023-10-27 11:04:59.30,163,-275,-2045,37,-39,-31,-162,85,-247,38
,680,2023-10-27 11:04:59.31,182,-269,-2045,31,-32,-39,-207,-38,-169,122
,681,2023-10-27 11:04:59.32,165,-255,-2057,26,-30,-48,-179,72,-251,53
,682,2023-10-27 11:04:59.33,181,-242,-2038,22,-33,-76,-212,-39,-173,125
,683,2023-10-27 11:04:59.34,177,-244,-2029,26,-33,-97,-177,73,-250,52
,684,2023-10-27 11:04:59.35,181,-234,-2029,35,-53,-117,-228,-51,-177,139
,685,2023-10-27 11:04:59.36,194,-231,-2030,34,-50,-143,-198,56,-254,71
,686,2023-10-27 11:04:59.37,176,-232,-2035,34,-46,-168,-236,-63,-173,149
,687,2023-10-27 11:04:59.38,178,-242,-2041,29,-49,-193,-189,60,-249,64
,688,2023-10-27 11:04:59.39,187,-239,-2050,31,-56,-219,-242,-70,-172,156
,689,2023-10-27 11:04:59.40,186,-235,-2049,39,-58,-253,-186,61,-247,62
,690,2023-10-27 11:04:59.41,213,-198,-2024,53,-77,-296,-252,-72,-180,162
,691,2023-10-27 11:04:59.42,225,-156,-1995,75,-86,-357,-184,58,-242,63
,692,2023-10-27 11:04:59.43,215,-107,-2019,104,-75,-442,-216,-73,-143,144
,693,2023-10-27 11:04:59.44,200,-122,-2061,120,-68,-535,-136,61,-197,37
,694,2023-10-27 11:04:59.45,198,-143,-2084,126,-74,-618,-199,-93,-106,146
,695,2023-10-27 11:04:59.46,190,-169,-2089,142,-92,-698,-127,37,-164,45
,696,2023-10-27 11:04:59.47,183,-187,-2078,161,-114,-769,-201,-103,-98,152
,697,2023-10-27 11:04:59.48,199,-191,-2067,180,-140,-837,-119,43,-162,38
,698,2023-10-27 11:04:59.49,182,-209,-2050,202,-174,-901,-187,-101,-86,144
,699,2023-10-27 11:04:59.50,182,-199,-2091,211,-187,-950,-100,47,-147,26
,700,2023-10-27 11:04:59.51,190,-218,-2090,201,-206,-994,-177,-101,-76,139
,701,2023-10-27 11:04:59.52,198,-242,-2078,176,-209,-1026,-79,56,-135,11
,702,2023-10-27 11:04:59.53,186,-276,-2068,144,-198,-1048,-166,-85,-81,125
,703,2023-10-27 11:04:59.54,180,-311,-2054,124,-194,-1059,-76,84,-160,-4
,704,2023-10-27 11:04:59.55,217,-341,-2042,117,-191,-1052,-172,-67,-105,119
,705,2023-10-27 11:04:59.56,189,-374,-2031,118,-197,-1033,-72,106,-178,-17
,706,2023-10-27 11:04:59.57,211,-395,-2031,129,-196,-1008,-173,-51,-122,112
,707,2023-10-27 11:04:59.58,198,-393,-2071,131,-176,-975,-65,122,-187,-28
,708,2023-10-27 11:04:59.59,189,-368,-2080,128,-165,-931,-168,-41,-127,104
,709,2023-10-27 11:04:59.60,203,-379,-2052,101,-143,-881,-70,139,-209,-34
,710,2023-10-27 11:04:59.61,190,-402,-2026,64,-116,-832,-177,-30,-147,103
,711,2023-10-27 11:04:59.62,169,-419,-2022,42,-89,-781,-60,156,-216,-48
,712,2023-10-27 11:04:59.63,174,-425,-2017,38,-68,-730,-144,-4,-140,74
,713,2023-10-27 11:04:59.64,174,-415,-2020,62,-61,-679,5,201,-196,-103
,714,2023-10-27 11:04:59.65,180,-411,-1977,95,-65,-629,-92,30,-122,31
,715,2023-10-27 11:04:59.66,168,-382,-1989,123,-47,-587,28,213,-185,-120
,716,2023-10-27 11:04:59.67,149,-358,-2015,135,-30,-554,-89,46,-135,21
,717,2023-10-27 11:04:59.68,141,-358,-2036,138,-23,-525,42,240,-198,-141
,718,2023-10-27 11:04:59.69,159,-334,-2025,128,-7,-502,-99,47,-146,26
,719,2023-10-27 11:04:59.70,156,-300,-2025,124,7,-489,1,222,-221,-111
,720,2023-10-27 11:04:59.71,152,-304,-1999,115,12,-482,-144,20,-164,62
,721,2023-10-27 11:04:59.72,169,-293,-1988,118,26,-483,-52,177,-229,-62
,722,2023-10-27 11:04:59.73,148,-309,-1956,135,25,-495,-204,-35,-169,119
,723,2023-10-27 11:04:59.74,162,-302,-1982,159,29,-506,-93,110,-203,-8
,724,2023-10-27 11:04:59.75,140,-306,-2007,177,18,-521,-280,-126,-154,203
,725,2023-10-27 11:04:59.76,168,-300,-2024,200,15,-536,-209,-5,-204,107
,726,2023-10-27 11:04:59.77,173,-281,-1999,230,4,-560,-365,-210,-155,287
,727,2023-10-27 11:04:59.78,159,-279,-2011,254,11,-588,-257,-73,-184,165
,728,2023-10-27 11:04:59.79,148,-284,-2028,260,11,-619,-408,-250,-158,329
,729,2023-10-27 11:04:59.80,160,-299,-2035,267,0,-645,-305,-100,-205,202
,730,2023-10-27 11:04:59.81,149,-327,-2072,276,-17,-665,-466,-259,-207,362
,731,2023-10-27 11:04:59.82,143,-367,-2081,288,-50,-670,-366,-107,-259,236
,732,2023-10-27 11:04:59.83,169,-389,-2060,306,-73,-674,-504,-260,-244,382
,733,2023-10-27 11:04:59.84,173,-401,-2057,333,-86,-673,-358,-80,-278,219
,734,2023-10-27 11:04:59.85,165,-394,-2070,350,-104,-666,-462,-204,-258,333
,735,2023-10-27 11:04:59.86,183,-411,-2050,371,-140,-660,-289,-8,-281,148
,736,2023-10-27 11:04:59.87,182,-423,-2052,392,-150,-651,-406,-139,-267,272
,737,2023-10-27 11:04:59.88,188,-416,-2045,407,-169,-631,-250,56,-306,97
,738,2023-10-27 11:04:59.89,207,-451,-2015,411,-173,-611,-339,-76,-263,207
,739,2023-10-27 11:04:59.90,204,-492,-2013,411,-173,-583,-141,135,-276,3
,740,2023-10-27 11:04:59.91,194,-509,-2023,408,-166,-549,-252,-5,-247,128
,741,2023-10-27 11:04:59.92,182,-530,-2004,411,-154,-505,-88,190,-278,-51
,742,2023-10-27 11:04:59.93,190,-576,-1983,418,-142,-452,-228,29,-257,99
,743,2023-10-27 11:04:59.94,179,-591,-1965,422,-133,-387,-68,196,-264,-64
,744,2023-10-27 11:04:59.95,198,-600,-1935,417,-111,-321,-214,5,-219,104
,745,2023-10-27 11:04:59.96,203,-600,-1910,414,-73,-265,-73,160,-233,-43
,746,2023-10-27 11:04:59.97,199,-621,-1900,411,-25,-208,-224,-1,-223,112
,747,2023-10-27 11:04:59.98,192,-635,-1896,417,16,-156,-75,163,-238,-44
,748,2023-10-27 11:04:59.99,201,-655,-1915,416,52,-101,-225,1,-226,112
,749,2023-10-27 11:05:00.00,215,-642,-1955,398,106,-51,-66,160,-226,-47
,750,2023-10-27 11:05:00.01,213,-623,-1962,355,178,-23,-221,-11,-210,116
,751,2023-10-27 11:05:00.02,207,-614,-2001,302,239,1,-76,141,-217,-32
,752,2023-10-27 11:05:00.03,199,-619,-1987,269,267,31,-215,-15,-200,115
,753,2023-10-27 11:05:00.04,145,-624,-2018,256,262,79,-47,143,-190,-48
,754,2023-10-27 11:05:00.05,215,-662,-1977,267,219,121,-212,-14,-198,113
,755,2023-10-27 11:05:00.06,215,-683,-1885,298,202,150,-64,148,-212,-42
,756,2023-10-27 11:05:00.07,211,-600,-1955,324,216,176,-234,-1,-233,117
,757,2023-10-27 11:05:00.08,219,-612,-1944,312,219,187,-89,151,-240,-31
,758,2023-10-27 11:05:00.09,232,-599,-1910,278,239,200,-249,22,-271,113
,759,2023-10-27 11:05:00.10,223,-596,-1902,254,245,208,-90,180,-270,-45
,760,2023-10-27 11:05:00.11,222,-584,-1935,222,248,216,-259,29,-288,115
,761,2023-10-27 11:05:00.12,224,-556,-1966,173,239,225,-114,162,-276,-24
,762,2023-10-27 11:05:00.13,239,-575,-1916,126,240,222,-273,2,-275,135
,763,2023-10-27 11:05:00.14,221,-570,-1873,86,247,215,-117,130,-247,-6
,764,2023-10-27 11:05:00.15,237,-562,-1866,73,232,205,-257,3,-260,127
,765,2023-10-27 11:05:00.16,255,-553,-1899,64,219,193,-94,139,-233,-22
,766,2023-10-27 11:05:00.17,256,-539,-1902,49,194,175,-247,10,-257,118
,767,2023-10-27 11:05:00.18,279,-541,-1906,24,202,149,-103,130,-233,-13
,768,2023-10-27 11:05:00.19,261,-543,-1904,2,195,123,-224,26,-250,99
,769,2023-10-27 11:05:00.20,283,-543,-1899,-22,187,95,-36,175,-211,-69
,770,2023-10-27 11:05:00.21,290,-565,-1904,-26,173,69,-144,103,-247,20
,771,2023-10-27 11:05:00.22,304,-569,-1928,-22,166,33,38,265,-227,-151
,772,2023-10-27 11:05:00.23,308,-565,-1944,-13,152,-1,-48,207,-255,-79
,773,2023-10-27 11:05:00.24,333,-535,-1974,-5,142,-38,119,325,-206,-222
,774,2023-10-27 11:05:00.25,311,-561,-2002,-7,137,-73,28,253,-225,-140
,775,2023-10-27 11:05:00.26,330,-574,-2041,-12,122,-96,203,384,-181,-293
,776,2023-10-27 11:05:00.27,315,-606,-2057,-20,112,-113,143,348,-205,-245
,777,2023-10-27 11:05:00.28,333,-608,-2073,-29,88,-119,310,482,-172,-396
,778,2023-10-27 11:05:00.29,328,-619,-2069,-31,71,-116,220,409,-189,-314
,779,2023-10-27 11:05:00.30,341,-614,-2060,-44,64,-111,316,460,-144,-388
,780,2023-10-27 11:05:00.31,351,-616,-2032,-59,51,-95,174,339,-165,-256
,781,2023-10-27 11:05:00.32,340,-651,-2025,-82,54,-75,267,383,-116,-325
,782,2023-10-27 11:05:00.33,351,-668,-2010,-89,40,-45,128,276,-148,-202
,783,2023-10-27 11:05:00.34,352,-658,-2002,-96,36,-9,214,320,-106,-267
,784,2023-10-27 11:05:00.35,348,-652,-1980,-103,27,28,50,196,-146,-123
,785,2023-10-27 11:05:00.36,339,-640,-2007,-123,20,77,133,240,-107,-186
,786,2023-10-27 11:05:00.37,322,-640,-1994,-150,16,125,-26,131,-157,-52
,787,2023-10-27 11:05:00.38,285,-648,-2008,-179,-11,186,62,192,-130,-127
,788,2023-10-27 11:05:00.39,295,-659,-2012,-224,-36,254,-85,118,-203,-16
,789,2023-10-27 11:05:00.40,284,-653,-2006,-267,-72,326,19,188,-169,-103
,790,2023-10-27 11:05:00.41,298,-632,-2010,-324,-80,396,-108,118,-226,-5
,791,2023-10-27 11:05:00.42,281,-621,-2023,-382,-98,460,4,182,-178,-93
,792,2023-10-27 11:05:00.43,279,-619,-2001,-436,-119,526,-111,115,-226,-2
,793,2023-10-27 11:05:00.44,307,-592,-1995,-478,-156,591,-9,171,-180,-81
,794,2023-10-27 11:05:00.45,303,-605,-1977,-510,-166,645,-124,116,-240,4
,795,2023-10-27 11:05:00.46,302,-581,-1988,-544,-168,689,-17,167,-184,-75
,796,2023-10-27 11:05:00.47,280,-537,-2002,-586,-169,725,-119,130,-249,-5
,797,2023-10-27 11:05:00.48,278,-538,-1988,-619,-182,760,-11,179,-190,-84
,798,2023-10-27 11:05:00.49,287,-564,-1954,-621,-184,786,-117,139,-256,-11
,799,2023-10-27 11:05:00.50,274,-523,-1967,-607,-174,811,-16,177,-193,-80
,800,2023-10-27 11:05:00.51,270,-523,-1957,-583,-168,827,-120,150,-270,-15
,801,2023-10-27 11:05:00.52,250,-524,-1953,-561,-145,839,-33,179,-212,-73
,802,2023-10-27 11:05:00.53,248,-497,-1970,-526,-125,843,-143,120,-263,11
,803,2023-10-27 11:05:00.54,222,-478,-1981,-492,-103,846,-62,121,-183,-29
,804,2023-10-27 11:05:00.55,217,-452,-1977,-452,-87,847,-188,53,-241,67
,805,2023-10-27 11:05:00.56,214,-428,-1982,-414,-66,840,-102,75,-177,13
,806,2023-10-27 11:05:00.57,211,-393,-1982,-381,-45,826,-211,22,-233,94
,807,2023-10-27 11:05:00.58,205,-392,-1957,-354,-24,806,-120,42,-162,39
,808,2023-10-27 11:05:00.59,211,-364,-1962,-323,7,787,-235,2,-237,116
,809,2023-10-27 11:05:00.60,202,-335,-1972,-299,22,764,-142,35,-177,53
,810,2023-10-27 11:05:00.61,202,-320,-1989,-278,36,738,-234,11,-245,111
,811,2023-10-27 11:05:00.62,197,-296,-1994,-261,58,711,-148,22,-170,63
,812,2023-10-27 11:05:00.63,195,-304,-1997,-245,71,685,-237,6,-243,115
,813,2023-10-27 11:05:00.64,197,-304,-2027,-232,88,659,-157,16,-173,70
,814,2023-10-27 11:05:00.65,161,-321,-2031,-227,92,640,-239,2,-241,118
,815,2023-10-27 11:05:00.66,181,-325,-2031,-217,96,620,-160,4,-164,78
,816,2023-10-27 11:05:00.67,155,-326,-2019,-196,81,601,-251,-6,-245,128
,817,2023-10-27 11:05:00.68,194,-289,-2016,-192,115,584,-182,-13,-169,97
,818,2023-10-27 11:05:00.69,173,-308,-2032,-160,50,559,-257,-14,-243,135
,819,2023-10-27 11:05:00.70,153,-307,-2018,-157,50,537,-177,-9,-168,93
,820,2023-10-27 11:05:00.71,207,-306,-2027,-119,16,525,-244,11,-255,116
,821,2023-10-27 11:05:00.72,185,-270,-2032,-113,37,504,-165,7,-172,79
,822,2023-10-27 11:05:00.73,149,-254,-2048,-129,49,475,-217,24,-241,96
,823,2023-10-27 11:05:00.74,166,-282,-2046,-149,33,455,-150,3,-153,73
,824,2023-10-27 11:05:00.75,168,-323,-2005,-144,39,434,-220,22,-242,99
,825,2023-10-27 11:05:00.76,187,-292,-2048,-120,40,421,-165,0,-165,82
,826,2023-10-27 11:05:00.77,146,-294,-2045,-112,16,399,-207,32,-239,87
,827,2023-10-27 11:05:00.78,171,-303,-2047,-103,1,386,-151,-2,-149,76
,828,2023-10-27 11:05:00.79,178,-288,-2050,-93,-9,372,-205,28,-233,88
,829,2023-10-27 11:05:00.80,182,-292,-2051,-85,-12,358,-163,-11,-152,87
,830,2023-10-27 11:05:00.81,183,-284,-2055,-87,-1,343,-205,25,-230,90
,831,2023-10-27 11:05:00.82,176,-287,-2052,-95,4,327,-162,-18,-144,90
,832,2023-10-27 11:05:00.83,183,-275,-2055,-105,1,313,-208,21,-229,93
,833,2023-10-27 11:05:00.84,171,-263,-2061,-105,-14,300,-178,-35,-143,106
,834,2023-10-27 11:05:00.85,170,-265,-2053,-101,-32,289,-219,-3,-216,111
,835,2023-10-27 11:05:00.86,163,-262,-2060,-100,-42,272,-198,-58,-140,128
,836,2023-10-27 11:05:00.87,164,-269,-2067,-100,-63,260,-242,-17,-225,129
,837,2023-10-27 11:05:00.88,176,-260,-2067,-102,-76,247,-230,-80,-150,155
,838,2023-10-27 11:05:00.89,169,-265,-2053,-95,-90,235,-266,-31,-235,148
,839,2023-10-27 11:05:00.90,162,-264,-2048,-85,-95,224,-228,-74,-154,151
,840,2023-10-27 11:05:00.91,173,-286,-2049,-82,-99,212,-228,18,-246,105
,841,2023-10-27 11:05:00.92,166,-269,-2050,-81,-94,202,-188,-26,-162,107
,842,2023-10-27 11:05:00.93,156,-271,-2049,-80,-89,185,-187,74,-261,56
,843,2023-10-27 11:05:00.94,151,-261,-2054,-70,-88,178,-166,5,-171,80
,844,2023-10-27 11:05:00.95,158,-276,-2055,-64,-89,166,-159,97,-256,31
,845,2023-10-27 11:05:00.96,136,-278,-2050,-62,-90,156,-143,15,-158,64
,846,2023-10-27 11:05:00.97,137,-263,-2045,-54,-97,147,-123,119,-242,2
,847,2023-10-27 11:05:00.98,148,-274,-2048,-45,-99,137,-135,10,-145,62
,848,2023-10-27 11:05:00.99,143,-271,-2052,-42,-91,123,-133,105,-238,14
,849,2023-10-27 11:05:01.00,113,-257,-2032,-35,-91,111,-155,-7,-148,81
,850,2023-10-27 11:05:01.01,122,-259,-2026,-25,-103,103,-136,104,-240,16
,851,2023-10-27 11:05:01.02,117,-260,-2017,-24,-116,95,-145,-1,-144,73
,852,2023-10-27 11:05:01.03,118,-255,-2017,-19,-117,91,-129,97,-226,16
,853,2023-10-27 11:05:01.04,120,-269,-2014,-12,-115,83,-149,-8,-141,78
,854,2023-10-27 11:05:01.05,114,-291,-1989,0,-109,79,-127,96,-223,15
,855,2023-10-27 11:05:01.06,139,-283,-1995,20,-93,77,-156,-22,-134,89
,856,2023-10-27 11:05:01.07,109,-308,-1980,44,-72,72,-142,81,-223,30
,857,2023-10-27 11:05:01.08,104,-323,-1977,81,-70,69,-182,-46,-136,114
,858,2023-10-27 11:05:01.09,122,-313,-1989,122,-57,69,-168,51,-219,58
,859,2023-10-27 11:05:01.10,99,-315,-1996,152,-33,66,-213,-76,-137,144
,860,2023-10-27 11:05:01.11,93,-299,-2023,170,-27,68,-192,32,-224,80
,861,2023-10-27 11:05:01.12,69,-303,-2045,174,-27,67,-233,-94,-139,163
,862,2023-10-27 11:05:01.13,86,-289,-2060,176,-34,75,-198,13,-211,92
,863,2023-10-27 11:05:01.14,57,-299,-2075,169,-39,77,-246,-105,-141,175
,864,2023-10-27 11:05:01.15,57,-307,-2067,157,-51,82,-201,20,-221,90
,865,2023-10-27 11:05:01.16,66,-314,-2066,137,-57,84,-243,-101,-142,172
,866,2023-10-27 11:05:01.17,67,-303,-2054,115,-53,86,-199,25,-224,87
,867,2023-10-27 11:05:01.18,80,-290,-2054,93,-55,85,-252,-105,-147,178
,868,2023-10-27 11:05:01.19,66,-287,-2045,70,-54,81,-194,24,-218,85
,869,2023-10-27 11:05:01.20,74,-283,-2032,46,-65,75,-244,-109,-135,176
,870,2023-10-27 11:05:01.21,64,-295,-2008,22,-47,66,-181,29,-210,76
,871,2023-10-27 11:05:01.22,65,-300,-2011,5,-45,59,-242,-99,-143,170
,872,2023-10-27 11:05:01.23,72,-312,-2001,-10,-25,48,-176,45,-221,65
,873,2023-10-27 11:05:01.24,74,-305,-2000,-21,-14,40,-250,-101,-149,175
,874,2023-10-27 11:05:01.25,61,-325,-2014,-25,-17,32,-180,40,-220,70
,875,2023-10-27 11:05:01.26,74,-319,-2008,-22,-13,24,-244,-97,-147,170
,876,2023-10-27 11:05:01.27,78,-300,-1996,-16,-11,11,-162,52,-214,55
,877,2023-10-27 11:05:01.28,78,-292,-2018,-10,-1,-12,-256,-109,-147,182
,878,2023-10-27 11:05:01.29,74,-282,-2035,-5,1,-38,-202,13,-215,94
,879,2023-10-27 11:05:01.30,66,-265,-2044,0,-8,-65,-312,-170,-142,241
,880,2023-10-27 11:05:01.31,84,-265,-2055,6,-12,-96,-271,-78,-193,174
,881,2023-10-27 11:05:01.32,67,-264,-2066,13,-30,-126,-392,-247,-145,319
,882,2023-10-27 11:05:01.33,72,-261,-2066,13,-43,-158,-342,-139,-203,240
,883,2023-10-27 11:05:01.34,75,-255,-2063,11,-43,-198,-444,-291,-153,367
,884,2023-10-27 11:05:01.35,81,-247,-2069,19,-52,-236,-377,-178,-199,277
,885,2023-10-27 11:05:01.36,78,-249,-2059,22,-60,-279,-461,-311,-150,386
,886,2023-10-27 11:05:01.37,68,-228,-2051,30,-71,-324,-360,-165,-195,262
,887,2023-10-27 11:05:01.38,83,-228,-2055,37,-68,-373,-416,-272,-144,344
,888,2023-10-27 11:05:01.39,85,-215,-2053,37,-67,-421,-308,-112,-196,210
,889,2023-10-27 11:05:01.40,78,-222,-2036,40,-75,-467,-390,-251,-139,320
,890,2023-10-27 11:05:01.41,76,-262,-2016,46,-84,-546,-276,-112,-164,194
,891,2023-10-27 11:05:01.42,98,-266,-2002,66,-94,-581,-352,-227,-125,289
,892,2023-10-27 11:05:01.43,85,-256,-2026,83,-100,-606,-216,-44,-172,130
,893,2023-10-27 11:05:01.44,81,-257,-2070,76,-91,-631,-305,-188,-117,246
,894,2023-10-27 11:05:01.45,91,-276,-2050,50,-86,-649,-185,-21,-164,103
,895,2023-10-27 11:05:01.46,98,-292,-2015,31,-81,-657,-294,-171,-123,232
,896,2023-10-27 11:05:01.47,75,-314,-2013,24,-74,-659,-160,8,-168,76
,897,2023-10-27 11:05:01.48,84,-327,-2022,21,-79,-656,-278,-152,-126,215
,898,2023-10-27 11:05:01.49,85,-337,-2007,28,-81,-645,-145,18,-163,63
,899,2023-10-27 11:05:01.50,70,-340,-2023,34,-84,-624,-272,-138,-134,205
,900,2023-10-27 11:05:01.51,72,-358,-2052,31,-93,-593,-132,50,-182,41
,901,2023-10-27 11:05:01.52,78,-366,-2078,12,-92,-558,-245,-104,-141,174
,902,2023-10-27 11:05:01.53,74,-382,-2104,-23,-81,-516,-96,82,-178,7
,903,2023-10-27 11:05:01.54,72,-406,-2081,-46,-90,-469,-221,-75,-146,148
,904,2023-10-27 11:05:01.55,78,-397,-2071,-60,-82,-418,-77,117,-194,-20
,905,2023-10-27 11:05:01.56,79,-400,-2063,-72,-81,-364,-192,-42,-150,117
,906,2023-10-27 11:05:01.57,74,-407,-2036,-77,-76,-311,-32,146,-178,-57
,907,2023-10-27 11:05:01.58,73,-402,-2048,-83,-62,-257,-168,-25,-143,96
,908,2023-10-27 11:05:01.59,79,-398,-2023,-84,-65,-202,-13,162,-175,-74
,909,2023-10-27 11:05:01.60,78,-396,-2027,-85,-52,-147,-148,0,-148,74
,910,2023-10-27 11:05:01.61,83,-375,-2048,-92,-32,-97,0,184,-184,-92
,911,2023-10-27 11:05:01.62,87,-361,-2014,-107,-13,-55,-142,8,-150,67
,912,2023-10-27 11:05:01.63,84,-358,-2005,-106,6,-18,6,179,-173,-92
,913,2023-10-27 11:05:01.64,96,-330,-2013,-103,24,9,-139,-2,-137,70
,914,2023-10-27 11:05:01.65,96,-318,-2009,-97,40,28,10,173,-163,-91
,915,2023-10-27 11:05:01.66,108,-287,-2011,-90,49,37,-150,-7,-143,78
,916,2023-10-27 11:05:01.67,94,-262,-2020,-79,55,37,-13,159,-172,-73
,917,2023-10-27 11:05:01.68,90,-277,-2035,-64,51,37,-173,-20,-153,96
,918,2023-10-27 11:05:01.69,70,-279,-2063,-48,32,40,-29,148,-177,-59
,919,2023-10-27 11:05:01.70,76,-283,-2067,-25,6,42,-189,-27,-162,108
,920,2023-10-27 11:05:01.71,75,-292,-2066,-7,-19,46,-50,136,-186,-43
,921,2023-10-27 11:05:01.72,84,-291,-2054,6,-30,44,-214,-38,-176,126
,922,2023-10-27 11:05:01.73,74,-298,-2066,22,-38,51,-74,121,-195,-23
,923,2023-10-27 11:05:01.74,69,-295,-2063,30,-46,55,-232,-52,-180,142
,924,2023-10-27 11:05:01.75,79,-301,-2070,37,-51,68,-89,100,-189,-5
,925,2023-10-27 11:05:01.76,85,-308,-2038,18,-11,70,-247,-67,-180,157
,926,2023-10-27 11:05:01.77,81,-299,-2040,19,-28,88,-99,90,-189,4
,927,2023-10-27 11:05:01.78,62,-326,-2030,14,-11,99,-264,-72,-192,168
,928,2023-10-27 11:05:01.79,74,-299,-2036,18,-22,112,-117,88,-205,14
,929,2023-10-27 11:05:01.80,69,-287,-2026,14,-12,127,-289,-84,-205,186
,930,2023-10-27 11:05:01.81,72,-311,-2026,2,5,149,-141,63,-204,39
,931,2023-10-27 11:05:01.82,61,-331,-2033,-20,26,176,-301,-103,-198,202
,932,2023-10-27 11:05:01.83,58,-338,-2036,-39,50,204,-150,54,-204,48
,933,2023-10-27 11:05:01.84,54,-329,-2052,-54,62,232,-312,-98,-214,205
,934,2023-10-27 11:05:01.85,64,-325,-2056,-62,65,267,-167,52,-219,57
,935,2023-10-27 11:05:01.86,55,-300,-2050,-68,62,295,-348,-120,-228,234
,936,2023-10-27 11:05:01.87,56,-305,-2037,-68,61,324,-226,1,-227,112
,937,2023-10-27 11:05:01.88,42,-284,-2054,-60,46,354,-414,-168,-246,291
,938,2023-10-27 11:05:01.89,69,-279,-2064,-55,36,379,-267,-18,-249,142
,939,2023-10-27 11:05:01.90,54,-291,-2039,-55,30,395,-427,-151,-276,289
,940,2023-10-27 11:05:01.91,76,-315,-2016,-35,15,410,-262,8,-270,127
,941,2023-10-27 11:05:01.92,66,-284,-2095,0,16,428,-385,-87,-298,236
,942,2023-10-27 11:05:01.93,43,-263,-2084,18,-3,450,-205,84,-289,60
,943,2023-10-27 11:05:01.94,79,-286,-2070,26,-5,471,-325,-10,-315,167
,944,2023-10-27 11:05:01.95,69,-302,-2070,24,3,495,-147,148,-295,0
,945,2023-10-27 11:05:01.96,59,-300,-2051,25,-1,525,-261,69,-330,96
,946,2023-10-27 11:05:01.97,56,-299,-2076,27,-10,565,-88,216,-304,-64
,947,2023-10-27 11:05:01.98,45,-342,-2059,21,-37,614,-212,123,-335,44
,948,2023-10-27 11:05:01.99,62,-380,-2007,36,-45,662,-52,240,-292,-94
,949,2023-10-27 11:05:02.00,57,-377,-2030,71,-54,709,-184,138,-322,23
,950,2023-10-27 11:05:02.01,51,-387,-2097,102,-78,758,-40,246,-286,-103
,951,2023-10-27 11:05:02.02,30,-362,-2128,128,-111,807,-178,142,-320,18
,952,2023-10-27 11:05:02.03,37,-323,-2117,151,-146,850,-39,237,-276,-99
,953,2023-10-27 11:05:02.04,27,-298,-2095,166,-179,880,-170,148,-318,11
,954,2023-10-27 11:05:02.05,28,-297,-2087,169,-201,901,-26,246,-272,-110
,955,2023-10-27 11:05:02.06,39,-281,-2078,163,-195,907,-150,138,-288,6
,956,2023-10-27 11:05:02.07,21,-260,-2038,159,-179,891,-30,190,-220,-80
,957,2023-10-27 11:05:02.08,10,-251,-2010,155,-164,879,-204,62,-266,71
,958,2023-10-27 11:05:02.09,-1,-252,-1986,154,-152,856,-98,132,-230,-17
,959,2023-10-27 11:05:02.10,1,-266,-1952,158,-142,836,-257,18,-275,119
,960,2023-10-27 11:05:02.11,16,-261,-1932,166,-119,807,-144,86,-230,29
,961,2023-10-27 11:05:02.12,4,-233,-1918,177,-92,772,-297,-19,-278,158
,962,2023-10-27 11:05:02.13,16,-236,-1943,183,-67,731,-170,59,-229,55
,963,2023-10-27 11:05:02.14,-14,-252,-1976,173,-29,687,-296,-14,-282,155
,964,2023-10-27 11:05:02.15,-22,-249,-2015,165,5,648,-157,74,-231,41
,965,2023-10-27 11:05:02.16,-26,-264,-2024,154,26,613,-277,11,-288,133
,966,2023-10-27 11:05:02.17,-26,-279,-2029,147,37,588,-145,92,-237,26
,967,2023-10-27 11:05:02.18,-38,-280,-2081,126,43,572,-270,26,-296,122
,968,2023-10-27 11:05:02.19,-20,-355,-2033,110,35,559,-145,91,-236,27
,969,2023-10-27 11:05:02.20,-21,-357,-2050,118,44,554,-252,44,-296,104
,970,2023-10-27 11:05:02.21,-35,-325,-2071,125,40,551,-125,96,-221,14
,971,2023-10-27 11:05:02.22,-17,-335,-2050,123,34,539,-234,44,-278,95
,972,2023-10-27 11:05:02.23,-20,-348,-2059,121,35,532,-116,93,-209,11
,973,2023-10-27 11:05:02.24,-14,-349,-2065,122,32,521,-233,54,-287,89
,974,2023-10-27 11:05:02.25,-18,-351,-2066,126,27,508,-122,99,-221,11
,975,2023-10-27 11:05:02.26,-29,-326,-2041,138,14,497,-227,46,-273,90
,976,2023-10-27 11:05:02.27,5,-370,-2048,152,7,480,-120,79,-199,20
,977,2023-10-27 11:05:02.28,-17,-341,-2038,160,7,463,-228,30,-258,99
,978,2023-10-27 11:05:02.29,-12,-324,-2002,169,-3,440,-144,50,-194,47
,979,2023-10-27 11:05:02.30,0,-334,-1998,168,1,415,-254,11,-265,121
,980,2023-10-27 11:05:02.31,-11,-322,-1993,157,12,384,-165,33,-198,66
,981,2023-10-27 11:05:02.32,-9,-322,-1997,154,16,355,-272,-13,-259,142
,982,2023-10-27 11:05:02.33,-23,-318,-2013,150,18,324,-174,10,-184,82
,983,2023-10-27 11:05:02.34,-29,-325,-2025,140,9,292,-275,-13,-262,144
,984,2023-10-27 11:05:02.35,-38,-327,-2022,129,-1,262,-183,10,-193,86
,985,2023-10-27 11:05:02.36,-40,-315,-2033,121,-19,235,-284,-24,-260,154
,986,2023-10-27 11:05:02.37,-56,-338,-2056,100,-23,204,-206,-21,-185,113
,987,2023-10-27 11:05:02.38,-70,-334,-2050,84,-44,181,-316,-53,-263,184
,988,2023-10-27 11:05:02.39,-60,-331,-2037,77,-75,156,-234,-37,-197,135
,989,2023-10-27 11:05:02.40,-41,-348,-2047,70,-71,126,-312,-45,-267,178
,990,2023-10-27 11:05:02.41,-69,-346,-2019,57,-73,97,-223,-33,-190,128
,991,2023-10-27 11:05:02.42,-45,-355,-2017,48,-72,66,-300,-31,-269,165
,992,2023-10-27 11:05:02.43,-84,-380,-1999,48,-76,39,-220,-23,-197,121
,993,2023-10-27 11:05:02.44,-72,-363,-2000,67,-93,12,-293,-14,-279,153
,994,2023-10-27 11:05:02.45,-65,-364,-1990,68,-89,-15,-213,-13,-200,113
,995,2023-10-27 11:05:02.46,-71,-358,-1978,59,-90,-40,-273,1,-274,136
,996,2023-10-27 11:05:02.47,-84,-364,-1978,60,-99,-67,-198,-8,-190,103
,997,2023-10-27 11:05:02.48,-69,-367,-1990,63,-94,-94,-262,5,-267,128
,998,2023-10-27 11:05:02.49,-84,-368,-2021,53,-87,-123,-202,-18,-184,110
,999,2023-10-27 11:05:02.50,-111,-358,-2009,36,-85,-148,-265,-7,-258,136
,1000,2023-10-27 11:05:02.51,-110,-363,-2026,25,-97,-172,-209,-34,-175,121
,1001,2023-10-27 11:05:02.52,-133,-372,-2040,19,-117,-193,-257,-25,-232,141
,1002,2023-10-27 11:05:02.53,-116,-379,-2067,14,-129,-209,-205,-60,-145,132
,1003,2023-10-27 11:05:02.54,-104,-375,-2065,-7,-121,-228,-253,-42,-211,147
,1004,2023-10-27 11:05:02.55,-116,-383,-2059,-20,-132,-249,-202,-73,-129,137
,1005,2023-10-27 11:05:02.56,-119,-404,-2052,-29,-138,-263,-230,-30,-200,130
,1006,2023-10-27 11:05:02.57,-128,-407,-2068,-23,-153,-276,-170,-48,-122,109
,1007,2023-10-27 11:05:02.58,-105,-407,-2052,-26,-140,-290,-180,31,-211,74
,1008,2023-10-27 11:05:02.59,-139,-427,-2059,-26,-144,-299,-126,2,-128,62
,1009,2023-10-27 11:05:02.60,-117,-420,-2068,-26,-139,-304,-115,91,-206,12
,1010,2023-10-27 11:05:02.61,-128,-408,-2057,-35,-123,-310,-82,50,-132,16
,1011,2023-10-27 11:05:02.62,-131,-413,-2055,-40,-112,-313,-108,114,-222,-3
,1012,2023-10-27 11:05:02.63,-124,-415,-2036,-45,-115,-311,-78,38,-116,20
,1013,2023-10-27 11:05:02.64,-106,-411,-2040,-40,-113,-313,-36,173,-209,-68
,1014,2023-10-27 11:05:02.65,-129,-405,-2035,-42,-93,-320,-3,133,-136,-65
,1015,2023-10-27 11:05:02.66,-106,-383,-1996,-49,-63,-327,24,256,-232,-140
,1016,2023-10-27 11:05:02.67,-103,-388,-1959,-58,-34,-333,26,156,-130,-91
,1017,2023-10-27 11:05:02.68,-109,-398,-1939,-62,-17,-335,52,248,-196,-150
,1018,2023-10-27 11:05:02.69,-70,-387,-1927,-62,9,-340,30,140,-110,-85
,1019,2023-10-27 11:05:02.70,-69,-383,-1918,-67,65,-349,41,234,-193,-137
,1020,2023-10-27 11:05:02.71,-63,-388,-1903,-75,107,-362,0,113,-113,-56
,1021,2023-10-27 11:05:02.72,-76,-376,-1918,-82,132,-366,1,190,-189,-95
,1022,2023-10-27 11:05:02.73,-81,-389,-1942,-79,143,-369,-44,60,-104,-8
,1023,2023-10-27 11:05:02.74,-72,-377,-1960,-62,137,-367,-50,148,-198,-49
,1024,2023-10-27 11:05:02.75,-79,-392,-2010,-37,104,-363,-85,44,-129,20
,1025,2023-10-27 11:05:02.76,-53,-377,-2019,-28,89,-359,-64,146,-210,-41
,1026,2023-10-27 11:05:02.77,-51,-363,-2012,-30,89,-359,-110,22,-132,44
,1027,2023-10-27 11:05:02.78,-59,-378,-2044,-42,92,-361,-103,116,-219,-6
,1028,2023-10-27 11:05:02.79,-59,-399,-2066,-55,93,-361,-138,3,-141,67
,1029,2023-10-27 11:05:02.80,-71,-395,-2078,-53,82,-357,-102,118,-220,-8
,1030,2023-10-27 11:05:02.81,-47,-402,-2059,-44,63,-346,-133,9,-142,62
,1031,2023-10-27 11:05:02.82,-47,-400,-2014,-39,62,-342,-103,129,-232,-13
,1032,2023-10-27 11:05:02.83,-30,-404,-1994,-43,76,-337,-141,8,-149,66
,1033,2023-10-27 11:05:02.84,-31,-408,-2009,-39,82,-339,-97,139,-236,-21
,1034,2023-10-27 11:05:02.85,-17,-383,-1989,-29,77,-338,-147,11,-158,68
,1035,2023-10-27 11:05:02.86,4,-380,-1979,-23,104,-339,-110,128,-238,-9
,1036,2023-10-27 11:05:02.87,-22,-397,-1993,-26,124,-341,-169,-15,-154,92
,1037,2023-10-27 11:05:02.88,-18,-391,-2000,-30,122,-341,-125,121,-246,2
,1038,2023-10-27 11:05:02.89,-21,-376,-1997,-33,133,-345,-163,2,-165,80
,1039,2023-10-27 11:05:02.90,-11,-388,-2023,-38,140,-343,-91,186,-277,-47
,1040,2023-10-27 11:05:02.91,-22,-385,-2037,-39,123,-337,-59,117,-176,-29
,1041,2023-10-27 11:05:02.92,-8,-377,-2057,-48,115,-331,104,348,-244,-226
,1042,2023-10-27 11:05:02.93,-17,-377,-2075,-60,122,-327,56,195,-139,-125
,1043,2023-10-27 11:05:02.94,-2,-386,-2092,-71,105,-319,121,345,-224,-233
,1044,2023-10-27 11:05:02.95,1,-379,-2079,-82,99,-310,26,153,-127,-89
,1045,2023-10-27 11:05:02.96,-10,-387,-2064,-85,84,-300,88,274,-186,-181
,1046,2023-10-27 11:05:02.97,27,-389,-2058,-89,85,-289,-46,68,-114,-11
,1047,2023-10-27 11:05:02.98,11,-396,-2042,-94,97,-283,-15,185,-200,-85
,1048,2023-10-27 11:05:02.99,41,-390,-2024,-91,92,-270,-128,4,-132,62
,1049,2023-10-27 11:05:03.00,37,-396,-2024,-78,96,-257,-66,139,-205,-36
,1050,2023-10-27 11:05:03.01,32,-409,-2017,-71,101,-243,-169,-29,-140,99
,1051,2023-10-27 11:05:03.02,23,-406,-2006,-62,103,-226,-101,119,-220,-9
,1052,2023-10-27 11:05:03.03,28,-417,-1998,-51,94,-201,-206,-53,-153,129
,1053,2023-10-27 11:05:03.04,41,-416,-2013,-42,91,-180,-135,91,-226,22
,1054,2023-10-27 11:05:03.05,27,-396,-2022,-37,83,-156,-225,-72,-153,148
,1055,2023-10-27 11:05:03.06,32,-376,-2016,-32,67,-127,-143,81,-224,31
,1056,2023-10-27 11:05:03.07,34,-363,-2022,-43,58,-103,-244,-80,-164,162
,1057,2023-10-27 11:05:03.08,28,-348,-2020,-60,56,-85,-170,68,-238,51
,1058,2023-10-27 11:05:03.09,21,-340,-2032,-80,51,-69,-271,-99,-172,185
,1059,2023-10-27 11:05:03.10,14,-337,-2041,-94,39,-50,-189,35,-224,77
,1060,2023-10-27 11:05:03.11,37,-341,-2046,-109,29,-35,-308,-139,-169,223
,1061,2023-10-27 11:05:03.12,25,-352,-2049,-114,17,-20,-238,5,-243,116
,1062,2023-10-27 11:05:03.13,25,-355,-2034,-114,-2,-4,-355,-169,-186,262
,1063,2023-10-27 11:05:03.14,28,-355,-2033,-105,-8,12,-276,-38,-238,157
,1064,2023-10-27 11:05:03.15,36,-359,-2021,-98,-8,26,-401,-204,-197,302
,1065,2023-10-27 11:05:03.16,34,-355,-2018,-84,-4,34,-318,-56,-262,187
,1066,2023-10-27 11:05:03.17,45,-360,-2011,-70,4,45,-422,-212,-210,317
,1067,2023-10-27 11:05:03.18,33,-354,-2024,-57,20,49,-322,-60,-262,191
,1068,2023-10-27 11:05:03.19,33,-345,-2037,-47,26,52,-435,-214,-221,324
,1069,2023-10-27 11:05:03.20,1,-333,-2017,-29,13,55,-332,-53,-279,192
,1070,2023-10-27 11:05:03.21,46,-321,-2053,-3,-4,57,-431,-203,-228,317
,1071,2023-10-27 11:05:03.22,28,-314,-2050,-6,24,50,-309,-40,-269,174
,1072,2023-10-27 11:05:03.23,33,-310,-2070,-19,43,41,-414,-193,-221,303
,1073,2023-10-27 11:05:03.24,18,-303,-2071,-30,33,31,-292,-17,-275,154
,1074,2023-10-27 11:05:03.25,46,-282,-2074,-29,20,19,-398,-169,-229,283
,1075,2023-10-27 11:05:03.26,40,-293,-2061,-35,30,6,-264,16,-280,124
,1076,2023-10-27 11:05:03.27,41,-286,-2052,-49,37,-9,-369,-138,-231,253
,1077,2023-10-27 11:05:03.28,51,-291,-2045,-65,55,-24,-225,48,-273,88
,1078,2023-10-27 11:05:03.29,27,-305,-2048,-55,33,-36,-333,-107,-226,220
,1079,2023-10-27 11:05:03.30,49,-294,-2025,-36,13,-47,-186,90,-276,48
,1080,2023-10-27 11:05:03.31,48,-285,-2012,-36,31,-60,-297,-57,-240,177
,1081,2023-10-27 11:05:03.32,27,-290,-1998,-43,44,-75,-131,144,-275,-6
,1082,2023-10-27 11:05:03.33,41,-296,-2008,-54,55,-85,-237,-13,-224,125
,1083,2023-10-27 11:05:03.34,44,-294,-2023,-47,44,-92,-76,177,-253,-50
,1084,2023-10-27 11:05:03.35,43,-290,-2017,-40,41,-94,-208,5,-213,101
,1085,2023-10-27 11:05:03.36,38,-287,-2020,-38,27,-98,-58,185,-243,-63
,1086,2023-10-27 11:05:03.37,35,-284,-2031,-48,32,-101,-204,0,-204,102
,1087,2023-10-27 11:05:03.38,28,-285,-2040,-66,36,-100,-56,175,-231,-59
,1088,2023-10-27 11:05:03.39,15,-295,-2039,-79,27,-97,-203,-5,-198,104
,1089,2023-10-27 11:05:03.40,29,-278,-2051,-82,-1,-91,-58,170,-228,-56
,1090,2023-10-27 11:05:03.41,37,-294,-2044,-89,-11,-84,-212,-18,-194,115
,1091,2023-10-27 11:05:03.42,5,-297,-2054,-98,-29,-77,-78,140,-218,-31
,1092,2023-10-27 11:05:03.43,12,-295,-2064,-105,-55,-65,-243,-49,-194,146
,1093,2023-10-27 11:05:03.44,8,-299,-2065,-108,-73,-50,-113,99,-212,7
,1094,2023-10-27 11:05:03.45,2,-300,-2061,-113,-85,-36,-275,-78,-197,176
,1095,2023-10-27 11:05:03.46,-4,-300,-2060,-121,-88,-19,-129,94,-223,17
,1096,2023-10-27 11:05:03.47,-8,-313,-2051,-116,-102,-3,-290,-76,-214,183
,1097,2023-10-27 11:05:03.48,27,-322,-2074,-106,-93,40,-144,90,-234,27
,1098,2023-10-27 11:05:03.49,-11,-333,-2032,-116,-67,62,-304,-79,-225,191
,1099,2023-10-27 11:05:03.50,-1,-369,-2034,-122,-43,111,-162,89,-251,36
,1100,2023-10-27 11:05:03.51,-11,-412,-2031,-130,-1,164,-321,-70,-251,195
,1101,2023-10-27 11:05:03.52,24,-423,-2038,-142,41,227,-180,91,-271,44
,1102,2023-10-27 11:05:03.53,7,-411,-2034,-157,80,292,-327,-59,-268,193
,1103,2023-10-27 11:05:03.54,23,-339,-2000,-162,93,354,-170,111,-281,29
,1104,2023-10-27 11:05:03.55,1,-327,-1954,-155,109,409,-321,-41,-280,181
,1105,2023-10-27 11:05:03.56,13,-311,-1986,-125,78,473,-160,122,-282,19
,1106,2023-10-27 11:05:03.57,55,-287,-2020,-114,70,518,-305,-29,-276,167
,1107,2023-10-27 11:05:03.58,39,-268,-2008,-124,99,548,-147,130,-277,8
,1108,2023-10-27 11:05:03.59,58,-258,-2021,-145,138,566,-297,-15,-282,156
,1109,2023-10-27 11:05:03.60,43,-239,-2029,-158,155,577,-137,140,-277,-1
,1110,2023-10-27 11:05:03.61,69,-230,-2027,-149,146,586,-282,-13,-269,147
,1111,2023-10-27 11:05:03.62,66,-209,-2025,-139,150,586,-121,136,-257,-7
,1112,2023-10-27 11:05:03.63,74,-208,-2022,-130,158,578,-271,-8,-263,139
,1113,2023-10-27 11:05:03.64,62,-202,-2038,-121,165,562,-112,141,-253,-14
,1114,2023-10-27 11:05:03.65,67,-187,-2049,-118,178,540,-258,-1,-257,129
,1115,2023-10-27 11:05:03.66,66,-182,-2059,-102,175,521,-100,145,-245,-22
,1116,2023-10-27 11:05:03.67,65,-179,-2068,-87,166,497,-246,10,-256,118
,1117,2023-10-27 11:05:03.68,64,-178,-2070,-77,161,471,-94,148,-242,-27
,1118,2023-10-27 11:05:03.69,70,-171,-2070,-66,143,442,-240,16,-256,112
,1119,2023-10-27 11:05:03.70,54,-123,-2142,-71,148,420,-88,151,-239,-31
,1120,2023-10-27 11:05:03.71,74,-161,-2102,-99,141,389,-235,17,-252,109
,1121,2023-10-27 11:05:03.72,81,-184,-2022,-104,139,356,-87,144,-231,-28
,1122,2023-10-27 11:05:03.73,85,-135,-2019,-75,128,324,-245,13,-258,116
,1123,2023-10-27 11:05:03.74,87,-126,-2074,-50,93,290,-104,132,-236,-14
,1124,2023-10-27 11:05:03.75,106,-113,-2063,-52,77,253,-257,-3,-254,130
,1125,2023-10-27 11:05:03.76,87,-118,-2051,-61,94,210,-120,110,-230,5
,1126,2023-10-27 11:05:03.77,79,-113,-2056,-69,87,168,-275,-21,-254,148
,1127,2023-10-27 11:05:03.78,96,-122,-2069,-78,74,129,-135,89,-224,23
,1128,2023-10-27 11:05:03.79,100,-123,-2078,-76,64,92,-286,-33,-253,159
,1129,2023-10-27 11:05:03.80,92,-118,-2083,-69,36,60,-150,71,-221,39
,1130,2023-10-27 11:05:03.81,95,-110,-2071,-68,40,25,-303,-48,-255,175
,1131,2023-10-27 11:05:03.82,87,-115,-2052,-67,34,-7,-170,53,-223,58
,1132,2023-10-27 11:05:03.83,89,-130,-2033,-57,16,-40,-321,-58,-263,189
,1133,2023-10-27 11:05:03.84,101,-144,-2027,-42,-1,-67,-181,45,-226,68
,1134,2023-10-27 11:05:03.85,90,-143,-2031,-26,-8,-98,-334,-77,-257,205
,1135,2023-10-27 11:05:03.86,94,-145,-2035,-12,-13,-122,-201,16,-217,92
,1136,2023-10-27 11:05:03.87,88,-154,-2045,3,-18,-147,-337,-57,-280,197
,1137,2023-10-27 11:05:03.88,91,-143,-2053,20,-27,-164,-162,86,-248,38
,1138,2023-10-27 11:05:03.89,84,-158,-2052,36,-38,-185,-237,27,-264,105
,1139,2023-10-27 11:05:03.90,82,-156,-2040,47,-45,-199,-86,111,-197,-12
,1140,2023-10-27 11:05:03.91,83,-168,-2046,53,-41,-211,-230,8,-238,111
,1141,2023-10-27 11:05:03.92,93,-191,-2044,55,-35,-224,-117,77,-194,20
,1142,2023-10-27 11:05:03.93,89,-197,-2058,62,-24,-231,-247,-5,-242,126
,1143,2023-10-27 11:05:03.94,103,-195,-2059,63,-7,-235,-120,72,-192,24
,1144,2023-10-27 11:05:03.95,54,-211,-2058,60,-1,-239,-237,2,-239,117
,1145,2023-10-27 11:05:03.96,84,-214,-2066,68,-6,-234,-120,65,-185,27
,1146,2023-10-27 11:05:03.97,79,-217,-2076,71,1,-231,-243,-4,-239,123
,1147,2023-10-27 11:05:03.98,86,-224,-2071,79,-9,-223,-120,62,-182,29
,1148,2023-10-27 11:05:03.99,85,-221,-2070,78,-6,-220,-229,10,-239,109
,1149,2023-10-27 11:05:04.00,64,-216,-2064,74,-5,-213,-112,69,-181,21
,1150,2023-10-27 11:05:04.01,72,-228,-2066,69,-12,-203,-219,26,-245,96
,1151,2023-10-27 11:05:04.02,87,-211,-2061,65,-12,-195,-100,79,-179,10
,1152,2023-10-27 11:05:04.03,84,-199,-2049,58,-9,-189,-203,36,-239,83
,1153,2023-10-27 11:05:04.04,84,-206,-2054,48,-5,-189,-97,81,-178,8
,1154,2023-10-27 11:05:04.05,84,-210,-2058,38,-3,-187,-198,42,-240,78
,1155,2023-10-27 11:05:04.06,82,-211,-2062,33,-6,-184,-94,81,-175,6
,1156,2023-10-27 11:05:04.07,67,-223,-2054,35,-6,-180,-188,46,-234,71
,1157,2023-10-27 11:05:04.08,79,-214,-2067,33,-12,-172,-92,78,-170,7
,1158,2023-10-27 11:05:04.09,79,-221,-2037,26,-12,-166,-183,53,-236,65
,1159,2023-10-27 11:05:04.10,89,-222,-2016,24,-3,-162,-93,73,-166,10
,1160,2023-10-27 11:05:04.11,80,-219,-2013,32,-8,-162,-187,48,-235,69
,1161,2023-10-27 11:05:04.12,94,-220,-2007,39,-11,-160,-105,62,-167,21
,1162,2023-10-27 11:05:04.13,83,-216,-2009,54,-17,-158,-200,29,-229,85
,1163,2023-10-27 11:05:04.14,110,-213,-2019,59,-14,-161,-128,29,-157,49
,1164,2023-10-27 11:05:04.15,68,-209,-2033,56,-3,-167,-237,-12,-225,124
,1165,2023-10-27 11:05:04.16,87,-216,-2044,55,1,-169,-165,-13,-152,89
,1166,2023-10-27 11:05:04.17,70,-216,-2048,51,5,-172,-262,-50,-212,156
,1167,2023-10-27 11:05:04.18,94,-216,-2053,55,-6,-175,-193,-51,-142,122
,1168,2023-10-27 11:05:04.19,64,-221,-2057,54,-10,-176,-286,-84,-202,185
,1169,2023-10-27 11:05:04.20,84,-213,-2060,54,-16,-181,-209,-85,-124,147
,1170,2023-10-27 11:05:04.21,66,-220,-2079,50,-22,-183,-275,-90,-185,182
,1171,2023-10-27 11:05:04.22,80,-217,-2070,50,-26,-185,-188,-74,-114,131
,1172,2023-10-27 11:05:04.23,76,-222,-2073,49,-29,-186,-234,-58,-176,146
,1173,2023-10-27 11:05:04.24,63,-232,-2061,46,-33,-186,-156,-51,-105,103
,1174,2023-10-27 11:05:04.25,81,-234,-2041,44,-34,-182,-200,-14,-186,107
,1175,2023-10-27 11:05:04.26,70,-244,-2009,59,-29,-183,-137,-20,-117,78
,1176,2023-10-27 11:05:04.27,79,-234,-2066,63,-21,-181,-180,22,-202,79
,1177,2023-10-27 11:05:04.28,72,-245,-2098,42,-15,-173,-117,4,-121,56
,1178,2023-10-27 11:05:04.29,72,-255,-2043,30,-18,-166,-159,39,-198,60
,1179,2023-10-27 11:05:04.30,88,-245,-2036,33,2,-158,-117,11,-128,53
,1180,2023-10-27 11:05:04.31,75,-248,-2030,33,8,-151,-170,45,-215,62
,1181,2023-10-27 11:05:04.32,91,-246,-2018,28,25,-142,-134,8,-142,63
,1182,2023-10-27 11:05:04.33,88,-249,-2024,21,46,-137,-175,56,-231,59
,1183,2023-10-27 11:05:04.34,84,-253,-2028,14,64,-131,-146,11,-157,67
,1184,2023-10-27 11:05:04.35,87,-257,-2041,10,73,-124,-184,57,-241,63
,1185,2023-10-27 11:05:04.36,93,-254,-2044,9,78,-111,-154,6,-160,74
,1186,2023-10-27 11:05:04.37,87,-252,-2055,7,78,-100,-191,58,-249,66
,1187,2023-10-27 11:05:04.38,78,-247,-2051,5,76,-91,-170,-3,-167,86
,1188,2023-10-27 11:05:04.39,84,-250,-2064,1,72,-77,-193,53,-246,70
,1189,2023-10-27 11:05:04.40,82,-260,-2061,5,62,-63,-173,-11,-162,92
,1190,2023-10-27 11:05:04.41,88,-257,-2050,2,53,-50,-190,54,-244,68
,1191,2023-10-27 11:05:04.42,99,-240,-2049,-2,48,-43,-172,-13,-159,92
,1192,2023-10-27 11:05:04.43,95,-246,-2060,-9,49,-31,-187,64,-251,61
,1193,2023-10-27 11:05:04.44,95,-246,-2060,-10,47,-23,-180,-10,-170,95
,1194,2023-10-27 11:05:04.45,98,-247,-2054,-10,42,-11,-192,65,-257,63
,1195,2023-10-27 11:05:04.46,110,-246,-2047,-14,41,-2,-183,-14,-169,98
,1196,2023-10-27 11:05:04.47,94,-241,-2042,-14,44,4,-182,68,-250,57
,1197,2023-10-27 11:05:04.48,104,-242,-2039,-16,45,10,-181,-21,-160,101
,1198,2023-10-27 11:05:04.49,90,-235,-2028,-17,38,19,-180,71,-251,54
,1199,2023-10-27 11:05:04.50,107,-229,-2041,-13,27,22,-185,-15,-170,100
,1200,2023-10-27 11:05:04.51,118,-226,-2052,-12,28,24,-178,76,-254,51
,1201,2023-10-27 11:05:04.52,119,-224,-2065,-20,43,23,-191,-20,-171,105
,1202,2023-10-27 11:05:04.53,114,-213,-2058,-22,40,16,-178,84,-262,47
,1203,2023-10-27 11:05:04.54,107,-218,-2039,-17,23,18,-200,-18,-182,109
,1204,2023-10-27 11:05:04.55,113,-215,-2061,-10,11,17,-181,91,-272,45
,1205,2023-10-27 11:05:04.56,118,-213,-2065,-12,15,11,-199,-14,-185,106
,1206,2023-10-27 11:05:04.57,114,-211,-2066,-19,15,6,-182,94,-276,44
,1207,2023-10-27 11:05:04.58,106,-213,-2066,-18,10,1,-212,-25,-187,118
,1208,2023-10-27 11:05:04.59,103,-223,-2070,-13,0,1,-188,81,-269,53
,1209,2023-10-27 11:05:04.60,106,-218,-2062,-12,-12,-1,-220,-36,-184,128
,1210,2023-10-27 11:05:04.61,109,-220,-2052,-11,-15,2,-197,78,-275,59
,1211,2023-10-27 11:05:04.62,121,-219,-2046,-10,-16,2,-231,-43,-188,137
,1212,2023-10-27 11:05:04.63,118,-216,-2037,-13,-13,5,-189,82,-271,53
,1213,2023-10-27 11:05:04.64,122,-216,-2028,-15,-5,8,-230,-40,-190,135
,1214,2023-10-27 11:05:04.65,113,-215,-2027,-20,6,7,-186,92,-278,47
,1215,2023-10-27 11:05:04.66,115,-222,-2033,-20,18,10,-230,-31,-199,130
,1216,2023-10-27 11:05:04.67,114,-227,-2041,-18,27,10,-185,86,-271,49
,1217,2023-10-27 11:05:04.68,106,-230,-2049,-16,27,14,-235,-53,-182,144
,1218,2023-10-27 11:05:04.69,105,-232,-2053,-11,25,21,-180,86,-266,47
,1219,2023-10-27 11:05:04.70,107,-217,-2053,-10,27,21,-231,-48,-183,139
,1220,2023-10-27 11:05:04.71,108,-206,-2053,-7,25,23,-169,92,-261,38
,1221,2023-10-27 11:05:04.72,102,-205,-2052,2,5,23,-232,-48,-184,140
,1222,2023-10-27 11:05:04.73,132,-196,-2063,2,-6,22,-169,97,-266,36
,1223,2023-10-27 11:05:04.74,102,-204,-2065,-9,22,14,-235,-48,-187,141
,1224,2023-10-27 11:05:04.75,93,-202,-2063,-11,15,11,-165,100,-265,32
,1225,2023-10-27 11:05:04.76,98,-214,-2057,-12,6,13,-238,-47,-191,142
,1226,2023-10-27 11:05:04.77,98,-217,-2057,-13,-6,16,-163,109,-272,27
,1227,2023-10-27 11:05:04.78,108,-213,-2044,-12,-12,18,-235,-47,-188,141
,1228,2023-10-27 11:05:04.79,98,-212,-2041,-13,-14,19,-159,106,-265,26
,1229,2023-10-27 11:05:04.80,113,-207,-2029,-11,-13,17,-238,-52,-186,145
,1230,2023-10-27 11:05:04.81,119,-201,-2034,-11,-10,17,-157,108,-265,24
,1231,2023-10-27 11:05:04.82,113,-201,-2040,-11,-13,16,-244,-53,-191,148
,1232,2023-10-27 11:05:04.83,103,-210,-2050,-12,-12,15,-156,104,-260,26
,1233,2023-10-27 11:05:04.84,98,-215,-2063,-10,-18,17,-243,-53,-190,148
,1234,2023-10-27 11:05:04.85,100,-210,-2059,-6,-23,23,-149,111,-260,19
,1235,2023-10-27 11:05:04.86,105,-214,-2056,-3,-27,29,-243,-54,-189,148
,1236,2023-10-27 11:05:04.87,108,-214,-2050,0,-28,30,-145,104,-249,20
,1237,2023-10-27 11:05:04.88,104,-216,-2043,2,-24,33,-245,-60,-185,152
,1238,2023-10-27 11:05:04.89,110,-211,-2043,2,-19,35,-147,113,-260,17
,1239,2023-10-27 11:05:04.90,105,-212,-2052,2,-14,37,-252,-57,-195,154
,1240,2023-10-27 11:05:04.91,92,-212,-2051,3,-8,38,-146,109,-255,18
,1241,2023-10-27 11:05:04.92,110,-211,-2050,6,-3,37,-252,-56,-196,154
,1242,2023-10-27 11:05:04.93,110,-206,-2048,9,6,37,-144,119,-263,12
,1243,2023-10-27 11:05:04.94,103,-217,-2049,11,11,36,-254,-55,-199,154
,1244,2023-10-27 11:05:04.95,105,-209,-2046,8,17,35,-140,114,-254,13
,1245,2023-10-27 11:05:04.96,103,-196,-2038,7,23,32,-252,-58,-194,155
,1246,2023-10-27 11:05:04.97,96,-220,-2050,7,27,29,-128,122,-250,3
,1247,2023-10-27 11:05:04.98,97,-207,-2062,9,25,24,-245,-47,-198,146
,1248,2023-10-27 11:05:04.99,107,-206,-2049,10,25,20,-129,130,-259,0
,1249,2023-10-27 11:05:05.00,93,-202,-2034,11,20,16,-255,-53,-202,154
,1250,2023-10-27 11:05:05.01,108,-186,-2058,32,-37,17,-127,121,-248,3
,1251,2023-10-27 11:05:05.02,124,-182,-2051,24,-8,1,-250,-54,-196,152
,1252,2023-10-27 11:05:05.03,94,-181,-2049,15,-5,-10,-126,126,-252,0
,1253,2023-10-27 11:05:05.04,125,-188,-2060,4,1,-22,-253,-50,-203,151
,1254,2023-10-27 11:05:05.05,120,-186,-2053,-3,13,-30,-120,126,-246,-3
,1255,2023-10-27 11:05:05.06,92,-195,-2060,-4,-1,-37,-250,-52,-198,151
,1256,2023-10-27 11:05:05.07,89,-205,-2057,1,-12,-46,-123,130,-253,-3
,1257,2023-10-27 11:05:05.08,88,-210,-2052,4,-25,-46,-258,-54,-204,156
,1258,2023-10-27 11:05:05.09,101,-217,-2046,13,-39,-41,-123,119,-242,2
,1259,2023-10-27 11:05:05.10,85,-221,-2042,15,-44,-39,-258,-59,-199,158
,1260,2023-10-27 11:05:05.11,91,-227,-2045,14,-44,-34,-129,115,-244,7
,1261,2023-10-27 11:05:05.12,94,-212,-2036,11,-38,-29,-272,-64,-208,168
,1262,2023-10-27 11:05:05.13,87,-225,-2042,7,-30,-25,-135,107,-242,14
,1263,2023-10-27 11:05:05.14,89,-218,-2045,0,-16,-20,-266,-58,-208,162
,1264,2023-10-27 11:05:05.15,97,-219,-2043,-5,-4,-13,-115,122,-237,-3
,1265,2023-10-27 11:05:05.16,96,-210,-2050,-14,3,-10,-263,-73,-190,168
,1266,2023-10-27 11:05:05.17,103,-211,-2048,-19,14,-2,-112,108,-220,2
,1267,2023-10-27 11:05:05.18,93,-213,-2048,-24,19,-1,-268,-70,-198,169
,1268,2023-10-27 11:05:05.19,100,-208,-2050,-26,27,1,-122,107,-229,7
,1269,2023-10-27 11:05:05.20,91,-209,-2047,-27,31,3,-265,-68,-197,166
,1270,2023-10-27 11:05:05.21,95,-200,-2044,-24,36,1,-118,104,-222,7
,1271,2023-10-27 11:05:05.22,94,-204,-2036,-24,40,-1,-277,-81,-196,179
,1272,2023-10-27 11:05:05.23,103,-202,-2038,-20,51,-7,-134,83,-217,25
,1273,2023-10-27 11:05:05.24,93,-194,-2043,-21,57,-15,-284,-94,-190,189
,1274,2023-10-27 11:05:05.25,89,-192,-2050,-20,65,-19,-126,75,-201,25
,1275,2023-10-27 11:05:05.26,52,-210,-2029,-11,42,-23,-273,-91,-182,182
,1276,2023-10-27 11:05:05.27,142,-183,-2070,8,7,-18,-114,85,-199,14
,1277,2023-10-27 11:05:05.28,91,-185,-2053,-9,51,-28,-264,-80,-184,172
,1278,2023-10-27 11:05:05.29,111,-167,-2041,-9,31,-34,-112,87,-199,12
,1279,2023-10-27 11:05:05.30,120,-175,-2042,-14,34,-44,-268,-72,-196,170
,1280,2023-10-27 11:05:05.31,124,-170,-2055,-17,37,-51,-113,97,-210,8
,1281,2023-10-27 11:05:05.32,108,-183,-2048,-14,47,-61,-265,-62,-203,163
,1282,2023-10-27 11:05:05.33,113,-185,-2037,-18,59,-68,-111,100,-211,5
,1283,2023-10-27 11:05:05.34,111,-184,-2035,-17,55,-76,-262,-59,-203,160
,1284,2023-10-27 11:05:05.35,115,-181,-2042,-9,48,-83,-108,94,-202,7
,1285,2023-10-27 11:05:05.36,121,-180,-2039,-7,60,-91,-264,-65,-199,164
,1286,2023-10-27 11:05:05.37,136,-181,-2036,-7,56,-97,-116,93,-209,11
,1287,2023-10-27 11:05:05.38,140,-179,-2028,-8,66,-108,-268,-59,-209,163
,1288,2023-10-27 11:05:05.39,124,-182,-2020,-11,79,-115,-114,90,-204,12
,1289,2023-10-27 11:05:05.40,133,-182,-2040,-5,68,-120,-281,-59,-222,170
,1290,2023-10-27 11:05:05.41,140,-184,-2044,-6,76,-126,-137,84,-221,26
,1291,2023-10-27 11:05:05.42,141,-173,-2043,-10,91,-135,-279,-57,-222,168
,1292,2023-10-27 11:05:05.43,135,-174,-2054,-9,76,-140,-115,93,-208,11
,1293,2023-10-27 11:05:05.44,131,-191,-2053,-19,96,-150,-261,-44,-217,152
,1294,2023-10-27 11:05:05.45,121,-193,-2067,-15,69,-149,-101,95,-196,3
,1295,2023-10-27 11:05:05.46,139,-201,-2056,-21,79,-151,-261,-51,-210,156
,1296,2023-10-27 11:05:05.47,117,-195,-2045,-20,74,-151,-118,77,-195,20
,1297,2023-10-27 11:05:05.48,151,-201,-2043,-24,84,-154,-273,-64,-209,168
,1298,2023-10-27 11:05:05.49,124,-209,-2051,-27,90,-149,-114,70,-184,22
,1299,2023-10-27 11:05:05.50,132,-208,-2045,-23,80,-146,-268,-56,-212,162
,1300,2023-10-27 11:05:05.51,128,-199,-2068,-17,72,-152,-121,74,-195,23
,1301,2023-10-27 11:05:05.52,137,-188,-2072,-16,62,-147,-284,-59,-225,171
,1302,2023-10-27 11:05:05.53,134,-192,-2060,-21,68,-149,-140,65,-205,37
,1303,2023-10-27 11:05:05.54,122,-183,-2062,-23,59,-147,-286,-60,-226,173
,1304,2023-10-27 11:05:05.55,134,-192,-2063,-26,42,-147,-131,61,-192,35
,1305,2023-10-27 11:05:05.56,140,-193,-2065,-25,34,-146,-272,-53,-219,162
,1306,2023-10-27 11:05:05.57,150,-199,-2064,-25,27,-142,-133,61,-194,36
,1307,2023-10-27 11:05:05.58,172,-182,-2057,-30,26,-140,-279,-51,-228,165
,1308,2023-10-27 11:05:05.59,173,-159,-2024,-32,36,-138,-138,60,-198,39
,1309,2023-10-27 11:05:05.60,157,-166,-2018,-36,56,-147,-272,-48,-224,160
,1310,2023-10-27 11:05:05.61,151,-223,-2061,-50,78,-146,-129,60,-189,34
,1311,2023-10-27 11:05:05.62,158,-194,-2062,-60,82,-143,-273,-40,-233,156
,1312,2023-10-27 11:05:05.63,149,-186,-2060,-55,88,-136,-133,64,-197,34
,1313,2023-10-27 11:05:05.64,135,-179,-2054,-48,75,-129,-268,-32,-236,150
,1314,2023-10-27 11:05:05.65,172,-190,-2036,-51,69,-122,-136,58,-194,39
,1315,2023-10-27 11:05:05.66,167,-190,-2041,-59,87,-113,-261,-35,-226,148
,1316,2023-10-27 11:05:05.67,180,-176,-2017,-60,87,-110,-124,57,-181,33
,1317,2023-10-27 11:05:05.68,178,-190,-2005,-58,89,-104,-254,-28,-226,141
,1318,2023-10-27 11:05:05.69,183,-173,-2019,-53,88,-97,-129,53,-182,38
,1319,2023-10-27 11:05:05.70,183,-181,-2019,-56,95,-91,-258,-36,-222,147
,1320,2023-10-27 11:05:05.71,189,-168,-2027,-54,98,-86,-134,37,-171,48
,1321,2023-10-27 11:05:05.72,175,-163,-2049,-56,99,-87,-261,-34,-227,147
,1322,2023-10-27 11:05:05.73,187,-153,-2054,-54,90,-79,-139,42,-181,48
,1323,2023-10-27 11:05:05.74,189,-147,-2047,-60,98,-78,-254,-20,-234,137
,1324,2023-10-27 11:05:05.75,179,-156,-2054,-60,84,-75,-131,50,-181,40
,1325,2023-10-27 11:05:05.76,182,-159,-2060,-61,74,-73,-252,-16,-236,134
,1326,2023-10-27 11:05:05.77,191,-165,-2060,-63,75,-69,-141,43,-184,49
,1327,2023-10-27 11:05:05.78,187,-158,-2074,-62,70,-65,-246,-8,-238,127
,1328,2023-10-27 11:05:05.79,191,-160,-2079,-63,75,-63,-127,52,-179,37
,1329,2023-10-27 11:05:05.80,189,-159,-2074,-61,69,-61,-240,-4,-236,122
,1330,2023-10-27 11:05:05.81,206,-152,-2069,-57,61,-61,-144,36,-180,54
,1331,2023-10-27 11:05:05.82,202,-141,-2064,-58,75,-59,-251,-10,-241,130
,1332,2023-10-27 11:05:05.83,206,-143,-2048,-58,70,-62,-144,30,-174,57
,1333,2023-10-27 11:05:05.84,212,-133,-2052,-57,73,-65,-246,-13,-233,129
,1334,2023-10-27 11:05:05.85,196,-128,-2044,-59,83,-66,-147,24,-171,61
,1335,2023-10-27 11:05:05.86,204,-127,-2040,-59,78,-69,-241,-5,-236,123
,1336,2023-10-27 11:05:05.87,200,-120,-2041,-62,81,-73,-142,29,-171,56
,1337,2023-10-27 11:05:05.88,193,-124,-2041,-60,75,-75,-235,6,-241,114
,1338,2023-10-27 11:05:05.89,210,-120,-2044,-66,86,-80,-153,29,-182,62
,1339,2023-10-27 11:05:05.90,204,-119,-2040,-73,91,-83,-235,7,-242,114
,1340,2023-10-27 11:05:05.91,208,-119,-2042,-72,71,-83,-143,21,-164,61
,1341,2023-10-27 11:05:05.92,229,-117,-2056,-68,60,-80,-220,12,-232,104
,1342,2023-10-27 11:05:05.93,235,-126,-2053,-72,69,-82,-145,26,-171,59
,1343,2023-10-27 11:05:05.94,219,-109,-2053,-75,65,-83,-226,16,-242,105
,1344,2023-10-27 11:05:05.95,227,-116,-2052,-75,63,-82,-150,16,-166,67
,1345,2023-10-27 11:05:05.96,220,-120,-2052,-71,51,-78,-223,17,-240,103
,1346,2023-10-27 11:05:05.97,227,-122,-2061,-61,40,-73,-147,24,-171,61
,1347,2023-10-27 11:05:05.98,238,-121,-2056,-61,50,-67,-215,35,-250,90
,1348,2023-10-27 11:05:05.99,222,-123,-2056,-56,50,-65,-149,24,-173,62
,1349,2023-10-27 11:05:06.00,228,-131,-2063,-58,53,-58,-214,26,-240,94
,1350,2023-10-27 11:05:06.01,221,-128,-2068,-49,43,-50,-147,16,-163,65
,1351,2023-10-27 11:05:06.02,239,-124,-2069,-38,29,-44,-218,34,-252,92
,1352,2023-10-27 11:05:06.03,233,-112,-2068,-40,35,-34,-162,17,-179,72
,1353,2023-10-27 11:05:06.04,236,-105,-2061,-45,38,-30,-214,40,-254,87
,1354,2023-10-27 11:05:06.05,235,-112,-2059,-45,37,-26,-156,14,-170,71
,1355,2023-10-27 11:05:06.06,223,-113,-2053,-42,31,-20,-208,45,-253,81
,1356,2023-10-27 11:05:06.07,247,-108,-2053,-32,21,-14,-159,14,-173,72
,1357,2023-10-27 11:05:06.08,248,-116,-2045,-28,24,-9,-204,48,-252,78
,1358,2023-10-27 11:05:06.09,247,-115,-2029,-29,30,-9,-159,2,-161,78
,1359,2023-10-27 11:05:06.10,236,-105,-2029,-25,28,-9,-199,49,-248,75
,1360,2023-10-27 11:05:06.11,247,-102,-2037,-25,38,-6,-159,9,-168,75
,1361,2023-10-27 11:05:06.12,239,-101,-2033,-15,27,-5,-205,48,-253,78
,1362,2023-10-27 11:05:06.13,254,-104,-2043,-13,30,-8,-175,-8,-167,91
,1363,2023-10-27 11:05:06.14,248,-102,-2044,-10,31,-9,-204,47,-251,78
,1364,2023-10-27 11:05:06.15,239,-103,-2036,-11,41,-9,-172,-3,-169,87
,1365,2023-10-27 11:05:06.16,241,-111,-2045,-11,43,-12,-202,57,-259,72
,1366,2023-10-27 11:05:06.17,250,-92,-2055,-5,36,-14,-181,-4,-177,92
,1367,2023-10-27 11:05:06.18,247,-86,-2063,-4,29,-15,-200,58,-258,71
,1368,2023-10-27 11:05:06.19,252,-86,-2081,-6,19,-19,-182,-8,-174,95
,1369,2023-10-27 11:05:06.20,255,-72,-2068,-17,31,-24,-204,63,-267,70
,1370,2023-10-27 11:05:06.21,239,-79,-2061,-21,14,-26,-185,-11,-174,98
,1371,2023-10-27 11:05:06.22,255,-92,-2059,-26,8,-30,-191,64,-255,63
,1372,2023-10-27 11:05:06.23,235,-98,-2071,-25,-6,-29,-179,-7,-172,93
,1373,2023-10-27 11:05:06.24,250,-89,-2059,-26,-11,-31,-191,70,-261,60
,1374,2023-10-27 11:05:06.25,242,-88,-2055,-27,-7,-31,-191,-17,-174,104
,1375,2023-10-27 11:05:06.26,245,-82,-2043,-26,-14,-37,-198,69,-267,64
,1376,2023-10-27 11:05:06.27,254,-75,-2032,-23,-22,-38,-199,-19,-180,109
,1377,2023-10-27 11:05:06.28,253,-72,-2043,-21,-24,-39,-193,73,-266,60
,1378,2023-10-27 11:05:06.29,241,-78,-2047,-18,-24,-44,-200,-28,-172,114
,1379,2023-10-27 11:05:06.30,241,-86,-2056,-22,-23,-47,-199,61,-260,69
,1380,2023-10-27 11:05:06.31,233,-85,-2061,-21,-27,-46,-209,-38,-171,123
,1381,2023-10-27 11:05:06.32,242,-93,-2066,-18,-33,-37,-198,65,-263,66
,1382,2023-10-27 11:05:06.33,227,-93,-2061,-14,-38,-35,-212,-38,-174,125
,1383,2023-10-27 11:05:06.34,231,-87,-2064,-9,-43,-30,-193,65,-258,64
,1384,2023-10-27 11:05:06.35,231,-87,-2055,-7,-48,-24,-223,-45,-178,134
,1385,2023-10-27 11:05:06.36,229,-97,-2058,0,-51,-20,-210,62,-272,74
,1386,2023-10-27 11:05:06.37,228,-92,-2048,5,-53,-13,-240,-49,-191,144
,1387,2023-10-27 11:05:06.38,229,-87,-2044,16,-52,-4,-210,67,-277,71
,1388,2023-10-27 11:05:06.39,220,-92,-2045,23,-46,-2,-244,-46,-198,145
,1389,2023-10-27 11:05:06.40,224,-91,-2041,27,-39,-1,-209,70,-279,69
,1390,2023-10-27 11:05:06.41,219,-93,-2049,27,-30,2,-243,-51,-192,147
,1391,2023-10-27 11:05:06.42,212,-103,-2045,31,-23,3,-188,83,-271,52
,1392,2023-10-27 11:05:06.43,218,-110,-2057,37,-18,7,-231,-39,-192,135
,1393,2023-10-27 11:05:06.44,206,-91,-2058,40,-15,12,-185,96,-281,44
,1394,2023-10-27 11:05:06.45,208,-88,-2047,42,-13,15,-236,-45,-191,140
,1395,2023-10-27 11:05:06.46,212,-84,-2047,42,-12,15,-178,89,-267,44
,1396,2023-10-27 11:05:06.47,218,-86,-2052,41,-10,15,-234,-43,-191,138
,1397,2023-10-27 11:05:06.48,204,-91,-2053,40,-9,11,-175,104,-279,35
,1398,2023-10-27 11:05:06.49,211,-89,-2058,39,-11,13,-235,-38,-197,136
,1399,2023-10-27 11:05:06.50,203,-84,-2054,39,-15,12,-163,105,-268,29
,1400,2023-10-27 11:05:06.51,202,-89,-2055,35,-17,11,-234,-38,-196,136
,1401,2023-10-27 11:05:06.52,206,-89,-2052,31,-21,11,-160,115,-275,22
,1402,2023-10-27 11:05:06.53,209,-87,-2053,30,-20,10,-232,-36,-196,134
,1403,2023-10-27 11:05:06.54,211,-85,-2049,28,-20,6,-153,114,-267,19
,1404,2023-10-27 11:05:06.55,217,-87,-2048,21,-20,5,-233,-43,-190,138
,1405,2023-10-27 11:05:06.56,210,-99,-2045,18,-12,2,-153,113,-266,20
,1406,2023-10-27 11:05:06.57,207,-94,-2046,17,-9,0,-239,-45,-194,142
,1407,2023-10-27 11:05:06.58,213,-96,-2052,19,-8,-3,-159,108,-267,25
,1408,2023-10-27 11:05:06.59,203,-83,-2058,18,-1,-4,-245,-53,-192,149
,1409,2023-10-27 11:05:06.60,200,-81,-2051,16,1,-8,-150,107,-257,21
,1410,2023-10-27 11:05:06.61,208,-72,-2052,12,-1,-14,-240,-58,-182,149
,1411,2023-10-27 11:05:06.62,209,-74,-2045,7,5,-20,-146,105,-251,20
,1412,2023-10-27 11:05:06.63,207,-64,-2036,6,8,-28,-240,-63,-177,151
,1413,2023-10-27 11:05:06.64,215,-72,-2047,4,14,-38,-136,103,-239,16
,1414,2023-10-27 11:05:06.65,225,-77,-2048,6,18,-43,-236,-61,-175,148
,1415,2023-10-27 11:05:06.66,222,-93,-2052,11,21,-47,-137,110,-247,13
,1416,2023-10-27 11:05:06.67,217,-97,-2049,22,14,-47,-249,-63,-186,156
,1417,2023-10-27 11:05:06.68,219,-97,-2051,29,19,-46,-147,108,-255,19
,1418,2023-10-27 11:05:06.69,213,-103,-2042,35,18,-44,-261,-66,-195,163
,1419,2023-10-27 11:05:06.70,225,-100,-2037,44,25,-45,-149,106,-255,21
,1420,2023-10-27 11:05:06.71,226,-111,-2041,52,33,-45,-275,-76,-199,175
,1421,2023-10-27 11:05:06.72,233,-112,-2039,60,38,-47,-159,103,-262,28
,1422,2023-10-27 11:05:06.73,232,-94,-2047,61,43,-46,-273,-73,-200,173
,1423,2023-10-27 11:05:06.74,232,-104,-2051,66,48,-47,-146,111,-257,17
,1424,2023-10-27 11:05:06.75,234,-103,-2047,63,51,-47,-264,-64,-200,164
,1425,2023-10-27 11:05:06.76,225,-108,-2058,62,47,-48,-138,122,-260,8
,1426,2023-10-27 11:05:06.77,229,-106,-2065,65,35,-46,-262,-62,-200,162
,1427,2023-10-27 11:05:06.78,225,-106,-2059,69,21,-42,-126,117,-243,4
,1428,2023-10-27 11:05:06.79,228,-116,-2054,72,6,-38,-254,-65,-189,159
,1429,2023-10-27 11:05:06.80,239,-118,-2053,72,1,-36,-124,120,-244,2
,1430,2023-10-27 11:05:06.81,228,-109,-2055,74,-5,-36,-260,-61,-199,160
,1431,2023-10-27 11:05:06.82,242,-118,-2052,71,-6,-35,-128,115,-243,6
,1432,2023-10-27 11:05:06.83,221,-108,-2045,73,-11,-36,-267,-67,-200,167
,1433,2023-10-27 11:05:06.84,236,-111,-2049,69,-6,-37,-130,118,-248,6
,1434,2023-10-27 11:05:06.85,231,-109,-2048,64,-11,-35,-266,-66,-200,166
,1435,2023-10-27 11:05:06.86,223,-117,-2042,61,-10,-35,-124,115,-239,4
,1436,2023-10-27 11:05:06.87,231,-117,-2052,61,-14,-32,-262,-60,-202,161
,1437,2023-10-27 11:05:06.88,234,-120,-2042,59,-20,-30,-122,121,-243,0
,1438,2023-10-27 11:05:06.89,239,-121,-2049,58,-18,-28,-268,-66,-202,167
,1439,2023-10-27 11:05:06.90,240,-122,-2052,57,-18,-28,-130,100,-230,15
,1440,2023-10-27 11:05:06.91,237,-119,-2044,63,-18,-25,-278,-80,-198,179
,1441,2023-10-27 11:05:06.92,225,-130,-2053,64,-18,-23,-130,100,-230,15
,1442,2023-10-27 11:05:06.93,221,-143,-2061,63,-25,-15,-266,-72,-194,169
,1443,2023-10-27 11:05:06.94,226,-151,-2065,62,-28,-8,-117,106,-223,5
,1444,2023-10-27 11:05:06.95,236,-177,-2004,76,-38,-6,-271,-71,-200,171
,1445,2023-10-27 11:05:06.96,199,-129,-2067,84,-23,3,-130,103,-233,13
,1446,2023-10-27 11:05:06.97,211,-126,-2068,74,-44,12,-280,-71,-209,175
,1447,2023-10-27 11:05:06.98,248,-149,-2033,69,-41,17,-124,104,-228,10
,1448,2023-10-27 11:05:06.99,220,-135,-2048,71,-22,16,-274,-65,-209,169
,1449,2023-10-27 11:05:07.00,216,-128,-2059,62,-19,19,-120,104,-224,8
,1450,2023-10-27 11:05:07.01,230,-133,-2075,43,-9,20,-274,-65,-209,169
,1451,2023-10-27 11:05:07.02,212,-136,-2034,27,9,19,-122,104,-226,9
,1452,2023-10-27 11:05:07.03,207,-144,-2055,26,1,22,-280,-62,-218,171
,1453,2023-10-27 11:05:07.04,211,-132,-2050,23,2,27,-125,105,-230,10
,1454,2023-10-27 11:05:07.05,195,-142,-2053,26,-15,30,-279,-66,-213,172
,1455,2023-10-27 11:05:07.06,211,-141,-2049,22,-13,35,-119,102,-221,8
,1456,2023-10-27 11:05:07.07,220,-140,-2049,14,3,35,-274,-55,-219,164
,1457,2023-10-27 11:05:07.08,220,-139,-2057,10,-3,37,-120,108,-228,6
,1458,2023-10-27 11:05:07.09,198,-146,-2034,1,12,37,-277,-56,-221,166
,1459,2023-10-27 11:05:07.10,215,-144,-2048,12,-6,40,-127,99,-226,14
,1460,2023-10-27 11:05:07.11,230,-136,-2046,13,2,40,-278,-55,-223,166
,1461,2023-10-27 11:05:07.12,214,-137,-2057,24,-11,38,-130,99,-229,15
,1462,2023-10-27 11:05:07.13,233,-137,-2057,25,-11,38,-277,-44,-233,160
,1463,2023-10-27 11:05:07.14,213,-133,-2040,24,10,34,-123,111,-234,6
,1464,2023-10-27 11:05:07.15,214,-132,-2052,29,-8,34,-267,-32,-235,149
,1465,2023-10-27 11:05:07.16,201,-151,-2058,33,-11,33,-114,108,-222,3
,1466,2023-10-27 11:05:07.17,209,-140,-2049,38,-14,33,-271,-37,-234,154
,1467,2023-10-27 11:05:07.18,200,-139,-2060,42,-25,36,-123,103,-226,10
,1468,2023-10-27 11:05:07.19,202,-132,-2049,41,-27,32,-261,-32,-229,146
,1469,2023-10-27 11:05:07.20,215,-132,-2046,41,-31,32,-101,113,-214,-6
,1470,2023-10-27 11:05:07.21,205,-137,-2054,46,-36,29,-260,-21,-239,140
,1471,2023-10-27 11:05:07.22,234,-135,-2049,43,-35,27,-115,111,-226,2
,1472,2023-10-27 11:05:07.23,217,-138,-2042,40,-28,23,-265,-36,-229,150
,1473,2023-10-27 11:05:07.24,222,-140,-2056,38,-28,21,-111,93,-204,9
,1474,2023-10-27 11:05:07.25,213,-148,-2049,40,-29,24,-260,-30,-230,145
,1475,2023-10-27 11:05:07.26,212,-152,-2033,47,-32,24,-107,99,-206,4
,1476,2023-10-27 11:05:07.27,215,-147,-2046,52,-40,27,-255,-27,-228,141
,1477,2023-10-27 11:05:07.28,216,-147,-2038,56,-38,27,-111,93,-204,9
,1478,2023-10-27 11:05:07.29,211,-138,-2044,57,-38,31,-258,-29,-229,143
,1479,2023-10-27 11:05:07.30,210,-150,-2047,51,-28,29,-114,87,-201,13
,1480,2023-10-27 11:05:07.31,207,-150,-2047,56,-38,35,-264,-28,-236,146
,1481,2023-10-27 11:05:07.32,209,-147,-2045,55,-30,36,-117,92,-209,12
,1482,2023-10-27 11:05:07.33,219,-143,-2050,60,-36,39,-259,-19,-240,139
,1483,2023-10-27 11:05:07.34,205,-156,-2047,61,-30,39,-109,91,-200,9
,1484,2023-10-27 11:05:07.35,223,-161,-2038,63,-31,40,-251,-18,-233,134
,1485,2023-10-27 11:05:07.36,198,-155,-2057,68,-33,41,-113,86,-199,13
,1486,2023-10-27 11:05:07.37,211,-152,-2047,76,-34,39,-260,-13,-247,136
,1487,2023-10-27 11:05:07.38,205,-151,-2040,80,-25,38,-121,86,-207,17
,1488,2023-10-27 11:05:07.39,204,-151,-2048,90,-33,36,-254,-6,-248,130
,1489,2023-10-27 11:05:07.40,206,-154,-2054,99,-43,35,-111,94,-205,8
,1490,2023-10-27 11:05:07.41,201,-157,-2045,108,-43,36,-249,8,-257,120
,1491,2023-10-27 11:05:07.42,211,-156,-2053,116,-47,33,-122,92,-214,15
,1492,2023-10-27 11:05:07.43,207,-159,-2049,120,-43,30,-251,-1,-250,126
,1493,2023-10-27 11:05:07.44,198,-161,-2049,123,-40,25,-113,80,-193,16
,1494,2023-10-27 11:05:07.45,188,-166,-2047,130,-38,24,-243,8,-251,117
,1495,2023-10-27 11:05:07.46,205,-161,-2047,142,-48,17,-121,87,-208,17
,1496,2023-10-27 11:05:07.47,191,-164,-2056,145,-54,16,-245,11,-256,117
,1497,2023-10-27 11:05:07.48,199,-164,-2053,146,-49,12,-119,77,-196,21
,1498,2023-10-27 11:05:07.49,180,-172,-2051,143,-49,8,-246,7,-253,119
,1499,2023-10-27 11:05:07.50,202,-173,-2059,149,-62,9,-122,80,-202,21
,1500,2023-10-27 11:05:07.51,173,-190,-2055,148,-55,8,-250,12,-262,119
,1501,2023-10-27 11:05:07.52,175,-192,-2053,147,-61,11,-127,71,-198,28
,1502,2023-10-27 11:05:07.53,167,-201,-2044,137,-53,11,-254,0,-254,127
,1503,2023-10-27 11:05:07.54,169,-205,-2049,142,-70,16,-131,65,-196,33
,1504,2023-10-27 11:05:07.55,183,-199,-2042,140,-63,20,-248,13,-261,117
,1505,2023-10-27 11:05:07.56,162,-210,-2041,135,-67,22,-132,66,-198,33
,1506,2023-10-27 11:05:07.57,172,-220,-2044,132,-68,29,-243,18,-261,112
,1507,2023-10-27 11:05:07.58,155,-224,-2046,122,-54,33,-137,61,-198,38
,1508,2023-10-27 11:05:07.59,165,-219,-2042,113,-45,36,-246,18,-264,114
,1509,2023-10-27 11:05:07.60,161,-223,-2035,113,-47,44,-139,60,-199,39
,1510,2023-10-27 11:05:07.61,161,-223,-2037,114,-54,46,-242,29,-271,106
,1511,2023-10-27 11:05:07.62,137,-238,-2047,93,-26,52,-143,55,-198,44
,1512,2023-10-27 11:05:07.63,144,-241,-2054,85,-28,62,-240,24,-264,108
,1513,2023-10-27 11:05:07.64,153,-249,-2047,75,-27,67,-147,48,-195,49
,1514,2023-10-27 11:05:07.65,134,-243,-2038,75,-42,76,-240,29,-269,105
,1515,2023-10-27 11:05:07.66,150,-240,-2043,75,-50,84,-151,45,-196,53
,1516,2023-10-27 11:05:07.67,151,-238,-2036,65,-42,87,-237,30,-267,103
,1517,2023-10-27 11:05:07.68,160,-233,-2028,53,-36,87,-144,46,-190,49
,1518,2023-10-27 11:05:07.69,152,-232,-2038,39,-16,88,-231,33,-264,99
,1519,2023-10-27 11:05:07.70,152,-232,-2029,33,-14,90,-151,33,-184,59
,1520,2023-10-27 11:05:07.71,148,-250,-2040,33,-21,91,-228,30,-258,99
,1521,2023-10-27 11:05:07.72,145,-250,-2050,36,-34,95,-155,34,-189,60
,1522,2023-10-27 11:05:07.73,148,-238,-2047,35,-29,92,-245,33,-278,106
,1523,2023-10-27 11:05:07.74,147,-243,-2046,34,-28,96,-180,19,-199,80
,1524,2023-10-27 11:05:07.75,151,-249,-2035,29,-13,93,-244,26,-270,109
,1525,2023-10-27 11:05:07.76,147,-248,-2043,33,-22,92,-176,18,-194,79
,1526,2023-10-27 11:05:07.77,154,-247,-2039,40,-27,91,-247,34,-281,106
,1527,2023-10-27 11:05:07.78,149,-246,-2037,44,-20,87,-182,13,-195,84
,1528,2023-10-27 11:05:07.79,149,-248,-2037,40,-5,80,-239,29,-268,105
,1529,2023-10-27 11:05:07.80,144,-248,-2035,39,-1,77,-180,5,-185,87
,1530,2023-10-27 11:05:07.81,152,-255,-2037,46,1,73,-240,38,-278,101
,1531,2023-10-27 11:05:07.82,146,-253,-2043,48,9,68,-188,3,-191,92
,1532,2023-10-27 11:05:07.83,147,-249,-2030,50,14,63,-236,25,-261,105
,1533,2023-10-27 11:05:07.84,156,-250,-2029,50,23,57,-184,-4,-180,94
,1534,2023-10-27 11:05:07.85,153,-257,-2051,48,23,54,-232,37,-269,97
,1535,2023-10-27 11:05:07.86,158,-255,-2047,50,24,51,-187,-5,-182,96
,1536,2023-10-27 11:05:07.87,165,-252,-2038,52,24,49,-218,44,-262,87
,1537,2023-10-27 11:05:07.88,156,-244,-2034,49,27,46,-181,-7,-174,94
,1538,2023-10-27 11:05:07.89,158,-245,-2026,44,31,41,-217,40,-257,88
,1539,2023-10-27 11:05:07.90,159,-246,-2036,39,39,36,-188,-12,-176,100
,1540,2023-10-27 11:05:07.91,154,-255,-2036,36,40,33,-211,48,-259,81
,1541,2023-10-27 11:05:07.92,165,-258,-2042,36,39,32,-189,-16,-173,102
,1542,2023-10-27 11:05:07.93,155,-262,-2046,30,37,32,-215,49,-264,83
,1543,2023-10-27 11:05:07.94,145,-265,-2043,28,36,32,-207,-23,-184,115
,1544,2023-10-27 11:05:07.95,151,-264,-2050,23,38,34,-217,53,-270,82
,1545,2023-10-27 11:05:07.96,160,-264,-2044,21,35,37,-201,-20,-181,110
,1546,2023-10-27 11:05:07.97,152,-269,-2050,18,34,42,-204,67,-271,68
,1547,2023-10-27 11:05:07.98,159,-271,-2035,18,39,40,-196,-17,-179,106
,1548,2023-10-27 11:05:07.99,175,-264,-2030,16,45,44,-204,65,-269,69
,1549,2023-10-27 11:05:08.00,172,-277,-2037,21,55,46,-205,-28,-177,116
,1550,2023-10-27 11:05:08.01,152,-277,-2032,27,61,46,-200,59,-259,70
,1551,2023-10-27 11:05:08.02,179,-288,-2035,37,70,48,-202,-27,-175,114
,1552,2023-10-27 11:05:08.03,179,-283,-2028,49,86,53,-203,73,-276,65
,1553,2023-10-27 11:05:08.04,185,-312,-2011,73,109,50,-210,-26,-184,118
,1554,2023-10-27 11:05:08.05,193,-321,-2007,111,143,59,-196,80,-276,58
,1555,2023-10-27 11:05:08.06,170,-298,-2036,139,169,72,-207,-20,-187,113
,1556,2023-10-27 11:05:08.07,203,-373,-1932,187,180,78,-183,85,-268,49
,1557,2023-10-27 11:05:08.08,219,-375,-1818,297,217,84,-194,-19,-175,106
,1558,2023-10-27 11:05:08.09,216,-348,-1881,430,269,93,-163,106,-269,28
,1559,2023-10-27 11:05:08.10,208,-387,-1921,536,296,100,-180,-2,-178,91
,1560,2023-10-27 11:05:08.11,241,-413,-1885,627,345,113,-150,120,-270,15
,1561,2023-10-27 11:05:08.12,268,-442,-1885,738,414,126,-177,2,-179,87
,1562,2023-10-27 11:05:08.13,276,-465,-1861,865,500,128,-138,130,-268,4
,1563,2023-10-27 11:05:08.14,281,-502,-1884,986,593,127,-170,15,-185,77
,1564,2023-10-27 11:05:08.15,310,-481,-1776,1125,684,118,-126,150,-276,-12
,1565,2023-10-27 11:05:08.16,261,-445,-1687,1316,737,103,-169,20,-189,74
,1566,2023-10-27 11:05:08.17,299,-506,-1836,1482,779,99,-108,163,-271,-27
,1567,2023-10-27 11:05:08.18,279,-494,-1925,1561,796,84,-156,26,-182,65
,1568,2023-10-27 11:05:08.19,279,-443,-2023,1592,826,75,-103,157,-260,-27
,1569,2023-10-27 11:05:08.20,244,-386,-2078,1588,825,47,-169,1,-170,84
,1570,2023-10-27 11:05:08.21,220,-361,-2143,1517,783,28,-132,120,-252,6
,1571,2023-10-27 11:05:08.22,195,-386,-2238,1379,714,13,-216,-46,-170,131
,1572,2023-10-27 11:05:08.23,191,-392,-2326,1195,626,7,-173,67,-240,53
,1573,2023-10-27 11:05:08.24,187,-441,-2375,999,505,15,-243,-91,-152,167
,1574,2023-10-27 11:05:08.25,199,-472,-2372,805,379,30,-180,28,-208,76
,1575,2023-10-27 11:05:08.26,231,-513,-2334,624,250,44,-257,-118,-139,187
,1576,2023-10-27 11:05:08.27,245,-558,-2245,448,159,54,-188,18,-206,85
,1577,2023-10-27 11:05:08.28,258,-615,-2155,293,63,66,-261,-122,-139,191
,1578,2023-10-27 11:05:08.29,320,-626,-2097,158,2,70,-190,26,-216,82
,1579,2023-10-27 11:05:08.30,344,-622,-2029,43,-46,75,-255,-110,-145,182
,1580,2023-10-27 11:05:08.31,344,-647,-1981,-55,-78,77,-172,38,-210,67
,1581,2023-10-27 11:05:08.32,367,-652,-1932,-143,-85,89,-242,-99,-143,170
,1582,2023-10-27 11:05:08.33,392,-658,-1905,-211,-63,91,-152,71,-223,40
,1583,2023-10-27 11:05:08.34,391,-655,-1899,-276,-40,86,-222,-73,-149,147
,1584,2023-10-27 11:05:08.35,366,-666,-1918,-356,-28,86,-140,85,-225,27
,1585,2023-10-27 11:05:08.36,352,-658,-1952,-453,-26,97,-219,-55,-164,137
,1586,2023-10-27 11:05:08.37,367,-631,-1982,-539,-35,115,-125,113,-238,6
,1587,2023-10-27 11:05:08.38,351,-641,-2005,-603,-66,132,-216,-43,-173,129
,1588,2023-10-27 11:05:08.39,368,-653,-2012,-661,-99,152,-119,124,-243,-2
,1589,2023-10-27 11:05:08.40,353,-628,-1974,-712,-133,170,-213,-43,-170,128
,1590,2023-10-27 11:05:08.41,396,-634,-1970,-769,-156,190,-109,120,-229,-5
,1591,2023-10-27 11:05:08.42,379,-629,-1946,-821,-154,200,-226,-47,-179,136
,1592,2023-10-27 11:05:08.43,387,-625,-1928,-853,-149,215,-134,116,-250,9
,1593,2023-10-27 11:05:08.44,381,-622,-1938,-880,-144,228,-245,-57,-188,151
,1594,2023-10-27 11:05:08.45,363,-634,-1931,-895,-155,244,-128,114,-242,7
,1595,2023-10-27 11:05:08.46,391,-623,-1933,-899,-147,261,-239,-56,-183,147
,1596,2023-10-27 11:05:08.47,364,-612,-1936,-896,-140,276,-121,121,-242,0
,1597,2023-10-27 11:05:08.48,385,-599,-1943,-885,-140,296,-236,-55,-181,145
,1598,2023-10-27 11:05:08.49,365,-572,-1953,-879,-135,312,-122,127,-249,-2
,1599,2023-10-27 11:05:08.50,361,-552,-1942,-871,-136,332,-248,-53,-195,150
,1600,2023-10-27 11:05:08.51,391,-533,-1923,-848,-129,346,-137,105,-242,16
,1601,2023-10-27 11:05:08.52,389,-533,-1897,-817,-112,354,-269,-74,-195,171
,1602,2023-10-27 11:05:08.53,376,-532,-1900,-770,-93,357,-149,107,-256,21
,1603,2023-10-27 11:05:08.54,384,-505,-1914,-727,-68,357,-265,-71,-194,168
,1604,2023-10-27 11:05:08.55,385,-492,-1945,-678,-52,361,-128,111,-239,8
,1605,2023-10-27 11:05:08.56,379,-478,-1969,-631,-33,359,-264,-67,-197,165
,1606,2023-10-27 11:05:08.57,396,-455,-1987,-583,-10,352,-144,106,-250,19
,1607,2023-10-27 11:05:08.58,388,-429,-1976,-527,11,344,-282,-74,-208,178
,1608,2023-10-27 11:05:08.59,382,-397,-1977,-466,29,332,-142,111,-253,15
,1609,2023-10-27 11:05:08.60,379,-354,-1974,-416,44,315,-268,-58,-210,163
,1610,2023-10-27 11:05:08.61,389,-390,-1927,-354,73,289,-122,121,-243,0
,1611,2023-10-27 11:05:08.62,396,-355,-1940,-293,105,264,-265,-74,-191,169
,1612,2023-10-27 11:05:08.63,363,-356,-1884,-225,110,236,-144,97,-241,23
,1613,2023-10-27 11:05:08.64,360,-345,-1912,-102,71,218,-286,-77,-209,181
,1614,2023-10-27 11:05:08.65,387,-315,-2045,12,36,207,-113,121,-234,-4
,1615,2023-10-27 11:05:08.66,378,-295,-2024,83,61,185,-213,-22,-191,117
,1616,2023-10-27 11:05:08.67,354,-290,-1986,137,101,162,-45,186,-231,-70
,1617,2023-10-27 11:05:08.68,379,-297,-1964,187,118,145,-151,32,-183,59
,1618,2023-10-27 11:05:08.69,351,-301,-1971,236,131,126,36,224,-188,-130
,1619,2023-10-27 11:05:08.70,353,-296,-1984,291,131,107,-91,49,-140,21
,1620,2023-10-27 11:05:08.71,338,-302,-2042,320,119,94,64,227,-163,-145
,1621,2023-10-27 11:05:08.72,344,-293,-2088,318,81,94,-92,42,-134,25
,1622,2023-10-27 11:05:08.73,350,-268,-2116,300,58,97,61,214,-153,-137
,1623,2023-10-27 11:05:08.74,350,-286,-2091,273,49,93,-122,9,-131,56
,1624,2023-10-27 11:05:08.75,329,-325,-2102,243,37,99,1,163,-162,-82
,1625,2023-10-27 11:05:08.76,337,-339,-2089,209,12,109,-186,-46,-140,116
,1626,2023-10-27 11:05:08.77,342,-343,-2083,183,-20,118,-42,129,-171,-43
,1627,2023-10-27 11:05:08.78,339,-324,-2070,164,-47,125,-230,-64,-166,147
,1628,2023-10-27 11:05:08.79,321,-295,-2077,130,-66,129,-106,93,-199,6
,1629,2023-10-27 11:05:08.80,309,-259,-2072,58,-85,133,-294,-99,-195,196
,1630,2023-10-27 11:05:08.81,327,-263,-2121,-40,-100,145,-176,45,-221,65
,1631,2023-10-27 11:05:08.82,296,-323,-2084,-108,-135,148,-347,-141,-206,244
,1632,2023-10-27 11:05:08.83,296,-319,-2065,-125,-158,148,-206,10,-216,98
,1633,2023-10-27 11:05:08.84,338,-329,-2048,-136,-160,144,-388,-165,-223,276
,1634,2023-10-27 11:05:08.85,321,-349,-2023,-158,-168,144,-258,-17,-241,137
,1635,2023-10-27 11:05:08.86,312,-357,-2039,-182,-182,148,-433,-187,-246,310
,1636,2023-10-27 11:05:08.87,312,-359,-2061,-195,-182,153,-300,-48,-252,174
,1637,2023-10-27 11:05:08.88,313,-334,-2058,-194,-178,156,-459,-208,-251,333
,1638,2023-10-27 11:05:08.89,324,-329,-2039,-192,-171,157,-303,-56,-247,179
,1639,2023-10-27 11:05:08.90,310,-314,-2037,-200,-164,157,-456,-196,-260,326
,1640,2023-10-27 11:05:08.91,301,-319,-2018,-206,-154,154,-295,-33,-262,164
,1641,2023-10-27 11:05:08.92,287,-343,-1995,-195,-142,154,-435,-164,-271,299
,1642,2023-10-27 11:05:08.93,287,-356,-1981,-167,-135,152,-270,-6,-264,138
,1643,2023-10-27 11:05:08.94,265,-359,-1964,-127,-146,155,-400,-130,-270,265
,1644,2023-10-27 11:05:08.95,275,-346,-1959,-90,-139,150,-220,28,-248,96
,1645,2023-10-27 11:05:08.96,274,-331,-1943,-54,-114,144,-354,-89,-265,221
,1646,2023-10-27 11:05:08.97,260,-356,-1962,-13,-105,136,-186,66,-252,60
,1647,2023-10-27 11:05:08.98,256,-345,-2005,25,-107,134,-324,-58,-266,191
,1648,2023-10-27 11:05:08.99,246,-335,-2015,57,-97,127,-159,77,-236,41
,1649,2023-10-27 11:05:09.00,232,-323,-2043,78,-89,120,-290,-34,-256,162
,1650,2023-10-27 11:05:09.01,223,-321,-2039,90,-90,121,-112,122,-234,-5
,1651,2023-10-27 11:05:09.02,243,-321,-2040,100,-91,116,-238,14,-252,112
,1652,2023-10-27 11:05:09.03,251,-349,-2024,111,-91,121,-79,139,-218,-30
,1653,2023-10-27 11:05:09.04,217,-302,-2020,124,-81,107,-225,15,-240,105
,1654,2023-10-27 11:05:09.05,234,-276,-2006,103,-86,109,-86,128,-214,-21
,1655,2023-10-27 11:05:09.06,229,-274,-2044,60,-80,100,-238,9,-247,114
,1656,2023-10-27 11:05:09.07,209,-275,-2043,19,-78,96,-94,120,-214,-13
,1657,2023-10-27 11:05:09.08,231,-267,-2041,2,-89,90,-234,11,-245,111
,1658,2023-10-27 11:05:09.09,209,-272,-2029,-20,-86,80,-87,112,-199,-12
,1659,2023-10-27 11:05:09.10,207,-271,-2022,-49,-105,76,-219,12,-231,103
,1660,2023-10-27 11:05:09.11,221,-263,-1999,-72,-117,69,-73,119,-192,-23
,1661,2023-10-27 11:05:09.12,203,-279,-1979,-86,-110,61,-208,22,-230,93
,1662,2023-10-27 11:05:09.13,205,-297,-1983,-76,-132,54,-63,125,-188,-31
,1663,2023-10-27 11:05:09.14,189,-305,-1979,-60,-145,58,-187,34,-221,76
,1664,2023-10-27 11:05:09.15,189,-288,-1999,-47,-156,63,-58,114,-172,-28
,1665,2023-10-27 11:05:09.16,208,-287,-2038,-47,-149,65,-192,30,-222,81
,1666,2023-10-27 11:05:09.17,201,-263,-2056,-72,-129,66,-67,111,-178,-22
,1667,2023-10-27 11:05:09.18,191,-281,-2059,-93,-119,63,-196,34,-230,81
,1668,2023-10-27 11:05:09.19,200,-283,-2042,-101,-102,63,-74,103,-177,-14
,1669,2023-10-27 11:05:09.20,193,-291,-2037,-95,-83,55,-204,29,-233,87
,1670,2023-10-27 11:05:09.21,178,-287,-2022,-81,-69,51,-73,112,-185,-19
,1671,2023-10-27 11:05:09.22,230,-295,-1993,-61,-60,45,-213,24,-237,94
,1672,2023-10-27 11:05:09.23,228,-363,-2027,-38,-35,41,-102,83,-185,9
,1673,2023-10-27 11:05:09.24,154,-286,-2009,1,-14,32,-245,2,-247,121
,1674,2023-10-27 11:05:09.25,182,-308,-2059,20,-8,34,-135,61,-196,37
,1675,2023-10-27 11:05:09.26,205,-315,-2061,12,-26,40,-256,-20,-236,138
,1676,2023-10-27 11:05:09.27,198,-296,-2028,14,-11,41,-133,37,-170,48
,1677,2023-10-27 11:05:09.28,214,-307,-1993,41,8,21,-261,-29,-232,145
,1678,2023-10-27 11:05:09.29,243,-338,-1950,63,39,9,-150,32,-182,59
,1679,2023-10-27 11:05:09.30,265,-339,-1940,91,79,-13,-275,-24,-251,149
,1680,2023-10-27 11:05:09.31,262,-343,-1957,123,133,-38,-174,27,-201,73
,1681,2023-10-27 11:05:09.32,233,-342,-1980,152,160,-66,-300,-39,-261,169
,1682,2023-10-27 11:05:09.33,213,-322,-2038,173,171,-84,-193,0,-193,96
,1683,2023-10-27 11:05:09.34,190,-307,-2060,177,155,-97,-308,-55,-253,181
,1684,2023-10-27 11:05:09.35,197,-318,-2067,181,121,-99,-202,-15,-187,108
