// Data mode  : Full
// Data quality  : High
// Acceleration sensor's range  : 16g
// Gyroscope sensor's range  : 2000dps
//
//ARTIFACT,NUM,DATE,ACC_X,ACC_Y,ACC_Z,GYRO_X,GYRO_Y,GYRO_Z,EOG_L,EOG_R,EOG_H,EOG_V
,1,2023-10-27 11:18:19.45,83,-117,-2038,33,-35,41,-281,-367,86,324
,2,2023-10-27 11:18:19.46,102,-118,-2056,30,-27,30,-444,-514,70,479
,3,2023-10-27 11:18:19.47,90,-103,-2066,24,-26,19,-280,-361,81,320
,4,2023-10-27 11:18:19.48,94,-101,-2053,16,-20,10,-441,-519,78,480
,5,2023-10-27 11:18:19.49,75,-106,-2061,8,-22,2,-273,-376,103,324
,6,2023-10-27 11:18:19.50,89,-97,-2087,10,-56,3,-442,-546,104,494
,7,2023-10-27 11:18:19.51,137,-129,-2073,1,-29,-6,-269,-421,152,345
,8,2023-10-27 11:18:19.52,93,-126,-2076,-13,13,-16,-439,-574,135,506
,9,2023-10-27 11:18:19.53,105,-162,-2072,-13,11,-17,-274,-417,143,345
,10,2023-10-27 11:18:19.54,111,-152,-2052,-10,36,-19,-450,-565,115,507
,11,2023-10-27 11:18:19.55,87,-164,-2067,19,31,-19,-262,-418,156,340
,12,2023-10-27 11:18:19.56,100,-172,-2069,38,29,-17,-417,-556,139,486
,13,2023-10-27 11:18:19.57,91,-158,-2040,54,35,-14,-213,-354,141,283
,14,2023-10-27 11:18:19.58,95,-156,-2034,75,17,-9,-383,-480,97,431
,15,2023-10-27 11:18:19.59,103,-145,-2016,75,27,-13,-179,-291,112,235
,16,2023-10-27 11:18:19.60,80,-131,-2000,70,45,-15,-357,-445,88,401
,17,2023-10-27 11:18:19.61,74,-139,-1994,69,30,-12,-165,-282,117,223
,18,2023-10-27 11:18:19.62,105,-134,-1978,62,26,-8,-361,-446,85,403
,19,2023-10-27 11:18:19.63,81,-134,-1947,57,36,-13,-173,-278,105,225
,20,2023-10-27 11:18:19.64,70,-137,-1933,54,22,-11,-357,-426,69,391
,21,2023-10-27 11:18:19.65,91,-149,-1938,48,24,-6,-111,-210,99,160
,22,2023-10-27 11:18:19.66,99,-146,-1950,31,61,-10,-273,-316,43,294
,23,2023-10-27 11:18:19.67,73,-136,-1930,18,67,-14,-115,-165,50,140
,24,2023-10-27 11:18:19.68,86,-131,-1945,22,46,-6,-337,-351,14,344
,25,2023-10-27 11:18:19.69,79,-145,-1973,25,37,-4,-159,-216,57,187
,26,2023-10-27 11:18:19.70,81,-169,-2028,19,40,-1,-368,-409,41,388
,27,2023-10-27 11:18:19.71,60,-182,-2064,31,13,8,-166,-257,91,211
,28,2023-10-27 11:18:19.72,89,-158,-2093,30,4,20,-374,-443,69,408
,29,2023-10-27 11:18:19.73,84,-180,-2117,14,24,22,-189,-308,119,248
,30,2023-10-27 11:18:19.74,68,-186,-2149,4,9,34,-391,-478,87,434
,31,2023-10-27 11:18:19.75,55,-188,-2160,-4,-7,47,-199,-317,118,258
,32,2023-10-27 11:18:19.76,80,-198,-2184,2,-25,62,-388,-475,87,431
,33,2023-10-27 11:18:19.77,73,-191,-2179,5,-41,74,-191,-315,124,253
,34,2023-10-27 11:18:19.78,79,-175,-2156,-3,-44,85,-386,-472,86,429
,35,2023-10-27 11:18:19.79,91,-164,-2136,-15,-35,91,-186,-312,126,249
,36,2023-10-27 11:18:19.80,91,-146,-2127,-28,-22,91,-388,-480,92,434
,37,2023-10-27 11:18:19.81,90,-145,-2107,-39,-6,87,-201,-342,141,271
,38,2023-10-27 11:18:19.82,98,-135,-2086,-45,9,76,-396,-492,96,444
,39,2023-10-27 11:18:19.83,100,-127,-2050,-48,26,63,-192,-321,129,256
,40,2023-10-27 11:18:19.84,90,-126,-2045,-45,38,48,-383,-455,72,419
,41,2023-10-27 11:18:19.85,85,-106,-2035,-40,38,29,-190,-298,108,244
,42,2023-10-27 11:18:19.86,79,-111,-2019,-24,20,12,-388,-455,67,421
,43,2023-10-27 11:18:19.87,111,-103,-2008,-6,11,3,-193,-309,116,251
,44,2023-10-27 11:18:19.88,99,-101,-1998,-3,18,-16,-387,-488,101,437
,45,2023-10-27 11:18:19.89,90,-95,-1996,-14,28,-34,-198,-378,180,288
,46,2023-10-27 11:18:19.90,101,-107,-2014,-27,43,-52,-393,-534,141,463
,47,2023-10-27 11:18:19.91,83,-113,-2027,-24,42,-61,-207,-388,181,297
,48,2023-10-27 11:18:19.92,87,-113,-2031,-16,25,-65,-397,-514,117,455
,49,2023-10-27 11:18:19.93,84,-128,-2014,-10,16,-68,-217,-369,152,293
,50,2023-10-27 11:18:19.94,101,-133,-2031,-7,-1,-67,-403,-527,124,465
,51,2023-10-27 11:18:19.95,120,-149,-2035,-4,-2,-60,-220,-417,197,318
,52,2023-10-27 11:18:19.96,95,-149,-2054,-6,20,-56,-407,-549,142,478
,53,2023-10-27 11:18:19.97,101,-145,-2062,-6,24,-51,-227,-409,182,318
,54,2023-10-27 11:18:19.98,87,-165,-2067,-7,24,-41,-409,-528,119,468
,55,2023-10-27 11:18:19.99,100,-157,-2085,-9,18,-27,-227,-392,165,309
,56,2023-10-27 11:18:20.00,98,-160,-2096,-7,24,-16,-408,-516,108,462
,57,2023-10-27 11:18:20.01,104,-148,-2098,-6,19,-10,-235,-384,149,309
,58,2023-10-27 11:18:20.02,110,-134,-2085,-14,23,-3,-415,-521,106,468
,59,2023-10-27 11:18:20.03,105,-131,-2070,-17,23,0,-242,-408,166,325
,60,2023-10-27 11:18:20.04,115,-129,-2060,-15,6,4,-404,-522,118,463
,61,2023-10-27 11:18:20.05,132,-131,-2061,-11,19,8,-224,-381,157,302
,62,2023-10-27 11:18:20.06,117,-133,-2052,-17,38,7,-407,-516,109,461
,63,2023-10-27 11:18:20.07,118,-136,-2044,-19,45,5,-242,-416,174,329
,64,2023-10-27 11:18:20.08,128,-149,-2053,-13,48,11,-406,-540,134,473
,65,2023-10-27 11:18:20.09,135,-150,-2048,-1,46,17,-230,-416,186,323
,66,2023-10-27 11:18:20.10,124,-147,-2047,8,40,25,-392,-514,122,453
,67,2023-10-27 11:18:20.11,135,-144,-2058,14,33,32,-241,-400,159,320
,68,2023-10-27 11:18:20.12,126,-136,-2054,13,48,35,-392,-490,98,441
,69,2023-10-27 11:18:20.13,129,-129,-2054,15,45,38,-237,-381,144,309
,70,2023-10-27 11:18:20.14,114,-138,-2058,11,34,43,-393,-475,82,434
,71,2023-10-27 11:18:20.15,113,-130,-2060,10,25,48,-242,-374,132,308
,72,2023-10-27 11:18:20.16,111,-127,-2068,9,9,52,-389,-468,79,428
,73,2023-10-27 11:18:20.17,123,-123,-2056,5,-1,53,-245,-376,131,310
,74,2023-10-27 11:18:20.18,126,-128,-2054,-3,-5,55,-400,-489,89,444
,75,2023-10-27 11:18:20.19,120,-124,-2059,-5,-9,54,-268,-420,152,344
,76,2023-10-27 11:18:20.20,118,-118,-2059,-6,-11,51,-407,-519,112,463
,77,2023-10-27 11:18:20.21,126,-127,-2056,-6,-19,50,-271,-440,169,355
,78,2023-10-27 11:18:20.22,134,-119,-2060,-3,-21,46,-401,-514,113,457
,79,2023-10-27 11:18:20.23,118,-116,-2067,-2,-26,40,-269,-430,161,349
,80,2023-10-27 11:18:20.24,118,-127,-2072,1,-28,34,-396,-492,96,444
,81,2023-10-27 11:18:20.25,123,-132,-2071,5,-35,33,-269,-418,149,343
,82,2023-10-27 11:18:20.26,112,-133,-2062,13,-39,33,-400,-539,139,469
,83,2023-10-27 11:18:20.27,116,-126,-2060,18,-39,33,-284,-505,221,394
,84,2023-10-27 11:18:20.28,108,-142,-2063,21,-40,33,-402,-560,158,481
,85,2023-10-27 11:18:20.29,115,-146,-2060,21,-38,34,-283,-469,186,376
,86,2023-10-27 11:18:20.30,100,-145,-2051,23,-39,38,-392,-502,110,447
,87,2023-10-27 11:18:20.31,114,-144,-2053,23,-33,41,-278,-432,154,355
,88,2023-10-27 11:18:20.32,104,-143,-2049,15,-21,45,-384,-476,92,430
,89,2023-10-27 11:18:20.33,108,-138,-2048,16,-16,50,-284,-421,137,352
,90,2023-10-27 11:18:20.34,101,-147,-2051,12,-11,51,-376,-480,104,428
,91,2023-10-27 11:18:20.35,102,-133,-2048,12,-11,52,-278,-445,167,361
,92,2023-10-27 11:18:20.36,107,-135,-2045,10,-1,51,-369,-473,104,421
,93,2023-10-27 11:18:20.37,96,-150,-2067,9,1,50,-280,-419,139,349
,94,2023-10-27 11:18:20.38,99,-126,-2045,6,-3,53,-373,-446,73,409
,95,2023-10-27 11:18:20.39,116,-130,-2040,8,2,49,-290,-414,124,352
,96,2023-10-27 11:18:20.40,110,-131,-2045,6,9,44,-367,-437,70,402
,97,2023-10-27 11:18:20.41,106,-129,-2050,0,16,40,-290,-412,122,351
,98,2023-10-27 11:18:20.42,103,-131,-2057,-7,18,37,-371,-452,81,411
,99,2023-10-27 11:18:20.43,104,-137,-2059,-5,20,34,-302,-446,144,374
,100,2023-10-27 11:18:20.44,101,-135,-2056,-2,14,32,-373,-474,101,423
,101,2023-10-27 11:18:20.45,99,-128,-2052,-5,14,32,-312,-465,153,388
,102,2023-10-27 11:18:20.46,97,-132,-2065,-9,13,31,-375,-480,105,427
,103,2023-10-27 11:18:20.47,111,-129,-2058,-12,8,28,-326,-478,152,402
,104,2023-10-27 11:18:20.48,112,-122,-2054,-10,7,24,-383,-478,95,430
,105,2023-10-27 11:18:20.49,112,-120,-2043,-10,3,21,-337,-475,138,406
,106,2023-10-27 11:18:20.50,95,-117,-2049,-18,9,19,-370,-456,86,413
,107,2023-10-27 11:18:20.51,106,-118,-2064,-22,11,18,-318,-449,131,383
,108,2023-10-27 11:18:20.52,100,-124,-2057,-20,11,17,-342,-424,82,383
,109,2023-10-27 11:18:20.53,113,-129,-2059,-19,8,16,-300,-426,126,363
,110,2023-10-27 11:18:20.54,115,-131,-2055,-15,6,18,-327,-398,71,362
,111,2023-10-27 11:18:20.55,103,-128,-2062,-17,6,15,-294,-409,115,351
,112,2023-10-27 11:18:20.56,103,-127,-2063,-16,-1,17,-321,-376,55,348
,113,2023-10-27 11:18:20.57,117,-113,-2064,-14,-10,21,-302,-397,95,349
,114,2023-10-27 11:18:20.58,111,-116,-2056,-10,-18,20,-316,-368,52,342
,115,2023-10-27 11:18:20.59,97,-122,-2063,-10,-24,18,-302,-402,100,352
,116,2023-10-27 11:18:20.60,107,-124,-2062,-9,-28,19,-305,-364,59,334
,117,2023-10-27 11:18:20.61,105,-129,-2056,-4,-28,22,-308,-409,101,358
,118,2023-10-27 11:18:20.62,88,-136,-2054,1,-31,19,-320,-391,71,355
,119,2023-10-27 11:18:20.63,110,-134,-2055,3,-33,23,-323,-445,122,384
,120,2023-10-27 11:18:20.64,97,-121,-2050,3,-33,24,-321,-396,75,358
,121,2023-10-27 11:18:20.65,101,-127,-2051,7,-30,25,-331,-440,109,385
,122,2023-10-27 11:18:20.66,100,-119,-2057,8,-27,25,-314,-388,74,351
,123,2023-10-27 11:18:20.67,104,-124,-2059,5,-29,27,-325,-441,116,383
,124,2023-10-27 11:18:20.68,92,-117,-2059,3,-30,29,-304,-376,72,340
,125,2023-10-27 11:18:20.69,87,-111,-2067,1,-37,31,-330,-434,104,382
,126,2023-10-27 11:18:20.70,87,-106,-2069,2,-47,30,-311,-370,59,340
,127,2023-10-27 11:18:20.71,77,-112,-2060,1,-52,30,-344,-434,90,389
,128,2023-10-27 11:18:20.72,92,-117,-2055,0,-57,31,-309,-362,53,335
,129,2023-10-27 11:18:20.73,85,-99,-2048,-3,-54,26,-345,-432,87,388
,130,2023-10-27 11:18:20.74,86,-110,-2047,-5,-45,21,-300,-357,57,328
,131,2023-10-27 11:18:20.75,94,-114,-2044,-5,-41,16,-342,-433,91,387
,132,2023-10-27 11:18:20.76,85,-109,-2041,-4,-33,13,-285,-345,60,315
,133,2023-10-27 11:18:20.77,89,-113,-2047,0,-27,9,-336,-428,92,382
,134,2023-10-27 11:18:20.78,89,-119,-2046,3,-17,6,-285,-348,63,316
,135,2023-10-27 11:18:20.79,96,-116,-2046,9,-11,4,-347,-441,94,394
,136,2023-10-27 11:18:20.80,81,-118,-2051,12,-10,2,-284,-359,75,321
,137,2023-10-27 11:18:20.81,73,-119,-2054,15,-1,3,-349,-455,106,402
,138,2023-10-27 11:18:20.82,75,-107,-2057,17,-1,2,-274,-363,89,318
,139,2023-10-27 11:18:20.83,85,-114,-2064,18,0,2,-345,-458,113,401
,140,2023-10-27 11:18:20.84,77,-113,-2065,17,-3,2,-265,-375,110,320
,141,2023-10-27 11:18:20.85,78,-124,-2068,13,-9,5,-355,-498,143,426
,142,2023-10-27 11:18:20.86,70,-128,-2059,9,-9,8,-289,-467,178,378
,143,2023-10-27 11:18:20.87,72,-129,-2057,8,-12,13,-373,-584,211,478
,144,2023-10-27 11:18:20.88,82,-125,-2054,4,-14,18,-285,-491,206,388
,145,2023-10-27 11:18:20.89,79,-126,-2053,0,-14,20,-371,-569,198,470
,146,2023-10-27 11:18:20.90,79,-128,-2048,0,-13,21,-273,-448,175,360
,147,2023-10-27 11:18:20.91,78,-118,-2050,0,-16,29,-372,-538,166,455
,148,2023-10-27 11:18:20.92,77,-117,-2047,0,-16,28,-283,-462,179,372
,149,2023-10-27 11:18:20.93,78,-122,-2050,-3,-12,26,-393,-580,187,486
,150,2023-10-27 11:18:20.94,62,-119,-2058,-5,-8,25,-282,-465,183,373
,151,2023-10-27 11:18:20.95,62,-119,-2058,-5,-11,25,-390,-558,168,474
,152,2023-10-27 11:18:20.96,83,-123,-2058,-4,-10,24,-272,-416,144,344
,153,2023-10-27 11:18:20.97,61,-111,-2049,-2,-7,26,-389,-517,128,453
,154,2023-10-27 11:18:20.98,81,-117,-2054,-3,-8,22,-265,-377,112,321
,155,2023-10-27 11:18:20.99,73,-114,-2055,-1,-4,22,-393,-511,118,452
,156,2023-10-27 11:18:21.00,78,-111,-2057,1,-1,16,-275,-425,150,350
,157,2023-10-27 11:18:21.01,82,-113,-2061,3,-1,15,-403,-565,162,484
,158,2023-10-27 11:18:21.02,77,-107,-2061,7,-5,13,-263,-417,154,340
,159,2023-10-27 11:18:21.03,84,-109,-2054,9,-6,10,-400,-548,148,474
,160,2023-10-27 11:18:21.04,87,-117,-2055,11,-6,7,-280,-466,186,373
,161,2023-10-27 11:18:21.05,94,-114,-2057,12,-5,5,-414,-607,193,510
,162,2023-10-27 11:18:21.06,86,-112,-2053,12,-4,2,-258,-451,193,354
,163,2023-10-27 11:18:21.07,88,-117,-2051,13,-2,1,-397,-553,156,475
,164,2023-10-27 11:18:21.08,87,-117,-2054,13,2,0,-247,-396,149,321
,165,2023-10-27 11:18:21.09,88,-131,-2052,14,4,1,-396,-528,132,462
,166,2023-10-27 11:18:21.10,90,-132,-2060,18,4,6,-242,-375,133,308
,167,2023-10-27 11:18:21.11,87,-120,-2052,17,3,10,-396,-512,116,454
,168,2023-10-27 11:18:21.12,87,-122,-2052,19,6,11,-241,-350,109,295
,169,2023-10-27 11:18:21.13,89,-118,-2052,18,9,14,-397,-488,91,442
,170,2023-10-27 11:18:21.14,83,-122,-2058,16,8,15,-234,-333,99,283
,171,2023-10-27 11:18:21.15,83,-126,-2062,11,9,18,-397,-486,89,441
,172,2023-10-27 11:18:21.16,78,-128,-2060,15,5,19,-220,-326,106,273
,173,2023-10-27 11:18:21.17,87,-128,-2057,16,0,24,-385,-478,93,431
,174,2023-10-27 11:18:21.18,80,-124,-2060,16,-2,24,-221,-324,103,272
,175,2023-10-27 11:18:21.19,105,-119,-2068,8,3,25,-395,-483,88,439
,176,2023-10-27 11:18:21.20,68,-132,-2044,-2,30,19,-218,-323,105,270
,177,2023-10-27 11:18:21.21,80,-119,-2071,7,-14,27,-396,-477,81,436
,178,2023-10-27 11:18:21.22,86,-126,-2067,16,-12,29,-219,-314,95,266
,179,2023-10-27 11:18:21.23,85,-118,-2053,16,-13,29,-402,-490,88,446
,180,2023-10-27 11:18:21.24,86,-125,-2046,6,1,28,-225,-352,127,288
,181,2023-10-27 11:18:21.25,87,-117,-2056,1,-5,27,-408,-532,124,470
,182,2023-10-27 11:18:21.26,86,-124,-2051,6,-9,28,-225,-393,168,309
,183,2023-10-27 11:18:21.27,79,-113,-2053,8,-10,28,-406,-550,144,478
,184,2023-10-27 11:18:21.28,70,-117,-2054,6,-12,24,-215,-371,156,293
,185,2023-10-27 11:18:21.29,68,-116,-2058,4,-14,24,-415,-523,108,469
,186,2023-10-27 11:18:21.30,89,-117,-2076,-2,-8,21,-234,-354,120,294
,187,2023-10-27 11:18:21.31,57,-123,-2056,1,-12,20,-426,-518,92,472
,188,2023-10-27 11:18:21.32,81,-128,-2051,6,-36,20,-225,-338,113,281
,189,2023-10-27 11:18:21.33,79,-133,-2059,9,-26,21,-416,-497,81,456
,190,2023-10-27 11:18:21.34,77,-125,-2055,5,-21,19,-229,-332,103,280
,191,2023-10-27 11:18:21.35,57,-126,-2035,1,-15,18,-421,-508,87,464
,192,2023-10-27 11:18:21.36,74,-131,-2043,6,-27,22,-242,-370,128,306
,193,2023-10-27 11:18:21.37,72,-133,-2053,13,-21,27,-436,-551,115,493
,194,2023-10-27 11:18:21.38,77,-128,-2058,12,-11,28,-243,-401,158,322
,195,2023-10-27 11:18:21.39,67,-129,-2055,4,-5,28,-426,-560,134,493
,196,2023-10-27 11:18:21.40,65,-128,-2057,2,-13,35,-224,-400,176,312
,197,2023-10-27 11:18:21.41,77,-137,-2063,2,-11,39,-411,-546,135,478
,198,2023-10-27 11:18:21.42,72,-132,-2067,4,0,36,-209,-371,162,290
,199,2023-10-27 11:18:21.43,78,-125,-2057,2,-12,45,-408,-516,108,462
,200,2023-10-27 11:18:21.44,71,-123,-2056,0,-10,42,-215,-351,136,283
,201,2023-10-27 11:18:21.45,67,-119,-2057,4,-10,41,-419,-523,104,471
,202,2023-10-27 11:18:21.46,64,-123,-2063,1,-9,39,-228,-380,152,304
,203,2023-10-27 11:18:21.47,60,-118,-2060,0,-14,36,-420,-536,116,478
,204,2023-10-27 11:18:21.48,63,-116,-2059,3,-21,33,-214,-367,153,290
,205,2023-10-27 11:18:21.49,75,-117,-2059,0,-11,28,-401,-511,110,456
,206,2023-10-27 11:18:21.50,50,-111,-2051,-4,-17,26,-208,-349,141,278
,207,2023-10-27 11:18:21.51,77,-124,-2040,0,-23,23,-408,-498,90,453
,208,2023-10-27 11:18:21.52,65,-130,-2038,7,-21,19,-216,-341,125,278
,209,2023-10-27 11:18:21.53,64,-120,-2053,14,-12,17,-410,-489,79,449
,210,2023-10-27 11:18:21.54,55,-128,-2069,11,-18,19,-213,-327,114,270
,211,2023-10-27 11:18:21.55,68,-124,-2070,8,-19,21,-412,-491,79,451
,212,2023-10-27 11:18:21.56,76,-127,-2049,-1,4,17,-224,-358,134,291
,213,2023-10-27 11:18:21.57,43,-112,-2052,7,-9,19,-414,-506,92,460
,214,2023-10-27 11:18:21.58,77,-113,-2049,11,-13,20,-220,-348,128,284
,215,2023-10-27 11:18:21.59,68,-117,-2048,2,13,12,-413,-487,74,450
,216,2023-10-27 11:18:21.60,40,-117,-2064,-4,7,13,-222,-338,116,280
,217,2023-10-27 11:18:21.61,61,-125,-2058,0,-10,17,-408,-476,68,442
,218,2023-10-27 11:18:21.62,83,-117,-2078,1,-2,18,-217,-333,116,275
,219,2023-10-27 11:18:21.63,44,-131,-2044,-8,6,19,-409,-485,76,447
,220,2023-10-27 11:18:21.64,66,-127,-2050,-11,-15,26,-224,-356,132,290
,221,2023-10-27 11:18:21.65,62,-119,-2056,-13,-6,27,-416,-513,97,464
,222,2023-10-27 11:18:21.66,53,-113,-2043,-18,7,27,-233,-395,162,314
,223,2023-10-27 11:18:21.67,47,-109,-2042,-18,-4,29,-418,-549,131,483
,224,2023-10-27 11:18:21.68,68,-110,-2048,-23,-6,31,-234,-425,191,329
,225,2023-10-27 11:18:21.69,71,-114,-2061,-28,5,31,-408,-532,124,470
,226,2023-10-27 11:18:21.70,65,-116,-2053,-36,22,28,-238,-395,157,316
,227,2023-10-27 11:18:21.71,44,-115,-2061,-32,5,29,-422,-562,140,492
,228,2023-10-27 11:18:21.72,75,-107,-2051,-25,3,29,-261,-494,233,377
,229,2023-10-27 11:18:21.73,69,-108,-2057,-18,0,27,-428,-604,176,516
,230,2023-10-27 11:18:21.74,61,-109,-2052,-16,1,23,-249,-458,209,353
,231,2023-10-27 11:18:21.75,67,-105,-2063,-14,2,16,-417,-544,127,480
,232,2023-10-27 11:18:21.76,68,-102,-2077,-11,0,15,-237,-401,164,319
,233,2023-10-27 11:18:21.77,55,-105,-2052,-11,17,7,-404,-503,99,453
,234,2023-10-27 11:18:21.78,43,-102,-2058,-3,-4,5,-246,-393,147,319
,235,2023-10-27 11:18:21.79,70,-107,-2053,3,-7,5,-398,-492,94,445
,236,2023-10-27 11:18:21.80,64,-106,-2057,9,-3,0,-236,-377,141,306
,237,2023-10-27 11:18:21.81,71,-112,-2052,11,-5,-2,-395,-471,76,433
,238,2023-10-27 11:18:21.82,66,-108,-2055,9,0,-3,-235,-357,122,296
,239,2023-10-27 11:18:21.83,67,-117,-2053,11,-1,-2,-388,-448,60,418
,240,2023-10-27 11:18:21.84,63,-123,-2058,13,1,-3,-238,-345,107,291
,241,2023-10-27 11:18:21.85,65,-122,-2063,5,18,0,-391,-446,55,418
,242,2023-10-27 11:18:21.86,42,-117,-2057,1,11,5,-240,-360,120,300
,243,2023-10-27 11:18:21.87,71,-117,-2044,8,-2,15,-392,-448,56,420
,244,2023-10-27 11:18:21.88,60,-114,-2048,9,4,18,-254,-352,98,303
,245,2023-10-27 11:18:21.89,66,-112,-2048,6,9,18,-396,-434,38,415
,246,2023-10-27 11:18:21.90,68,-115,-2050,-6,16,22,-253,-348,95,300
,247,2023-10-27 11:18:21.91,60,-124,-2066,-7,19,24,-391,-428,37,409
,248,2023-10-27 11:18:21.92,67,-120,-2069,-4,15,26,-261,-354,93,307
,249,2023-10-27 11:18:21.93,67,-113,-2064,-8,21,28,-386,-428,42,407
,250,2023-10-27 11:18:21.94,55,-115,-2052,-8,15,29,-253,-355,102,304
,251,2023-10-27 11:18:21.95,72,-103,-2065,-8,12,32,-380,-419,39,399
,252,2023-10-27 11:18:21.96,51,-101,-2065,-4,5,29,-261,-355,94,308
,253,2023-10-27 11:18:21.97,73,-98,-2060,-3,-4,26,-387,-418,31,402
,254,2023-10-27 11:18:21.98,76,-97,-2061,-7,3,22,-276,-359,83,317
,255,2023-10-27 11:18:21.99,58,-99,-2040,-19,17,15,-396,-424,28,410
,256,2023-10-27 11:18:22.00,61,-98,-2048,-13,0,14,-287,-376,89,331
,257,2023-10-27 11:18:22.01,74,-94,-2056,-11,5,10,-389,-443,54,416
,258,2023-10-27 11:18:22.02,66,-101,-2043,-11,6,4,-282,-400,118,341
,259,2023-10-27 11:18:22.03,73,-95,-2047,-12,11,1,-389,-471,82,430
,260,2023-10-27 11:18:22.04,57,-99,-2047,-15,13,-2,-291,-435,144,363
,261,2023-10-27 11:18:22.05,68,-104,-2053,-11,13,-3,-384,-467,83,425
,262,2023-10-27 11:18:22.06,68,-105,-2051,-9,12,-4,-288,-415,127,351
,263,2023-10-27 11:18:22.07,76,-105,-2057,-5,11,-4,-378,-470,92,424
,264,2023-10-27 11:18:22.08,65,-103,-2056,-7,11,0,-286,-444,158,365
,265,2023-10-27 11:18:22.09,59,-115,-2061,-6,10,5,-366,-471,105,418
,266,2023-10-27 11:18:22.10,67,-120,-2064,0,8,8,-277,-421,144,349
,267,2023-10-27 11:18:22.11,64,-120,-2060,3,8,14,-365,-449,84,407
,268,2023-10-27 11:18:22.12,64,-119,-2065,4,12,20,-291,-422,131,356
,269,2023-10-27 11:18:22.13,68,-124,-2068,2,17,28,-355,-445,90,400
,270,2023-10-27 11:18:22.14,64,-115,-2057,1,15,32,-283,-424,141,353
,271,2023-10-27 11:18:22.15,76,-111,-2061,3,19,36,-346,-443,97,394
,272,2023-10-27 11:18:22.16,72,-105,-2051,2,16,37,-292,-436,144,364
,273,2023-10-27 11:18:22.17,71,-101,-2054,-1,14,40,-346,-428,82,387
,274,2023-10-27 11:18:22.18,64,-85,-2063,-3,11,40,-292,-416,124,354
,275,2023-10-27 11:18:22.19,65,-87,-2063,-7,2,37,-337,-409,72,373
,276,2023-10-27 11:18:22.20,72,-84,-2064,-9,-7,33,-286,-406,120,346
,277,2023-10-27 11:18:22.21,63,-85,-2061,-12,-12,29,-331,-407,76,369
,278,2023-10-27 11:18:22.22,61,-83,-2060,-13,-16,23,-292,-417,125,354
,279,2023-10-27 11:18:22.23,64,-90,-2054,-13,-21,18,-326,-397,71,361
,280,2023-10-27 11:18:22.24,66,-98,-2061,-8,-23,16,-296,-402,106,349
,281,2023-10-27 11:18:22.25,62,-99,-2058,-3,-28,13,-319,-373,54,346
,282,2023-10-27 11:18:22.26,71,-104,-2049,0,-24,9,-295,-396,101,345
,283,2023-10-27 11:18:22.27,76,-111,-2049,5,-19,7,-317,-366,49,341
,284,2023-10-27 11:18:22.28,63,-115,-2054,9,-10,9,-304,-399,95,351
,285,2023-10-27 11:18:22.29,68,-107,-2051,9,-3,10,-331,-401,70,366
,286,2023-10-27 11:18:22.30,65,-108,-2052,8,9,13,-324,-452,128,388
,287,2023-10-27 11:18:22.31,58,-119,-2062,6,14,14,-332,-412,80,372
,288,2023-10-27 11:18:22.32,57,-111,-2056,4,18,19,-335,-441,106,388
,289,2023-10-27 11:18:22.33,67,-108,-2058,6,16,22,-343,-397,54,370
,290,2023-10-27 11:18:22.34,49,-106,-2066,5,13,25,-350,-445,95,397
,291,2023-10-27 11:18:22.35,56,-100,-2062,4,6,26,-344,-390,46,367
,292,2023-10-27 11:18:22.36,66,-95,-2071,5,3,28,-358,-440,82,399
,293,2023-10-27 11:18:22.37,53,-87,-2052,4,-7,24,-346,-382,36,364
,294,2023-10-27 11:18:22.38,63,-84,-2062,1,-11,23,-360,-439,79,399
,295,2023-10-27 11:18:22.39,61,-93,-2061,-3,-15,19,-332,-372,40,352
,296,2023-10-27 11:18:22.40,63,-90,-2052,-7,-21,11,-355,-432,77,393
,297,2023-10-27 11:18:22.41,53,-91,-2049,-8,-27,10,-327,-366,39,346
,298,2023-10-27 11:18:22.42,56,-90,-2040,-11,-24,6,-369,-437,68,403
,299,2023-10-27 11:18:22.43,61,-91,-2042,-14,-14,4,-336,-366,30,351
,300,2023-10-27 11:18:22.44,60,-91,-2041,-16,-6,0,-373,-441,68,407
,301,2023-10-27 11:18:22.45,73,-93,-2041,-14,2,-1,-324,-362,38,343
,302,2023-10-27 11:18:22.46,64,-100,-2046,-13,10,-4,-372,-445,73,408
,303,2023-10-27 11:18:22.47,73,-100,-2046,-17,21,0,-321,-373,52,347
,304,2023-10-27 11:18:22.48,58,-105,-2065,-20,28,2,-377,-462,85,419
,305,2023-10-27 11:18:22.49,59,-103,-2064,-18,31,6,-317,-368,51,342
,306,2023-10-27 11:18:22.50,62,-99,-2064,-15,29,12,-383,-459,76,421
,307,2023-10-27 11:18:22.51,72,-95,-2058,-14,29,17,-312,-362,50,337
,308,2023-10-27 11:18:22.52,50,-91,-2058,-14,32,19,-383,-465,82,424
,309,2023-10-27 11:18:22.53,71,-90,-2058,-18,35,18,-311,-368,57,339
,310,2023-10-27 11:18:22.54,68,-85,-2058,-16,35,19,-390,-477,87,433
,311,2023-10-27 11:18:22.55,71,-82,-2052,-13,35,17,-305,-386,81,345
,312,2023-10-27 11:18:22.56,78,-88,-2059,-11,35,15,-385,-497,112,441
,313,2023-10-27 11:18:22.57,68,-82,-2053,-10,36,10,-296,-399,103,347
,314,2023-10-27 11:18:22.58,70,-83,-2059,-6,35,6,-387,-505,118,446
,315,2023-10-27 11:18:22.59,82,-85,-2062,-4,37,3,-288,-384,96,336
,316,2023-10-27 11:18:22.60,80,-84,-2056,0,34,1,-379,-487,108,433
,317,2023-10-27 11:18:22.61,72,-83,-2054,2,27,1,-276,-377,101,326
,318,2023-10-27 11:18:22.62,68,-85,-2047,6,25,-1,-382,-494,112,438
,319,2023-10-27 11:18:22.63,72,-98,-2055,11,24,0,-270,-370,100,320
,320,2023-10-27 11:18:22.64,65,-96,-2061,10,16,2,-384,-486,102,435
,321,2023-10-27 11:18:22.65,72,-94,-2052,13,15,7,-277,-377,100,327
,322,2023-10-27 11:18:22.66,66,-86,-2047,18,12,6,-397,-502,105,449
,323,2023-10-27 11:18:22.67,70,-97,-2057,18,11,10,-272,-359,87,315
,324,2023-10-27 11:18:22.68,70,-102,-2061,15,12,11,-390,-483,93,436
,325,2023-10-27 11:18:22.69,69,-99,-2065,11,10,14,-256,-360,104,308
,326,2023-10-27 11:18:22.70,78,-95,-2062,14,4,21,-379,-496,117,437
,327,2023-10-27 11:18:22.71,73,-100,-2056,16,3,23,-247,-360,113,303
,328,2023-10-27 11:18:22.72,67,-100,-2058,12,3,27,-384,-487,103,435
,329,2023-10-27 11:18:22.73,66,-100,-2062,7,5,29,-251,-336,85,293
,330,2023-10-27 11:18:22.74,68,-104,-2060,6,6,32,-392,-467,75,429
,331,2023-10-27 11:18:22.75,79,-91,-2055,10,4,35,-248,-314,66,281
,332,2023-10-27 11:18:22.76,90,-98,-2042,6,7,38,-391,-467,76,429
,333,2023-10-27 11:18:22.77,74,-99,-2045,3,14,40,-241,-352,111,296
,334,2023-10-27 11:18:22.78,77,-105,-2054,-1,25,41,-389,-514,125,451
,335,2023-10-27 11:18:22.79,88,-100,-2048,-2,31,43,-238,-388,150,313
,336,2023-10-27 11:18:22.80,79,-78,-2089,-8,35,50,-394,-544,150,469
,337,2023-10-27 11:18:22.81,86,-91,-2046,-16,21,52,-239,-420,181,329
,338,2023-10-27 11:18:22.82,95,-98,-2008,-8,29,50,-397,-562,165,479
,339,2023-10-27 11:18:22.83,51,-82,-2048,10,26,44,-242,-409,167,325
,340,2023-10-27 11:18:22.84,89,-79,-2077,7,7,41,-410,-542,132,476
,341,2023-10-27 11:18:22.85,73,-72,-2069,4,27,28,-245,-379,134,312
,342,2023-10-27 11:18:22.86,69,-75,-2073,22,5,17,-415,-546,131,480
,343,2023-10-27 11:18:22.87,80,-86,-2065,34,-10,7,-247,-443,196,345
,344,2023-10-27 11:18:22.88,68,-82,-2067,46,-22,-3,-408,-597,189,502
,345,2023-10-27 11:18:22.89,72,-81,-2060,58,-35,-13,-223,-419,196,321
,346,2023-10-27 11:18:22.90,61,-80,-2044,66,-43,-18,-405,-569,164,487
,347,2023-10-27 11:18:22.91,69,-95,-2057,69,-45,-23,-252,-456,204,354
,348,2023-10-27 11:18:22.92,67,-94,-2060,68,-51,-25,-429,-611,182,520
,349,2023-10-27 11:18:22.93,70,-87,-2043,62,-49,-24,-259,-457,198,358
,350,2023-10-27 11:18:22.94,87,-82,-2058,57,-34,-36,-436,-585,149,510
,351,2023-10-27 11:18:22.95,63,-80,-2052,43,-8,-50,-253,-414,161,333
,352,2023-10-27 11:18:22.96,62,-76,-2047,30,-15,-56,-427,-546,119,486
,353,2023-10-27 11:18:22.97,73,-86,-2037,25,-6,-59,-238,-373,135,305
,354,2023-10-27 11:18:22.98,67,-101,-2060,24,4,-66,-420,-529,109,474
,355,2023-10-27 11:18:22.99,61,-100,-2081,22,5,-70,-237,-378,141,307
,356,2023-10-27 11:18:23.00,54,-117,-2074,23,0,-68,-429,-539,110,484
,357,2023-10-27 11:18:23.01,56,-124,-2082,35,-10,-61,-245,-372,127,308
,358,2023-10-27 11:18:23.02,71,-120,-2050,40,-10,-59,-434,-523,89,478
,359,2023-10-27 11:18:23.03,44,-111,-2035,45,-12,-58,-239,-347,108,293
,360,2023-10-27 11:18:23.04,64,-111,-2031,43,-6,-52,-427,-511,84,469
,361,2023-10-27 11:18:23.05,59,-112,-2056,37,12,-54,-240,-361,121,300
,362,2023-10-27 11:18:23.06,55,-119,-2044,32,16,-48,-435,-559,124,497
,363,2023-10-27 11:18:23.07,81,-109,-2025,34,27,-45,-251,-452,201,351
,364,2023-10-27 11:18:23.08,83,-112,-2021,32,50,-46,-447,-651,204,549
,365,2023-10-27 11:18:23.09,81,-120,-2010,22,70,-48,-259,-552,293,405
,366,2023-10-27 11:18:23.10,60,-129,-2023,22,77,-45,-450,-691,241,570
,367,2023-10-27 11:18:23.11,77,-136,-2075,35,71,-36,-260,-509,249,384
,368,2023-10-27 11:18:23.12,70,-130,-2068,49,65,-28,-454,-617,163,535
,369,2023-10-27 11:18:23.13,71,-122,-2068,54,58,-25,-260,-434,174,347
,370,2023-10-27 11:18:23.14,60,-102,-2067,40,61,-23,-450,-572,122,511
,371,2023-10-27 11:18:23.15,70,-98,-2066,27,57,-24,-246,-402,156,324
,372,2023-10-27 11:18:23.16,75,-104,-2074,22,42,-23,-436,-548,112,492
,373,2023-10-27 11:18:23.17,86,-98,-2065,30,20,-26,-244,-392,148,318
,374,2023-10-27 11:18:23.18,90,-94,-2042,26,14,-27,-441,-538,97,489
,375,2023-10-27 11:18:23.19,104,-116,-2033,14,24,-33,-248,-374,126,311
,376,2023-10-27 11:18:23.20,105,-114,-2049,3,45,-34,-441,-513,72,477
,377,2023-10-27 11:18:23.21,104,-117,-2037,2,55,-41,-244,-351,107,297
,378,2023-10-27 11:18:23.22,108,-112,-2035,5,63,-41,-428,-502,74,465
,379,2023-10-27 11:18:23.23,102,-117,-2044,4,63,-41,-226,-355,129,290
,380,2023-10-27 11:18:23.24,102,-134,-2066,2,61,-37,-418,-502,84,460
,381,2023-10-27 11:18:23.25,76,-146,-2083,8,47,-30,-223,-339,116,281
,382,2023-10-27 11:18:23.26,73,-146,-2093,12,40,-21,-415,-482,67,448
,383,2023-10-27 11:18:23.27,57,-141,-2071,9,30,-11,-226,-334,108,280
,384,2023-10-27 11:18:23.28,83,-105,-2069,12,-2,-2,-426,-484,58,455
,385,2023-10-27 11:18:23.29,103,-86,-2065,7,-9,-5,-238,-339,101,288
,386,2023-10-27 11:18:23.30,109,-73,-2080,-6,-4,-9,-422,-472,50,447
,387,2023-10-27 11:18:23.31,108,-67,-2068,-26,1,-22,-223,-312,89,267
,388,2023-10-27 11:18:23.32,88,-72,-2075,-30,-17,-34,-401,-433,32,417
,389,2023-10-27 11:18:23.33,80,-80,-2096,-29,-39,-42,-201,-279,78,240
,390,2023-10-27 11:18:23.34,97,-61,-2096,-28,-43,-55,-385,-415,30,400
,391,2023-10-27 11:18:23.35,85,-57,-2081,-30,-54,-67,-185,-262,77,223
,392,2023-10-27 11:18:23.36,63,-59,-2069,-36,-67,-75,-372,-394,22,383
,393,2023-10-27 11:18:23.37,142,-30,-2084,-53,-52,-82,-196,-272,76,234
,394,2023-10-27 11:18:23.38,58,-30,-2044,-78,-27,-108,-384,-414,30,399
,395,2023-10-27 11:18:23.39,84,-47,-2041,-81,-54,-106,-205,-288,83,246
,396,2023-10-27 11:18:23.40,127,-66,-2010,-78,-50,-108,-386,-410,24,398
,397,2023-10-27 11:18:23.41,83,-77,-2009,-68,-30,-115,-206,-277,71,241
,398,2023-10-27 11:18:23.42,98,-84,-2028,-56,-25,-109,-375,-395,20,385
,399,2023-10-27 11:18:23.43,107,-81,-2034,-55,1,-111,-199,-264,65,231
,400,2023-10-27 11:18:23.44,92,-77,-2027,-49,20,-109,-365,-368,3,366
,401,2023-10-27 11:18:23.45,99,-90,-2037,-38,33,-105,-175,-236,61,205
,402,2023-10-27 11:18:23.46,100,-101,-2049,-26,43,-100,-340,-348,8,344
,403,2023-10-27 11:18:23.47,90,-91,-2058,-15,44,-92,-184,-248,64,216
,404,2023-10-27 11:18:23.48,89,-83,-2074,-8,41,-86,-354,-356,2,355
,405,2023-10-27 11:18:23.49,97,-83,-2081,1,34,-78,-183,-239,56,211
,406,2023-10-27 11:18:23.50,96,-79,-2077,6,25,-67,-342,-335,-7,338
,407,2023-10-27 11:18:23.51,103,-91,-2084,11,15,-60,-180,-227,47,203
,408,2023-10-27 11:18:23.52,87,-82,-2063,14,2,-47,-346,-343,-3,344
,409,2023-10-27 11:18:23.53,98,-88,-2057,25,-7,-40,-208,-273,65,240
,410,2023-10-27 11:18:23.54,108,-94,-2055,31,-10,-33,-366,-387,21,376
,411,2023-10-27 11:18:23.55,92,-108,-2055,38,-18,-24,-221,-300,79,260
,412,2023-10-27 11:18:23.56,101,-109,-2054,45,-29,-16,-369,-393,24,381
,413,2023-10-27 11:18:23.57,117,-100,-2060,47,-15,-8,-225,-305,80,265
,414,2023-10-27 11:18:23.58,79,-100,-2062,41,2,-8,-362,-382,20,372
,415,2023-10-27 11:18:23.59,79,-105,-2060,40,-10,2,-223,-295,72,259
,416,2023-10-27 11:18:23.60,86,-92,-2054,46,-23,10,-368,-384,16,376
,417,2023-10-27 11:18:23.61,60,-89,-2061,51,-43,19,-239,-320,81,279
,418,2023-10-27 11:18:23.62,76,-95,-2054,53,-64,29,-387,-401,14,394
,419,2023-10-27 11:18:23.63,70,-100,-2051,53,-69,36,-267,-333,66,300
,420,2023-10-27 11:18:23.64,62,-113,-2061,54,-71,40,-390,-395,5,392
,421,2023-10-27 11:18:23.65,64,-114,-2058,54,-72,48,-257,-323,66,290
,422,2023-10-27 11:18:23.66,79,-115,-2053,56,-72,54,-368,-378,10,373
,423,2023-10-27 11:18:23.67,67,-108,-2050,60,-73,60,-244,-314,70,279
,424,2023-10-27 11:18:23.68,72,-104,-2040,57,-68,67,-354,-376,22,365
,425,2023-10-27 11:18:23.69,62,-118,-2048,54,-64,71,-240,-328,88,284
,426,2023-10-27 11:18:23.70,48,-121,-2062,57,-61,79,-347,-387,40,367
,427,2023-10-27 11:18:23.71,70,-139,-2062,60,-60,88,-251,-349,98,300
,428,2023-10-27 11:18:23.72,65,-167,-2047,67,-53,93,-362,-400,38,381
,429,2023-10-27 11:18:23.73,43,-156,-2054,79,-40,99,-263,-359,96,311
,430,2023-10-27 11:18:23.74,28,-127,-2081,78,-46,109,-346,-416,70,381
,431,2023-10-27 11:18:23.75,58,-163,-2077,72,-49,126,-253,-395,142,324
,432,2023-10-27 11:18:23.76,48,-157,-2055,77,-40,135,-351,-501,150,426
,433,2023-10-27 11:18:23.77,41,-140,-2046,82,-38,143,-270,-504,234,387
,434,2023-10-27 11:18:23.78,43,-140,-2039,74,-41,151,-365,-602,237,483
,435,2023-10-27 11:18:23.79,31,-104,-2054,63,-33,151,-292,-590,298,441
,436,2023-10-27 11:18:23.80,23,-119,-2066,45,-27,149,-381,-659,278,520
,437,2023-10-27 11:18:23.81,16,-114,-2071,39,-45,151,-310,-625,315,467
,438,2023-10-27 11:18:23.82,34,-112,-2042,33,-44,146,-398,-684,286,541
,439,2023-10-27 11:18:23.83,46,-109,-2046,36,-45,136,-337,-658,321,497
,440,2023-10-27 11:18:23.84,41,-103,-2031,28,-40,125,-398,-641,243,519
,441,2023-10-27 11:18:23.85,52,-86,-2047,21,-33,113,-325,-578,253,451
,442,2023-10-27 11:18:23.86,53,-88,-2052,18,-30,100,-379,-637,258,508
,443,2023-10-27 11:18:23.87,53,-75,-2051,15,-23,79,-326,-646,320,486
,444,2023-10-27 11:18:23.88,29,-95,-2047,10,-12,64,-368,-640,272,504
,445,2023-10-27 11:18:23.89,43,-90,-2039,11,-8,47,-316,-592,276,454
,446,2023-10-27 11:18:23.90,45,-103,-2041,13,-3,31,-368,-603,235,485
,447,2023-10-27 11:18:23.91,29,-101,-2053,12,-1,20,-337,-603,266,470
,448,2023-10-27 11:18:23.92,36,-97,-2053,10,-11,8,-360,-607,247,483
,449,2023-10-27 11:18:23.93,34,-99,-2055,16,-13,-8,-318,-589,271,453
,450,2023-10-27 11:18:23.94,46,-99,-2059,20,-13,-14,-337,-568,231,452
,451,2023-10-27 11:18:23.95,53,-110,-2049,17,-12,-24,-305,-551,246,428
,452,2023-10-27 11:18:23.96,50,-112,-2040,12,10,-33,-318,-508,190,413
,453,2023-10-27 11:18:23.97,40,-128,-2042,14,8,-36,-282,-487,205,384
,454,2023-10-27 11:18:23.98,61,-141,-2050,11,17,-33,-272,-469,197,370
,455,2023-10-27 11:18:23.99,60,-140,-2046,11,34,-30,-269,-518,249,393
,456,2023-10-27 11:18:24.00,47,-154,-2037,17,32,-19,-324,-706,382,515
,457,2023-10-27 11:18:24.01,50,-159,-2047,19,41,-9,-344,-818,474,581
,458,2023-10-27 11:18:24.02,45,-147,-2068,19,52,3,-328,-723,395,525
,459,2023-10-27 11:18:24.03,35,-143,-2070,14,47,16,-314,-633,319,473
,460,2023-10-27 11:18:24.04,35,-143,-2084,8,37,36,-305,-564,259,434
,461,2023-10-27 11:18:24.05,36,-137,-2070,0,26,53,-322,-586,264,454
,462,2023-10-27 11:18:24.06,51,-140,-2052,-3,22,64,-300,-524,224,412
,463,2023-10-27 11:18:24.07,37,-123,-2061,-11,22,75,-318,-537,219,427
,464,2023-10-27 11:18:24.08,38,-105,-2068,-24,13,78,-293,-492,199,392
,465,2023-10-27 11:18:24.09,53,-107,-2061,-31,3,81,-320,-543,223,431
,466,2023-10-27 11:18:24.10,53,-109,-2064,-26,0,74,-293,-507,214,400
,467,2023-10-27 11:18:24.11,52,-104,-2043,-18,-3,70,-336,-560,224,448
,468,2023-10-27 11:18:24.12,72,-117,-2043,-12,4,56,-294,-488,194,391
,469,2023-10-27 11:18:24.13,62,-135,-2048,1,17,46,-338,-540,202,439
,470,2023-10-27 11:18:24.14,80,-129,-2043,16,27,36,-315,-519,204,417
,471,2023-10-27 11:18:24.15,65,-124,-2028,35,39,20,-374,-596,222,485
,472,2023-10-27 11:18:24.16,79,-121,-2037,49,55,8,-321,-519,198,420
,473,2023-10-27 11:18:24.17,57,-124,-2059,52,64,-1,-374,-562,188,468
,474,2023-10-27 11:18:24.18,60,-100,-2056,54,62,-15,-314,-464,150,389
,475,2023-10-27 11:18:24.19,55,-109,-2072,59,58,-20,-382,-531,149,456
,476,2023-10-27 11:18:24.20,53,-111,-2076,63,42,-23,-319,-447,128,383
,477,2023-10-27 11:18:24.21,42,-125,-2075,60,27,-24,-389,-530,141,459
,478,2023-10-27 11:18:24.22,64,-142,-2064,63,17,-23,-305,-426,121,365
,479,2023-10-27 11:18:24.23,50,-149,-2061,63,11,-22,-386,-519,133,452
,480,2023-10-27 11:18:24.24,66,-146,-2045,57,14,-16,-314,-456,142,385
,481,2023-10-27 11:18:24.25,59,-150,-2034,52,20,-15,-400,-560,160,480
,482,2023-10-27 11:18:24.26,68,-151,-2040,48,31,-12,-300,-442,142,371
,483,2023-10-27 11:18:24.27,46,-134,-2082,39,38,-8,-390,-529,139,459
,484,2023-10-27 11:18:24.28,58,-142,-2067,22,27,-1,-293,-412,119,352
,485,2023-10-27 11:18:24.29,79,-154,-2020,13,27,4,-392,-517,125,454
,486,2023-10-27 11:18:24.30,76,-124,-2013,18,45,3,-291,-409,118,350
,487,2023-10-27 11:18:24.31,65,-128,-2040,14,56,-2,-397,-522,125,459
,488,2023-10-27 11:18:24.32,56,-134,-2055,0,60,-3,-290,-408,118,349
,489,2023-10-27 11:18:24.33,63,-136,-2053,-8,60,0,-402,-530,128,466
,490,2023-10-27 11:18:24.34,76,-132,-2057,-6,58,-3,-289,-439,150,364
,491,2023-10-27 11:18:24.35,61,-131,-2058,-8,56,1,-409,-573,164,491
,492,2023-10-27 11:18:24.36,69,-133,-2055,-11,56,3,-290,-472,182,381
,493,2023-10-27 11:18:24.37,71,-117,-2059,-15,55,0,-409,-582,173,495
,494,2023-10-27 11:18:24.38,79,-135,-2052,-15,51,3,-272,-424,152,348
,495,2023-10-27 11:18:24.39,74,-130,-2054,-11,50,2,-401,-531,130,466
,496,2023-10-27 11:18:24.40,61,-122,-2063,-11,48,3,-264,-392,128,328
,497,2023-10-27 11:18:24.41,89,-121,-2058,-20,42,4,-401,-519,118,460
,498,2023-10-27 11:18:24.42,85,-120,-2058,-30,39,2,-258,-371,113,314
,499,2023-10-27 11:18:24.43,81,-110,-2042,-32,34,0,-396,-503,107,449
,500,2023-10-27 11:18:24.44,85,-119,-2028,-26,33,-8,-243,-358,115,300
,501,2023-10-27 11:18:24.45,68,-105,-2039,-17,29,-8,-384,-497,113,440
,502,2023-10-27 11:18:24.46,102,-117,-2062,-16,26,-15,-228,-353,125,290
,503,2023-10-27 11:18:24.47,87,-119,-2069,-13,27,-19,-382,-506,124,444
,504,2023-10-27 11:18:24.48,84,-112,-2066,10,-3,-26,-226,-384,158,305
,505,2023-10-27 11:18:24.49,89,-110,-2062,4,15,-32,-388,-532,144,460
,506,2023-10-27 11:18:24.50,83,-116,-2069,0,16,-32,-227,-367,140,297
,507,2023-10-27 11:18:24.51,92,-126,-2068,4,7,-35,-392,-509,117,450
,508,2023-10-27 11:18:24.52,90,-121,-2049,11,0,-34,-222,-365,143,293
,509,2023-10-27 11:18:24.53,86,-127,-2043,20,-2,-37,-390,-534,144,462
,510,2023-10-27 11:18:24.54,84,-128,-2048,20,0,-41,-230,-419,189,324
,511,2023-10-27 11:18:24.55,91,-136,-2060,18,-2,-42,-404,-605,201,504
,512,2023-10-27 11:18:24.56,94,-134,-2059,24,-6,-43,-233,-518,285,375
,513,2023-10-27 11:18:24.57,81,-130,-2054,35,-9,-45,-409,-660,251,534
,514,2023-10-27 11:18:24.58,87,-134,-2051,45,-19,-43,-235,-478,243,356
,515,2023-10-27 11:18:24.59,76,-144,-2071,45,-26,-41,-413,-598,185,505
,516,2023-10-27 11:18:24.60,62,-156,-2070,43,-31,-34,-238,-447,209,342
,517,2023-10-27 11:18:24.61,74,-153,-2064,44,-32,-28,-419,-590,171,504
,518,2023-10-27 11:18:24.62,81,-155,-2054,43,-32,-23,-240,-419,179,329
,519,2023-10-27 11:18:24.63,80,-158,-2045,32,-29,-17,-430,-580,150,505
,520,2023-10-27 11:18:24.64,75,-146,-2040,14,-20,-11,-264,-458,194,361
,521,2023-10-27 11:18:24.65,84,-132,-2038,2,-9,-9,-452,-619,167,535
,522,2023-10-27 11:18:24.66,74,-124,-2046,-7,-2,-7,-253,-434,181,343
,523,2023-10-27 11:18:24.67,68,-122,-2045,-19,-5,-4,-426,-564,138,495
,524,2023-10-27 11:18:24.68,59,-126,-2055,-32,-7,-2,-236,-389,153,312
,525,2023-10-27 11:18:24.69,64,-120,-2060,-46,-9,1,-419,-538,119,478
,526,2023-10-27 11:18:24.70,68,-124,-2064,-58,-7,6,-229,-376,147,302
,527,2023-10-27 11:18:24.71,63,-118,-2066,-62,-12,5,-415,-547,132,481
,528,2023-10-27 11:18:24.72,74,-119,-2070,-63,-19,9,-226,-409,183,317
,529,2023-10-27 11:18:24.73,70,-117,-2061,-64,-21,8,-421,-569,148,495
,530,2023-10-27 11:18:24.74,75,-115,-2056,-60,-21,6,-231,-404,173,317
,531,2023-10-27 11:18:24.75,75,-105,-2055,-56,-25,4,-423,-569,146,496
,532,2023-10-27 11:18:24.76,64,-107,-2054,-53,-20,-2,-229,-432,203,330
,533,2023-10-27 11:18:24.77,73,-111,-2048,-46,-16,-6,-422,-600,178,511
,534,2023-10-27 11:18:24.78,80,-111,-2046,-39,-4,-13,-231,-450,219,340
,535,2023-10-27 11:18:24.79,70,-102,-2042,-38,21,-21,-426,-602,176,514
,536,2023-10-27 11:18:24.80,74,-117,-2044,-31,20,-24,-242,-449,207,345
,537,2023-10-27 11:18:24.81,92,-129,-2042,-16,21,-22,-438,-590,152,514
,538,2023-10-27 11:18:24.82,82,-129,-2041,-1,32,-21,-244,-418,174,331
,539,2023-10-27 11:18:24.83,76,-135,-2030,5,41,-20,-435,-561,126,498
,540,2023-10-27 11:18:24.84,67,-139,-2053,3,47,-16,-241,-406,165,323
,541,2023-10-27 11:18:24.85,70,-127,-2044,3,49,-8,-440,-570,130,505
,542,2023-10-27 11:18:24.86,68,-124,-2045,9,52,-2,-249,-424,175,336
,543,2023-10-27 11:18:24.87,68,-126,-2057,10,52,7,-440,-571,131,505
,544,2023-10-27 11:18:24.88,70,-123,-2064,2,47,18,-246,-407,161,326
,545,2023-10-27 11:18:24.89,62,-130,-2067,-5,42,28,-435,-541,106,488
,546,2023-10-27 11:18:24.90,76,-136,-2064,-5,32,42,-242,-374,132,308
,547,2023-10-27 11:18:24.91,70,-134,-2060,-2,30,50,-430,-516,86,473
,548,2023-10-27 11:18:24.92,88,-133,-2061,-9,31,60,-202,-342,140,272
,549,2023-10-27 11:18:24.93,81,-116,-2062,-17,30,68,-377,-470,93,423
,550,2023-10-27 11:18:24.94,84,-105,-2058,-19,25,73,-191,-316,125,253
,551,2023-10-27 11:18:24.95,91,-104,-2059,-15,23,71,-396,-473,77,434
,552,2023-10-27 11:18:24.96,79,-104,-2060,-17,19,70,-201,-332,131,266
,553,2023-10-27 11:18:24.97,89,-87,-2054,-18,22,64,-388,-468,80,428
,554,2023-10-27 11:18:24.98,87,-91,-2054,-21,27,57,-205,-321,116,263
,555,2023-10-27 11:18:24.99,96,-93,-2057,-23,27,51,-406,-461,55,433
,556,2023-10-27 11:18:25.00,104,-98,-2058,-22,32,45,-222,-319,97,270
,557,2023-10-27 11:18:25.01,91,-85,-2059,-18,30,37,-417,-453,36,435
,558,2023-10-27 11:18:25.02,87,-82,-2055,-17,27,29,-239,-316,77,277
,559,2023-10-27 11:18:25.03,94,-88,-2060,-19,23,24,-432,-477,45,454
,560,2023-10-27 11:18:25.04,78,-83,-2054,-20,19,17,-242,-358,116,300
,561,2023-10-27 11:18:25.05,96,-80,-2057,-19,12,17,-422,-488,66,455
,562,2023-10-27 11:18:25.06,98,-93,-2053,-19,6,14,-238,-348,110,293
,563,2023-10-27 11:18:25.07,89,-99,-2059,-20,7,15,-418,-465,47,441
,564,2023-10-27 11:18:25.08,88,-104,-2054,-19,4,17,-234,-330,96,282
,565,2023-10-27 11:18:25.09,99,-115,-2051,-15,8,18,-410,-450,40,430
,566,2023-10-27 11:18:25.10,103,-117,-2052,-10,13,24,-233,-327,94,280
,567,2023-10-27 11:18:25.11,104,-109,-2048,-8,19,29,-398,-439,41,418
,568,2023-10-27 11:18:25.12,97,-100,-2052,-5,26,34,-221,-311,90,266
,569,2023-10-27 11:18:25.13,90,-90,-2055,-2,24,34,-392,-429,37,410
,570,2023-10-27 11:18:25.14,86,-94,-2063,0,23,39,-226,-321,95,273
,571,2023-10-27 11:18:25.15,91,-92,-2066,4,17,40,-384,-440,56,412
,572,2023-10-27 11:18:25.16,94,-88,-2064,10,17,40,-220,-331,111,275
,573,2023-10-27 11:18:25.17,95,-92,-2060,11,14,36,-376,-436,60,406
,574,2023-10-27 11:18:25.18,93,-98,-2056,17,14,33,-215,-329,114,272
,575,2023-10-27 11:18:25.19,83,-102,-2061,23,11,31,-371,-433,62,402
,576,2023-10-27 11:18:25.20,93,-97,-2059,32,4,29,-214,-333,119,273
,577,2023-10-27 11:18:25.21,95,-99,-2060,42,3,27,-373,-434,61,403
,578,2023-10-27 11:18:25.22,87,-99,-2049,46,1,25,-228,-340,112,284
,579,2023-10-27 11:18:25.23,93,-96,-2051,50,-1,21,-380,-435,55,407
,580,2023-10-27 11:18:25.24,97,-102,-2055,52,3,17,-234,-341,107,287
,581,2023-10-27 11:18:25.25,89,-115,-2061,49,1,17,-371,-451,80,411
,582,2023-10-27 11:18:25.26,97,-108,-2064,52,2,17,-226,-377,151,301
,583,2023-10-27 11:18:25.27,84,-113,-2051,52,-1,20,-357,-463,106,410
,584,2023-10-27 11:18:25.28,92,-111,-2054,49,5,19,-221,-370,149,295
,585,2023-10-27 11:18:25.29,92,-109,-2051,45,6,18,-375,-516,141,445
,586,2023-10-27 11:18:25.30,78,-118,-2046,42,9,22,-257,-492,235,374
,587,2023-10-27 11:18:25.31,88,-128,-2057,36,8,27,-383,-572,189,477
,588,2023-10-27 11:18:25.32,81,-120,-2061,37,3,29,-255,-468,213,361
,589,2023-10-27 11:18:25.33,72,-114,-2048,34,0,35,-371,-508,137,439
,590,2023-10-27 11:18:25.34,86,-111,-2053,31,2,37,-247,-422,175,334
,591,2023-10-27 11:18:25.35,74,-115,-2061,21,3,38,-363,-479,116,421
,592,2023-10-27 11:18:25.36,85,-108,-2059,15,-6,39,-259,-420,161,339
,593,2023-10-27 11:18:25.37,90,-103,-2059,15,-12,41,-383,-530,147,456
,594,2023-10-27 11:18:25.38,81,-99,-2053,9,-12,37,-284,-501,217,392
,595,2023-10-27 11:18:25.39,75,-105,-2061,4,-14,36,-376,-544,168,460
,596,2023-10-27 11:18:25.40,77,-117,-2063,1,-15,38,-271,-472,201,371
,597,2023-10-27 11:18:25.41,68,-122,-2065,4,-20,39,-360,-522,162,441
,598,2023-10-27 11:18:25.42,82,-119,-2068,9,-26,42,-267,-482,215,374
,599,2023-10-27 11:18:25.43,70,-127,-2053,13,-26,43,-350,-504,154,427
,600,2023-10-27 11:18:25.44,69,-133,-2055,17,-25,47,-263,-447,184,355
,601,2023-10-27 11:18:25.45,75,-125,-2052,20,-22,51,-344,-474,130,409
,602,2023-10-27 11:18:25.46,83,-120,-2047,20,-21,52,-266,-440,174,353
,603,2023-10-27 11:18:25.47,78,-117,-2051,20,-16,56,-345,-486,141,415
,604,2023-10-27 11:18:25.48,86,-113,-2037,-1,20,51,-276,-468,192,372
,605,2023-10-27 11:18:25.49,42,-118,-2033,-6,29,51,-349,-482,133,415
,606,2023-10-27 11:18:25.50,81,-121,-2045,1,14,56,-288,-445,157,366
,607,2023-10-27 11:18:25.51,77,-118,-2053,11,13,58,-361,-454,93,407
,608,2023-10-27 11:18:25.52,88,-99,-2048,16,2,61,-301,-437,136,369
,609,2023-10-27 11:18:25.53,83,-101,-2033,14,11,58,-354,-433,79,393
,610,2023-10-27 11:18:25.54,78,-113,-2057,6,24,56,-300,-418,118,359
,611,2023-10-27 11:18:25.55,74,-107,-2066,2,23,52,-343,-413,70,378
,612,2023-10-27 11:18:25.56,93,-103,-2060,5,25,50,-290,-414,124,352
,613,2023-10-27 11:18:25.57,98,-104,-2054,10,28,42,-333,-424,91,378
,614,2023-10-27 11:18:25.58,91,-99,-2059,9,36,36,-304,-444,140,374
,615,2023-10-27 11:18:25.59,86,-98,-2063,7,45,23,-346,-444,98,395
,616,2023-10-27 11:18:25.60,90,-99,-2068,11,43,15,-312,-452,140,382
,617,2023-10-27 11:18:25.61,84,-110,-2074,17,36,7,-336,-427,91,381
,618,2023-10-27 11:18:25.62,92,-105,-2068,29,24,6,-312,-442,130,377
,619,2023-10-27 11:18:25.63,93,-111,-2058,38,19,0,-332,-413,81,372
,620,2023-10-27 11:18:25.64,104,-120,-2061,40,16,1,-318,-430,112,374
,621,2023-10-27 11:18:25.65,90,-122,-2051,37,17,1,-324,-402,78,363
,622,2023-10-27 11:18:25.66,100,-126,-2048,40,21,0,-312,-439,127,375
,623,2023-10-27 11:18:25.67,97,-137,-2042,38,33,8,-316,-411,95,363
,624,2023-10-27 11:18:25.68,104,-134,-2044,31,44,11,-323,-453,130,388
,625,2023-10-27 11:18:25.69,116,-130,-2049,27,56,10,-324,-422,98,373
,626,2023-10-27 11:18:25.70,105,-113,-2041,21,63,11,-325,-468,143,396
,627,2023-10-27 11:18:25.71,106,-118,-2050,13,71,11,-310,-455,145,382
,628,2023-10-27 11:18:25.72,115,-119,-2048,5,76,13,-326,-525,199,425
,629,2023-10-27 11:18:25.73,102,-116,-2045,-1,78,12,-332,-569,237,450
,630,2023-10-27 11:18:25.74,110,-114,-2060,-5,77,11,-359,-650,291,504
,631,2023-10-27 11:18:25.75,109,-121,-2060,-6,73,11,-335,-623,288,479
,632,2023-10-27 11:18:25.76,101,-121,-2068,-4,65,11,-357,-653,296,505
,633,2023-10-27 11:18:25.77,108,-115,-2057,-3,52,12,-336,-646,310,491
,634,2023-10-27 11:18:25.78,101,-109,-2051,-1,47,11,-374,-703,329,538
,635,2023-10-27 11:18:25.79,122,-111,-2056,-1,46,6,-344,-654,310,499
,636,2023-10-27 11:18:25.80,123,-105,-2052,-3,43,1,-382,-684,302,533
,637,2023-10-27 11:18:25.81,123,-99,-2040,1,39,-6,-330,-584,254,457
,638,2023-10-27 11:18:25.82,134,-103,-2048,5,36,-8,-369,-614,245,491
,639,2023-10-27 11:18:25.83,143,-100,-2050,7,42,-17,-324,-557,233,440
,640,2023-10-27 11:18:25.84,129,-105,-2053,4,47,-24,-381,-624,243,502
,641,2023-10-27 11:18:25.85,125,-105,-2069,5,40,-27,-316,-528,212,422
,642,2023-10-27 11:18:25.86,110,-111,-2073,10,29,-29,-365,-567,202,466
,643,2023-10-27 11:18:25.87,101,-112,-2073,17,12,-25,-295,-457,162,376
,644,2023-10-27 11:18:25.88,123,-120,-2069,22,-7,-21,-372,-534,162,453
,645,2023-10-27 11:18:25.89,106,-126,-2053,26,-14,-12,-301,-451,150,376
,646,2023-10-27 11:18:25.90,126,-135,-2052,28,-16,-2,-387,-553,166,470
,647,2023-10-27 11:18:25.91,117,-152,-2045,31,-7,9,-319,-505,186,412
,648,2023-10-27 11:18:25.92,113,-158,-2039,33,6,18,-406,-608,202,507
,649,2023-10-27 11:18:25.93,122,-153,-2042,33,18,31,-298,-501,203,399
,650,2023-10-27 11:18:25.94,117,-149,-2040,31,36,38,-381,-574,193,477
,651,2023-10-27 11:18:25.95,125,-139,-2048,28,55,49,-284,-461,177,372
,652,2023-10-27 11:18:25.96,128,-135,-2043,25,70,56,-385,-554,169,469
,653,2023-10-27 11:18:25.97,132,-140,-2053,21,85,59,-282,-427,145,354
,654,2023-10-27 11:18:25.98,142,-131,-2048,20,90,59,-390,-524,134,457
,655,2023-10-27 11:18:25.99,140,-115,-2042,19,93,57,-283,-409,126,346
,656,2023-10-27 11:18:26.00,112,-119,-2030,45,54,55,-396,-521,125,458
,657,2023-10-27 11:18:26.01,175,-100,-2068,61,53,50,-278,-392,114,335
,658,2023-10-27 11:18:26.02,152,-98,-2069,60,89,28,-395,-509,114,452
,659,2023-10-27 11:18:26.03,131,-102,-2059,64,73,11,-274,-377,103,325
,660,2023-10-27 11:18:26.04,156,-123,-2082,81,54,6,-398,-505,107,451
,661,2023-10-27 11:18:26.05,151,-135,-2078,94,68,-3,-273,-385,112,329
,662,2023-10-27 11:18:26.06,116,-133,-2061,117,61,-12,-410,-521,111,465
,663,2023-10-27 11:18:26.07,112,-139,-2052,133,47,-16,-288,-399,111,343
,664,2023-10-27 11:18:26.08,111,-151,-2072,144,36,-15,-431,-537,106,484
,665,2023-10-27 11:18:26.09,102,-149,-2074,153,24,-12,-306,-421,115,363
,666,2023-10-27 11:18:26.10,94,-144,-2061,160,9,-9,-445,-569,124,507
,667,2023-10-27 11:18:26.11,118,-154,-2046,169,4,-7,-304,-464,160,384
,668,2023-10-27 11:18:26.12,111,-153,-2028,175,12,-10,-448,-602,154,525
,669,2023-10-27 11:18:26.13,92,-170,-2031,181,17,-9,-309,-465,156,387
,670,2023-10-27 11:18:26.14,107,-178,-2050,182,17,-8,-446,-586,140,516
,671,2023-10-27 11:18:26.15,100,-168,-2054,187,14,-8,-277,-425,148,351
,672,2023-10-27 11:18:26.16,114,-186,-2061,196,23,-10,-421,-550,129,485
,673,2023-10-27 11:18:26.17,101,-190,-2078,210,32,-13,-260,-400,140,330
,674,2023-10-27 11:18:26.18,113,-188,-2065,222,35,-14,-408,-529,121,468
,675,2023-10-27 11:18:26.19,117,-179,-2044,222,53,-20,-228,-344,116,286
,676,2023-10-27 11:18:26.20,109,-177,-2041,219,68,-27,-388,-484,96,436
,677,2023-10-27 11:18:26.21,118,-192,-2044,209,83,-32,-211,-336,125,273
,678,2023-10-27 11:18:26.22,132,-189,-2046,196,106,-39,-376,-487,111,431
,679,2023-10-27 11:18:26.23,131,-175,-2032,182,133,-50,-202,-316,114,259
,680,2023-10-27 11:18:26.24,146,-165,-2016,162,161,-64,-381,-470,89,425
,681,2023-10-27 11:18:26.25,152,-161,-2012,132,186,-81,-216,-300,84,258
,682,2023-10-27 11:18:26.26,158,-145,-2009,98,210,-97,-384,-451,67,417
,683,2023-10-27 11:18:26.27,122,-151,-2155,30,233,-109,-198,-271,73,234
,684,2023-10-27 11:18:26.28,155,-168,-2035,-23,182,-115,-370,-427,57,398
,685,2023-10-27 11:18:26.29,191,-151,-1959,-17,194,-126,-192,-262,70,227
,686,2023-10-27 11:18:26.30,155,-164,-1905,9,188,-144,-379,-427,48,403
,687,2023-10-27 11:18:26.31,116,-202,-1956,72,120,-134,-183,-246,63,214
,688,2023-10-27 11:18:26.32,243,-219,-2106,69,105,-124,-353,-396,43,374
,689,2023-10-27 11:18:26.33,222,-229,-2063,38,163,-137,-144,-191,47,167
,690,2023-10-27 11:18:26.34,183,-248,-2027,42,184,-135,-318,-342,24,330
,691,2023-10-27 11:18:26.35,198,-242,-2050,61,164,-122,-110,-146,36,128
,692,2023-10-27 11:18:26.36,195,-226,-2052,58,168,-115,-285,-310,25,297
,693,2023-10-27 11:18:26.37,181,-233,-2081,59,126,-98,-77,-120,43,98
,694,2023-10-27 11:18:26.38,208,-234,-2068,66,73,-76,-265,-290,25,277
,695,2023-10-27 11:18:26.39,258,-220,-2068,70,101,-69,-63,-100,37,81
,696,2023-10-27 11:18:26.40,190,-235,-2038,66,121,-69,-259,-277,18,268
,697,2023-10-27 11:18:26.41,208,-209,-2032,51,98,-61,-62,-104,42,83
,698,2023-10-27 11:18:26.42,208,-203,-2086,26,74,-51,-276,-300,24,288
,699,2023-10-27 11:18:26.43,229,-201,-2123,-4,58,-38,-82,-124,42,103
,700,2023-10-27 11:18:26.44,208,-170,-2080,-19,45,-32,-277,-300,23,288
,701,2023-10-27 11:18:26.45,239,-179,-2045,-37,60,-33,-84,-134,50,109
,702,2023-10-27 11:18:26.46,237,-186,-2043,-74,70,-33,-291,-330,39,310
,703,2023-10-27 11:18:26.47,251,-187,-2004,-100,67,-30,-112,-178,66,145
,704,2023-10-27 11:18:26.48,278,-203,-1976,-92,68,-31,-327,-369,42,348
,705,2023-10-27 11:18:26.49,264,-223,-2000,-78,90,-35,-137,-215,78,176
,706,2023-10-27 11:18:26.50,253,-196,-2009,-87,88,-32,-340,-392,52,366
,707,2023-10-27 11:18:26.51,270,-196,-2018,-97,88,-28,-143,-218,75,180
,708,2023-10-27 11:18:26.52,245,-193,-2043,-107,96,-22,-347,-396,49,371
,709,2023-10-27 11:18:26.53,234,-203,-2050,-102,71,-13,-150,-239,89,194
,710,2023-10-27 11:18:26.54,278,-206,-2043,-96,69,-6,-348,-414,66,381
,711,2023-10-27 11:18:26.55,240,-218,-2048,-86,62,-3,-146,-256,110,201
,712,2023-10-27 11:18:26.56,248,-200,-2084,-78,35,9,-342,-422,80,382
,713,2023-10-27 11:18:26.57,245,-209,-2117,-81,7,18,-132,-254,122,193
,714,2023-10-27 11:18:26.58,221,-217,-2103,-70,-31,32,-327,-431,104,379
,715,2023-10-27 11:18:26.59,229,-222,-2104,-41,-69,49,-120,-281,161,200
,716,2023-10-27 11:18:26.60,230,-226,-2095,-16,-101,62,-314,-470,156,392
,717,2023-10-27 11:18:26.61,245,-218,-2066,-2,-119,78,-134,-347,213,240
,718,2023-10-27 11:18:26.62,253,-198,-2049,2,-121,83,-340,-524,184,432
,719,2023-10-27 11:18:26.63,238,-202,-2064,3,-112,85,-163,-386,223,274
,720,2023-10-27 11:18:26.64,252,-200,-2077,3,-101,84,-350,-527,177,438
,721,2023-10-27 11:18:26.65,265,-190,-2063,-12,-62,70,-162,-368,206,265
,722,2023-10-27 11:18:26.66,207,-201,-2017,-10,-59,68,-362,-529,167,445
,723,2023-10-27 11:18:26.67,226,-203,-2027,10,-75,72,-181,-399,218,290
,724,2023-10-27 11:18:26.68,210,-202,-2038,19,-73,74,-396,-626,230,511
,725,2023-10-27 11:18:26.69,229,-196,-2004,20,-73,71,-229,-581,352,405
,726,2023-10-27 11:18:26.70,215,-158,-2018,27,-69,71,-418,-704,286,561
,727,2023-10-27 11:18:26.71,220,-141,-2051,19,-70,67,-225,-500,275,362
,728,2023-10-27 11:18:26.72,217,-158,-2071,4,-69,66,-398,-597,199,497
,729,2023-10-27 11:18:26.73,214,-165,-2094,-22,-59,64,-209,-456,247,332
,730,2023-10-27 11:18:26.74,191,-161,-2043,-47,-61,65,-396,-612,216,504
,731,2023-10-27 11:18:26.75,224,-177,-2018,-60,-49,65,-224,-495,271,359
,732,2023-10-27 11:18:26.76,186,-186,-2021,-74,-32,63,-400,-635,235,517
,733,2023-10-27 11:18:26.77,203,-189,-2019,-71,-52,71,-217,-503,286,360
,734,2023-10-27 11:18:26.78,209,-203,-2061,-55,-54,76,-408,-680,272,544
,735,2023-10-27 11:18:26.79,183,-195,-2058,-45,-50,80,-258,-606,348,432
,736,2023-10-27 11:18:26.80,193,-199,-2040,-44,-43,88,-431,-712,281,571
,737,2023-10-27 11:18:26.81,191,-191,-2036,-45,-40,97,-240,-539,299,389
,738,2023-10-27 11:18:26.82,190,-193,-2042,-42,-34,102,-394,-608,214,501
,739,2023-10-27 11:18:26.83,201,-194,-2042,-40,-32,107,-236,-471,235,353
,740,2023-10-27 11:18:26.84,200,-176,-2030,-39,-15,107,-399,-568,169,483
,741,2023-10-27 11:18:26.85,202,-185,-2031,-34,-6,107,-229,-437,208,333
,742,2023-10-27 11:18:26.86,196,-179,-2019,-24,7,106,-408,-614,206,511
,743,2023-10-27 11:18:26.87,218,-174,-2003,-15,30,101,-269,-571,302,420
,744,2023-10-27 11:18:26.88,185,-166,-2067,-13,40,100,-426,-677,251,551
,745,2023-10-27 11:18:26.89,189,-168,-2042,-23,39,105,-258,-529,271,393
,746,2023-10-27 11:18:26.90,191,-131,-2055,-21,58,99,-384,-603,219,493
,747,2023-10-27 11:18:26.91,189,-152,-2062,-29,48,99,-227,-486,259,356
,748,2023-10-27 11:18:26.92,180,-144,-2049,-50,32,103,-385,-628,243,506
,749,2023-10-27 11:18:26.93,189,-126,-2055,-60,26,103,-264,-564,300,414
,750,2023-10-27 11:18:26.94,193,-124,-2040,-60,18,95,-417,-684,267,550
,751,2023-10-27 11:18:26.95,190,-126,-2035,-62,15,89,-282,-592,310,437
,752,2023-10-27 11:18:26.96,203,-129,-2047,-66,14,82,-410,-697,287,553
,753,2023-10-27 11:18:26.97,202,-133,-2058,-69,12,75,-272,-606,334,439
,754,2023-10-27 11:18:26.98,212,-132,-2051,-64,8,68,-386,-652,266,519
,755,2023-10-27 11:18:26.99,209,-140,-2048,-50,1,60,-246,-527,281,386
,756,2023-10-27 11:18:27.00,208,-137,-2060,-40,-10,55,-382,-655,273,518
,757,2023-10-27 11:18:27.01,188,-149,-2060,-31,-26,51,-270,-615,345,442
,758,2023-10-27 11:18:27.02,187,-146,-2062,-18,-37,51,-398,-713,315,555
,759,2023-10-27 11:18:27.03,230,-143,-2116,-10,-35,51,-266,-612,346,439
,760,2023-10-27 11:18:27.04,166,-164,-2046,-8,-32,44,-378,-668,290,523
,761,2023-10-27 11:18:27.05,175,-161,-2060,13,-62,55,-269,-579,310,424
,762,2023-10-27 11:18:27.06,195,-172,-2081,23,-68,58,-380,-616,236,498
,763,2023-10-27 11:18:27.07,196,-160,-2071,27,-64,58,-275,-527,252,401
,764,2023-10-27 11:18:27.08,185,-157,-2057,39,-74,63,-363,-549,186,456
,765,2023-10-27 11:18:27.09,179,-165,-2058,53,-87,67,-257,-464,207,360
,766,2023-10-27 11:18:27.10,197,-158,-2062,52,-82,69,-357,-500,143,428
,767,2023-10-27 11:18:27.11,204,-158,-2062,38,-56,62,-270,-455,185,362
,768,2023-10-27 11:18:27.12,170,-151,-2038,25,-28,51,-371,-578,207,474
,769,2023-10-27 11:18:27.13,185,-147,-2043,17,-21,50,-288,-577,289,432
,770,2023-10-27 11:18:27.14,163,-164,-2043,22,-38,51,-358,-639,281,498
,771,2023-10-27 11:18:27.15,205,-158,-2051,32,-43,54,-286,-588,302,437
,772,2023-10-27 11:18:27.16,175,-164,-2047,25,-28,56,-370,-665,295,517
,773,2023-10-27 11:18:27.17,176,-157,-2038,12,-16,59,-309,-644,335,476
,774,2023-10-27 11:18:27.18,168,-172,-2043,-1,-4,61,-375,-683,308,529
,775,2023-10-27 11:18:27.19,171,-165,-2046,-6,-13,73,-302,-634,332,468
,776,2023-10-27 11:18:27.20,182,-167,-2049,-4,-25,81,-368,-734,366,551
,777,2023-10-27 11:18:27.21,163,-174,-2034,-5,-23,92,-311,-738,427,524
,778,2023-10-27 11:18:27.22,180,-156,-2037,-10,-18,92,-353,-720,367,536
,779,2023-10-27 11:18:27.23,177,-143,-2029,-19,-9,96,-297,-635,338,466
,780,2023-10-27 11:18:27.24,184,-146,-2044,-32,2,94,-338,-611,273,474
,781,2023-10-27 11:18:27.25,192,-135,-2052,-38,5,92,-300,-582,282,441
,782,2023-10-27 11:18:27.26,186,-131,-2047,-36,4,87,-356,-630,274,493
,783,2023-10-27 11:18:27.27,175,-129,-2047,-33,2,81,-328,-637,309,482
,784,2023-10-27 11:18:27.28,176,-125,-2049,-34,-10,77,-351,-632,281,491
,785,2023-10-27 11:18:27.29,180,-131,-2059,-31,-20,73,-315,-606,291,460
,786,2023-10-27 11:18:27.30,176,-134,-2056,-28,-21,68,-350,-604,254,477
,787,2023-10-27 11:18:27.31,163,-129,-2053,-26,-26,64,-336,-604,268,470
,788,2023-10-27 11:18:27.32,175,-141,-2063,-23,-29,59,-367,-632,265,499
,789,2023-10-27 11:18:27.33,167,-151,-2038,-18,-35,58,-354,-654,300,504
,790,2023-10-27 11:18:27.34,179,-133,-2022,4,-17,49,-390,-732,342,561
,791,2023-10-27 11:18:27.35,143,-126,-2095,12,-24,43,-388,-764,376,576
,792,2023-10-27 11:18:27.36,176,-150,-2066,5,-51,43,-362,-674,312,518
,793,2023-10-27 11:18:27.37,187,-140,-2059,18,-42,39,-344,-619,275,481
,794,2023-10-27 11:18:27.38,170,-135,-2123,16,-16,28,-339,-610,271,474
,795,2023-10-27 11:18:27.39,162,-161,-2076,-2,-23,25,-355,-658,303,506
,796,2023-10-27 11:18:27.40,151,-173,-2064,0,-16,23,-334,-647,313,490
,797,2023-10-27 11:18:27.41,139,-172,-2078,22,-36,27,-355,-663,308,509
,798,2023-10-27 11:18:27.42,162,-171,-2066,37,-44,29,-323,-584,261,453
,799,2023-10-27 11:18:27.43,153,-154,-2066,48,-45,30,-352,-592,240,472
,800,2023-10-27 11:18:27.44,161,-153,-2049,45,-30,27,-309,-507,198,408
,801,2023-10-27 11:18:27.45,140,-154,-2059,38,-22,27,-352,-544,192,448
,802,2023-10-27 11:18:27.46,141,-145,-2040,35,-33,29,-316,-498,182,407
,803,2023-10-27 11:18:27.47,131,-147,-2053,36,-45,34,-362,-557,195,459
,804,2023-10-27 11:18:27.48,124,-144,-2033,32,-46,34,-306,-479,173,392
,805,2023-10-27 11:18:27.49,118,-144,-2039,20,-48,35,-356,-534,178,445
,806,2023-10-27 11:18:27.50,135,-125,-2023,8,-55,38,-303,-471,168,387
,807,2023-10-27 11:18:27.51,126,-123,-2026,-7,-58,35,-366,-560,194,463
,808,2023-10-27 11:18:27.52,139,-104,-2020,-19,-50,32,-315,-568,253,441
,809,2023-10-27 11:18:27.53,130,-111,-2034,-30,-48,25,-382,-659,277,520
,810,2023-10-27 11:18:27.54,134,-126,-2047,-44,-49,20,-299,-551,252,425
,811,2023-10-27 11:18:27.55,124,-130,-2051,-43,-42,15,-360,-592,232,476
,812,2023-10-27 11:18:27.56,132,-139,-2041,-44,-34,12,-290,-543,253,416
,813,2023-10-27 11:18:27.57,124,-144,-2043,-42,-22,6,-373,-633,260,503
,814,2023-10-27 11:18:27.58,132,-147,-2047,-34,-25,5,-281,-544,263,412
,815,2023-10-27 11:18:27.59,129,-150,-2048,-18,-21,4,-361,-619,258,490
,816,2023-10-27 11:18:27.60,135,-149,-2050,-3,-24,1,-282,-591,309,436
,817,2023-10-27 11:18:27.61,138,-147,-2038,9,-20,-1,-384,-688,304,536
,818,2023-10-27 11:18:27.62,126,-151,-2049,18,-9,-3,-278,-550,272,414
,819,2023-10-27 11:18:27.63,123,-160,-2057,24,-2,-5,-366,-585,219,475
,820,2023-10-27 11:18:27.64,133,-157,-2055,34,1,-5,-258,-446,188,352
,821,2023-10-27 11:18:27.65,141,-152,-2049,39,14,-6,-366,-537,171,451
,822,2023-10-27 11:18:27.66,141,-149,-2051,34,30,-14,-248,-418,170,333
,823,2023-10-27 11:18:27.67,127,-149,-2052,23,47,-16,-365,-526,161,445
,824,2023-10-27 11:18:27.68,136,-145,-2044,19,55,-21,-259,-432,173,345
,825,2023-10-27 11:18:27.69,128,-165,-2051,20,56,-24,-392,-581,189,486
,826,2023-10-27 11:18:27.70,137,-162,-2045,27,53,-23,-292,-570,278,431
,827,2023-10-27 11:18:27.71,130,-166,-2049,31,48,-22,-416,-691,275,553
,828,2023-10-27 11:18:27.72,131,-175,-2016,37,50,-25,-264,-519,255,391
,829,2023-10-27 11:18:27.73,133,-155,-2034,58,24,-19,-380,-585,205,482
,830,2023-10-27 11:18:27.74,164,-155,-2032,65,28,-23,-238,-450,212,344
,831,2023-10-27 11:18:27.75,136,-155,-2030,61,48,-33,-377,-577,200,477
,832,2023-10-27 11:18:27.76,154,-156,-2046,54,51,-34,-230,-463,233,346
,833,2023-10-27 11:18:27.77,163,-175,-2045,52,61,-38,-369,-580,211,474
,834,2023-10-27 11:18:27.78,163,-170,-2047,52,69,-40,-218,-422,204,320
,835,2023-10-27 11:18:27.79,148,-174,-2030,53,59,-39,-365,-531,166,448
,836,2023-10-27 11:18:27.80,157,-141,-2075,49,65,-38,-204,-367,163,285
,837,2023-10-27 11:18:27.81,164,-148,-2092,22,73,-41,-357,-513,156,435
,838,2023-10-27 11:18:27.82,151,-187,-2041,1,74,-45,-216,-419,203,317
,839,2023-10-27 11:18:27.83,159,-198,-1982,16,62,-42,-382,-571,189,476
,840,2023-10-27 11:18:27.84,162,-184,-2051,35,69,-36,-235,-416,181,325
,841,2023-10-27 11:18:27.85,155,-192,-2072,33,51,-33,-394,-556,162,475
,842,2023-10-27 11:18:27.86,169,-190,-2047,30,43,-23,-239,-452,213,345
,843,2023-10-27 11:18:27.87,176,-198,-2051,30,59,-15,-402,-595,193,498
,844,2023-10-27 11:18:27.88,168,-209,-2037,25,65,-9,-234,-426,192,330
,845,2023-10-27 11:18:27.89,164,-205,-2034,24,57,2,-412,-580,168,496
,846,2023-10-27 11:18:27.90,180,-192,-2046,31,42,15,-263,-507,244,385
,847,2023-10-27 11:18:27.91,183,-178,-2030,33,53,18,-432,-664,232,548
,848,2023-10-27 11:18:27.92,183,-172,-2042,23,62,22,-246,-501,255,373
,849,2023-10-27 11:18:27.93,205,-158,-2041,-4,84,21,-409,-615,206,512
,850,2023-10-27 11:18:27.94,166,-156,-2046,-17,85,21,-230,-453,223,341
,851,2023-10-27 11:18:27.95,183,-155,-2054,-13,55,21,-407,-594,187,500
,852,2023-10-27 11:18:27.96,212,-143,-2055,-12,51,23,-219,-434,215,326
,853,2023-10-27 11:18:27.97,199,-148,-2055,-18,56,17,-397,-574,177,485
,854,2023-10-27 11:18:27.98,198,-147,-2030,-34,71,8,-210,-400,190,305
,855,2023-10-27 11:18:27.99,209,-139,-2055,-43,73,-2,-403,-576,173,489
,856,2023-10-27 11:18:28.00,207,-164,-2054,-35,70,-9,-227,-470,243,348
,857,2023-10-27 11:18:28.01,213,-158,-2062,-24,53,-11,-409,-619,210,514
,858,2023-10-27 11:18:28.02,203,-148,-2059,-21,56,-16,-214,-430,216,322
,859,2023-10-27 11:18:28.03,208,-137,-2070,-18,49,-22,-399,-554,155,476
,860,2023-10-27 11:18:28.04,212,-146,-2074,-26,62,-24,-201,-376,175,288
,861,2023-10-27 11:18:28.05,207,-143,-2079,-27,52,-30,-397,-548,151,472
,862,2023-10-27 11:18:28.06,209,-145,-2076,-19,27,-30,-208,-420,212,314
,863,2023-10-27 11:18:28.07,214,-155,-2066,-8,10,-30,-397,-579,182,488
,864,2023-10-27 11:18:28.08,207,-158,-2059,3,-13,-25,-194,-392,198,293
,865,2023-10-27 11:18:28.09,217,-159,-2046,9,-22,-19,-389,-552,163,470
,866,2023-10-27 11:18:28.10,220,-163,-2051,19,-25,-14,-193,-413,220,303
,867,2023-10-27 11:18:28.11,210,-161,-2042,24,-23,-9,-389,-569,180,479
,868,2023-10-27 11:18:28.12,213,-174,-2041,29,-14,-4,-191,-390,199,290
,869,2023-10-27 11:18:28.13,217,-184,-2043,34,-4,2,-388,-528,140,458
,870,2023-10-27 11:18:28.14,226,-182,-2050,35,6,13,-189,-351,162,270
,871,2023-10-27 11:18:28.15,216,-181,-2061,38,17,22,-387,-516,129,451
,872,2023-10-27 11:18:28.16,212,-175,-2055,38,26,32,-188,-362,174,275
,873,2023-10-27 11:18:28.17,216,-171,-2057,40,35,40,-383,-522,139,452
,874,2023-10-27 11:18:28.18,200,-192,-2076,38,33,49,-192,-360,168,276
,875,2023-10-27 11:18:28.19,192,-185,-2072,35,25,63,-399,-536,137,467
,876,2023-10-27 11:18:28.20,189,-179,-2075,34,19,77,-207,-402,195,304
,877,2023-10-27 11:18:28.21,197,-166,-2056,30,12,85,-406,-551,145,478
,878,2023-10-27 11:18:28.22,206,-146,-2043,16,9,90,-200,-366,166,283
,879,2023-10-27 11:18:28.23,219,-147,-2035,0,16,89,-399,-541,142,470
,880,2023-10-27 11:18:28.24,213,-137,-2029,-17,22,86,-206,-416,210,311
,881,2023-10-27 11:18:28.25,230,-131,-2038,-28,29,77,-420,-636,216,528
,882,2023-10-27 11:18:28.26,214,-123,-2041,-37,35,64,-220,-538,318,379
,883,2023-10-27 11:18:28.27,197,-119,-2060,-43,32,49,-422,-687,265,554
,884,2023-10-27 11:18:28.28,209,-120,-2073,-47,19,38,-232,-518,286,375
,885,2023-10-27 11:18:28.29,197,-120,-2082,-45,-2,34,-424,-651,227,537
,886,2023-10-27 11:18:28.30,203,-110,-2062,-39,-28,24,-237,-497,260,367
,887,2023-10-27 11:18:28.31,201,-114,-2055,-43,-44,16,-430,-652,222,541
,888,2023-10-27 11:18:28.32,192,-129,-2058,-42,-57,10,-232,-511,279,371
,889,2023-10-27 11:18:28.33,186,-140,-2053,-37,-73,12,-422,-670,248,546
,890,2023-10-27 11:18:28.34,185,-143,-2059,-26,-88,11,-233,-544,311,388
,891,2023-10-27 11:18:28.35,196,-152,-2041,-12,-96,19,-407,-652,245,529
,892,2023-10-27 11:18:28.36,195,-157,-2037,0,-101,23,-215,-468,253,341
,893,2023-10-27 11:18:28.37,185,-153,-2029,9,-107,31,-403,-614,211,508
,894,2023-10-27 11:18:28.38,210,-207,-1936,34,-107,29,-223,-503,280,363
,895,2023-10-27 11:18:28.39,158,-144,-2018,65,-78,37,-404,-619,215,511
,896,2023-10-27 11:18:28.40,144,-143,-2072,67,-98,51,-221,-454,233,337
,897,2023-10-27 11:18:28.41,173,-174,-2071,58,-99,68,-397,-571,174,484
,898,2023-10-27 11:18:28.42,218,-167,-2108,36,-51,70,-225,-442,217,333
,899,2023-10-27 11:18:28.43,156,-187,-2049,-1,-27,75,-396,-582,186,489
,900,2023-10-27 11:18:28.44,149,-178,-2010,-8,-19,90,-222,-456,234,339
,901,2023-10-27 11:18:28.45,153,-189,-2025,-1,-12,105,-401,-597,196,499
,902,2023-10-27 11:18:28.46,152,-211,-2061,20,-44,128,-237,-483,246,360
,903,2023-10-27 11:18:28.47,175,-198,-2063,36,-47,142,-420,-652,232,536
,904,2023-10-27 11:18:28.48,148,-188,-2040,38,-31,151,-270,-572,302,421
,905,2023-10-27 11:18:28.49,151,-170,-2036,28,-21,157,-426,-670,244,548
,906,2023-10-27 11:18:28.50,162,-153,-2025,15,-1,160,-252,-510,258,381
,907,2023-10-27 11:18:28.51,161,-150,-2031,12,10,154,-415,-624,209,519
,908,2023-10-27 11:18:28.52,152,-155,-2044,11,12,148,-253,-516,263,384
,909,2023-10-27 11:18:28.53,154,-159,-2063,7,17,143,-413,-633,220,523
,910,2023-10-27 11:18:28.54,155,-164,-2073,1,30,135,-258,-526,268,392
,911,2023-10-27 11:18:28.55,168,-158,-2051,11,20,136,-398,-639,241,518
,912,2023-10-27 11:18:28.56,171,-149,-2054,18,18,130,-237,-526,289,381
,913,2023-10-27 11:18:28.57,164,-141,-2058,17,20,120,-381,-593,212,487
,914,2023-10-27 11:18:28.58,157,-138,-2070,11,20,112,-227,-446,219,336
,915,2023-10-27 11:18:28.59,155,-149,-2067,13,13,105,-376,-544,168,460
,916,2023-10-27 11:18:28.60,156,-157,-2071,18,5,101,-235,-456,221,345
,917,2023-10-27 11:18:28.61,158,-154,-2062,17,1,97,-356,-520,164,438
,918,2023-10-27 11:18:28.62,142,-142,-2067,16,-7,92,-206,-389,183,297
,919,2023-10-27 11:18:28.63,124,-141,-2068,3,-13,82,-327,-456,129,391
,920,2023-10-27 11:18:28.64,156,-146,-2045,2,-26,81,-203,-366,163,284
,921,2023-10-27 11:18:28.65,152,-154,-2028,-1,-26,75,-330,-474,144,402
,922,2023-10-27 11:18:28.66,143,-158,-2026,-10,-30,71,-206,-405,199,305
,923,2023-10-27 11:18:28.67,153,-142,-2042,-16,-30,71,-333,-514,181,423
,924,2023-10-27 11:18:28.68,154,-149,-2038,-21,-23,68,-224,-453,229,338
,925,2023-10-27 11:18:28.69,145,-143,-2026,-25,-23,67,-346,-513,167,429
,926,2023-10-27 11:18:28.70,144,-146,-2043,-33,-21,66,-230,-412,182,321
,927,2023-10-27 11:18:28.71,159,-133,-2052,-41,-16,62,-359,-468,109,413
,928,2023-10-27 11:18:28.72,144,-138,-2063,-51,-12,58,-256,-402,146,329
,929,2023-10-27 11:18:28.73,152,-136,-2062,-48,-29,59,-367,-509,142,438
,930,2023-10-27 11:18:28.74,164,-140,-2062,-51,-23,58,-260,-470,210,365
,931,2023-10-27 11:18:28.75,167,-133,-2056,-56,-21,55,-353,-509,156,431
,932,2023-10-27 11:18:28.76,182,-127,-2053,-58,-25,53,-242,-422,180,332
,933,2023-10-27 11:18:28.77,167,-135,-2054,-59,-12,48,-322,-444,122,383
,934,2023-10-27 11:18:28.78,187,-140,-2043,-56,3,40,-231,-382,151,306
,935,2023-10-27 11:18:28.79,190,-133,-2041,-53,15,36,-325,-421,96,373
,936,2023-10-27 11:18:28.80,181,-145,-2057,-52,24,28,-252,-378,126,315
,937,2023-10-27 11:18:28.81,172,-146,-2070,-47,28,24,-341,-424,83,382
,938,2023-10-27 11:18:28.82,168,-144,-2068,-33,25,23,-263,-393,130,328
,939,2023-10-27 11:18:28.83,176,-149,-2081,-11,17,24,-342,-438,96,390
,940,2023-10-27 11:18:28.84,182,-153,-2089,-10,30,19,-276,-420,144,348
,941,2023-10-27 11:18:28.85,155,-140,-2066,-10,38,13,-345,-458,113,401
,942,2023-10-27 11:18:28.86,163,-142,-2077,1,26,12,-282,-431,149,356
,943,2023-10-27 11:18:28.87,163,-149,-2087,11,17,9,-353,-478,125,415
,944,2023-10-27 11:18:28.88,144,-146,-2102,20,-5,11,-292,-461,169,376
,945,2023-10-27 11:18:28.89,173,-131,-2094,23,-14,8,-342,-475,133,408
,946,2023-10-27 11:18:28.90,161,-126,-2102,16,-9,0,-292,-449,157,370
,947,2023-10-27 11:18:28.91,142,-133,-2083,5,-13,-3,-325,-431,106,378
,948,2023-10-27 11:18:28.92,157,-155,-2077,3,-27,0,-279,-407,128,343
,949,2023-10-27 11:18:28.93,164,-179,-2075,17,-23,3,-336,-427,91,381
,950,2023-10-27 11:18:28.94,144,-198,-2074,46,-14,4,-314,-437,123,375
,951,2023-10-27 11:18:28.95,156,-187,-2070,71,-29,12,-339,-451,112,395
,952,2023-10-27 11:18:28.96,167,-162,-2067,80,-29,21,-303,-454,151,378
,953,2023-10-27 11:18:28.97,163,-149,-2073,80,-22,29,-324,-431,107,377
,954,2023-10-27 11:18:28.98,132,-154,-2056,71,-17,33,-306,-435,129,370
,955,2023-10-27 11:18:28.99,155,-154,-2063,62,-25,41,-318,-429,111,373
,956,2023-10-27 11:18:29.00,150,-164,-2067,49,-12,46,-306,-457,151,381
,957,2023-10-27 11:18:29.01,132,-161,-2061,37,-8,54,-303,-420,117,361
,958,2023-10-27 11:18:29.02,146,-162,-2046,32,-6,59,-304,-438,134,371
,959,2023-10-27 11:18:29.03,141,-163,-2030,28,-7,61,-310,-467,157,388
,960,2023-10-27 11:18:29.04,149,-170,-2034,26,-10,65,-306,-520,214,413
,961,2023-10-27 11:18:29.05,158,-170,-2029,33,-14,70,-299,-500,201,399
,962,2023-10-27 11:18:29.06,150,-208,-2028,52,-18,73,-304,-509,205,406
,963,2023-10-27 11:18:29.07,155,-162,-2059,77,-11,71,-281,-441,160,361
,964,2023-10-27 11:18:29.08,150,-193,-2021,74,7,69,-287,-444,157,365
,965,2023-10-27 11:18:29.09,129,-182,-2033,71,-1,77,-259,-381,122,320
,966,2023-10-27 11:18:29.10,143,-191,-1987,75,-13,84,-293,-435,142,364
,967,2023-10-27 11:18:29.11,153,-202,-1959,93,-4,82,-273,-387,114,330
,968,2023-10-27 11:18:29.12,149,-190,-1972,113,-6,88,-325,-458,133,391
,969,2023-10-27 11:18:29.13,150,-183,-1953,106,9,88,-288,-402,114,345
,970,2023-10-27 11:18:29.14,138,-162,-1953,86,20,87,-341,-468,127,404
,971,2023-10-27 11:18:29.15,113,-171,-2004,72,16,90,-307,-436,129,371
,972,2023-10-27 11:18:29.16,127,-149,-2015,66,4,92,-352,-505,153,428
,973,2023-10-27 11:18:29.17,145,-141,-1986,52,12,84,-282,-402,120,342
,974,2023-10-27 11:18:29.18,96,-170,-1980,42,-6,79,-329,-450,121,389
