// Data mode  : Full
// Data quality  : High
// Acceleration sensor's range  : 16g
// Gyroscope sensor's range  : 2000dps
//
//ARTIFACT,NUM,DATE,ACC_X,ACC_Y,ACC_Z,GYRO_X,GYRO_Y,GYRO_Z,EOG_L,EOG_R,EOG_H,EOG_V
,1,2023-10-27 10:28:38.23,2,-28,-2053,22,-12,16,-109,332,-441,-111
,2,2023-10-27 10:28:38.24,-6,-33,-2053,16,-8,19,182,19,163,-100
,3,2023-10-27 10:28:38.25,-8,-34,-2052,12,-5,22,-118,338,-456,-110
,4,2023-10-27 10:28:38.26,-15,-29,-2053,5,-1,26,187,20,167,-103
,5,2023-10-27 10:28:38.27,-10,-24,-2056,-2,3,29,-118,349,-467,-115
,6,2023-10-27 10:28:38.28,-7,-16,-2054,-8,4,32,189,17,172,-103
,7,2023-10-27 10:28:38.29,1,-15,-2058,-14,6,25,-128,336,-464,-104
,8,2023-10-27 10:28:38.30,-5,-12,-2057,-17,6,22,190,8,182,-99
,9,2023-10-27 10:28:38.31,-5,-13,-2063,-17,7,16,-116,344,-460,-114
,10,2023-10-27 10:28:38.32,9,-11,-2060,-14,8,11,204,10,194,-107
,11,2023-10-27 10:28:38.33,5,-12,-2057,-12,11,6,-119,340,-459,-110
,12,2023-10-27 10:28:38.34,1,-11,-2051,-10,13,6,198,-3,201,-97
,13,2023-10-27 10:28:38.35,11,-19,-2052,-3,13,8,-131,326,-457,-97
,14,2023-10-27 10:28:38.36,7,-28,-2048,5,14,8,208,8,200,-108
,15,2023-10-27 10:28:38.37,3,-25,-2065,11,12,11,-119,348,-467,-114
,16,2023-10-27 10:28:38.38,-6,-16,-2072,20,8,15,216,7,209,-111
,17,2023-10-27 10:28:38.39,13,-18,-2071,24,5,14,-120,334,-454,-107
,18,2023-10-27 10:28:38.40,21,-17,-2062,27,10,17,212,-4,216,-104
,19,2023-10-27 10:28:38.41,11,-18,-2062,28,11,20,-133,338,-471,-102
,20,2023-10-27 10:28:38.42,6,-10,-2070,34,9,16,203,0,203,-101
,21,2023-10-27 10:28:38.43,-5,-10,-2080,36,3,13,-132,359,-491,-113
,22,2023-10-27 10:28:38.44,0,-18,-2079,34,-12,12,218,14,204,-116
,23,2023-10-27 10:28:38.45,-13,-26,-2066,34,-21,11,-127,356,-483,-114
,24,2023-10-27 10:28:38.46,0,-35,-2064,31,-25,14,215,-1,216,-107
,25,2023-10-27 10:28:38.47,-18,-37,-2058,31,-25,20,-146,343,-489,-98
,26,2023-10-27 10:28:38.48,-12,-36,-2055,25,-23,26,208,-1,209,-103
,27,2023-10-27 10:28:38.49,-14,-27,-2050,18,-15,25,-136,347,-483,-105
,28,2023-10-27 10:28:38.50,-4,-28,-2051,11,-6,27,219,3,216,-111
,29,2023-10-27 10:28:38.51,-14,-24,-2055,2,2,31,-140,347,-487,-103
,30,2023-10-27 10:28:38.52,-20,-25,-2063,0,8,28,216,9,207,-112
,31,2023-10-27 10:28:38.53,-9,-27,-2065,2,9,26,-133,354,-487,-110
,32,2023-10-27 10:28:38.54,6,-25,-2078,1,1,28,221,19,202,-120
,33,2023-10-27 10:28:38.55,0,-20,-2077,1,-3,32,-141,359,-500,-109
,34,2023-10-27 10:28:38.56,-2,-7,-2068,-4,-3,33,218,11,207,-114
,35,2023-10-27 10:28:38.57,6,-3,-2073,-8,-7,34,-136,344,-480,-104
,36,2023-10-27 10:28:38.58,15,3,-2060,-13,-3,32,220,1,219,-110
,37,2023-10-27 10:28:38.59,16,5,-2061,-14,6,25,-143,339,-482,-98
,38,2023-10-27 10:28:38.60,15,14,-2046,-11,14,16,212,1,211,-106
,39,2023-10-27 10:28:38.61,13,24,-2035,-13,27,6,-144,335,-479,-95
,40,2023-10-27 10:28:38.62,7,-5,-2059,-1,30,-3,219,-2,221,-108
,41,2023-10-27 10:28:38.63,7,-7,-2049,18,24,-6,-136,334,-470,-99
,42,2023-10-27 10:28:38.64,7,-23,-2046,29,13,-9,220,4,216,-112
,43,2023-10-27 10:28:38.65,-13,-17,-2046,35,10,-11,-139,338,-477,-99
,44,2023-10-27 10:28:38.66,-22,-22,-2062,39,6,-14,218,10,208,-114
,45,2023-10-27 10:28:38.67,-33,-19,-2062,40,0,-14,-134,334,-468,-100
,46,2023-10-27 10:28:38.68,-35,-15,-2070,38,-4,-10,213,18,195,-115
,47,2023-10-27 10:28:38.69,-27,-13,-2075,34,-13,-13,-144,343,-487,-99
,48,2023-10-27 10:28:38.70,-45,-5,-2071,25,-20,-11,212,12,200,-112
,49,2023-10-27 10:28:38.71,-42,4,-2076,13,-25,-9,-133,319,-452,-93
,50,2023-10-27 10:28:38.72,-35,3,-2072,-3,-25,-13,216,22,194,-119
,51,2023-10-27 10:28:38.73,-22,-5,-2063,-18,-27,-20,-132,346,-478,-107
,52,2023-10-27 10:28:38.74,-35,-1,-2067,-24,-20,-22,214,30,184,-122
,53,2023-10-27 10:28:38.75,-42,0,-2057,-23,-12,-29,-132,328,-460,-98
,54,2023-10-27 10:28:38.76,-36,-4,-2051,-18,-8,-33,206,25,181,-115
,55,2023-10-27 10:28:38.77,-23,-9,-2049,-14,4,-37,-130,335,-465,-102
,56,2023-10-27 10:28:38.78,-24,-11,-2047,-7,10,-42,206,36,170,-121
,57,2023-10-27 10:28:38.79,-30,-8,-2067,-1,8,-47,-130,337,-467,-103
,58,2023-10-27 10:28:38.80,-40,-2,-2064,10,5,-52,205,43,162,-124
,59,2023-10-27 10:28:38.81,-38,-9,-2069,12,10,-56,-132,329,-461,-98
,60,2023-10-27 10:28:38.82,-25,-27,-2063,17,12,-63,193,43,150,-118
,61,2023-10-27 10:28:38.83,-18,-20,-2061,26,13,-61,-136,312,-448,-88
,62,2023-10-27 10:28:38.84,-25,-25,-2047,28,15,-61,196,37,159,-116
,63,2023-10-27 10:28:38.85,-10,-25,-2049,33,15,-62,-118,306,-424,-94
,64,2023-10-27 10:28:38.86,-5,-32,-2034,38,20,-57,199,48,151,-123
,65,2023-10-27 10:28:38.87,-8,-39,-2040,35,26,-53,-118,313,-431,-97
,66,2023-10-27 10:28:38.88,-4,-34,-2036,37,30,-48,183,59,124,-121
,67,2023-10-27 10:28:38.89,-18,-40,-2047,38,25,-44,-127,310,-437,-91
,68,2023-10-27 10:28:38.90,-22,-27,-2046,36,25,-41,185,60,125,-122
,69,2023-10-27 10:28:38.91,-25,-40,-2061,32,25,-36,-109,301,-410,-96
,70,2023-10-27 10:28:38.92,-24,-42,-2070,34,23,-27,186,65,121,-125
,71,2023-10-27 10:28:38.93,-26,-41,-2075,29,19,-21,-114,302,-416,-94
,72,2023-10-27 10:28:38.94,-14,-50,-2066,20,16,-12,178,67,111,-122
,73,2023-10-27 10:28:38.95,-16,-49,-2064,17,16,-6,-108,293,-401,-92
,74,2023-10-27 10:28:38.96,-18,-49,-2069,15,17,1,172,78,94,-125
,75,2023-10-27 10:28:38.97,-13,-51,-2055,24,19,8,-105,292,-397,-93
,76,2023-10-27 10:28:38.98,2,-52,-2039,29,25,16,161,82,79,-121
,77,2023-10-27 10:28:38.99,1,-43,-2053,33,29,17,-108,286,-394,-89
,78,2023-10-27 10:28:39.00,0,-37,-2044,41,39,19,154,78,76,-116
,79,2023-10-27 10:28:39.01,-7,-38,-2045,47,48,20,-100,264,-364,-82
,80,2023-10-27 10:28:39.02,-11,-37,-2045,50,51,20,161,85,76,-123
,81,2023-10-27 10:28:39.03,-18,-40,-2061,54,53,17,-85,276,-361,-95
,82,2023-10-27 10:28:39.04,-14,-18,-2061,53,51,13,156,101,55,-128
,83,2023-10-27 10:28:39.05,-14,-38,-2086,50,47,13,-87,270,-357,-91
,84,2023-10-27 10:28:39.06,-10,-41,-2074,45,35,14,144,100,44,-122
,85,2023-10-27 10:28:39.07,-2,-29,-2066,30,33,13,-86,257,-343,-85
,86,2023-10-27 10:28:39.08,-9,-36,-2056,23,29,7,146,98,48,-122
,87,2023-10-27 10:28:39.09,-1,-28,-2049,20,27,4,-67,240,-307,-86
,88,2023-10-27 10:28:39.10,1,-40,-2032,14,24,0,143,107,36,-125
,89,2023-10-27 10:28:39.11,-6,-36,-2020,11,31,-3,-66,244,-310,-89
,90,2023-10-27 10:28:39.12,5,-49,-2022,6,42,-7,134,119,15,-126
,91,2023-10-27 10:28:39.13,20,-45,-2033,1,41,-9,-60,242,-302,-91
,92,2023-10-27 10:28:39.14,-6,-50,-2043,-4,48,-9,132,118,14,-125
,93,2023-10-27 10:28:39.15,10,-41,-2055,-5,49,-6,-51,230,-281,-89
,94,2023-10-27 10:28:39.16,-3,-42,-2052,-9,59,3,130,124,6,-127
,95,2023-10-27 10:28:39.17,19,-46,-2055,-10,54,16,-42,220,-262,-89
,96,2023-10-27 10:28:39.18,14,-37,-2061,-21,58,21,125,142,-17,-133
,97,2023-10-27 10:28:39.19,15,-22,-2072,-32,52,24,-42,228,-270,-93
,98,2023-10-27 10:28:39.20,21,-28,-2075,-39,51,30,115,150,-35,-132
,99,2023-10-27 10:28:39.21,22,-23,-2070,-40,44,43,-27,219,-246,-96
,100,2023-10-27 10:28:39.22,24,-34,-2063,-44,49,52,108,157,-49,-132
,101,2023-10-27 10:28:39.23,26,-30,-2063,-46,52,60,-31,211,-242,-90
,102,2023-10-27 10:28:39.24,37,-27,-2076,-43,52,71,90,149,-59,-119
,103,2023-10-27 10:28:39.25,34,-19,-2082,-42,53,82,-29,195,-224,-83
,104,2023-10-27 10:28:39.26,41,-10,-2091,-36,54,92,86,164,-78,-125
,105,2023-10-27 10:28:39.27,45,0,-2099,-25,43,98,-20,201,-221,-90
,106,2023-10-27 10:28:39.28,49,1,-2089,-16,37,100,84,166,-82,-125
,107,2023-10-27 10:28:39.29,39,5,-2087,-10,28,98,-12,188,-200,-88
,108,2023-10-27 10:28:39.30,35,7,-2083,-1,22,93,72,181,-109,-126
,109,2023-10-27 10:28:39.31,43,8,-2083,5,10,86,-16,192,-208,-88
,110,2023-10-27 10:28:39.32,38,3,-2083,16,-2,77,67,196,-129,-131
,111,2023-10-27 10:28:39.33,45,5,-2072,28,-11,71,0,186,-186,-93
,112,2023-10-27 10:28:39.34,32,-2,-2072,36,-21,67,66,201,-135,-133
,113,2023-10-27 10:28:39.35,27,-3,-2065,41,-31,59,8,176,-168,-92
,114,2023-10-27 10:28:39.36,23,-9,-2070,50,-42,54,62,195,-133,-128
,115,2023-10-27 10:28:39.37,4,-19,-2058,58,-53,50,14,166,-152,-90
,116,2023-10-27 10:28:39.38,10,-28,-2045,67,-58,47,46,205,-159,-125
,117,2023-10-27 10:28:39.39,18,-33,-2038,68,-53,43,14,166,-152,-90
,118,2023-10-27 10:28:39.40,9,-40,-2023,66,-42,38,46,213,-167,-129
,119,2023-10-27 10:28:39.41,15,-37,-2021,65,-27,32,30,161,-131,-95
,120,2023-10-27 10:28:39.42,13,-36,-2032,65,-11,26,38,225,-187,-131
,121,2023-10-27 10:28:39.43,15,-44,-2034,62,0,23,36,153,-117,-94
,122,2023-10-27 10:28:39.44,11,-49,-2052,54,9,21,37,219,-182,-128
,123,2023-10-27 10:28:39.45,9,-48,-2058,51,14,19,46,135,-89,-90
,124,2023-10-27 10:28:39.46,15,-51,-2064,46,16,25,24,226,-202,-125
,125,2023-10-27 10:28:39.47,24,-47,-2069,35,14,23,44,136,-92,-90
,126,2023-10-27 10:28:39.48,22,-45,-2069,22,16,22,16,241,-225,-128
,127,2023-10-27 10:28:39.49,12,-48,-2063,16,13,20,52,136,-84,-94
,128,2023-10-27 10:28:39.50,30,-37,-2053,6,15,19,11,251,-240,-131
,129,2023-10-27 10:28:39.51,35,-35,-2043,-1,19,19,49,138,-89,-93
,130,2023-10-27 10:28:39.52,34,-31,-2053,-7,26,15,-58,269,-327,-105
,131,2023-10-27 10:28:39.53,42,-38,-2055,-12,31,15,1,136,-135,-68
,132,2023-10-27 10:28:39.54,40,-39,-2064,-13,30,14,-72,273,-345,-100
,133,2023-10-27 10:28:39.55,38,-30,-2071,-14,28,20,36,122,-86,-79
,134,2023-10-27 10:28:39.56,30,-29,-2068,-14,27,24,-48,280,-328,-116
,135,2023-10-27 10:28:39.57,42,-24,-2070,-17,24,25,55,121,-66,-88
,136,2023-10-27 10:28:39.58,48,-18,-2078,-17,17,26,-52,281,-333,-114
,137,2023-10-27 10:28:39.59,28,-13,-2086,-14,8,28,59,118,-59,-88
,138,2023-10-27 10:28:39.60,41,-14,-2092,-9,-7,31,43,275,-232,-159
,139,2023-10-27 10:28:39.61,32,-13,-2088,-9,-15,35,169,103,66,-136
,140,2023-10-27 10:28:39.62,40,-14,-2075,-5,-23,41,68,277,-209,-172
,141,2023-10-27 10:28:39.63,26,-16,-2068,0,-28,43,154,96,58,-125
,142,2023-10-27 10:28:39.64,29,-15,-2066,9,-34,47,29,277,-248,-153
,143,2023-10-27 10:28:39.65,34,-11,-2063,17,-35,46,144,86,58,-115
,144,2023-10-27 10:28:39.66,19,-8,-2062,23,-37,45,26,285,-259,-155
,145,2023-10-27 10:28:39.67,23,-10,-2060,30,-37,41,161,83,78,-122
,146,2023-10-27 10:28:39.68,15,-13,-2066,39,-36,39,44,288,-244,-166
,147,2023-10-27 10:28:39.69,1,-16,-2061,48,-41,36,184,76,108,-130
,148,2023-10-27 10:28:39.70,3,-23,-2069,54,-42,32,41,300,-259,-170
,149,2023-10-27 10:28:39.71,6,-26,-2069,60,-48,34,189,77,112,-133
,150,2023-10-27 10:28:39.72,-5,-24,-2060,63,-53,33,28,297,-269,-162
,151,2023-10-27 10:28:39.73,6,-32,-2058,62,-56,34,185,64,121,-124
,152,2023-10-27 10:28:39.74,0,-36,-2065,59,-56,32,13,294,-281,-153
,153,2023-10-27 10:28:39.75,-15,-29,-2052,56,-54,29,184,62,122,-123
,154,2023-10-27 10:28:39.76,-11,-30,-2046,52,-49,22,7,313,-306,-160
,155,2023-10-27 10:28:39.77,-9,-37,-2043,46,-38,17,190,64,126,-127
,156,2023-10-27 10:28:39.78,-1,-32,-2043,42,-30,12,4,304,-300,-154
,157,2023-10-27 10:28:39.79,-11,-32,-2035,36,-21,8,194,56,138,-125
,158,2023-10-27 10:28:39.80,-13,-39,-2047,34,-12,5,-14,323,-337,-154
,159,2023-10-27 10:28:39.81,-6,-43,-2052,29,-9,6,189,62,127,-125
,160,2023-10-27 10:28:39.82,-15,-44,-2045,22,-5,6,-22,326,-348,-152
,161,2023-10-27 10:28:39.83,-20,-50,-2050,19,-2,7,197,52,145,-124
,162,2023-10-27 10:28:39.84,-16,-55,-2072,14,0,5,-20,323,-343,-151
,163,2023-10-27 10:28:39.85,-17,-37,-2067,15,2,2,207,46,161,-126
,164,2023-10-27 10:28:39.86,-9,-48,-2065,11,11,-4,-32,330,-362,-149
,165,2023-10-27 10:28:39.87,0,-48,-2063,15,19,-3,204,51,153,-127
,166,2023-10-27 10:28:39.88,-1,-48,-2054,19,26,4,-36,341,-377,-152
,167,2023-10-27 10:28:39.89,2,-52,-2072,22,28,12,213,49,164,-131
,168,2023-10-27 10:28:39.90,9,-53,-2071,24,22,17,-28,341,-369,-156
,169,2023-10-27 10:28:39.91,3,-67,-2072,27,15,24,224,41,183,-132
,170,2023-10-27 10:28:39.92,0,-75,-2073,31,7,38,-30,337,-367,-153
,171,2023-10-27 10:28:39.93,10,-56,-2064,33,0,48,228,32,196,-130
,172,2023-10-27 10:28:39.94,9,-45,-2057,39,-3,52,-39,345,-384,-153
,173,2023-10-27 10:28:39.95,4,-38,-2042,38,-1,53,234,35,199,-134
,174,2023-10-27 10:28:39.96,11,-39,-2048,36,-2,53,-32,346,-378,-157
,175,2023-10-27 10:28:39.97,-1,-40,-2049,32,-4,51,246,30,216,-138
,176,2023-10-27 10:28:39.98,-13,-32,-2060,24,-9,48,-37,343,-380,-153
,177,2023-10-27 10:28:39.99,-3,-39,-2065,20,-13,43,244,24,220,-134
,178,2023-10-27 10:28:40.00,-5,-39,-2065,18,-18,40,-45,344,-389,-149
,179,2023-10-27 10:28:40.01,-19,-36,-2056,15,-21,38,252,20,232,-136
,180,2023-10-27 10:28:40.02,2,-48,-2061,14,-24,38,-37,339,-376,-151
,181,2023-10-27 10:28:40.03,-7,-41,-2058,17,-24,35,261,21,240,-141
,182,2023-10-27 10:28:40.04,-14,-38,-2055,20,-21,32,-54,349,-403,-147
,183,2023-10-27 10:28:40.05,0,-41,-2060,22,-18,29,255,20,235,-137
,184,2023-10-27 10:28:40.06,2,-31,-2057,24,-19,27,-48,347,-395,-149
,185,2023-10-27 10:28:40.07,-21,-36,-2055,24,-20,24,261,13,248,-137
,186,2023-10-27 10:28:40.08,-11,-42,-2060,24,-19,25,-62,346,-408,-142
,187,2023-10-27 10:28:40.09,-1,-42,-2068,22,-22,23,254,14,240,-134
,188,2023-10-27 10:28:40.10,-17,-44,-2071,21,-22,21,-64,349,-413,-142
,189,2023-10-27 10:28:40.11,-15,-41,-2063,19,-19,20,260,8,252,-134
,190,2023-10-27 10:28:40.12,-4,-45,-2062,16,-12,22,-66,346,-412,-140
,191,2023-10-27 10:28:40.13,-2,-44,-2053,15,-7,22,208,17,191,-112
,192,2023-10-27 10:28:40.14,-10,-43,-2055,13,-2,18,-208,376,-584,-84
,193,2023-10-27 10:28:40.15,3,-48,-2058,14,0,20,125,34,91,-79
,194,2023-10-27 10:28:40.16,-4,-49,-2061,18,2,22,-199,379,-578,-90
,195,2023-10-27 10:28:40.17,-14,-49,-2058,21,0,23,170,33,137,-101
,196,2023-10-27 10:28:40.18,-10,-47,-2055,19,2,26,-177,380,-557,-101
,197,2023-10-27 10:28:40.19,-7,-38,-2054,16,0,20,176,31,145,-103
,198,2023-10-27 10:28:40.20,-6,-41,-2061,17,0,19,-180,376,-556,-98
,199,2023-10-27 10:28:40.21,-4,-40,-2062,18,-5,18,180,26,154,-103
,200,2023-10-27 10:28:40.22,0,-47,-2064,18,-5,14,-176,369,-545,-96
,201,2023-10-27 10:28:40.23,-12,-46,-2054,16,-7,16,190,27,163,-108
,202,2023-10-27 10:28:40.24,5,-48,-2058,13,-9,12,-170,378,-548,-104
,203,2023-10-27 10:28:40.25,-11,-51,-2057,13,-11,14,192,32,160,-112
,204,2023-10-27 10:28:40.26,-5,-48,-2065,13,-13,17,-169,372,-541,-101
,205,2023-10-27 10:28:40.27,-9,-50,-2063,13,-15,17,201,27,174,-114
,206,2023-10-27 10:28:40.28,-1,-55,-2064,12,-15,21,-162,369,-531,-103
,207,2023-10-27 10:28:40.29,-5,-55,-2064,8,-17,26,202,25,177,-113
,208,2023-10-27 10:28:40.30,-7,-46,-2063,10,-23,29,-164,368,-532,-102
,209,2023-10-27 10:28:40.31,-8,-46,-2066,8,-16,31,199,33,166,-116
,210,2023-10-27 10:28:40.32,-16,-48,-2060,7,-13,33,-170,377,-547,-103
,211,2023-10-27 10:28:40.33,-6,-48,-2056,12,-10,34,197,36,161,-116
,212,2023-10-27 10:28:40.34,-7,-43,-2061,14,-11,31,-164,368,-532,-102
,213,2023-10-27 10:28:40.35,-16,-40,-2058,15,-8,25,202,30,172,-116
,214,2023-10-27 10:28:40.36,-2,-44,-2069,21,-10,24,-160,366,-526,-103
,215,2023-10-27 10:28:40.37,-9,-38,-2075,21,-16,22,201,37,164,-119
,216,2023-10-27 10:28:40.38,-13,-37,-2066,20,-18,16,-156,373,-529,-108
,217,2023-10-27 10:28:40.39,-8,-41,-2067,23,-25,15,200,35,165,-117
,218,2023-10-27 10:28:40.40,-14,-41,-2061,25,-29,10,-162,360,-522,-99
,219,2023-10-27 10:28:40.41,-14,-49,-2063,23,-25,9,185,23,162,-104
,220,2023-10-27 10:28:40.42,-14,-55,-2045,28,-27,9,-164,347,-511,-91
,221,2023-10-27 10:28:40.43,-19,-65,-2058,28,-32,8,195,34,161,-114
,222,2023-10-27 10:28:40.44,-28,-64,-2051,33,-33,15,-153,358,-511,-102
,223,2023-10-27 10:28:40.45,-25,-65,-2058,34,-30,22,197,42,155,-119
,224,2023-10-27 10:28:40.46,-24,-63,-2057,35,-32,27,-155,351,-506,-98
,225,2023-10-27 10:28:40.47,-22,-64,-2058,36,-27,33,189,40,149,-114
,226,2023-10-27 10:28:40.48,-22,-53,-2052,33,-28,36,-157,350,-507,-96
,227,2023-10-27 10:28:40.49,-25,-49,-2049,29,-20,36,191,51,140,-121
,228,2023-10-27 10:28:40.50,-27,-57,-2055,29,-13,34,-148,350,-498,-101
,229,2023-10-27 10:28:40.51,-33,-53,-2062,30,-12,31,195,49,146,-122
,230,2023-10-27 10:28:40.52,-23,-57,-2057,28,-13,28,-146,340,-486,-97
,231,2023-10-27 10:28:40.53,-30,-56,-2050,28,-16,26,190,47,143,-118
,232,2023-10-27 10:28:40.54,-31,-64,-2068,24,-19,26,-146,333,-479,-93
,233,2023-10-27 10:28:40.55,-44,-55,-2065,22,-25,22,186,56,130,-121
,234,2023-10-27 10:28:40.56,-35,-58,-2061,17,-23,22,-145,336,-481,-95
,235,2023-10-27 10:28:40.57,-35,-58,-2053,12,-14,22,184,63,121,-123
,236,2023-10-27 10:28:40.58,-22,-53,-2051,9,-7,27,-144,333,-477,-94
,237,2023-10-27 10:28:40.59,-38,-54,-2061,9,-7,27,181,64,117,-122
,238,2023-10-27 10:28:40.60,-29,-64,-2063,11,-12,27,-138,324,-462,-93
,239,2023-10-27 10:28:40.61,-26,-70,-2055,13,-15,29,176,61,115,-118
,240,2023-10-27 10:28:40.62,-33,-79,-2053,16,-17,37,-142,318,-460,-88
,241,2023-10-27 10:28:40.63,-28,-73,-2036,19,-15,46,173,70,103,-121
,242,2023-10-27 10:28:40.64,-26,-63,-2013,18,-4,48,-129,313,-442,-92
,243,2023-10-27 10:28:40.65,-26,-54,-2017,12,-2,48,175,73,102,-124
,244,2023-10-27 10:28:40.66,-30,-46,-2036,5,2,47,-129,313,-442,-92
,245,2023-10-27 10:28:40.67,-32,-49,-2053,-5,7,46,163,85,78,-124
,246,2023-10-27 10:28:40.68,-26,-46,-2068,-17,11,44,-124,310,-434,-93
,247,2023-10-27 10:28:40.69,-28,-42,-2068,-25,9,44,163,86,77,-124
,248,2023-10-27 10:28:40.70,-21,-47,-2065,-30,6,46,-117,300,-417,-91
,249,2023-10-27 10:28:40.71,-19,-37,-2077,-38,1,47,157,88,69,-122
,250,2023-10-27 10:28:40.72,-11,-31,-2083,-40,-2,49,-118,301,-419,-91
,251,2023-10-27 10:28:40.73,-24,-29,-2081,-40,-6,50,148,104,44,-126
,252,2023-10-27 10:28:40.74,-9,-34,-2078,-36,-13,51,-114,298,-412,-92
,253,2023-10-27 10:28:40.75,-13,-30,-2080,-28,-17,60,149,102,47,-125
,254,2023-10-27 10:28:40.76,-7,-36,-2083,-20,-24,64,-102,281,-383,-89
,255,2023-10-27 10:28:40.77,-19,-25,-2069,-11,-29,65,140,100,40,-120
,256,2023-10-27 10:28:40.78,-20,-25,-2075,-3,-35,67,-102,277,-379,-87
,257,2023-10-27 10:28:40.79,-20,-22,-2080,10,-40,70,138,120,18,-129
,258,2023-10-27 10:28:40.80,-37,-28,-2084,19,-51,71,-98,279,-377,-90
,259,2023-10-27 10:28:40.81,-46,-31,-2076,28,-54,70,131,115,16,-123
,260,2023-10-27 10:28:40.82,-52,-37,-2064,35,-57,71,-102,253,-355,-75
,261,2023-10-27 10:28:40.83,-53,-36,-2064,38,-58,75,125,121,4,-123
,262,2023-10-27 10:28:40.84,-56,-31,-2056,40,-63,75,-88,264,-352,-88
,263,2023-10-27 10:28:40.85,-50,-36,-2038,39,-60,73,122,147,-25,-134
,264,2023-10-27 10:28:40.86,-41,-58,-2021,35,-50,73,-79,262,-341,-91
,265,2023-10-27 10:28:40.87,-46,-65,-2021,37,-44,81,120,142,-22,-131
,266,2023-10-27 10:28:40.88,-46,-68,-2026,44,-35,88,-73,248,-321,-87
,267,2023-10-27 10:28:40.89,-56,-73,-2029,50,-17,96,110,144,-34,-127
,268,2023-10-27 10:28:40.90,-48,-70,-2037,50,-9,110,-70,242,-312,-86
,269,2023-10-27 10:28:40.91,-59,-57,-2047,41,-1,120,105,151,-46,-128
,270,2023-10-27 10:28:40.92,-63,-46,-2054,30,4,124,-60,237,-297,-88
,271,2023-10-27 10:28:40.93,-60,-37,-2052,23,3,122,97,151,-54,-124
,272,2023-10-27 10:28:40.94,-44,-38,-2046,12,1,121,-59,224,-283,-82
,273,2023-10-27 10:28:40.95,-48,-37,-2049,4,3,116,82,162,-80,-122
,274,2023-10-27 10:28:40.96,-45,-46,-2045,0,12,115,-56,232,-288,-88
,275,2023-10-27 10:28:40.97,-30,-48,-2043,1,21,113,84,175,-91,-129
,276,2023-10-27 10:28:40.98,-19,-53,-2036,-1,23,115,-39,225,-264,-93
,277,2023-10-27 10:28:40.99,-17,-57,-2054,0,33,124,84,176,-92,-130
,278,2023-10-27 10:28:41.00,-25,-54,-2054,0,35,129,-32,211,-243,-89
,279,2023-10-27 10:28:41.01,-13,-48,-2072,2,38,141,73,177,-104,-125
,280,2023-10-27 10:28:41.02,-11,-40,-2080,4,37,149,-30,207,-237,-88
,281,2023-10-27 10:28:41.03,-5,-27,-2076,8,35,154,57,189,-132,-123
,282,2023-10-27 10:28:41.04,-2,-22,-2065,8,32,157,-29,200,-229,-85
,283,2023-10-27 10:28:41.05,1,-19,-2065,14,27,155,55,191,-136,-123
,284,2023-10-27 10:28:41.06,-3,-38,-2076,23,17,156,-10,191,-201,-90
,285,2023-10-27 10:28:41.07,-15,-47,-2083,34,6,155,56,194,-138,-125
,286,2023-10-27 10:28:41.08,-32,-48,-2095,44,-6,160,-6,183,-189,-88
,287,2023-10-27 10:28:41.09,-23,-48,-2096,56,-24,167,44,209,-165,-126
,288,2023-10-27 10:28:41.10,-30,-56,-2084,63,-32,177,-5,181,-186,-88
,289,2023-10-27 10:28:41.11,-41,-59,-2079,71,-43,180,35,209,-174,-122
,290,2023-10-27 10:28:41.12,-49,-59,-2078,80,-55,187,5,169,-164,-87
,291,2023-10-27 10:28:41.13,-51,-64,-2050,83,-62,190,32,220,-188,-126
,292,2023-10-27 10:28:41.14,-47,-79,-2026,87,-65,191,13,169,-156,-91
,293,2023-10-27 10:28:41.15,-58,-105,-2038,106,-72,193,24,223,-199,-123
,294,2023-10-27 10:28:41.16,-54,-99,-2032,120,-82,192,16,159,-143,-87
,295,2023-10-27 10:28:41.17,-45,-106,-2035,125,-75,198,15,230,-215,-122
,296,2023-10-27 10:28:41.18,-55,-107,-2032,122,-65,203,22,154,-132,-88
,297,2023-10-27 10:28:41.19,-55,-103,-2035,116,-47,210,10,234,-224,-122
,298,2023-10-27 10:28:41.20,-73,-98,-2039,105,-36,212,40,154,-114,-97
,299,2023-10-27 10:28:41.21,-85,-82,-2050,96,-38,217,8,242,-234,-125
,300,2023-10-27 10:28:41.22,-89,-85,-2089,84,-38,214,43,145,-102,-94
,301,2023-10-27 10:28:41.23,-103,-106,-2093,74,-47,210,-12,242,-254,-115
,302,2023-10-27 10:28:41.24,-99,-110,-2076,78,-60,212,48,142,-94,-95
,303,2023-10-27 10:28:41.25,-94,-112,-2078,66,-70,213,-7,256,-263,-124
,304,2023-10-27 10:28:41.26,-88,-108,-2058,56,-70,209,62,134,-72,-98
,305,2023-10-27 10:28:41.27,-79,-112,-2021,56,-66,196,-8,261,-269,-126
,306,2023-10-27 10:28:41.28,-57,-105,-2011,51,-49,190,64,126,-62,-95
,307,2023-10-27 10:28:41.29,-66,-95,-2024,48,-18,188,-21,263,-284,-121
,308,2023-10-27 10:28:41.30,-69,-75,-2041,59,8,183,67,122,-55,-94
,309,2023-10-27 10:28:41.31,-50,-66,-2049,66,14,183,-28,276,-304,-124
,310,2023-10-27 10:28:41.32,-74,-58,-2078,51,31,183,70,123,-53,-96
,311,2023-10-27 10:28:41.33,-68,-49,-2075,35,40,174,-42,288,-330,-123
,312,2023-10-27 10:28:41.34,-61,-37,-2074,20,41,164,74,115,-41,-94
,313,2023-10-27 10:28:41.35,-67,-38,-2070,1,44,151,-42,286,-328,-122
,314,2023-10-27 10:28:41.36,-44,-33,-2064,-11,33,134,84,109,-25,-96
,315,2023-10-27 10:28:41.37,-45,-40,-2049,-26,26,125,-46,296,-342,-125
,316,2023-10-27 10:28:41.38,-45,-35,-2049,-44,22,116,90,104,-14,-97
,317,2023-10-27 10:28:41.39,-42,-44,-2054,-60,22,108,-53,300,-353,-123
,318,2023-10-27 10:28:41.40,-45,-47,-2062,-72,21,108,95,98,-3,-96
,319,2023-10-27 10:28:41.41,-31,-67,-2044,-75,26,110,-59,296,-355,-118
,320,2023-10-27 10:28:41.42,-25,-66,-2038,-67,30,117,103,92,11,-97
,321,2023-10-27 10:28:41.43,-28,-70,-2042,-56,27,126,-62,308,-370,-123
,322,2023-10-27 10:28:41.44,-42,-68,-2059,-46,23,131,108,94,14,-101
,323,2023-10-27 10:28:41.45,-41,-66,-2056,-33,17,129,-72,323,-395,-125
,324,2023-10-27 10:28:41.46,-42,-60,-2071,-13,7,130,111,91,20,-101
,325,2023-10-27 10:28:41.47,-50,-69,-2064,12,-14,133,-78,319,-397,-120
,326,2023-10-27 10:28:41.48,-61,-64,-2061,37,-41,138,120,80,40,-100
,327,2023-10-27 10:28:41.49,-77,-69,-2064,60,-67,139,-77,318,-395,-120
,328,2023-10-27 10:28:41.50,-82,-72,-2063,77,-95,132,133,76,57,-104
,329,2023-10-27 10:28:41.51,-97,-70,-2064,83,-116,130,-79,326,-405,-123
,330,2023-10-27 10:28:41.52,-95,-77,-2070,88,-126,129,137,73,64,-105
,331,2023-10-27 10:28:41.53,-99,-66,-2075,93,-136,123,-87,327,-414,-120
,332,2023-10-27 10:28:41.54,-95,-67,-2082,93,-132,115,137,64,73,-100
,333,2023-10-27 10:28:41.55,-122,-46,-2061,86,-139,110,-92,330,-422,-119
,334,2023-10-27 10:28:41.56,-125,-47,-2080,63,-119,92,148,59,89,-103
,335,2023-10-27 10:28:41.57,-124,-59,-2081,44,-111,80,-94,336,-430,-121
,336,2023-10-27 10:28:41.58,-120,-58,-2065,30,-97,65,152,59,93,-105
,337,2023-10-27 10:28:41.59,-129,-56,-2048,13,-82,50,-99,339,-438,-120
,338,2023-10-27 10:28:41.60,-110,-55,-2033,-11,-68,33,154,54,100,-104
,339,2023-10-27 10:28:41.61,-123,-53,-2006,-27,-49,14,-100,343,-443,-121
,340,2023-10-27 10:28:41.62,-109,-59,-2009,-40,-29,-5,159,50,109,-104
,341,2023-10-27 10:28:41.63,-113,-53,-2008,-50,-8,-24,-105,345,-450,-120
,342,2023-10-27 10:28:41.64,-94,-58,-2014,-55,16,-44,155,41,114,-98
,343,2023-10-27 10:28:41.65,-94,-62,-2012,-54,35,-59,-113,346,-459,-116
,344,2023-10-27 10:28:41.66,-98,-75,-2010,-59,57,-69,168,41,127,-104
,345,2023-10-27 10:28:41.67,-92,-85,-2010,-56,77,-73,-113,352,-465,-119
,346,2023-10-27 10:28:41.68,-88,-78,-2016,-49,86,-76,171,40,131,-105
,347,2023-10-27 10:28:41.69,-80,-91,-2022,-41,97,-72,-119,352,-471,-116
,348,2023-10-27 10:28:41.70,-74,-91,-2023,-33,101,-71,176,39,137,-107
,349,2023-10-27 10:28:41.71,-79,-79,-2035,-17,101,-64,-121,360,-481,-119
,350,2023-10-27 10:28:41.72,-82,-86,-2047,-6,96,-52,181,38,143,-109
,351,2023-10-27 10:28:41.73,-76,-84,-2059,-7,82,-46,-126,356,-482,-115
,352,2023-10-27 10:28:41.74,-89,-74,-2075,-8,78,-44,183,28,155,-105
,353,2023-10-27 10:28:41.75,-90,-85,-2080,-4,64,-37,-131,349,-480,-109
,354,2023-10-27 10:28:41.76,-94,-86,-2090,0,40,-28,185,32,153,-108
,355,2023-10-27 10:28:41.77,-110,-79,-2107,-4,30,-15,-131,366,-497,-117
,356,2023-10-27 10:28:41.78,-97,-84,-2104,-3,2,-10,189,37,152,-113
,357,2023-10-27 10:28:41.79,-103,-91,-2088,3,-19,0,-139,368,-507,-114
,358,2023-10-27 10:28:41.80,-105,-92,-2072,1,-32,7,190,32,158,-111
,359,2023-10-27 10:28:41.81,-105,-81,-2069,-4,-31,14,-138,366,-504,-114
,360,2023-10-27 10:28:41.82,-105,-76,-2061,-3,-33,13,200,22,178,-111
,361,2023-10-27 10:28:41.83,-96,-75,-2056,-6,-25,16,-138,355,-493,-108
,362,2023-10-27 10:28:41.84,-106,-68,-2066,-9,-16,18,197,19,178,-108
,363,2023-10-27 10:28:41.85,-102,-59,-2062,-14,-4,10,-145,361,-506,-108
,364,2023-10-27 10:28:41.86,-90,-49,-2049,-21,8,2,199,21,178,-110
,365,2023-10-27 10:28:41.87,-91,-47,-2043,-26,22,-7,-145,361,-506,-108
,366,2023-10-27 10:28:41.88,-92,-46,-2038,-25,37,-15,201,11,190,-106
,367,2023-10-27 10:28:41.89,-87,-42,-2033,-26,41,-24,-150,350,-500,-100
,368,2023-10-27 10:28:41.90,-96,-44,-2036,-26,50,-37,204,13,191,-108
,369,2023-10-27 10:28:41.91,-80,-49,-2039,-23,51,-42,-150,372,-522,-111
,370,2023-10-27 10:28:41.92,-77,-41,-2034,-20,52,-47,205,24,181,-114
,371,2023-10-27 10:28:41.93,-85,-58,-2034,-15,51,-50,-148,368,-516,-110
,372,2023-10-27 10:28:41.94,-100,-55,-2038,-8,49,-48,206,20,186,-113
,373,2023-10-27 10:28:41.95,-71,-53,-2055,-11,46,-46,-150,367,-517,-108
,374,2023-10-27 10:28:41.96,-72,-44,-2054,-13,52,-46,205,21,184,-113
,375,2023-10-27 10:28:41.97,-65,-50,-2053,-17,60,-47,-150,368,-518,-109
,376,2023-10-27 10:28:41.98,-57,-49,-2059,-13,68,-44,210,15,195,-112
,377,2023-10-27 10:28:41.99,-51,-51,-2064,-6,70,-43,-152,358,-510,-103
,378,2023-10-27 10:28:42.00,-50,-43,-2064,-2,71,-44,211,8,203,-109
,379,2023-10-27 10:28:42.01,-53,-56,-2062,0,67,-40,-151,351,-502,-100
,380,2023-10-27 10:28:42.02,-61,-59,-2070,4,57,-37,217,19,198,-118
,381,2023-10-27 10:28:42.03,-58,-56,-2076,6,49,-38,-153,365,-518,-106
,382,2023-10-27 10:28:42.04,-50,-55,-2081,10,41,-38,211,18,193,-114
,383,2023-10-27 10:28:42.05,-64,-56,-2080,15,31,-35,-165,338,-503,-86
,384,2023-10-27 10:28:42.06,-58,-60,-2069,12,29,-31,209,13,196,-111
,385,2023-10-27 10:28:42.07,-41,-80,-2054,7,17,-26,-156,355,-511,-99
,386,2023-10-27 10:28:42.08,-57,-77,-2069,1,4,-17,217,28,189,-122
,387,2023-10-27 10:28:42.09,-58,-73,-2068,3,5,-9,-151,360,-511,-104
,388,2023-10-27 10:28:42.10,-48,-72,-2063,5,-1,3,214,11,203,-112
,389,2023-10-27 10:28:42.11,-56,-74,-2059,0,0,15,-156,337,-493,-90
,390,2023-10-27 10:28:42.12,-58,-71,-2059,0,-1,20,211,8,203,-109
,391,2023-10-27 10:28:42.13,-59,-64,-2053,-3,-3,27,-152,338,-490,-93
,392,2023-10-27 10:28:42.14,-54,-54,-2063,-4,-8,29,213,22,191,-117
,393,2023-10-27 10:28:42.15,-57,-56,-2064,-1,-10,30,-149,352,-501,-101
,394,2023-10-27 10:28:42.16,-61,-47,-2066,0,-16,29,206,25,181,-115
,395,2023-10-27 10:28:42.17,-68,-48,-2053,1,-17,29,-152,349,-501,-98
,396,2023-10-27 10:28:42.18,-68,-53,-2051,3,-24,29,203,19,184,-111
,397,2023-10-27 10:28:42.19,-67,-55,-2063,4,-35,26,-153,339,-492,-93
,398,2023-10-27 10:28:42.20,-69,-48,-2052,4,-36,23,201,24,177,-112
,399,2023-10-27 10:28:42.21,-70,-52,-2052,3,-34,24,-152,340,-492,-94
,400,2023-10-27 10:28:42.22,-69,-57,-2039,4,-24,24,197,32,165,-114
,401,2023-10-27 10:28:42.23,-73,-48,-2033,3,-13,23,-149,340,-489,-95
,402,2023-10-27 10:28:42.24,-66,-46,-2042,-2,-5,22,199,24,175,-111
,403,2023-10-27 10:28:42.25,-74,-47,-2052,-2,-2,14,-144,322,-466,-89
,404,2023-10-27 10:28:42.26,-69,-50,-2062,-1,1,14,202,30,172,-116
,405,2023-10-27 10:28:42.27,-79,-58,-2070,5,3,15,-140,331,-471,-95
,406,2023-10-27 10:28:42.28,-80,-55,-2064,7,3,16,196,39,157,-117
,407,2023-10-27 10:28:42.29,-72,-53,-2055,8,0,16,-144,326,-470,-91
,408,2023-10-27 10:28:42.30,-72,-46,-2051,9,-4,11,194,35,159,-114
,409,2023-10-27 10:28:42.31,-77,-44,-2047,7,-4,7,-136,315,-451,-89
,410,2023-10-27 10:28:42.32,-67,-49,-2057,2,-5,5,190,47,143,-118
,411,2023-10-27 10:28:42.33,-81,-53,-2059,0,-5,2,-136,325,-461,-94
,412,2023-10-27 10:28:42.34,-80,-60,-2057,1,-8,0,189,47,142,-118
,413,2023-10-27 10:28:42.35,-67,-59,-2055,3,-4,3,-133,308,-441,-87
,414,2023-10-27 10:28:42.36,-77,-54,-2056,3,-4,9,185,46,139,-115
,415,2023-10-27 10:28:42.37,-78,-49,-2065,2,-6,12,-128,308,-436,-90
,416,2023-10-27 10:28:42.38,-81,-50,-2073,1,-13,15,182,67,115,-124
,417,2023-10-27 10:28:42.39,-86,-55,-2068,-5,-22,19,-124,315,-439,-95
,418,2023-10-27 10:28:42.40,-85,-53,-2073,-4,-31,26,183,59,124,-121
,419,2023-10-27 10:28:42.41,-96,-58,-2082,0,-35,33,-120,295,-415,-87
,420,2023-10-27 10:28:42.42,-97,-56,-2062,7,-38,42,177,62,115,-119
,421,2023-10-27 10:28:42.43,-96,-58,-2058,6,-36,49,-110,301,-411,-95
,422,2023-10-27 10:28:42.44,-81,-56,-2044,8,-37,53,172,74,98,-123
,423,2023-10-27 10:28:42.45,-94,-56,-2033,11,-36,56,-114,291,-405,-88
,424,2023-10-27 10:28:42.46,-93,-55,-2036,11,-31,55,157,60,97,-108
,425,2023-10-27 10:28:42.47,-92,-53,-2038,14,-23,56,-108,280,-388,-86
,426,2023-10-27 10:28:42.48,-92,-49,-2039,14,-15,57,168,73,95,-120
,427,2023-10-27 10:28:42.49,-90,-49,-2050,16,-6,60,-101,278,-379,-88
,428,2023-10-27 10:28:42.50,-87,-55,-2044,14,1,56,157,90,67,-123
,429,2023-10-27 10:28:42.51,-96,-58,-2051,14,8,57,-103,277,-380,-87
,430,2023-10-27 10:28:42.52,-87,-51,-2050,13,14,55,147,88,59,-117
,431,2023-10-27 10:28:42.53,-81,-57,-2053,14,17,57,-101,268,-369,-83
,432,2023-10-27 10:28:42.54,-96,-54,-2055,8,21,59,145,104,41,-124
,433,2023-10-27 10:28:42.55,-86,-50,-2058,8,20,55,-89,272,-361,-91
,434,2023-10-27 10:28:42.56,-76,-49,-2062,10,15,55,142,108,34,-125
,435,2023-10-27 10:28:42.57,-76,-45,-2059,10,12,55,-86,259,-345,-86
,436,2023-10-27 10:28:42.58,-78,-43,-2060,6,6,56,133,115,18,-124
,437,2023-10-27 10:28:42.59,-79,-47,-2060,1,1,54,-86,259,-345,-86
,438,2023-10-27 10:28:42.60,-74,-42,-2069,-6,-4,51,127,110,17,-118
,439,2023-10-27 10:28:42.61,-80,-35,-2068,-10,-2,45,-77,237,-314,-80
,440,2023-10-27 10:28:42.62,-90,-36,-2060,-9,0,41,125,121,4,-123
,441,2023-10-27 10:28:42.63,-86,-34,-2055,-11,0,40,-68,243,-311,-87
,442,2023-10-27 10:28:42.64,-82,-36,-2061,-15,-3,38,120,124,-4,-122
,443,2023-10-27 10:28:42.65,-81,-40,-2064,-20,-9,36,-64,229,-293,-82
,444,2023-10-27 10:28:42.66,-96,-43,-2057,-24,-8,33,110,142,-32,-126
,445,2023-10-27 10:28:42.67,-74,-33,-2061,-25,0,32,-59,241,-300,-91
,446,2023-10-27 10:28:42.68,-82,-37,-2062,-24,6,35,101,153,-52,-127
,447,2023-10-27 10:28:42.69,-92,-29,-2057,-22,10,38,-57,230,-287,-86
,448,2023-10-27 10:28:42.70,-93,-28,-2060,-18,10,41,91,151,-60,-121
,449,2023-10-27 10:28:42.71,-86,-42,-2051,-16,10,41,-48,216,-264,-84
,450,2023-10-27 10:28:42.72,-76,-38,-2052,-9,10,44,89,153,-64,-121
,451,2023-10-27 10:28:42.73,-79,-42,-2050,2,8,48,-42,208,-250,-83
,452,2023-10-27 10:28:42.74,-77,-38,-2047,13,8,46,87,157,-70,-122
,453,2023-10-27 10:28:42.75,-71,-33,-2036,21,9,45,-31,203,-234,-86
,454,2023-10-27 10:28:42.76,-63,-36,-2038,29,15,47,85,170,-85,-127
,455,2023-10-27 10:28:42.77,-59,-33,-2037,36,17,46,-25,202,-227,-88
,456,2023-10-27 10:28:42.78,-64,-37,-2047,45,15,45,72,176,-104,-124
,457,2023-10-27 10:28:42.79,-55,-49,-2053,55,7,45,-20,190,-210,-85
,458,2023-10-27 10:28:42.80,-77,-55,-2042,57,5,48,66,180,-114,-123
,459,2023-10-27 10:28:42.81,-73,-73,-2059,59,2,55,-13,189,-202,-88
,460,2023-10-27 10:28:42.82,-83,-65,-2056,65,-10,67,59,200,-141,-129
,461,2023-10-27 10:28:42.83,-78,-75,-2057,67,-13,80,-7,195,-202,-94
,462,2023-10-27 10:28:42.84,-73,-65,-2041,69,-21,90,65,208,-143,-136
,463,2023-10-27 10:28:42.85,-76,-79,-2039,67,-35,104,4,177,-173,-90
,464,2023-10-27 10:28:42.86,-75,-80,-2042,66,-50,121,54,197,-143,-125
,465,2023-10-27 10:28:42.87,-82,-81,-2042,59,-55,135,0,156,-156,-78
,466,2023-10-27 10:28:42.88,-88,-65,-2026,59,-73,146,42,211,-169,-126
,467,2023-10-27 10:28:42.89,-92,-71,-2050,56,-77,160,13,168,-155,-90
,468,2023-10-27 10:28:42.90,-89,-82,-2053,36,-81,172,33,220,-187,-126
,469,2023-10-27 10:28:42.91,-84,-49,-2069,26,-80,182,20,170,-150,-95
,470,2023-10-27 10:28:42.92,-81,-55,-2066,15,-76,191,23,238,-215,-130
,471,2023-10-27 10:28:42.93,-73,-18,-2068,-3,-66,196,25,160,-135,-92
,472,2023-10-27 10:28:42.94,-80,-16,-2057,-26,-47,190,21,232,-211,-126
,473,2023-10-27 10:28:42.95,-65,1,-2067,-46,-32,182,39,147,-108,-93
,474,2023-10-27 10:28:42.96,-73,3,-2068,-64,-15,171,17,241,-224,-129
,475,2023-10-27 10:28:42.97,-80,16,-2072,-79,1,156,45,150,-105,-97
,476,2023-10-27 10:28:42.98,-84,4,-2086,-84,5,139,15,248,-233,-131
,477,2023-10-27 10:28:42.99,-60,25,-2064,-86,5,123,55,139,-84,-97
,478,2023-10-27 10:28:43.00,-78,33,-2047,-90,5,106,11,238,-227,-124
,479,2023-10-27 10:28:43.01,-69,29,-2044,-94,20,90,65,120,-55,-92
,480,2023-10-27 10:28:43.02,-74,27,-2042,-92,23,71,8,245,-237,-126
,481,2023-10-27 10:28:43.03,-88,16,-2032,-87,17,53,70,125,-55,-97
,482,2023-10-27 10:28:43.04,-70,4,-2036,-73,17,41,-3,257,-260,-127
,483,2023-10-27 10:28:43.05,-83,2,-2059,-59,18,28,72,114,-42,-93
,484,2023-10-27 10:28:43.06,-69,-5,-2042,-36,16,16,-10,250,-260,-120
,485,2023-10-27 10:28:43.07,-68,-1,-2043,-17,25,1,83,104,-21,-93
,486,2023-10-27 10:28:43.08,-70,-1,-2059,-5,26,-6,-14,259,-273,-122
,487,2023-10-27 10:28:43.09,-81,6,-2070,3,40,-13,86,107,-21,-96
,488,2023-10-27 10:28:43.10,-77,6,-2078,18,32,-20,-22,280,-302,-129
,489,2023-10-27 10:28:43.11,-75,13,-2077,17,23,-30,91,109,-18,-100
,490,2023-10-27 10:28:43.12,-75,-2,-2082,9,16,-41,-30,273,-303,-121
,491,2023-10-27 10:28:43.13,-75,-5,-2088,2,7,-45,102,86,16,-94
,492,2023-10-27 10:28:43.14,-94,-4,-2083,-2,-6,-45,-29,267,-296,-119
,493,2023-10-27 10:28:43.15,-103,-17,-2085,0,-19,-47,108,82,26,-95
,494,2023-10-27 10:28:43.16,-103,-29,-2085,-3,-29,-41,-39,279,-318,-120
,495,2023-10-27 10:28:43.17,-104,-24,-2083,-5,-40,-36,110,84,26,-97
,496,2023-10-27 10:28:43.18,-104,-35,-2077,-7,-51,-31,-47,298,-345,-125
,497,2023-10-27 10:28:43.19,-102,-36,-2070,-9,-58,-26,116,80,36,-98
,498,2023-10-27 10:28:43.20,-116,-41,-2074,-6,-67,-20,-54,284,-338,-115
,499,2023-10-27 10:28:43.21,-122,-46,-2079,-2,-65,-14,118,67,51,-92
,500,2023-10-27 10:28:43.22,-116,-45,-2074,3,-74,-7,-60,300,-360,-120
,501,2023-10-27 10:28:43.23,-133,-31,-2060,9,-74,-2,126,77,49,-101
,502,2023-10-27 10:28:43.24,-134,-28,-2038,7,-72,6,-65,318,-383,-126
,503,2023-10-27 10:28:43.25,-142,-29,-2045,-1,-68,11,138,89,49,-113
,504,2023-10-27 10:28:43.26,-142,-30,-2044,-6,-66,13,-76,313,-389,-118
,505,2023-10-27 10:28:43.27,-135,-21,-2037,-14,-58,16,132,60,72,-96
,506,2023-10-27 10:28:43.28,-116,-26,-2018,-20,-55,16,-88,285,-373,-98
,507,2023-10-27 10:28:43.29,-114,-27,-2011,-23,-26,19,142,52,90,-97
,508,2023-10-27 10:28:43.30,-104,-24,-2007,-25,-4,19,-87,320,-407,-116
,509,2023-10-27 10:28:43.31,-123,-18,-2009,-23,18,16,146,72,74,-109
,510,2023-10-27 10:28:43.32,-109,-20,-2023,-21,38,14,-88,332,-420,-122
,511,2023-10-27 10:28:43.33,-118,-19,-2017,-14,55,14,149,58,91,-103
,512,2023-10-27 10:28:43.34,-110,-32,-2026,-3,66,10,-93,322,-415,-114
,513,2023-10-27 10:28:43.35,-118,-29,-2035,3,72,11,156,45,111,-100
,514,2023-10-27 10:28:43.36,-108,-23,-2060,12,69,11,-95,323,-418,-114
,515,2023-10-27 10:28:43.37,-123,-16,-2051,11,71,8,158,48,110,-103
,516,2023-10-27 10:28:43.38,-103,-20,-2049,10,84,9,-103,338,-441,-117
,517,2023-10-27 10:28:43.39,-117,-27,-2059,12,89,11,162,44,118,-103
,518,2023-10-27 10:28:43.40,-99,-14,-2086,12,86,13,-106,328,-434,-111
,519,2023-10-27 10:28:43.41,-103,-2,-2077,9,77,11,172,32,140,-102
,520,2023-10-27 10:28:43.42,-107,-6,-2075,0,73,10,-108,339,-447,-115
,521,2023-10-27 10:28:43.43,-99,-12,-2069,-9,62,10,172,41,131,-106
,522,2023-10-27 10:28:43.44,-107,-17,-2075,-16,48,18,-116,350,-466,-117
,523,2023-10-27 10:28:43.45,-118,-15,-2075,-20,41,20,170,34,136,-102
,524,2023-10-27 10:28:43.46,-105,-12,-2065,-22,28,19,-121,338,-459,-108
,525,2023-10-27 10:28:43.47,-107,-4,-2069,-27,19,21,178,24,154,-101
,526,2023-10-27 10:28:43.48,-92,-2,-2056,-29,19,23,-124,348,-472,-112
,527,2023-10-27 10:28:43.49,-104,1,-2053,-35,18,20,179,32,147,-105
,528,2023-10-27 10:28:43.50,-102,-7,-2054,-36,20,17,-129,351,-480,-111
,529,2023-10-27 10:28:43.51,-106,-8,-2056,-37,23,14,180,29,151,-104
,530,2023-10-27 10:28:43.52,-102,-16,-2063,-34,24,14,-131,355,-486,-112
,531,2023-10-27 10:28:43.53,-97,-17,-2058,-32,30,15,188,27,161,-107
,532,2023-10-27 10:28:43.54,-93,-9,-2056,-25,38,18,-133,350,-483,-108
,533,2023-10-27 10:28:43.55,-102,-6,-2050,-23,45,20,190,18,172,-104
,534,2023-10-27 10:28:43.56,-87,-10,-2054,-22,53,21,-138,348,-486,-105
,535,2023-10-27 10:28:43.57,-91,-8,-2054,-14,49,22,193,22,171,-107
,536,2023-10-27 10:28:43.58,-90,1,-2051,-8,50,26,-138,360,-498,-111
,537,2023-10-27 10:28:43.59,-89,-11,-2048,-2,51,30,196,24,172,-110
,538,2023-10-27 10:28:43.60,-84,-20,-2047,5,46,33,-136,355,-491,-109
,539,2023-10-27 10:28:43.61,-86,-10,-2050,8,45,36,201,13,188,-107
,540,2023-10-27 10:28:43.62,-76,-8,-2052,11,48,38,-142,352,-494,-105
,541,2023-10-27 10:28:43.63,-72,0,-2040,15,51,42,200,15,185,-107
,542,2023-10-27 10:28:43.64,-66,-8,-2055,18,51,46,-146,361,-507,-107
,543,2023-10-27 10:28:43.65,-79,2,-2056,24,59,47,201,14,187,-107
,544,2023-10-27 10:28:43.66,-70,-4,-2063,28,62,45,-138,361,-499,-111
,545,2023-10-27 10:28:43.67,-72,-5,-2052,32,60,48,207,9,198,-108
,546,2023-10-27 10:28:43.68,-65,-16,-2056,37,64,56,-145,362,-507,-108
,547,2023-10-27 10:28:43.69,-77,-9,-2054,41,63,58,202,6,196,-104
,548,2023-10-27 10:28:43.70,-66,-5,-2056,47,69,62,-145,363,-508,-109
,549,2023-10-27 10:28:43.71,-60,-10,-2054,48,77,63,208,20,188,-114
,550,2023-10-27 10:28:43.72,-51,-11,-2043,49,79,68,-148,375,-523,-113
,551,2023-10-27 10:28:43.73,-60,-14,-2034,54,85,67,212,16,196,-114
,552,2023-10-27 10:28:43.74,-51,-10,-2038,60,82,67,-149,360,-509,-105
,553,2023-10-27 10:28:43.75,-49,-15,-2055,65,85,66,212,18,194,-115
,554,2023-10-27 10:28:43.76,-51,-11,-2057,70,88,70,-152,369,-521,-108
,555,2023-10-27 10:28:43.77,-58,-19,-2054,76,82,68,210,20,190,-115
,556,2023-10-27 10:28:43.78,-55,-20,-2055,75,76,68,-154,363,-517,-104
,557,2023-10-27 10:28:43.79,-58,-28,-2053,75,65,67,214,14,200,-114
,558,2023-10-27 10:28:43.80,-54,-21,-2054,70,58,66,-148,356,-504,-104
,559,2023-10-27 10:28:43.81,-41,-25,-2055,64,49,62,216,18,198,-117
,560,2023-10-27 10:28:43.82,-47,-27,-2048,58,47,62,-152,363,-515,-105
,561,2023-10-27 10:28:43.83,-38,-20,-2049,52,44,59,209,21,188,-115
,562,2023-10-27 10:28:43.84,-48,-13,-2055,45,44,56,-160,360,-520,-100
,563,2023-10-27 10:28:43.85,-45,-19,-2054,28,43,52,207,21,186,-114
,564,2023-10-27 10:28:43.86,-55,-23,-2058,17,39,47,-156,358,-514,-101
,565,2023-10-27 10:28:43.87,-56,-23,-2062,4,36,47,210,22,188,-116
,566,2023-10-27 10:28:43.88,-58,-26,-2068,-6,29,52,-154,355,-509,-100
,567,2023-10-27 10:28:43.89,-61,-26,-2074,-18,24,51,210,22,188,-116
,568,2023-10-27 10:28:43.90,-60,-21,-2079,-30,20,54,-154,356,-510,-101
,569,2023-10-27 10:28:43.91,-71,-10,-2080,-42,15,59,211,31,180,-121
,570,2023-10-27 10:28:43.92,-55,-6,-2084,-59,9,59,-152,358,-510,-103
,571,2023-10-27 10:28:43.93,-57,1,-2093,-70,1,62,210,34,176,-122
,572,2023-10-27 10:28:43.94,-59,5,-2089,-78,-6,59,-149,353,-502,-102
,573,2023-10-27 10:28:43.95,-52,15,-2089,-87,-8,60,211,24,187,-117
,574,2023-10-27 10:28:43.96,-64,17,-2089,-91,-13,56,-148,339,-487,-95
,575,2023-10-27 10:28:43.97,-48,25,-2075,-95,-18,57,205,34,171,-119
,576,2023-10-27 10:28:43.98,-41,23,-2068,-100,-10,55,-151,351,-502,-100
,577,2023-10-27 10:28:43.99,-49,34,-2051,-101,-6,53,205,33,172,-119
,578,2023-10-27 10:28:44.00,-26,37,-2040,-102,6,47,-148,336,-484,-94
,579,2023-10-27 10:28:44.01,-32,33,-2020,-88,25,39,201,28,173,-114
,580,2023-10-27 10:28:44.02,-30,32,-2046,-69,32,35,-149,332,-481,-91
,581,2023-10-27 10:28:44.03,-28,26,-2051,-50,29,27,199,42,157,-120
,582,2023-10-27 10:28:44.04,-24,27,-2049,-35,36,17,-146,344,-490,-99
,583,2023-10-27 10:28:44.05,-17,13,-2044,-19,49,13,196,50,146,-123
,584,2023-10-27 10:28:44.06,-29,8,-2050,0,63,10,-140,333,-473,-96
,585,2023-10-27 10:28:44.07,-9,13,-2057,24,68,7,204,42,162,-123
,586,2023-10-27 10:28:44.08,-16,10,-2057,52,65,7,-140,311,-451,-85
,587,2023-10-27 10:28:44.09,-24,8,-2051,72,59,5,189,40,149,-114
,588,2023-10-27 10:28:44.10,-26,-9,-2054,87,52,7,-147,308,-455,-80
,589,2023-10-27 10:28:44.11,-35,-11,-2050,101,40,13,188,53,135,-120
,590,2023-10-27 10:28:44.12,-32,-13,-2056,112,31,20,-135,320,-455,-92
,591,2023-10-27 10:28:44.13,-23,-16,-2054,121,27,21,187,55,132,-121
,592,2023-10-27 10:28:44.14,-27,-19,-2058,122,24,27,-129,309,-438,-90
,593,2023-10-27 10:28:44.15,-21,-19,-2064,124,20,30,185,49,136,-117
,594,2023-10-27 10:28:44.16,-28,-9,-2063,119,16,30,-128,301,-429,-86
,595,2023-10-27 10:28:44.17,-41,-12,-2078,112,12,31,170,67,103,-118
,596,2023-10-27 10:28:44.18,-35,-18,-2070,100,12,30,-130,313,-443,-91
,597,2023-10-27 10:28:44.19,-40,-22,-2075,89,8,28,171,61,110,-116
,598,2023-10-27 10:28:44.20,-40,-34,-2084,79,-1,31,-116,286,-402,-85
,599,2023-10-27 10:28:44.21,-46,-28,-2070,70,-6,36,172,73,99,-122
,600,2023-10-27 10:28:44.22,-52,-34,-2064,58,-13,36,-119,306,-425,-93
,601,2023-10-27 10:28:44.23,-53,-42,-2063,45,-17,39,160,84,76,-122
,602,2023-10-27 10:28:44.24,-37,-30,-2058,39,-17,41,-116,292,-408,-88
,603,2023-10-27 10:28:44.25,-43,-36,-2048,31,-16,46,158,87,71,-122
,604,2023-10-27 10:28:44.26,-52,-46,-2051,26,-15,44,-104,285,-389,-90
,605,2023-10-27 10:28:44.27,-56,-39,-2056,26,-15,47,161,90,71,-125
,606,2023-10-27 10:28:44.28,-54,-38,-2055,23,-15,46,-99,282,-381,-91
,607,2023-10-27 10:28:44.29,-47,-39,-2052,22,-14,45,151,95,56,-123
,608,2023-10-27 10:28:44.30,-46,-40,-2042,21,-5,44,-100,274,-374,-87
,609,2023-10-27 10:28:44.31,-32,-27,-2043,18,1,44,141,99,42,-120
,610,2023-10-27 10:28:44.32,-46,-28,-2040,16,11,40,-92,265,-357,-86
,611,2023-10-27 10:28:44.33,-48,-25,-2038,15,13,35,142,100,42,-121
,612,2023-10-27 10:28:44.34,-51,-26,-2042,11,18,35,-87,259,-346,-86
,613,2023-10-27 10:28:44.35,-49,-24,-2051,9,17,31,138,111,27,-124
,614,2023-10-27 10:28:44.36,-55,-22,-2046,8,14,31,-81,257,-338,-88
,615,2023-10-27 10:28:44.37,-45,-24,-2051,2,11,31,130,113,17,-121
,616,2023-10-27 10:28:44.38,-52,-18,-2054,-4,5,27,-73,244,-317,-85
,617,2023-10-27 10:28:44.39,-53,-11,-2060,-6,1,27,127,112,15,-119
,618,2023-10-27 10:28:44.40,-44,-21,-2069,-11,-7,26,-69,237,-306,-84
,619,2023-10-27 10:28:44.41,-41,-4,-2081,-17,-11,22,115,119,-4,-117
,620,2023-10-27 10:28:44.42,-39,-2,-2075,-25,-9,20,-63,226,-289,-81
,621,2023-10-27 10:28:44.43,-42,-3,-2078,-35,-12,20,112,128,-16,-120
,622,2023-10-27 10:28:44.44,-55,1,-2079,-42,-11,18,-60,232,-292,-86
,623,2023-10-27 10:28:44.45,-52,10,-2069,-52,-16,16,99,140,-41,-119
,624,2023-10-27 10:28:44.46,-49,7,-2078,-62,-19,9,-57,222,-279,-82
,625,2023-10-27 10:28:44.47,-51,16,-2066,-65,-17,4,97,148,-51,-122
,626,2023-10-27 10:28:44.48,-49,15,-2063,-68,-22,2,-33,233,-266,-100
,627,2023-10-27 10:28:44.49,-47,6,-2065,-65,-22,2,97,155,-58,-126
,628,2023-10-27 10:28:44.50,-46,15,-2053,-60,-23,0,-36,212,-248,-88
,629,2023-10-27 10:28:44.51,-48,7,-2054,-57,-20,0,83,138,-55,-110
,630,2023-10-27 10:28:44.52,-46,7,-2055,-53,-18,0,-33,192,-225,-79
,631,2023-10-27 10:28:44.53,-36,15,-2051,-45,-12,0,81,161,-80,-121
,632,2023-10-27 10:28:44.54,-37,10,-2033,-35,-3,1,-30,195,-225,-82
,633,2023-10-27 10:28:44.55,-25,20,-2036,-22,6,1,82,176,-94,-129
,634,2023-10-27 10:28:44.56,-33,17,-2035,-12,10,2,-15,195,-210,-90
,635,2023-10-27 10:28:44.57,-36,8,-2043,-2,15,2,67,171,-104,-119
,636,2023-10-27 10:28:44.58,-35,10,-2045,6,16,5,-16,178,-194,-81
,637,2023-10-27 10:28:44.59,-41,14,-2057,15,15,6,66,185,-119,-125
,638,2023-10-27 10:28:44.60,-38,13,-2066,23,6,11,0,188,-188,-94
,639,2023-10-27 10:28:44.61,-43,19,-2065,27,-3,14,66,202,-136,-134
,640,2023-10-27 10:28:44.62,-35,12,-2070,30,-12,16,8,177,-169,-92
,641,2023-10-27 10:28:44.63,-47,12,-2077,30,-17,16,51,187,-136,-119
,642,2023-10-27 10:28:44.64,-43,17,-2073,32,-20,24,8,158,-150,-83
,643,2023-10-27 10:28:44.65,-50,11,-2065,32,-24,23,46,204,-158,-125
,644,2023-10-27 10:28:44.66,-49,8,-2060,26,-24,24,17,165,-148,-91
,645,2023-10-27 10:28:44.67,-50,0,-2062,23,-22,27,36,212,-176,-124
,646,2023-10-27 10:28:44.68,-47,-2,-2053,23,-20,28,25,152,-127,-88
,647,2023-10-27 10:28:44.69,-53,-4,-2046,27,-14,33,30,207,-177,-118
,648,2023-10-27 10:28:44.70,-43,-19,-2061,34,-8,35,32,145,-113,-88
,649,2023-10-27 10:28:44.71,-41,-15,-2066,39,-11,39,29,222,-193,-125
,650,2023-10-27 10:28:44.72,-51,-11,-2058,37,-9,38,43,146,-103,-94
,651,2023-10-27 10:28:44.73,-39,-9,-2056,38,-1,37,23,227,-204,-125
,652,2023-10-27 10:28:44.74,-47,2,-2055,40,9,37,47,135,-88,-91
,653,2023-10-27 10:28:44.75,-35,5,-2058,44,19,38,11,226,-215,-118
,654,2023-10-27 10:28:44.76,-52,8,-2059,40,17,30,56,123,-67,-89
,655,2023-10-27 10:28:44.77,-44,-4,-2055,41,16,27,11,235,-224,-123
,656,2023-10-27 10:28:44.78,-49,-12,-2049,35,12,25,58,128,-70,-93
,657,2023-10-27 10:28:44.79,-38,-15,-2050,33,9,27,-8,246,-254,-119
,658,2023-10-27 10:28:44.80,-37,-13,-2053,32,8,27,57,118,-61,-87
,659,2023-10-27 10:28:44.81,-37,-10,-2049,33,9,20,-13,246,-259,-116
,660,2023-10-27 10:28:44.82,-34,-12,-2044,33,5,16,71,111,-40,-91
,661,2023-10-27 10:28:44.83,-38,0,-2049,34,6,12,-12,253,-265,-120
,662,2023-10-27 10:28:44.84,-40,-7,-2060,29,-2,7,75,111,-36,-93
,663,2023-10-27 10:28:44.85,-37,-5,-2064,25,-8,-1,-24,264,-288,-120
,664,2023-10-27 10:28:44.86,-47,-6,-2060,18,-11,-6,79,101,-22,-90
,665,2023-10-27 10:28:44.87,-44,-11,-2067,12,-14,-12,-29,263,-292,-117
,666,2023-10-27 10:28:44.88,-48,-7,-2069,5,-19,-16,89,96,-7,-92
,667,2023-10-27 10:28:44.89,-37,-2,-2059,-7,-18,-24,-22,281,-303,-129
,668,2023-10-27 10:28:44.90,-34,4,-2059,-19,-19,-37,96,94,2,-95
,669,2023-10-27 10:28:44.91,-37,0,-2070,-29,-19,-51,-38,282,-320,-122
,670,2023-10-27 10:28:44.92,-32,21,-2076,-33,-24,-72,100,82,18,-91
,671,2023-10-27 10:28:44.93,-20,25,-2076,-38,-24,-96,-47,287,-334,-120
,672,2023-10-27 10:28:44.94,-37,33,-2062,-43,-20,-121,103,92,11,-97
,673,2023-10-27 10:28:44.95,-21,27,-2049,-55,-15,-148,-59,285,-344,-113
,674,2023-10-27 10:28:44.96,-34,17,-2061,-62,-25,-171,113,76,37,-94
,675,2023-10-27 10:28:44.97,-22,6,-2077,-63,-38,-203,-55,282,-337,-113
,676,2023-10-27 10:28:44.98,-18,18,-2080,-67,-48,-237,120,72,48,-96
,677,2023-10-27 10:28:44.99,-6,20,-2070,-90,-40,-262,-63,304,-367,-120
,678,2023-10-27 10:28:45.00,13,26,-2058,-119,-11,-282,121,76,45,-98
,679,2023-10-27 10:28:45.01,28,21,-2063,-139,8,-306,-72,301,-373,-114
,680,2023-10-27 10:28:45.02,24,11,-2071,-153,30,-321,126,62,64,-94
,681,2023-10-27 10:28:45.03,33,-19,-2070,-167,35,-326,-75,310,-385,-117
,682,2023-10-27 10:28:45.04,30,-31,-2059,-178,24,-327,128,69,59,-98
,683,2023-10-27 10:28:45.05,47,-33,-2044,-183,24,-320,-88,321,-409,-116
,684,2023-10-27 10:28:45.06,56,-46,-2042,-184,20,-302,132,63,69,-97
,685,2023-10-27 10:28:45.07,46,-56,-2031,-181,20,-277,-88,321,-409,-116
,686,2023-10-27 10:28:45.08,44,-54,-2022,-165,18,-242,141,59,82,-100
,687,2023-10-27 10:28:45.09,24,-60,-2023,-146,13,-209,-89,327,-416,-119
,688,2023-10-27 10:28:45.10,27,-71,-2031,-121,2,-175,146,54,92,-100
,689,2023-10-27 10:28:45.11,26,-57,-2030,-92,-14,-143,-100,321,-421,-110
,690,2023-10-27 10:28:45.12,14,-47,-2048,-56,-36,-105,146,43,103,-94
,691,2023-10-27 10:28:45.13,-21,-48,-2075,-18,-57,-69,-103,328,-431,-112
,692,2023-10-27 10:28:45.14,-37,-54,-2093,18,-89,-39,154,47,107,-100
,693,2023-10-27 10:28:45.15,-52,-42,-2111,50,-134,-6,-106,343,-449,-118
,694,2023-10-27 10:28:45.16,-56,-21,-2120,69,-186,26,158,55,103,-106
,695,2023-10-27 10:28:45.17,-85,14,-2126,77,-212,53,-116,354,-470,-119
,696,2023-10-27 10:28:45.18,-80,2,-2114,84,-276,76,156,49,107,-102
,697,2023-10-27 10:28:45.19,-107,30,-2127,68,-267,88,-121,344,-465,-111
,698,2023-10-27 10:28:45.20,-136,44,-2122,50,-282,100,159,46,113,-102
,699,2023-10-27 10:28:45.21,-171,34,-2129,36,-358,108,-126,358,-484,-116
,700,2023-10-27 10:28:45.22,-176,36,-2122,26,-415,115,194,43,151,-118
,701,2023-10-27 10:28:45.23,-169,46,-2096,14,-474,122,19,349,-330,-184
,702,2023-10-27 10:28:45.24,-173,43,-2079,-20,-436,130,311,30,281,-170
,703,2023-10-27 10:28:45.25,-220,39,-2070,-72,-430,134,9,336,-327,-172
,704,2023-10-27 10:28:45.26,-218,28,-2103,-105,-438,130,258,23,235,-140
,705,2023-10-27 10:28:45.27,-214,44,-2074,-98,-476,131,-39,347,-386,-154
,706,2023-10-27 10:28:45.28,-258,28,-2118,-108,-500,145,248,29,219,-138
,707,2023-10-27 10:28:45.29,-246,56,-2027,-113,-527,155,-47,354,-401,-153
,708,2023-10-27 10:28:45.30,-243,58,-2043,-122,-506,153,258,33,225,-145
,709,2023-10-27 10:28:45.31,-258,48,-1984,-129,-513,154,-50,345,-395,-147
,710,2023-10-27 10:28:45.32,-282,79,-2037,-140,-501,173,248,20,228,-134
,711,2023-10-27 10:28:45.33,-279,71,-2002,-134,-484,163,-75,341,-416,-133
,712,2023-10-27 10:28:45.34,-294,67,-1971,-107,-481,163,232,17,215,-124
,713,2023-10-27 10:28:45.35,-305,94,-1998,-100,-447,164,-88,345,-433,-128
,714,2023-10-27 10:28:45.36,-294,82,-1922,-93,-417,179,221,0,221,-110
,715,2023-10-27 10:28:45.37,-317,57,-1974,-76,-368,194,-89,341,-430,-126
,716,2023-10-27 10:28:45.38,-336,62,-1975,-49,-351,211,224,16,208,-120
,717,2023-10-27 10:28:45.39,-338,50,-1977,-30,-338,233,-110,362,-472,-126
,718,2023-10-27 10:28:45.40,-353,53,-1983,-28,-287,257,210,22,188,-116
,719,2023-10-27 10:28:45.41,-344,56,-1986,-11,-265,276,-129,358,-487,-114
,720,2023-10-27 10:28:45.42,-345,56,-1967,-3,-234,296,200,19,181,-109
,721,2023-10-27 10:28:45.43,-347,49,-1980,25,-200,313,-145,371,-516,-113
,722,2023-10-27 10:28:45.44,-340,53,-1985,57,-170,336,189,35,154,-112
,723,2023-10-27 10:28:45.45,-330,69,-1969,77,-115,351,-148,383,-531,-117
,724,2023-10-27 10:28:45.46,-351,63,-1985,89,-71,366,192,37,155,-114
,725,2023-10-27 10:28:45.47,-340,45,-1975,105,-46,379,-148,385,-533,-118
,726,2023-10-27 10:28:45.48,-342,50,-1983,124,-15,392,197,40,157,-118
,727,2023-10-27 10:28:45.49,-336,35,-1995,145,-3,406,-146,388,-534,-121
,728,2023-10-27 10:28:45.50,-334,46,-1986,158,30,419,200,37,163,-118
,729,2023-10-27 10:28:45.51,-332,66,-1994,162,73,433,-149,380,-529,-115
,730,2023-10-27 10:28:45.52,-322,73,-1995,160,99,441,203,35,168,-119
,731,2023-10-27 10:28:45.53,-301,88,-2009,164,114,445,-140,386,-526,-123
,732,2023-10-27 10:28:45.54,-310,70,-2004,155,136,442,214,42,172,-128
,733,2023-10-27 10:28:45.55,-287,104,-2017,138,157,440,-139,390,-529,-125
,734,2023-10-27 10:28:45.56,-290,98,-2022,136,159,432,218,44,174,-131
,735,2023-10-27 10:28:45.57,-301,107,-2016,127,165,421,-130,387,-517,-128
,736,2023-10-27 10:28:45.58,-289,106,-2015,113,168,411,223,38,185,-130
,737,2023-10-27 10:28:45.59,-289,106,-2022,106,165,402,-132,378,-510,-123
,738,2023-10-27 10:28:45.60,-284,109,-2029,96,163,395,220,32,188,-126
,739,2023-10-27 10:28:45.61,-274,109,-2024,83,166,382,-135,374,-509,-119
,740,2023-10-27 10:28:45.62,-288,99,-2025,75,163,371,222,36,186,-129
,741,2023-10-27 10:28:45.63,-277,100,-2021,67,156,363,-128,377,-505,-124
,742,2023-10-27 10:28:45.64,-264,99,-2042,65,142,350,224,39,185,-131
,743,2023-10-27 10:28:45.65,-272,99,-2049,67,128,337,-135,377,-512,-121
,744,2023-10-27 10:28:45.66,-252,105,-2043,67,115,316,221,36,185,-128
,745,2023-10-27 10:28:45.67,-257,113,-2046,74,108,299,-127,366,-493,-119
,746,2023-10-27 10:28:45.68,-258,118,-2046,75,102,273,227,38,189,-132
,747,2023-10-27 10:28:45.69,-248,122,-2051,75,96,248,-126,373,-499,-123
,748,2023-10-27 10:28:45.70,-247,131,-2070,71,88,218,222,46,176,-134
,749,2023-10-27 10:28:45.71,-236,143,-2048,72,77,191,-121,378,-499,-128
,750,2023-10-27 10:28:45.72,-240,116,-2060,64,71,164,222,40,182,-131
,751,2023-10-27 10:28:45.73,-250,124,-2049,63,68,140,-124,356,-480,-116
,752,2023-10-27 10:28:45.74,-240,118,-2054,53,61,112,218,35,183,-126
,753,2023-10-27 10:28:45.75,-231,113,-2048,44,50,88,-128,367,-495,-119
,754,2023-10-27 10:28:45.76,-244,110,-2042,36,43,61,213,52,161,-132
,755,2023-10-27 10:28:45.77,-249,105,-2053,33,45,44,-137,354,-491,-108
,756,2023-10-27 10:28:45.78,-245,91,-2048,28,41,27,210,53,157,-131
,757,2023-10-27 10:28:45.79,-242,85,-2039,22,36,17,-125,354,-479,-114
,758,2023-10-27 10:28:45.80,-235,82,-2037,13,33,4,217,47,170,-132
,759,2023-10-27 10:28:45.81,-229,75,-2041,2,31,-5,-122,345,-467,-111
,760,2023-10-27 10:28:45.82,-246,74,-2033,0,33,-7,201,61,140,-131
,761,2023-10-27 10:28:45.83,-234,72,-2033,-1,38,-12,-136,353,-489,-108
,762,2023-10-27 10:28:45.84,-226,67,-2031,-2,41,-18,198,61,137,-129
,763,2023-10-27 10:28:45.85,-214,69,-2035,1,47,-21,-121,341,-462,-110
,764,2023-10-27 10:28:45.86,-233,58,-2028,2,50,-27,199,65,134,-132
,765,2023-10-27 10:28:45.87,-230,52,-2031,5,53,-29,-128,344,-472,-108
,766,2023-10-27 10:28:45.88,-224,48,-2036,8,55,-27,192,68,124,-130
,767,2023-10-27 10:28:45.89,-232,52,-2037,10,54,-21,-119,334,-453,-107
,768,2023-10-27 10:28:45.90,-213,50,-2043,8,54,-14,198,71,127,-134
,769,2023-10-27 10:28:45.91,-218,49,-2048,9,53,-7,-110,333,-443,-111
,770,2023-10-27 10:28:45.92,-207,58,-2046,9,48,-1,196,80,116,-138
,771,2023-10-27 10:28:45.93,-211,67,-2050,7,47,6,-108,325,-433,-108
,772,2023-10-27 10:28:45.94,-206,76,-2050,1,47,9,190,80,110,-135
,773,2023-10-27 10:28:45.95,-210,78,-2058,-5,47,12,-104,314,-418,-105
,774,2023-10-27 10:28:45.96,-212,72,-2060,-5,42,13,190,73,117,-131
,775,2023-10-27 10:28:45.97,-206,81,-2058,-4,30,15,-100,310,-410,-105
,776,2023-10-27 10:28:45.98,-216,70,-2048,2,25,13,196,87,109,-141
,777,2023-10-27 10:28:45.99,-202,73,-2050,9,17,16,-79,307,-386,-114
,778,2023-10-27 10:28:46.00,-206,70,-2048,13,10,17,256,56,200,-156
,779,2023-10-27 10:28:46.01,-217,64,-2046,24,2,19,-2,263,-265,-130
,780,2023-10-27 10:28:46.02,-227,54,-2037,38,-5,20,210,80,130,-145
,781,2023-10-27 10:28:46.03,-226,44,-2034,52,-13,19,-109,298,-407,-94
,782,2023-10-27 10:28:46.04,-221,50,-2034,67,-14,20,148,102,46,-125
,783,2023-10-27 10:28:46.05,-214,48,-2020,77,-21,23,-92,287,-379,-97
,784,2023-10-27 10:28:46.06,-224,49,-2022,89,-20,20,164,100,64,-132
,785,2023-10-27 10:28:46.07,-211,51,-2019,97,-22,15,-86,285,-371,-99
,786,2023-10-27 10:28:46.08,-211,41,-2044,98,-13,9,156,110,46,-133
,787,2023-10-27 10:28:46.09,-214,40,-2039,104,-6,1,-83,274,-357,-95
,788,2023-10-27 10:28:46.10,-210,43,-2052,113,2,-1,155,104,51,-129
,789,2023-10-27 10:28:46.11,-206,48,-2045,116,19,-5,-75,262,-337,-93
,790,2023-10-27 10:28:46.12,-216,30,-2060,118,29,-8,153,136,17,-144
,791,2023-10-27 10:28:46.13,-211,14,-2057,124,22,-9,-75,274,-349,-99
,792,2023-10-27 10:28:46.14,-211,15,-2067,125,10,-8,152,131,21,-141
,793,2023-10-27 10:28:46.15,-199,5,-2061,122,7,-11,-52,253,-305,-100
,794,2023-10-27 10:28:46.16,-188,3,-2054,119,10,-14,157,130,27,-143
,795,2023-10-27 10:28:46.17,-181,-16,-2049,123,13,-11,-45,255,-300,-105
,796,2023-10-27 10:28:46.18,-180,-25,-2049,128,23,-13,144,137,7,-140
,797,2023-10-27 10:28:46.19,-170,-32,-2042,136,31,-11,-38,251,-289,-106
,798,2023-10-27 10:28:46.20,-169,-35,-2043,145,36,-8,144,144,0,-144
,799,2023-10-27 10:28:46.21,-154,-61,-2035,155,41,1,-33,236,-269,-101
,800,2023-10-27 10:28:46.22,-150,-65,-2015,163,49,9,144,139,5,-141
,801,2023-10-27 10:28:46.23,-152,-54,-2013,172,49,20,-22,223,-245,-100
,802,2023-10-27 10:28:46.24,-140,-62,-2010,176,52,27,136,149,-13,-142
,803,2023-10-27 10:28:46.25,-147,-51,-2026,182,51,35,-20,222,-242,-101
,804,2023-10-27 10:28:46.26,-136,-59,-2022,183,36,40,135,162,-27,-148
,805,2023-10-27 10:28:46.27,-151,-54,-2040,177,24,53,-6,220,-226,-107
,806,2023-10-27 10:28:46.28,-143,-60,-2048,168,-2,60,125,162,-37,-143
,807,2023-10-27 10:28:46.29,-169,-53,-2073,153,-20,71,-10,206,-216,-98
,808,2023-10-27 10:28:46.30,-156,-47,-2091,130,-53,82,109,173,-64,-141
,809,2023-10-27 10:28:46.31,-167,-49,-2082,107,-81,94,-6,209,-215,-101
,810,2023-10-27 10:28:46.32,-171,-38,-2102,79,-119,107,108,186,-78,-147
,811,2023-10-27 10:28:46.33,-192,-30,-2112,43,-160,122,3,200,-197,-101
,812,2023-10-27 10:28:46.34,-206,-22,-2113,7,-213,132,96,185,-89,-140
,813,2023-10-27 10:28:46.35,-217,-20,-2108,-28,-269,144,3,191,-188,-97
,814,2023-10-27 10:28:46.36,-235,0,-2097,-66,-324,157,86,198,-112,-142
,815,2023-10-27 10:28:46.37,-250,4,-2102,-105,-362,166,8,193,-185,-100
,816,2023-10-27 10:28:46.38,-268,0,-2118,-145,-400,177,77,206,-129,-141
,817,2023-10-27 10:28:46.39,-285,32,-2105,-180,-447,184,12,183,-171,-97
,818,2023-10-27 10:28:46.40,-284,42,-2106,-214,-489,191,73,210,-137,-141
,819,2023-10-27 10:28:46.41,-321,37,-2074,-255,-510,194,24,177,-153,-100
,820,2023-10-27 10:28:46.42,-330,51,-2050,-296,-524,199,62,215,-153,-138
,821,2023-10-27 10:28:46.43,-337,63,-2023,-322,-534,206,21,174,-153,-97
,822,2023-10-27 10:28:46.44,-379,63,-2013,-337,-555,211,52,227,-175,-139
,823,2023-10-27 10:28:46.45,-386,84,-2010,-347,-561,214,32,173,-141,-102
,824,2023-10-27 10:28:46.46,-393,121,-1985,-349,-570,223,40,238,-198,-139
,825,2023-10-27 10:28:46.47,-412,130,-1943,-365,-561,226,24,166,-142,-95
,826,2023-10-27 10:28:46.48,-442,146,-1951,-364,-533,223,23,242,-219,-132
,827,2023-10-27 10:28:46.49,-439,155,-1924,-358,-511,222,32,156,-124,-94
,828,2023-10-27 10:28:46.50,-462,187,-1884,-352,-476,214,28,248,-220,-138
,829,2023-10-27 10:28:46.51,-485,194,-1885,-349,-425,199,48,155,-107,-101
,830,2023-10-27 10:28:46.52,-515,210,-1901,-335,-382,178,23,254,-231,-138
,831,2023-10-27 10:28:46.53,-502,229,-1883,-317,-320,166,54,154,-100,-104
,832,2023-10-27 10:28:46.54,-520,218,-1908,-284,-275,148,6,255,-249,-130
,833,2023-10-27 10:28:46.55,-520,239,-1880,-263,-212,134,47,140,-93,-93
,834,2023-10-27 10:28:46.56,-528,257,-1899,-253,-156,119,-9,269,-278,-130
,835,2023-10-27 10:28:46.57,-520,262,-1908,-238,-97,105,50,144,-94,-97
,836,2023-10-27 10:28:46.58,-515,268,-1916,-212,-45,85,-9,282,-291,-136
,837,2023-10-27 10:28:46.59,-528,283,-1930,-189,16,61,56,132,-76,-94
,838,2023-10-27 10:28:46.60,-508,289,-1941,-152,70,31,-15,280,-295,-132
,839,2023-10-27 10:28:46.61,-512,297,-1955,-109,122,6,68,125,-57,-96
,840,2023-10-27 10:28:46.62,-497,297,-1975,-71,145,-20,-18,277,-295,-129
,841,2023-10-27 10:28:46.63,-480,283,-1982,-46,168,-44,75,118,-43,-96
,842,2023-10-27 10:28:46.64,-476,277,-1989,-30,178,-74,-26,293,-319,-133
,843,2023-10-27 10:28:46.65,-458,257,-1991,-14,198,-98,79,120,-41,-99
,844,2023-10-27 10:28:46.66,-433,250,-1989,5,216,-122,-31,298,-329,-133
,845,2023-10-27 10:28:46.67,-414,212,-1989,28,224,-140,90,116,-26,-103
,846,2023-10-27 10:28:46.68,-411,201,-1979,61,239,-145,-39,310,-349,-135
,847,2023-10-27 10:28:46.69,-401,167,-1985,97,241,-149,90,114,-24,-102
,848,2023-10-27 10:28:46.70,-391,122,-1962,125,253,-150,-52,315,-367,-131
,849,2023-10-27 10:28:46.71,-386,126,-1981,162,242,-146,91,107,-16,-99
,850,2023-10-27 10:28:46.72,-380,108,-2007,185,245,-140,-57,309,-366,-126
,851,2023-10-27 10:28:46.73,-373,91,-2013,202,239,-135,98,98,0,-98
,852,2023-10-27 10:28:46.74,-378,67,-2019,205,244,-128,-69,317,-386,-124
,853,2023-10-27 10:28:46.75,-367,71,-2004,207,217,-120,96,96,0,-96
,854,2023-10-27 10:28:46.76,-346,66,-2008,193,220,-109,-73,328,-401,-127
,855,2023-10-27 10:28:46.77,-339,78,-2019,159,217,-98,108,95,13,-101
,856,2023-10-27 10:28:46.78,-323,88,-2038,122,228,-95,-64,330,-394,-133
,857,2023-10-27 10:28:46.79,-350,123,-2045,82,237,-95,121,89,32,-105
,858,2023-10-27 10:28:46.80,-326,166,-2055,50,219,-107,-72,336,-408,-132
,859,2023-10-27 10:28:46.81,-307,204,-2047,1,202,-129,120,85,35,-102
,860,2023-10-27 10:28:46.82,-273,277,-1997,-70,197,-173,-87,348,-435,-130
,861,2023-10-27 10:28:46.83,-264,383,-2014,-177,238,-249,121,89,32,-105
,862,2023-10-27 10:28:46.84,-282,443,-2027,-303,277,-340,-97,349,-446,-126
,863,2023-10-27 10:28:46.85,-279,510,-2114,-436,287,-460,124,79,45,-101
,864,2023-10-27 10:28:46.86,-322,573,-2212,-556,268,-622,-105,346,-451,-120
,865,2023-10-27 10:28:46.87,-313,566,-2287,-644,187,-832,129,74,55,-101
,866,2023-10-27 10:28:46.88,-346,627,-2311,-753,80,-1094,-111,350,-461,-119
,867,2023-10-27 10:28:46.89,-299,610,-2294,-895,-51,-1392,144,66,78,-105
,868,2023-10-27 10:28:46.90,-248,590,-2175,-1057,-190,-1699,-90,352,-442,-131
,869,2023-10-27 10:28:46.91,-190,542,-2158,-1217,-288,-2012,169,61,108,-115
,870,2023-10-27 10:28:46.92,-161,561,-2116,-1346,-397,-2317,-83,355,-438,-136
,871,2023-10-27 10:28:46.93,-161,452,-2059,-1474,-419,-2595,178,64,114,-121
,872,2023-10-27 10:28:46.94,-151,396,-2025,-1581,-427,-2814,-87,367,-454,-140
,873,2023-10-27 10:28:46.95,-110,347,-1988,-1615,-437,-2966,178,61,117,-119
,874,2023-10-27 10:28:46.96,-115,261,-1996,-1600,-434,-3028,-101,370,-471,-134
,875,2023-10-27 10:28:46.97,-148,188,-1945,-1534,-451,-3035,173,58,115,-115
,876,2023-10-27 10:28:46.98,-206,107,-1932,-1448,-432,-2992,-108,367,-475,-129
,877,2023-10-27 10:28:46.99,-295,31,-1924,-1347,-394,-2909,77,328,-251,-202
,878,2023-10-27 10:28:47.00,-329,83,-1917,-1229,-326,-2828,821,1056,-235,-938
,879,2023-10-27 10:28:47.01,-356,60,-1927,-1100,-272,-2663,359,2022,-1663,-1190
,880,2023-10-27 10:28:47.02,-427,14,-1902,-951,-231,-2490,384,2044,-1660,-1214
,881,2023-10-27 10:28:47.03,-453,-32,-1843,-800,-199,-2274,-12,2040,-2052,-1014
,882,2023-10-27 10:28:47.04,-501,-35,-1827,-642,-161,-2054,319,2039,-1720,-1179
,883,2023-10-27 10:28:47.05,-513,-115,-1783,-497,-101,-1817,77,2031,-1954,-1054
,884,2023-10-27 10:28:47.06,-517,-90,-1824,-341,-57,-1579,401,2041,-1640,-1221
,885,2023-10-27 10:28:47.07,-530,-22,-1810,-186,-11,-1348,77,2038,-1961,-1057
,886,2023-10-27 10:28:47.08,-565,-58,-1847,-39,93,-1116,361,2036,-1675,-1198
,887,2023-10-27 10:28:47.09,-613,-15,-1891,96,135,-890,48,2039,-1991,-1043
,888,2023-10-27 10:28:47.10,-625,9,-1943,199,199,-681,355,2036,-1681,-1195
,889,2023-10-27 10:28:47.11,-655,7,-1939,294,212,-478,57,2039,-1982,-1048
,890,2023-10-27 10:28:47.12,-661,23,-1906,362,218,-290,366,2037,-1671,-1201
,891,2023-10-27 10:28:47.13,-627,33,-1886,385,225,-100,73,2036,-1963,-1054
,892,2023-10-27 10:28:47.14,-630,25,-1888,371,242,83,390,2040,-1650,-1215
,893,2023-10-27 10:28:47.15,-614,-19,-1878,367,256,271,88,2044,-1956,-1066
,894,2023-10-27 10:28:47.16,-600,-34,-1901,374,265,449,389,2037,-1648,-1213
,895,2023-10-27 10:28:47.17,-609,-38,-1891,392,253,611,88,2036,-1948,-1062
,896,2023-10-27 10:28:47.18,-596,-43,-1914,415,265,763,402,2039,-1637,-1220
,897,2023-10-27 10:28:47.19,-581,-49,-1948,444,269,921,92,2036,-1944,-1064
,898,2023-10-27 10:28:47.20,-548,-26,-1957,493,271,1080,400,2037,-1637,-1218
,899,2023-10-27 10:28:47.21,-516,24,-1976,550,275,1245,69,2035,-1966,-1052
,900,2023-10-27 10:28:47.22,-510,57,-1988,614,283,1389,359,2030,-1671,-1194
,901,2023-10-27 10:28:47.23,-499,105,-1995,658,304,1504,39,2040,-2001,-1039
,902,2023-10-27 10:28:47.24,-489,130,-2013,690,322,1584,339,2043,-1704,-1191
,903,2023-10-27 10:28:47.25,-464,170,-2015,721,330,1636,41,2038,-1997,-1039
,904,2023-10-27 10:28:47.26,-434,219,-1982,733,335,1657,355,2046,-1691,-1200
,905,2023-10-27 10:28:47.27,-407,237,-1978,710,350,1673,57,2042,-1985,-1049
,906,2023-10-27 10:28:47.28,-401,276,-1988,671,355,1682,356,2025,-1669,-1190
,907,2023-10-27 10:28:47.29,-392,278,-1982,627,340,1685,69,2029,-1960,-1049
,908,2023-10-27 10:28:47.30,-376,256,-1985,580,308,1695,377,1991,-1614,-1184
,909,2023-10-27 10:28:47.31,-358,253,-1979,520,284,1669,69,1908,-1839,-988
,910,2023-10-27 10:28:47.32,-362,272,-1934,462,286,1638,356,1704,-1348,-1030
,911,2023-10-27 10:28:47.33,-331,300,-1940,402,294,1587,61,1194,-1133,-627
,912,2023-10-27 10:28:47.34,-332,306,-1960,337,304,1545,355,1296,-941,-825
,913,2023-10-27 10:28:47.35,-335,288,-2002,295,315,1509,74,325,-251,-199
,914,2023-10-27 10:28:47.36,-321,306,-2023,275,304,1472,105,-159,264,27
,915,2023-10-27 10:28:47.37,-334,290,-2042,243,305,1420,588,-435,1023,-76
,916,2023-10-27 10:28:47.38,-326,290,-2028,228,301,1357,-33,237,-270,-102
,917,2023-10-27 10:28:47.39,-307,312,-2023,216,307,1273,116,132,-16,-124
,918,2023-10-27 10:28:47.40,-286,316,-2002,196,337,1193,-250,477,-727,-113
,919,2023-10-27 10:28:47.41,-257,334,-2005,176,364,1122,142,59,83,-100
,920,2023-10-27 10:28:47.42,-214,364,-1996,178,396,1014,-163,357,-520,-97
,921,2023-10-27 10:28:47.43,-213,367,-2005,203,403,947,189,34,155,-111
,922,2023-10-27 10:28:47.44,-229,336,-2038,227,417,876,-171,375,-546,-102
,923,2023-10-27 10:28:47.45,-206,326,-2061,259,430,789,178,52,126,-115
,924,2023-10-27 10:28:47.46,-209,337,-2073,281,440,706,-165,375,-540,-105
,925,2023-10-27 10:28:47.47,-179,310,-2056,289,440,643,187,48,139,-117
,926,2023-10-27 10:28:47.48,-151,336,-2056,280,431,599,-155,373,-528,-109
,927,2023-10-27 10:28:47.49,-176,325,-2052,250,411,563,195,53,142,-124
,928,2023-10-27 10:28:47.50,-148,345,-2057,221,380,526,-143,367,-510,-112
,929,2023-10-27 10:28:47.51,-158,322,-2062,193,350,471,199,61,138,-130
,930,2023-10-27 10:28:47.52,-148,297,-2052,164,322,410,-145,373,-518,-114
,931,2023-10-27 10:28:47.53,-154,295,-2052,139,286,346,199,58,141,-128
,932,2023-10-27 10:28:47.54,-143,267,-2061,117,266,289,-142,363,-505,-110
,933,2023-10-27 10:28:47.55,-157,243,-2058,104,228,247,197,57,140,-127
,934,2023-10-27 10:28:47.56,-151,221,-2064,90,191,223,-134,363,-497,-114
,935,2023-10-27 10:28:47.57,-165,217,-2076,79,174,204,188,61,127,-124
,936,2023-10-27 10:28:47.58,-121,221,-2103,79,136,188,-148,353,-501,-102
,937,2023-10-27 10:28:47.59,-151,236,-2088,72,115,173,183,69,114,-126
,938,2023-10-27 10:28:47.60,-141,250,-2069,67,108,156,-145,353,-498,-104
,939,2023-10-27 10:28:47.61,-148,240,-2078,64,90,132,179,68,111,-123
,940,2023-10-27 10:28:47.62,-135,247,-2085,54,86,108,-141,351,-492,-105
,941,2023-10-27 10:28:47.63,-149,250,-2083,60,63,80,177,72,105,-124
,942,2023-10-27 10:28:47.64,-164,238,-2079,62,50,55,-135,343,-478,-104
,943,2023-10-27 10:28:47.65,-138,213,-2070,49,61,32,165,81,84,-123
,944,2023-10-27 10:28:47.66,-144,197,-2065,34,68,18,-150,344,-494,-97
,945,2023-10-27 10:28:47.67,-153,203,-2055,26,52,13,152,96,56,-124
,946,2023-10-27 10:28:47.68,-147,203,-2041,32,20,13,-149,350,-499,-100
,947,2023-10-27 10:28:47.69,-141,196,-2034,36,6,13,148,93,55,-120
,948,2023-10-27 10:28:47.70,-152,202,-2035,38,12,11,-149,335,-484,-93
,949,2023-10-27 10:28:47.71,-133,198,-2055,48,16,8,148,90,58,-119
,950,2023-10-27 10:28:47.72,-152,196,-2054,49,26,9,-129,329,-458,-100
,951,2023-10-27 10:28:47.73,-140,210,-2036,68,10,9,158,95,63,-126
,952,2023-10-27 10:28:47.74,-159,201,-2033,75,19,7,-124,320,-444,-98
,953,2023-10-27 10:28:47.75,-153,178,-2046,80,13,12,150,107,43,-128
,954,2023-10-27 10:28:47.76,-151,198,-2021,75,9,8,-130,325,-455,-97
,955,2023-10-27 10:28:47.77,-154,188,-2044,64,23,15,139,108,31,-123
,956,2023-10-27 10:28:47.78,-140,196,-2025,52,14,22,-120,316,-436,-98
,957,2023-10-27 10:28:47.79,-137,198,-2025,54,11,35,141,112,29,-126
,958,2023-10-27 10:28:47.80,-133,196,-2023,48,15,42,-116,305,-421,-94
,959,2023-10-27 10:28:47.81,-127,222,-2031,48,21,46,137,113,24,-125
,960,2023-10-27 10:28:47.82,-114,225,-2012,47,26,50,-109,293,-402,-92
,961,2023-10-27 10:28:47.83,-122,216,-2048,36,55,47,130,120,10,-125
,962,2023-10-27 10:28:47.84,-122,211,-2066,32,65,38,-114,297,-411,-91
,963,2023-10-27 10:28:47.85,-112,209,-2075,33,69,32,112,122,-10,-117
,964,2023-10-27 10:28:47.86,-119,191,-2065,31,62,27,-98,300,-398,-101
,965,2023-10-27 10:28:47.87,-106,196,-2067,29,55,23,122,140,-18,-131
,966,2023-10-27 10:28:47.88,-104,177,-2071,26,52,26,-91,293,-384,-101
,967,2023-10-27 10:28:47.89,-84,185,-2064,29,41,31,116,142,-26,-129
,968,2023-10-27 10:28:47.90,-90,180,-2055,29,46,34,-92,277,-369,-92
,969,2023-10-27 10:28:47.91,-70,176,-2031,30,40,36,111,140,-29,-125
,970,2023-10-27 10:28:47.92,-80,164,-2023,35,37,39,-82,265,-347,-91
,971,2023-10-27 10:28:47.93,-76,168,-2036,43,28,46,109,143,-34,-126
,972,2023-10-27 10:28:47.94,-80,158,-2042,51,24,48,-69,263,-332,-97
,973,2023-10-27 10:28:47.95,-60,149,-2049,58,26,56,99,157,-58,-128
,974,2023-10-27 10:28:47.96,-63,152,-2036,66,41,64,-74,258,-332,-92
,975,2023-10-27 10:28:47.97,-74,132,-2030,79,46,74,92,172,-80,-132
,976,2023-10-27 10:28:47.98,-91,122,-2031,89,51,84,-66,256,-322,-95
,977,2023-10-27 10:28:47.99,-94,124,-2029,92,70,98,86,161,-75,-123
,978,2023-10-27 10:28:48.00,-107,132,-2044,89,67,108,-67,240,-307,-86
,979,2023-10-27 10:28:48.01,-105,132,-2065,82,59,111,76,174,-98,-125
,980,2023-10-27 10:28:48.02,-108,136,-2068,84,41,108,-52,243,-295,-95
,981,2023-10-27 10:28:48.03,-106,166,-2064,80,22,103,84,178,-94,-131
,982,2023-10-27 10:28:48.04,-113,188,-2058,68,13,94,-33,224,-257,-95
,983,2023-10-27 10:28:48.05,-128,186,-2049,51,15,74,69,187,-118,-128
,984,2023-10-27 10:28:48.06,-130,182,-2049,39,7,53,-52,232,-284,-90
,985,2023-10-27 10:28:48.07,-130,175,-2067,38,-7,33,49,208,-159,-128
,986,2023-10-27 10:28:48.08,-120,174,-2047,46,-12,14,-42,230,-272,-94
,987,2023-10-27 10:28:48.09,-125,166,-2031,47,4,0,50,201,-151,-125
,988,2023-10-27 10:28:48.10,-131,154,-2020,53,19,-10,-29,217,-246,-94
,989,2023-10-27 10:28:48.11,-154,146,-2023,65,9,-14,60,210,-150,-135
,990,2023-10-27 10:28:48.12,-145,156,-2035,76,-27,-15,-14,209,-223,-97
,991,2023-10-27 10:28:48.13,-152,159,-2058,77,-66,-19,55,220,-165,-137
,992,2023-10-27 10:28:48.14,-135,154,-2056,61,-49,-25,-14,208,-222,-97
,993,2023-10-27 10:28:48.15,-143,151,-2061,46,-22,-31,36,224,-188,-130
,994,2023-10-27 10:28:48.16,-133,153,-2073,35,26,-41,-12,201,-213,-94
,995,2023-10-27 10:28:48.17,-142,143,-2086,46,22,-45,15,223,-208,-119
,996,2023-10-27 10:28:48.18,-154,139,-2089,57,-2,-47,-9,189,-198,-90
,997,2023-10-27 10:28:48.19,-144,121,-2105,57,-26,-50,20,242,-222,-131
,998,2023-10-27 10:28:48.20,-137,121,-2111,49,-34,-48,7,191,-184,-99
,999,2023-10-27 10:28:48.21,-128,112,-2097,30,-45,-41,21,243,-222,-132
,1000,2023-10-27 10:28:48.22,-107,109,-2088,9,-38,-27,11,179,-168,-95
,1001,2023-10-27 10:28:48.23,-91,102,-2073,9,-40,-10,13,241,-228,-127
,1002,2023-10-27 10:28:48.24,-83,114,-2062,22,-45,7,16,174,-158,-95
,1003,2023-10-27 10:28:48.25,-74,143,-2027,28,-23,14,0,256,-256,-128
,1004,2023-10-27 10:28:48.26,-61,140,-2010,27,-6,17,15,161,-146,-88
,1005,2023-10-27 10:28:48.27,-65,133,-2002,19,25,11,-10,270,-280,-130
,1006,2023-10-27 10:28:48.28,-52,136,-1975,17,40,14,19,166,-147,-92
,1007,2023-10-27 10:28:48.29,-50,124,-1955,21,51,11,-20,289,-309,-134
,1008,2023-10-27 10:28:48.30,-65,99,-1970,39,57,15,18,174,-156,-96
,1009,2023-10-27 10:28:48.31,-85,79,-1998,67,45,18,-43,292,-335,-124
,1010,2023-10-27 10:28:48.32,-98,91,-2003,94,50,28,20,168,-148,-94
,1011,2023-10-27 10:28:48.33,-138,86,-2038,105,54,47,-48,299,-347,-125
,1012,2023-10-27 10:28:48.34,-164,83,-2034,113,53,64,29,155,-126,-92
,1013,2023-10-27 10:28:48.35,-185,110,-2041,127,8,85,-51,301,-352,-125
,1014,2023-10-27 10:28:48.36,-154,139,-2051,112,-52,95,33,152,-119,-92
,1015,2023-10-27 10:28:48.37,-156,168,-2071,73,-105,104,-55,307,-362,-126
,1016,2023-10-27 10:28:48.38,-148,210,-2086,33,-123,110,44,150,-106,-97
,1017,2023-10-27 10:28:48.39,-139,197,-2069,-7,-108,106,-62,321,-383,-129
,1018,2023-10-27 10:28:48.40,-121,188,-2066,-33,-85,87,51,148,-97,-99
,1019,2023-10-27 10:28:48.41,-105,174,-2038,-38,-57,58,-69,317,-386,-124
,1020,2023-10-27 10:28:48.42,-114,147,-2045,-38,-24,34,56,131,-75,-93
,1021,2023-10-27 10:28:48.43,-114,117,-2065,-31,14,26,-79,331,-410,-126
,1022,2023-10-27 10:28:48.44,-103,95,-2046,-8,38,30,48,140,-92,-94
,1023,2023-10-27 10:28:48.45,-107,60,-2029,27,55,40,-84,344,-428,-130
,1024,2023-10-27 10:28:48.46,-93,21,-2029,68,80,51,64,136,-72,-100
,1025,2023-10-27 10:28:48.47,-94,18,-2035,115,104,64,-86,333,-419,-123
,1026,2023-10-27 10:28:48.48,-88,20,-2035,150,127,88,73,122,-49,-97
,1027,2023-10-27 10:28:48.49,-77,31,-2049,176,143,118,-88,342,-430,-127
,1028,2023-10-27 10:28:48.50,-83,49,-2053,195,157,143,76,117,-41,-96
,1029,2023-10-27 10:28:48.51,-69,63,-2033,212,142,162,-91,347,-438,-128
,1030,2023-10-27 10:28:48.52,-81,69,-2033,221,137,168,84,115,-31,-99
,1031,2023-10-27 10:28:48.53,-70,68,-2024,240,120,171,-96,359,-455,-131
,1032,2023-10-27 10:28:48.54,-77,86,-2028,244,124,171,90,119,-29,-104
,1033,2023-10-27 10:28:48.55,-73,69,-2051,225,125,167,-103,360,-463,-128
,1034,2023-10-27 10:28:48.56,-97,68,-2073,207,105,163,96,111,-15,-103
,1035,2023-10-27 10:28:48.57,-99,60,-2097,199,57,164,-109,367,-476,-129
,1036,2023-10-27 10:28:48.58,-94,73,-2067,183,33,168,94,114,-20,-104
,1037,2023-10-27 10:28:48.59,-107,67,-2077,159,7,176,-118,370,-488,-126
,1038,2023-10-27 10:28:48.60,-97,93,-2083,140,-11,184,96,102,-6,-99
,1039,2023-10-27 10:28:48.61,-100,104,-2071,119,-44,185,-125,378,-503,-126
,1040,2023-10-27 10:28:48.62,-120,85,-2091,93,-61,186,102,109,-7,-105
,1041,2023-10-27 10:28:48.63,-140,100,-2098,71,-67,189,-120,384,-504,-132
,1042,2023-10-27 10:28:48.64,-143,73,-2087,55,-90,186,121,91,30,-106
,1043,2023-10-27 10:28:48.65,-138,75,-2086,50,-96,180,-117,374,-491,-128
,1044,2023-10-27 10:28:48.66,-148,64,-2089,38,-103,174,121,86,35,-103
,1045,2023-10-27 10:28:48.67,-146,48,-2101,37,-122,173,-121,389,-510,-134
,1046,2023-10-27 10:28:48.68,-170,54,-2098,58,-136,177,129,91,38,-110
,1047,2023-10-27 10:28:48.69,-167,67,-2080,75,-139,186,-125,384,-509,-129
,1048,2023-10-27 10:28:48.70,-181,58,-2064,73,-126,199,136,80,56,-108
,1049,2023-10-27 10:28:48.71,-189,51,-2083,67,-110,211,-115,378,-493,-131
,1050,2023-10-27 10:28:48.72,-192,28,-2075,63,-124,214,157,75,82,-116
,1051,2023-10-27 10:28:48.73,-200,48,-2060,53,-120,222,-126,387,-513,-130
,1052,2023-10-27 10:28:48.74,-183,81,-2077,52,-141,228,146,77,69,-111
,1053,2023-10-27 10:28:48.75,-201,81,-2080,35,-128,235,-122,391,-513,-134
,1054,2023-10-27 10:28:48.76,-191,118,-2074,14,-116,240,160,62,98,-111
,1055,2023-10-27 10:28:48.77,-188,134,-2035,-10,-103,241,-121,370,-491,-124
,1056,2023-10-27 10:28:48.78,-172,139,-2031,-30,-104,239,172,56,116,-114
,1057,2023-10-27 10:28:48.79,-172,148,-1997,-55,-92,231,-122,375,-497,-126
,1058,2023-10-27 10:28:48.80,-158,147,-1984,-72,-97,226,179,54,125,-116
,1059,2023-10-27 10:28:48.81,-150,138,-1977,-84,-89,216,-112,383,-495,-135
,1060,2023-10-27 10:28:48.82,-132,122,-1989,-86,-89,211,188,51,137,-119
,1061,2023-10-27 10:28:48.83,-138,130,-2029,-76,-87,209,-118,380,-498,-131
,1062,2023-10-27 10:28:48.84,-112,120,-2034,-63,-67,200,190,43,147,-116
,1063,2023-10-27 10:28:48.85,-103,111,-2062,-40,-35,197,-100,371,-471,-135
,1064,2023-10-27 10:28:48.86,-69,121,-2060,-31,-11,189,215,44,171,-129
,1065,2023-10-27 10:28:48.87,-121,130,-2074,-11,11,191,-104,374,-478,-135
,1066,2023-10-27 10:28:48.88,-85,105,-2037,13,-54,196,212,33,179,-122
,1067,2023-10-27 10:28:48.89,-86,123,-2037,-1,12,190,-107,367,-474,-130
,1068,2023-10-27 10:28:48.90,-65,115,-2035,-10,38,178,220,21,199,-120
,1069,2023-10-27 10:28:48.91,-81,96,-2087,-8,27,167,-98,362,-460,-132
,1070,2023-10-27 10:28:48.92,-86,78,-2096,17,-5,159,232,17,215,-124
,1071,2023-10-27 10:28:48.93,-66,68,-2077,48,-12,158,-90,358,-448,-134
,1072,2023-10-27 10:28:48.94,-49,77,-2065,64,5,158,238,19,219,-128
,1073,2023-10-27 10:28:48.95,-41,74,-2050,66,39,164,-111,362,-473,-125
,1074,2023-10-27 10:28:48.96,-31,84,-2029,67,82,166,241,23,218,-132
,1075,2023-10-27 10:28:48.97,-44,81,-2015,59,112,163,-72,376,-448,-152
,1076,2023-10-27 10:28:48.98,-44,76,-2025,70,116,157,259,20,239,-139
,1077,2023-10-27 10:28:48.99,-44,84,-2027,87,106,150,-95,358,-453,-131
,1078,2023-10-27 10:28:49.00,-48,91,-2039,99,104,137,248,8,240,-128
,1079,2023-10-27 10:28:49.01,-65,83,-2051,103,114,118,-91,349,-440,-129
,1080,2023-10-27 10:28:49.02,-77,51,-2060,115,125,96,264,9,255,-136
,1081,2023-10-27 10:28:49.03,-77,53,-2070,130,117,79,-94,360,-454,-133
,1082,2023-10-27 10:28:49.04,-85,52,-2054,142,106,67,254,5,249,-129
,1083,2023-10-27 10:28:49.05,-97,51,-2051,150,89,60,-90,340,-430,-125
,1084,2023-10-27 10:28:49.06,-91,47,-2039,152,69,50,252,4,248,-128
,1085,2023-10-27 10:28:49.07,-88,41,-2023,151,35,40,-108,355,-463,-123
,1086,2023-10-27 10:28:49.08,-104,58,-2033,146,15,30,250,11,239,-130
,1087,2023-10-27 10:28:49.09,-100,77,-2020,141,-25,18,-103,346,-449,-121
,1088,2023-10-27 10:28:49.10,-92,75,-2027,137,-52,-2,259,4,255,-131
,1089,2023-10-27 10:28:49.11,-93,62,-2042,128,-58,-25,-96,348,-444,-126
,1090,2023-10-27 10:28:49.12,-96,72,-2045,121,-74,-49,259,2,257,-130
,1091,2023-10-27 10:28:49.13,-96,61,-2058,117,-77,-67,-92,346,-438,-127
,1092,2023-10-27 10:28:49.14,-113,61,-2073,115,-84,-85,259,12,247,-135
,1093,2023-10-27 10:28:49.15,-114,69,-2084,104,-89,-99,-106,358,-464,-126
,1094,2023-10-27 10:28:49.16,-119,80,-2079,92,-88,-111,257,22,235,-139
,1095,2023-10-27 10:28:49.17,-130,80,-2087,77,-82,-122,-96,351,-447,-127
,1096,2023-10-27 10:28:49.18,-144,78,-2078,62,-82,-138,263,7,256,-135
,1097,2023-10-27 10:28:49.19,-159,56,-2089,45,-79,-151,-100,339,-439,-119
,1098,2023-10-27 10:28:49.20,-163,65,-2098,25,-81,-163,254,2,252,-128
,1099,2023-10-27 10:28:49.21,-162,46,-2065,15,-90,-173,-103,334,-437,-115
,1100,2023-10-27 10:28:49.22,-162,41,-2048,12,-96,-179,252,4,248,-128
,1101,2023-10-27 10:28:49.23,-183,32,-2045,9,-90,-179,-94,332,-426,-119
,1102,2023-10-27 10:28:49.24,-175,16,-2027,13,-86,-181,258,14,244,-136
,1103,2023-10-27 10:28:49.25,-167,14,-2035,14,-59,-181,-104,338,-442,-117
,1104,2023-10-27 10:28:49.26,-173,7,-2020,18,-46,-181,251,15,236,-133
,1105,2023-10-27 10:28:49.27,-158,3,-2016,37,-32,-178,-99,332,-431,-116
,1106,2023-10-27 10:28:49.28,-168,-7,-2003,61,-14,-173,250,16,234,-133
,1107,2023-10-27 10:28:49.29,-161,22,-1991,72,5,-165,-96,338,-434,-121
,1108,2023-10-27 10:28:49.30,-160,14,-2005,79,29,-162,254,14,240,-134
,1109,2023-10-27 10:28:49.31,-167,-3,-1999,80,38,-150,-93,314,-407,-110
,1110,2023-10-27 10:28:49.32,-174,11,-2007,82,36,-138,259,10,249,-134
,1111,2023-10-27 10:28:49.33,-170,-8,-2021,68,46,-124,-85,317,-402,-116
,1112,2023-10-27 10:28:49.34,-168,15,-2044,50,55,-115,257,22,235,-139
,1113,2023-10-27 10:28:49.35,-178,12,-2050,36,65,-103,-86,321,-407,-117
,1114,2023-10-27 10:28:49.36,-183,8,-2082,25,57,-89,249,22,227,-135
,1115,2023-10-27 10:28:49.37,-170,27,-2075,8,60,-79,-82,309,-391,-113
,1116,2023-10-27 10:28:49.38,-154,33,-2092,-3,48,-75,272,5,267,-138
,1117,2023-10-27 10:28:49.39,-169,18,-2110,-18,58,-68,-47,281,-328,-117
,1118,2023-10-27 10:28:49.40,-146,76,-2080,-31,48,-63,269,11,258,-140
