// Data mode  : Full
// Data quality  : High
// Acceleration sensor's range  : 16g
// Gyroscope sensor's range  : 2000dps
//
//ARTIFACT,NUM,DATE,ACC_X,ACC_Y,ACC_Z,GYRO_X,GYRO_Y,GYRO_Z,EOG_L,EOG_R,EOG_H,EOG_V
,1,2023-10-20 13:09:51.47,234,-208,-1995,-77,-11,53,963,-952,1915,-5
,2,2023-10-20 13:09:51.48,244,-223,-2046,-76,9,36,1008,-995,2003,-6
,3,2023-10-20 13:09:51.49,235,-236,-2078,-56,1,31,940,-933,1873,-3
,4,2023-10-20 13:09:51.50,245,-265,-2072,-30,-12,27,1001,-981,1982,-10
,5,2023-10-20 13:09:51.51,245,-262,-2068,-9,-16,32,979,-935,1914,-22
,6,2023-10-20 13:09:51.52,258,-261,-2062,11,-23,37,1033,-983,2016,-25
,7,2023-10-20 13:09:51.53,271,-253,-2008,36,-31,39,960,-938,1898,-11
,8,2023-10-20 13:09:51.54,285,-252,-1977,63,-14,30,978,-974,1952,-2
,9,2023-10-20 13:09:51.55,278,-255,-1991,73,19,16,935,-926,1861,-4
,10,2023-10-20 13:09:51.56,271,-275,-2034,83,36,6,972,-959,1931,-6
,11,2023-10-20 13:09:51.57,257,-298,-2068,93,28,6,954,-927,1881,-13
,12,2023-10-20 13:09:51.58,256,-327,-2077,97,2,7,990,-965,1955,-12
,13,2023-10-20 13:09:51.59,257,-340,-2060,98,-25,14,1007,-966,1973,-20
,14,2023-10-20 13:09:51.60,252,-324,-2042,98,-45,19,1036,-1018,2054,-9
,15,2023-10-20 13:09:51.61,244,-311,-2030,87,-61,24,978,-984,1962,3
,16,2023-10-20 13:09:51.62,257,-311,-2028,65,-57,24,970,-980,1950,5
,17,2023-10-20 13:09:51.63,263,-324,-2024,50,-58,25,965,-946,1911,-9
,18,2023-10-20 13:09:51.64,253,-335,-2018,36,-41,26,977,-960,1937,-8
,19,2023-10-20 13:09:51.65,235,-358,-2033,28,-31,31,984,-942,1926,-21
,20,2023-10-20 13:09:51.66,238,-361,-2053,37,-51,38,980,-957,1937,-11
,21,2023-10-20 13:09:51.67,235,-392,-2024,49,-59,58,980,-949,1929,-15
,22,2023-10-20 13:09:51.68,222,-391,-2016,61,-43,80,965,-961,1926,-2
,23,2023-10-20 13:09:51.69,200,-353,-2060,60,-54,88,992,-964,1956,-14
,24,2023-10-20 13:09:51.70,188,-338,-2067,56,-70,102,967,-974,1941,3
,25,2023-10-20 13:09:51.71,165,-350,-2067,46,-89,118,986,-966,1952,-10
,26,2023-10-20 13:09:51.72,159,-340,-2073,45,-112,124,955,-961,1916,3
,27,2023-10-20 13:09:51.73,147,-316,-2056,34,-139,132,996,-949,1945,-23
,28,2023-10-20 13:09:51.74,182,-336,-2007,15,-113,140,963,-946,1909,-8
,29,2023-10-20 13:09:51.75,182,-342,-1970,13,-76,138,997,-942,1939,-27
,30,2023-10-20 13:09:51.76,174,-359,-1974,14,-24,140,956,-946,1902,-5
,31,2023-10-20 13:09:51.77,173,-363,-2001,21,1,140,1005,-969,1974,-18
,32,2023-10-20 13:09:51.78,164,-364,-2001,36,12,153,969,-980,1949,5
,33,2023-10-20 13:09:51.79,158,-383,-2015,57,14,160,999,-978,1977,-10
,34,2023-10-20 13:09:51.80,151,-384,-2025,71,2,170,926,-943,1869,8
,35,2023-10-20 13:09:51.81,167,-366,-2054,79,-22,176,999,-968,1967,-15
,36,2023-10-20 13:09:51.82,156,-367,-2012,83,-28,183,938,-954,1892,8
,37,2023-10-20 13:09:51.83,159,-354,-1970,83,-24,181,1030,-990,2020,-20
,38,2023-10-20 13:09:51.84,172,-361,-2008,75,-23,180,945,-960,1905,7
,39,2023-10-20 13:09:51.85,196,-371,-1996,55,-14,191,1032,-985,2017,-23
,40,2023-10-20 13:09:51.86,195,-375,-1991,49,-1,204,936,-950,1886,7
,41,2023-10-20 13:09:51.87,213,-382,-2037,45,12,211,1023,-976,1999,-23
,42,2023-10-20 13:09:51.88,188,-372,-2051,39,17,223,922,-939,1861,8
,43,2023-10-20 13:09:51.89,166,-378,-2079,44,6,234,1037,-981,2018,-28
,44,2023-10-20 13:09:51.90,157,-373,-2097,44,-11,242,929,-943,1872,7
,45,2023-10-20 13:09:51.91,176,-341,-2090,26,-24,248,1043,-990,2033,-26
,46,2023-10-20 13:09:51.92,158,-340,-2036,10,-17,245,920,-944,1864,12
,47,2023-10-20 13:09:51.93,181,-319,-1988,-1,-8,233,1027,-983,2010,-22
,48,2023-10-20 13:09:51.94,194,-295,-1982,-7,15,210,902,-931,1833,14
,49,2023-10-20 13:09:51.95,190,-270,-1971,-16,41,180,1062,-977,2039,-42
,50,2023-10-20 13:09:51.96,188,-286,-2030,-29,70,154,938,-933,1871,-2
,51,2023-10-20 13:09:51.97,180,-300,-2057,-37,65,140,1081,-1004,2085,-38
,52,2023-10-20 13:09:51.98,186,-320,-2045,-34,42,139,948,-966,1914,9
,53,2023-10-20 13:09:51.99,190,-330,-2056,-25,32,141,1101,-1033,2134,-34
,54,2023-10-20 13:09:52.00,190,-317,-2059,-16,9,146,1077,-1069,2146,-4
,55,2023-10-20 13:09:52.01,192,-314,-2073,-4,-18,150,1280,-1190,2470,-45
,56,2023-10-20 13:09:52.02,208,-295,-2063,-12,-40,154,1128,-1182,2310,27
,57,2023-10-20 13:09:52.03,225,-293,-2028,-22,-48,154,1260,-1229,2489,-15
,58,2023-10-20 13:09:52.04,235,-316,-2006,-31,-31,151,1104,-1174,2278,35
,59,2023-10-20 13:09:52.05,246,-338,-1999,-30,-5,148,1231,-1221,2452,-5
,60,2023-10-20 13:09:52.06,228,-361,-2014,-10,21,153,1069,-1172,2241,51
,61,2023-10-20 13:09:52.07,200,-374,-2025,37,9,153,1162,-1227,2389,32
,62,2023-10-20 13:09:52.08,175,-332,-2075,88,-22,149,991,-1165,2156,87
,63,2023-10-20 13:09:52.09,164,-306,-2111,112,-82,140,1052,-1222,2274,85
,64,2023-10-20 13:09:52.10,135,-280,-2115,106,-99,131,923,-1165,2088,121
,65,2023-10-20 13:09:52.11,127,-301,-2103,77,-123,109,955,-1235,2190,140
,66,2023-10-20 13:09:52.12,119,-318,-2071,69,-168,97,848,-1168,2016,160
,67,2023-10-20 13:09:52.13,113,-344,-2041,70,-194,91,870,-1232,2102,181
,68,2023-10-20 13:09:52.14,111,-364,-2013,95,-197,76,762,-1155,1917,196
,69,2023-10-20 13:09:52.15,139,-355,-1939,109,-195,74,755,-1222,1977,233
,70,2023-10-20 13:09:52.16,125,-436,-1910,120,-151,74,658,-1142,1800,242
,71,2023-10-20 13:09:52.17,76,-428,-1985,143,-92,78,622,-1143,1765,260
,72,2023-10-20 13:09:52.18,93,-389,-2067,156,-83,77,458,-956,1414,249
,73,2023-10-20 13:09:52.19,77,-372,-2034,176,-106,89,422,-933,1355,255
,74,2023-10-20 13:09:52.20,69,-413,-2001,157,-115,94,614,-853,1467,119
,75,2023-10-20 13:09:52.21,77,-439,-2002,114,-75,99,1187,-1008,2195,-89
,76,2023-10-20 13:09:52.22,86,-413,-2015,81,-56,113,1068,-958,2026,-55
,77,2023-10-20 13:09:52.23,90,-402,-2001,52,-38,130,1197,-1051,2248,-73
,78,2023-10-20 13:09:52.24,94,-401,-1979,29,-22,138,910,-938,1848,14
,79,2023-10-20 13:09:52.25,106,-392,-2009,8,-6,139,1144,-1029,2173,-57
,80,2023-10-20 13:09:52.26,97,-392,-2045,-6,6,139,925,-920,1845,-2
,81,2023-10-20 13:09:52.27,77,-413,-2045,-7,13,147,1084,-981,2065,-51
,82,2023-10-20 13:09:52.28,79,-411,-2048,1,9,156,846,-869,1715,11
,83,2023-10-20 13:09:52.29,71,-393,-2040,5,13,160,984,-938,1922,-23
,84,2023-10-20 13:09:52.30,82,-385,-2021,12,16,162,844,-864,1708,10
,85,2023-10-20 13:09:52.31,77,-369,-1992,18,29,160,1176,-1036,2212,-70
,86,2023-10-20 13:09:52.32,89,-362,-1993,16,52,150,949,-955,1904,3
,87,2023-10-20 13:09:52.33,97,-354,-1983,16,64,138,1112,-1047,2159,-32
,88,2023-10-20 13:09:52.34,107,-352,-1981,19,77,123,871,-909,1780,19
,89,2023-10-20 13:09:52.35,120,-354,-1988,9,91,105,1092,-975,2067,-58
,90,2023-10-20 13:09:52.36,141,-373,-1989,-2,101,94,896,-873,1769,-11
,91,2023-10-20 13:09:52.37,139,-371,-2002,-2,117,87,1142,-1024,2166,-59
,92,2023-10-20 13:09:52.38,153,-371,-2007,-2,96,90,907,-936,1843,14
,93,2023-10-20 13:09:52.39,161,-385,-1995,-2,87,89,1114,-1064,2178,-25
,94,2023-10-20 13:09:52.40,138,-407,-2021,10,83,108,890,-935,1825,22
,95,2023-10-20 13:09:52.41,161,-398,-2057,11,55,102,1095,-1028,2123,-33
,96,2023-10-20 13:09:52.42,178,-369,-2034,20,39,108,881,-902,1783,10
,97,2023-10-20 13:09:52.43,164,-345,-2029,30,39,94,1108,-1024,2132,-42
,98,2023-10-20 13:09:52.44,173,-291,-2036,40,37,58,895,-905,1800,5
,99,2023-10-20 13:09:52.45,170,-261,-2067,36,23,17,1104,-1008,2112,-48
,100,2023-10-20 13:09:52.46,161,-264,-2081,24,20,-21,881,-885,1766,2
,101,2023-10-20 13:09:52.47,168,-311,-2060,1,15,-54,1112,-1014,2126,-49
,102,2023-10-20 13:09:52.48,139,-364,-2058,-21,21,-72,893,-903,1796,5
,103,2023-10-20 13:09:52.49,135,-419,-2055,-6,-13,-74,1116,-1025,2141,-45
,104,2023-10-20 13:09:52.50,120,-438,-2055,37,-57,-57,889,-906,1795,8
,105,2023-10-20 13:09:52.51,101,-404,-2018,82,-76,-41,1122,-1030,2152,-46
,106,2023-10-20 13:09:52.52,115,-420,-2024,103,-83,-34,886,-919,1805,16
,107,2023-10-20 13:09:52.53,115,-424,-1983,103,-71,-18,1112,-1048,2160,-32
,108,2023-10-20 13:09:52.54,95,-431,-1991,127,-53,-6,868,-916,1784,24
,109,2023-10-20 13:09:52.55,86,-415,-2002,135,-38,5,1074,-1009,2083,-32
,110,2023-10-20 13:09:52.56,83,-398,-2012,138,-44,9,862,-883,1745,10
,111,2023-10-20 13:09:52.57,76,-402,-2004,133,-40,8,1099,-1008,2107,-45
,112,2023-10-20 13:09:52.58,74,-403,-2015,120,-33,5,887,-887,1774,0
,113,2023-10-20 13:09:52.59,86,-403,-2016,104,-23,-3,1108,-994,2102,-57
,114,2023-10-20 13:09:52.60,91,-419,-2010,87,-9,-6,890,-878,1768,-6
,115,2023-10-20 13:09:52.61,90,-434,-2000,73,9,-9,1114,-1004,2118,-55
,116,2023-10-20 13:09:52.62,93,-442,-2013,71,23,-13,893,-887,1780,-3
,117,2023-10-20 13:09:52.63,89,-438,-2023,72,28,-13,1110,-997,2107,-56
,118,2023-10-20 13:09:52.64,98,-431,-2023,73,27,-15,904,-888,1792,-8
,119,2023-10-20 13:09:52.65,102,-411,-2028,68,39,-25,1122,-1022,2144,-50
,120,2023-10-20 13:09:52.66,96,-400,-2030,55,45,-37,898,-902,1800,2
,121,2023-10-20 13:09:52.67,100,-394,-2039,43,30,-51,1097,-1009,2106,-44
,122,2023-10-20 13:09:52.68,105,-397,-2055,23,6,-61,898,-900,1798,1
,123,2023-10-20 13:09:52.69,96,-401,-2066,-7,-6,-69,1105,-1028,2133,-38
,124,2023-10-20 13:09:52.70,116,-416,-2027,-35,0,-76,891,-901,1792,5
,125,2023-10-20 13:09:52.71,116,-414,-2002,-55,17,-78,1076,-990,2066,-43
,126,2023-10-20 13:09:52.72,118,-433,-1997,-61,24,-74,895,-880,1775,-7
,127,2023-10-20 13:09:52.73,117,-422,-1990,-49,21,-68,1107,-1011,2118,-48
,128,2023-10-20 13:09:52.74,131,-407,-2004,-43,29,-68,938,-919,1857,-9
,129,2023-10-20 13:09:52.75,148,-382,-2009,-46,47,-68,1146,-1042,2188,-52
,130,2023-10-20 13:09:52.76,152,-375,-2009,-50,55,-69,928,-929,1857,0
,131,2023-10-20 13:09:52.77,160,-369,-2005,-60,65,-69,1091,-1032,2123,-29
,132,2023-10-20 13:09:52.78,170,-385,-2008,-72,75,-60,866,-896,1762,15
,133,2023-10-20 13:09:52.79,158,-396,-2023,-75,76,-48,1024,-981,2005,-21
,134,2023-10-20 13:09:52.80,177,-399,-2038,-80,68,-39,849,-884,1733,17
,135,2023-10-20 13:09:52.81,189,-403,-2039,-71,65,-24,1035,-1005,2040,-15
,136,2023-10-20 13:09:52.82,206,-420,-2018,-41,56,-23,919,-918,1837,0
,137,2023-10-20 13:09:52.83,222,-432,-1989,-19,56,-12,1124,-1027,2151,-48
,138,2023-10-20 13:09:52.84,169,-413,-2028,-10,71,4,888,-905,1793,8
,139,2023-10-20 13:09:52.85,178,-369,-2119,3,33,-11,1020,-974,1994,-23
,140,2023-10-20 13:09:52.86,176,-311,-2083,35,-21,-14,897,-893,1790,-2
,141,2023-10-20 13:09:52.87,192,-309,-2020,43,-54,-34,1078,-1015,2093,-31
,142,2023-10-20 13:09:52.88,185,-360,-2008,16,-25,-59,923,-934,1857,5
,143,2023-10-20 13:09:52.89,182,-394,-2009,7,-16,-76,1055,-1024,2079,-15
,144,2023-10-20 13:09:52.90,161,-410,-2030,34,-46,-73,916,-920,1836,2
,145,2023-10-20 13:09:52.91,132,-417,-2006,64,-66,-66,1074,-1005,2079,-34
,146,2023-10-20 13:09:52.92,138,-411,-1990,64,-68,-59,923,-908,1831,-7
,147,2023-10-20 13:09:52.93,131,-418,-1993,58,-55,-51,1048,-995,2043,-26
,148,2023-10-20 13:09:52.94,149,-429,-1998,64,-39,-39,877,-891,1768,7
,149,2023-10-20 13:09:52.95,134,-427,-2003,74,-36,-26,994,-964,1958,-15
,150,2023-10-20 13:09:52.96,136,-426,-2021,68,-20,-13,922,-892,1814,-15
,151,2023-10-20 13:09:52.97,133,-430,-2032,70,-36,-4,1068,-990,2058,-39
,152,2023-10-20 13:09:52.98,124,-426,-2036,75,-46,8,972,-935,1907,-18
,153,2023-10-20 13:09:52.99,125,-430,-2026,82,-58,17,1071,-1023,2094,-24
,154,2023-10-20 13:09:53.00,122,-428,-2025,74,-52,24,936,-916,1852,-10
,155,2023-10-20 13:09:53.01,126,-422,-2011,65,-30,25,1030,-964,1994,-33
,156,2023-10-20 13:09:53.02,115,-417,-2010,55,-19,24,885,-868,1753,-8
,157,2023-10-20 13:09:53.03,122,-430,-2014,46,-7,25,969,-935,1904,-17
,158,2023-10-20 13:09:53.04,122,-430,-2029,37,12,24,922,-879,1801,-21
,159,2023-10-20 13:09:53.05,119,-441,-2037,34,14,30,1041,-961,2002,-40
,160,2023-10-20 13:09:53.06,117,-433,-2044,27,10,38,830,-849,1679,9
,161,2023-10-20 13:09:53.07,147,-442,-2024,22,14,47,883,-886,1769,1
,162,2023-10-20 13:09:53.08,116,-476,-1995,32,19,67,854,-843,1697,-5
,163,2023-10-20 13:09:53.09,128,-421,-2040,48,9,56,985,-937,1922,-24
,164,2023-10-20 13:09:53.10,133,-434,-2032,52,-15,68,1004,-908,1912,-48
,165,2023-10-20 13:09:53.11,120,-400,-2006,73,-27,50,1086,-979,2065,-53
,166,2023-10-20 13:09:53.12,134,-364,-2028,53,-15,29,949,-889,1838,-30
,167,2023-10-20 13:09:53.13,119,-379,-2038,34,-2,7,968,-918,1886,-25
,168,2023-10-20 13:09:53.14,117,-377,-2033,13,-5,-14,921,-868,1789,-26
,169,2023-10-20 13:09:53.15,115,-395,-2009,1,-8,-23,990,-930,1920,-30
,170,2023-10-20 13:09:53.16,114,-420,-2015,-15,8,-27,974,-908,1882,-33
,171,2023-10-20 13:09:53.17,122,-447,-1994,-20,15,-18,1018,-965,1983,-26
,172,2023-10-20 13:09:53.18,121,-451,-1996,-11,26,-2,953,-917,1870,-18
,173,2023-10-20 13:09:53.19,116,-445,-1994,10,35,14,981,-951,1932,-15
,174,2023-10-20 13:09:53.20,127,-421,-2012,27,40,27,975,-920,1895,-27
,175,2023-10-20 13:09:53.21,134,-396,-2014,33,72,33,1010,-965,1975,-22
,176,2023-10-20 13:09:53.22,111,-354,-2005,29,99,23,1006,-942,1948,-32
,177,2023-10-20 13:09:53.23,132,-399,-2028,19,105,12,1006,-981,1987,-12
,178,2023-10-20 13:09:53.24,146,-387,-2002,14,115,9,1008,-977,1985,-15
,179,2023-10-20 13:09:53.25,148,-384,-2003,23,108,-3,1109,-1093,2202,-8
,180,2023-10-20 13:09:53.26,153,-385,-2013,17,102,-14,1192,-1139,2331,-26
,181,2023-10-20 13:09:53.27,151,-389,-2011,7,92,-26,1233,-1215,2448,-9
,182,2023-10-20 13:09:53.28,164,-394,-2015,2,84,-32,1198,-1194,2392,-2
,183,2023-10-20 13:09:53.29,164,-411,-2014,-5,74,-38,1192,-1209,2401,8
,184,2023-10-20 13:09:53.30,155,-412,-2028,-9,53,-40,1176,-1179,2355,1
,185,2023-10-20 13:09:53.31,168,-416,-2036,-7,32,-40,1185,-1202,2387,8
,186,2023-10-20 13:09:53.32,169,-406,-2035,-7,20,-42,1181,-1182,2363,0
,187,2023-10-20 13:09:53.33,173,-414,-2032,-19,10,-40,1184,-1201,2385,8
,188,2023-10-20 13:09:53.34,169,-419,-2040,-34,-3,-35,1186,-1184,2370,-1
,189,2023-10-20 13:09:53.35,167,-418,-2036,-38,-8,-34,1179,-1199,2378,10
,190,2023-10-20 13:09:53.36,187,-423,-2010,-37,-5,-25,1176,-1189,2365,6
,191,2023-10-20 13:09:53.37,181,-415,-2007,-37,25,-22,1167,-1199,2366,16
,192,2023-10-20 13:09:53.38,179,-405,-2044,-30,29,-21,1206,-1191,2397,-7
,193,2023-10-20 13:09:53.39,166,-391,-2050,-23,16,-21,1187,-1197,2384,5
,194,2023-10-20 13:09:53.40,176,-396,-2045,-17,11,-18,1214,-1194,2408,-10
,195,2023-10-20 13:09:53.41,156,-390,-2058,-12,4,-12,1178,-1196,2374,9
,196,2023-10-20 13:09:53.42,158,-392,-2082,-15,-26,-14,1216,-1199,2415,-8
,197,2023-10-20 13:09:53.43,159,-367,-2075,-14,-45,-14,1172,-1196,2368,12
,198,2023-10-20 13:09:53.44,160,-359,-2045,-22,-61,-18,1203,-1204,2407,0
,199,2023-10-20 13:09:53.45,171,-354,-2030,-26,-63,-40,1158,-1201,2359,21
,200,2023-10-20 13:09:53.46,176,-382,-1993,-30,-63,-41,1174,-1212,2386,19
,201,2023-10-20 13:09:53.47,178,-429,-1960,-26,-47,-37,1123,-1200,2323,38
,202,2023-10-20 13:09:53.48,124,-400,-2008,-24,-16,-41,1140,-1211,2351,35
,203,2023-10-20 13:09:53.49,123,-354,-2072,-17,-44,-45,1084,-1188,2272,52
,204,2023-10-20 13:09:53.50,146,-341,-2021,-3,-79,-37,1050,-1209,2259,79
,205,2023-10-20 13:09:53.51,148,-364,-1976,-12,-87,-38,1008,-1197,2205,94
,206,2023-10-20 13:09:53.52,156,-385,-1974,-47,-51,-47,964,-1224,2188,130
,207,2023-10-20 13:09:53.53,136,-364,-2020,-64,-18,-50,946,-1201,2147,127
,208,2023-10-20 13:09:53.54,140,-381,-2033,-59,-18,-42,894,-1224,2118,165
,209,2023-10-20 13:09:53.55,131,-399,-2010,-41,-27,-38,867,-1178,2045,155
,210,2023-10-20 13:09:53.56,139,-390,-2002,-20,-40,-36,629,-1112,1741,241
,211,2023-10-20 13:09:53.57,147,-370,-2005,-2,-34,-37,660,-987,1647,163
,212,2023-10-20 13:09:53.58,131,-389,-1988,22,-34,-39,1070,-1011,2081,-29
,213,2023-10-20 13:09:53.59,136,-406,-1993,61,-55,-45,1052,-970,2022,-41
,214,2023-10-20 13:09:53.60,140,-408,-1992,104,-74,-46,1109,-994,2103,-57
,215,2023-10-20 13:09:53.61,143,-415,-2006,133,-78,-46,925,-937,1862,6
,216,2023-10-20 13:09:53.62,143,-416,-2003,147,-76,-50,1064,-1003,2067,-30
,217,2023-10-20 13:09:53.63,135,-416,-2015,149,-59,-56,946,-946,1892,0
,218,2023-10-20 13:09:53.64,136,-424,-2013,135,-36,-62,1081,-996,2077,-42
,219,2023-10-20 13:09:53.65,133,-439,-2017,110,-8,-66,921,-924,1845,1
,220,2023-10-20 13:09:53.66,123,-449,-2017,96,-2,-74,1063,-983,2046,-40
,221,2023-10-20 13:09:53.67,121,-456,-2012,87,-7,-74,922,-921,1843,0
,222,2023-10-20 13:09:53.68,126,-464,-2018,88,-14,-73,1126,-1023,2149,-51
,223,2023-10-20 13:09:53.69,126,-464,-2010,77,-2,-65,941,-959,1900,9
,224,2023-10-20 13:09:53.70,116,-470,-2018,57,14,-61,1082,-1024,2106,-29
,225,2023-10-20 13:09:53.71,108,-474,-2027,37,24,-56,896,-938,1834,21
,226,2023-10-20 13:09:53.72,115,-476,-2022,27,26,-44,1075,-1019,2094,-28
,227,2023-10-20 13:09:53.73,102,-474,-2012,30,36,-37,904,-936,1840,16
,228,2023-10-20 13:09:53.74,120,-443,-2002,32,28,-42,1099,-1024,2123,-37
,229,2023-10-20 13:09:53.75,121,-412,-2015,23,34,-47,905,-938,1843,16
,230,2023-10-20 13:09:53.76,121,-420,-1996,4,42,-54,1073,-1015,2088,-29
,231,2023-10-20 13:09:53.77,131,-423,-1985,-12,55,-59,886,-924,1810,19
,232,2023-10-20 13:09:53.78,130,-414,-1998,-26,61,-60,1092,-1023,2115,-34
,233,2023-10-20 13:09:53.79,127,-419,-2021,-43,62,-64,898,-933,1831,17
,234,2023-10-20 13:09:53.80,121,-428,-2018,-44,51,-56,1085,-1013,2098,-36
,235,2023-10-20 13:09:53.81,113,-427,-2004,-43,43,-49,889,-913,1802,12
,236,2023-10-20 13:09:53.82,152,-393,-2002,-35,37,-42,1098,-1011,2109,-43
,237,2023-10-20 13:09:53.83,155,-382,-2022,-45,56,-41,893,-920,1813,13
,238,2023-10-20 13:09:53.84,155,-374,-2023,-53,67,-45,1075,-1025,2100,-25
,239,2023-10-20 13:09:53.85,170,-368,-2029,-47,73,-57,868,-924,1792,28
,240,2023-10-20 13:09:53.86,170,-354,-2018,-34,79,-74,1098,-1028,2126,-35
,241,2023-10-20 13:09:53.87,180,-363,-2015,-25,87,-92,898,-927,1825,14
,242,2023-10-20 13:09:53.88,186,-368,-2022,-15,91,-105,1121,-1040,2161,-40
,243,2023-10-20 13:09:53.89,197,-376,-2040,-8,83,-111,891,-927,1818,18
,244,2023-10-20 13:09:53.90,164,-366,-2030,4,81,-127,1068,-1013,2081,-27
,245,2023-10-20 13:09:53.91,197,-409,-2035,8,58,-127,854,-900,1754,23
,246,2023-10-20 13:09:53.92,194,-419,-2010,15,47,-120,1059,-1012,2071,-23
,247,2023-10-20 13:09:53.93,198,-419,-2035,22,42,-117,863,-906,1769,21
,248,2023-10-20 13:09:53.94,203,-401,-2048,19,31,-107,1094,-1005,2099,-44
,249,2023-10-20 13:09:53.95,213,-412,-2030,21,30,-96,888,-902,1790,7
,250,2023-10-20 13:09:53.96,205,-421,-2015,22,33,-85,1166,-1056,2222,-55
,251,2023-10-20 13:09:53.97,199,-428,-2027,26,25,-72,1045,-1040,2085,-2
,252,2023-10-20 13:09:53.98,200,-421,-2027,38,16,-60,1328,-1220,2548,-54
,253,2023-10-20 13:09:53.99,187,-414,-2019,54,3,-53,1104,-1153,2257,24
,254,2023-10-20 13:09:54.00,195,-407,-2014,56,-1,-46,1318,-1259,2577,-29
,255,2023-10-20 13:09:54.01,180,-399,-2031,49,-12,-43,1083,-1148,2231,32
,256,2023-10-20 13:09:54.02,189,-421,-2027,47,-25,-38,1257,-1224,2481,-16
,257,2023-10-20 13:09:54.03,173,-409,-2031,44,-31,-32,833,-1020,1853,93
,258,2023-10-20 13:09:54.04,193,-406,-2012,44,-53,-31,839,-976,1815,68
,259,2023-10-20 13:09:54.05,194,-408,-2008,48,-43,-30,732,-832,1564,50
,260,2023-10-20 13:09:54.06,175,-405,-2015,46,-20,-30,1089,-977,2066,-56
,261,2023-10-20 13:09:54.07,196,-396,-2011,34,-6,-30,916,-910,1826,-3
,262,2023-10-20 13:09:54.08,171,-412,-2015,15,4,-30,1148,-1034,2182,-57
,263,2023-10-20 13:09:54.09,172,-439,-2028,13,4,-27,896,-917,1813,10
,264,2023-10-20 13:09:54.10,158,-436,-2047,17,4,-17,1110,-1024,2134,-43
