// Data mode  : Full
// Data quality  : High
// Acceleration sensor's range  : 16g
// Gyroscope sensor's range  : 2000dps
//
//ARTIFACT,NUM,DATE,ACC_X,ACC_Y,ACC_Z,GYRO_X,GYRO_Y,GYRO_Z,EOG_L,EOG_R,EOG_H,EOG_V
,1,2023-10-27 11:52:42.07,78,-261,-2044,11,1,9,634,137,497,-385
,2,2023-10-27 11:52:42.08,75,-259,-2047,9,0,10,615,124,491,-369
,3,2023-10-27 11:52:42.09,76,-263,-2030,13,1,11,624,132,492,-378
,4,2023-10-27 11:52:42.10,78,-267,-2030,12,8,16,602,116,486,-359
,5,2023-10-27 11:52:42.11,71,-263,-2043,12,7,13,616,124,492,-370
,6,2023-10-27 11:52:42.12,72,-268,-2045,11,10,17,590,109,481,-349
,7,2023-10-27 11:52:42.13,79,-266,-2041,10,5,16,607,120,487,-363
,8,2023-10-27 11:52:42.14,73,-267,-2045,12,8,19,572,100,472,-336
,9,2023-10-27 11:52:42.15,69,-274,-2042,11,10,24,603,118,485,-360
,10,2023-10-27 11:52:42.16,72,-264,-2043,8,6,23,587,111,476,-349
,11,2023-10-27 11:52:42.17,85,-270,-2038,9,1,22,598,121,477,-359
,12,2023-10-27 11:52:42.18,87,-272,-2036,9,1,21,573,102,471,-337
,13,2023-10-27 11:52:42.19,67,-263,-2033,10,3,21,582,109,473,-345
,14,2023-10-27 11:52:42.20,87,-261,-2038,10,1,16,566,99,467,-332
,15,2023-10-27 11:52:42.21,84,-259,-2032,13,5,17,582,116,466,-349
,16,2023-10-27 11:52:42.22,83,-264,-2044,12,11,18,567,107,460,-337
,17,2023-10-27 11:52:42.23,83,-268,-2039,12,3,15,578,119,459,-348
,18,2023-10-27 11:52:42.24,83,-268,-2040,15,9,17,565,106,459,-335
,19,2023-10-27 11:52:42.25,88,-264,-2033,14,7,11,580,114,466,-347
,20,2023-10-27 11:52:42.26,87,-260,-2039,17,14,13,563,108,455,-335
,21,2023-10-27 11:52:42.27,86,-266,-2035,15,15,13,572,115,457,-343
,22,2023-10-27 11:52:42.28,80,-271,-2039,16,16,9,556,107,449,-331
,23,2023-10-27 11:52:42.29,85,-267,-2039,15,13,6,564,114,450,-339
,24,2023-10-27 11:52:42.30,91,-265,-2037,11,5,5,548,107,441,-327
,25,2023-10-27 11:52:42.31,86,-269,-2049,9,1,5,554,112,442,-333
,26,2023-10-27 11:52:42.32,82,-277,-2044,8,-2,2,540,101,439,-320
,27,2023-10-27 11:52:42.33,88,-267,-2044,8,-3,8,546,109,437,-327
,28,2023-10-27 11:52:42.34,87,-269,-2045,7,0,12,529,94,435,-311
,29,2023-10-27 11:52:42.35,82,-264,-2040,6,-5,15,541,101,440,-321
,30,2023-10-27 11:52:42.36,97,-265,-2040,0,-6,10,528,94,434,-311
,31,2023-10-27 11:52:42.37,80,-261,-2045,1,5,20,542,100,442,-321
,32,2023-10-27 11:52:42.38,73,-264,-2039,1,1,21,529,94,435,-311
,33,2023-10-27 11:52:42.39,73,-256,-2044,3,-3,20,535,97,438,-316
,34,2023-10-27 11:52:42.40,72,-262,-2038,6,-3,22,521,91,430,-306
,35,2023-10-27 11:52:42.41,79,-256,-2037,10,-3,18,526,97,429,-311
,36,2023-10-27 11:52:42.42,76,-259,-2040,15,-5,24,513,88,425,-300
,37,2023-10-27 11:52:42.43,84,-257,-2032,18,-2,25,521,93,428,-307
,38,2023-10-27 11:52:42.44,85,-259,-2035,21,-7,19,513,84,429,-298
,39,2023-10-27 11:52:42.45,70,-255,-2034,19,-3,20,520,92,428,-306
,40,2023-10-27 11:52:42.46,80,-260,-2034,17,-9,17,511,84,427,-297
,41,2023-10-27 11:52:42.47,93,-263,-2036,18,-5,16,520,94,426,-307
,42,2023-10-27 11:52:42.48,70,-266,-2041,19,2,20,508,82,426,-295
,43,2023-10-27 11:52:42.49,68,-259,-2038,18,4,15,512,90,422,-301
,44,2023-10-27 11:52:42.50,75,-267,-2039,17,8,15,498,82,416,-290
,45,2023-10-27 11:52:42.51,87,-273,-2035,20,13,16,502,86,416,-294
,46,2023-10-27 11:52:42.52,78,-267,-2030,19,19,11,503,85,418,-294
,47,2023-10-27 11:52:42.53,86,-260,-2036,19,24,12,500,87,413,-293
,48,2023-10-27 11:52:42.54,78,-264,-2042,19,23,5,491,82,409,-286
,49,2023-10-27 11:52:42.55,74,-269,-2046,16,16,0,481,78,403,-279
,50,2023-10-27 11:52:42.56,86,-276,-2054,16,17,0,492,84,408,-288
,51,2023-10-27 11:52:42.57,91,-274,-2049,17,19,3,496,90,406,-293
,52,2023-10-27 11:52:42.58,92,-276,-2042,16,7,5,489,89,400,-289
,53,2023-10-27 11:52:42.59,92,-277,-2037,15,7,6,495,91,404,-293
,54,2023-10-27 11:52:42.60,96,-270,-2036,16,9,7,488,87,401,-287
,55,2023-10-27 11:52:42.61,86,-272,-2034,9,8,5,486,85,401,-285
,56,2023-10-27 11:52:42.62,84,-276,-2045,8,5,7,478,80,398,-279
,57,2023-10-27 11:52:42.63,94,-271,-2045,8,12,9,478,82,396,-280
,58,2023-10-27 11:52:42.64,89,-272,-2051,3,5,6,475,80,395,-277
,59,2023-10-27 11:52:42.65,89,-273,-2048,2,9,9,476,82,394,-279
,60,2023-10-27 11:52:42.66,89,-268,-2042,3,2,6,478,80,398,-279
,61,2023-10-27 11:52:42.67,88,-265,-2046,0,1,10,478,84,394,-281
,62,2023-10-27 11:52:42.68,82,-270,-2039,2,3,12,473,79,394,-276
,63,2023-10-27 11:52:42.69,91,-262,-2041,1,1,11,474,83,391,-278
,64,2023-10-27 11:52:42.70,75,-260,-2042,3,12,21,468,80,388,-274
,65,2023-10-27 11:52:42.71,92,-262,-2035,-1,6,13,470,82,388,-276
,66,2023-10-27 11:52:42.72,85,-265,-2035,-2,11,15,466,80,386,-273
,67,2023-10-27 11:52:42.73,83,-266,-2042,0,7,14,469,83,386,-276
,68,2023-10-27 11:52:42.74,73,-269,-2039,-1,5,16,456,70,386,-263
,69,2023-10-27 11:52:42.75,75,-266,-2043,2,8,19,441,47,394,-244
,70,2023-10-27 11:52:42.76,81,-267,-2034,3,2,17,432,31,401,-231
,71,2023-10-27 11:52:42.77,73,-263,-2035,3,7,21,431,28,403,-229
,72,2023-10-27 11:52:42.78,91,-265,-2040,2,4,17,440,41,399,-240
,73,2023-10-27 11:52:42.79,78,-258,-2040,0,10,15,444,50,394,-247
,74,2023-10-27 11:52:42.80,91,-263,-2046,1,11,15,444,54,390,-249
,75,2023-10-27 11:52:42.81,82,-256,-2041,0,8,7,445,56,389,-250
,76,2023-10-27 11:52:42.82,85,-262,-2040,0,12,11,444,59,385,-251
,77,2023-10-27 11:52:42.83,85,-258,-2048,2,5,11,446,61,385,-253
,78,2023-10-27 11:52:42.84,88,-262,-2043,3,1,10,446,62,384,-254
,79,2023-10-27 11:52:42.85,96,-265,-2037,9,2,8,448,63,385,-255
,80,2023-10-27 11:52:42.86,89,-266,-2037,10,-3,5,451,65,386,-258
,81,2023-10-27 11:52:42.87,93,-272,-2043,13,-2,12,446,67,379,-256
,82,2023-10-27 11:52:42.88,91,-266,-2038,13,0,12,445,69,376,-257
,83,2023-10-27 11:52:42.89,88,-273,-2033,13,7,18,441,67,374,-254
,84,2023-10-27 11:52:42.90,88,-276,-2042,12,3,16,442,66,376,-254
,85,2023-10-27 11:52:42.91,82,-268,-2037,9,7,18,436,59,377,-247
,86,2023-10-27 11:52:42.92,84,-274,-2047,6,0,19,441,63,378,-252
,87,2023-10-27 11:52:42.93,77,-262,-2039,5,1,17,452,65,387,-258
,88,2023-10-27 11:52:42.94,85,-266,-2036,0,3,17,448,69,379,-258
,89,2023-10-27 11:52:42.95,79,-265,-2043,0,2,16,444,64,380,-254
,90,2023-10-27 11:52:42.96,88,-256,-2035,-2,-1,14,434,62,372,-248
,91,2023-10-27 11:52:42.97,88,-255,-2027,-3,8,11,440,68,372,-254
,92,2023-10-27 11:52:42.98,96,-261,-2034,-2,12,5,445,70,375,-257
,93,2023-10-27 11:52:42.99,83,-261,-2044,-1,14,8,438,66,372,-252
,94,2023-10-27 11:52:43.00,86,-265,-2039,0,14,7,428,58,370,-243
,95,2023-10-27 11:52:43.01,83,-258,-2046,4,14,8,424,52,372,-238
,96,2023-10-27 11:52:43.02,86,-265,-2041,6,4,2,431,60,371,-245
,97,2023-10-27 11:52:43.03,84,-270,-2041,7,7,6,434,62,372,-248
,98,2023-10-27 11:52:43.04,83,-267,-2040,8,5,9,442,74,368,-258
,99,2023-10-27 11:52:43.05,82,-265,-2037,8,4,9,432,60,372,-246
,100,2023-10-27 11:52:43.06,87,-270,-2039,8,21,18,440,73,367,-256
,101,2023-10-27 11:52:43.07,82,-266,-2039,6,18,20,431,66,365,-248
,102,2023-10-27 11:52:43.08,88,-262,-2044,5,16,17,434,70,364,-252
,103,2023-10-27 11:52:43.09,88,-267,-2041,5,13,22,424,63,361,-243
,104,2023-10-27 11:52:43.10,93,-265,-2040,3,7,15,428,66,362,-247
,105,2023-10-27 11:52:43.11,89,-266,-2043,4,9,16,420,59,361,-239
,106,2023-10-27 11:52:43.12,91,-265,-2038,2,8,13,428,66,362,-247
,107,2023-10-27 11:52:43.13,86,-258,-2046,1,13,9,425,63,362,-244
,108,2023-10-27 11:52:43.14,99,-259,-2034,2,8,15,433,69,364,-251
,109,2023-10-27 11:52:43.15,92,-249,-2039,-1,-3,4,423,68,355,-245
,110,2023-10-27 11:52:43.16,95,-257,-2039,0,8,9,431,73,358,-252
,111,2023-10-27 11:52:43.17,83,-256,-2044,-3,-3,3,422,64,358,-243
,112,2023-10-27 11:52:43.18,85,-258,-2049,-2,0,4,428,68,360,-248
,113,2023-10-27 11:52:43.19,88,-261,-2048,-1,3,7,416,58,358,-237
,114,2023-10-27 11:52:43.20,90,-259,-2039,-2,0,7,424,66,358,-245
,115,2023-10-27 11:52:43.21,95,-262,-2035,3,6,11,415,55,360,-235
,116,2023-10-27 11:52:43.22,99,-266,-2040,3,2,14,422,68,354,-245
,117,2023-10-27 11:52:43.23,95,-259,-2034,6,8,15,414,58,356,-236
,118,2023-10-27 11:52:43.24,88,-255,-2036,5,8,15,426,73,353,-249
,119,2023-10-27 11:52:43.25,92,-249,-2039,2,7,12,414,62,352,-238
,120,2023-10-27 11:52:43.26,90,-253,-2041,1,9,16,421,65,356,-243
,121,2023-10-27 11:52:43.27,82,-258,-2047,-2,13,15,407,55,352,-231
,122,2023-10-27 11:52:43.28,87,-269,-2043,-2,9,18,414,65,349,-239
,123,2023-10-27 11:52:43.29,83,-263,-2043,-1,9,16,405,53,352,-229
,124,2023-10-27 11:52:43.30,96,-259,-2044,0,17,18,413,63,350,-238
,125,2023-10-27 11:52:43.31,83,-259,-2036,4,16,20,408,54,354,-231
,126,2023-10-27 11:52:43.32,84,-260,-2034,7,27,20,418,69,349,-243
,127,2023-10-27 11:52:43.33,103,-249,-2035,10,19,13,408,58,350,-233
,128,2023-10-27 11:52:43.34,113,-254,-2042,11,13,10,430,78,352,-254
,129,2023-10-27 11:52:43.35,93,-251,-2050,11,21,6,404,58,346,-231
,130,2023-10-27 11:52:43.36,106,-257,-2039,11,19,7,415,67,348,-241
,131,2023-10-27 11:52:43.37,94,-260,-2041,13,24,5,390,42,348,-216
,132,2023-10-27 11:52:43.38,103,-261,-2048,14,26,8,417,65,352,-241
,133,2023-10-27 11:52:43.39,92,-261,-2046,13,21,4,400,55,345,-227
,134,2023-10-27 11:52:43.40,96,-267,-2036,12,7,5,422,71,351,-246
,135,2023-10-27 11:52:43.41,104,-269,-2041,9,4,9,403,60,343,-231
,136,2023-10-27 11:52:43.42,103,-259,-2036,9,7,12,416,70,346,-243
,137,2023-10-27 11:52:43.43,97,-262,-2040,3,6,10,392,52,340,-222
,138,2023-10-27 11:52:43.44,98,-261,-2041,4,6,13,412,67,345,-239
,139,2023-10-27 11:52:43.45,102,-265,-2044,0,6,13,398,55,343,-226
,140,2023-10-27 11:52:43.46,92,-264,-2045,-1,-3,14,406,60,346,-233
,141,2023-10-27 11:52:43.47,84,-271,-2041,-1,5,16,396,53,343,-224
,142,2023-10-27 11:52:43.48,99,-263,-2049,1,-1,19,411,64,347,-237
,143,2023-10-27 11:52:43.49,94,-259,-2040,1,-7,16,399,55,344,-227
,144,2023-10-27 11:52:43.50,96,-260,-2037,3,-12,18,408,68,340,-238
,145,2023-10-27 11:52:43.51,89,-255,-2036,4,-7,26,393,54,339,-223
,146,2023-10-27 11:52:43.52,98,-255,-2038,5,-11,23,406,65,341,-235
,147,2023-10-27 11:52:43.53,100,-261,-2036,5,-6,25,390,52,338,-221
,148,2023-10-27 11:52:43.54,95,-256,-2037,-1,-8,21,409,64,345,-236
,149,2023-10-27 11:52:43.55,98,-261,-2039,-1,1,26,394,52,342,-223
,150,2023-10-27 11:52:43.56,101,-253,-2040,-2,5,28,405,66,339,-235
,151,2023-10-27 11:52:43.57,89,-256,-2037,-3,10,26,391,54,337,-222
,152,2023-10-27 11:52:43.58,86,-260,-2042,-4,7,25,403,64,339,-233
,153,2023-10-27 11:52:43.59,83,-247,-2043,-3,9,27,388,51,337,-219
,154,2023-10-27 11:52:43.60,88,-257,-2047,-2,6,24,402,62,340,-232
,155,2023-10-27 11:52:43.61,89,-252,-2051,-3,6,20,388,51,337,-219
,156,2023-10-27 11:52:43.62,91,-250,-2035,-1,1,17,403,60,343,-231
,157,2023-10-27 11:52:43.63,105,-255,-2040,1,1,15,387,53,334,-220
,158,2023-10-27 11:52:43.64,88,-249,-2038,2,7,12,402,65,337,-233
,159,2023-10-27 11:52:43.65,79,-249,-2049,3,9,13,388,54,334,-221
,160,2023-10-27 11:52:43.66,93,-257,-2039,4,5,10,399,64,335,-231
,161,2023-10-27 11:52:43.67,91,-259,-2044,3,-2,12,384,51,333,-217
,162,2023-10-27 11:52:43.68,84,-260,-2041,6,1,14,396,62,334,-229
,163,2023-10-27 11:52:43.69,85,-262,-2041,4,1,17,385,50,335,-217
,164,2023-10-27 11:52:43.70,84,-256,-2039,1,-3,16,397,61,336,-229
,165,2023-10-27 11:52:43.71,84,-265,-2034,2,7,23,388,50,338,-219
,166,2023-10-27 11:52:43.72,79,-254,-2040,2,4,21,400,65,335,-232
,167,2023-10-27 11:52:43.73,93,-251,-2037,1,9,19,386,54,332,-220
,168,2023-10-27 11:52:43.74,98,-252,-2036,2,6,19,397,66,331,-231
,169,2023-10-27 11:52:43.75,86,-253,-2039,3,5,22,394,61,333,-227
,170,2023-10-27 11:52:43.76,88,-252,-2041,5,2,20,398,63,335,-230
,171,2023-10-27 11:52:43.77,88,-249,-2041,3,8,19,384,52,332,-218
,172,2023-10-27 11:52:43.78,95,-245,-2043,6,3,17,390,50,340,-220
,173,2023-10-27 11:52:43.79,92,-240,-2036,4,4,14,386,57,329,-221
,174,2023-10-27 11:52:43.80,97,-243,-2041,4,4,14,400,67,333,-233
,175,2023-10-27 11:52:43.81,91,-247,-2043,5,5,10,389,61,328,-225
,176,2023-10-27 11:52:43.82,81,-249,-2041,5,8,8,394,65,329,-229
,177,2023-10-27 11:52:43.83,91,-248,-2042,6,3,5,382,55,327,-218
,178,2023-10-27 11:52:43.84,95,-258,-2041,8,1,4,382,56,326,-219
,179,2023-10-27 11:52:43.85,100,-250,-2042,10,9,7,379,44,335,-211
,180,2023-10-27 11:52:43.86,94,-259,-2048,10,5,5,385,53,332,-219
,181,2023-10-27 11:52:43.87,100,-250,-2045,9,5,9,380,46,334,-213
,182,2023-10-27 11:52:43.88,98,-259,-2040,13,10,11,394,65,329,-229
,183,2023-10-27 11:52:43.89,79,-254,-2042,11,7,12,387,58,329,-222
,184,2023-10-27 11:52:43.90,83,-254,-2041,11,7,12,398,68,330,-233
,185,2023-10-27 11:52:43.91,82,-254,-2039,9,9,16,387,60,327,-223
,186,2023-10-27 11:52:43.92,89,-252,-2037,11,0,11,394,67,327,-230
,187,2023-10-27 11:52:43.93,95,-249,-2041,10,-2,14,380,54,326,-217
,188,2023-10-27 11:52:43.94,90,-262,-2039,11,2,16,396,60,336,-228
,189,2023-10-27 11:52:43.95,94,-258,-2045,13,6,18,384,50,334,-217
,190,2023-10-27 11:52:43.96,97,-249,-2039,11,4,15,392,57,335,-224
,191,2023-10-27 11:52:43.97,87,-252,-2044,11,3,12,379,45,334,-212
,192,2023-10-27 11:52:43.98,102,-254,-2044,13,4,15,390,54,336,-222
,193,2023-10-27 11:52:43.99,105,-251,-2037,12,-3,13,379,46,333,-212
,194,2023-10-27 11:52:44.00,101,-255,-2036,14,4,14,387,53,334,-220
,195,2023-10-27 11:52:44.01,88,-257,-2036,12,2,12,381,44,337,-212
,196,2023-10-27 11:52:44.02,87,-250,-2043,11,10,17,386,48,338,-217
,197,2023-10-27 11:52:44.03,80,-252,-2051,8,10,12,378,43,335,-210
,198,2023-10-27 11:52:44.04,98,-257,-2048,9,18,15,389,54,335,-221
,199,2023-10-27 11:52:44.05,89,-258,-2049,7,10,14,380,49,331,-214
,200,2023-10-27 11:52:44.06,91,-258,-2043,7,-5,10,387,56,331,-221
,201,2023-10-27 11:52:44.07,87,-256,-2040,10,1,11,377,49,328,-213
,202,2023-10-27 11:52:44.08,96,-255,-2033,14,0,15,384,55,329,-219
,203,2023-10-27 11:52:44.09,86,-256,-2027,13,-3,10,381,46,335,-213
,204,2023-10-27 11:52:44.10,93,-251,-2036,11,-1,12,387,55,332,-221
,205,2023-10-27 11:52:44.11,98,-247,-2033,9,1,11,378,49,329,-213
,206,2023-10-27 11:52:44.12,102,-258,-2043,7,7,14,384,56,328,-220
,207,2023-10-27 11:52:44.13,90,-259,-2036,8,13,15,376,48,328,-212
,208,2023-10-27 11:52:44.14,82,-254,-2045,6,9,16,382,51,331,-216
,209,2023-10-27 11:52:44.15,87,-257,-2043,5,9,18,376,45,331,-210
,210,2023-10-27 11:52:44.16,91,-261,-2036,7,0,17,397,59,338,-228
,211,2023-10-27 11:52:44.17,87,-254,-2038,8,6,16,376,45,331,-210
,212,2023-10-27 11:52:44.18,98,-254,-2039,9,7,17,383,53,330,-218
,213,2023-10-27 11:52:44.19,85,-250,-2037,13,10,15,366,36,330,-201
,214,2023-10-27 11:52:44.20,94,-255,-2041,14,10,10,381,50,331,-215
,215,2023-10-27 11:52:44.21,94,-247,-2043,16,6,6,374,43,331,-208
,216,2023-10-27 11:52:44.22,99,-253,-2047,16,7,3,373,43,330,-208
,217,2023-10-27 11:52:44.23,98,-259,-2047,14,7,2,376,46,330,-211
,218,2023-10-27 11:52:44.24,98,-257,-2048,16,5,5,378,49,329,-213
,219,2023-10-27 11:52:44.25,107,-263,-2039,13,0,2,377,44,333,-210
,220,2023-10-27 11:52:44.26,100,-272,-2036,10,-5,8,381,51,330,-216
,221,2023-10-27 11:52:44.27,100,-262,-2036,10,2,13,377,49,328,-213
,222,2023-10-27 11:52:44.28,91,-256,-2044,3,0,13,375,49,326,-212
,223,2023-10-27 11:52:44.29,98,-259,-2044,-2,-1,16,369,42,327,-205
,224,2023-10-27 11:52:44.30,99,-264,-2041,-4,2,21,372,44,328,-208
,225,2023-10-27 11:52:44.31,96,-260,-2042,-5,2,24,370,43,327,-206
,226,2023-10-27 11:52:44.32,109,-266,-2043,-8,-6,18,377,44,333,-210
,227,2023-10-27 11:52:44.33,96,-253,-2047,-6,4,25,372,42,330,-207
,228,2023-10-27 11:52:44.34,90,-258,-2042,-4,-7,22,375,45,330,-210
,229,2023-10-27 11:52:44.35,86,-252,-2044,-2,-4,26,373,47,326,-210
,230,2023-10-27 11:52:44.36,91,-252,-2033,1,-2,22,374,47,327,-210
,231,2023-10-27 11:52:44.37,90,-243,-2035,1,-5,18,371,46,325,-208
,232,2023-10-27 11:52:44.38,90,-248,-2031,2,-2,17,368,43,325,-205
,233,2023-10-27 11:52:44.39,86,-247,-2034,1,1,17,371,45,326,-208
,234,2023-10-27 11:52:44.40,82,-244,-2039,1,-3,13,372,44,328,-208
,235,2023-10-27 11:52:44.41,87,-255,-2043,3,3,13,377,46,331,-211
,236,2023-10-27 11:52:44.42,88,-248,-2039,3,7,13,372,44,328,-208
,237,2023-10-27 11:52:44.43,90,-254,-2037,6,8,18,373,50,323,-211
,238,2023-10-27 11:52:44.44,88,-253,-2041,3,9,14,370,46,324,-208
,239,2023-10-27 11:52:44.45,90,-243,-2043,4,13,13,372,47,325,-209
,240,2023-10-27 11:52:44.46,99,-244,-2039,2,13,12,370,44,326,-207
,241,2023-10-27 11:52:44.47,88,-247,-2038,3,11,7,370,45,325,-207
,242,2023-10-27 11:52:44.48,88,-256,-2041,4,13,8,367,43,324,-205
,243,2023-10-27 11:52:44.49,92,-252,-2044,5,8,7,372,43,329,-207
,244,2023-10-27 11:52:44.50,86,-259,-2037,6,8,6,368,44,324,-206
,245,2023-10-27 11:52:44.51,97,-254,-2042,5,10,4,370,47,323,-208
,246,2023-10-27 11:52:44.52,97,-254,-2042,4,7,2,365,45,320,-205
,247,2023-10-27 11:52:44.53,93,-251,-2042,1,7,0,369,48,321,-208
,248,2023-10-27 11:52:44.54,92,-256,-2051,3,6,-1,366,41,325,-203
,249,2023-10-27 11:52:44.55,95,-262,-2048,1,10,4,367,45,322,-206
,250,2023-10-27 11:52:44.56,97,-259,-2049,0,7,9,365,41,324,-203
,251,2023-10-27 11:52:44.57,99,-258,-2049,0,9,13,379,56,323,-217
,252,2023-10-27 11:52:44.58,100,-257,-2048,-2,10,12,365,42,323,-203
,253,2023-10-27 11:52:44.59,94,-257,-2045,-8,10,16,368,46,322,-207
,254,2023-10-27 11:52:44.60,95,-254,-2044,-8,11,18,355,30,325,-192
,255,2023-10-27 11:52:44.61,97,-258,-2037,-10,10,18,369,50,319,-209
,256,2023-10-27 11:52:44.62,100,-249,-2036,-13,10,15,360,40,320,-200
,257,2023-10-27 11:52:44.63,105,-251,-2028,-15,17,16,369,48,321,-208
,258,2023-10-27 11:52:44.64,98,-244,-2036,-17,8,8,380,60,320,-220
,259,2023-10-27 11:52:44.65,105,-244,-2037,-15,10,8,394,84,310,-239
,260,2023-10-27 11:52:44.66,104,-240,-2039,-13,4,5,386,80,306,-233
,261,2023-10-27 11:52:44.67,99,-245,-2043,-12,2,2,390,85,305,-237
,262,2023-10-27 11:52:44.68,103,-244,-2044,-7,1,8,375,68,307,-221
,263,2023-10-27 11:52:44.69,95,-240,-2045,-3,-10,5,383,71,312,-227
,264,2023-10-27 11:52:44.70,89,-244,-2051,1,-14,6,374,61,313,-217
,265,2023-10-27 11:52:44.71,114,-247,-2044,4,-16,8,383,66,317,-224
,266,2023-10-27 11:52:44.72,90,-243,-2044,7,-21,10,367,55,312,-211
,267,2023-10-27 11:52:44.73,95,-251,-2050,4,-18,18,375,63,312,-219
,268,2023-10-27 11:52:44.74,95,-243,-2042,4,-16,20,367,57,310,-212
,269,2023-10-27 11:52:44.75,92,-245,-2046,6,-8,26,377,64,313,-220
,270,2023-10-27 11:52:44.76,97,-245,-2041,6,-6,29,368,53,315,-210
,271,2023-10-27 11:52:44.77,93,-247,-2043,8,-7,30,373,59,314,-216
,272,2023-10-27 11:52:44.78,103,-242,-2043,8,-4,30,367,50,317,-208
,273,2023-10-27 11:52:44.79,106,-241,-2038,7,-3,28,376,62,314,-219
,274,2023-10-27 11:52:44.80,94,-238,-2038,11,0,27,360,47,313,-203
,275,2023-10-27 11:52:44.81,94,-239,-2042,10,4,25,368,55,313,-211
,276,2023-10-27 11:52:44.82,89,-236,-2042,11,4,17,358,48,310,-203
,277,2023-10-27 11:52:44.83,87,-243,-2040,12,10,19,369,57,312,-213
,278,2023-10-27 11:52:44.84,86,-249,-2041,14,8,15,363,44,319,-203
,279,2023-10-27 11:52:44.85,81,-246,-2047,12,-7,8,375,57,318,-216
,280,2023-10-27 11:52:44.86,84,-248,-2042,13,-10,7,366,48,318,-207
,281,2023-10-27 11:52:44.87,96,-246,-2038,12,-13,6,374,59,315,-216
,282,2023-10-27 11:52:44.88,92,-247,-2036,9,-7,5,360,45,315,-202
,283,2023-10-27 11:52:44.89,91,-250,-2042,5,-7,3,371,52,319,-211
,284,2023-10-27 11:52:44.90,87,-256,-2045,6,0,8,357,37,320,-197
,285,2023-10-27 11:52:44.91,84,-257,-2045,5,3,11,371,46,325,-208
,286,2023-10-27 11:52:44.92,100,-252,-2048,6,4,14,358,38,320,-198
,287,2023-10-27 11:52:44.93,82,-258,-2042,6,3,20,370,51,319,-210
,288,2023-10-27 11:52:44.94,93,-246,-2038,6,10,23,354,36,318,-195
,289,2023-10-27 11:52:44.95,86,-251,-2035,7,11,24,366,46,320,-206
,290,2023-10-27 11:52:44.96,89,-249,-2034,8,0,22,351,32,319,-191
,291,2023-10-27 11:52:44.97,95,-246,-2041,8,4,27,362,42,320,-202
,292,2023-10-27 11:52:44.98,92,-243,-2036,8,5,26,360,41,319,-200
,293,2023-10-27 11:52:44.99,95,-242,-2039,5,0,20,365,44,321,-204
,294,2023-10-27 11:52:45.00,91,-249,-2043,5,3,20,353,34,319,-193
,295,2023-10-27 11:52:45.01,89,-243,-2042,1,2,17,360,36,324,-198
,296,2023-10-27 11:52:45.02,85,-244,-2041,0,2,15,353,33,320,-193
,297,2023-10-27 11:52:45.03,92,-241,-2039,-2,0,8,362,40,322,-201
,298,2023-10-27 11:52:45.04,95,-249,-2035,4,2,8,347,29,318,-188
,299,2023-10-27 11:52:45.05,101,-243,-2045,10,-8,4,357,41,316,-199
,300,2023-10-27 11:52:45.06,97,-246,-2046,13,-8,1,348,29,319,-188
,301,2023-10-27 11:52:45.07,99,-237,-2048,13,4,5,347,34,313,-190
,302,2023-10-27 11:52:45.08,89,-246,-2044,8,-3,-1,345,30,315,-187
,303,2023-10-27 11:52:45.09,100,-258,-2045,6,-7,-1,359,45,314,-202
,304,2023-10-27 11:52:45.10,92,-248,-2039,11,-2,6,342,29,313,-185
,305,2023-10-27 11:52:45.11,90,-253,-2032,10,-6,6,356,43,313,-199
,306,2023-10-27 11:52:45.12,92,-249,-2033,9,-2,11,341,32,309,-186
,307,2023-10-27 11:52:45.13,98,-253,-2036,11,4,8,357,42,315,-199
,308,2023-10-27 11:52:45.14,95,-251,-2043,11,8,9,341,30,311,-185
,309,2023-10-27 11:52:45.15,87,-252,-2046,10,2,11,357,43,314,-200
,310,2023-10-27 11:52:45.16,95,-249,-2054,9,-9,8,344,39,305,-191
,311,2023-10-27 11:52:45.17,95,-253,-2047,8,-6,13,357,52,305,-204
,312,2023-10-27 11:52:45.18,87,-247,-2048,4,-9,17,341,36,305,-188
,313,2023-10-27 11:52:45.19,87,-244,-2046,3,-11,16,354,44,310,-199
,314,2023-10-27 11:52:45.20,90,-239,-2044,4,-10,16,341,33,308,-187
,315,2023-10-27 11:52:45.21,80,-243,-2037,2,-13,16,354,45,309,-199
,316,2023-10-27 11:52:45.22,82,-245,-2030,3,-10,12,346,35,311,-190
,317,2023-10-27 11:52:45.23,82,-247,-2042,6,-14,13,360,46,314,-203
,318,2023-10-27 11:52:45.24,91,-243,-2040,5,-4,11,345,35,310,-190
,319,2023-10-27 11:52:45.25,86,-248,-2034,6,-5,9,356,49,307,-202
,320,2023-10-27 11:52:45.26,92,-243,-2038,8,0,8,345,43,302,-194
,321,2023-10-27 11:52:45.27,95,-237,-2041,8,0,9,359,56,303,-207
,322,2023-10-27 11:52:45.28,88,-243,-2044,9,-2,7,344,45,299,-194
,323,2023-10-27 11:52:45.29,83,-244,-2043,13,-5,8,358,58,300,-208
,324,2023-10-27 11:52:45.30,76,-239,-2046,19,3,10,346,47,299,-196
,325,2023-10-27 11:52:45.31,81,-241,-2041,25,2,10,336,78,258,-207
,326,2023-10-27 11:52:45.32,98,-240,-2035,27,-1,8,279,123,156,-201
,327,2023-10-27 11:52:45.33,81,-242,-2037,28,4,7,281,164,117,-222
,328,2023-10-27 11:52:45.34,79,-240,-2041,28,11,5,271,149,122,-210
,329,2023-10-27 11:52:45.35,86,-241,-2042,30,18,8,307,139,168,-223
,330,2023-10-27 11:52:45.36,90,-254,-2043,28,9,5,304,120,184,-212
,331,2023-10-27 11:52:45.37,85,-256,-2046,30,12,11,327,130,197,-228
,332,2023-10-27 11:52:45.38,88,-259,-2045,32,7,9,317,121,196,-219
,333,2023-10-27 11:52:45.39,78,-252,-2042,30,11,10,350,137,213,-243
,334,2023-10-27 11:52:45.40,82,-259,-2046,31,5,9,331,114,217,-222
,335,2023-10-27 11:52:45.41,86,-255,-2046,32,5,11,348,113,235,-230
,336,2023-10-27 11:52:45.42,90,-261,-2049,32,5,11,325,85,240,-205
,337,2023-10-27 11:52:45.43,92,-261,-2044,30,3,13,356,102,254,-229
,338,2023-10-27 11:52:45.44,87,-260,-2043,32,8,17,348,97,251,-222
,339,2023-10-27 11:52:45.45,89,-258,-2044,33,1,16,368,106,262,-237
,340,2023-10-27 11:52:45.46,88,-258,-2038,31,-1,13,351,93,258,-222
,341,2023-10-27 11:52:45.47,88,-251,-2037,31,3,13,365,99,266,-232
,342,2023-10-27 11:52:45.48,83,-248,-2037,27,4,14,350,83,267,-216
,343,2023-10-27 11:52:45.49,92,-259,-2037,23,-2,9,388,86,302,-237
,344,2023-10-27 11:52:45.50,89,-258,-2039,22,4,13,394,69,325,-231
,345,2023-10-27 11:52:45.51,81,-264,-2040,19,13,13,408,79,329,-243
,346,2023-10-27 11:52:45.52,82,-264,-2039,18,12,16,390,71,319,-230
,347,2023-10-27 11:52:45.53,87,-267,-2046,14,9,12,393,81,312,-237
,348,2023-10-27 11:52:45.54,88,-253,-2044,11,14,11,376,70,306,-223
,349,2023-10-27 11:52:45.55,94,-257,-2051,9,14,11,382,73,309,-227
,350,2023-10-27 11:52:45.56,101,-252,-2037,5,13,11,370,64,306,-217
,351,2023-10-27 11:52:45.57,96,-256,-2040,8,5,7,388,75,313,-231
,352,2023-10-27 11:52:45.58,97,-255,-2035,7,5,7,386,77,309,-231
,353,2023-10-27 11:52:45.59,106,-252,-2042,10,2,3,396,89,307,-242
,354,2023-10-27 11:52:45.60,96,-245,-2038,12,2,5,394,76,318,-235
,355,2023-10-27 11:52:45.61,95,-251,-2040,13,-1,1,402,80,322,-241
,356,2023-10-27 11:52:45.62,88,-258,-2042,15,-6,2,381,58,323,-219
,357,2023-10-27 11:52:45.63,109,-255,-2038,17,-3,4,376,49,327,-212
,358,2023-10-27 11:52:45.64,85,-256,-2042,17,-3,4,362,36,326,-199
,359,2023-10-27 11:52:45.65,93,-262,-2038,20,5,10,378,47,331,-212
,360,2023-10-27 11:52:45.66,84,-262,-2034,21,8,9,378,50,328,-214
,361,2023-10-27 11:52:45.67,90,-262,-2038,20,5,10,385,59,326,-222
,362,2023-10-27 11:52:45.68,85,-261,-2048,22,-1,13,379,54,325,-216
,363,2023-10-27 11:52:45.69,92,-264,-2044,25,0,14,384,60,324,-222
,364,2023-10-27 11:52:45.70,101,-255,-2042,24,-2,18,380,57,323,-218
,365,2023-10-27 11:52:45.71,84,-258,-2043,24,3,16,384,63,321,-223
,366,2023-10-27 11:52:45.72,82,-253,-2050,19,2,13,384,65,319,-224
,367,2023-10-27 11:52:45.73,88,-255,-2042,19,-2,10,390,69,321,-229
,368,2023-10-27 11:52:45.74,83,-254,-2050,18,-2,10,388,69,319,-228
,369,2023-10-27 11:52:45.75,77,-255,-2047,18,-3,9,391,72,319,-231
,370,2023-10-27 11:52:45.76,74,-253,-2036,18,-6,7,385,65,320,-225
,371,2023-10-27 11:52:45.77,70,-260,-2040,22,5,10,382,71,311,-226
,372,2023-10-27 11:52:45.78,66,-255,-2036,22,0,9,383,70,313,-226
,373,2023-10-27 11:52:45.79,76,-251,-2034,21,7,9,390,79,311,-234
,374,2023-10-27 11:52:45.80,90,-253,-2029,19,10,9,400,84,316,-242
,375,2023-10-27 11:52:45.81,91,-256,-2035,17,18,7,385,75,310,-230
,376,2023-10-27 11:52:45.82,85,-259,-2033,17,10,2,380,72,308,-226
,377,2023-10-27 11:52:45.83,84,-260,-2037,17,12,3,370,61,309,-215
,378,2023-10-27 11:52:45.84,91,-257,-2046,15,13,1,378,65,313,-221
,379,2023-10-27 11:52:45.85,99,-263,-2039,12,15,-1,385,68,317,-226
,380,2023-10-27 11:52:45.86,94,-262,-2042,13,15,-3,384,72,312,-228
,381,2023-10-27 11:52:45.87,94,-268,-2043,15,14,-2,372,77,295,-224
,382,2023-10-27 11:52:45.88,92,-263,-2048,15,11,-1,370,77,293,-223
,383,2023-10-27 11:52:45.89,101,-265,-2045,13,5,-3,363,67,296,-215
,384,2023-10-27 11:52:45.90,100,-261,-2049,14,12,0,376,70,306,-223
,385,2023-10-27 11:52:45.91,97,-253,-2049,14,5,1,365,73,292,-219
,386,2023-10-27 11:52:45.92,79,-277,-2048,9,5,-2,361,78,283,-219
,387,2023-10-27 11:52:45.93,111,-270,-2045,10,1,2,355,82,273,-218
,388,2023-10-27 11:52:45.94,92,-265,-2040,10,-6,5,367,81,286,-224
,389,2023-10-27 11:52:45.95,97,-273,-2036,8,0,8,374,74,300,-224
,390,2023-10-27 11:52:45.96,95,-268,-2031,5,8,12,380,70,310,-225
,391,2023-10-27 11:52:45.97,93,-264,-2039,6,8,14,370,68,302,-219
,392,2023-10-27 11:52:45.98,86,-264,-2046,6,13,14,373,69,304,-221
,393,2023-10-27 11:52:45.99,94,-259,-2046,2,17,12,368,70,298,-219
,394,2023-10-27 11:52:46.00,84,-274,-2036,1,10,9,378,74,304,-226
,395,2023-10-27 11:52:46.01,84,-261,-2043,6,3,9,370,74,296,-222
,396,2023-10-27 11:52:46.02,97,-264,-2042,7,-3,11,377,72,305,-224
,397,2023-10-27 11:52:46.03,80,-262,-2045,6,-2,14,370,65,305,-217
,398,2023-10-27 11:52:46.04,104,-262,-2041,5,-2,17,378,64,314,-221
,399,2023-10-27 11:52:46.05,97,-264,-2041,1,11,20,370,64,306,-217
,400,2023-10-27 11:52:46.06,92,-269,-2034,-2,7,19,376,70,306,-223
,401,2023-10-27 11:52:46.07,90,-261,-2028,-2,13,22,360,75,285,-217
,402,2023-10-27 11:52:46.08,89,-254,-2032,-5,22,21,368,76,292,-222
,403,2023-10-27 11:52:46.09,99,-255,-2030,-10,28,21,360,73,287,-216
,404,2023-10-27 11:52:46.10,105,-253,-2036,-17,31,16,368,73,295,-220
,405,2023-10-27 11:52:46.11,96,-256,-2044,-17,34,9,360,72,288,-216
,406,2023-10-27 11:52:46.12,99,-247,-2041,-16,24,4,370,74,296,-222
,407,2023-10-27 11:52:46.13,98,-243,-2043,-14,22,2,368,76,292,-222
,408,2023-10-27 11:52:46.14,93,-236,-2050,-7,15,-4,376,75,301,-225
,409,2023-10-27 11:52:46.15,94,-253,-2051,-4,13,-9,363,76,287,-219
,410,2023-10-27 11:52:46.16,85,-249,-2044,2,1,-13,373,78,295,-225
,411,2023-10-27 11:52:46.17,97,-257,-2039,7,-2,-13,364,74,290,-219
,412,2023-10-27 11:52:46.18,96,-254,-2039,10,-2,-11,374,76,298,-225
,413,2023-10-27 11:52:46.19,105,-267,-2038,16,-3,-9,364,70,294,-217
,414,2023-10-27 11:52:46.20,89,-265,-2043,18,1,-4,373,72,301,-222
,415,2023-10-27 11:52:46.21,95,-274,-2046,17,3,3,373,79,294,-226
,416,2023-10-27 11:52:46.22,103,-276,-2040,16,-1,7,373,73,300,-223
,417,2023-10-27 11:52:46.23,94,-273,-2048,14,1,16,363,69,294,-216
,418,2023-10-27 11:52:46.24,97,-272,-2049,16,4,29,368,62,306,-215
,419,2023-10-27 11:52:46.25,90,-268,-2046,12,-2,33,358,66,292,-212
,420,2023-10-27 11:52:46.26,94,-268,-2042,9,-5,37,373,72,301,-222
,421,2023-10-27 11:52:46.27,78,-254,-2033,9,0,39,356,62,294,-209
,422,2023-10-27 11:52:46.28,91,-256,-2026,10,-2,38,378,74,304,-226
,423,2023-10-27 11:52:46.29,95,-253,-2027,14,5,36,362,68,294,-215
,424,2023-10-27 11:52:46.30,97,-245,-2033,15,17,35,378,73,305,-225
,425,2023-10-27 11:52:46.31,98,-245,-2028,14,26,27,364,67,297,-215
,426,2023-10-27 11:52:46.32,103,-250,-2034,19,34,23,376,69,307,-222
,427,2023-10-27 11:52:46.33,93,-259,-2042,20,33,16,360,62,298,-211
,428,2023-10-27 11:52:46.34,96,-256,-2047,21,34,15,378,66,312,-222
,429,2023-10-27 11:52:46.35,89,-262,-2051,23,22,9,360,64,296,-212
,430,2023-10-27 11:52:46.36,91,-257,-2045,23,21,11,376,70,306,-223
,431,2023-10-27 11:52:46.37,96,-265,-2040,15,22,15,360,64,296,-212
,432,2023-10-27 11:52:46.38,107,-263,-2038,12,13,12,372,68,304,-220
,433,2023-10-27 11:52:46.39,112,-269,-2047,7,18,17,353,57,296,-205
,434,2023-10-27 11:52:46.40,102,-266,-2042,3,16,22,365,58,307,-211
,435,2023-10-27 11:52:46.41,99,-268,-2042,1,16,25,350,53,297,-201
,436,2023-10-27 11:52:46.42,106,-263,-2046,-4,14,25,368,65,303,-216
,437,2023-10-27 11:52:46.43,102,-261,-2042,-8,19,28,360,66,294,-213
,438,2023-10-27 11:52:46.44,96,-251,-2042,-6,21,28,380,72,308,-226
,439,2023-10-27 11:52:46.45,103,-255,-2041,-6,21,31,366,67,299,-216
,440,2023-10-27 11:52:46.46,101,-248,-2044,-3,13,28,378,75,303,-226
,441,2023-10-27 11:52:46.47,107,-251,-2044,-3,19,28,368,64,304,-216
,442,2023-10-27 11:52:46.48,102,-250,-2050,1,13,25,383,67,316,-225
,443,2023-10-27 11:52:46.49,105,-255,-2049,5,6,25,370,59,311,-214
,444,2023-10-27 11:52:46.50,108,-255,-2047,10,0,27,385,67,318,-226
,445,2023-10-27 11:52:46.51,97,-262,-2041,14,-2,28,362,56,306,-209
,446,2023-10-27 11:52:46.52,106,-259,-2042,16,-2,30,372,66,306,-219
,447,2023-10-27 11:52:46.53,102,-263,-2033,19,0,34,350,60,290,-205
,448,2023-10-27 11:52:46.54,105,-263,-2039,21,8,37,370,74,296,-222
,449,2023-10-27 11:52:46.55,106,-257,-2036,19,11,35,356,63,293,-209
,450,2023-10-27 11:52:46.56,101,-260,-2032,16,16,31,377,72,305,-224
,451,2023-10-27 11:52:46.57,102,-254,-2042,10,13,31,363,61,302,-212
,452,2023-10-27 11:52:46.58,91,-258,-2050,11,20,29,382,70,312,-226
,453,2023-10-27 11:52:46.59,101,-260,-2046,10,10,28,360,58,302,-209
,454,2023-10-27 11:52:46.60,103,-265,-2052,14,3,25,384,64,320,-224
,455,2023-10-27 11:52:46.61,94,-255,-2046,17,2,24,368,54,314,-211
,456,2023-10-27 11:52:46.62,99,-258,-2038,19,-6,25,390,78,312,-234
,457,2023-10-27 11:52:46.63,103,-256,-2031,24,0,24,358,59,299,-208
,458,2023-10-27 11:52:46.64,108,-258,-2028,24,-3,17,372,72,300,-222
,459,2023-10-27 11:52:46.65,104,-263,-2025,21,7,16,348,54,294,-201
,460,2023-10-27 11:52:46.66,99,-263,-2031,23,6,14,375,69,306,-222
,461,2023-10-27 11:52:46.67,96,-278,-2038,18,5,15,347,63,284,-205
,462,2023-10-27 11:52:46.68,96,-270,-2043,16,8,19,360,83,277,-221
,463,2023-10-27 11:52:46.69,94,-272,-2047,10,1,18,340,72,268,-206
,464,2023-10-27 11:52:46.70,105,-273,-2043,6,7,25,368,80,288,-224
,465,2023-10-27 11:52:46.71,98,-272,-2046,4,6,30,358,63,295,-210
,466,2023-10-27 11:52:46.72,93,-271,-2041,4,11,35,380,70,310,-225
,467,2023-10-27 11:52:46.73,97,-267,-2045,7,15,37,366,64,302,-215
,468,2023-10-27 11:52:46.74,112,-267,-2032,10,11,35,387,76,311,-231
,469,2023-10-27 11:52:46.75,95,-256,-2032,16,12,31,364,67,297,-215
,470,2023-10-27 11:52:46.76,103,-258,-2036,20,15,30,376,75,301,-225
,471,2023-10-27 11:52:46.77,92,-258,-2031,22,14,25,356,67,289,-211
,472,2023-10-27 11:52:46.78,93,-264,-2042,23,15,25,380,79,301,-229
,473,2023-10-27 11:52:46.79,96,-271,-2049,25,14,24,366,68,298,-217
,474,2023-10-27 11:52:46.80,108,-274,-2034,25,8,25,390,72,318,-231
,475,2023-10-27 11:52:46.81,108,-273,-2031,24,5,25,382,62,320,-222
,476,2023-10-27 11:52:46.82,100,-267,-2034,25,8,28,402,77,325,-239
,477,2023-10-27 11:52:46.83,108,-264,-2037,17,10,24,385,65,320,-225
,478,2023-10-27 11:52:46.84,109,-268,-2044,10,18,22,405,73,332,-239
,479,2023-10-27 11:52:46.85,97,-265,-2043,5,23,22,390,62,328,-226
,480,2023-10-27 11:52:46.86,103,-268,-2048,0,24,20,411,74,337,-242
,481,2023-10-27 11:52:46.87,109,-266,-2039,-2,17,18,415,38,377,-226
,482,2023-10-27 11:52:46.88,114,-259,-2046,-6,22,18,460,14,446,-237
,483,2023-10-27 11:52:46.89,112,-259,-2046,-11,18,13,453,-14,467,-219
,484,2023-10-27 11:52:46.90,103,-257,-2050,-13,17,10,448,-2,450,-223
,485,2023-10-27 11:52:46.91,115,-256,-2034,-12,12,7,414,-8,422,-203
,486,2023-10-27 11:52:46.92,110,-260,-2034,-13,9,6,414,7,407,-210
,487,2023-10-27 11:52:46.93,111,-256,-2035,-11,3,-1,394,-5,399,-194
,488,2023-10-27 11:52:46.94,111,-262,-2031,-8,1,3,406,11,395,-208
,489,2023-10-27 11:52:46.95,113,-253,-2035,-6,8,1,392,-5,397,-193
,490,2023-10-27 11:52:46.96,113,-260,-2044,-1,15,3,401,0,401,-200
,491,2023-10-27 11:52:46.97,112,-263,-2038,5,14,4,384,-19,403,-182
,492,2023-10-27 11:52:46.98,107,-262,-2041,8,7,4,394,-6,400,-194
,493,2023-10-27 11:52:46.99,101,-258,-2045,11,6,7,377,-14,391,-181
,494,2023-10-27 11:52:47.00,109,-261,-2045,12,3,11,387,2,385,-194
,495,2023-10-27 11:52:47.01,119,-257,-2040,13,1,11,369,0,369,-184
,496,2023-10-27 11:52:47.02,112,-259,-2040,13,0,11,379,12,367,-195
,497,2023-10-27 11:52:47.03,111,-265,-2046,16,-8,9,369,10,359,-189
,498,2023-10-27 11:52:47.04,103,-263,-2046,18,-11,14,370,12,358,-191
,499,2023-10-27 11:52:47.05,111,-269,-2050,22,-15,18,356,5,351,-180
,500,2023-10-27 11:52:47.06,111,-266,-2046,22,-14,23,369,12,357,-190
,501,2023-10-27 11:52:47.07,103,-266,-2046,23,-14,25,356,13,343,-184
,502,2023-10-27 11:52:47.08,100,-272,-2038,23,-22,29,366,20,346,-193
,503,2023-10-27 11:52:47.09,94,-269,-2040,27,-16,31,350,16,334,-183
,504,2023-10-27 11:52:47.10,93,-274,-2042,25,-25,30,353,19,334,-186
,505,2023-10-27 11:52:47.11,93,-268,-2037,22,-20,32,340,10,330,-175
,506,2023-10-27 11:52:47.12,92,-269,-2049,20,-18,32,336,6,330,-171
,507,2023-10-27 11:52:47.13,91,-265,-2036,14,-20,28,338,6,332,-172
,508,2023-10-27 11:52:47.14,89,-263,-2037,12,-13,25,349,19,330,-184
,509,2023-10-27 11:52:47.15,92,-260,-2038,11,-9,28,339,17,322,-178
,510,2023-10-27 11:52:47.16,89,-258,-2031,12,-3,21,347,29,318,-188
,511,2023-10-27 11:52:47.17,91,-253,-2035,13,3,20,336,17,319,-176
,512,2023-10-27 11:52:47.18,93,-260,-2037,15,2,11,341,19,322,-180
,513,2023-10-27 11:52:47.19,109,-264,-2035,16,2,6,334,10,324,-172
,514,2023-10-27 11:52:47.20,85,-270,-2042,18,-5,-1,342,18,324,-180
,515,2023-10-27 11:52:47.21,95,-267,-2039,17,-15,-6,336,18,318,-177
,516,2023-10-27 11:52:47.22,103,-264,-2036,19,-14,0,342,26,316,-184
,517,2023-10-27 11:52:47.23,103,-262,-2038,19,-9,1,332,18,314,-175
,518,2023-10-27 11:52:47.24,93,-266,-2033,18,-17,2,336,21,315,-178
,519,2023-10-27 11:52:47.25,96,-270,-2037,17,-18,0,325,14,311,-169
,520,2023-10-27 11:52:47.26,95,-277,-2042,16,-16,1,333,17,316,-175
,521,2023-10-27 11:52:47.27,93,-278,-2039,16,-7,6,325,10,315,-167
,522,2023-10-27 11:52:47.28,102,-279,-2037,19,-13,7,333,21,312,-177
,523,2023-10-27 11:52:47.29,88,-277,-2040,16,-2,12,333,22,311,-177
,524,2023-10-27 11:52:47.30,93,-275,-2033,15,-5,11,345,33,312,-189
,525,2023-10-27 11:52:47.31,94,-273,-2042,14,-6,12,335,30,305,-182
,526,2023-10-27 11:52:47.32,81,-269,-2043,15,-6,15,301,60,241,-180
,527,2023-10-27 11:52:47.33,107,-266,-2048,16,-8,14,273,85,188,-179
,528,2023-10-27 11:52:47.34,94,-275,-2040,14,-1,17,282,101,181,-191
,529,2023-10-27 11:52:47.35,95,-270,-2036,12,-5,14,300,92,208,-196
,530,2023-10-27 11:52:47.36,97,-264,-2035,7,3,15,322,88,234,-205
,531,2023-10-27 11:52:47.37,86,-262,-2038,9,12,11,328,78,250,-203
,532,2023-10-27 11:52:47.38,91,-265,-2038,7,9,8,335,74,261,-204
,533,2023-10-27 11:52:47.39,103,-262,-2037,7,14,5,342,67,275,-204
,534,2023-10-27 11:52:47.40,104,-268,-2041,8,7,1,354,66,288,-210
,535,2023-10-27 11:52:47.41,112,-266,-2033,7,3,-1,368,63,305,-215
,536,2023-10-27 11:52:47.42,94,-269,-2037,3,2,-5,390,59,331,-224
,537,2023-10-27 11:52:47.43,97,-262,-2049,4,5,-5,398,61,337,-229
,538,2023-10-27 11:52:47.44,93,-265,-2053,0,0,-3,397,68,329,-232
,539,2023-10-27 11:52:47.45,87,-268,-2047,0,-2,-5,386,57,329,-221
,540,2023-10-27 11:52:47.46,96,-271,-2040,3,-4,-2,389,56,333,-222
,541,2023-10-27 11:52:47.47,98,-275,-2034,7,-5,4,403,49,354,-226
,542,2023-10-27 11:52:47.48,88,-271,-2035,9,-7,6,398,54,344,-226
,543,2023-10-27 11:52:47.49,95,-271,-2037,8,0,8,398,57,341,-227
,544,2023-10-27 11:52:47.50,82,-272,-2034,13,6,20,389,62,327,-225
,545,2023-10-27 11:52:47.51,95,-266,-2036,11,2,19,392,60,332,-226
,546,2023-10-27 11:52:47.52,95,-267,-2037,8,4,21,390,60,330,-225
,547,2023-10-27 11:52:47.53,94,-264,-2038,5,12,24,381,46,335,-213
,548,2023-10-27 11:52:47.54,94,-256,-2044,3,14,25,390,57,333,-223
,549,2023-10-27 11:52:47.55,89,-270,-2042,4,13,24,391,55,336,-223
,550,2023-10-27 11:52:47.56,97,-259,-2047,6,12,22,386,60,326,-223
,551,2023-10-27 11:52:47.57,98,-257,-2043,6,13,17,387,61,326,-224
,552,2023-10-27 11:52:47.58,92,-258,-2032,3,12,11,382,63,319,-222
,553,2023-10-27 11:52:47.59,92,-265,-2044,2,9,4,388,72,316,-230
,554,2023-10-27 11:52:47.60,94,-264,-2037,6,14,7,386,83,303,-234
,555,2023-10-27 11:52:47.61,100,-259,-2048,4,13,0,396,94,302,-245
,556,2023-10-27 11:52:47.62,97,-256,-2041,2,8,-6,391,94,297,-242
,557,2023-10-27 11:52:47.63,112,-267,-2034,5,19,-11,395,98,297,-246
,558,2023-10-27 11:52:47.64,108,-274,-2040,5,13,-14,387,92,295,-239
,559,2023-10-27 11:52:47.65,107,-280,-2045,9,10,-12,392,92,300,-242
,560,2023-10-27 11:52:47.66,106,-282,-2042,11,1,-14,382,84,298,-233
,561,2023-10-27 11:52:47.67,100,-283,-2041,12,-2,-4,387,82,305,-234
,562,2023-10-27 11:52:47.68,95,-280,-2034,14,2,2,378,73,305,-225
,563,2023-10-27 11:52:47.69,103,-276,-2039,9,2,3,390,77,313,-233
,564,2023-10-27 11:52:47.70,110,-282,-2046,4,3,7,378,75,303,-226
,565,2023-10-27 11:52:47.71,101,-282,-2045,2,0,10,383,81,302,-232
,566,2023-10-27 11:52:47.72,96,-273,-2049,3,-5,17,372,70,302,-221
,567,2023-10-27 11:52:47.73,106,-277,-2037,-3,-11,16,380,73,307,-226
,568,2023-10-27 11:52:47.74,93,-276,-2044,-6,-16,18,369,67,302,-218
,569,2023-10-27 11:52:47.75,97,-266,-2032,-5,-18,23,378,67,311,-222
,570,2023-10-27 11:52:47.76,97,-269,-2034,-7,-17,23,368,66,302,-217
,571,2023-10-27 11:52:47.77,97,-262,-2039,-5,-15,23,377,68,309,-222
,572,2023-10-27 11:52:47.78,96,-267,-2041,-7,-19,20,370,66,304,-218
,573,2023-10-27 11:52:47.79,87,-260,-2039,-9,-15,22,379,71,308,-225
,574,2023-10-27 11:52:47.80,87,-258,-2037,-9,-7,27,368,68,300,-218
,575,2023-10-27 11:52:47.81,77,-257,-2034,-10,-11,21,374,70,304,-222
,576,2023-10-27 11:52:47.82,89,-253,-2034,-10,-2,22,362,67,295,-214
,577,2023-10-27 11:52:47.83,90,-254,-2041,-9,5,18,371,72,299,-221
,578,2023-10-27 11:52:47.84,93,-249,-2036,-8,-1,13,360,73,287,-216
,579,2023-10-27 11:52:47.85,89,-256,-2045,-9,-4,7,373,86,287,-229
,580,2023-10-27 11:52:47.86,91,-251,-2038,-6,-1,3,354,71,283,-212
,581,2023-10-27 11:52:47.87,82,-253,-2040,-2,0,-2,367,72,295,-219
,582,2023-10-27 11:52:47.88,83,-256,-2040,1,4,-4,363,62,301,-212
,583,2023-10-27 11:52:47.89,86,-253,-2043,3,1,-6,371,66,305,-218
,584,2023-10-27 11:52:47.90,90,-257,-2041,8,8,-9,360,61,299,-210
,585,2023-10-27 11:52:47.91,84,-257,-2046,11,-4,-8,366,68,298,-217
,586,2023-10-27 11:52:47.92,102,-250,-2043,14,-10,-9,354,63,291,-208
,587,2023-10-27 11:52:47.93,95,-259,-2038,19,-11,-13,364,65,299,-214
,588,2023-10-27 11:52:47.94,91,-257,-2040,18,-2,-11,338,47,291,-192
,589,2023-10-27 11:52:47.95,100,-272,-2036,17,-1,-7,362,69,293,-215
,590,2023-10-27 11:52:47.96,83,-271,-2041,16,-1,-4,345,61,284,-203
,591,2023-10-27 11:52:47.97,83,-274,-2043,18,-3,0,366,72,294,-219
,592,2023-10-27 11:52:47.98,83,-269,-2041,14,-4,2,350,61,289,-205
,593,2023-10-27 11:52:47.99,91,-271,-2036,8,-5,10,356,51,305,-203
,594,2023-10-27 11:52:48.00,89,-267,-2038,5,-7,14,334,19,315,-176
,595,2023-10-27 11:52:48.01,81,-258,-2024,1,-4,18,349,11,338,-180
,596,2023-10-27 11:52:48.02,78,-261,-2035,0,-2,16,340,4,336,-172
,597,2023-10-27 11:52:48.03,92,-265,-2043,-1,5,18,365,20,345,-192
,598,2023-10-27 11:52:48.04,92,-258,-2040,-3,7,18,356,25,331,-190
,599,2023-10-27 11:52:48.05,80,-253,-2042,-3,17,17,370,39,331,-204
,600,2023-10-27 11:52:48.06,85,-250,-2037,-1,19,14,353,30,323,-191
,601,2023-10-27 11:52:48.07,85,-247,-2038,-2,16,8,368,40,328,-204
,602,2023-10-27 11:52:48.08,94,-253,-2045,4,20,5,352,32,320,-192
,603,2023-10-27 11:52:48.09,114,-261,-2034,4,17,-5,366,42,324,-204
,604,2023-10-27 11:52:48.10,91,-260,-2044,6,12,-13,352,35,317,-193
,605,2023-10-27 11:52:48.11,102,-259,-2052,5,15,-11,362,39,323,-200
,606,2023-10-27 11:52:48.12,99,-268,-2054,2,22,-9,345,34,311,-189
,607,2023-10-27 11:52:48.13,91,-273,-2051,-5,25,-5,363,48,315,-205
,608,2023-10-27 11:52:48.14,94,-272,-2042,-8,13,-6,355,47,308,-201
,609,2023-10-27 11:52:48.15,97,-274,-2041,-7,5,-4,371,59,312,-215
,610,2023-10-27 11:52:48.16,97,-266,-2039,-8,6,3,359,47,312,-203
,611,2023-10-27 11:52:48.17,96,-264,-2036,-8,8,5,373,58,315,-215
,612,2023-10-27 11:52:48.18,106,-263,-2034,-5,14,11,361,52,309,-206
,613,2023-10-27 11:52:48.19,99,-261,-2041,-1,10,7,372,60,312,-216
,614,2023-10-27 11:52:48.20,99,-263,-2043,3,17,8,354,43,311,-198
,615,2023-10-27 11:52:48.21,109,-256,-2044,6,2,6,368,50,318,-209
,616,2023-10-27 11:52:48.22,102,-261,-2034,8,-1,6,356,37,319,-196
,617,2023-10-27 11:52:48.23,99,-254,-2041,10,-6,6,366,50,316,-208
,618,2023-10-27 11:52:48.24,92,-262,-2046,11,-17,6,356,43,313,-199
,619,2023-10-27 11:52:48.25,94,-261,-2041,13,-14,11,368,55,313,-211
,620,2023-10-27 11:52:48.26,92,-254,-2035,13,-19,10,352,46,306,-199
,621,2023-10-27 11:52:48.27,89,-254,-2036,9,-7,12,364,51,313,-207
,622,2023-10-27 11:52:48.28,95,-256,-2035,2,-8,8,351,40,311,-195
,623,2023-10-27 11:52:48.29,88,-257,-2043,-5,14,12,376,53,323,-214
,624,2023-10-27 11:52:48.30,86,-260,-2048,-12,21,13,356,40,316,-198
,625,2023-10-27 11:52:48.31,83,-261,-2048,-15,23,19,366,51,315,-208
,626,2023-10-27 11:52:48.32,98,-254,-2045,-18,25,18,342,33,309,-187
,627,2023-10-27 11:52:48.33,89,-245,-2044,-19,23,18,361,51,310,-206
,628,2023-10-27 11:52:48.34,102,-248,-2035,-18,23,16,346,40,306,-193
,629,2023-10-27 11:52:48.35,101,-244,-2038,-15,16,14,363,53,310,-208
,630,2023-10-27 11:52:48.36,99,-241,-2043,-8,8,10,345,41,304,-193
,631,2023-10-27 11:52:48.37,99,-239,-2044,-3,17,11,363,55,308,-209
,632,2023-10-27 11:52:48.38,94,-245,-2044,-2,2,5,350,45,305,-197
,633,2023-10-27 11:52:48.39,102,-250,-2047,3,1,5,366,55,311,-210
,634,2023-10-27 11:52:48.40,103,-252,-2049,3,-7,4,351,43,308,-197
,635,2023-10-27 11:52:48.41,82,-253,-2046,3,-6,6,362,50,312,-206
,636,2023-10-27 11:52:48.42,93,-261,-2049,7,-14,6,348,38,310,-193
,637,2023-10-27 11:52:48.43,90,-257,-2033,11,-8,14,365,46,319,-205
,638,2023-10-27 11:52:48.44,96,-259,-2037,11,-16,13,352,39,313,-195
,639,2023-10-27 11:52:48.45,90,-256,-2036,16,-5,18,367,48,319,-207
,640,2023-10-27 11:52:48.46,94,-255,-2035,20,-2,20,352,36,316,-194
,641,2023-10-27 11:52:48.47,91,-256,-2038,25,1,16,362,44,318,-203
,642,2023-10-27 11:52:48.48,96,-257,-2040,25,0,20,351,37,314,-194
,643,2023-10-27 11:52:48.49,88,-260,-2043,26,5,17,368,48,320,-208
,644,2023-10-27 11:52:48.50,98,-257,-2036,27,1,18,352,41,311,-196
,645,2023-10-27 11:52:48.51,93,-259,-2034,27,-1,19,360,49,311,-204
,646,2023-10-27 11:52:48.52,100,-265,-2041,27,-6,17,346,37,309,-191
,647,2023-10-27 11:52:48.53,87,-262,-2042,29,-2,20,357,45,312,-201
,648,2023-10-27 11:52:48.54,94,-260,-2051,23,-5,19,350,32,318,-191
,649,2023-10-27 11:52:48.55,91,-266,-2048,19,-2,14,363,41,322,-202
,650,2023-10-27 11:52:48.56,96,-266,-2045,18,-6,19,350,36,314,-193
,651,2023-10-27 11:52:48.57,93,-265,-2042,15,-10,15,360,45,315,-202
,652,2023-10-27 11:52:48.58,91,-266,-2050,11,-9,16,349,37,312,-193
,653,2023-10-27 11:52:48.59,90,-266,-2039,12,-10,13,357,43,314,-200
,654,2023-10-27 11:52:48.60,99,-265,-2047,10,-9,16,348,33,315,-190
,655,2023-10-27 11:52:48.61,102,-267,-2043,7,-14,18,358,41,317,-199
,656,2023-10-27 11:52:48.62,84,-266,-2037,3,-7,20,352,31,321,-191
,657,2023-10-27 11:52:48.63,82,-263,-2038,3,-7,24,359,41,318,-200
,658,2023-10-27 11:52:48.64,88,-260,-2040,4,-5,23,348,34,314,-191
,659,2023-10-27 11:52:48.65,84,-259,-2038,2,-7,24,360,45,315,-202
,660,2023-10-27 11:52:48.66,86,-257,-2036,2,-10,20,351,37,314,-194
,661,2023-10-27 11:52:48.67,93,-254,-2040,4,-4,22,365,51,314,-208
,662,2023-10-27 11:52:48.68,83,-258,-2028,6,-6,22,345,35,310,-190
,663,2023-10-27 11:52:48.69,78,-259,-2036,9,-10,17,359,45,314,-202
,664,2023-10-27 11:52:48.70,81,-253,-2038,12,-15,14,352,33,319,-192
,665,2023-10-27 11:52:48.71,94,-253,-2037,14,-8,15,356,43,313,-199
,666,2023-10-27 11:52:48.72,90,-248,-2038,16,-7,13,344,33,311,-188
,667,2023-10-27 11:52:48.73,89,-257,-2046,13,-3,13,345,34,311,-189
,668,2023-10-27 11:52:48.74,84,-255,-2044,12,2,13,343,32,311,-187
,669,2023-10-27 11:52:48.75,90,-260,-2043,12,6,12,356,38,318,-197
,670,2023-10-27 11:52:48.76,83,-255,-2040,7,8,11,349,40,309,-194
,671,2023-10-27 11:52:48.77,83,-255,-2044,1,15,8,356,46,310,-201
,672,2023-10-27 11:52:48.78,86,-261,-2043,0,14,8,348,41,307,-194
,673,2023-10-27 11:52:48.79,87,-256,-2044,1,15,8,354,48,306,-201
,674,2023-10-27 11:52:48.80,91,-258,-2044,3,10,2,349,42,307,-195
,675,2023-10-27 11:52:48.81,96,-257,-2044,2,15,5,356,46,310,-201
,676,2023-10-27 11:52:48.82,99,-261,-2047,2,9,1,354,45,309,-199
,677,2023-10-27 11:52:48.83,100,-259,-2046,1,4,5,361,48,313,-204
,678,2023-10-27 11:52:48.84,94,-258,-2042,5,5,11,350,45,305,-197
,679,2023-10-27 11:52:48.85,88,-259,-2057,6,0,10,352,45,307,-198
,680,2023-10-27 11:52:48.86,85,-255,-2050,7,-3,12,346,38,308,-192
,681,2023-10-27 11:52:48.87,86,-254,-2043,7,5,17,348,38,310,-193
,682,2023-10-27 11:52:48.88,88,-256,-2042,7,6,17,344,30,314,-187
,683,2023-10-27 11:52:48.89,97,-256,-2034,5,5,15,345,30,315,-187
,684,2023-10-27 11:52:48.90,94,-252,-2038,6,1,11,340,29,311,-184
,685,2023-10-27 11:52:48.91,89,-253,-2050,9,0,12,344,38,306,-191
,686,2023-10-27 11:52:48.92,95,-257,-2040,9,-5,12,348,42,306,-195
,687,2023-10-27 11:52:48.93,87,-254,-2044,9,-6,14,352,46,306,-199
,688,2023-10-27 11:52:48.94,94,-255,-2036,11,-3,18,350,42,308,-196
,689,2023-10-27 11:52:48.95,98,-250,-2036,16,2,16,351,43,308,-197
,690,2023-10-27 11:52:48.96,92,-253,-2045,18,9,20,355,43,312,-199
,691,2023-10-27 11:52:48.97,80,-261,-2043,20,10,19,353,46,307,-199
,692,2023-10-27 11:52:48.98,85,-265,-2040,21,9,15,353,43,310,-198
,693,2023-10-27 11:52:48.99,88,-259,-2043,24,16,15,350,42,308,-196
,694,2023-10-27 11:52:49.00,83,-262,-2038,24,17,18,349,39,310,-194
,695,2023-10-27 11:52:49.01,91,-261,-2045,21,6,10,355,39,316,-197
,696,2023-10-27 11:52:49.02,97,-265,-2046,19,2,11,354,37,317,-195
,697,2023-10-27 11:52:49.03,85,-267,-2043,18,1,11,350,42,308,-196
,698,2023-10-27 11:52:49.04,87,-264,-2046,14,-7,13,346,38,308,-192
,699,2023-10-27 11:52:49.05,90,-266,-2036,13,-14,12,348,38,310,-193
,700,2023-10-27 11:52:49.06,100,-263,-2033,10,-5,16,346,35,311,-190
,701,2023-10-27 11:52:49.07,87,-258,-2042,6,2,14,347,32,315,-189
,702,2023-10-27 11:52:49.08,96,-258,-2046,-2,13,12,346,38,308,-192
,703,2023-10-27 11:52:49.09,85,-260,-2055,-8,16,13,346,36,310,-191
,704,2023-10-27 11:52:49.10,99,-261,-2049,-3,10,17,347,38,309,-192
,705,2023-10-27 11:52:49.11,87,-259,-2042,5,-7,13,347,35,312,-191
,706,2023-10-27 11:52:49.12,97,-258,-2045,9,-12,16,342,32,310,-187
,707,2023-10-27 11:52:49.13,94,-262,-2036,2,-13,19,340,31,309,-185
,708,2023-10-27 11:52:49.14,88,-263,-2037,5,-15,24,344,33,311,-188
,709,2023-10-27 11:52:49.15,84,-259,-2030,4,-12,26,345,33,312,-189
,710,2023-10-27 11:52:49.16,80,-260,-2036,5,-8,31,349,42,307,-195
,711,2023-10-27 11:52:49.17,87,-256,-2040,3,-9,30,335,27,308,-181
,712,2023-10-27 11:52:49.18,79,-255,-2038,1,-13,28,343,35,308,-189
,713,2023-10-27 11:52:49.19,81,-252,-2044,1,-5,30,341,32,309,-186
,714,2023-10-27 11:52:49.20,88,-254,-2043,2,-6,29,349,38,311,-193
,715,2023-10-27 11:52:49.21,77,-247,-2041,5,2,32,346,33,313,-189
,716,2023-10-27 11:52:49.22,90,-244,-2037,6,4,31,345,38,307,-191
,717,2023-10-27 11:52:49.23,91,-252,-2038,10,3,23,339,33,306,-186
,718,2023-10-27 11:52:49.24,81,-248,-2042,16,-1,16,343,36,307,-189
,719,2023-10-27 11:52:49.25,85,-247,-2045,19,8,14,333,33,300,-183
,720,2023-10-27 11:52:49.26,75,-252,-2039,20,4,6,339,37,302,-188
,721,2023-10-27 11:52:49.27,90,-262,-2044,18,9,4,331,34,297,-182
,722,2023-10-27 11:52:49.28,80,-264,-2049,19,4,7,338,41,297,-189
,723,2023-10-27 11:52:49.29,82,-261,-2040,17,2,9,330,36,294,-183
,724,2023-10-27 11:52:49.30,91,-271,-2039,13,-5,10,344,43,301,-193
,725,2023-10-27 11:52:49.31,96,-265,-2039,14,3,15,339,38,301,-188
,726,2023-10-27 11:52:49.32,86,-261,-2043,8,20,20,346,41,305,-193
,727,2023-10-27 11:52:49.33,88,-255,-2045,0,20,15,336,35,301,-185
,728,2023-10-27 11:52:49.34,96,-266,-2042,0,9,15,350,39,311,-194
,729,2023-10-27 11:52:49.35,87,-259,-2045,3,8,13,338,38,300,-188
,730,2023-10-27 11:52:49.36,93,-262,-2048,4,4,11,344,45,299,-194
,731,2023-10-27 11:52:49.37,93,-255,-2050,6,3,14,329,40,289,-184
,732,2023-10-27 11:52:49.38,92,-259,-2044,4,-5,12,338,46,292,-192
,733,2023-10-27 11:52:49.39,82,-265,-2052,4,-8,11,328,38,290,-183
,734,2023-10-27 11:52:49.40,98,-262,-2038,4,-1,15,345,44,301,-194
,735,2023-10-27 11:52:49.41,91,-260,-2043,5,-4,15,338,44,294,-191
,736,2023-10-27 11:52:49.42,82,-264,-2037,5,2,20,350,50,300,-200
,737,2023-10-27 11:52:49.43,93,-269,-2037,7,-4,23,337,40,297,-188
,738,2023-10-27 11:52:49.44,88,-261,-2034,9,-9,24,348,45,303,-196
,739,2023-10-27 11:52:49.45,78,-257,-2038,5,-10,24,337,39,298,-188
,740,2023-10-27 11:52:49.46,86,-254,-2043,3,-10,27,354,43,311,-198
,741,2023-10-27 11:52:49.47,76,-251,-2042,1,3,28,344,40,304,-192
,742,2023-10-27 11:52:49.48,85,-253,-2042,-2,-4,23,360,49,311,-204
,743,2023-10-27 11:52:49.49,85,-255,-2048,-2,-3,19,352,48,304,-200
,744,2023-10-27 11:52:49.50,82,-248,-2051,-1,-6,18,365,52,313,-208
,745,2023-10-27 11:52:49.51,79,-241,-2043,2,-11,17,360,39,321,-199
,746,2023-10-27 11:52:49.52,86,-246,-2043,2,-14,9,374,46,328,-210
,747,2023-10-27 11:52:49.53,87,-245,-2049,-1,-23,1,352,34,318,-193
,748,2023-10-27 11:52:49.54,85,-251,-2040,1,-12,3,358,40,318,-199
,749,2023-10-27 11:52:49.55,92,-248,-2043,5,-15,2,343,32,311,-187
,750,2023-10-27 11:52:49.56,91,-252,-2046,5,0,4,354,40,314,-197
,751,2023-10-27 11:52:49.57,82,-265,-2035,1,9,3,343,29,314,-186
,752,2023-10-27 11:52:49.58,76,-278,-2034,5,18,8,355,41,314,-198
,753,2023-10-27 11:52:49.59,66,-263,-2037,12,8,13,341,29,312,-185
,754,2023-10-27 11:52:49.60,86,-277,-2030,21,2,19,350,39,311,-194
,755,2023-10-27 11:52:49.61,83,-265,-2026,23,7,25,337,32,305,-184
,756,2023-10-27 11:52:49.62,83,-273,-2030,22,21,31,351,46,305,-198
,757,2023-10-27 11:52:49.63,65,-274,-2031,23,16,35,336,35,301,-185
,758,2023-10-27 11:52:49.64,74,-272,-2034,26,15,39,349,43,306,-196
,759,2023-10-27 11:52:49.65,79,-260,-2039,23,8,37,340,29,311,-184
,760,2023-10-27 11:52:49.66,84,-263,-2045,19,14,39,354,42,312,-198
,761,2023-10-27 11:52:49.67,89,-256,-2048,15,11,34,340,34,306,-187
,762,2023-10-27 11:52:49.68,84,-244,-2042,6,16,29,354,48,306,-201
,763,2023-10-27 11:52:49.69,89,-251,-2043,4,13,26,335,32,303,-183
,764,2023-10-27 11:52:49.70,86,-253,-2041,-1,2,15,344,36,308,-190
,765,2023-10-27 11:52:49.71,84,-252,-2056,-3,0,7,336,26,310,-181
,766,2023-10-27 11:52:49.72,86,-252,-2055,-4,-1,8,355,47,308,-201
,767,2023-10-27 11:52:49.73,80,-259,-2044,-4,-7,6,339,37,302,-188
,768,2023-10-27 11:52:49.74,86,-264,-2045,-5,-9,4,348,43,305,-195
,769,2023-10-27 11:52:49.75,72,-267,-2043,-7,-12,8,333,30,303,-181
,770,2023-10-27 11:52:49.76,87,-264,-2045,-8,-13,10,349,40,309,-194
,771,2023-10-27 11:52:49.77,85,-262,-2033,-10,-7,15,335,28,307,-181
,772,2023-10-27 11:52:49.78,78,-265,-2035,-9,3,19,351,41,310,-196
,773,2023-10-27 11:52:49.79,81,-264,-2035,-3,5,23,334,28,306,-181
,774,2023-10-27 11:52:49.80,84,-256,-2030,2,13,25,348,37,311,-192
,775,2023-10-27 11:52:49.81,87,-253,-2031,2,20,29,333,25,308,-179
,776,2023-10-27 11:52:49.82,89,-257,-2038,6,17,28,345,35,310,-190
,777,2023-10-27 11:52:49.83,82,-256,-2040,11,19,32,333,26,307,-179
,778,2023-10-27 11:52:49.84,77,-251,-2042,18,17,31,351,36,315,-193
,779,2023-10-27 11:52:49.85,90,-250,-2034,20,9,26,335,26,309,-180
,780,2023-10-27 11:52:49.86,94,-247,-2043,21,11,29,349,39,310,-194
,781,2023-10-27 11:52:49.87,84,-248,-2044,18,8,25,337,31,306,-184
,782,2023-10-27 11:52:49.88,90,-252,-2048,19,12,26,348,42,306,-195
,783,2023-10-27 11:52:49.89,90,-257,-2050,19,13,29,335,30,305,-182
,784,2023-10-27 11:52:49.90,87,-247,-2052,13,12,24,342,42,300,-192
,785,2023-10-27 11:52:49.91,84,-252,-2043,9,11,19,336,25,311,-180
,786,2023-10-27 11:52:49.92,97,-253,-2042,9,16,23,347,36,311,-191
,787,2023-10-27 11:52:49.93,83,-249,-2043,6,13,23,338,37,301,-187
,788,2023-10-27 11:52:49.94,86,-255,-2035,6,7,20,341,48,293,-194
,789,2023-10-27 11:52:49.95,84,-249,-2035,9,8,21,322,36,286,-179
,790,2023-10-27 11:52:49.96,91,-256,-2039,9,7,17,331,42,289,-186
,791,2023-10-27 11:52:49.97,85,-254,-2041,11,3,20,324,35,289,-179
,792,2023-10-27 11:52:49.98,80,-261,-2042,12,5,23,341,48,293,-194
,793,2023-10-27 11:52:49.99,83,-257,-2041,10,4,19,336,42,294,-189
,794,2023-10-27 11:52:50.00,85,-264,-2044,13,10,25,348,54,294,-201
,795,2023-10-27 11:52:50.01,88,-266,-2042,12,7,23,331,40,291,-185
,796,2023-10-27 11:52:50.02,81,-260,-2036,12,10,23,344,47,297,-195
,797,2023-10-27 11:52:50.03,79,-263,-2038,7,21,26,332,36,296,-184
,798,2023-10-27 11:52:50.04,81,-266,-2034,11,23,27,346,48,298,-197
,799,2023-10-27 11:52:50.05,98,-255,-2039,13,23,21,334,37,297,-185
,800,2023-10-27 11:52:50.06,76,-255,-2045,13,26,22,351,46,305,-198
,801,2023-10-27 11:52:50.07,98,-264,-2039,18,23,19,336,38,298,-187
,802,2023-10-27 11:52:50.08,102,-266,-2044,16,23,20,354,49,305,-201
,803,2023-10-27 11:52:50.09,80,-265,-2043,17,19,18,346,40,306,-193
,804,2023-10-27 11:52:50.10,90,-266,-2038,16,14,18,363,48,315,-205
,805,2023-10-27 11:52:50.11,85,-272,-2031,20,12,23,349,39,310,-194
,806,2023-10-27 11:52:50.12,108,-266,-2041,17,8,24,363,49,314,-206
,807,2023-10-27 11:52:50.13,81,-259,-2049,10,4,22,349,39,310,-194
,808,2023-10-27 11:52:50.14,98,-266,-2042,3,10,21,361,45,316,-203
,809,2023-10-27 11:52:50.15,96,-263,-2053,-4,6,22,347,34,313,-190
,810,2023-10-27 11:52:50.16,94,-260,-2049,-6,9,24,352,44,308,-198
,811,2023-10-27 11:52:50.17,87,-257,-2043,-8,11,23,340,34,306,-187
,812,2023-10-27 11:52:50.18,86,-258,-2036,-10,4,22,350,43,307,-196
,813,2023-10-27 11:52:50.19,99,-250,-2046,-9,5,25,346,38,308,-192
,814,2023-10-27 11:52:50.20,103,-248,-2036,-12,3,24,357,45,312,-201
,815,2023-10-27 11:52:50.21,93,-245,-2036,-9,5,23,342,37,305,-189
,816,2023-10-27 11:52:50.22,93,-247,-2039,-8,-4,16,351,42,309,-196
,817,2023-10-27 11:52:50.23,92,-246,-2041,-6,-7,11,338,30,308,-184
,818,2023-10-27 11:52:50.24,98,-248,-2046,-3,-3,17,348,36,312,-192
,819,2023-10-27 11:52:50.25,88,-255,-2048,-3,-3,18,336,31,305,-183
,820,2023-10-27 11:52:50.26,87,-252,-2046,0,0,24,342,40,302,-191
,821,2023-10-27 11:52:50.27,90,-259,-2036,10,-2,26,329,31,298,-180
,822,2023-10-27 11:52:50.28,86,-255,-2039,14,-5,28,336,33,303,-184
,823,2023-10-27 11:52:50.29,94,-249,-2047,21,-4,28,321,21,300,-171
,824,2023-10-27 11:52:50.30,90,-254,-2034,24,-4,28,331,32,299,-181
,825,2023-10-27 11:52:50.31,83,-256,-2041,31,-2,33,322,30,292,-176
,826,2023-10-27 11:52:50.32,82,-255,-2050,32,-1,33,337,42,295,-189
,827,2023-10-27 11:52:50.33,79,-255,-2044,33,-4,30,330,36,294,-183
,828,2023-10-27 11:52:50.34,76,-254,-2044,35,-4,30,339,42,297,-190
,829,2023-10-27 11:52:50.35,84,-252,-2041,32,-7,26,325,30,295,-177
,830,2023-10-27 11:52:50.36,74,-257,-2042,29,-4,23,334,39,295,-186
,831,2023-10-27 11:52:50.37,97,-257,-2039,26,-7,18,333,31,302,-182
,832,2023-10-27 11:52:50.38,84,-260,-2037,25,-3,18,343,47,296,-195
,833,2023-10-27 11:52:50.39,74,-257,-2037,26,3,22,336,40,296,-188
,834,2023-10-27 11:52:50.40,89,-262,-2039,21,3,17,341,46,295,-193
,835,2023-10-27 11:52:50.41,80,-267,-2036,21,-1,17,331,37,294,-184
,836,2023-10-27 11:52:50.42,88,-277,-2029,21,7,17,337,42,295,-189
,837,2023-10-27 11:52:50.43,91,-267,-2040,22,9,18,337,37,300,-187
,838,2023-10-27 11:52:50.44,86,-279,-2041,25,5,20,345,48,297,-196
,839,2023-10-27 11:52:50.45,83,-271,-2040,22,-7,19,340,44,296,-192
,840,2023-10-27 11:52:50.46,88,-269,-2042,22,-12,19,340,46,294,-193
,841,2023-10-27 11:52:50.47,85,-265,-2045,21,-8,24,336,44,292,-190
,842,2023-10-27 11:52:50.48,81,-267,-2038,18,-14,21,340,48,292,-194
,843,2023-10-27 11:52:50.49,83,-263,-2034,21,-9,19,337,41,296,-189
,844,2023-10-27 11:52:50.50,87,-267,-2029,22,-14,20,336,44,292,-190
,845,2023-10-27 11:52:50.51,69,-268,-2036,18,-11,17,324,33,291,-178
,846,2023-10-27 11:52:50.52,74,-263,-2041,13,-14,18,323,32,291,-177
,847,2023-10-27 11:52:50.53,75,-269,-2047,7,-7,19,322,34,288,-178
,848,2023-10-27 11:52:50.54,83,-264,-2037,3,4,22,333,41,292,-187
,849,2023-10-27 11:52:50.55,83,-263,-2037,2,8,23,336,46,290,-191
,850,2023-10-27 11:52:50.56,92,-267,-2041,4,11,18,333,50,283,-191
,851,2023-10-27 11:52:50.57,86,-262,-2037,1,9,16,328,45,283,-186
,852,2023-10-27 11:52:50.58,91,-264,-2038,6,11,14,330,48,282,-189
,853,2023-10-27 11:52:50.59,85,-265,-2034,6,9,12,330,48,282,-189
,854,2023-10-27 11:52:50.60,86,-263,-2042,6,7,6,329,48,281,-188
,855,2023-10-27 11:52:50.61,88,-261,-2039,6,7,6,330,51,279,-190
,856,2023-10-27 11:52:50.62,81,-255,-2036,5,10,4,334,54,280,-194
,857,2023-10-27 11:52:50.63,78,-263,-2049,5,13,7,332,52,280,-192
,858,2023-10-27 11:52:50.64,83,-265,-2040,1,7,3,328,49,279,-188
,859,2023-10-27 11:52:50.65,86,-273,-2038,2,10,6,329,48,281,-188
,860,2023-10-27 11:52:50.66,84,-271,-2039,2,12,8,330,45,285,-187
,861,2023-10-27 11:52:50.67,97,-265,-2037,2,11,9,332,49,283,-190
,862,2023-10-27 11:52:50.68,77,-262,-2040,3,14,13,331,50,281,-190
,863,2023-10-27 11:52:50.69,84,-262,-2044,-1,18,14,332,54,278,-193
,864,2023-10-27 11:52:50.70,90,-260,-2051,-2,23,15,321,46,275,-183
,865,2023-10-27 11:52:50.71,91,-262,-2055,-4,15,16,324,50,274,-187
,866,2023-10-27 11:52:50.72,90,-261,-2051,-1,12,11,314,45,269,-179
,867,2023-10-27 11:52:50.73,89,-260,-2039,0,1,13,338,62,276,-200
,868,2023-10-27 11:52:50.74,87,-253,-2039,1,1,15,345,64,281,-204
,869,2023-10-27 11:52:50.75,85,-249,-2029,1,0,17,362,72,290,-217
,870,2023-10-27 11:52:50.76,106,-256,-2032,4,-1,16,354,59,295,-206
,871,2023-10-27 11:52:50.77,83,-259,-2036,3,0,16,354,59,295,-206
,872,2023-10-27 11:52:50.78,88,-254,-2037,3,4,17,342,46,296,-194
,873,2023-10-27 11:52:50.79,84,-261,-2043,3,8,17,351,57,294,-204
