// Data mode  : Full
// Data quality  : High
// Acceleration sensor's range  : 16g
// Gyroscope sensor's range  : 2000dps
//
//ARTIFACT,NUM,DATE,ACC_X,ACC_Y,ACC_Z,GYRO_X,GYRO_Y,GYRO_Z,EOG_L,EOG_R,EOG_H,EOG_V
,1,2023-10-20 13:10:09.58,106,-471,-2014,12,5,-2,556,80,476,-318
,2,2023-10-20 13:10:09.59,113,-451,-2008,18,5,-2,668,249,419,-458
,3,2023-10-20 13:10:09.60,113,-464,-2005,24,11,-1,562,85,477,-323
,4,2023-10-20 13:10:09.61,121,-455,-1997,23,28,-2,672,252,420,-462
,5,2023-10-20 13:10:09.62,105,-454,-2022,29,47,-14,574,85,489,-329
,6,2023-10-20 13:10:09.63,109,-476,-2011,26,36,-5,671,247,424,-459
,7,2023-10-20 13:10:09.64,111,-473,-1993,30,37,-1,570,85,485,-327
,8,2023-10-20 13:10:09.65,100,-480,-2031,25,40,11,662,248,414,-455
,9,2023-10-20 13:10:09.66,109,-467,-2035,10,31,18,580,92,488,-336
,10,2023-10-20 13:10:09.67,108,-463,-2026,11,24,28,666,255,411,-460
,11,2023-10-20 13:10:09.68,109,-461,-2014,8,20,32,585,94,491,-339
,12,2023-10-20 13:10:09.69,113,-441,-2015,8,20,31,655,247,408,-451
,13,2023-10-20 13:10:09.70,112,-447,-2006,11,21,29,588,92,496,-340
,14,2023-10-20 13:10:09.71,125,-447,-2008,15,20,22,654,253,401,-453
,15,2023-10-20 13:10:09.72,101,-438,-2005,19,18,13,597,98,499,-347
,16,2023-10-20 13:10:09.73,114,-430,-2012,20,17,3,654,245,409,-449
,17,2023-10-20 13:10:09.74,107,-435,-2006,19,8,-3,600,100,500,-350
,18,2023-10-20 13:10:09.75,113,-442,-2004,22,4,-7,649,248,401,-448
,19,2023-10-20 13:10:09.76,108,-450,-2009,17,2,-11,601,104,497,-352
,20,2023-10-20 13:10:09.77,107,-454,-2021,11,0,-11,639,242,397,-440
,21,2023-10-20 13:10:09.78,108,-462,-2012,9,-6,-9,600,101,499,-350
,22,2023-10-20 13:10:09.79,118,-464,-2009,12,0,-6,636,241,395,-438
,23,2023-10-20 13:10:09.80,101,-459,-2002,14,10,0,610,105,505,-357
,24,2023-10-20 13:10:09.81,113,-452,-2021,14,13,3,637,242,395,-439
,25,2023-10-20 13:10:09.82,103,-453,-2017,10,7,8,617,112,505,-364
,26,2023-10-20 13:10:09.83,117,-464,-2013,12,5,9,635,242,393,-438
,27,2023-10-20 13:10:09.84,114,-460,-2001,24,11,4,628,115,513,-371
,28,2023-10-20 13:10:09.85,104,-439,-2009,23,15,4,646,247,399,-446
,29,2023-10-20 13:10:09.86,114,-448,-2019,25,11,-3,656,135,521,-395
,30,2023-10-20 13:10:09.87,112,-452,-2008,26,9,-6,660,259,401,-459
,31,2023-10-20 13:10:09.88,118,-468,-2010,19,7,-7,661,136,525,-398
,32,2023-10-20 13:10:09.89,122,-474,-2010,15,3,-1,643,251,392,-447
,33,2023-10-20 13:10:09.90,120,-466,-2013,11,3,3,658,138,520,-398
,34,2023-10-20 13:10:09.91,120,-472,-2018,3,-4,6,642,251,391,-446
,35,2023-10-20 13:10:09.92,118,-471,-2026,-10,-21,10,659,141,518,-400
,36,2023-10-20 13:10:09.93,132,-465,-2010,-15,-29,10,625,243,382,-434
,37,2023-10-20 13:10:09.94,122,-468,-1986,-10,-15,11,654,139,515,-396
,38,2023-10-20 13:10:09.95,118,-459,-1998,-4,-5,9,618,241,377,-429
,39,2023-10-20 13:10:09.96,103,-454,-2035,6,1,12,642,140,502,-391
,40,2023-10-20 13:10:09.97,101,-435,-2047,13,-16,14,584,224,360,-404
,41,2023-10-20 13:10:09.98,108,-427,-2034,24,-34,10,700,148,552,-424
,42,2023-10-20 13:10:09.99,113,-438,-2006,21,-46,6,761,209,552,-485
,43,2023-10-20 13:10:10.00,100,-446,-2020,12,-43,4,907,103,804,-505
,44,2023-10-20 13:10:10.01,103,-453,-2020,9,-40,-1,865,138,727,-501
,45,2023-10-20 13:10:10.02,111,-427,-2008,-6,-7,-8,1002,20,982,-511
,46,2023-10-20 13:10:10.03,114,-469,-1988,-19,8,-10,912,64,848,-488
,47,2023-10-20 13:10:10.04,112,-507,-1971,-12,14,-4,1048,-79,1127,-484
,48,2023-10-20 13:10:10.05,107,-524,-1968,15,4,12,937,-73,1010,-432
,49,2023-10-20 13:10:10.06,97,-484,-2039,27,14,28,1097,-132,1229,-482
,50,2023-10-20 13:10:10.07,99,-437,-2057,23,-5,28,969,-47,1016,-461
,51,2023-10-20 13:10:10.08,94,-412,-2009,18,-29,23,1130,-127,1257,-501
,52,2023-10-20 13:10:10.09,107,-439,-1985,12,-24,12,976,-93,1069,-441
,53,2023-10-20 13:10:10.10,120,-449,-1983,2,-11,4,1133,-170,1303,-481
,54,2023-10-20 13:10:10.11,105,-448,-1991,-2,1,-3,969,-110,1079,-429
,55,2023-10-20 13:10:10.12,102,-460,-2000,-2,6,-4,1146,-152,1298,-497
,56,2023-10-20 13:10:10.13,98,-469,-2010,15,2,-2,979,-69,1048,-455
,57,2023-10-20 13:10:10.14,101,-464,-2009,15,3,3,1149,-102,1251,-523
,58,2023-10-20 13:10:10.15,108,-459,-2020,10,16,4,952,-26,978,-463
,59,2023-10-20 13:10:10.16,106,-470,-2013,4,24,8,1108,-43,1151,-532
,60,2023-10-20 13:10:10.17,88,-457,-2017,6,19,9,916,22,894,-469
,61,2023-10-20 13:10:10.18,99,-454,-2013,4,15,9,1079,-6,1085,-536
,62,2023-10-20 13:10:10.19,105,-449,-2010,5,17,9,898,45,853,-471
,63,2023-10-20 13:10:10.20,113,-444,-2011,2,14,7,1068,33,1035,-550
,64,2023-10-20 13:10:10.21,104,-451,-2018,0,15,4,861,63,798,-462
,65,2023-10-20 13:10:10.22,110,-443,-2013,1,12,0,1038,44,994,-541
,66,2023-10-20 13:10:10.23,113,-452,-2001,1,10,-2,839,72,767,-455
,67,2023-10-20 13:10:10.24,122,-450,-2010,-1,10,-4,1006,62,944,-534
,68,2023-10-20 13:10:10.25,120,-449,-2011,-3,13,-6,809,94,715,-451
,69,2023-10-20 13:10:10.26,108,-451,-2009,-7,12,-8,979,104,875,-541
,70,2023-10-20 13:10:10.27,117,-449,-2015,-7,9,-6,783,124,659,-453
,71,2023-10-20 13:10:10.28,121,-460,-2017,-9,12,-7,955,137,818,-546
,72,2023-10-20 13:10:10.29,117,-454,-2003,-10,8,-7,760,133,627,-446
,73,2023-10-20 13:10:10.30,116,-461,-1995,-3,10,-3,948,134,814,-541
,74,2023-10-20 13:10:10.31,131,-464,-1993,2,12,-3,750,123,627,-436
,75,2023-10-20 13:10:10.32,117,-466,-2010,12,21,8,942,132,810,-537
,76,2023-10-20 13:10:10.33,101,-425,-2018,26,27,4,736,120,616,-428
,77,2023-10-20 13:10:10.34,119,-420,-2034,14,8,-2,932,147,785,-539
,78,2023-10-20 13:10:10.35,112,-452,-2012,15,-6,-4,725,139,586,-432
,79,2023-10-20 13:10:10.36,103,-454,-2008,12,-1,-7,914,187,727,-550
,80,2023-10-20 13:10:10.37,117,-464,-2004,21,3,-4,696,159,537,-427
,81,2023-10-20 13:10:10.38,112,-460,-2001,24,4,1,889,200,689,-544
,82,2023-10-20 13:10:10.39,118,-464,-2004,23,12,0,684,153,531,-418
,83,2023-10-20 13:10:10.40,113,-458,-2000,24,18,6,894,189,705,-541
,84,2023-10-20 13:10:10.41,107,-465,-2021,18,22,11,690,141,549,-415
,85,2023-10-20 13:10:10.42,112,-462,-2025,15,28,14,906,182,724,-544
,86,2023-10-20 13:10:10.43,104,-458,-2022,13,26,17,678,139,539,-408
,87,2023-10-20 13:10:10.44,108,-446,-2021,13,20,16,882,210,672,-546
,88,2023-10-20 13:10:10.45,127,-440,-2018,12,14,14,657,161,496,-409
,89,2023-10-20 13:10:10.46,113,-444,-2022,11,3,14,859,223,636,-541
,90,2023-10-20 13:10:10.47,111,-441,-2006,13,-3,11,650,144,506,-397
,91,2023-10-20 13:10:10.48,107,-452,-1998,15,-6,9,878,196,682,-537
,92,2023-10-20 13:10:10.49,116,-446,-1998,12,-5,8,662,134,528,-398
,93,2023-10-20 13:10:10.50,112,-442,-2011,12,-1,6,882,219,663,-550
,94,2023-10-20 13:10:10.51,109,-449,-2004,9,4,7,648,149,499,-398
,95,2023-10-20 13:10:10.52,118,-452,-2010,7,8,5,861,227,634,-544
,96,2023-10-20 13:10:10.53,115,-447,-2012,7,15,5,622,132,490,-377
,97,2023-10-20 13:10:10.54,111,-454,-2006,9,19,5,864,223,641,-543
,98,2023-10-20 13:10:10.55,103,-464,-2009,11,21,7,645,149,496,-397
,99,2023-10-20 13:10:10.56,109,-458,-2013,13,24,7,866,247,619,-556
,100,2023-10-20 13:10:10.57,103,-464,-2016,12,20,10,633,142,491,-387
,101,2023-10-20 13:10:10.58,121,-458,-2010,17,24,8,864,228,636,-546
,102,2023-10-20 13:10:10.59,117,-453,-2002,17,26,9,634,130,504,-382
,103,2023-10-20 13:10:10.60,127,-452,-2018,10,30,7,864,238,626,-551
,104,2023-10-20 13:10:10.61,124,-457,-2004,9,29,3,630,141,489,-385
,105,2023-10-20 13:10:10.62,117,-460,-2004,13,31,2,852,242,610,-547
,106,2023-10-20 13:10:10.63,117,-455,-2010,14,27,4,626,124,502,-375
,107,2023-10-20 13:10:10.64,128,-458,-2012,12,23,-2,861,229,632,-545
,108,2023-10-20 13:10:10.65,139,-453,-2003,11,19,0,639,121,518,-380
,109,2023-10-20 13:10:10.66,133,-464,-2002,13,19,0,871,234,637,-552
,110,2023-10-20 13:10:10.67,109,-459,-2006,8,21,-1,636,127,509,-381
,111,2023-10-20 13:10:10.68,127,-460,-2014,4,18,0,865,257,608,-561
,112,2023-10-20 13:10:10.69,126,-459,-2016,1,16,-1,643,141,502,-392
,113,2023-10-20 13:10:10.70,124,-457,-2016,-2,16,-1,878,260,618,-569
,114,2023-10-20 13:10:10.71,130,-456,-2012,-2,11,2,644,138,506,-391
,115,2023-10-20 13:10:10.72,128,-458,-2017,-4,12,3,866,270,596,-568
,116,2023-10-20 13:10:10.73,118,-457,-2011,-2,11,7,633,136,497,-384
,117,2023-10-20 13:10:10.74,117,-450,-2007,-3,13,9,859,259,600,-559
,118,2023-10-20 13:10:10.75,122,-445,-2017,-7,13,13,626,128,498,-377
,119,2023-10-20 13:10:10.76,123,-445,-2019,-7,11,11,852,269,583,-560
,120,2023-10-20 13:10:10.77,135,-449,-2005,-4,13,13,636,127,509,-381
,121,2023-10-20 13:10:10.78,128,-451,-2011,-1,11,9,874,266,608,-570
,122,2023-10-20 13:10:10.79,122,-440,-2007,3,10,6,653,124,529,-388
,123,2023-10-20 13:10:10.80,133,-445,-2024,6,10,7,875,265,610,-570
,124,2023-10-20 13:10:10.81,129,-444,-2016,10,4,9,642,126,516,-384
,125,2023-10-20 13:10:10.82,133,-449,-2011,12,2,9,856,269,587,-562
,126,2023-10-20 13:10:10.83,117,-452,-2013,15,0,12,648,116,532,-382
,127,2023-10-20 13:10:10.84,124,-447,-2018,17,1,13,876,264,612,-570
,128,2023-10-20 13:10:10.85,117,-456,-2010,18,-1,15,663,113,550,-388
,129,2023-10-20 13:10:10.86,138,-456,-2006,19,-5,15,880,265,615,-572
,130,2023-10-20 13:10:10.87,135,-455,-2009,18,-4,17,662,112,550,-387
,131,2023-10-20 13:10:10.88,120,-454,-2011,20,-5,19,866,263,603,-564
,132,2023-10-20 13:10:10.89,124,-455,-2011,17,-5,19,646,109,537,-377
,133,2023-10-20 13:10:10.90,139,-460,-2008,19,-4,21,852,257,595,-554
,134,2023-10-20 13:10:10.91,122,-459,-2015,17,-4,23,664,92,572,-378
,135,2023-10-20 13:10:10.92,122,-451,-2015,16,-5,22,867,242,625,-554
,136,2023-10-20 13:10:10.93,116,-451,-2010,13,-5,25,664,78,586,-371
,137,2023-10-20 13:10:10.94,119,-460,-2003,13,-4,23,843,229,614,-536
,138,2023-10-20 13:10:10.95,119,-458,-2007,12,1,24,649,97,552,-373
,139,2023-10-20 13:10:10.96,132,-446,-2004,13,3,22,844,270,574,-557
,140,2023-10-20 13:10:10.97,122,-452,-2007,10,4,17,657,120,537,-388
,141,2023-10-20 13:10:10.98,131,-455,-2017,12,1,13,846,280,566,-563
,142,2023-10-20 13:10:10.99,124,-458,-2012,11,-2,13,660,106,554,-383
,143,2023-10-20 13:10:11.00,120,-457,-2017,10,-3,13,840,260,580,-550
,144,2023-10-20 13:10:11.01,117,-455,-2013,7,-4,11,646,105,541,-375
,145,2023-10-20 13:10:11.02,124,-456,-2016,6,-5,12,821,266,555,-543
,146,2023-10-20 13:10:11.03,126,-452,-2014,4,-7,12,668,92,576,-380
,147,2023-10-20 13:10:11.04,114,-452,-2014,3,-6,13,850,241,609,-545
,148,2023-10-20 13:10:11.05,116,-455,-2010,3,-5,15,685,81,604,-383
,149,2023-10-20 13:10:11.06,124,-456,-2011,3,-2,14,844,252,592,-548
,150,2023-10-20 13:10:11.07,121,-442,-2007,3,1,14,679,91,588,-385
,151,2023-10-20 13:10:11.08,130,-449,-2006,2,5,14,840,260,580,-550
,152,2023-10-20 13:10:11.09,120,-448,-2002,6,9,13,687,103,584,-395
,153,2023-10-20 13:10:11.10,123,-451,-2020,7,12,14,836,274,562,-555
,154,2023-10-20 13:10:11.11,120,-445,-2018,10,10,10,680,113,567,-396
,155,2023-10-20 13:10:11.12,108,-452,-2015,10,7,8,823,284,539,-553
,156,2023-10-20 13:10:11.13,124,-454,-2015,13,4,6,683,128,555,-405
,157,2023-10-20 13:10:11.14,114,-452,-2013,15,2,7,820,294,526,-557
,158,2023-10-20 13:10:11.15,115,-456,-2015,18,0,7,680,125,555,-402
,159,2023-10-20 13:10:11.16,121,-458,-2012,20,1,7,815,281,534,-548
,160,2023-10-20 13:10:11.17,119,-453,-2004,19,0,5,690,112,578,-401
,161,2023-10-20 13:10:11.18,122,-452,-2005,15,7,4,810,277,533,-543
,162,2023-10-20 13:10:11.19,120,-450,-2024,11,12,2,684,114,570,-399
,163,2023-10-20 13:10:11.20,109,-453,-2022,7,12,2,798,280,518,-539
,164,2023-10-20 13:10:11.21,122,-451,-2013,-1,11,2,678,125,553,-401
,165,2023-10-20 13:10:11.22,116,-444,-2004,-3,12,2,784,288,496,-536
,166,2023-10-20 13:10:11.23,120,-446,-2009,-8,16,0,683,117,566,-400
,167,2023-10-20 13:10:11.24,126,-443,-2004,-12,18,-2,780,270,510,-525
,168,2023-10-20 13:10:11.25,121,-450,-2011,-14,17,-3,688,117,571,-402
,169,2023-10-20 13:10:11.26,119,-449,-2012,-10,15,-4,772,279,493,-525
,170,2023-10-20 13:10:11.27,123,-445,-2006,-5,9,-6,676,130,546,-403
,171,2023-10-20 13:10:11.28,133,-453,-2013,-2,2,-7,761,282,479,-521
,172,2023-10-20 13:10:11.29,120,-451,-2010,5,-1,-9,684,121,563,-402
,173,2023-10-20 13:10:11.30,125,-447,-2011,12,-4,-10,754,268,486,-511
,174,2023-10-20 13:10:11.31,118,-452,-2007,17,-7,-9,677,127,550,-402
,175,2023-10-20 13:10:11.32,113,-455,-2016,21,-9,-4,749,284,465,-516
,176,2023-10-20 13:10:11.33,123,-459,-2017,26,-9,-6,662,133,529,-397
,177,2023-10-20 13:10:11.34,123,-456,-2008,30,-9,-1,721,264,457,-492
,178,2023-10-20 13:10:11.35,118,-463,-2007,32,-4,1,650,107,543,-378
,179,2023-10-20 13:10:11.36,111,-460,-2001,30,3,2,716,250,466,-483
,180,2023-10-20 13:10:11.37,120,-461,-2005,31,10,5,670,116,554,-393
,181,2023-10-20 13:10:11.38,114,-452,-2010,27,15,5,716,256,460,-486
,182,2023-10-20 13:10:11.39,116,-460,-2010,22,14,5,684,101,583,-392
,183,2023-10-20 13:10:11.40,125,-460,-2010,22,16,5,717,227,490,-472
,184,2023-10-20 13:10:11.41,124,-455,-2012,18,15,1,679,111,568,-395
,185,2023-10-20 13:10:11.42,116,-456,-2012,12,18,-1,708,254,454,-481
,186,2023-10-20 13:10:11.43,128,-453,-1997,11,17,-5,697,138,559,-417
,187,2023-10-20 13:10:11.44,136,-448,-2008,12,22,-7,719,256,463,-487
,188,2023-10-20 13:10:11.45,129,-458,-2010,6,25,-11,717,123,594,-420
,189,2023-10-20 13:10:11.46,128,-453,-2019,2,26,-13,714,238,476,-476
,190,2023-10-20 13:10:11.47,131,-452,-2016,1,20,-15,705,136,569,-420
,191,2023-10-20 13:10:11.48,127,-446,-2024,-3,16,-16,698,249,449,-473
,192,2023-10-20 13:10:11.49,134,-448,-2015,-11,14,-17,704,139,565,-421
,193,2023-10-20 13:10:11.50,121,-449,-2016,-15,12,-17,693,240,453,-466
,194,2023-10-20 13:10:11.51,128,-458,-2014,-14,8,-15,716,132,584,-424
,195,2023-10-20 13:10:11.52,138,-444,-2009,-12,6,-13,693,235,458,-464
,196,2023-10-20 13:10:11.53,136,-448,-2013,-12,8,-11,716,141,575,-428
,197,2023-10-20 13:10:11.54,146,-450,-2019,-10,7,-8,682,237,445,-459
,198,2023-10-20 13:10:11.55,131,-451,-2013,-7,7,-5,725,130,595,-427
,199,2023-10-20 13:10:11.56,128,-450,-2015,-2,9,-5,686,228,458,-457
,200,2023-10-20 13:10:11.57,121,-446,-2011,1,13,-4,731,153,578,-442
,201,2023-10-20 13:10:11.58,127,-450,-2011,6,15,-4,673,250,423,-461
,202,2023-10-20 13:10:11.59,130,-444,-2015,11,16,-4,706,176,530,-441
,203,2023-10-20 13:10:11.60,136,-449,-2010,18,14,-6,653,247,406,-450
,204,2023-10-20 13:10:11.61,121,-440,-2010,21,13,-2,726,152,574,-439
,205,2023-10-20 13:10:11.62,140,-451,-2008,28,17,0,667,228,439,-447
,206,2023-10-20 13:10:11.63,132,-449,-2016,29,14,1,737,169,568,-453
,207,2023-10-20 13:10:11.64,132,-459,-2013,32,14,4,656,247,409,-451
,208,2023-10-20 13:10:11.65,129,-455,-2018,33,13,10,725,185,540,-455
,209,2023-10-20 13:10:11.66,141,-458,-2017,28,20,12,645,243,402,-444
,210,2023-10-20 13:10:11.67,134,-462,-2007,22,27,13,742,178,564,-460
,211,2023-10-20 13:10:11.68,133,-451,-2011,21,23,15,648,236,412,-442
,212,2023-10-20 13:10:11.69,132,-452,-2007,18,28,19,732,196,536,-464
,213,2023-10-20 13:10:11.70,132,-451,-2014,10,33,18,630,246,384,-438
,214,2023-10-20 13:10:11.71,151,-448,-2004,5,36,17,732,185,547,-458
,215,2023-10-20 13:10:11.72,139,-447,-2016,4,35,17,623,223,400,-423
,216,2023-10-20 13:10:11.73,137,-440,-2011,0,35,15,734,196,538,-465
,217,2023-10-20 13:10:11.74,155,-445,-2009,-2,34,11,612,231,381,-421
,218,2023-10-20 13:10:11.75,154,-447,-2007,-3,32,10,726,186,540,-456
,219,2023-10-20 13:10:11.76,155,-446,-2009,-3,30,6,587,194,393,-390
,220,2023-10-20 13:10:11.77,156,-445,-2022,2,25,4,723,163,560,-443
,221,2023-10-20 13:10:11.78,152,-444,-2016,4,18,-1,595,194,401,-394
,222,2023-10-20 13:10:11.79,154,-452,-2011,8,12,-4,710,192,518,-451
,223,2023-10-20 13:10:11.80,152,-457,-2006,13,7,-4,579,210,369,-394
,224,2023-10-20 13:10:11.81,149,-461,-2014,17,8,-1,713,176,537,-444
,225,2023-10-20 13:10:11.82,150,-460,-2006,22,4,1,569,182,387,-375
,226,2023-10-20 13:10:11.83,157,-467,-2002,23,4,2,702,179,523,-440
,227,2023-10-20 13:10:11.84,152,-467,-2005,24,8,7,559,191,368,-375
,228,2023-10-20 13:10:11.85,155,-469,-2004,26,11,7,693,194,499,-443
,229,2023-10-20 13:10:11.86,152,-459,-2007,27,12,11,550,185,365,-367
,230,2023-10-20 13:10:11.87,152,-460,-2005,23,12,13,697,165,532,-431
,231,2023-10-20 13:10:11.88,155,-462,-2016,21,11,12,544,157,387,-350
,232,2023-10-20 13:10:11.89,151,-457,-2012,21,6,12,696,165,531,-430
,233,2023-10-20 13:10:11.90,149,-461,-2016,21,4,11,535,161,374,-348
,234,2023-10-20 13:10:11.91,148,-460,-2014,21,0,14,684,176,508,-430
,235,2023-10-20 13:10:11.92,151,-466,-2013,20,-4,13,523,157,366,-340
,236,2023-10-20 13:10:11.93,150,-456,-2014,19,-11,14,694,184,510,-439
,237,2023-10-20 13:10:11.94,152,-462,-2005,18,-18,19,517,148,369,-332
,238,2023-10-20 13:10:11.95,148,-459,-2005,20,-18,19,667,-488,1155,-89
,239,2023-10-20 13:10:11.96,138,-456,-2009,19,-18,20,520,-801,1321,140
,240,2023-10-20 13:10:11.97,138,-460,-2013,14,-14,24,728,-1106,1834,189
,241,2023-10-20 13:10:11.98,139,-458,-2021,10,-15,22,826,-1049,1875,111
,242,2023-10-20 13:10:11.99,142,-460,-2024,7,-15,25,1216,-1132,2348,-42
,243,2023-10-20 13:10:12.00,122,-453,-2009,8,-15,28,1033,-1005,2038,-14
,244,2023-10-20 13:10:12.01,136,-452,-2009,7,-13,28,1189,-1104,2293,-42
,245,2023-10-20 13:10:12.02,126,-455,-2010,4,-5,29,939,-992,1931,26
,246,2023-10-20 13:10:12.03,141,-452,-1997,1,1,30,1132,-1084,2216,-24
,247,2023-10-20 13:10:12.04,125,-450,-1993,-2,12,30,932,-962,1894,15
,248,2023-10-20 13:10:12.05,128,-449,-2001,0,15,26,1137,-1061,2198,-38
,249,2023-10-20 13:10:12.06,127,-442,-2005,1,20,24,931,-954,1885,11
,250,2023-10-20 13:10:12.07,142,-452,-2015,2,23,21,1134,-1068,2202,-33
,251,2023-10-20 13:10:12.08,131,-439,-2008,1,24,20,920,-956,1876,18
,252,2023-10-20 13:10:12.09,132,-445,-2011,-1,23,17,1114,-1056,2170,-29
,253,2023-10-20 13:10:12.10,148,-450,-2003,0,26,14,913,-938,1851,12
,254,2023-10-20 13:10:12.11,148,-452,-1999,5,26,15,1120,-1046,2166,-37
,255,2023-10-20 13:10:12.12,147,-461,-2003,12,29,12,925,-939,1864,7
,256,2023-10-20 13:10:12.13,143,-459,-2013,17,26,12,1120,-1049,2169,-35
,257,2023-10-20 13:10:12.14,137,-459,-2011,23,24,13,928,-935,1863,3
,258,2023-10-20 13:10:12.15,152,-463,-2010,27,21,14,1096,-1047,2143,-24
,259,2023-10-20 13:10:12.16,148,-467,-2016,29,20,16,907,-941,1848,17
,260,2023-10-20 13:10:12.17,147,-458,-2019,29,20,20,1087,-1057,2144,-15
,261,2023-10-20 13:10:12.18,141,-464,-2021,25,23,26,920,-940,1860,10
,262,2023-10-20 13:10:12.19,149,-469,-2006,23,21,25,1109,-1039,2148,-35
,263,2023-10-20 13:10:12.20,145,-463,-2006,18,20,27,911,-933,1844,11
,264,2023-10-20 13:10:12.21,161,-464,-2012,13,21,30,1091,-1037,2128,-27
,265,2023-10-20 13:10:12.22,151,-456,-2010,5,25,28,916,-938,1854,11
,266,2023-10-20 13:10:12.23,145,-460,-2018,-2,28,27,1098,-1047,2145,-25
,267,2023-10-20 13:10:12.24,152,-459,-2020,-8,31,25,931,-952,1883,10
,268,2023-10-20 13:10:12.25,153,-450,-2018,-10,25,24,1103,-1059,2162,-22
,269,2023-10-20 13:10:12.26,146,-454,-2015,-9,20,21,931,-958,1889,13
,270,2023-10-20 13:10:12.27,149,-456,-2013,-6,17,22,1093,-1056,2149,-18
,271,2023-10-20 13:10:12.28,154,-455,-2007,-5,15,20,924,-949,1873,12
,272,2023-10-20 13:10:12.29,155,-457,-2005,-3,14,22,1077,-1036,2113,-20
,273,2023-10-20 13:10:12.30,149,-450,-1998,1,11,28,929,-947,1876,9
,274,2023-10-20 13:10:12.31,143,-447,-2012,1,9,29,1116,-1065,2181,-25
,275,2023-10-20 13:10:12.32,146,-449,-2013,1,7,31,1021,-1015,2036,-3
,276,2023-10-20 13:10:12.33,139,-446,-2013,0,5,31,1288,-1190,2478,-49
,277,2023-10-20 13:10:12.34,146,-444,-2012,3,3,34,1143,-1148,2291,2
,278,2023-10-20 13:10:12.35,147,-451,-2005,2,1,34,1294,-1255,2549,-19
,279,2023-10-20 13:10:12.36,148,-446,-2010,2,3,35,1115,-1160,2275,22
,280,2023-10-20 13:10:12.37,144,-446,-2003,3,6,37,1278,-1244,2522,-17
,281,2023-10-20 13:10:12.38,138,-441,-2009,5,11,35,1086,-1152,2238,33
,282,2023-10-20 13:10:12.39,137,-441,-2005,4,14,33,1241,-1239,2480,-1
,283,2023-10-20 13:10:12.40,139,-450,-2011,5,14,30,994,-1154,2148,80
,284,2023-10-20 13:10:12.41,151,-451,-2010,8,15,27,1147,-1237,2384,45
,285,2023-10-20 13:10:12.42,149,-444,-2006,13,15,25,904,-1153,2057,124
,286,2023-10-20 13:10:12.43,149,-451,-2005,15,11,22,1082,-1234,2316,76
,287,2023-10-20 13:10:12.44,145,-456,-2017,15,8,21,824,-1155,1979,165
,288,2023-10-20 13:10:12.45,153,-453,-2019,17,6,20,1000,-1232,2232,116
,289,2023-10-20 13:10:12.46,147,-449,-2020,21,0,22,749,-1149,1898,200
,290,2023-10-20 13:10:12.47,152,-461,-2018,22,-5,22,925,-1177,2102,126
,291,2023-10-20 13:10:12.48,150,-463,-2017,19,-7,23,674,-1096,1770,211
,292,2023-10-20 13:10:12.49,153,-459,-2014,19,-9,24,846,-1161,2007,157
,293,2023-10-20 13:10:12.50,140,-461,-2013,22,-16,22,607,-1116,1723,254
,294,2023-10-20 13:10:12.51,144,-467,-2003,21,-20,20,772,-1222,1994,225
,295,2023-10-20 13:10:12.52,139,-463,-2013,24,-23,23,562,-1177,1739,307
,296,2023-10-20 13:10:12.53,131,-470,-2009,26,-25,23,732,-1236,1968,252
,297,2023-10-20 13:10:12.54,143,-465,-2004,27,-32,26,539,-1159,1698,310
,298,2023-10-20 13:10:12.55,120,-471,-2015,29,-33,28,720,-1158,1878,219
,299,2023-10-20 13:10:12.56,117,-466,-2006,27,-34,32,517,-1103,1620,293
,300,2023-10-20 13:10:12.57,130,-469,-2007,28,-29,36,672,-1176,1848,252
,301,2023-10-20 13:10:12.58,127,-468,-2001,23,-21,38,491,-1155,1646,332
,302,2023-10-20 13:10:12.59,131,-462,-1990,21,-16,42,680,-1214,1894,267
,303,2023-10-20 13:10:12.60,134,-460,-2004,16,-9,39,521,-1161,1682,320
,304,2023-10-20 13:10:12.61,130,-462,-2004,14,0,39,682,-1173,1855,245
,305,2023-10-20 13:10:12.62,143,-457,-1999,9,5,37,521,-1125,1646,302
,306,2023-10-20 13:10:12.63,119,-452,-2009,7,9,33,680,-1164,1844,242
,307,2023-10-20 13:10:12.64,133,-455,-2013,5,11,27,528,-1141,1669,306
,308,2023-10-20 13:10:12.65,141,-455,-2019,3,12,23,697,-1195,1892,249
,309,2023-10-20 13:10:12.66,143,-449,-2012,3,11,18,546,-1174,1720,314
,310,2023-10-20 13:10:12.67,137,-459,-2013,5,11,16,699,-1231,1930,266
,311,2023-10-20 13:10:12.68,138,-444,-2008,8,8,10,558,-1187,1745,314
,312,2023-10-20 13:10:12.69,146,-454,-2011,9,8,5,708,-1155,1863,223
,313,2023-10-20 13:10:12.70,134,-451,-2013,5,6,2,564,-1081,1645,258
,314,2023-10-20 13:10:12.71,147,-455,-2011,4,7,-3,700,-1002,1702,151
,315,2023-10-20 13:10:12.72,136,-454,-2017,8,5,-4,513,-971,1484,229
,316,2023-10-20 13:10:12.73,147,-458,-2016,9,-2,-8,692,-1054,1746,181
,317,2023-10-20 13:10:12.74,141,-468,-2013,11,-4,-4,630,-1076,1706,223
,318,2023-10-20 13:10:12.75,140,-465,-2006,11,-5,-3,808,-1107,1915,149
,319,2023-10-20 13:10:12.76,138,-466,-1999,12,-1,0,786,-1074,1860,144
,320,2023-10-20 13:10:12.77,144,-466,-2000,12,3,2,890,-1063,1953,86
,321,2023-10-20 13:10:12.78,129,-455,-2006,10,10,1,938,-1042,1980,52
,322,2023-10-20 13:10:12.79,134,-459,-2013,7,16,6,994,-1041,2035,23
,323,2023-10-20 13:10:12.80,138,-460,-2015,8,17,7,1085,-1023,2108,-31
,324,2023-10-20 13:10:12.81,144,-462,-2010,10,13,8,1048,-1009,2057,-19
,325,2023-10-20 13:10:12.82,151,-461,-2005,15,9,11,1065,-1016,2081,-24
,326,2023-10-20 13:10:12.83,142,-455,-2008,13,9,14,1004,-1014,2018,5
,327,2023-10-20 13:10:12.84,149,-449,-2005,11,6,15,1045,-1009,2054,-18
,328,2023-10-20 13:10:12.85,138,-448,-2002,10,9,15,988,-987,1975,0
,329,2023-10-20 13:10:12.86,136,-454,-2008,8,7,18,1040,-994,2034,-23
,330,2023-10-20 13:10:12.87,148,-453,-2008,9,8,14,972,-981,1953,4
,331,2023-10-20 13:10:12.88,149,-456,-2000,9,8,14,1050,-1005,2055,-22
,332,2023-10-20 13:10:12.89,139,-461,-2015,9,9,14,973,-983,1956,5
,333,2023-10-20 13:10:12.90,142,-456,-2011,9,10,16,1050,-1000,2050,-25
,334,2023-10-20 13:10:12.91,151,-455,-2009,11,14,15,954,-964,1918,5
,335,2023-10-20 13:10:12.92,148,-459,-2005,15,13,14,1057,-994,2051,-31
,336,2023-10-20 13:10:12.93,143,-457,-2014,17,15,17,961,-966,1927,2
,337,2023-10-20 13:10:12.94,142,-462,-2009,16,15,19,1081,-1009,2090,-36
,338,2023-10-20 13:10:12.95,148,-456,-2012,21,15,15,964,-971,1935,3
,339,2023-10-20 13:10:12.96,140,-458,-2005,21,16,13,1086,-1000,2086,-43
,340,2023-10-20 13:10:12.97,161,-458,-2007,18,14,13,946,-957,1903,5
,341,2023-10-20 13:10:12.98,149,-449,-2013,18,13,12,1056,-1003,2059,-26
,342,2023-10-20 13:10:12.99,150,-466,-2015,16,10,9,918,-965,1883,23
,343,2023-10-20 13:10:13.00,154,-472,-2016,18,4,12,1092,-1012,2104,-40
,344,2023-10-20 13:10:13.01,140,-468,-2007,18,1,16,956,-960,1916,2
,345,2023-10-20 13:10:13.02,152,-471,-2006,15,-3,15,1119,-1013,2132,-53
,346,2023-10-20 13:10:13.03,158,-477,-1999,18,-5,19,960,-958,1918,-1
,347,2023-10-20 13:10:13.04,152,-462,-1996,17,0,18,1069,-1018,2087,-25
,348,2023-10-20 13:10:13.05,148,-467,-2008,12,3,19,922,-960,1882,19
,349,2023-10-20 13:10:13.06,146,-465,-2010,8,4,17,1087,-1014,2101,-36
,350,2023-10-20 13:10:13.07,144,-459,-2009,8,4,18,950,-954,1904,2
,351,2023-10-20 13:10:13.08,146,-462,-2011,3,1,18,1076,-1002,2078,-37
,352,2023-10-20 13:10:13.09,143,-464,-2006,1,-4,20,916,-938,1854,11
,353,2023-10-20 13:10:13.10,145,-458,-2014,3,-7,21,1103,-1018,2121,-42
,354,2023-10-20 13:10:13.11,139,-459,-2010,3,-10,21,941,-958,1899,8
,355,2023-10-20 13:10:13.12,152,-456,-2005,6,-14,24,1082,-1027,2109,-27
,356,2023-10-20 13:10:13.13,138,-463,-2010,7,-16,24,909,-949,1858,20
,357,2023-10-20 13:10:13.14,130,-459,-2016,7,-17,22,1072,-1008,2080,-32
,358,2023-10-20 13:10:13.15,127,-456,-2012,6,-14,20,908,-925,1833,8
,359,2023-10-20 13:10:13.16,124,-455,-2008,4,-11,21,1076,-972,2048,-52
,360,2023-10-20 13:10:13.17,136,-457,-2000,4,-8,22,898,-897,1795,0
,361,2023-10-20 13:10:13.18,139,-454,-2014,6,-1,22,1076,-993,2069,-41
,362,2023-10-20 13:10:13.19,137,-460,-2006,5,0,20,901,-928,1829,13
,363,2023-10-20 13:10:13.20,139,-453,-2011,6,6,20,1087,-1027,2114,-30
,364,2023-10-20 13:10:13.21,139,-448,-2008,8,8,20,905,-947,1852,21
,365,2023-10-20 13:10:13.22,140,-455,-2008,10,9,16,1101,-1032,2133,-34
,366,2023-10-20 13:10:13.23,141,-460,-2007,11,9,17,912,-939,1851,13
,367,2023-10-20 13:10:13.24,144,-456,-2008,13,11,16,1092,-1004,2096,-44
,368,2023-10-20 13:10:13.25,140,-453,-2014,12,12,17,900,-913,1813,6
,369,2023-10-20 13:10:13.26,128,-458,-2018,11,12,15,1103,-1018,2121,-42
,370,2023-10-20 13:10:13.27,137,-458,-2012,11,9,14,907,-937,1844,15
,371,2023-10-20 13:10:13.28,143,-460,-2012,11,6,14,1080,-1021,2101,-29
,372,2023-10-20 13:10:13.29,136,-470,-2004,10,4,14,887,-922,1809,17
,373,2023-10-20 13:10:13.30,135,-468,-2012,11,1,16,1114,-1024,2138,-45
,374,2023-10-20 13:10:13.31,142,-463,-2015,11,2,18,904,-926,1830,11
,375,2023-10-20 13:10:13.32,145,-466,-2013,10,6,18,1092,-1008,2100,-42
,376,2023-10-20 13:10:13.33,137,-464,-2008,7,2,22,884,-908,1792,12
,377,2023-10-20 13:10:13.34,136,-474,-2009,9,1,26,1108,-1030,2138,-39
,378,2023-10-20 13:10:13.35,151,-468,-2007,9,3,28,901,-936,1837,17
,379,2023-10-20 13:10:13.36,145,-472,-2001,10,5,28,1116,-1041,2157,-37
