// Data mode  : Full
// Data quality  : High
// Acceleration sensor's range  : 16g
// Gyroscope sensor's range  : 2000dps
//
//ARTIFACT,NUM,DATE,ACC_X,ACC_Y,ACC_Z,GYRO_X,GYRO_Y,GYRO_Z,EOG_L,EOG_R,EOG_H,EOG_V
,1,2023-10-27 11:59:50.66,54,-316,-2029,-6,-3,10,-316,-690,374,503
,2,2023-10-27 11:59:50.67,56,-316,-2023,-6,1,8,-310,-708,398,509
,3,2023-10-27 11:59:50.68,49,-311,-2031,-3,-3,6,-321,-691,370,506
,4,2023-10-27 11:59:50.69,56,-323,-2032,3,5,8,-308,-704,396,506
,5,2023-10-27 11:59:50.70,48,-318,-2033,5,2,7,-319,-688,369,503
,6,2023-10-27 11:59:50.71,57,-310,-2041,7,13,8,-305,-704,399,504
,7,2023-10-27 11:59:50.72,63,-313,-2032,-1,29,6,-325,-697,372,511
,8,2023-10-27 11:59:50.73,56,-321,-2030,-6,37,8,-303,-700,397,501
,9,2023-10-27 11:59:50.74,69,-328,-2034,3,29,8,-327,-696,369,511
,10,2023-10-27 11:59:50.75,57,-309,-2036,10,29,7,-308,-697,389,502
,11,2023-10-27 11:59:50.76,77,-315,-2043,7,33,5,-332,-700,368,516
,12,2023-10-27 11:59:50.77,60,-320,-2033,-1,39,5,-307,-694,387,500
,13,2023-10-27 11:59:50.78,71,-320,-2040,2,42,1,-334,-704,370,519
,14,2023-10-27 11:59:50.79,82,-311,-2041,3,39,-2,-315,-700,385,507
,15,2023-10-27 11:59:50.80,67,-312,-2033,-2,44,-2,-336,-708,372,522
,16,2023-10-27 11:59:50.81,71,-320,-2031,0,42,-6,-304,-687,383,495
,17,2023-10-27 11:59:50.82,64,-314,-2035,2,33,-6,-336,-709,373,522
,18,2023-10-27 11:59:50.83,78,-315,-2037,4,30,-7,-301,-685,384,493
,19,2023-10-27 11:59:50.84,77,-329,-2036,7,25,-4,-344,-713,369,528
,20,2023-10-27 11:59:50.85,80,-324,-2024,9,19,-2,-303,-682,379,492
,21,2023-10-27 11:59:50.86,79,-329,-2030,10,21,4,-345,-715,370,530
,22,2023-10-27 11:59:50.87,80,-333,-2034,14,19,10,-295,-678,383,486
,23,2023-10-27 11:59:50.88,69,-339,-2035,17,14,17,-345,-716,371,530
,24,2023-10-27 11:59:50.89,79,-339,-2034,19,15,23,-296,-672,376,484
,25,2023-10-27 11:59:50.90,82,-326,-2036,19,12,29,-351,-718,367,534
,26,2023-10-27 11:59:50.91,79,-329,-2038,15,18,34,-299,-676,377,487
,27,2023-10-27 11:59:50.92,86,-321,-2047,13,18,36,-355,-723,368,539
,28,2023-10-27 11:59:50.93,88,-323,-2047,11,11,36,-298,-671,373,484
,29,2023-10-27 11:59:50.94,80,-320,-2041,10,9,36,-352,-718,366,535
,30,2023-10-27 11:59:50.95,79,-323,-2038,16,1,36,-293,-664,371,478
,31,2023-10-27 11:59:50.96,87,-327,-2032,19,-10,32,-350,-720,370,535
,32,2023-10-27 11:59:50.97,73,-325,-2028,22,-16,35,-292,-662,370,477
,33,2023-10-27 11:59:50.98,76,-329,-2024,27,-27,32,-354,-724,370,539
,34,2023-10-27 11:59:50.99,73,-325,-2021,30,-27,34,-292,-660,368,476
,35,2023-10-27 11:59:51.00,65,-329,-2025,29,-27,33,-357,-728,371,542
,36,2023-10-27 11:59:51.01,69,-326,-2026,24,-25,31,-296,-658,362,477
,37,2023-10-27 11:59:51.02,58,-334,-2031,20,-20,36,-377,-732,355,554
,38,2023-10-27 11:59:51.03,55,-340,-2030,14,-18,36,-309,-655,346,482
,39,2023-10-27 11:59:51.04,59,-334,-2025,8,-10,38,-384,-734,350,559
,40,2023-10-27 11:59:51.05,60,-328,-2028,3,-4,40,-310,-651,341,480
,41,2023-10-27 11:59:51.06,61,-331,-2026,-2,4,38,-384,-734,350,559
,42,2023-10-27 11:59:51.07,67,-326,-2030,-4,10,37,-301,-649,348,475
,43,2023-10-27 11:59:51.08,63,-323,-2033,-3,11,36,-377,-734,357,555
,44,2023-10-27 11:59:51.09,60,-323,-2028,-4,14,28,-293,-644,351,468
,45,2023-10-27 11:59:51.10,67,-322,-2035,0,16,25,-379,-738,359,558
,46,2023-10-27 11:59:51.11,66,-322,-2038,0,13,16,-294,-642,348,468
,47,2023-10-27 11:59:51.12,67,-327,-2032,3,4,12,-379,-743,364,561
,48,2023-10-27 11:59:51.13,66,-329,-2042,7,1,10,-290,-645,355,467
,49,2023-10-27 11:59:51.14,63,-332,-2050,10,-7,8,-371,-745,374,558
,50,2023-10-27 11:59:51.15,69,-326,-2030,12,-12,9,-286,-645,359,465
,51,2023-10-27 11:59:51.16,67,-336,-2027,13,-16,12,-380,-751,371,565
,52,2023-10-27 11:59:51.17,67,-328,-2029,10,-12,15,-291,-649,358,470
,53,2023-10-27 11:59:51.18,67,-327,-2033,2,-4,18,-378,-751,373,564
,54,2023-10-27 11:59:51.19,60,-328,-2035,-6,0,17,-283,-640,357,461
,55,2023-10-27 11:59:51.20,79,-325,-2036,-11,8,21,-378,-751,373,564
,56,2023-10-27 11:59:51.21,72,-327,-2037,-12,9,21,-283,-642,359,462
,57,2023-10-27 11:59:51.22,72,-329,-2039,-11,0,21,-379,-754,375,566
,58,2023-10-27 11:59:51.23,70,-320,-2033,-10,-5,21,-280,-638,358,459
,59,2023-10-27 11:59:51.24,63,-314,-2035,-4,-11,23,-378,-754,376,566
,60,2023-10-27 11:59:51.25,73,-317,-2033,0,-15,23,-277,-638,361,457
,61,2023-10-27 11:59:51.26,63,-318,-2037,4,-18,22,-381,-758,377,569
,62,2023-10-27 11:59:51.27,78,-314,-2033,4,-17,22,-282,-637,355,459
,63,2023-10-27 11:59:51.28,67,-313,-2040,4,-15,18,-380,-757,377,568
,64,2023-10-27 11:59:51.29,65,-319,-2034,4,-10,18,-279,-636,357,457
,65,2023-10-27 11:59:51.30,57,-316,-2037,5,-8,19,-380,-758,378,569
,66,2023-10-27 11:59:51.31,60,-318,-2037,6,-11,18,-274,-632,358,453
,67,2023-10-27 11:59:51.32,68,-321,-2031,7,-10,22,-378,-759,381,568
,68,2023-10-27 11:59:51.33,55,-326,-2038,6,-9,23,-276,-630,354,453
,69,2023-10-27 11:59:51.34,62,-326,-2029,8,-7,22,-380,-760,380,570
,70,2023-10-27 11:59:51.35,55,-313,-2031,9,-3,24,-276,-630,354,453
,71,2023-10-27 11:59:51.36,65,-316,-2033,7,-3,23,-382,-762,380,572
,72,2023-10-27 11:59:51.37,58,-318,-2030,7,1,20,-276,-628,352,452
,73,2023-10-27 11:59:51.38,59,-316,-2035,5,2,23,-382,-762,380,572
,74,2023-10-27 11:59:51.39,55,-320,-2027,7,0,20,-275,-628,353,451
,75,2023-10-27 11:59:51.40,61,-323,-2036,8,-2,16,-380,-764,384,572
,76,2023-10-27 11:59:51.41,60,-322,-2036,12,-8,20,-276,-628,352,452
,77,2023-10-27 11:59:51.42,58,-319,-2034,17,-14,21,-384,-767,383,575
,78,2023-10-27 11:59:51.43,60,-322,-2035,18,-15,22,-278,-627,349,452
,79,2023-10-27 11:59:51.44,64,-320,-2033,18,-16,25,-384,-769,385,576
,80,2023-10-27 11:59:51.45,59,-332,-2033,16,-13,25,-276,-625,349,450
,81,2023-10-27 11:59:51.46,63,-329,-2032,14,-11,25,-381,-769,388,575
,82,2023-10-27 11:59:51.47,49,-329,-2034,10,-7,30,-275,-624,349,449
,83,2023-10-27 11:59:51.48,57,-327,-2037,8,-6,29,-384,-767,383,575
,84,2023-10-27 11:59:51.49,65,-327,-2034,6,-8,31,-275,-620,345,447
,85,2023-10-27 11:59:51.50,64,-324,-2033,4,-7,29,-381,-766,385,573
,86,2023-10-27 11:59:51.51,50,-314,-2035,5,-11,29,-272,-619,347,445
,87,2023-10-27 11:59:51.52,61,-316,-2037,7,-3,29,-382,-764,382,573
,88,2023-10-27 11:59:51.53,51,-316,-2033,3,-4,22,-277,-621,344,449
,89,2023-10-27 11:59:51.54,57,-312,-2033,2,-3,18,-389,-772,383,580
,90,2023-10-27 11:59:51.55,55,-317,-2030,3,-1,13,-275,-621,346,448
,91,2023-10-27 11:59:51.56,66,-306,-2028,3,-4,6,-386,-769,383,577
,92,2023-10-27 11:59:51.57,68,-321,-2030,3,-5,2,-274,-620,346,447
,93,2023-10-27 11:59:51.58,64,-324,-2036,4,-5,-2,-390,-773,383,581
,94,2023-10-27 11:59:51.59,65,-319,-2030,7,-10,-3,-272,-618,346,445
,95,2023-10-27 11:59:51.60,56,-323,-2031,5,-8,-5,-387,-772,385,579
,96,2023-10-27 11:59:51.61,64,-327,-2038,7,-10,-3,-281,-623,342,452
,97,2023-10-27 11:59:51.62,48,-322,-2036,5,-7,2,-393,-776,383,584
,98,2023-10-27 11:59:51.63,45,-328,-2038,2,-8,2,-281,-624,343,452
,99,2023-10-27 11:59:51.64,58,-323,-2029,3,-1,7,-393,-775,382,584
,100,2023-10-27 11:59:51.65,47,-323,-2036,2,-5,10,-283,-623,340,453
,101,2023-10-27 11:59:51.66,54,-329,-2030,3,1,13,-391,-774,383,582
,102,2023-10-27 11:59:51.67,49,-327,-2025,5,1,16,-282,-623,341,452
,103,2023-10-27 11:59:51.68,56,-324,-2028,7,7,16,-388,-771,383,579
,104,2023-10-27 11:59:51.69,60,-326,-2030,6,9,17,-281,-622,341,451
,105,2023-10-27 11:59:51.70,49,-319,-2028,7,9,16,-387,-773,386,580
,106,2023-10-27 11:59:51.71,70,-310,-2031,9,12,13,-279,-623,344,451
,107,2023-10-27 11:59:51.72,50,-311,-2031,6,12,6,-386,-772,386,579
,108,2023-10-27 11:59:51.73,55,-313,-2042,4,9,5,-283,-623,340,453
,109,2023-10-27 11:59:51.74,58,-309,-2035,6,2,1,-389,-771,382,580
,110,2023-10-27 11:59:51.75,63,-311,-2038,7,1,-2,-283,-622,339,452
,111,2023-10-27 11:59:51.76,58,-324,-2030,7,-2,-4,-381,-768,387,574
,112,2023-10-27 11:59:51.77,53,-319,-2037,8,0,-1,-279,-625,346,452
,113,2023-10-27 11:59:51.78,61,-327,-2023,9,-1,-3,-384,-770,386,577
,114,2023-10-27 11:59:51.79,55,-319,-2030,10,-1,-3,-285,-627,342,456
,115,2023-10-27 11:59:51.80,50,-319,-2038,8,4,1,-384,-768,384,576
,116,2023-10-27 11:59:51.81,46,-320,-2043,6,8,3,-284,-627,343,455
,117,2023-10-27 11:59:51.82,48,-331,-2045,4,10,3,-382,-766,384,574
,118,2023-10-27 11:59:51.83,55,-323,-2041,4,12,7,-289,-629,340,459
,119,2023-10-27 11:59:51.84,43,-328,-2037,6,11,12,-384,-769,385,576
,120,2023-10-27 11:59:51.85,40,-317,-2030,7,10,14,-292,-636,344,464
,121,2023-10-27 11:59:51.86,60,-315,-2022,8,10,13,-386,-770,384,578
,122,2023-10-27 11:59:51.87,51,-309,-2031,7,11,15,-297,-635,338,466
,123,2023-10-27 11:59:51.88,56,-314,-2025,9,14,11,-384,-768,384,576
,124,2023-10-27 11:59:51.89,56,-310,-2022,11,8,9,-293,-635,342,464
,125,2023-10-27 11:59:51.90,62,-307,-2030,10,16,6,-380,-763,383,571
,126,2023-10-27 11:59:51.91,50,-310,-2034,5,15,3,-298,-635,337,466
,127,2023-10-27 11:59:51.92,64,-326,-2037,7,13,4,-382,-765,383,573
,128,2023-10-27 11:59:51.93,54,-321,-2040,7,17,4,-299,-636,337,467
,129,2023-10-27 11:59:51.94,53,-322,-2032,5,12,1,-381,-762,381,571
,130,2023-10-27 11:59:51.95,65,-327,-2037,6,12,2,-303,-640,337,471
,131,2023-10-27 11:59:51.96,64,-325,-2041,10,12,0,-375,-762,387,568
,132,2023-10-27 11:59:51.97,60,-324,-2036,10,7,2,-303,-642,339,472
,133,2023-10-27 11:59:51.98,58,-321,-2028,9,8,3,-377,-760,383,568
,134,2023-10-27 11:59:51.99,58,-319,-2033,9,12,0,-307,-645,338,476
,135,2023-10-27 11:59:52.00,58,-326,-2033,9,13,1,-372,-757,385,564
,136,2023-10-27 11:59:52.01,65,-323,-2033,6,13,2,-309,-647,338,478
,137,2023-10-27 11:59:52.02,75,-329,-2035,4,13,1,-375,-761,386,568
,138,2023-10-27 11:59:52.03,68,-314,-2032,2,17,-2,-310,-648,338,479
,139,2023-10-27 11:59:52.04,58,-322,-2027,0,17,-3,-374,-758,384,566
,140,2023-10-27 11:59:52.05,71,-325,-2030,1,17,-4,-310,-648,338,479
,141,2023-10-27 11:59:52.06,67,-322,-2043,-1,12,-4,-375,-755,380,565
,142,2023-10-27 11:59:52.07,65,-327,-2048,0,8,-4,-318,-655,337,486
,143,2023-10-27 11:59:52.08,56,-327,-2043,-3,9,-3,-377,-758,381,567
,144,2023-10-27 11:59:52.09,53,-332,-2043,-4,1,1,-316,-655,339,485
,145,2023-10-27 11:59:52.10,59,-330,-2044,-9,0,3,-373,-752,379,562
,146,2023-10-27 11:59:52.11,61,-320,-2022,-10,-4,4,-318,-655,337,486
,147,2023-10-27 11:59:52.12,59,-314,-2026,-13,-1,7,-372,-751,379,561
,148,2023-10-27 11:59:52.13,66,-316,-2025,-15,-2,6,-318,-658,340,488
,149,2023-10-27 11:59:52.14,67,-315,-2030,-14,-2,8,-368,-749,381,558
,150,2023-10-27 11:59:52.15,61,-315,-2032,-11,-1,12,-321,-661,340,491
,151,2023-10-27 11:59:52.16,76,-313,-2024,-10,0,11,-366,-746,380,556
,152,2023-10-27 11:59:52.17,55,-317,-2036,-9,2,10,-321,-663,342,492
,153,2023-10-27 11:59:52.18,56,-307,-2033,-8,4,11,-363,-742,379,552
,154,2023-10-27 11:59:52.19,61,-310,-2037,-7,2,12,-325,-666,341,495
,155,2023-10-27 11:59:52.20,58,-312,-2040,-5,-2,13,-363,-741,378,552
,156,2023-10-27 11:59:52.21,57,-305,-2039,0,-5,13,-327,-670,343,498
,157,2023-10-27 11:59:52.22,59,-307,-2032,6,-8,13,-363,-739,376,551
,158,2023-10-27 11:59:52.23,54,-310,-2036,10,-13,11,-330,-670,340,500
,159,2023-10-27 11:59:52.24,55,-304,-2032,16,-7,14,-360,-734,374,547
,160,2023-10-27 11:59:52.25,54,-314,-2030,17,-5,10,-330,-675,345,502
,161,2023-10-27 11:59:52.26,57,-310,-2032,19,-2,10,-357,-732,375,544
,162,2023-10-27 11:59:52.27,69,-307,-2038,20,7,8,-335,-678,343,506
,163,2023-10-27 11:59:52.28,66,-306,-2032,19,9,5,-356,-730,374,543
,164,2023-10-27 11:59:52.29,57,-311,-2031,17,10,5,-334,-678,344,506
,165,2023-10-27 11:59:52.30,49,-308,-2039,15,3,1,-351,-727,376,539
,166,2023-10-27 11:59:52.31,60,-309,-2043,15,0,3,-338,-686,348,512
,167,2023-10-27 11:59:52.32,54,-320,-2034,15,-4,5,-353,-726,373,539
,168,2023-10-27 11:59:52.33,49,-322,-2036,16,-9,6,-339,-684,345,511
,169,2023-10-27 11:59:52.34,63,-322,-2034,15,-12,4,-343,-715,372,529
,170,2023-10-27 11:59:52.35,72,-320,-2046,15,-11,11,-336,-687,351,511
,171,2023-10-27 11:59:52.36,60,-319,-2040,14,-10,10,-344,-718,374,531
,172,2023-10-27 11:59:52.37,60,-310,-2036,15,-9,7,-341,-690,349,515
,173,2023-10-27 11:59:52.38,62,-321,-2031,10,-5,10,-342,-715,373,528
,174,2023-10-27 11:59:52.39,59,-324,-2030,11,-6,9,-340,-691,351,515
,175,2023-10-27 11:59:52.40,61,-329,-2032,12,-9,13,-337,-709,372,523
,176,2023-10-27 11:59:52.41,43,-331,-2035,9,-6,16,-342,-692,350,517
,177,2023-10-27 11:59:52.42,61,-325,-2035,4,0,18,-334,-706,372,520
,178,2023-10-27 11:59:52.43,56,-319,-2033,-3,8,17,-353,-702,349,527
,179,2023-10-27 11:59:52.44,58,-332,-2030,-5,7,14,-330,-703,373,516
,180,2023-10-27 11:59:52.45,50,-324,-2026,-2,10,17,-345,-698,353,521
,181,2023-10-27 11:59:52.46,55,-318,-2038,7,0,13,-325,-701,376,513
,182,2023-10-27 11:59:52.47,60,-317,-2035,4,-2,13,-347,-701,354,524
,183,2023-10-27 11:59:52.48,47,-321,-2029,5,2,10,-326,-698,372,512
,184,2023-10-27 11:59:52.49,59,-318,-2027,5,9,9,-351,-706,355,528
,185,2023-10-27 11:59:52.50,51,-318,-2027,2,9,6,-325,-698,373,511
,186,2023-10-27 11:59:52.51,54,-317,-2030,-3,11,5,-355,-710,355,532
,187,2023-10-27 11:59:52.52,48,-318,-2036,-2,14,4,-325,-694,369,509
,188,2023-10-27 11:59:52.53,61,-325,-2033,0,4,5,-357,-710,353,533
,189,2023-10-27 11:59:52.54,71,-319,-2043,8,2,6,-321,-688,367,504
,190,2023-10-27 11:59:52.55,62,-310,-2037,4,-2,5,-357,-708,351,532
,191,2023-10-27 11:59:52.56,60,-316,-2037,0,6,3,-320,-684,364,502
,192,2023-10-27 11:59:52.57,60,-315,-2033,2,-1,1,-361,-712,351,536
,193,2023-10-27 11:59:52.58,56,-319,-2040,3,0,1,-316,-684,368,500
,194,2023-10-27 11:59:52.59,67,-316,-2044,5,-5,3,-361,-714,353,537
,195,2023-10-27 11:59:52.60,62,-321,-2048,9,-12,4,-315,-681,366,498
,196,2023-10-27 11:59:52.61,63,-318,-2048,6,-12,7,-364,-720,356,542
,197,2023-10-27 11:59:52.62,58,-313,-2038,-3,0,4,-312,-678,366,495
,198,2023-10-27 11:59:52.63,46,-310,-2036,-7,7,8,-362,-717,355,539
,199,2023-10-27 11:59:52.64,64,-322,-2042,-9,11,9,-311,-672,361,491
,200,2023-10-27 11:59:52.65,54,-324,-2039,-7,9,9,-368,-723,355,545
,201,2023-10-27 11:59:52.66,55,-319,-2041,1,-5,16,-310,-677,367,493
,202,2023-10-27 11:59:52.67,59,-321,-2037,2,-9,19,-366,-726,360,546
,203,2023-10-27 11:59:52.68,51,-308,-2038,5,-8,21,-307,-671,364,489
,204,2023-10-27 11:59:52.69,47,-308,-2029,1,-1,24,-368,-726,358,547
,205,2023-10-27 11:59:52.70,51,-312,-2027,1,2,26,-307,-669,362,488
,206,2023-10-27 11:59:52.71,45,-307,-2026,4,1,26,-371,-730,359,550
,207,2023-10-27 11:59:52.72,49,-304,-2020,6,-4,23,-303,-668,365,485
,208,2023-10-27 11:59:52.73,54,-310,-2034,13,-6,23,-375,-736,361,555
,209,2023-10-27 11:59:52.74,64,-308,-2028,17,-5,20,-307,-668,361,487
,210,2023-10-27 11:59:52.75,46,-306,-2030,15,-1,20,-378,-735,357,556
,211,2023-10-27 11:59:52.76,52,-311,-2033,14,-2,14,-300,-663,363,481
,212,2023-10-27 11:59:52.77,46,-318,-2033,17,3,15,-372,-736,364,554
,213,2023-10-27 11:59:52.78,52,-314,-2034,17,7,16,-294,-660,366,477
,214,2023-10-27 11:59:52.79,47,-318,-2034,14,12,17,-375,-741,366,558
,215,2023-10-27 11:59:52.80,54,-317,-2038,16,21,15,-297,-660,363,478
,216,2023-10-27 11:59:52.81,46,-317,-2033,14,16,13,-378,-744,366,561
,217,2023-10-27 11:59:52.82,60,-325,-2037,13,18,12,-296,-657,361,476
,218,2023-10-27 11:59:52.83,63,-318,-2036,11,13,11,-380,-745,365,562
,219,2023-10-27 11:59:52.84,53,-323,-2026,12,11,12,-307,-662,355,484
,220,2023-10-27 11:59:52.85,36,-327,-2035,12,7,12,-382,-747,365,564
,221,2023-10-27 11:59:52.86,60,-322,-2035,15,10,13,-293,-652,359,472
,222,2023-10-27 11:59:52.87,59,-327,-2032,13,2,10,-380,-747,367,563
,223,2023-10-27 11:59:52.88,70,-318,-2032,13,7,10,-295,-647,352,471
,224,2023-10-27 11:59:52.89,61,-318,-2026,10,8,9,-380,-746,366,563
,225,2023-10-27 11:59:52.90,67,-318,-2034,3,14,9,-290,-643,353,466
,226,2023-10-27 11:59:52.91,51,-312,-2042,-1,14,9,-380,-747,367,563
,227,2023-10-27 11:59:52.92,51,-321,-2040,-2,12,5,-290,-643,353,466
,228,2023-10-27 11:59:52.93,63,-319,-2038,-6,13,5,-384,-753,369,568
,229,2023-10-27 11:59:52.94,61,-315,-2039,-8,9,6,-294,-645,351,469
,230,2023-10-27 11:59:52.95,53,-311,-2039,-7,7,10,-384,-756,372,570
,231,2023-10-27 11:59:52.96,64,-316,-2043,-7,6,11,-289,-642,353,465
,232,2023-10-27 11:59:52.97,55,-316,-2035,-3,5,12,-384,-756,372,570
,233,2023-10-27 11:59:52.98,60,-315,-2034,-4,3,15,-289,-641,352,465
,234,2023-10-27 11:59:52.99,51,-313,-2030,-4,-1,11,-385,-757,372,571
,235,2023-10-27 11:59:53.00,61,-315,-2034,-6,0,16,-287,-640,353,463
,236,2023-10-27 11:59:53.01,58,-310,-2030,-5,6,17,-386,-760,374,573
,237,2023-10-27 11:59:53.02,54,-303,-2029,-5,11,18,-285,-636,351,460
,238,2023-10-27 11:59:53.03,60,-305,-2030,-7,12,14,-388,-759,371,573
,239,2023-10-27 11:59:53.04,58,-313,-2038,-6,11,16,-285,-636,351,460
,240,2023-10-27 11:59:53.05,53,-310,-2038,0,16,17,-392,-764,372,578
,241,2023-10-27 11:59:53.06,56,-306,-2040,0,10,14,-284,-633,349,458
,242,2023-10-27 11:59:53.07,47,-306,-2040,0,8,14,-391,-763,372,577
,243,2023-10-27 11:59:53.08,56,-299,-2038,-2,12,12,-282,-631,349,456
,244,2023-10-27 11:59:53.09,62,-309,-2036,-2,15,11,-392,-765,373,578
,245,2023-10-27 11:59:53.10,62,-308,-2040,-2,17,11,-286,-630,344,458
,246,2023-10-27 11:59:53.11,73,-307,-2035,-3,16,7,-398,-770,372,584
,247,2023-10-27 11:59:53.12,53,-310,-2037,0,11,7,-287,-631,344,459
,248,2023-10-27 11:59:53.13,58,-310,-2037,2,7,7,-394,-767,373,580
,249,2023-10-27 11:59:53.14,57,-321,-2038,6,6,11,-285,-627,342,456
,250,2023-10-27 11:59:53.15,62,-315,-2036,10,9,14,-393,-767,374,580
,251,2023-10-27 11:59:53.16,56,-314,-2031,8,10,15,-289,-626,337,457
,252,2023-10-27 11:59:53.17,66,-313,-2034,8,13,16,-395,-768,373,581
,253,2023-10-27 11:59:53.18,66,-316,-2034,6,15,18,-284,-627,343,455
,254,2023-10-27 11:59:53.19,72,-312,-2038,3,13,18,-392,-769,377,580
,255,2023-10-27 11:59:53.20,57,-310,-2043,5,12,19,-283,-625,342,454
,256,2023-10-27 11:59:53.21,68,-314,-2041,3,12,19,-395,-770,375,582
,257,2023-10-27 11:59:53.22,58,-310,-2042,4,7,20,-284,-627,343,455
,258,2023-10-27 11:59:53.23,63,-312,-2038,5,5,18,-392,-770,378,581
,259,2023-10-27 11:59:53.24,64,-308,-2033,6,2,18,-282,-624,342,453
,260,2023-10-27 11:59:53.25,60,-312,-2031,6,2,16,-397,-771,374,584
,261,2023-10-27 11:59:53.26,60,-310,-2033,5,6,19,-284,-623,339,453
,262,2023-10-27 11:59:53.27,58,-307,-2037,1,12,17,-395,-770,375,582
,263,2023-10-27 11:59:53.28,61,-311,-2032,-1,12,16,-282,-621,339,451
,264,2023-10-27 11:59:53.29,63,-305,-2031,0,16,14,-393,-772,379,582
,265,2023-10-27 11:59:53.30,68,-303,-2035,1,14,11,-284,-622,338,453
,266,2023-10-27 11:59:53.31,75,-302,-2037,-2,14,9,-398,-775,377,586
,267,2023-10-27 11:59:53.32,64,-306,-2033,2,4,10,-285,-624,339,454
,268,2023-10-27 11:59:53.33,69,-310,-2035,6,1,11,-395,-774,379,584
,269,2023-10-27 11:59:53.34,66,-310,-2044,8,1,12,-282,-622,340,452
,270,2023-10-27 11:59:53.35,68,-317,-2033,8,0,17,-394,-773,379,583
,271,2023-10-27 11:59:53.36,75,-315,-2034,10,-1,17,-286,-623,337,454
,272,2023-10-27 11:59:53.37,58,-310,-2038,9,8,16,-395,-774,379,584
,273,2023-10-27 11:59:53.38,62,-314,-2040,6,9,21,-284,-624,340,454
,274,2023-10-27 11:59:53.39,53,-310,-2037,2,8,20,-391,-774,383,582
,275,2023-10-27 11:59:53.40,65,-309,-2037,0,10,17,-287,-624,337,455
,276,2023-10-27 11:59:53.41,68,-311,-2035,5,9,20,-396,-775,379,585
,277,2023-10-27 11:59:53.42,68,-306,-2036,3,8,21,-289,-627,338,458
,278,2023-10-27 11:59:53.43,73,-312,-2031,5,5,16,-395,-776,381,585
,279,2023-10-27 11:59:53.44,56,-315,-2038,9,4,17,-288,-626,338,457
,280,2023-10-27 11:59:53.45,58,-314,-2033,8,3,14,-394,-774,380,584
,281,2023-10-27 11:59:53.46,67,-302,-2032,9,3,15,-287,-624,337,455
,282,2023-10-27 11:59:53.47,66,-306,-2032,7,4,12,-394,-772,378,583
,283,2023-10-27 11:59:53.48,74,-308,-2034,6,6,12,-290,-625,335,457
,284,2023-10-27 11:59:53.49,55,-303,-2042,6,14,12,-395,-774,379,584
,285,2023-10-27 11:59:53.50,64,-305,-2041,3,6,10,-294,-632,338,463
,286,2023-10-27 11:59:53.51,65,-313,-2040,4,2,14,-396,-774,378,585
,287,2023-10-27 11:59:53.52,55,-311,-2037,6,-1,12,-291,-631,340,461
,288,2023-10-27 11:59:53.53,60,-306,-2031,7,-3,13,-391,-772,381,581
,289,2023-10-27 11:59:53.54,58,-298,-2027,6,-2,13,-290,-630,340,460
,290,2023-10-27 11:59:53.55,63,-299,-2025,5,0,15,-394,-772,378,583
,291,2023-10-27 11:59:53.56,59,-300,-2028,4,7,16,-297,-633,336,465
,292,2023-10-27 11:59:53.57,64,-303,-2028,3,10,15,-400,-775,375,587
,293,2023-10-27 11:59:53.58,60,-305,-2030,1,9,13,-298,-635,337,466
,294,2023-10-27 11:59:53.59,67,-307,-2038,3,11,14,-389,-770,381,579
,295,2023-10-27 11:59:53.60,61,-308,-2032,1,8,13,-289,-631,342,460
,296,2023-10-27 11:59:53.61,70,-311,-2037,0,10,15,-390,-768,378,579
,297,2023-10-27 11:59:53.62,69,-311,-2040,1,9,16,-298,-634,336,466
,298,2023-10-27 11:59:53.63,67,-311,-2036,5,8,16,-389,-770,381,579
,299,2023-10-27 11:59:53.64,75,-307,-2031,4,8,20,-298,-636,338,467
,300,2023-10-27 11:59:53.65,57,-303,-2039,9,9,17,-387,-768,381,577
,301,2023-10-27 11:59:53.66,68,-308,-2034,13,8,15,-300,-640,340,470
,302,2023-10-27 11:59:53.67,71,-302,-2035,12,10,15,-385,-767,382,576
,303,2023-10-27 11:59:53.68,67,-307,-2039,14,13,12,-304,-640,336,472
,304,2023-10-27 11:59:53.69,71,-306,-2039,13,13,11,-382,-764,382,573
,305,2023-10-27 11:59:53.70,78,-312,-2042,10,13,11,-299,-642,343,470
,306,2023-10-27 11:59:53.71,70,-312,-2041,9,12,12,-376,-760,384,568
,307,2023-10-27 11:59:53.72,62,-316,-2038,6,8,14,-310,-647,337,478
,308,2023-10-27 11:59:53.73,68,-313,-2032,5,5,14,-390,-767,377,578
,309,2023-10-27 11:59:53.74,70,-313,-2032,7,5,15,-322,-655,333,488
,310,2023-10-27 11:59:53.75,78,-309,-2033,4,8,14,-390,-767,377,578
,311,2023-10-27 11:59:53.76,79,-307,-2035,-1,8,16,-317,-654,337,485
,312,2023-10-27 11:59:53.77,74,-310,-2040,-2,7,13,-381,-763,382,572
,313,2023-10-27 11:59:53.78,72,-312,-2040,0,4,13,-320,-659,339,489
,314,2023-10-27 11:59:53.79,64,-310,-2038,0,3,15,-379,-763,384,571
,315,2023-10-27 11:59:53.80,68,-311,-2042,0,-6,14,-319,-658,339,488
,316,2023-10-27 11:59:53.81,63,-310,-2037,-2,-3,17,-376,-757,381,566
,317,2023-10-27 11:59:53.82,57,-305,-2040,0,-8,17,-315,-656,341,485
,318,2023-10-27 11:59:53.83,64,-307,-2039,0,-8,19,-361,-746,385,553
,319,2023-10-27 11:59:53.84,70,-302,-2033,2,-9,19,-304,-646,342,475
,320,2023-10-27 11:59:53.85,60,-304,-2031,-1,-6,18,-354,-739,385,546
,321,2023-10-27 11:59:53.86,66,-313,-2029,-1,-5,19,-308,-651,343,479
,322,2023-10-27 11:59:53.87,62,-307,-2037,-3,-3,17,-356,-741,385,548
,323,2023-10-27 11:59:53.88,63,-308,-2035,1,-1,20,-314,-658,344,486
,324,2023-10-27 11:59:53.89,57,-303,-2036,0,-3,19,-356,-741,385,548
,325,2023-10-27 11:59:53.90,64,-300,-2033,0,5,23,-315,-660,345,487
,326,2023-10-27 11:59:53.91,57,-299,-2030,1,8,20,-356,-739,383,547
,327,2023-10-27 11:59:53.92,60,-299,-2034,2,19,21,-318,-665,347,491
,328,2023-10-27 11:59:53.93,64,-290,-2040,2,17,17,-355,-737,382,546
,329,2023-10-27 11:59:53.94,51,-294,-2038,2,10,11,-320,-664,344,492
,330,2023-10-27 11:59:53.95,69,-296,-2040,5,8,10,-350,-731,381,540
,331,2023-10-27 11:59:53.96,59,-301,-2036,6,6,8,-326,-668,342,497
,332,2023-10-27 11:59:53.97,74,-306,-2037,7,2,8,-356,-733,377,544
,333,2023-10-27 11:59:53.98,66,-308,-2039,8,0,5,-338,-677,339,507
,334,2023-10-27 11:59:53.99,63,-310,-2037,11,6,6,-352,-730,378,541
,335,2023-10-27 11:59:54.00,69,-304,-2035,13,8,9,-332,-675,343,503
,336,2023-10-27 11:59:54.01,65,-309,-2034,11,8,9,-351,-727,376,539
,337,2023-10-27 11:59:54.02,68,-311,-2034,11,9,13,-336,-681,345,508
,338,2023-10-27 11:59:54.03,68,-309,-2043,10,7,16,-350,-729,379,539
,339,2023-10-27 11:59:54.04,75,-306,-2045,8,4,17,-339,-684,345,511
,340,2023-10-27 11:59:54.05,67,-312,-2042,5,2,20,-350,-725,375,537
,341,2023-10-27 11:59:54.06,69,-308,-2043,7,1,26,-342,-684,342,513
,342,2023-10-27 11:59:54.07,67,-301,-2042,6,0,28,-346,-719,373,532
,343,2023-10-27 11:59:54.08,64,-305,-2036,3,2,27,-344,-686,342,515
,344,2023-10-27 11:59:54.09,57,-304,-2027,4,1,24,-348,-720,372,534
,345,2023-10-27 11:59:54.10,63,-297,-2034,2,8,22,-349,-691,342,520
,346,2023-10-27 11:59:54.11,72,-295,-2035,1,8,19,-344,-714,370,529
,347,2023-10-27 11:59:54.12,59,-302,-2036,-1,6,15,-346,-690,344,518
,348,2023-10-27 11:59:54.13,76,-303,-2035,4,5,15,-342,-713,371,527
,349,2023-10-27 11:59:54.14,67,-304,-2039,5,-4,15,-355,-697,342,526
,350,2023-10-27 11:59:54.15,67,-305,-2040,7,-5,13,-344,-712,368,528
,351,2023-10-27 11:59:54.16,70,-306,-2041,6,-2,16,-356,-697,341,526
,352,2023-10-27 11:59:54.17,69,-301,-2035,4,0,14,-341,-705,364,523
,353,2023-10-27 11:59:54.18,69,-308,-2029,3,6,15,-355,-698,343,526
,354,2023-10-27 11:59:54.19,64,-306,-2040,0,8,13,-338,-704,366,521
,355,2023-10-27 11:59:54.20,75,-312,-2040,1,5,14,-356,-703,347,529
,356,2023-10-27 11:59:54.21,63,-309,-2032,3,7,17,-332,-704,372,518
,357,2023-10-27 11:59:54.22,69,-300,-2041,4,1,16,-356,-704,348,530
,358,2023-10-27 11:59:54.23,56,-308,-2039,6,-5,16,-330,-697,367,513
,359,2023-10-27 11:59:54.24,65,-296,-2040,5,-4,20,-358,-706,348,532
,360,2023-10-27 11:59:54.25,67,-299,-2032,5,-8,21,-331,-692,361,511
,361,2023-10-27 11:59:54.26,60,-294,-2043,4,-4,22,-366,-710,344,538
,362,2023-10-27 11:59:54.27,57,-299,-2040,3,-2,22,-336,-694,358,515
,363,2023-10-27 11:59:54.28,66,-299,-2031,3,-1,23,-378,-712,334,545
,364,2023-10-27 11:59:54.29,65,-305,-2033,7,0,22,-344,-686,342,515
,365,2023-10-27 11:59:54.30,60,-296,-2034,8,-1,20,-383,-709,326,546
,366,2023-10-27 11:59:54.31,60,-302,-2038,8,0,20,-338,-679,341,508
,367,2023-10-27 11:59:54.32,56,-307,-2036,10,-5,25,-379,-713,334,546
,368,2023-10-27 11:59:54.33,70,-302,-2027,14,-4,20,-329,-681,352,505
,369,2023-10-27 11:59:54.34,66,-301,-2032,12,0,24,-376,-717,341,546
,370,2023-10-27 11:59:54.35,61,-295,-2034,11,0,20,-326,-677,351,501
,371,2023-10-27 11:59:54.36,59,-297,-2040,8,9,17,-372,-720,348,546
,372,2023-10-27 11:59:54.37,66,-296,-2047,8,10,13,-320,-675,355,497
,373,2023-10-27 11:59:54.38,58,-300,-2041,5,6,13,-374,-719,345,546
,374,2023-10-27 11:59:54.39,64,-301,-2041,8,4,14,-328,-674,346,501
,375,2023-10-27 11:59:54.40,62,-298,-2038,10,1,15,-374,-720,346,547
,376,2023-10-27 11:59:54.41,50,-299,-2033,10,-3,12,-312,-665,353,488
,377,2023-10-27 11:59:54.42,71,-298,-2026,7,0,12,-369,-722,353,545
,378,2023-10-27 11:59:54.43,72,-298,-2027,5,3,14,-310,-663,353,486
,379,2023-10-27 11:59:54.44,68,-302,-2031,4,5,15,-377,-727,350,552
,380,2023-10-27 11:59:54.45,46,-296,-2037,-3,8,15,-315,-666,351,490
,381,2023-10-27 11:59:54.46,56,-299,-2037,-3,10,14,-380,-731,351,555
,382,2023-10-27 11:59:54.47,61,-302,-2040,-2,8,16,-309,-663,354,486
,383,2023-10-27 11:59:54.48,65,-300,-2045,1,7,17,-382,-739,357,560
,384,2023-10-27 11:59:54.49,73,-309,-2042,3,6,19,-307,-661,354,484
,385,2023-10-27 11:59:54.50,66,-300,-2037,4,9,21,-381,-736,355,558
,386,2023-10-27 11:59:54.51,49,-298,-2032,3,13,21,-304,-657,353,480
,387,2023-10-27 11:59:54.52,67,-299,-2032,3,15,19,-380,-738,358,559
,388,2023-10-27 11:59:54.53,71,-295,-2029,3,21,16,-301,-654,353,477
,389,2023-10-27 11:59:54.54,69,-293,-2033,5,18,12,-380,-741,361,560
,390,2023-10-27 11:59:54.55,72,-290,-2039,4,20,7,-297,-652,355,474
,391,2023-10-27 11:59:54.56,65,-294,-2041,7,15,3,-382,-741,359,561
,392,2023-10-27 11:59:54.57,77,-303,-2042,10,12,-1,-297,-648,351,472
,393,2023-10-27 11:59:54.58,73,-304,-2032,10,6,-1,-382,-742,360,562
,394,2023-10-27 11:59:54.59,67,-310,-2040,12,-3,1,-296,-648,352,472
,395,2023-10-27 11:59:54.60,73,-309,-2034,12,-5,4,-385,-746,361,565
,396,2023-10-27 11:59:54.61,76,-304,-2034,11,-2,5,-295,-645,350,470
,397,2023-10-27 11:59:54.62,69,-304,-2033,8,2,8,-383,-747,364,565
,398,2023-10-27 11:59:54.63,73,-310,-2038,5,-3,9,-290,-642,352,466
,399,2023-10-27 11:59:54.64,70,-305,-2041,4,-3,8,-383,-751,368,567
,400,2023-10-27 11:59:54.65,72,-305,-2043,2,-5,12,-292,-645,353,468
,401,2023-10-27 11:59:54.66,67,-304,-2047,0,-8,15,-388,-754,366,571
,402,2023-10-27 11:59:54.67,70,-299,-2041,-1,-13,16,-290,-643,353,466
,403,2023-10-27 11:59:54.68,73,-296,-2039,4,-15,18,-384,-761,377,572
,404,2023-10-27 11:59:54.69,61,-298,-2035,5,-16,19,-285,-650,365,467
,405,2023-10-27 11:59:54.70,69,-308,-2038,5,-15,20,-381,-767,386,574
,406,2023-10-27 11:59:54.71,65,-296,-2041,8,-15,18,-284,-648,364,466
,407,2023-10-27 11:59:54.72,63,-292,-2038,7,-8,20,-388,-766,378,577
,408,2023-10-27 11:59:54.73,63,-293,-2035,-2,6,15,-284,-640,356,462
,409,2023-10-27 11:59:54.74,55,-295,-2034,-1,2,15,-384,-762,378,573
,410,2023-10-27 11:59:54.75,59,-303,-2036,5,-5,15,-280,-637,357,458
,411,2023-10-27 11:59:54.76,52,-294,-2029,7,-10,16,-385,-764,379,574
,412,2023-10-27 11:59:54.77,60,-293,-2038,7,-1,18,-279,-635,356,457
,413,2023-10-27 11:59:54.78,65,-292,-2043,5,7,20,-390,-767,377,578
,414,2023-10-27 11:59:54.79,64,-300,-2038,-3,18,19,-284,-636,352,460
,415,2023-10-27 11:59:54.80,56,-305,-2027,3,9,18,-398,-769,371,583
,416,2023-10-27 11:59:54.81,66,-304,-2036,14,3,19,-284,-634,350,459
,417,2023-10-27 11:59:54.82,51,-295,-2040,12,1,16,-393,-769,376,581
,418,2023-10-27 11:59:54.83,58,-300,-2040,13,0,14,-280,-633,353,456
,419,2023-10-27 11:59:54.84,57,-303,-2037,19,-3,13,-393,-768,375,580
,420,2023-10-27 11:59:54.85,61,-292,-2045,21,-4,10,-281,-628,347,454
,421,2023-10-27 11:59:54.86,68,-296,-2044,16,-5,9,-393,-770,377,581
,422,2023-10-27 11:59:54.87,63,-295,-2041,10,1,8,-280,-631,351,455
,423,2023-10-27 11:59:54.88,62,-304,-2035,5,3,6,-394,-772,378,583
,424,2023-10-27 11:59:54.89,69,-310,-2035,6,-3,5,-278,-628,350,453
,425,2023-10-27 11:59:54.90,60,-305,-2028,12,-10,10,-374,-762,388,568
,426,2023-10-27 11:59:54.91,48,-303,-2036,3,-2,13,-259,-617,358,438
,427,2023-10-27 11:59:54.92,71,-311,-2029,-8,6,12,-369,-759,390,564
,428,2023-10-27 11:59:54.93,61,-311,-2031,-8,4,16,-262,-619,357,440
,429,2023-10-27 11:59:54.94,72,-308,-2026,-5,-2,18,-374,-758,384,566
,430,2023-10-27 11:59:54.95,69,-302,-2030,2,-1,19,-268,-613,345,440
,431,2023-10-27 11:59:54.96,56,-300,-2036,0,1,18,-336,-754,418,545
,432,2023-10-27 11:59:54.97,65,-295,-2033,0,11,18,-190,-602,412,396
,433,2023-10-27 11:59:54.98,63,-302,-2040,-2,3,15,-216,-731,515,473
,434,2023-10-27 11:59:54.99,57,-292,-2034,-2,3,11,-86,-575,489,330
,435,2023-10-27 11:59:55.00,72,-294,-2038,0,-4,9,-123,-705,582,414
,436,2023-10-27 11:59:55.01,58,-295,-2038,3,-11,7,-14,-554,540,284
,437,2023-10-27 11:59:55.02,65,-292,-2031,0,-9,5,-47,-683,636,365
,438,2023-10-27 11:59:55.03,53,-295,-2040,-1,-8,6,50,-530,580,240
,439,2023-10-27 11:59:55.04,65,-296,-2035,-3,-1,6,13,-659,672,323
,440,2023-10-27 11:59:55.05,67,-294,-2043,-13,4,3,91,-512,603,210
,441,2023-10-27 11:59:55.06,66,-296,-2036,-14,6,2,59,-644,703,292
,442,2023-10-27 11:59:55.07,63,-303,-2029,-11,-3,2,134,-499,633,182
,443,2023-10-27 11:59:55.08,64,-291,-2042,-4,-12,4,93,-632,725,269
,444,2023-10-27 11:59:55.09,64,-297,-2041,-4,-10,3,155,-492,647,168
,445,2023-10-27 11:59:55.10,70,-290,-2035,-7,-3,1,117,-626,743,254
,446,2023-10-27 11:59:55.11,62,-287,-2038,-7,5,6,174,-482,656,154
,447,2023-10-27 11:59:55.12,68,-295,-2044,-9,4,5,121,-621,742,250
,448,2023-10-27 11:59:55.13,67,-290,-2041,-3,-5,3,172,-481,653,154
,449,2023-10-27 11:59:55.14,64,-291,-2038,0,2,8,120,-624,744,252
,450,2023-10-27 11:59:55.15,65,-302,-2036,0,6,7,174,-484,658,155
,451,2023-10-27 11:59:55.16,74,-300,-2034,7,6,10,109,-626,735,258
,452,2023-10-27 11:59:55.17,71,-293,-2037,16,6,10,144,-487,631,171
,453,2023-10-27 11:59:55.18,54,-297,-2030,16,6,11,59,-632,691,286
,454,2023-10-27 11:59:55.19,52,-292,-2039,13,12,12,87,-501,588,207
,455,2023-10-27 11:59:55.20,60,-298,-2040,15,9,14,-4,-650,646,327
,456,2023-10-27 11:59:55.21,60,-298,-2037,20,-4,15,32,-518,550,243
,457,2023-10-27 11:59:55.22,61,-294,-2034,18,-7,15,-45,-659,614,352
,458,2023-10-27 11:59:55.23,50,-286,-2032,11,-8,16,10,-522,532,256
,459,2023-10-27 11:59:55.24,63,-287,-2036,2,3,12,-73,-663,590,368
,460,2023-10-27 11:59:55.25,55,-292,-2043,-6,3,11,-19,-529,510,274
,461,2023-10-27 11:59:55.26,67,-284,-2043,-6,5,9,-113,-678,565,395
,462,2023-10-27 11:59:55.27,67,-283,-2039,-3,3,10,-58,-546,488,302
,463,2023-10-27 11:59:55.28,63,-289,-2036,-2,2,10,-148,-688,540,418
,464,2023-10-27 11:59:55.29,64,-291,-2041,-2,3,7,-87,-553,466,320
,465,2023-10-27 11:59:55.30,56,-290,-2039,2,3,6,-175,-693,518,434
,466,2023-10-27 11:59:55.31,55,-286,-2038,4,-2,5,-110,-561,451,335
,467,2023-10-27 11:59:55.32,62,-291,-2041,8,-7,7,-199,-702,503,450
,468,2023-10-27 11:59:55.33,60,-290,-2046,9,-8,10,-130,-571,441,350
,469,2023-10-27 11:59:55.34,70,-299,-2042,8,-10,11,-215,-706,491,460
,470,2023-10-27 11:59:55.35,54,-292,-2038,3,3,13,-147,-576,429,361
,471,2023-10-27 11:59:55.36,55,-295,-2041,-1,2,13,-230,-711,481,470
,472,2023-10-27 11:59:55.37,52,-301,-2044,4,1,15,-161,-581,420,371
,473,2023-10-27 11:59:55.38,57,-300,-2039,11,-7,18,-241,-711,470,476
,474,2023-10-27 11:59:55.39,58,-291,-2032,13,-9,18,-172,-583,411,377
,475,2023-10-27 11:59:55.40,59,-293,-2043,13,-5,20,-250,-713,463,481
,476,2023-10-27 11:59:55.41,63,-294,-2034,15,6,21,-186,-590,404,388
,477,2023-10-27 11:59:55.42,58,-292,-2036,15,8,19,-262,-719,457,490
,478,2023-10-27 11:59:55.43,62,-290,-2037,17,7,16,-196,-595,399,395
,479,2023-10-27 11:59:55.44,58,-293,-2035,20,0,12,-271,-719,448,495
,480,2023-10-27 11:59:55.45,60,-300,-2034,21,-7,10,-206,-600,394,403
,481,2023-10-27 11:59:55.46,69,-306,-2034,25,2,15,-276,-717,441,496
,482,2023-10-27 11:59:55.47,64,-297,-2035,20,8,11,-208,-601,393,404
,483,2023-10-27 11:59:55.48,64,-305,-2023,17,6,13,-273,-719,446,496
,484,2023-10-27 11:59:55.49,55,-309,-2026,24,0,13,-217,-608,391,412
,485,2023-10-27 11:59:55.50,53,-308,-2039,27,-5,11,-287,-722,435,504
,486,2023-10-27 11:59:55.51,67,-303,-2051,15,4,12,-232,-615,383,423
,487,2023-10-27 11:59:55.52,56,-309,-2048,3,11,11,-296,-725,429,510
,488,2023-10-27 11:59:55.53,61,-310,-2053,5,5,10,-241,-621,380,431
,489,2023-10-27 11:59:55.54,54,-305,-2051,4,-4,11,-301,-727,426,514
,490,2023-10-27 11:59:55.55,56,-298,-2046,3,-8,13,-249,-625,376,437
,491,2023-10-27 11:59:55.56,72,-296,-2039,-2,-10,9,-308,-725,417,516
,492,2023-10-27 11:59:55.57,58,-295,-2032,-8,-5,8,-256,-627,371,441
,493,2023-10-27 11:59:55.58,58,-294,-2029,-8,-10,5,-310,-723,413,516
,494,2023-10-27 11:59:55.59,64,-298,-2036,-9,-8,6,-255,-628,373,441
,495,2023-10-27 11:59:55.60,53,-301,-2036,-9,-8,5,-308,-725,417,516
,496,2023-10-27 11:59:55.61,49,-298,-2034,-15,-2,2,-266,-636,370,451
,497,2023-10-27 11:59:55.62,50,-291,-2033,-19,5,4,-325,-731,406,528
,498,2023-10-27 11:59:55.63,43,-293,-2033,-22,12,8,-276,-642,366,459
,499,2023-10-27 11:59:55.64,50,-293,-2034,-21,6,10,-315,-722,407,518
,500,2023-10-27 11:59:55.65,59,-282,-2039,-21,18,11,-279,-643,364,461
,501,2023-10-27 11:59:55.66,49,-279,-2028,-25,26,10,-312,-724,412,518
,502,2023-10-27 11:59:55.67,53,-283,-2037,-27,29,9,-283,-651,368,467
,503,2023-10-27 11:59:55.68,73,-278,-2042,-24,31,8,-322,-726,404,524
,504,2023-10-27 11:59:55.69,65,-277,-2043,-21,30,5,-287,-653,366,470
,505,2023-10-27 11:59:55.70,64,-278,-2038,-23,34,5,-310,-718,408,514
,506,2023-10-27 11:59:55.71,61,-281,-2046,-19,27,-1,-281,-650,369,465
,507,2023-10-27 11:59:55.72,67,-274,-2044,-16,28,-3,-312,-716,404,514
,508,2023-10-27 11:59:55.73,57,-283,-2042,-9,19,-5,-292,-658,366,475
,509,2023-10-27 11:59:55.74,55,-282,-2041,2,15,-4,-317,-717,400,517
,510,2023-10-27 11:59:55.75,65,-281,-2035,6,9,-6,-295,-661,366,478
,511,2023-10-27 11:59:55.76,55,-290,-2038,11,1,-2,-313,-714,401,513
,512,2023-10-27 11:59:55.77,78,-295,-2045,12,-1,1,-295,-663,368,479
,513,2023-10-27 11:59:55.78,67,-298,-2042,15,-1,4,-312,-711,399,511
,514,2023-10-27 11:59:55.79,68,-292,-2039,13,-1,9,-300,-666,366,483
,515,2023-10-27 11:59:55.80,59,-295,-2039,9,4,15,-312,-707,395,509
,516,2023-10-27 11:59:55.81,81,-296,-2038,5,5,20,-300,-668,368,484
,517,2023-10-27 11:59:55.82,65,-292,-2044,1,7,24,-309,-704,395,506
,518,2023-10-27 11:59:55.83,64,-288,-2036,1,4,26,-303,-672,369,487
,519,2023-10-27 11:59:55.84,69,-286,-2036,0,2,28,-306,-702,396,504
,520,2023-10-27 11:59:55.85,77,-287,-2048,0,3,32,-305,-674,369,489
,521,2023-10-27 11:59:55.86,76,-286,-2043,0,-2,32,-307,-700,393,503
,522,2023-10-27 11:59:55.87,64,-291,-2040,2,-4,32,-309,-677,368,493
,523,2023-10-27 11:59:55.88,59,-290,-2036,5,-6,32,-306,-698,392,502
,524,2023-10-27 11:59:55.89,64,-285,-2043,8,-9,32,-312,-682,370,497
,525,2023-10-27 11:59:55.90,56,-282,-2042,9,-12,27,-302,-694,392,498
,526,2023-10-27 11:59:55.91,71,-280,-2036,10,-10,27,-313,-684,371,498
,527,2023-10-27 11:59:55.92,64,-278,-2034,9,-5,26,-299,-693,394,496
,528,2023-10-27 11:59:55.93,65,-278,-2033,9,1,21,-310,-684,374,497
,529,2023-10-27 11:59:55.94,59,-278,-2028,9,6,19,-294,-685,391,489
,530,2023-10-27 11:59:55.95,57,-288,-2038,9,5,14,-310,-685,375,497
,531,2023-10-27 11:59:55.96,64,-282,-2037,8,7,11,-289,-683,394,486
,532,2023-10-27 11:59:55.97,56,-282,-2044,7,4,11,-306,-688,382,497
,533,2023-10-27 11:59:55.98,62,-292,-2045,8,5,11,-282,-676,394,479
,534,2023-10-27 11:59:55.99,59,-287,-2042,8,3,11,-303,-685,382,494
,535,2023-10-27 11:59:56.00,69,-296,-2040,6,5,12,-272,-668,396,470
,536,2023-10-27 11:59:56.01,62,-290,-2042,8,8,18,-308,-689,381,498
,537,2023-10-27 11:59:56.02,66,-294,-2044,8,0,18,-277,-670,393,473
,538,2023-10-27 11:59:56.03,57,-301,-2040,10,-8,21,-319,-700,381,509
,539,2023-10-27 11:59:56.04,58,-299,-2049,9,-15,25,-274,-668,394,471
,540,2023-10-27 11:59:56.05,62,-300,-2043,10,-19,30,-311,-697,386,504
,541,2023-10-27 11:59:56.06,64,-294,-2037,8,-24,36,-279,-666,387,472
,542,2023-10-27 11:59:56.07,56,-283,-2033,7,-23,36,-319,-699,380,509
,543,2023-10-27 11:59:56.08,51,-285,-2044,5,-20,41,-277,-663,386,470
,544,2023-10-27 11:59:56.09,50,-287,-2040,4,-12,41,-319,-702,383,510
,545,2023-10-27 11:59:56.10,60,-282,-2040,2,-13,40,-275,-662,387,468
,546,2023-10-27 11:59:56.11,59,-284,-2038,5,-15,41,-323,-706,383,514
,547,2023-10-27 11:59:56.12,54,-278,-2033,9,-15,35,-273,-660,387,466
,548,2023-10-27 11:59:56.13,58,-281,-2036,11,-10,34,-324,-707,383,515
,549,2023-10-27 11:59:56.14,50,-279,-2036,17,-10,32,-273,-656,383,464
,550,2023-10-27 11:59:56.15,58,-282,-2024,23,-7,30,-327,-710,383,518
,551,2023-10-27 11:59:56.16,60,-284,-2032,25,-11,24,-271,-654,383,462
,552,2023-10-27 11:59:56.17,42,-290,-2033,26,-13,24,-328,-711,383,519
,553,2023-10-27 11:59:56.18,45,-288,-2036,23,-11,17,-270,-650,380,460
,554,2023-10-27 11:59:56.19,54,-286,-2033,14,-7,15,-330,-713,383,521
,555,2023-10-27 11:59:56.20,61,-292,-2025,10,0,13,-271,-650,379,460
,556,2023-10-27 11:59:56.21,54,-288,-2033,4,7,11,-338,-720,382,529
,557,2023-10-27 11:59:56.22,46,-295,-2039,3,11,6,-273,-647,374,460
,558,2023-10-27 11:59:56.23,53,-287,-2041,4,17,6,-336,-717,381,526
,559,2023-10-27 11:59:56.24,51,-295,-2036,0,10,3,-268,-642,374,455
,560,2023-10-27 11:59:56.25,61,-289,-2049,4,7,1,-334,-717,383,525
,561,2023-10-27 11:59:56.26,57,-290,-2038,4,0,1,-263,-638,375,450
,562,2023-10-27 11:59:56.27,42,-288,-2039,1,2,4,-333,-718,385,525
,563,2023-10-27 11:59:56.28,53,-293,-2038,1,-3,5,-262,-636,374,449
,564,2023-10-27 11:59:56.29,45,-288,-2031,1,2,9,-339,-723,384,531
,565,2023-10-27 11:59:56.30,63,-282,-2034,1,7,10,-266,-638,372,452
,566,2023-10-27 11:59:56.31,65,-285,-2030,-1,15,14,-344,-729,385,536
,567,2023-10-27 11:59:56.32,57,-278,-2035,-7,24,12,-263,-635,372,449
,568,2023-10-27 11:59:56.33,71,-283,-2043,-13,35,12,-339,-729,390,534
,569,2023-10-27 11:59:56.34,66,-284,-2042,-18,41,9,-260,-632,372,446
,570,2023-10-27 11:59:56.35,67,-283,-2054,-20,45,9,-346,-733,387,539
,571,2023-10-27 11:59:56.36,63,-279,-2051,-15,39,9,-264,-635,371,449
,572,2023-10-27 11:59:56.37,66,-280,-2058,-13,23,9,-346,-734,388,540
,573,2023-10-27 11:59:56.38,63,-278,-2048,-7,14,8,-260,-631,371,445
,574,2023-10-27 11:59:56.39,67,-279,-2049,-7,7,12,-344,-737,393,540
,575,2023-10-27 11:59:56.40,66,-279,-2046,-2,-2,13,-254,-630,376,442
,576,2023-10-27 11:59:56.41,60,-277,-2035,0,-6,12,-342,-734,392,538
,577,2023-10-27 11:59:56.42,57,-279,-2027,0,0,20,-260,-626,366,443
,578,2023-10-27 11:59:56.43,65,-278,-2030,-1,3,18,-352,-743,391,547
,579,2023-10-27 11:59:56.44,63,-279,-2030,-2,9,21,-270,-635,365,452
,580,2023-10-27 11:59:56.45,67,-276,-2030,-3,19,21,-353,-744,391,548
,581,2023-10-27 11:59:56.46,69,-279,-2044,-2,19,22,-259,-627,368,443
,582,2023-10-27 11:59:56.47,57,-283,-2046,-2,23,27,-353,-743,390,548
,583,2023-10-27 11:59:56.48,73,-281,-2043,-3,22,29,-257,-621,364,439
,584,2023-10-27 11:59:56.49,62,-286,-2041,1,22,27,-354,-746,392,550
,585,2023-10-27 11:59:56.50,68,-272,-2038,0,23,29,-260,-623,363,441
,586,2023-10-27 11:59:56.51,70,-270,-2034,3,23,26,-350,-748,398,549
,587,2023-10-27 11:59:56.52,71,-272,-2035,5,22,21,-250,-617,367,433
,588,2023-10-27 11:59:56.53,67,-269,-2041,3,21,19,-343,-744,401,543
,589,2023-10-27 11:59:56.54,67,-281,-2045,4,20,15,-246,-615,369,430
,590,2023-10-27 11:59:56.55,68,-285,-2048,5,18,15,-344,-749,405,546
,591,2023-10-27 11:59:56.56,69,-289,-2044,8,10,16,-240,-613,373,426
,592,2023-10-27 11:59:56.57,70,-292,-2045,9,6,16,-328,-745,417,536
,593,2023-10-27 11:59:56.58,63,-290,-2045,7,3,20,-228,-608,380,418
,594,2023-10-27 11:59:56.59,63,-286,-2042,8,1,23,-327,-747,420,537
,595,2023-10-27 11:59:56.60,64,-292,-2039,7,-7,21,-231,-609,378,420
,596,2023-10-27 11:59:56.61,62,-287,-2033,8,-5,26,-329,-747,418,538
,597,2023-10-27 11:59:56.62,51,-289,-2031,11,-7,25,-228,-608,380,418
,598,2023-10-27 11:59:56.63,54,-289,-2032,12,-6,27,-326,-745,419,535
,599,2023-10-27 11:59:56.64,61,-292,-2031,11,-5,28,-224,-603,379,413
,600,2023-10-27 11:59:56.65,48,-286,-2035,10,-2,27,-328,-744,416,536
,601,2023-10-27 11:59:56.66,62,-284,-2037,8,-2,28,-226,-603,377,414
,602,2023-10-27 11:59:56.67,52,-278,-2034,5,3,27,-327,-748,421,537
,603,2023-10-27 11:59:56.68,52,-283,-2039,6,9,28,-226,-601,375,413
,604,2023-10-27 11:59:56.69,60,-281,-2035,4,7,25,-324,-742,418,533
,605,2023-10-27 11:59:56.70,71,-282,-2040,1,12,23,-221,-600,379,410
,606,2023-10-27 11:59:56.71,61,-275,-2038,-2,9,18,-323,-744,421,533
,607,2023-10-27 11:59:56.72,71,-281,-2041,-3,10,17,-222,-600,378,411
,608,2023-10-27 11:59:56.73,61,-277,-2041,-6,7,17,-323,-743,420,533
,609,2023-10-27 11:59:56.74,50,-279,-2034,-3,6,18,-224,-599,375,411
,610,2023-10-27 11:59:56.75,68,-282,-2033,-3,2,17,-326,-745,419,535
,611,2023-10-27 11:59:56.76,55,-279,-2041,0,-4,19,-225,-602,377,413
,612,2023-10-27 11:59:56.77,67,-280,-2045,0,-11,17,-322,-746,424,534
,613,2023-10-27 11:59:56.78,55,-279,-2043,0,-4,23,-223,-602,379,412
,614,2023-10-27 11:59:56.79,66,-283,-2041,1,-2,22,-326,-750,424,538
,615,2023-10-27 11:59:56.80,68,-283,-2036,0,7,27,-228,-605,377,416
,616,2023-10-27 11:59:56.81,68,-278,-2039,0,9,23,-328,-750,422,539
,617,2023-10-27 11:59:56.82,70,-281,-2047,0,10,25,-220,-596,376,408
,618,2023-10-27 11:59:56.83,69,-278,-2043,0,10,23,-328,-747,419,537
,619,2023-10-27 11:59:56.84,56,-280,-2047,3,9,26,-230,-602,372,416
,620,2023-10-27 11:59:56.85,70,-278,-2049,6,-4,24,-341,-760,419,550
,621,2023-10-27 11:59:56.86,72,-272,-2036,13,-8,24,-231,-606,375,418
,622,2023-10-27 11:59:56.87,75,-274,-2029,15,-15,21,-335,-753,418,544
,623,2023-10-27 11:59:56.88,73,-266,-2035,14,-13,16,-232,-607,375,419
,624,2023-10-27 11:59:56.89,71,-270,-2052,16,-18,15,-346,-761,415,553
,625,2023-10-27 11:59:56.90,67,-276,-2050,17,-18,16,-252,-620,368,436
,626,2023-10-27 11:59:56.91,59,-279,-2047,19,-24,14,-360,-768,408,564
,627,2023-10-27 11:59:56.92,59,-281,-2038,19,-27,18,-256,-621,365,438
,628,2023-10-27 11:59:56.93,68,-277,-2039,21,-24,16,-370,-772,402,571
,629,2023-10-27 11:59:56.94,63,-286,-2041,16,-30,19,-282,-638,356,460
,630,2023-10-27 11:59:56.95,58,-279,-2029,18,-25,20,-412,-804,392,608
,631,2023-10-27 11:59:56.96,54,-276,-2029,16,-18,22,-333,-677,344,505
,632,2023-10-27 11:59:56.97,49,-274,-2033,10,-8,20,-443,-827,384,635
,633,2023-10-27 11:59:56.98,47,-272,-2038,4,3,21,-330,-678,348,504
,634,2023-10-27 11:59:56.99,42,-275,-2042,1,12,19,-418,-807,389,612
,635,2023-10-27 11:59:57.00,45,-283,-2044,-4,13,19,-303,-654,351,478
,636,2023-10-27 11:59:57.01,46,-277,-2041,-6,17,21,-382,-778,396,580
,637,2023-10-27 11:59:57.02,48,-287,-2042,-8,19,21,-271,-626,355,448
,638,2023-10-27 11:59:57.03,48,-284,-2042,-6,23,21,-346,-752,406,549
,639,2023-10-27 11:59:57.04,44,-271,-2048,-8,29,23,-248,-609,361,428
,640,2023-10-27 11:59:57.05,55,-270,-2038,-7,31,22,-327,-737,410,532
,641,2023-10-27 11:59:57.06,54,-262,-2034,-8,39,15,-236,-597,361,416
,642,2023-10-27 11:59:57.07,58,-256,-2038,-9,39,9,-316,-727,411,521
,643,2023-10-27 11:59:57.08,60,-262,-2040,-4,35,1,-235,-595,360,415
,644,2023-10-27 11:59:57.09,62,-272,-2045,-2,29,-2,-313,-724,411,518
,645,2023-10-27 11:59:57.10,69,-282,-2044,3,22,-1,-229,-594,365,411
,646,2023-10-27 11:59:57.11,66,-286,-2051,9,14,-1,-308,-721,413,514
,647,2023-10-27 11:59:57.12,61,-287,-2039,9,7,3,-232,-595,363,413
,648,2023-10-27 11:59:57.13,61,-281,-2038,9,9,6,-311,-722,411,516
,649,2023-10-27 11:59:57.14,62,-281,-2035,8,8,7,-234,-600,366,417
,650,2023-10-27 11:59:57.15,69,-278,-2045,1,19,11,-309,-721,412,515
,651,2023-10-27 11:59:57.16,72,-277,-2046,-4,25,13,-240,-602,362,421
,652,2023-10-27 11:59:57.17,83,-280,-2039,-9,20,16,-315,-725,410,520
,653,2023-10-27 11:59:57.18,75,-274,-2043,-10,21,17,-247,-609,362,428
,654,2023-10-27 11:59:57.19,74,-281,-2046,-12,20,20,-313,-726,413,519
,655,2023-10-27 11:59:57.20,69,-284,-2046,-9,15,22,-242,-613,371,427
,656,2023-10-27 11:59:57.21,73,-276,-2050,-5,9,25,-306,-725,419,515
,657,2023-10-27 11:59:57.22,68,-274,-2051,-2,-1,26,-243,-612,369,427
,658,2023-10-27 11:59:57.23,62,-272,-2039,3,-3,31,-297,-714,417,505
,659,2023-10-27 11:59:57.24,66,-271,-2038,2,-15,26,-245,-614,369,429
,660,2023-10-27 11:59:57.25,59,-269,-2035,5,-17,26,-306,-721,415,513
,661,2023-10-27 11:59:57.26,69,-267,-2038,6,-13,27,-252,-625,373,438
,662,2023-10-27 11:59:57.27,67,-278,-2039,7,-11,31,-297,-716,419,506
,663,2023-10-27 11:59:57.28,44,-275,-2044,7,-15,28,-239,-615,376,427
,664,2023-10-27 11:59:57.29,63,-267,-2042,10,-17,31,-298,-715,417,506
,665,2023-10-27 11:59:57.30,58,-275,-2039,7,-13,32,-249,-619,370,434
,666,2023-10-27 11:59:57.31,52,-276,-2032,6,-7,34,-307,-718,411,512
,667,2023-10-27 11:59:57.32,42,-269,-2036,7,-2,33,-265,-634,369,449
,668,2023-10-27 11:59:57.33,49,-271,-2041,5,2,31,-319,-727,408,523
,669,2023-10-27 11:59:57.34,59,-266,-2043,3,8,30,-275,-642,367,458
,670,2023-10-27 11:59:57.35,56,-267,-2040,3,9,21,-320,-728,408,524
,671,2023-10-27 11:59:57.36,62,-266,-2039,8,7,13,-274,-643,369,458
,672,2023-10-27 11:59:57.37,58,-269,-2042,10,12,12,-317,-723,406,520
,673,2023-10-27 11:59:57.38,62,-272,-2039,14,14,8,-272,-643,371,457
,674,2023-10-27 11:59:57.39,59,-277,-2042,20,16,8,-309,-718,409,513
,675,2023-10-27 11:59:57.40,53,-279,-2038,23,15,4,-274,-645,371,459
,676,2023-10-27 11:59:57.41,53,-278,-2041,26,10,10,-306,-715,409,510
,677,2023-10-27 11:59:57.42,47,-283,-2041,26,6,8,-268,-645,377,456
,678,2023-10-27 11:59:57.43,59,-279,-2037,25,6,11,-297,-708,411,502
,679,2023-10-27 11:59:57.44,59,-280,-2038,26,3,15,-268,-645,377,456
,680,2023-10-27 11:59:57.45,50,-289,-2038,20,3,18,-298,-707,409,502
,681,2023-10-27 11:59:57.46,61,-279,-2036,16,8,21,-274,-648,374,461
,682,2023-10-27 11:59:57.47,52,-274,-2036,14,9,22,-294,-703,409,498
,683,2023-10-27 11:59:57.48,54,-273,-2033,8,12,20,-270,-651,381,460
,684,2023-10-27 11:59:57.49,60,-270,-2035,4,15,18,-288,-700,412,494
,685,2023-10-27 11:59:57.50,50,-272,-2043,-2,16,18,-270,-649,379,459
,686,2023-10-27 11:59:57.51,62,-273,-2042,-5,15,16,-287,-696,409,491
,687,2023-10-27 11:59:57.52,59,-264,-2042,-6,13,10,-274,-652,378,463
,688,2023-10-27 11:59:57.53,61,-268,-2042,-6,11,10,-285,-693,408,489
,689,2023-10-27 11:59:57.54,64,-273,-2050,-5,11,12,-275,-658,383,466
,690,2023-10-27 11:59:57.55,65,-278,-2048,-3,10,12,-284,-694,410,489
,691,2023-10-27 11:59:57.56,81,-281,-2045,-2,7,14,-277,-660,383,468
,692,2023-10-27 11:59:57.57,49,-275,-2045,1,11,13,-280,-688,408,484
,693,2023-10-27 11:59:57.58,63,-273,-2029,2,10,14,-280,-661,381,470
,694,2023-10-27 11:59:57.59,74,-269,-2036,2,15,16,-279,-684,405,481
,695,2023-10-27 11:59:57.60,75,-269,-2037,3,19,18,-275,-660,385,467
,696,2023-10-27 11:59:57.61,61,-266,-2042,2,20,19,-269,-678,409,473
,697,2023-10-27 11:59:57.62,56,-274,-2039,5,20,20,-272,-659,387,465
,698,2023-10-27 11:59:57.63,69,-271,-2040,7,15,19,-267,-673,406,470
,699,2023-10-27 11:59:57.64,72,-276,-2042,9,11,19,-266,-657,391,461
,700,2023-10-27 11:59:57.65,73,-279,-2043,11,12,21,-262,-670,408,466
,701,2023-10-27 11:59:57.66,68,-273,-2035,10,6,23,-273,-666,393,469
,702,2023-10-27 11:59:57.67,67,-274,-2042,12,5,22,-266,-677,411,471
,703,2023-10-27 11:59:57.68,59,-280,-2040,10,4,22,-277,-670,393,473
,704,2023-10-27 11:59:57.69,64,-273,-2048,10,9,26,-255,-664,409,459
,705,2023-10-27 11:59:57.70,59,-268,-2033,7,11,23,-277,-673,396,475
,706,2023-10-27 11:59:57.71,64,-273,-2036,4,14,22,-252,-661,409,456
,707,2023-10-27 11:59:57.72,64,-264,-2040,0,13,19,-274,-672,398,473
,708,2023-10-27 11:59:57.73,60,-272,-2052,-1,14,19,-247,-657,410,452
,709,2023-10-27 11:59:57.74,64,-279,-2055,0,9,19,-275,-673,398,474
,710,2023-10-27 11:59:57.75,62,-275,-2050,0,5,19,-247,-657,410,452
,711,2023-10-27 11:59:57.76,59,-272,-2045,3,5,19,-279,-682,403,480
,712,2023-10-27 11:59:57.77,62,-281,-2040,3,2,17,-248,-656,408,452
,713,2023-10-27 11:59:57.78,67,-274,-2034,2,7,19,-284,-684,400,484
,714,2023-10-27 11:59:57.79,58,-268,-2031,1,9,19,-247,-655,408,451
,715,2023-10-27 11:59:57.80,64,-262,-2027,1,14,15,-286,-687,401,486
,716,2023-10-27 11:59:57.81,68,-264,-2034,-2,21,19,-244,-651,407,447
,717,2023-10-27 11:59:57.82,66,-271,-2038,-2,25,16,-288,-691,403,489
,718,2023-10-27 11:59:57.83,72,-268,-2031,-2,28,16,-244,-651,407,447
,719,2023-10-27 11:59:57.84,68,-272,-2041,-2,24,17,-294,-695,401,494
,720,2023-10-27 11:59:57.85,68,-271,-2042,0,27,17,-244,-647,403,445
,721,2023-10-27 11:59:57.86,77,-271,-2042,2,30,17,-285,-692,407,488
,722,2023-10-27 11:59:57.87,84,-267,-2041,1,32,20,-233,-637,404,435
,723,2023-10-27 11:59:57.88,76,-272,-2043,7,25,15,-285,-692,407,488
,724,2023-10-27 11:59:57.89,76,-267,-2045,9,22,19,-230,-636,406,433
,725,2023-10-27 11:59:57.90,81,-262,-2044,6,16,13,-284,-695,411,489
,726,2023-10-27 11:59:57.91,80,-264,-2042,7,14,10,-227,-635,408,431
,727,2023-10-27 11:59:57.92,79,-275,-2045,9,8,8,-284,-700,416,492
,728,2023-10-27 11:59:57.93,77,-268,-2042,10,10,11,-224,-632,408,428
,729,2023-10-27 11:59:57.94,73,-275,-2040,11,7,12,-282,-698,416,490
,730,2023-10-27 11:59:57.95,78,-278,-2045,12,0,11,-217,-627,410,422
,731,2023-10-27 11:59:57.96,82,-273,-2042,12,-4,14,-277,-696,419,486
,732,2023-10-27 11:59:57.97,75,-270,-2028,14,-10,13,-211,-620,409,415
,733,2023-10-27 11:59:57.98,70,-274,-2035,18,-12,17,-268,-694,426,481
,734,2023-10-27 11:59:57.99,73,-271,-2042,17,-9,16,-201,-612,411,406
,735,2023-10-27 11:59:58.00,71,-274,-2038,16,-12,15,-262,-693,431,477
,736,2023-10-27 11:59:58.01,65,-277,-2043,18,-10,14,-193,-609,416,401
,737,2023-10-27 11:59:58.02,70,-279,-2040,17,-18,13,-262,-694,432,478
,738,2023-10-27 11:59:58.03,78,-282,-2046,18,-14,14,-192,-607,415,399
,739,2023-10-27 11:59:58.04,66,-281,-2047,16,-15,18,-260,-699,439,479
,740,2023-10-27 11:59:58.05,60,-278,-2038,16,-11,20,-179,-599,420,389
,741,2023-10-27 11:59:58.06,63,-277,-2038,14,-9,20,-260,-699,439,479
,742,2023-10-27 11:59:58.07,55,-269,-2040,13,-2,19,-183,-601,418,392
,743,2023-10-27 11:59:58.08,52,-269,-2036,12,6,21,-267,-705,438,486
,744,2023-10-27 11:59:58.09,58,-272,-2037,5,4,13,-181,-595,414,388
,745,2023-10-27 11:59:58.10,53,-268,-2036,4,7,13,-254,-698,444,476
,746,2023-10-27 11:59:58.11,51,-271,-2036,0,2,12,-185,-602,417,393
,747,2023-10-27 11:59:58.12,60,-266,-2038,2,9,12,-258,-705,447,481
,748,2023-10-27 11:59:58.13,67,-273,-2029,1,7,11,-180,-599,419,389
,749,2023-10-27 11:59:58.14,56,-269,-2038,1,6,6,-263,-710,447,486
,750,2023-10-27 11:59:58.15,65,-264,-2036,3,8,2,-186,-605,419,395
,751,2023-10-27 11:59:58.16,59,-263,-2037,4,8,1,-271,-721,450,496
,752,2023-10-27 11:59:58.17,66,-264,-2032,8,12,1,-185,-607,422,396
,753,2023-10-27 11:59:58.18,63,-257,-2035,9,19,1,-259,-719,460,489
,754,2023-10-27 11:59:58.19,65,-259,-2041,9,19,-1,-172,-599,427,385
,755,2023-10-27 11:59:58.20,72,-268,-2038,13,21,-2,-254,-712,458,483
,756,2023-10-27 11:59:58.21,56,-272,-2041,16,19,-3,-167,-589,422,378
,757,2023-10-27 11:59:58.22,80,-262,-2048,21,19,-1,-248,-705,457,476
,758,2023-10-27 11:59:58.23,77,-273,-2039,22,19,-1,-167,-587,420,377
,759,2023-10-27 11:59:58.24,68,-271,-2047,22,16,-1,-251,-710,459,480
,760,2023-10-27 11:59:58.25,68,-271,-2038,24,15,-1,-163,-582,419,372
,761,2023-10-27 11:59:58.26,87,-278,-2041,18,16,2,-248,-706,458,477
,762,2023-10-27 11:59:58.27,81,-280,-2034,19,16,3,-160,-580,420,370
,763,2023-10-27 11:59:58.28,81,-286,-2036,17,15,6,-250,-708,458,479
,764,2023-10-27 11:59:58.29,78,-282,-2052,18,16,10,-164,-580,416,372
,765,2023-10-27 11:59:58.30,86,-288,-2043,17,9,12,-250,-710,460,480
,766,2023-10-27 11:59:58.31,70,-287,-2044,14,5,12,-160,-577,417,368
,767,2023-10-27 11:59:58.32,78,-282,-2043,12,-1,16,-246,-706,460,476
,768,2023-10-27 11:59:58.33,80,-282,-2045,8,0,19,-158,-573,415,365
,769,2023-10-27 11:59:58.34,69,-281,-2039,4,4,21,-251,-710,459,480
,770,2023-10-27 11:59:58.35,78,-278,-2036,4,8,24,-162,-575,413,368
,771,2023-10-27 11:59:58.36,76,-278,-2038,3,5,22,-254,-709,455,481
,772,2023-10-27 11:59:58.37,69,-275,-2038,2,8,20,-162,-572,410,367
,773,2023-10-27 11:59:58.38,69,-274,-2036,3,8,17,-254,-710,456,482
,774,2023-10-27 11:59:58.39,73,-269,-2040,4,4,16,-163,-573,410,368
,775,2023-10-27 11:59:58.40,74,-271,-2039,6,-2,13,-255,-714,459,484
,776,2023-10-27 11:59:58.41,70,-270,-2038,7,-2,16,-163,-573,410,368
,777,2023-10-27 11:59:58.42,77,-267,-2046,7,2,12,-257,-712,455,484
,778,2023-10-27 11:59:58.43,74,-273,-2041,7,-4,9,-165,-572,407,368
,779,2023-10-27 11:59:58.44,85,-272,-2042,7,0,9,-259,-718,459,488
,780,2023-10-27 11:59:58.45,85,-278,-2041,11,-6,7,-170,-577,407,373
,781,2023-10-27 11:59:58.46,77,-278,-2042,15,-8,10,-257,-716,459,486
,782,2023-10-27 11:59:58.47,79,-282,-2037,15,-12,10,-170,-574,404,372
,783,2023-10-27 11:59:58.48,71,-287,-2045,19,-13,10,-262,-716,454,489
,784,2023-10-27 11:59:58.49,66,-283,-2042,18,-13,13,-174,-579,405,376
,785,2023-10-27 11:59:58.50,79,-281,-2036,16,-10,20,-259,-718,459,488
,786,2023-10-27 11:59:58.51,66,-283,-2042,12,-6,24,-165,-574,409,369
,787,2023-10-27 11:59:58.52,71,-279,-2035,9,-2,26,-255,-717,462,486
,788,2023-10-27 11:59:58.53,69,-274,-2035,5,-1,26,-166,-572,406,369
,789,2023-10-27 11:59:58.54,67,-279,-2041,7,4,26,-256,-716,460,486
,790,2023-10-27 11:59:58.55,69,-271,-2035,4,6,25,-170,-576,406,373
,791,2023-10-27 11:59:58.56,59,-267,-2037,8,10,24,-252,-718,466,485
,792,2023-10-27 11:59:58.57,65,-269,-2042,8,8,19,-162,-575,413,368
,793,2023-10-27 11:59:58.58,64,-272,-2043,11,7,16,-255,-721,466,488
,794,2023-10-27 11:59:58.59,75,-278,-2039,12,5,16,-168,-576,408,372
,795,2023-10-27 11:59:58.60,63,-268,-2033,10,3,11,-260,-721,461,490
,796,2023-10-27 11:59:58.61,76,-266,-2038,10,8,12,-161,-574,413,367
,797,2023-10-27 11:59:58.62,71,-268,-2051,6,16,8,-250,-713,463,481
,798,2023-10-27 11:59:58.63,72,-269,-2050,4,16,9,-161,-569,408,365
,799,2023-10-27 11:59:58.64,70,-275,-2043,6,11,8,-252,-715,463,483
,800,2023-10-27 11:59:58.65,72,-279,-2047,8,8,9,-163,-572,409,367
,801,2023-10-27 11:59:58.66,72,-279,-2039,11,10,12,-251,-714,463,482
,802,2023-10-27 11:59:58.67,72,-277,-2033,12,8,13,-159,-572,413,365
,803,2023-10-27 11:59:58.68,71,-277,-2031,15,11,16,-244,-714,470,479
,804,2023-10-27 11:59:58.69,75,-269,-2027,12,10,18,-156,-573,417,364
,805,2023-10-27 11:59:58.70,75,-270,-2042,9,16,14,-232,-712,480,472
,806,2023-10-27 11:59:58.71,75,-278,-2046,6,18,14,-142,-567,425,354
,807,2023-10-27 11:59:58.72,84,-268,-2047,3,15,19,-221,-705,484,463
,808,2023-10-27 11:59:58.73,71,-282,-2043,2,12,16,-134,-567,433,350
,809,2023-10-27 11:59:58.74,89,-279,-2046,0,8,17,-212,-704,492,458
,810,2023-10-27 11:59:58.75,74,-279,-2038,5,5,15,-130,-564,434,347
,811,2023-10-27 11:59:58.76,75,-279,-2038,9,5,16,-206,-699,493,452
,812,2023-10-27 11:59:58.77,79,-278,-2040,13,6,16,-115,-558,443,336
,813,2023-10-27 11:59:58.78,74,-280,-2036,12,8,15,-143,-683,540,413
,814,2023-10-27 11:59:58.79,81,-277,-2039,13,13,13,-41,-543,502,292
,815,2023-10-27 11:59:58.80,84,-275,-2045,9,11,8,-74,-665,591,369
,816,2023-10-27 11:59:58.81,85,-274,-2051,9,14,6,14,-522,536,254
,817,2023-10-27 11:59:58.82,78,-281,-2043,5,14,6,-18,-631,613,324
,818,2023-10-27 11:59:58.83,82,-285,-2055,7,7,7,56,-493,549,218
,819,2023-10-27 11:59:58.84,74,-281,-2042,11,-4,9,27,-608,635,290
,820,2023-10-27 11:59:58.85,71,-285,-2036,13,-16,12,90,-484,574,197
,821,2023-10-27 11:59:58.86,78,-277,-2029,16,-18,12,48,-603,651,277
,822,2023-10-27 11:59:58.87,68,-278,-2033,13,-13,17,110,-478,588,184
,823,2023-10-27 11:59:58.88,80,-284,-2037,8,-9,18,65,-601,666,268
,824,2023-10-27 11:59:58.89,70,-284,-2047,6,-3,21,120,-484,604,182
,825,2023-10-27 11:59:58.90,76,-285,-2048,2,-3,22,76,-605,681,264
,826,2023-10-27 11:59:58.91,73,-287,-2045,2,-8,24,129,-484,613,177
,827,2023-10-27 11:59:58.92,65,-284,-2041,-2,-5,28,96,-594,690,249
,828,2023-10-27 11:59:58.93,66,-281,-2039,-4,-5,31,138,-483,621,172
,829,2023-10-27 11:59:58.94,62,-283,-2032,-5,-4,34,102,-596,698,247
,830,2023-10-27 11:59:58.95,65,-273,-2032,-6,-5,32,138,-491,629,176
,831,2023-10-27 11:59:58.96,61,-267,-2038,-5,-1,34,98,-605,703,253
,832,2023-10-27 11:59:58.97,68,-266,-2035,-6,-1,31,143,-495,638,176
,833,2023-10-27 11:59:58.98,63,-263,-2036,-2,-1,24,115,-598,713,241
,834,2023-10-27 11:59:58.99,74,-262,-2040,-1,3,20,146,-499,645,176
,835,2023-10-27 11:59:59.00,68,-264,-2044,1,3,14,110,-607,717,248
,836,2023-10-27 11:59:59.01,60,-268,-2041,5,1,8,138,-514,652,188
,837,2023-10-27 11:59:59.02,68,-270,-2039,8,-3,6,114,-609,723,247
,838,2023-10-27 11:59:59.03,71,-274,-2037,8,-5,4,145,-509,654,182
,839,2023-10-27 11:59:59.04,78,-274,-2044,10,-1,4,122,-596,718,237
,840,2023-10-27 11:59:59.05,59,-270,-2034,9,-2,6,148,-506,654,179
,841,2023-10-27 11:59:59.06,75,-272,-2046,8,-1,5,120,-598,718,239
,842,2023-10-27 11:59:59.07,76,-267,-2036,6,7,6,141,-517,658,188
,843,2023-10-27 11:59:59.08,74,-276,-2035,6,4,4,118,-601,719,241
,844,2023-10-27 11:59:59.09,75,-277,-2038,6,8,6,141,-517,658,188
,845,2023-10-27 11:59:59.10,62,-280,-2038,6,11,7,118,-597,715,239
,846,2023-10-27 11:59:59.11,70,-281,-2042,6,10,8,142,-522,664,190
,847,2023-10-27 11:59:59.12,75,-277,-2045,7,12,8,123,-594,717,235
,848,2023-10-27 11:59:59.13,77,-274,-2039,6,8,10,144,-519,663,187
,849,2023-10-27 11:59:59.14,73,-275,-2041,8,2,8,126,-589,715,231
,850,2023-10-27 11:59:59.15,58,-268,-2035,10,3,10,149,-518,667,184
,851,2023-10-27 11:59:59.16,65,-266,-2038,9,6,8,127,-586,713,229
,852,2023-10-27 11:59:59.17,68,-271,-2040,9,3,6,146,-521,667,187
,853,2023-10-27 11:59:59.18,70,-267,-2046,9,1,2,123,-584,707,230
,854,2023-10-27 11:59:59.19,79,-275,-2042,12,-3,-2,140,-525,665,192
,855,2023-10-27 11:59:59.20,82,-280,-2037,14,-4,-1,129,-580,709,225
,856,2023-10-27 11:59:59.21,75,-278,-2040,13,-2,-3,145,-525,670,190
,857,2023-10-27 11:59:59.22,65,-280,-2046,13,3,-2,128,-575,703,223
,858,2023-10-27 11:59:59.23,62,-284,-2045,13,-2,-2,137,-523,660,193
,859,2023-10-27 11:59:59.24,71,-280,-2037,11,-2,2,123,-576,699,226
,860,2023-10-27 11:59:59.25,69,-275,-2044,12,3,5,137,-529,666,196
,861,2023-10-27 11:59:59.26,77,-274,-2041,9,4,8,126,-575,701,224
,862,2023-10-27 11:59:59.27,75,-283,-2040,8,5,8,138,-534,672,198
,863,2023-10-27 11:59:59.28,69,-277,-2042,3,4,6,137,-566,703,214
,864,2023-10-27 11:59:59.29,71,-275,-2048,5,-4,5,136,-535,671,199
,865,2023-10-27 11:59:59.30,79,-267,-2043,4,-3,3,130,-572,702,221
,866,2023-10-27 11:59:59.31,66,-268,-2033,6,-7,3,131,-546,677,207
,867,2023-10-27 11:59:59.32,67,-268,-2042,8,-4,4,129,-570,699,220
,868,2023-10-27 11:59:59.33,75,-277,-2047,8,-8,0,137,-543,680,203
,869,2023-10-27 11:59:59.34,68,-275,-2042,8,-6,-3,126,-575,701,224
,870,2023-10-27 11:59:59.35,67,-277,-2045,8,-6,0,134,-549,683,207
,871,2023-10-27 11:59:59.36,77,-270,-2041,6,-7,1,133,-569,702,218
,872,2023-10-27 11:59:59.37,74,-276,-2038,6,-9,0,138,-549,687,205
,873,2023-10-27 11:59:59.38,65,-277,-2044,6,-3,3,140,-561,701,210
,874,2023-10-27 11:59:59.39,69,-271,-2025,7,-1,2,138,-547,685,204
,875,2023-10-27 11:59:59.40,70,-271,-2036,9,-3,1,138,-561,699,211
,876,2023-10-27 11:59:59.41,70,-278,-2038,11,-5,3,134,-556,690,211
,877,2023-10-27 11:59:59.42,58,-281,-2041,14,-13,5,141,-563,704,211
,878,2023-10-27 11:59:59.43,72,-277,-2045,16,-12,4,106,-567,673,230
,879,2023-10-27 11:59:59.44,64,-281,-2038,18,-15,5,84,-576,660,246
,880,2023-10-27 11:59:59.45,76,-276,-2046,20,-17,7,36,-589,625,276
,881,2023-10-27 11:59:59.46,63,-278,-2043,18,-17,8,30,-586,616,278
,882,2023-10-27 11:59:59.47,68,-282,-2044,17,-19,10,-5,-599,594,302
,883,2023-10-27 11:59:59.48,66,-283,-2048,18,-19,13,0,-591,591,295
,884,2023-10-27 11:59:59.49,46,-276,-2041,17,-22,15,-43,-612,569,327
,885,2023-10-27 11:59:59.50,59,-267,-2032,18,-20,13,-39,-599,560,319
,886,2023-10-27 11:59:59.51,55,-271,-2029,20,-21,9,-86,-623,537,354
,887,2023-10-27 11:59:59.52,67,-275,-2039,23,-18,8,-78,-605,527,341
,888,2023-10-27 11:59:59.53,66,-274,-2050,26,-19,7,-122,-637,515,379
,889,2023-10-27 11:59:59.54,56,-271,-2043,28,-21,5,-105,-612,507,358
,890,2023-10-27 11:59:59.55,57,-273,-2041,29,-18,5,-152,-645,493,398
,891,2023-10-27 11:59:59.56,69,-271,-2040,31,-17,5,-130,-615,485,372
,892,2023-10-27 11:59:59.57,67,-274,-2029,32,-17,3,-181,-655,474,418
,893,2023-10-27 11:59:59.58,54,-268,-2042,37,-14,-2,-158,-626,468,392
,894,2023-10-27 11:59:59.59,65,-264,-2046,38,-23,-8,-208,-668,460,438
,895,2023-10-27 11:59:59.60,61,-271,-2032,40,-22,-14,-174,-631,457,402
,896,2023-10-27 11:59:59.61,52,-275,-2032,39,-21,-22,-228,-679,451,453
,897,2023-10-27 11:59:59.62,62,-269,-2034,36,-19,-30,-189,-636,447,412
,898,2023-10-27 11:59:59.63,58,-272,-2031,30,-12,-35,-255,-691,436,473
,899,2023-10-27 11:59:59.64,69,-281,-2038,24,-9,-43,-216,-645,429,430
,900,2023-10-27 11:59:59.65,62,-290,-2034,17,-11,-41,-284,-713,429,498
,901,2023-10-27 11:59:59.66,53,-295,-2036,17,-6,-43,-234,-660,426,447
,902,2023-10-27 11:59:59.67,57,-288,-2048,10,-2,-41,-288,-718,430,503
,903,2023-10-27 11:59:59.68,58,-298,-2033,7,0,-37,-232,-653,421,442
,904,2023-10-27 11:59:59.69,62,-296,-2030,5,-4,-36,-288,-709,421,498
,905,2023-10-27 11:59:59.70,65,-298,-2033,8,-1,-31,-236,-645,409,440
,906,2023-10-27 11:59:59.71,66,-292,-2043,10,-4,-29,-303,-716,413,509
,907,2023-10-27 11:59:59.72,64,-291,-2032,7,4,-22,-247,-648,401,447
,908,2023-10-27 11:59:59.73,69,-299,-2041,6,5,-21,-317,-718,401,517
,909,2023-10-27 11:59:59.74,59,-291,-2046,5,11,-18,-251,-644,393,447
,910,2023-10-27 11:59:59.75,72,-286,-2043,7,4,-15,-332,-725,393,528
,911,2023-10-27 11:59:59.76,68,-291,-2034,8,-1,-12,-263,-642,379,452
,912,2023-10-27 11:59:59.77,63,-287,-2037,13,5,-11,-344,-731,387,537
,913,2023-10-27 11:59:59.78,48,-296,-2043,10,6,-13,-278,-649,371,463
,914,2023-10-27 11:59:59.79,67,-302,-2056,14,4,-9,-349,-733,384,541
,915,2023-10-27 11:59:59.80,73,-293,-2049,14,-1,-3,-267,-646,379,456
,916,2023-10-27 11:59:59.81,51,-290,-2043,13,-2,0,-349,-736,387,542
,917,2023-10-27 11:59:59.82,57,-291,-2049,9,-4,2,-272,-642,370,457
,918,2023-10-27 11:59:59.83,56,-281,-2034,5,-3,6,-346,-735,389,540
,919,2023-10-27 11:59:59.84,51,-279,-2034,1,4,4,-266,-640,374,453
,920,2023-10-27 11:59:59.85,54,-278,-2041,-2,6,-1,-355,-738,383,546
,921,2023-10-27 11:59:59.86,54,-282,-2038,-1,2,-3,-275,-638,363,456
,922,2023-10-27 11:59:59.87,42,-269,-2039,-1,10,-4,-364,-742,378,553
,923,2023-10-27 11:59:59.88,47,-272,-2031,-7,17,-8,-288,-642,354,465
,924,2023-10-27 11:59:59.89,41,-273,-2026,-6,19,-11,-381,-752,371,566
,925,2023-10-27 11:59:59.90,50,-278,-2025,0,13,-17,-293,-644,351,468
,926,2023-10-27 11:59:59.91,48,-272,-2028,3,16,-19,-388,-758,370,573
,927,2023-10-27 11:59:59.92,48,-263,-2032,1,23,-21,-303,-652,349,477
,928,2023-10-27 11:59:59.93,52,-266,-2034,-2,27,-23,-400,-763,363,581
,929,2023-10-27 11:59:59.94,48,-275,-2032,-3,30,-22,-309,-649,340,479
,930,2023-10-27 11:59:59.95,68,-282,-2035,-1,28,-24,-410,-769,359,589
,931,2023-10-27 11:59:59.96,72,-270,-2036,2,26,-24,-319,-654,335,486
,932,2023-10-27 11:59:59.97,68,-279,-2039,8,24,-22,-414,-771,357,592
,933,2023-10-27 11:59:59.98,64,-285,-2038,9,29,-20,-313,-647,334,480
,934,2023-10-27 11:59:59.99,68,-286,-2041,7,27,-16,-416,-769,353,592
,935,2023-10-27 12:00:00.00,74,-283,-2043,9,30,-12,-318,-647,329,482
,936,2023-10-27 12:00:00.01,76,-284,-2039,14,27,-8,-424,-776,352,600
,937,2023-10-27 12:00:00.02,75,-288,-2042,13,25,-7,-317,-651,334,484
,938,2023-10-27 12:00:00.03,92,-287,-2043,13,29,-5,-416,-772,356,594
,939,2023-10-27 12:00:00.04,84,-282,-2039,12,29,-5,-308,-635,327,471
,940,2023-10-27 12:00:00.05,73,-282,-2042,12,33,-3,-406,-760,354,583
,941,2023-10-27 12:00:00.06,77,-285,-2039,12,34,-3,-303,-633,330,468
,942,2023-10-27 12:00:00.07,85,-284,-2050,14,33,-2,-411,-765,354,588
,943,2023-10-27 12:00:00.08,72,-285,-2048,11,30,2,-308,-633,325,470
,944,2023-10-27 12:00:00.09,79,-292,-2045,14,22,6,-414,-768,354,591
,945,2023-10-27 12:00:00.10,74,-289,-2044,18,18,10,-304,-632,328,468
,946,2023-10-27 12:00:00.11,79,-290,-2041,18,13,10,-420,-772,352,596
,947,2023-10-27 12:00:00.12,85,-280,-2035,16,10,14,-306,-627,321,466
,948,2023-10-27 12:00:00.13,73,-286,-2041,13,10,15,-406,-760,354,583
,949,2023-10-27 12:00:00.14,80,-277,-2040,11,12,16,-300,-619,319,459
,950,2023-10-27 12:00:00.15,84,-283,-2044,10,9,15,-412,-762,350,587
,951,2023-10-27 12:00:00.16,97,-286,-2040,11,3,15,-309,-628,319,468
,952,2023-10-27 12:00:00.17,75,-287,-2045,14,-5,14,-411,-765,354,588
,953,2023-10-27 12:00:00.18,83,-286,-2036,14,-10,15,-305,-625,320,465
,954,2023-10-27 12:00:00.19,72,-281,-2038,16,-10,20,-412,-769,357,590
,955,2023-10-27 12:00:00.20,85,-271,-2036,11,-8,19,-306,-626,320,466
,956,2023-10-27 12:00:00.21,67,-276,-2036,-1,16,19,-411,-771,360,591
,957,2023-10-27 12:00:00.22,88,-291,-2022,-3,12,19,-306,-626,320,466
,958,2023-10-27 12:00:00.23,86,-295,-2020,6,7,22,-414,-771,357,592
,959,2023-10-27 12:00:00.24,86,-282,-2033,14,8,24,-302,-623,321,462
,960,2023-10-27 12:00:00.25,86,-280,-2033,10,7,24,-409,-771,362,590
,961,2023-10-27 12:00:00.26,83,-285,-2044,5,14,23,-303,-625,322,464
,962,2023-10-27 12:00:00.27,83,-278,-2048,2,19,24,-408,-770,362,589
,963,2023-10-27 12:00:00.28,78,-283,-2045,2,19,22,-297,-622,325,459
,964,2023-10-27 12:00:00.29,86,-285,-2048,4,7,24,-406,-773,367,589
,965,2023-10-27 12:00:00.30,80,-281,-2040,12,1,24,-303,-626,323,464
,966,2023-10-27 12:00:00.31,79,-284,-2043,17,-8,20,-412,-773,361,592
,967,2023-10-27 12:00:00.32,73,-284,-2042,13,-12,20,-305,-626,321,465
,968,2023-10-27 12:00:00.33,77,-278,-2038,13,-8,20,-416,-778,362,597
,969,2023-10-27 12:00:00.34,86,-272,-2030,7,-2,17,-306,-630,324,468
,970,2023-10-27 12:00:00.35,77,-278,-2041,0,4,15,-413,-779,366,596
,971,2023-10-27 12:00:00.36,75,-282,-2050,1,7,14,-306,-632,326,469
,972,2023-10-27 12:00:00.37,65,-286,-2047,5,-5,17,-414,-780,366,597
,973,2023-10-27 12:00:00.38,68,-292,-2045,8,-9,23,-308,-634,326,471
,974,2023-10-27 12:00:00.39,66,-284,-2048,7,-11,23,-409,-778,369,593
,975,2023-10-27 12:00:00.40,75,-275,-2043,4,-6,27,-300,-630,330,465
,976,2023-10-27 12:00:00.41,58,-285,-2038,-2,6,30,-403,-777,374,590
,977,2023-10-27 12:00:00.42,61,-288,-2026,-2,6,32,-301,-632,331,466
,978,2023-10-27 12:00:00.43,84,-279,-2028,3,1,34,-402,-776,374,589
,979,2023-10-27 12:00:00.44,67,-279,-2024,9,-3,35,-299,-632,333,465
,980,2023-10-27 12:00:00.45,66,-276,-2027,10,0,30,-403,-779,376,591
,981,2023-10-27 12:00:00.46,65,-279,-2031,11,2,29,-303,-632,329,467
,982,2023-10-27 12:00:00.47,65,-277,-2040,12,2,26,-402,-775,373,588
,983,2023-10-27 12:00:00.48,68,-279,-2039,13,4,24,-301,-632,331,466
,984,2023-10-27 12:00:00.49,73,-275,-2041,11,3,20,-403,-776,373,589
,985,2023-10-27 12:00:00.50,86,-281,-2045,11,3,17,-304,-635,331,469
,986,2023-10-27 12:00:00.51,66,-283,-2041,15,0,14,-394,-769,375,581
,987,2023-10-27 12:00:00.52,71,-280,-2039,16,2,12,-300,-632,332,466
,988,2023-10-27 12:00:00.53,69,-278,-2033,16,4,12,-395,-773,378,584
,989,2023-10-27 12:00:00.54,72,-282,-2029,16,6,9,-301,-636,335,468
,990,2023-10-27 12:00:00.55,79,-290,-2039,18,12,7,-394,-769,375,581
,991,2023-10-27 12:00:00.56,68,-284,-2032,15,10,6,-303,-635,332,469
,992,2023-10-27 12:00:00.57,77,-292,-2044,13,14,8,-395,-774,379,584
,993,2023-10-27 12:00:00.58,66,-297,-2049,10,18,10,-308,-640,332,474
,994,2023-10-27 12:00:00.59,73,-280,-2039,3,23,11,-396,-774,378,585
,995,2023-10-27 12:00:00.60,82,-286,-2027,-2,25,11,-307,-642,335,474
,996,2023-10-27 12:00:00.61,84,-297,-2030,0,23,11,-393,-774,381,583
,997,2023-10-27 12:00:00.62,82,-280,-2037,5,20,12,-310,-643,333,476
,998,2023-10-27 12:00:00.63,81,-283,-2042,3,18,10,-395,-770,375,582
,999,2023-10-27 12:00:00.64,93,-286,-2044,-3,20,10,-309,-644,335,476
,1000,2023-10-27 12:00:00.65,81,-289,-2053,-2,21,9,-392,-771,379,581
,1001,2023-10-27 12:00:00.66,70,-280,-2056,-3,17,7,-310,-647,337,478
,1002,2023-10-27 12:00:00.67,78,-284,-2053,-7,16,10,-384,-767,383,575
,1003,2023-10-27 12:00:00.68,85,-290,-2045,-8,13,11,-304,-646,342,475
,1004,2023-10-27 12:00:00.69,70,-283,-2045,-7,11,11,-385,-767,382,576
,1005,2023-10-27 12:00:00.70,85,-282,-2038,-5,8,13,-316,-651,335,483
,1006,2023-10-27 12:00:00.71,73,-282,-2035,-4,5,15,-390,-766,376,578
,1007,2023-10-27 12:00:00.72,81,-277,-2028,-5,8,15,-319,-652,333,485
,1008,2023-10-27 12:00:00.73,82,-273,-2034,-4,13,14,-391,-768,377,579
,1009,2023-10-27 12:00:00.74,82,-273,-2038,-7,15,15,-323,-656,333,489
,1010,2023-10-27 12:00:00.75,75,-275,-2041,-7,16,14,-390,-764,374,577
,1011,2023-10-27 12:00:00.76,92,-276,-2044,-5,12,13,-326,-659,333,492
,1012,2023-10-27 12:00:00.77,85,-276,-2045,-2,5,14,-393,-767,374,580
,1013,2023-10-27 12:00:00.78,69,-278,-2050,3,-2,16,-328,-662,334,495
,1014,2023-10-27 12:00:00.79,88,-279,-2042,7,-10,16,-391,-763,372,577
,1015,2023-10-27 12:00:00.80,70,-278,-2041,12,-13,15,-337,-669,332,503
,1016,2023-10-27 12:00:00.81,83,-284,-2035,16,-17,16,-403,-768,365,585
,1017,2023-10-27 12:00:00.82,84,-283,-2039,22,-19,17,-350,-676,326,513
,1018,2023-10-27 12:00:00.83,70,-288,-2044,24,-18,20,-403,-766,363,584
,1019,2023-10-27 12:00:00.84,70,-291,-2040,29,-17,21,-347,-677,330,512
,1020,2023-10-27 12:00:00.85,71,-287,-2044,29,-17,25,-399,-764,365,581
,1021,2023-10-27 12:00:00.86,66,-291,-2047,23,-12,30,-350,-679,329,514
,1022,2023-10-27 12:00:00.87,69,-288,-2045,19,-11,35,-394,-758,364,576
,1023,2023-10-27 12:00:00.88,67,-284,-2041,13,-7,39,-346,-676,330,511
,1024,2023-10-27 12:00:00.89,71,-278,-2039,11,-6,42,-389,-754,365,571
,1025,2023-10-27 12:00:00.90,59,-280,-2038,11,-5,39,-345,-676,331,510
,1026,2023-10-27 12:00:00.91,67,-278,-2033,12,-4,37,-385,-750,365,567
,1027,2023-10-27 12:00:00.92,76,-274,-2025,14,0,35,-342,-675,333,508
,1028,2023-10-27 12:00:00.93,71,-269,-2029,14,3,26,-381,-748,367,564
,1029,2023-10-27 12:00:00.94,63,-272,-2031,15,7,22,-346,-678,332,512
,1030,2023-10-27 12:00:00.95,68,-269,-2043,13,9,13,-377,-743,366,560
,1031,2023-10-27 12:00:00.96,59,-269,-2040,13,8,12,-348,-684,336,516
,1032,2023-10-27 12:00:00.97,67,-284,-2042,14,8,6,-377,-742,365,559
,1033,2023-10-27 12:00:00.98,77,-276,-2034,11,8,3,-352,-684,332,518
,1034,2023-10-27 12:00:00.99,72,-276,-2033,7,9,-1,-372,-734,362,553
,1035,2023-10-27 12:00:01.00,74,-283,-2034,8,10,-2,-346,-683,337,514
,1036,2023-10-27 12:00:01.01,62,-290,-2041,7,8,-3,-369,-731,362,550
,1037,2023-10-27 12:00:01.02,58,-287,-2030,9,7,-1,-354,-687,333,520
,1038,2023-10-27 12:00:01.03,77,-299,-2037,6,8,3,-368,-729,361,548
,1039,2023-10-27 12:00:01.04,76,-294,-2036,5,11,3,-354,-690,336,522
,1040,2023-10-27 12:00:01.05,78,-287,-2030,2,14,8,-370,-728,358,549
,1041,2023-10-27 12:00:01.06,87,-291,-2040,0,13,11,-361,-693,332,527
,1042,2023-10-27 12:00:01.07,86,-285,-2044,-1,13,15,-368,-728,360,548
,1043,2023-10-27 12:00:01.08,84,-282,-2042,-3,12,15,-365,-700,335,532
,1044,2023-10-27 12:00:01.09,78,-286,-2040,-1,9,17,-369,-728,359,548
,1045,2023-10-27 12:00:01.10,76,-280,-2040,0,7,19,-365,-700,335,532
,1046,2023-10-27 12:00:01.11,73,-276,-2037,3,5,19,-361,-720,359,540
,1047,2023-10-27 12:00:01.12,61,-280,-2037,6,5,19,-363,-701,338,532
,1048,2023-10-27 12:00:01.13,78,-281,-2035,8,3,19,-356,-716,360,536
,1049,2023-10-27 12:00:01.14,66,-283,-2034,12,4,20,-358,-699,341,528
,1050,2023-10-27 12:00:01.15,69,-282,-2040,12,0,21,-347,-710,363,528
,1051,2023-10-27 12:00:01.16,73,-279,-2030,12,5,20,-362,-702,340,532
,1052,2023-10-27 12:00:01.17,74,-278,-2031,11,4,21,-351,-708,357,529
,1053,2023-10-27 12:00:01.18,75,-275,-2030,8,5,20,-360,-702,342,531
,1054,2023-10-27 12:00:01.19,74,-279,-2043,4,8,21,-342,-704,362,523
,1055,2023-10-27 12:00:01.20,78,-286,-2051,4,11,19,-364,-708,344,536
,1056,2023-10-27 12:00:01.21,79,-283,-2055,4,9,20,-343,-701,358,522
,1057,2023-10-27 12:00:01.22,63,-279,-2044,6,9,18,-362,-706,344,534
,1058,2023-10-27 12:00:01.23,85,-268,-2031,6,10,15,-336,-696,360,516
,1059,2023-10-27 12:00:01.24,71,-267,-2031,5,18,10,-365,-708,343,536
,1060,2023-10-27 12:00:01.25,77,-271,-2042,5,23,5,-337,-690,353,513
,1061,2023-10-27 12:00:01.26,79,-279,-2045,8,21,0,-366,-710,344,538
,1062,2023-10-27 12:00:01.27,83,-284,-2063,6,21,0,-337,-694,357,515
,1063,2023-10-27 12:00:01.28,78,-289,-2066,10,16,1,-371,-717,346,544
,1064,2023-10-27 12:00:01.29,84,-291,-2056,10,8,4,-334,-689,355,511
,1065,2023-10-27 12:00:01.30,84,-291,-2051,12,2,5,-370,-716,346,543
,1066,2023-10-27 12:00:01.31,74,-291,-2038,16,2,9,-335,-687,352,511
,1067,2023-10-27 12:00:01.32,81,-294,-2024,20,2,10,-374,-721,347,547
,1068,2023-10-27 12:00:01.33,84,-286,-2025,21,8,14,-322,-676,354,499
,1069,2023-10-27 12:00:01.34,70,-291,-2030,17,12,17,-371,-721,350,546
,1070,2023-10-27 12:00:01.35,82,-291,-2030,14,14,19,-328,-680,352,504
,1071,2023-10-27 12:00:01.36,71,-283,-2031,12,16,21,-375,-724,349,549
,1072,2023-10-27 12:00:01.37,71,-280,-2028,3,19,21,-331,-679,348,505
,1073,2023-10-27 12:00:01.38,64,-272,-2023,-3,17,23,-385,-733,348,559
,1074,2023-10-27 12:00:01.39,63,-267,-2023,-9,16,23,-335,-688,353,511
,1075,2023-10-27 12:00:01.40,69,-264,-2021,-11,11,17,-389,-740,351,564
,1076,2023-10-27 12:00:01.41,71,-266,-2019,-10,13,12,-331,-683,352,507
,1077,2023-10-27 12:00:01.42,67,-274,-2037,-8,14,8,-385,-738,353,561
,1078,2023-10-27 12:00:01.43,74,-270,-2038,-2,13,3,-325,-677,352,501
,1079,2023-10-27 12:00:01.44,69,-271,-2038,2,22,-2,-384,-738,354,561
,1080,2023-10-27 12:00:01.45,58,-276,-2036,7,33,-6,-322,-671,349,496
,1081,2023-10-27 12:00:01.46,62,-283,-2030,12,44,-11,-382,-741,359,561
,1082,2023-10-27 12:00:01.47,69,-286,-2031,21,56,-8,-318,-669,351,493
,1083,2023-10-27 12:00:01.48,80,-284,-2035,24,60,-6,-384,-744,360,564
,1084,2023-10-27 12:00:01.49,68,-280,-2021,23,66,-6,-315,-667,352,491
,1085,2023-10-27 12:00:01.50,78,-280,-2025,22,70,-5,-386,-746,360,566
,1086,2023-10-27 12:00:01.51,75,-272,-2039,23,72,-7,-316,-666,350,491
,1087,2023-10-27 12:00:01.52,91,-279,-2059,19,70,-9,-391,-748,357,569
,1088,2023-10-27 12:00:01.53,101,-279,-2061,14,64,-13,-317,-666,349,491
,1089,2023-10-27 12:00:01.54,92,-282,-2061,13,56,-14,-399,-757,358,578
,1090,2023-10-27 12:00:01.55,98,-295,-2062,13,55,-17,-326,-672,346,499
,1091,2023-10-27 12:00:01.56,90,-294,-2062,14,45,-16,-408,-764,356,586
,1092,2023-10-27 12:00:01.57,102,-293,-2058,15,47,-15,-327,-671,344,499
,1093,2023-10-27 12:00:01.58,99,-286,-2054,14,44,-14,-410,-769,359,589
,1094,2023-10-27 12:00:01.59,98,-292,-2054,10,48,-12,-328,-671,343,499
,1095,2023-10-27 12:00:01.60,98,-287,-2052,7,48,-9,-414,-770,356,592
,1096,2023-10-27 12:00:01.61,109,-284,-2047,1,51,-8,-326,-667,341,496
,1097,2023-10-27 12:00:01.62,115,-292,-2048,-5,55,-8,-413,-771,358,592
,1098,2023-10-27 12:00:01.63,117,-288,-2046,-10,56,-8,-329,-668,339,498
,1099,2023-10-27 12:00:01.64,109,-280,-2046,-13,55,-8,-424,-778,354,601
,1100,2023-10-27 12:00:01.65,123,-281,-2036,-13,59,-8,-334,-672,338,503
,1101,2023-10-27 12:00:01.66,129,-276,-2035,-12,59,-8,-433,-786,353,609
,1102,2023-10-27 12:00:01.67,125,-273,-2045,-8,59,-10,-343,-680,337,511
,1103,2023-10-27 12:00:01.68,122,-271,-2052,-6,54,-14,-440,-790,350,615
,1104,2023-10-27 12:00:01.69,134,-270,-2047,-3,47,-16,-342,-672,330,507
,1105,2023-10-27 12:00:01.70,126,-269,-2051,1,37,-19,-440,-790,350,615
,1106,2023-10-27 12:00:01.71,139,-269,-2048,4,26,-19,-344,-676,332,510
,1107,2023-10-27 12:00:01.72,142,-274,-2038,9,18,-18,-447,-795,348,621
,1108,2023-10-27 12:00:01.73,136,-284,-2040,16,13,-15,-347,-673,326,510
,1109,2023-10-27 12:00:01.74,137,-291,-2040,20,7,-13,-444,-793,349,618
,1110,2023-10-27 12:00:01.75,142,-288,-2033,26,4,-7,-344,-671,327,507
,1111,2023-10-27 12:00:01.76,128,-293,-2029,29,2,-1,-444,-793,349,618
,1112,2023-10-27 12:00:01.77,135,-286,-2018,31,1,5,-336,-664,328,500
