// Data mode  : Full
// Data quality  : High
// Acceleration sensor's range  : 16g
// Gyroscope sensor's range  : 2000dps
//
//ARTIFACT,NUM,DATE,ACC_X,ACC_Y,ACC_Z,GYRO_X,GYRO_Y,GYRO_Z,EOG_L,EOG_R,EOG_H,EOG_V
,1,2023-10-27 10:28:59.35,-78,-24,-2062,-14,-14,13,-145,364,-509,-109
,2,2023-10-27 10:28:59.36,-81,-23,-2052,-10,-16,12,170,33,137,-101
,3,2023-10-27 10:28:59.37,-64,-20,-2052,-10,-18,14,-159,347,-506,-94
,4,2023-10-27 10:28:59.38,-77,-17,-2060,-10,-21,16,165,9,156,-87
,5,2023-10-27 10:28:59.39,-92,-13,-2066,-9,-26,20,-164,333,-497,-84
,6,2023-10-27 10:28:59.40,-89,-17,-2057,-10,-26,22,172,-2,174,-85
,7,2023-10-27 10:28:59.41,-86,-14,-2051,-15,-26,24,-150,334,-484,-92
,8,2023-10-27 10:28:59.42,-77,-9,-2064,-15,-28,24,185,17,168,-101
,9,2023-10-27 10:28:59.43,-74,-9,-2065,-16,-23,27,-153,379,-532,-113
,10,2023-10-27 10:28:59.44,-83,-4,-2060,-18,-21,25,182,26,156,-104
,11,2023-10-27 10:28:59.45,-85,-10,-2059,-18,-22,24,-155,354,-509,-99
,12,2023-10-27 10:28:59.46,-96,0,-2060,-18,-17,26,188,-4,192,-92
,13,2023-10-27 10:28:59.47,-95,4,-2060,-18,-17,25,-157,338,-495,-90
,14,2023-10-27 10:28:59.48,-85,2,-2058,-17,-17,22,185,13,172,-99
,15,2023-10-27 10:28:59.49,-91,6,-2052,-17,-14,20,-170,375,-545,-102
,16,2023-10-27 10:28:59.50,-80,8,-2047,-15,-10,16,170,20,150,-95
,17,2023-10-27 10:28:59.51,-82,5,-2053,-11,-5,13,-191,356,-547,-82
,18,2023-10-27 10:28:59.52,-91,-3,-2054,-5,-4,12,161,14,147,-87
,19,2023-10-27 10:28:59.53,-86,0,-2042,2,0,9,-195,364,-559,-84
,20,2023-10-27 10:28:59.54,-84,-1,-2043,6,3,8,168,2,166,-85
,21,2023-10-27 10:28:59.55,-75,-17,-2048,14,6,9,-178,336,-514,-79
,22,2023-10-27 10:28:59.56,-85,-21,-2055,22,9,8,190,1,189,-95
,23,2023-10-27 10:28:59.57,-79,-25,-2041,33,11,15,-160,368,-528,-104
,24,2023-10-27 10:28:59.58,-68,-34,-2041,40,9,19,189,21,168,-105
,25,2023-10-27 10:28:59.59,-66,-21,-2047,48,11,21,-181,356,-537,-87
,26,2023-10-27 10:28:59.60,-66,-20,-2059,55,10,26,187,5,182,-96
,27,2023-10-27 10:28:59.61,-82,-20,-2063,53,8,30,-151,350,-501,-99
,28,2023-10-27 10:28:59.62,-79,-27,-2074,50,1,34,204,16,188,-110
,29,2023-10-27 10:28:59.63,-81,-28,-2075,42,-5,39,-170,357,-527,-93
,30,2023-10-27 10:28:59.64,-90,-34,-2074,36,-13,42,193,17,176,-105
,31,2023-10-27 10:28:59.65,-97,-36,-2072,33,-21,48,-155,359,-514,-102
,32,2023-10-27 10:28:59.66,-95,-34,-2061,29,-23,52,205,13,192,-109
,33,2023-10-27 10:28:59.67,-92,-28,-2065,25,-25,55,-158,343,-501,-92
,34,2023-10-27 10:28:59.68,-91,-32,-2069,22,-26,55,190,5,185,-97
,35,2023-10-27 10:28:59.69,-93,-23,-2047,22,-23,54,-170,338,-508,-84
,36,2023-10-27 10:28:59.70,-97,-22,-2049,23,-16,55,192,14,178,-103
,37,2023-10-27 10:28:59.71,-86,-32,-2055,25,-16,50,-147,355,-502,-104
,38,2023-10-27 10:28:59.72,-79,-18,-2053,30,-14,45,210,35,175,-122
,39,2023-10-27 10:28:59.73,-93,-29,-2036,29,-10,40,-137,368,-505,-115
,40,2023-10-27 10:28:59.74,-87,-31,-2045,28,-2,33,203,12,191,-107
,41,2023-10-27 10:28:59.75,-93,-30,-2056,32,9,30,-133,331,-464,-99
,42,2023-10-27 10:28:59.76,-75,-29,-2055,35,16,28,214,18,196,-116
,43,2023-10-27 10:28:59.77,-82,-36,-2060,40,15,27,-141,346,-487,-102
,44,2023-10-27 10:28:59.78,-81,-43,-2055,42,9,29,196,23,173,-109
,45,2023-10-27 10:28:59.79,-86,-43,-2052,44,4,36,-156,336,-492,-90
,46,2023-10-27 10:28:59.80,-86,-48,-2051,39,2,38,164,37,127,-100
,47,2023-10-27 10:28:59.81,-84,-40,-2054,37,-4,41,-192,348,-540,-78
,48,2023-10-27 10:28:59.82,-73,-38,-2048,34,-5,45,147,40,107,-93
,49,2023-10-27 10:28:59.83,-84,-44,-2058,34,-6,52,-180,334,-514,-77
,50,2023-10-27 10:28:59.84,-88,-39,-2053,33,-5,56,164,37,127,-100
,51,2023-10-27 10:28:59.85,-74,-43,-2058,31,-9,60,-160,328,-488,-84
,52,2023-10-27 10:28:59.86,-90,-38,-2069,25,-15,63,173,33,140,-103
,53,2023-10-27 10:28:59.87,-103,-33,-2070,22,-24,63,-153,310,-463,-78
,54,2023-10-27 10:28:59.88,-92,-33,-2066,19,-29,69,184,30,154,-107
,55,2023-10-27 10:28:59.89,-88,-28,-2065,18,-37,70,-131,310,-441,-89
,56,2023-10-27 10:28:59.90,-85,-26,-2066,17,-41,66,204,42,162,-123
,57,2023-10-27 10:28:59.91,-102,-25,-2057,16,-40,62,-105,311,-416,-103
,58,2023-10-27 10:28:59.92,-109,-10,-2056,12,-43,57,204,42,162,-123
,59,2023-10-27 10:28:59.93,-101,-17,-2061,10,-47,49,-116,304,-420,-94
,60,2023-10-27 10:28:59.94,-111,-15,-2048,8,-50,45,158,49,109,-103
,61,2023-10-27 10:28:59.95,-112,-13,-2056,6,-41,39,-162,302,-464,-70
,62,2023-10-27 10:28:59.96,-109,-19,-2055,3,-35,31,128,63,65,-95
,63,2023-10-27 10:28:59.97,-123,-13,-2050,1,-32,26,-163,309,-472,-73
,64,2023-10-27 10:28:59.98,-116,-17,-2047,-1,-27,19,125,73,52,-99
,65,2023-10-27 10:28:59.99,-112,-24,-2034,-1,-22,13,-157,300,-457,-71
,66,2023-10-27 10:29:00.00,-109,-19,-2038,1,-18,8,131,82,49,-106
,67,2023-10-27 10:29:00.01,-97,-18,-2040,4,-9,0,-142,303,-445,-80
,68,2023-10-27 10:29:00.02,-101,-14,-2044,7,-1,-4,128,89,39,-108
,69,2023-10-27 10:29:00.03,-112,-28,-2052,10,5,-8,-142,292,-434,-75
,70,2023-10-27 10:29:00.04,-108,-43,-2051,10,3,-9,118,86,32,-102
,71,2023-10-27 10:29:00.05,-105,-37,-2055,15,1,-7,-139,281,-420,-71
,72,2023-10-27 10:29:00.06,-110,-37,-2054,16,0,-2,116,89,27,-102
,73,2023-10-27 10:29:00.07,-99,-38,-2046,19,-1,6,-128,271,-399,-71
,74,2023-10-27 10:29:00.08,-109,-32,-2050,19,-3,10,114,106,8,-110
,75,2023-10-27 10:29:00.09,-105,-37,-2060,13,-2,13,-121,280,-401,-79
,76,2023-10-27 10:29:00.10,-101,-38,-2059,12,2,19,107,114,-7,-110
,77,2023-10-27 10:29:00.11,-105,-34,-2063,10,2,24,-119,273,-392,-77
,78,2023-10-27 10:29:00.12,-109,-35,-2060,7,2,26,106,121,-15,-113
,79,2023-10-27 10:29:00.13,-113,-30,-2057,7,4,30,-111,264,-375,-76
,80,2023-10-27 10:29:00.14,-107,-28,-2060,10,4,31,97,125,-28,-111
,81,2023-10-27 10:29:00.15,-103,-20,-2057,10,6,29,-113,250,-363,-68
,82,2023-10-27 10:29:00.16,-106,-26,-2055,13,10,26,92,125,-33,-108
,83,2023-10-27 10:29:00.17,-101,-23,-2045,15,11,24,-98,250,-348,-76
,84,2023-10-27 10:29:00.18,-106,-22,-2051,19,15,19,92,139,-47,-115
,85,2023-10-27 10:29:00.19,-122,-26,-2059,19,13,14,-93,242,-335,-74
,86,2023-10-27 10:29:00.20,-100,-24,-2059,22,13,9,82,133,-51,-107
,87,2023-10-27 10:29:00.21,-98,-27,-2056,22,12,4,-85,226,-311,-70
,88,2023-10-27 10:29:00.22,-103,-29,-2055,22,12,3,80,148,-68,-114
,89,2023-10-27 10:29:00.23,-109,-33,-2059,22,8,0,-77,240,-317,-81
,90,2023-10-27 10:29:00.24,-102,-35,-2057,22,6,-3,73,147,-74,-110
,91,2023-10-27 10:29:00.25,-104,-39,-2051,20,5,-5,-64,221,-285,-78
,92,2023-10-27 10:29:00.26,-91,-40,-2051,19,4,-1,69,150,-81,-109
,93,2023-10-27 10:29:00.27,-110,-36,-2051,17,5,-1,-60,215,-275,-77
,94,2023-10-27 10:29:00.28,-104,-42,-2052,14,10,-1,64,174,-110,-119
,95,2023-10-27 10:29:00.29,-99,-35,-2055,10,5,0,-49,218,-267,-84
,96,2023-10-27 10:29:00.30,-105,-33,-2043,11,3,1,64,171,-107,-117
,97,2023-10-27 10:29:00.31,-101,-27,-2045,9,4,3,-34,200,-234,-83
,98,2023-10-27 10:29:00.32,-94,-27,-2050,3,6,2,71,174,-103,-122
,99,2023-10-27 10:29:00.33,-104,-29,-2055,-4,12,-2,-19,200,-219,-90
,100,2023-10-27 10:29:00.34,-93,-23,-2052,-6,13,-5,64,183,-119,-123
,101,2023-10-27 10:29:00.35,-92,-23,-2053,-5,9,-9,-8,188,-196,-90
,102,2023-10-27 10:29:00.36,-95,-23,-2057,-7,12,-12,69,187,-118,-128
,103,2023-10-27 10:29:00.37,-94,-24,-2061,-14,15,-16,2,189,-187,-95
,104,2023-10-27 10:29:00.38,-90,-14,-2067,-16,10,-20,72,195,-123,-133
,105,2023-10-27 10:29:00.39,-94,-19,-2061,-21,8,-25,19,171,-152,-95
,106,2023-10-27 10:29:00.40,-105,-11,-2051,-21,4,-27,60,182,-122,-121
,107,2023-10-27 10:29:00.41,-92,-26,-2046,-16,-2,-28,11,152,-141,-81
,108,2023-10-27 10:29:00.42,-115,-29,-2050,-14,2,-32,36,188,-152,-112
,109,2023-10-27 10:29:00.43,-109,-26,-2046,-12,-4,-36,9,152,-143,-80
,110,2023-10-27 10:29:00.44,-112,-28,-2049,-11,-4,-30,42,204,-162,-123
,111,2023-10-27 10:29:00.45,-120,-27,-2041,-10,-1,-28,33,152,-119,-92
,112,2023-10-27 10:29:00.46,-94,-25,-2042,-7,-4,-27,43,203,-160,-123
,113,2023-10-27 10:29:00.47,-108,-25,-2064,-7,-5,-24,37,141,-104,-89
,114,2023-10-27 10:29:00.48,-98,-13,-2068,-5,-17,-23,21,231,-210,-126
,115,2023-10-27 10:29:00.49,-110,-15,-2053,-11,-9,-25,32,154,-122,-93
,116,2023-10-27 10:29:00.50,-103,-17,-2047,-15,5,-24,6,232,-226,-119
,117,2023-10-27 10:29:00.51,-98,-21,-2050,-14,17,-23,33,140,-107,-86
,118,2023-10-27 10:29:00.52,-108,-14,-2048,-7,20,-23,-9,254,-263,-122
,119,2023-10-27 10:29:00.53,-115,-17,-2060,-5,23,-23,45,156,-111,-100
,120,2023-10-27 10:29:00.54,-118,-27,-2064,-2,21,-25,-10,241,-251,-115
,121,2023-10-27 10:29:00.55,-109,-25,-2070,3,15,-24,54,117,-63,-85
,122,2023-10-27 10:29:00.56,-110,-29,-2057,7,14,-20,4,223,-219,-113
,123,2023-10-27 10:29:00.57,-111,-27,-2055,8,8,-16,84,116,-32,-100
,124,2023-10-27 10:29:00.58,-99,-17,-2039,8,10,-15,6,256,-250,-131
,125,2023-10-27 10:29:00.59,-107,-15,-2025,7,18,-15,82,121,-39,-101
,126,2023-10-27 10:29:00.60,-104,-21,-2036,4,27,-13,-9,266,-275,-128
,127,2023-10-27 10:29:00.61,-104,-25,-2040,6,23,-8,84,113,-29,-98
,128,2023-10-27 10:29:00.62,-108,-24,-2045,11,22,-9,-26,265,-291,-119
,129,2023-10-27 10:29:00.63,-109,-23,-2054,7,25,-8,85,99,-14,-92
,130,2023-10-27 10:29:00.64,-90,-27,-2055,7,27,-8,-17,263,-280,-123
,131,2023-10-27 10:29:00.65,-91,-23,-2054,9,22,-4,106,89,17,-97
,132,2023-10-27 10:29:00.66,-107,-25,-2055,5,31,-5,-12,278,-290,-133
,133,2023-10-27 10:29:00.67,-98,-27,-2038,8,35,-7,114,95,19,-104
,134,2023-10-27 10:29:00.68,-101,-30,-2051,11,31,-6,-19,286,-305,-133
,135,2023-10-27 10:29:00.69,-106,-28,-2057,14,32,-7,128,91,37,-109
,136,2023-10-27 10:29:00.70,-97,-23,-2053,17,25,-6,0,281,-281,-140
,137,2023-10-27 10:29:00.71,-93,-24,-2061,18,25,-4,150,73,77,-111
,138,2023-10-27 10:29:00.72,-106,-30,-2064,17,20,-6,0,279,-279,-139
,139,2023-10-27 10:29:00.73,-105,-28,-2062,17,14,-3,147,75,72,-111
,140,2023-10-27 10:29:00.74,-98,-27,-2062,15,11,0,-47,314,-361,-133
,141,2023-10-27 10:29:00.75,-100,-31,-2045,11,11,-1,117,83,34,-100
,142,2023-10-27 10:29:00.76,-102,-29,-2050,9,9,-2,-68,301,-369,-116
,143,2023-10-27 10:29:00.77,-93,-30,-2059,7,13,0,125,59,66,-92
,144,2023-10-27 10:29:00.78,-102,-26,-2058,4,14,-1,-59,301,-360,-121
,145,2023-10-27 10:29:00.79,-110,-29,-2064,5,12,1,143,66,77,-104
,146,2023-10-27 10:29:00.80,-109,-27,-2064,4,9,1,-38,326,-364,-144
,147,2023-10-27 10:29:00.81,-103,-37,-2058,3,5,2,167,68,99,-117
,148,2023-10-27 10:29:00.82,-108,-25,-2057,2,6,2,-48,325,-373,-138
,149,2023-10-27 10:29:00.83,-113,-30,-2056,1,3,0,162,54,108,-108
,150,2023-10-27 10:29:00.84,-97,-23,-2048,-2,6,-1,-58,308,-366,-125
,151,2023-10-27 10:29:00.85,-98,-15,-2045,-5,8,-1,165,42,123,-103
,152,2023-10-27 10:29:00.86,-110,-20,-2050,-7,9,-3,-76,313,-389,-118
,153,2023-10-27 10:29:00.87,-103,-14,-2051,-12,10,-6,158,48,110,-103
,154,2023-10-27 10:29:00.88,-97,-14,-2042,-13,13,-7,-92,335,-427,-121
,155,2023-10-27 10:29:00.89,-106,-18,-2044,-14,21,-11,158,52,106,-105
,156,2023-10-27 10:29:00.90,-94,-18,-2046,-13,19,-10,-80,335,-415,-127
,157,2023-10-27 10:29:00.91,-100,-7,-2031,-11,25,-12,179,38,141,-108
,158,2023-10-27 10:29:00.92,-89,-24,-2053,-10,24,-12,-81,321,-402,-120
,159,2023-10-27 10:29:00.93,-80,-39,-2051,0,28,-12,180,26,154,-103
,160,2023-10-27 10:29:00.94,-83,-27,-2045,12,28,-9,-73,339,-412,-133
,161,2023-10-27 10:29:00.95,-89,-28,-2057,11,35,-6,196,33,163,-114
,162,2023-10-27 10:29:00.96,-88,-28,-2052,16,35,-6,-68,344,-412,-138
,163,2023-10-27 10:29:00.97,-76,-31,-2056,19,32,-3,199,20,179,-109
,164,2023-10-27 10:29:00.98,-78,-27,-2062,19,34,0,-66,337,-403,-135
,165,2023-10-27 10:29:00.99,-83,-24,-2058,19,31,1,224,20,204,-122
,166,2023-10-27 10:29:01.00,-80,-18,-2058,17,31,4,-54,345,-399,-145
,167,2023-10-27 10:29:01.01,-79,-23,-2058,13,26,8,233,23,210,-128
,168,2023-10-27 10:29:01.02,-82,-27,-2071,10,24,7,-59,346,-405,-143
,169,2023-10-27 10:29:01.03,-88,-23,-2062,6,20,12,234,22,212,-128
,170,2023-10-27 10:29:01.04,-80,-26,-2065,1,15,13,-63,360,-423,-148
,171,2023-10-27 10:29:01.05,-84,-27,-2057,0,13,17,235,14,221,-124
,172,2023-10-27 10:29:01.06,-78,-20,-2054,0,10,22,-76,324,-400,-124
,173,2023-10-27 10:29:01.07,-88,-18,-2052,0,11,22,235,3,232,-119
,174,2023-10-27 10:29:01.08,-79,-16,-2052,-3,8,21,-80,351,-431,-135
,175,2023-10-27 10:29:01.09,-86,-10,-2058,-4,10,19,231,15,216,-123
,176,2023-10-27 10:29:01.10,-89,-16,-2063,-5,11,19,-96,344,-440,-124
,177,2023-10-27 10:29:01.11,-75,-10,-2067,-6,8,16,229,6,223,-117
,178,2023-10-27 10:29:01.12,-92,3,-2063,-6,6,12,-86,352,-438,-133
,179,2023-10-27 10:29:01.13,-82,-1,-2059,-9,2,11,242,6,236,-124
,180,2023-10-27 10:29:01.14,-85,-2,-2051,-11,3,6,-91,342,-433,-125
,181,2023-10-27 10:29:01.15,-90,-10,-2049,-14,3,4,242,-3,245,-119
,182,2023-10-27 10:29:01.16,-98,-9,-2043,-14,5,3,-96,343,-439,-123
,183,2023-10-27 10:29:01.17,-87,-8,-2024,-14,11,3,241,-2,243,-119
,184,2023-10-27 10:29:01.18,-91,-17,-2041,-11,19,2,-101,342,-443,-120
,185,2023-10-27 10:29:01.19,-88,-10,-2052,-6,24,2,245,-5,250,-120
,186,2023-10-27 10:29:01.20,-74,-7,-2055,-2,28,2,-97,339,-436,-121
,187,2023-10-27 10:29:01.21,-69,-9,-2042,-5,45,-1,248,-6,254,-121
,188,2023-10-27 10:29:01.22,-75,-16,-2038,-3,68,1,-97,338,-435,-120
,189,2023-10-27 10:29:01.23,-72,-34,-2052,-1,83,0,250,-3,253,-123
,190,2023-10-27 10:29:01.24,-66,-28,-2062,9,85,0,-95,348,-443,-126
,191,2023-10-27 10:29:01.25,-81,-16,-2073,28,72,-1,255,8,247,-131
,192,2023-10-27 10:29:01.26,-76,-15,-2074,29,52,-1,-99,362,-461,-131
,193,2023-10-27 10:29:01.27,-74,-19,-2075,27,45,5,253,5,248,-129
,194,2023-10-27 10:29:01.28,-71,-18,-2067,26,37,7,-104,347,-451,-121
,195,2023-10-27 10:29:01.29,-77,-14,-2061,21,34,4,250,-9,259,-120
,196,2023-10-27 10:29:01.30,-69,-9,-2042,12,29,0,-104,332,-436,-114
,197,2023-10-27 10:29:01.31,-60,-4,-2050,4,25,-4,252,4,248,-128
,198,2023-10-27 10:29:01.32,-77,3,-2056,1,18,-7,-112,365,-477,-126
,199,2023-10-27 10:29:01.33,-63,5,-2057,-3,11,-11,248,7,241,-127
,200,2023-10-27 10:29:01.34,-66,-13,-2056,-11,4,-14,-107,334,-441,-113
,201,2023-10-27 10:29:01.35,-74,-17,-2053,-16,6,-19,270,-1,271,-134
,202,2023-10-27 10:29:01.36,-75,-18,-2057,-14,3,-18,-95,333,-428,-119
,203,2023-10-27 10:29:01.37,-81,-15,-2054,-18,3,-18,254,9,245,-131
,204,2023-10-27 10:29:01.38,-81,-8,-2062,-16,2,-18,-120,336,-456,-108
,205,2023-10-27 10:29:01.39,-77,-2,-2048,-17,4,-17,255,2,253,-128
,206,2023-10-27 10:29:01.40,-60,-12,-2057,-17,7,-17,-90,327,-417,-118
,207,2023-10-27 10:29:01.41,-77,-1,-2057,-19,11,-15,251,-9,260,-121
,208,2023-10-27 10:29:01.42,-63,-3,-2056,-17,16,-17,-108,329,-437,-110
,209,2023-10-27 10:29:01.43,-78,-3,-2060,-16,18,-16,243,15,228,-129
,210,2023-10-27 10:29:01.44,-70,-3,-2065,-10,15,-16,-108,348,-456,-120
,211,2023-10-27 10:29:01.45,-66,-7,-2060,-4,14,-16,250,15,235,-132
,212,2023-10-27 10:29:01.46,-62,-6,-2061,-2,15,-20,-104,325,-429,-110
,213,2023-10-27 10:29:01.47,-65,-5,-2056,5,18,-16,245,5,240,-125
,214,2023-10-27 10:29:01.48,-63,-9,-2050,10,18,-13,-109,322,-431,-106
,215,2023-10-27 10:29:01.49,-68,-14,-2057,17,21,-14,233,22,211,-127
,216,2023-10-27 10:29:01.50,-69,-20,-2068,22,19,-9,-114,334,-448,-110
,217,2023-10-27 10:29:01.51,-72,-22,-2074,28,12,-2,234,16,218,-125
,218,2023-10-27 10:29:01.52,-81,-24,-2064,32,9,10,-104,316,-420,-106
,219,2023-10-27 10:29:01.53,-70,-23,-2057,31,4,14,241,10,231,-125
,220,2023-10-27 10:29:01.54,-65,-11,-2058,31,3,19,-95,307,-402,-106
,221,2023-10-27 10:29:01.55,-58,-14,-2052,29,3,20,248,38,210,-143
,222,2023-10-27 10:29:01.56,-74,0,-2048,25,9,18,-87,345,-432,-129
,223,2023-10-27 10:29:01.57,-73,-1,-2037,18,13,15,235,49,186,-142
,224,2023-10-27 10:29:01.58,-62,-7,-2042,18,14,12,-100,318,-418,-109
,225,2023-10-27 10:29:01.59,-62,-12,-2046,17,18,8,236,22,214,-129
,226,2023-10-27 10:29:01.60,-69,-14,-2050,18,20,4,-86,299,-385,-106
,227,2023-10-27 10:29:01.61,-72,-14,-2058,21,28,4,236,23,213,-129
,228,2023-10-27 10:29:01.62,-68,-16,-2052,22,29,3,-88,291,-379,-101
,229,2023-10-27 10:29:01.63,-59,-24,-2070,22,28,7,226,32,194,-129
,230,2023-10-27 10:29:01.64,-68,-22,-2060,23,27,10,-87,298,-385,-105
,231,2023-10-27 10:29:01.65,-61,-24,-2061,17,28,12,219,46,173,-132
,232,2023-10-27 10:29:01.66,-54,-15,-2071,12,26,15,-90,293,-383,-101
,233,2023-10-27 10:29:01.67,-49,-15,-2071,6,24,18,211,45,166,-128
,234,2023-10-27 10:29:01.68,-57,-8,-2068,1,24,19,-91,290,-381,-99
,235,2023-10-27 10:29:01.69,-55,-6,-2059,-5,23,15,205,56,149,-130
,236,2023-10-27 10:29:01.70,-60,-2,-2062,-11,25,16,-82,289,-371,-103
,237,2023-10-27 10:29:01.71,-46,-8,-2048,-11,23,13,214,57,157,-135
,238,2023-10-27 10:29:01.72,-42,-10,-2059,-7,23,13,-66,278,-344,-106
,239,2023-10-27 10:29:01.73,-48,-19,-2056,1,29,13,210,63,147,-136
,240,2023-10-27 10:29:01.74,-36,-15,-2061,9,23,16,-71,274,-345,-101
,241,2023-10-27 10:29:01.75,-45,-16,-2060,14,19,15,208,73,135,-140
,242,2023-10-27 10:29:01.76,-46,-22,-2060,20,10,17,-41,282,-323,-120
,243,2023-10-27 10:29:01.77,-57,-16,-2057,24,2,20,200,82,118,-141
,244,2023-10-27 10:29:01.78,-51,-11,-2059,22,0,21,-63,265,-328,-101
,245,2023-10-27 10:29:01.79,-50,-8,-2054,21,-5,25,183,71,112,-127
,246,2023-10-27 10:29:01.80,-52,1,-2053,19,-13,26,-53,255,-308,-101
,247,2023-10-27 10:29:01.81,-56,-1,-2054,7,-11,23,188,80,108,-134
,248,2023-10-27 10:29:01.82,-68,-1,-2056,0,-16,20,-53,233,-286,-90
,249,2023-10-27 10:29:01.83,-60,-3,-2050,-7,-15,18,181,85,96,-133
,250,2023-10-27 10:29:01.84,-60,-8,-2046,-10,-11,15,-41,243,-284,-101
,251,2023-10-27 10:29:01.85,-65,-8,-2054,-10,-11,10,178,98,80,-138
,252,2023-10-27 10:29:01.86,-62,-9,-2052,-10,-5,8,-36,236,-272,-100
,253,2023-10-27 10:29:01.87,-57,-10,-2048,-6,0,5,170,99,71,-134
,254,2023-10-27 10:29:01.88,-69,-12,-2057,-1,1,6,-32,230,-262,-99
,255,2023-10-27 10:29:01.89,-78,-5,-2065,3,-3,7,156,111,45,-133
,256,2023-10-27 10:29:01.90,-64,1,-2068,3,-6,3,-35,227,-262,-96
,257,2023-10-27 10:29:01.91,-61,-3,-2063,-1,0,-2,150,126,24,-138
,258,2023-10-27 10:29:01.92,-66,-5,-2065,1,9,-2,-27,227,-254,-100
,259,2023-10-27 10:29:01.93,-51,-2,-2070,4,17,-2,153,121,32,-137
,260,2023-10-27 10:29:01.94,-63,-4,-2070,7,22,0,-12,208,-220,-98
,261,2023-10-27 10:29:01.95,-68,-12,-2066,7,14,-2,151,128,23,-139
,262,2023-10-27 10:29:01.96,-73,-22,-2066,10,9,7,-4,204,-208,-100
,263,2023-10-27 10:29:01.97,-65,-27,-2060,12,0,12,138,137,1,-137
,264,2023-10-27 10:29:01.98,-79,-28,-2046,15,-2,19,-6,199,-205,-96
,265,2023-10-27 10:29:01.99,-71,-13,-2050,17,0,26,136,138,-2,-137
,266,2023-10-27 10:29:02.00,-77,-10,-2049,15,2,33,10,188,-178,-99
,267,2023-10-27 10:29:02.01,-66,-3,-2051,12,3,37,135,143,-8,-139
,268,2023-10-27 10:29:02.02,-69,-3,-2053,9,6,36,16,183,-167,-99
,269,2023-10-27 10:29:02.03,-65,-4,-2051,5,5,38,120,157,-37,-138
,270,2023-10-27 10:29:02.04,-60,-3,-2065,3,4,37,20,176,-156,-98
,271,2023-10-27 10:29:02.05,-71,-8,-2064,4,4,37,116,153,-37,-134
,272,2023-10-27 10:29:02.06,-60,-1,-2063,9,0,40,24,166,-142,-95
,273,2023-10-27 10:29:02.07,-63,-7,-2056,12,1,38,103,157,-54,-130
,274,2023-10-27 10:29:02.08,-69,-2,-2056,13,-3,36,29,158,-129,-93
,275,2023-10-27 10:29:02.09,-66,0,-2056,17,-1,38,94,176,-82,-135
,276,2023-10-27 10:29:02.10,-66,-7,-2054,17,-2,38,30,158,-128,-94
,277,2023-10-27 10:29:02.11,-59,-3,-2065,17,1,37,92,175,-83,-133
,278,2023-10-27 10:29:02.12,-66,-5,-2053,20,3,38,47,144,-97,-95
,279,2023-10-27 10:29:02.13,-74,-7,-2059,20,4,38,102,181,-79,-141
,280,2023-10-27 10:29:02.14,-74,-4,-2060,17,-1,36,62,145,-83,-103
,281,2023-10-27 10:29:02.15,-69,1,-2051,17,-3,33,81,210,-129,-145
,282,2023-10-27 10:29:02.16,-63,-4,-2052,18,4,35,58,154,-96,-106
,283,2023-10-27 10:29:02.17,-65,0,-2051,15,8,33,92,209,-117,-150
,284,2023-10-27 10:29:02.18,-64,7,-2047,11,11,28,72,127,-55,-99
,285,2023-10-27 10:29:02.19,-70,0,-2049,9,14,22,73,194,-121,-133
,286,2023-10-27 10:29:02.20,-69,-5,-2060,6,10,19,59,110,-51,-84
,287,2023-10-27 10:29:02.21,-74,-2,-2057,8,10,17,57,221,-164,-139
,288,2023-10-27 10:29:02.22,-63,-7,-2061,8,7,16,77,128,-51,-102
,289,2023-10-27 10:29:02.23,-63,-14,-2056,10,7,15,51,231,-180,-141
,290,2023-10-27 10:29:02.24,-56,-6,-2047,6,7,15,80,119,-39,-99
,291,2023-10-27 10:29:02.25,-54,-4,-2051,9,13,12,33,223,-190,-128
,292,2023-10-27 10:29:02.26,-55,-4,-2047,9,15,14,68,101,-33,-84
,293,2023-10-27 10:29:02.27,-54,-4,-2052,10,21,15,30,229,-199,-129
,294,2023-10-27 10:29:02.28,-55,5,-2052,9,18,14,95,102,-7,-98
,295,2023-10-27 10:29:02.29,-66,-6,-2054,10,20,14,35,242,-207,-138
,296,2023-10-27 10:29:02.30,-54,-6,-2056,12,18,16,106,101,5,-103
,297,2023-10-27 10:29:02.31,-46,-11,-2058,13,13,20,25,246,-221,-135
,298,2023-10-27 10:29:02.32,-56,-11,-2059,15,8,20,111,97,14,-104
,299,2023-10-27 10:29:02.33,-53,-7,-2061,18,4,25,26,255,-229,-140
,300,2023-10-27 10:29:02.34,-59,-8,-2063,22,0,30,121,90,31,-105
,301,2023-10-27 10:29:02.35,-60,-8,-2066,22,-1,32,10,252,-242,-131
,302,2023-10-27 10:29:02.36,-57,-6,-2069,23,-9,32,117,78,39,-97
,303,2023-10-27 10:29:02.37,-63,-9,-2067,20,-10,34,6,262,-256,-134
,304,2023-10-27 10:29:02.38,-58,0,-2061,14,-10,37,130,73,57,-101
,305,2023-10-27 10:29:02.39,-62,-15,-2055,11,-11,35,6,260,-254,-133
,306,2023-10-27 10:29:02.40,-73,-7,-2061,5,-9,35,140,70,70,-105
,307,2023-10-27 10:29:02.41,-63,-9,-2054,0,-7,35,-2,279,-281,-138
,308,2023-10-27 10:29:02.42,-74,-7,-2061,-1,-6,33,142,78,64,-110
,309,2023-10-27 10:29:02.43,-73,-2,-2057,-1,-7,35,-14,291,-305,-138
,310,2023-10-27 10:29:02.44,-69,-4,-2068,-1,-5,34,147,71,76,-109
,311,2023-10-27 10:29:02.45,-75,-8,-2058,-3,-6,36,-3,285,-288,-141
,312,2023-10-27 10:29:02.46,-71,-1,-2063,1,-7,34,165,61,104,-113
,313,2023-10-27 10:29:02.47,-71,-3,-2059,4,-8,33,-7,288,-295,-140
,314,2023-10-27 10:29:02.48,-62,5,-2057,9,-9,29,167,54,113,-110
,315,2023-10-27 10:29:02.49,-61,0,-2059,12,-12,25,-24,296,-320,-136
,316,2023-10-27 10:29:02.50,-71,9,-2057,14,-15,27,161,54,107,-107
,317,2023-10-27 10:29:02.51,-74,11,-2055,11,-14,23,-33,300,-333,-133
,318,2023-10-27 10:29:02.52,-73,5,-2060,11,-16,22,173,48,125,-110
,319,2023-10-27 10:29:02.53,-73,1,-2058,14,-19,20,-34,309,-343,-137
,320,2023-10-27 10:29:02.54,-76,-4,-2054,13,-16,19,177,48,129,-112
,321,2023-10-27 10:29:02.55,-85,-2,-2057,13,-16,18,-41,317,-358,-138
,322,2023-10-27 10:29:02.56,-91,-10,-2052,12,-6,20,185,51,134,-118
,323,2023-10-27 10:29:02.57,-79,-1,-2050,14,-4,21,-38,325,-363,-143
,324,2023-10-27 10:29:02.58,-74,-4,-2042,13,3,24,202,52,150,-127
,325,2023-10-27 10:29:02.59,-79,-4,-2040,12,12,23,-47,314,-361,-133
,326,2023-10-27 10:29:02.60,-80,-7,-2046,12,18,21,194,32,162,-113
,327,2023-10-27 10:29:02.61,-77,-6,-2056,16,19,21,-57,308,-365,-125
,328,2023-10-27 10:29:02.62,-76,-4,-2057,16,16,20,200,28,172,-114
,329,2023-10-27 10:29:02.63,-56,0,-2050,15,19,16,-49,324,-373,-137
,330,2023-10-27 10:29:02.64,-56,-4,-2041,20,27,12,208,34,174,-121
,331,2023-10-27 10:29:02.65,-57,1,-2057,24,31,10,-68,333,-401,-132
,332,2023-10-27 10:29:02.66,-55,0,-2066,28,33,7,201,24,177,-112
,333,2023-10-27 10:29:02.67,-54,-3,-2062,29,32,6,-79,318,-397,-119
,334,2023-10-27 10:29:02.68,-48,-13,-2066,26,24,5,205,19,186,-112
,335,2023-10-27 10:29:02.69,-63,-16,-2056,27,14,8,-76,324,-400,-124
,336,2023-10-27 10:29:02.70,-63,-18,-2059,26,5,11,210,10,200,-110
,337,2023-10-27 10:29:02.71,-53,-7,-2056,21,3,13,-75,325,-400,-125
,338,2023-10-27 10:29:02.72,-60,-6,-2050,15,3,15,216,15,201,-115
,339,2023-10-27 10:29:02.73,-62,-4,-2049,8,3,17,-76,342,-418,-133
,340,2023-10-27 10:29:02.74,-60,-6,-2049,1,3,19,224,19,205,-121
,341,2023-10-27 10:29:02.75,-62,-5,-2059,-6,1,17,-76,349,-425,-136
,342,2023-10-27 10:29:02.76,-67,-20,-2060,-7,-2,17,226,17,209,-121
,343,2023-10-27 10:29:02.77,-71,-21,-2063,-3,-6,20,-86,336,-422,-125
,344,2023-10-27 10:29:02.78,-69,-12,-2063,1,-8,24,223,5,218,-114
,345,2023-10-27 10:29:02.79,-62,-10,-2059,7,-10,28,-92,347,-439,-127
,346,2023-10-27 10:29:02.80,-60,-8,-2048,9,-8,31,224,13,211,-118
,347,2023-10-27 10:29:02.81,-65,-2,-2041,13,-6,30,-107,347,-454,-120
,348,2023-10-27 10:29:02.82,-63,4,-2053,10,-4,27,219,9,210,-114
,349,2023-10-27 10:29:02.83,-55,0,-2056,7,-5,29,-99,349,-448,-125
,350,2023-10-27 10:29:02.84,-71,2,-2056,7,-1,25,231,7,224,-119
,351,2023-10-27 10:29:02.85,-65,-9,-2053,7,2,23,-101,340,-441,-119
,352,2023-10-27 10:29:02.86,-74,-7,-2063,11,1,24,229,-3,232,-113
,353,2023-10-27 10:29:02.87,-71,-5,-2057,13,-3,22,-104,343,-447,-119
,354,2023-10-27 10:29:02.88,-84,-4,-2059,17,1,21,231,7,224,-119
,355,2023-10-27 10:29:02.89,-67,-14,-2052,16,4,20,-110,358,-468,-124
,356,2023-10-27 10:29:02.90,-72,-4,-2048,17,8,21,234,10,224,-122
,357,2023-10-27 10:29:02.91,-56,-2,-2048,18,15,18,-102,360,-462,-129
,358,2023-10-27 10:29:02.92,-72,-2,-2055,11,17,14,243,4,239,-123
,359,2023-10-27 10:29:02.93,-50,-8,-2061,12,18,13,-111,343,-454,-116
,360,2023-10-27 10:29:02.94,-60,-6,-2061,13,17,12,239,-2,241,-118
,361,2023-10-27 10:29:02.95,-64,-11,-2061,13,12,11,-104,346,-450,-121
,362,2023-10-27 10:29:02.96,-73,-6,-2063,14,9,12,246,-3,249,-121
,363,2023-10-27 10:29:02.97,-58,-6,-2060,13,6,12,-112,338,-450,-113
,364,2023-10-27 10:29:02.98,-61,-5,-2051,12,8,13,243,-8,251,-117
,365,2023-10-27 10:29:02.99,-64,-5,-2053,11,8,10,-97,354,-451,-128
,366,2023-10-27 10:29:03.00,-49,-3,-2049,11,10,11,247,1,246,-124
,367,2023-10-27 10:29:03.01,-69,-6,-2053,12,10,11,-108,348,-456,-120
,368,2023-10-27 10:29:03.02,-57,-12,-2059,12,8,15,246,-8,254,-119
,369,2023-10-27 10:29:03.03,-56,-14,-2062,13,5,21,-108,346,-454,-119
,370,2023-10-27 10:29:03.04,-68,-16,-2057,16,1,25,250,6,244,-128
,371,2023-10-27 10:29:03.05,-52,-14,-2059,13,3,29,-107,350,-457,-121
,372,2023-10-27 10:29:03.06,-60,-10,-2060,16,4,33,253,3,250,-128
,373,2023-10-27 10:29:03.07,-71,-8,-2057,14,2,36,-108,338,-446,-115
,374,2023-10-27 10:29:03.08,-64,1,-2062,13,2,37,230,-8,238,-111
,375,2023-10-27 10:29:03.09,-65,-6,-2055,12,0,37,-117,337,-454,-110
,376,2023-10-27 10:29:03.10,-56,2,-2062,11,0,39,234,8,226,-121
,377,2023-10-27 10:29:03.11,-61,3,-2060,12,-5,35,-124,337,-461,-106
,378,2023-10-27 10:29:03.12,-56,-2,-2057,13,-2,36,238,4,234,-121
,379,2023-10-27 10:29:03.13,-63,13,-2059,13,-3,33,-106,335,-441,-114
,380,2023-10-27 10:29:03.14,-66,5,-2059,15,-6,31,244,16,228,-130
,381,2023-10-27 10:29:03.15,-66,4,-2060,16,-8,26,-115,341,-456,-113
,382,2023-10-27 10:29:03.16,-56,1,-2059,17,-10,23,235,13,222,-124
,383,2023-10-27 10:29:03.17,-66,-12,-2060,20,-12,22,-114,326,-440,-106
,384,2023-10-27 10:29:03.18,-67,-13,-2055,21,-11,25,234,9,225,-121
,385,2023-10-27 10:29:03.19,-70,-10,-2060,22,-9,28,-116,323,-439,-103
,386,2023-10-27 10:29:03.20,-65,-15,-2052,25,-8,32,230,16,214,-123
,387,2023-10-27 10:29:03.21,-75,-20,-2054,26,-5,33,-112,330,-442,-109
,388,2023-10-27 10:29:03.22,-67,-17,-2053,26,-4,39,232,23,209,-127
,389,2023-10-27 10:29:03.23,-71,-17,-2052,23,-1,42,-103,321,-424,-109
,390,2023-10-27 10:29:03.24,-66,0,-2054,24,1,40,232,13,219,-122
,391,2023-10-27 10:29:03.25,-61,2,-2060,26,3,39,-104,309,-413,-102
,392,2023-10-27 10:29:03.26,-72,3,-2066,29,3,38,228,35,193,-131
,393,2023-10-27 10:29:03.27,-72,6,-2064,25,-3,31,-110,332,-442,-111
,394,2023-10-27 10:29:03.28,-69,-8,-2060,22,-8,26,222,36,186,-129
,395,2023-10-27 10:29:03.29,-76,-4,-2065,20,-9,22,-104,309,-413,-102
,396,2023-10-27 10:29:03.30,-70,-10,-2059,20,-12,19,228,26,202,-127
,397,2023-10-27 10:29:03.31,-72,-11,-2054,20,-10,19,-94,300,-394,-103
,398,2023-10-27 10:29:03.32,-73,-19,-2051,21,-9,21,230,49,181,-139
,399,2023-10-27 10:29:03.33,-71,-12,-2040,18,-6,21,-86,319,-405,-116
,400,2023-10-27 10:29:03.34,-67,-13,-2051,13,-6,24,212,45,167,-128
,401,2023-10-27 10:29:03.35,-61,-14,-2056,11,-8,25,-104,288,-392,-92
,402,2023-10-27 10:29:03.36,-69,-8,-2046,11,-7,29,200,35,165,-117
,403,2023-10-27 10:29:03.37,-69,-19,-2050,8,0,31,-99,292,-391,-96
,404,2023-10-27 10:29:03.38,-76,-16,-2052,9,-2,34,202,72,130,-137
,405,2023-10-27 10:29:03.39,-57,-16,-2058,11,-3,37,-93,314,-407,-110
,406,2023-10-27 10:29:03.40,-55,-7,-2058,9,3,32,213,84,129,-148
,407,2023-10-27 10:29:03.41,-59,-6,-2058,11,9,30,-94,311,-405,-108
,408,2023-10-27 10:29:03.42,-58,-6,-2064,17,9,30,112,87,25,-99
,409,2023-10-27 10:29:03.43,-58,2,-2076,19,10,31,-189,280,-469,-45
,410,2023-10-27 10:29:03.44,-81,-7,-2081,18,5,27,85,81,4,-83
