// Data mode  : Full
// Data quality  : High
// Acceleration sensor's range  : 16g
// Gyroscope sensor's range  : 2000dps
//
//ARTIFACT,NUM,DATE,ACC_X,ACC_Y,ACC_Z,GYRO_X,GYRO_Y,GYRO_Z,EOG_L,EOG_R,EOG_H,EOG_V
,1,2023-10-27 12:19:20.82,274,-262,-2036,4,-15,38,-355,-2,-353,178
,2,2023-10-27 12:19:20.83,267,-264,-2026,1,-30,21,-395,128,-523,133
,3,2023-10-27 12:19:20.84,271,-262,-2028,4,-1,26,-336,9,-345,163
,4,2023-10-27 12:19:20.85,284,-260,-2031,4,-5,30,-389,134,-523,127
,5,2023-10-27 12:19:20.86,271,-261,-2028,7,-29,37,-342,4,-346,169
,6,2023-10-27 12:19:20.87,277,-261,-2039,7,-27,21,-407,128,-535,139
,7,2023-10-27 12:19:20.88,268,-264,-2027,6,-31,23,-353,-5,-348,179
,8,2023-10-27 12:19:20.89,266,-259,-2029,13,4,50,-414,129,-543,142
,9,2023-10-27 12:19:20.90,260,-260,-2029,8,-30,49,-337,14,-351,161
,10,2023-10-27 12:19:20.91,262,-264,-2032,6,-25,41,-406,122,-528,142
,11,2023-10-27 12:19:20.92,268,-265,-2029,7,-9,37,-324,9,-333,157
,12,2023-10-27 12:19:20.93,269,-261,-2029,8,-7,50,-400,128,-528,136
,13,2023-10-27 12:19:20.94,273,-267,-2030,2,-35,38,-317,16,-333,150
,14,2023-10-27 12:19:20.95,264,-249,-2028,5,-35,39,-401,135,-536,133
,15,2023-10-27 12:19:20.96,260,-255,-2029,4,4,39,-312,26,-338,143
,16,2023-10-27 12:19:20.97,254,-255,-2025,8,8,57,-394,129,-523,132
,17,2023-10-27 12:19:20.98,259,-255,-2038,3,-26,40,-303,21,-324,141
,18,2023-10-27 12:19:20.99,260,-247,-2029,2,-16,25,-394,128,-522,133
,19,2023-10-27 12:19:21.00,249,-254,-2035,5,8,37,-296,26,-322,135
,20,2023-10-27 12:19:21.01,246,-250,-2034,3,-19,25,-400,115,-515,142
,21,2023-10-27 12:19:21.02,256,-253,-2035,2,-34,13,-300,13,-313,143
,22,2023-10-27 12:19:21.03,258,-254,-2029,9,1,23,-407,113,-520,147
,23,2023-10-27 12:19:21.04,265,-256,-2029,11,-9,29,-290,17,-307,136
,24,2023-10-27 12:19:21.05,258,-261,-2022,12,-13,19,-375,116,-491,129
,25,2023-10-27 12:19:21.06,262,-262,-2026,9,-14,8,-250,30,-280,110
,26,2023-10-27 12:19:21.07,246,-261,-2026,11,6,10,-362,125,-487,118
,27,2023-10-27 12:19:21.08,254,-268,-2027,14,8,24,-259,36,-295,111
,28,2023-10-27 12:19:21.09,250,-269,-2040,12,-13,25,-395,117,-512,139
,29,2023-10-27 12:19:21.10,257,-267,-2027,12,-14,15,-288,30,-318,129
,30,2023-10-27 12:19:21.11,260,-261,-2025,16,23,28,-433,115,-548,159
,31,2023-10-27 12:19:21.12,255,-253,-2027,13,20,31,-308,42,-350,133
,32,2023-10-27 12:19:21.13,261,-259,-2032,6,-1,19,-432,127,-559,152
,33,2023-10-27 12:19:21.14,257,-256,-2034,0,-10,0,-296,46,-342,125
,34,2023-10-27 12:19:21.15,261,-261,-2034,1,13,8,-437,117,-554,160
,35,2023-10-27 12:19:21.16,260,-258,-2034,5,36,20,-302,46,-348,128
,36,2023-10-27 12:19:21.17,258,-261,-2026,8,24,26,-444,124,-568,160
,37,2023-10-27 12:19:21.18,251,-256,-2030,4,-3,5,-304,51,-355,126
,38,2023-10-27 12:19:21.19,256,-250,-2026,-3,0,0,-454,117,-571,168
,39,2023-10-27 12:19:21.20,255,-251,-2026,2,22,22,-308,50,-358,129
,40,2023-10-27 12:19:21.21,264,-249,-2029,-3,23,5,-459,115,-574,172
,41,2023-10-27 12:19:21.22,264,-256,-2033,-4,11,13,-308,52,-360,128
,42,2023-10-27 12:19:21.23,260,-257,-2035,-5,-8,10,-453,114,-567,169
,43,2023-10-27 12:19:21.24,264,-256,-2038,-4,-1,1,-296,60,-356,118
,44,2023-10-27 12:19:21.25,265,-255,-2039,0,22,26,-448,116,-564,166
,45,2023-10-27 12:19:21.26,264,-248,-2028,1,-4,24,-279,76,-355,101
,46,2023-10-27 12:19:21.27,261,-259,-2028,0,-20,11,-444,112,-556,166
,47,2023-10-27 12:19:21.28,258,-256,-2037,2,-5,9,-286,64,-350,111
,48,2023-10-27 12:19:21.29,255,-269,-2042,13,-3,44,-458,92,-550,183
,49,2023-10-27 12:19:21.30,254,-267,-2037,10,-36,30,-285,67,-352,109
,50,2023-10-27 12:19:21.31,261,-274,-2032,23,4,51,-444,108,-552,168
,51,2023-10-27 12:19:21.32,273,-269,-2038,21,0,62,-280,74,-354,103
,52,2023-10-27 12:19:21.33,259,-270,-2032,21,-48,55,-451,98,-549,176
,53,2023-10-27 12:19:21.34,265,-270,-2022,22,-26,49,-283,64,-347,109
,54,2023-10-27 12:19:21.35,261,-271,-2021,28,0,69,-454,90,-544,182
,55,2023-10-27 12:19:21.36,261,-272,-2016,35,-2,82,-270,74,-344,98
,56,2023-10-27 12:19:21.37,257,-277,-2020,30,-28,62,-422,101,-523,160
,57,2023-10-27 12:19:21.38,264,-273,-2025,33,9,69,-252,74,-326,89
,58,2023-10-27 12:19:21.39,257,-264,-2012,35,6,59,-442,92,-534,175
,59,2023-10-27 12:19:21.40,260,-267,-2014,41,22,80,-272,78,-350,97
,60,2023-10-27 12:19:21.41,264,-265,-2028,36,-26,61,-438,89,-527,174
,61,2023-10-27 12:19:21.42,259,-264,-2030,36,-17,49,-258,77,-335,90
,62,2023-10-27 12:19:21.43,255,-265,-2031,34,-2,40,-431,96,-527,167
,63,2023-10-27 12:19:21.44,261,-262,-2028,36,20,52,-251,96,-347,77
,64,2023-10-27 12:19:21.45,247,-271,-2033,32,-16,45,-424,103,-527,160
,65,2023-10-27 12:19:21.46,264,-270,-2037,29,-19,36,-259,97,-356,81
,66,2023-10-27 12:19:21.47,253,-267,-2032,27,-16,25,-447,107,-554,170
,67,2023-10-27 12:19:21.48,259,-261,-2029,25,33,39,-254,105,-359,74
,68,2023-10-27 12:19:21.49,250,-260,-2035,18,13,38,-409,97,-506,156
,69,2023-10-27 12:19:21.50,254,-260,-2030,10,-21,16,-237,98,-335,69
,70,2023-10-27 12:19:21.51,255,-259,-2033,6,-25,0,-434,90,-524,172
,71,2023-10-27 12:19:21.52,257,-264,-2028,5,6,13,-267,98,-365,84
,72,2023-10-27 12:19:21.53,243,-262,-2024,2,21,11,-454,94,-548,180
,73,2023-10-27 12:19:21.54,252,-264,-2031,3,1,15,-275,108,-383,83
,74,2023-10-27 12:19:21.55,254,-267,-2031,-6,-34,-8,-453,91,-544,181
,75,2023-10-27 12:19:21.56,261,-269,-2033,-7,-28,-5,-270,106,-376,82
,76,2023-10-27 12:19:21.57,256,-268,-2023,-5,12,2,-457,94,-551,181
,77,2023-10-27 12:19:21.58,255,-263,-2027,-1,17,3,-290,114,-404,88
,78,2023-10-27 12:19:21.59,255,-263,-2028,-2,15,11,-478,86,-564,196
,79,2023-10-27 12:19:21.60,248,-258,-2032,1,-10,12,-295,105,-400,95
,80,2023-10-27 12:19:21.61,262,-261,-2033,-1,-23,3,-468,83,-551,192
,81,2023-10-27 12:19:21.62,252,-253,-2028,1,4,3,-275,114,-389,80
,82,2023-10-27 12:19:21.63,251,-265,-2037,1,14,11,-447,85,-532,181
,83,2023-10-27 12:19:21.64,266,-257,-2040,4,4,24,-280,118,-398,81
,84,2023-10-27 12:19:21.65,250,-256,-2036,2,-19,28,-471,81,-552,195
,85,2023-10-27 12:19:21.66,258,-255,-2026,-1,-27,15,-292,114,-406,89
,86,2023-10-27 12:19:21.67,243,-262,-2030,-2,-18,4,-463,82,-545,190
,87,2023-10-27 12:19:21.68,249,-262,-2032,1,13,24,-291,114,-405,88
,88,2023-10-27 12:19:21.69,257,-257,-2034,-1,-23,24,-468,72,-540,198
,89,2023-10-27 12:19:21.70,254,-262,-2031,1,-20,25,-298,100,-398,99
,90,2023-10-27 12:19:21.71,260,-258,-2028,0,-9,18,-465,72,-537,196
,91,2023-10-27 12:19:21.72,260,-258,-2027,0,-20,11,-293,126,-419,83
,92,2023-10-27 12:19:21.73,255,-252,-2033,1,8,25,-469,76,-545,196
,93,2023-10-27 12:19:21.74,250,-254,-2036,4,29,31,-294,118,-412,88
,94,2023-10-27 12:19:21.75,243,-249,-2032,3,9,34,-466,65,-531,200
,95,2023-10-27 12:19:21.76,242,-253,-2040,-2,-18,12,-308,115,-423,96
,96,2023-10-27 12:19:21.77,253,-250,-2036,0,-24,9,-472,67,-539,202
,97,2023-10-27 12:19:21.78,263,-252,-2037,5,14,22,-309,122,-431,93
,98,2023-10-27 12:19:21.79,247,-253,-2032,8,20,34,-479,66,-545,206
,99,2023-10-27 12:19:21.80,243,-242,-2027,7,3,24,-311,130,-441,90
,100,2023-10-27 12:19:21.81,261,-254,-2028,3,-33,4,-472,65,-537,203
,101,2023-10-27 12:19:21.82,266,-259,-2027,9,-15,6,-312,128,-440,92
,102,2023-10-27 12:19:21.83,256,-258,-2029,14,23,22,-474,57,-531,208
,103,2023-10-27 12:19:21.84,233,-263,-2025,11,23,11,-319,122,-441,98
,104,2023-10-27 12:19:21.85,247,-256,-2019,13,0,22,-479,40,-519,219
,105,2023-10-27 12:19:21.86,248,-264,-2023,12,-22,-1,-324,118,-442,103
,106,2023-10-27 12:19:21.87,244,-271,-2035,17,-4,3,-477,48,-525,214
,107,2023-10-27 12:19:21.88,244,-262,-2034,23,25,16,-317,129,-446,94
,108,2023-10-27 12:19:21.89,242,-262,-2030,29,25,26,-468,53,-521,207
,109,2023-10-27 12:19:21.90,257,-260,-2027,27,-12,4,-326,134,-460,96
,110,2023-10-27 12:19:21.91,248,-257,-2035,25,1,11,-473,50,-523,211
,111,2023-10-27 12:19:21.92,256,-257,-2033,22,13,-4,-334,128,-462,103
,112,2023-10-27 12:19:21.93,243,-266,-2032,28,57,16,-476,37,-513,219
,113,2023-10-27 12:19:21.94,256,-272,-2030,26,32,12,-312,130,-442,91
,114,2023-10-27 12:19:21.95,253,-266,-2026,22,-4,5,-444,41,-485,201
,115,2023-10-27 12:19:21.96,254,-267,-2024,19,12,3,-338,139,-477,99
,116,2023-10-27 12:19:21.97,256,-254,-2028,18,36,2,-483,52,-535,215
,117,2023-10-27 12:19:21.98,242,-266,-2033,14,34,1,-339,143,-482,98
,118,2023-10-27 12:19:21.99,253,-262,-2037,17,37,12,-454,36,-490,209
,119,2023-10-27 12:19:22.00,260,-272,-2034,16,23,10,-333,125,-458,104
,120,2023-10-27 12:19:22.01,256,-272,-2035,16,9,8,-461,22,-483,219
,121,2023-10-27 12:19:22.02,255,-270,-2035,14,-10,-12,-327,119,-446,104
,122,2023-10-27 12:19:22.03,250,-270,-2036,15,2,-5,-440,15,-455,212
,123,2023-10-27 12:19:22.04,251,-272,-2033,20,18,11,-347,121,-468,113
,124,2023-10-27 12:19:22.05,254,-266,-2034,21,15,5,-466,27,-493,219
,125,2023-10-27 12:19:22.06,257,-266,-2030,19,6,16,-351,143,-494,104
,126,2023-10-27 12:19:22.07,253,-274,-2026,24,32,30,-450,38,-488,206
,127,2023-10-27 12:19:22.08,264,-270,-2034,21,3,14,-338,153,-491,92
,128,2023-10-27 12:19:22.09,254,-277,-2030,19,-15,9,-444,25,-469,209
,129,2023-10-27 12:19:22.10,258,-275,-2027,22,5,13,-344,128,-472,108
,130,2023-10-27 12:19:22.11,243,-280,-2039,28,28,33,-448,4,-452,222
,131,2023-10-27 12:19:22.12,255,-279,-2035,29,21,31,-355,130,-485,112
,132,2023-10-27 12:19:22.13,258,-268,-2028,29,-14,24,-443,20,-463,211
,133,2023-10-27 12:19:22.14,255,-263,-2029,29,-15,12,-343,136,-479,103
,134,2023-10-27 12:19:22.15,254,-283,-2026,31,0,20,-427,22,-449,202
,135,2023-10-27 12:19:22.16,262,-269,-2024,36,34,35,-344,142,-486,101
,136,2023-10-27 12:19:22.17,252,-267,-2021,41,2,38,-429,9,-438,210
,137,2023-10-27 12:19:22.18,263,-275,-2014,39,-1,21,-352,136,-488,108
,138,2023-10-27 12:19:22.19,256,-273,-2022,38,-15,12,-424,20,-444,202
,139,2023-10-27 12:19:22.20,254,-274,-2031,41,27,16,-343,137,-480,103
,140,2023-10-27 12:19:22.21,261,-281,-2026,47,38,30,-398,12,-410,193
,141,2023-10-27 12:19:22.22,253,-279,-2029,50,28,26,-329,132,-461,98
,142,2023-10-27 12:19:22.23,253,-283,-2025,45,-11,10,-395,8,-403,193
,143,2023-10-27 12:19:22.24,246,-285,-2028,45,-10,3,-363,141,-504,111
,144,2023-10-27 12:19:22.25,251,-281,-2030,50,32,19,-425,24,-449,200
,145,2023-10-27 12:19:22.26,253,-278,-2022,43,12,0,-358,144,-502,107
,146,2023-10-27 12:19:22.27,262,-280,-2017,42,37,11,-394,13,-407,190
,147,2023-10-27 12:19:22.28,258,-278,-2022,37,53,12,-367,132,-499,117
,148,2023-10-27 12:19:22.29,259,-286,-2017,31,38,9,-411,0,-411,205
,149,2023-10-27 12:19:22.30,260,-281,-2025,30,30,9,-381,134,-515,123
,150,2023-10-27 12:19:22.31,267,-286,-2022,25,19,2,-407,15,-422,196
,151,2023-10-27 12:19:22.32,253,-288,-2026,24,28,-13,-364,151,-515,106
,152,2023-10-27 12:19:22.33,261,-282,-2030,23,33,-11,-387,14,-401,186
,153,2023-10-27 12:19:22.34,275,-288,-2025,24,53,0,-365,132,-497,116
,154,2023-10-27 12:19:22.35,266,-287,-2026,23,16,-2,-383,1,-384,191
,155,2023-10-27 12:19:22.36,259,-285,-2027,20,12,-9,-381,132,-513,124
,156,2023-10-27 12:19:22.37,274,-279,-2023,17,22,-24,-400,8,-408,196
,157,2023-10-27 12:19:22.38,264,-287,-2019,19,53,-12,-388,140,-528,124
,158,2023-10-27 12:19:22.39,261,-281,-2027,21,41,-1,-387,9,-396,189
,159,2023-10-27 12:19:22.40,255,-287,-2029,22,35,1,-396,126,-522,135
,160,2023-10-27 12:19:22.41,268,-286,-2027,20,10,-14,-393,-4,-389,198
,161,2023-10-27 12:19:22.42,259,-291,-2033,23,27,-14,-368,125,-493,121
,162,2023-10-27 12:19:22.43,266,-296,-2028,26,30,-7,-344,0,-344,172
,163,2023-10-27 12:19:22.44,260,-290,-2024,30,32,8,-369,125,-494,122
,164,2023-10-27 12:19:22.45,277,-291,-2025,33,10,15,-363,-3,-360,183
,165,2023-10-27 12:19:22.46,263,-286,-2026,26,-1,4,-380,131,-511,124
,166,2023-10-27 12:19:22.47,270,-289,-2025,26,-8,-6,-358,3,-361,177
,167,2023-10-27 12:19:22.48,270,-293,-2029,27,12,3,-377,131,-508,123
,168,2023-10-27 12:19:22.49,263,-297,-2035,27,19,24,-338,12,-350,163
,169,2023-10-27 12:19:22.50,269,-291,-2028,24,22,26,-360,138,-498,111
,170,2023-10-27 12:19:22.51,266,-286,-2026,22,3,28,-321,15,-336,153
,171,2023-10-27 12:19:22.52,271,-282,-2029,18,-20,13,-363,132,-495,115
,172,2023-10-27 12:19:22.53,271,-286,-2022,12,-8,13,-325,14,-339,155
,173,2023-10-27 12:19:22.54,263,-278,-2021,13,23,20,-387,136,-523,125
,174,2023-10-27 12:19:22.55,271,-290,-2027,16,38,32,-348,4,-352,172
,175,2023-10-27 12:19:22.56,273,-282,-2026,11,-10,19,-372,126,-498,123
,176,2023-10-27 12:19:22.57,263,-284,-2020,14,18,28,-302,5,-307,148
,177,2023-10-27 12:19:22.58,270,-283,-2017,10,1,25,-356,127,-483,114
,178,2023-10-27 12:19:22.59,260,-286,-2018,14,1,36,-303,8,-311,147
,179,2023-10-27 12:19:22.60,267,-296,-2023,16,4,28,-378,130,-508,124
,180,2023-10-27 12:19:22.61,273,-304,-2035,13,-24,11,-312,16,-328,148
,181,2023-10-27 12:19:22.62,273,-292,-2028,18,2,18,-368,134,-502,117
,182,2023-10-27 12:19:22.63,270,-287,-2021,24,12,31,-296,16,-312,140
,183,2023-10-27 12:19:22.64,270,-286,-2020,24,24,34,-390,134,-524,128
,184,2023-10-27 12:19:22.65,270,-287,-2035,16,-5,13,-323,20,-343,151
,185,2023-10-27 12:19:22.66,259,-287,-2030,16,0,-1,-418,122,-540,148
,186,2023-10-27 12:19:22.67,270,-285,-2024,19,27,11,-327,9,-336,159
,187,2023-10-27 12:19:22.68,262,-293,-2019,18,27,30,-400,120,-520,140
,188,2023-10-27 12:19:22.69,272,-292,-2021,15,12,27,-312,15,-327,148
,189,2023-10-27 12:19:22.70,270,-280,-2019,10,11,10,-428,122,-550,153
,190,2023-10-27 12:19:22.71,276,-276,-2021,5,0,9,-335,17,-352,159
,191,2023-10-27 12:19:22.72,264,-280,-2028,4,9,8,-428,123,-551,152
,192,2023-10-27 12:19:22.73,268,-287,-2034,2,42,15,-320,23,-343,148
,193,2023-10-27 12:19:22.74,283,-284,-2023,5,37,19,-427,123,-550,152
,194,2023-10-27 12:19:22.75,265,-294,-2033,6,16,25,-318,28,-346,145
,195,2023-10-27 12:19:22.76,280,-285,-2030,9,-16,13,-426,132,-558,147
,196,2023-10-27 12:19:22.77,271,-292,-2024,12,11,14,-311,35,-346,138
,197,2023-10-27 12:19:22.78,275,-289,-2031,13,11,14,-427,127,-554,150
,198,2023-10-27 12:19:22.79,269,-292,-2018,17,19,24,-304,34,-338,135
,199,2023-10-27 12:19:22.80,273,-290,-2024,14,-4,23,-426,114,-540,156
,200,2023-10-27 12:19:22.81,273,-287,-2025,14,-11,18,-303,23,-326,140
,201,2023-10-27 12:19:22.82,265,-293,-2027,11,-5,5,-432,115,-547,158
,202,2023-10-27 12:19:22.83,270,-290,-2025,12,14,12,-312,37,-349,137
,203,2023-10-27 12:19:22.84,273,-296,-2027,12,1,18,-454,116,-570,169
,204,2023-10-27 12:19:22.85,273,-294,-2025,12,27,27,-329,32,-361,148
,205,2023-10-27 12:19:22.86,274,-288,-2024,9,-1,23,-467,112,-579,177
,206,2023-10-27 12:19:22.87,268,-286,-2024,7,-20,9,-323,43,-366,140
,207,2023-10-27 12:19:22.88,278,-292,-2023,8,-4,13,-455,119,-574,168
,208,2023-10-27 12:19:22.89,273,-298,-2034,11,22,23,-312,51,-363,130
,209,2023-10-27 12:19:22.90,275,-293,-2025,14,19,24,-448,129,-577,159
,210,2023-10-27 12:19:22.91,285,-287,-2018,15,-2,24,-310,47,-357,131
,211,2023-10-27 12:19:22.92,280,-289,-2018,17,-12,22,-464,109,-573,177
,212,2023-10-27 12:19:22.93,276,-293,-2024,18,-3,11,-311,43,-354,134
,213,2023-10-27 12:19:22.94,279,-291,-2022,22,28,20,-447,115,-562,166
,214,2023-10-27 12:19:22.95,271,-303,-2025,25,21,22,-292,58,-350,117
,215,2023-10-27 12:19:22.96,282,-298,-2025,28,-9,24,-458,115,-573,171
,216,2023-10-27 12:19:22.97,279,-308,-2028,27,-26,12,-295,68,-363,113
,217,2023-10-27 12:19:22.98,271,-303,-2033,32,-5,23,-440,110,-550,165
,218,2023-10-27 12:19:22.99,279,-304,-2025,31,5,19,-283,53,-336,115
,219,2023-10-27 12:19:23.00,276,-299,-2013,31,12,32,-450,108,-558,171
,220,2023-10-27 12:19:23.01,267,-296,-2025,23,-20,15,-288,70,-358,109
,221,2023-10-27 12:19:23.02,272,-296,-2021,18,-14,20,-450,123,-573,163
,222,2023-10-27 12:19:23.03,271,-298,-2024,19,15,20,-298,81,-379,108
,223,2023-10-27 12:19:23.04,268,-301,-2022,17,26,26,-472,121,-593,175
,224,2023-10-27 12:19:23.05,279,-297,-2017,15,3,22,-310,81,-391,114
,225,2023-10-27 12:19:23.06,285,-302,-2023,18,20,32,-478,109,-587,184
,226,2023-10-27 12:19:23.07,278,-298,-2026,17,-3,27,-309,71,-380,119
,227,2023-10-27 12:19:23.08,277,-289,-2024,13,-14,17,-480,98,-578,191
,228,2023-10-27 12:19:23.09,287,-301,-2018,16,-7,17,-309,76,-385,116
,229,2023-10-27 12:19:23.10,284,-297,-2025,17,11,30,-480,100,-580,190
,230,2023-10-27 12:19:23.11,283,-302,-2020,21,20,31,-303,78,-381,112
,231,2023-10-27 12:19:23.12,284,-302,-2025,24,5,33,-470,94,-564,188
,232,2023-10-27 12:19:23.13,273,-307,-2026,27,-6,37,-292,79,-371,106
,233,2023-10-27 12:19:23.14,284,-301,-2030,27,-4,37,-467,92,-559,187
,234,2023-10-27 12:19:23.15,269,-306,-2027,27,-41,29,-284,84,-368,100
,235,2023-10-27 12:19:23.16,279,-303,-2026,30,-29,35,-441,102,-543,169
,236,2023-10-27 12:19:23.17,276,-300,-2027,29,-11,38,-265,100,-365,82
,237,2023-10-27 12:19:23.18,259,-300,-2027,32,3,50,-456,107,-563,174
,238,2023-10-27 12:19:23.19,270,-305,-2026,30,-20,51,-287,103,-390,92
,239,2023-10-27 12:19:23.20,270,-309,-2025,30,-18,61,-466,104,-570,181
,240,2023-10-27 12:19:23.21,265,-305,-2023,28,-23,53,-288,99,-387,94
,241,2023-10-27 12:19:23.22,267,-302,-2022,25,-47,42,-470,89,-559,190
,242,2023-10-27 12:19:23.23,263,-309,-2021,25,-26,51,-292,93,-385,99
,243,2023-10-27 12:19:23.24,260,-304,-2018,28,-7,54,-476,89,-565,193
,244,2023-10-27 12:19:23.25,264,-309,-2028,27,-6,61,-302,100,-402,101
,245,2023-10-27 12:19:23.26,269,-306,-2016,24,-29,53,-489,95,-584,197
,246,2023-10-27 12:19:23.27,257,-307,-2030,28,-16,65,-310,108,-418,101
,247,2023-10-27 12:19:23.28,265,-300,-2021,24,-36,52,-489,90,-579,199
,248,2023-10-27 12:19:23.29,266,-309,-2022,25,-18,45,-303,100,-403,101
,249,2023-10-27 12:19:23.30,258,-303,-2013,25,-11,53,-479,80,-559,199
,250,2023-10-27 12:19:23.31,249,-308,-2013,28,-7,73,-298,110,-408,94
,251,2023-10-27 12:19:23.32,254,-313,-2016,29,-10,69,-484,77,-561,203
,252,2023-10-27 12:19:23.33,252,-315,-2025,26,-24,55,-317,100,-417,108
,253,2023-10-27 12:19:23.34,258,-310,-2019,33,6,60,-498,69,-567,214
,254,2023-10-27 12:19:23.35,264,-306,-2019,34,13,71,-316,105,-421,105
,255,2023-10-27 12:19:23.36,266,-298,-2025,32,19,67,-492,68,-560,212
,256,2023-10-27 12:19:23.37,250,-306,-2025,27,-10,46,-323,102,-425,110
,257,2023-10-27 12:19:23.38,259,-306,-2019,26,-12,35,-501,74,-575,213
,258,2023-10-27 12:19:23.39,261,-303,-2021,27,20,48,-322,112,-434,105
,259,2023-10-27 12:19:23.40,254,-307,-2021,24,-2,28,-490,71,-561,209
,260,2023-10-27 12:19:23.41,251,-304,-2024,24,23,35,-320,108,-428,106
,261,2023-10-27 12:19:23.42,245,-298,-2019,24,29,44,-493,67,-560,213
,262,2023-10-27 12:19:23.43,261,-305,-2021,23,27,38,-323,115,-438,104
,263,2023-10-27 12:19:23.44,258,-306,-2026,15,-9,26,-499,66,-565,216
,264,2023-10-27 12:19:23.45,255,-308,-2031,8,-16,8,-331,117,-448,107
,265,2023-10-27 12:19:23.46,261,-302,-2029,13,2,14,-500,66,-566,217
,266,2023-10-27 12:19:23.47,248,-311,-2028,15,20,17,-325,116,-441,104
,267,2023-10-27 12:19:23.48,262,-309,-2021,16,4,18,-487,62,-549,212
,268,2023-10-27 12:19:23.49,255,-308,-2018,19,17,33,-328,123,-451,102
,269,2023-10-27 12:19:23.50,245,-312,-2020,18,-2,29,-490,73,-563,208
,270,2023-10-27 12:19:23.51,256,-317,-2027,15,-22,18,-331,131,-462,100
,271,2023-10-27 12:19:23.52,254,-312,-2021,13,-27,11,-500,63,-563,218
,272,2023-10-27 12:19:23.53,272,-313,-2028,17,12,23,-346,126,-472,110
,273,2023-10-27 12:19:23.54,261,-316,-2026,14,-7,11,-499,65,-564,217
,274,2023-10-27 12:19:23.55,253,-317,-2031,14,-1,13,-343,136,-479,103
,275,2023-10-27 12:19:23.56,266,-314,-2026,14,19,16,-496,68,-564,214
,276,2023-10-27 12:19:23.57,256,-320,-2025,15,8,20,-346,135,-481,105
,277,2023-10-27 12:19:23.58,262,-305,-2021,15,24,22,-497,56,-553,220
,278,2023-10-27 12:19:23.59,249,-309,-2021,17,31,29,-342,133,-475,104
,279,2023-10-27 12:19:23.60,253,-319,-2017,17,-4,18,-482,56,-538,213
,280,2023-10-27 12:19:23.61,256,-318,-2029,18,23,29,-348,134,-482,107
,281,2023-10-27 12:19:23.62,260,-315,-2018,25,0,26,-495,51,-546,222
,282,2023-10-27 12:19:23.63,270,-328,-2014,26,-9,28,-349,133,-482,108
,283,2023-10-27 12:19:23.64,260,-314,-2011,26,-10,19,-481,50,-531,215
,284,2023-10-27 12:19:23.65,256,-323,-2019,26,-19,7,-338,141,-479,98
,285,2023-10-27 12:19:23.66,255,-318,-2023,30,-1,5,-479,62,-541,208
,286,2023-10-27 12:19:23.67,268,-328,-2021,36,15,20,-360,148,-508,106
,287,2023-10-27 12:19:23.68,257,-330,-2020,35,22,13,-490,52,-542,219
,288,2023-10-27 12:19:23.69,254,-329,-2023,39,24,27,-358,135,-493,111
,289,2023-10-27 12:19:23.70,249,-323,-2027,38,-17,23,-473,45,-518,214
,290,2023-10-27 12:19:23.71,267,-330,-2024,34,-22,21,-356,147,-503,104
,291,2023-10-27 12:19:23.72,249,-323,-2025,33,-1,20,-480,63,-543,208
,292,2023-10-27 12:19:23.73,257,-321,-2015,28,-11,12,-365,149,-514,108
,293,2023-10-27 12:19:23.74,253,-328,-2013,25,9,20,-473,42,-515,215
,294,2023-10-27 12:19:23.75,249,-326,-2016,26,26,30,-346,125,-471,110
,295,2023-10-27 12:19:23.76,253,-330,-2012,25,20,36,-452,32,-484,210
,296,2023-10-27 12:19:23.77,260,-324,-2022,16,-11,13,-338,138,-476,100
,297,2023-10-27 12:19:23.78,252,-326,-2019,15,-8,14,-445,38,-483,203
,298,2023-10-27 12:19:23.79,254,-327,-2024,15,13,20,-349,142,-491,103
,299,2023-10-27 12:19:23.80,257,-323,-2025,18,45,37,-456,32,-488,212
,300,2023-10-27 12:19:23.81,264,-321,-2028,16,31,32,-354,138,-492,108
,301,2023-10-27 12:19:23.82,260,-320,-2028,13,-1,32,-441,26,-467,207
,302,2023-10-27 12:19:23.83,258,-325,-2024,11,-6,30,-356,131,-487,112
,303,2023-10-27 12:19:23.84,258,-321,-2026,8,7,22,-448,22,-470,213
,304,2023-10-27 12:19:23.85,264,-312,-2026,9,-12,15,-355,140,-495,107
,305,2023-10-27 12:19:23.86,257,-319,-2026,11,0,15,-429,28,-457,200
,306,2023-10-27 12:19:23.87,250,-325,-2019,13,13,23,-360,146,-506,107
,307,2023-10-27 12:19:23.88,258,-324,-2021,15,14,32,-442,29,-471,206
,308,2023-10-27 12:19:23.89,258,-321,-2018,16,-10,32,-356,147,-503,104
,309,2023-10-27 12:19:23.90,256,-323,-2015,15,-35,24,-418,27,-445,195
,310,2023-10-27 12:19:23.91,262,-332,-2024,14,-30,22,-359,141,-500,109
,311,2023-10-27 12:19:23.92,257,-324,-2019,17,-9,15,-430,19,-449,205
,312,2023-10-27 12:19:23.93,253,-326,-2021,18,-5,25,-375,139,-514,118
,313,2023-10-27 12:19:23.94,256,-328,-2027,19,2,40,-430,11,-441,209
,314,2023-10-27 12:19:23.95,258,-323,-2021,21,4,39,-378,142,-520,118
,315,2023-10-27 12:19:23.96,253,-318,-2022,18,-10,31,-426,29,-455,198
,316,2023-10-27 12:19:23.97,255,-326,-2023,17,-16,15,-384,159,-543,112
,317,2023-10-27 12:19:23.98,249,-321,-2022,18,7,18,-426,23,-449,201
,318,2023-10-27 12:19:23.99,255,-324,-2020,19,31,33,-382,142,-524,120
,319,2023-10-27 12:19:24.00,263,-324,-2025,24,30,41,-416,16,-432,200
,320,2023-10-27 12:19:24.01,254,-324,-2022,25,13,26,-384,145,-529,119
,321,2023-10-27 12:19:24.02,259,-318,-2020,26,-1,27,-411,18,-429,196
,322,2023-10-27 12:19:24.03,256,-318,-2015,25,-6,21,-380,144,-524,118
,323,2023-10-27 12:19:24.04,249,-333,-2020,24,8,10,-398,21,-419,188
,324,2023-10-27 12:19:24.05,257,-322,-2025,27,4,8,-386,155,-541,115
,325,2023-10-27 12:19:24.06,258,-335,-2022,29,19,16,-405,23,-428,191
,326,2023-10-27 12:19:24.07,252,-333,-2020,36,15,29,-390,139,-529,125
,327,2023-10-27 12:19:24.08,251,-337,-2019,31,4,20,-396,2,-398,197
,328,2023-10-27 12:19:24.09,249,-331,-2014,27,-20,9,-385,127,-512,129
,329,2023-10-27 12:19:24.10,260,-341,-2013,24,-7,3,-392,-4,-388,198
,330,2023-10-27 12:19:24.11,252,-340,-2022,28,11,20,-390,130,-520,130
,331,2023-10-27 12:19:24.12,245,-347,-2021,25,27,31,-388,6,-394,191
,332,2023-10-27 12:19:24.13,258,-344,-2021,26,10,26,-390,144,-534,123
,333,2023-10-27 12:19:24.14,265,-338,-2019,25,-11,30,-384,7,-391,188
,334,2023-10-27 12:19:24.15,263,-336,-2013,22,-7,24,-399,138,-537,130
,335,2023-10-27 12:19:24.16,259,-337,-2021,15,12,10,-379,8,-387,185
,336,2023-10-27 12:19:24.17,260,-332,-2022,16,18,14,-396,142,-538,127
,337,2023-10-27 12:19:24.18,262,-343,-2025,16,23,21,-377,13,-390,182
,338,2023-10-27 12:19:24.19,250,-342,-2019,20,38,28,-415,142,-557,136
,339,2023-10-27 12:19:24.20,265,-335,-2015,16,17,26,-382,8,-390,187
,340,2023-10-27 12:19:24.21,255,-336,-2025,11,-10,12,-402,129,-531,136
,341,2023-10-27 12:19:24.22,263,-325,-2024,4,-14,12,-363,4,-367,179
,342,2023-10-27 12:19:24.23,260,-324,-2016,3,8,12,-406,133,-539,136
,343,2023-10-27 12:19:24.24,260,-327,-2021,2,30,12,-364,12,-376,176
,344,2023-10-27 12:19:24.25,261,-329,-2024,-2,22,15,-414,130,-544,142
,345,2023-10-27 12:19:24.26,254,-337,-2023,1,14,26,-366,4,-370,181
,346,2023-10-27 12:19:24.27,255,-335,-2019,1,9,20,-422,128,-550,147
,347,2023-10-27 12:19:24.28,259,-335,-2019,-1,-14,10,-363,9,-372,177
,348,2023-10-27 12:19:24.29,260,-339,-2026,0,-25,15,-407,128,-535,139
,349,2023-10-27 12:19:24.30,262,-332,-2022,2,-23,7,-346,9,-355,168
,350,2023-10-27 12:19:24.31,247,-335,-2018,5,3,10,-418,132,-550,143
,351,2023-10-27 12:19:24.32,259,-331,-2021,3,-4,9,-352,13,-365,169
,352,2023-10-27 12:19:24.33,258,-331,-2020,4,18,24,-421,126,-547,147
,353,2023-10-27 12:19:24.34,256,-332,-2026,8,17,35,-350,6,-356,172
,354,2023-10-27 12:19:24.35,266,-330,-2024,7,12,29,-432,130,-562,151
,355,2023-10-27 12:19:24.36,251,-337,-2024,7,-12,28,-358,18,-376,170
,356,2023-10-27 12:19:24.37,255,-334,-2026,6,8,23,-444,133,-577,155
,357,2023-10-27 12:19:24.38,247,-330,-2026,8,9,34,-362,16,-378,173
,358,2023-10-27 12:19:24.39,250,-320,-2016,8,-7,22,-455,134,-589,160
,359,2023-10-27 12:19:24.40,256,-336,-2010,6,-24,11,-359,27,-386,166
,360,2023-10-27 12:19:24.41,257,-340,-2029,6,-27,9,-450,138,-588,156
,361,2023-10-27 12:19:24.42,249,-336,-2019,12,-11,12,-359,32,-391,163
,362,2023-10-27 12:19:24.43,262,-339,-2014,16,10,14,-460,138,-598,161
,363,2023-10-27 12:19:24.44,257,-333,-2015,16,10,17,-354,28,-382,163
,364,2023-10-27 12:19:24.45,258,-330,-2023,20,6,28,-466,132,-598,167
,365,2023-10-27 12:19:24.46,251,-341,-2028,24,21,23,-353,30,-383,161
,366,2023-10-27 12:19:24.47,260,-341,-2020,20,-8,21,-447,124,-571,161
,367,2023-10-27 12:19:24.48,250,-337,-2020,15,-32,7,-331,24,-355,153
,368,2023-10-27 12:19:24.49,254,-337,-2021,15,-1,19,-444,124,-568,160
,369,2023-10-27 12:19:24.50,238,-335,-2031,12,-21,16,-332,28,-360,152
,370,2023-10-27 12:19:24.51,257,-335,-2026,11,-25,16,-455,123,-578,166
,371,2023-10-27 12:19:24.52,259,-335,-2016,6,-17,10,-337,31,-368,153
,372,2023-10-27 12:19:24.53,241,-331,-2013,1,-23,6,-471,127,-598,172
,373,2023-10-27 12:19:24.54,250,-335,-2023,-1,7,15,-349,47,-396,151
,374,2023-10-27 12:19:24.55,251,-334,-2012,2,29,23,-487,128,-615,179
,375,2023-10-27 12:19:24.56,252,-341,-2018,-1,0,14,-353,42,-395,155
,376,2023-10-27 12:19:24.57,267,-338,-2016,-2,6,14,-487,116,-603,185
,377,2023-10-27 12:19:24.58,250,-332,-2026,2,24,27,-342,34,-376,154
,378,2023-10-27 12:19:24.59,260,-337,-2023,0,-5,27,-468,105,-573,181
,379,2023-10-27 12:19:24.60,262,-330,-2018,0,1,28,-328,28,-356,150
,380,2023-10-27 12:19:24.61,258,-324,-2020,-3,-10,17,-468,117,-585,175
,381,2023-10-27 12:19:24.62,257,-330,-2024,-4,-9,4,-334,49,-383,142
,382,2023-10-27 12:19:24.63,260,-333,-2025,-1,-1,17,-488,122,-610,183
,383,2023-10-27 12:19:24.64,251,-326,-2028,-2,4,10,-338,52,-390,143
,384,2023-10-27 12:19:24.65,262,-324,-2027,3,12,15,-476,116,-592,180
,385,2023-10-27 12:19:24.66,255,-331,-2028,8,11,31,-321,51,-372,135
,386,2023-10-27 12:19:24.67,258,-328,-2027,8,13,22,-474,118,-592,178
,387,2023-10-27 12:19:24.68,259,-324,-2025,8,-20,20,-330,65,-395,132
,388,2023-10-27 12:19:24.69,259,-331,-2020,11,-35,18,-493,122,-615,185
,389,2023-10-27 12:19:24.70,249,-335,-2029,13,-19,18,-334,61,-395,136
,390,2023-10-27 12:19:24.71,246,-330,-2022,13,-36,17,-490,108,-598,191
,391,2023-10-27 12:19:24.72,250,-338,-2021,14,-29,9,-319,61,-380,129
,392,2023-10-27 12:19:24.73,251,-340,-2016,15,2,22,-476,111,-587,182
,393,2023-10-27 12:19:24.74,246,-330,-2017,11,-13,14,-314,65,-379,124
,394,2023-10-27 12:19:24.75,248,-338,-2016,15,16,37,-478,108,-586,185
,395,2023-10-27 12:19:24.76,244,-337,-2016,15,1,45,-310,66,-376,122
,396,2023-10-27 12:19:24.77,249,-336,-2020,12,-1,37,-470,104,-574,183
,397,2023-10-27 12:19:24.78,246,-340,-2010,9,-25,34,-300,72,-372,114
,398,2023-10-27 12:19:24.79,251,-334,-2016,8,-21,30,-477,117,-594,180
,399,2023-10-27 12:19:24.80,248,-331,-2018,6,12,34,-309,88,-397,110
,400,2023-10-27 12:19:24.81,245,-332,-2017,5,10,29,-481,112,-593,184
,401,2023-10-27 12:19:24.82,249,-332,-2026,5,12,40,-314,74,-388,120
,402,2023-10-27 12:19:24.83,242,-326,-2020,5,11,44,-482,101,-583,190
,403,2023-10-27 12:19:24.84,256,-324,-2024,6,9,34,-308,82,-390,113
,404,2023-10-27 12:19:24.85,258,-327,-2013,4,-12,32,-484,103,-587,190
,405,2023-10-27 12:19:24.86,255,-334,-2021,6,-3,29,-305,82,-387,111
,406,2023-10-27 12:19:24.87,260,-328,-2017,5,-27,12,-476,100,-576,188
,407,2023-10-27 12:19:24.88,242,-329,-2016,5,-13,10,-295,93,-388,101
,408,2023-10-27 12:19:24.89,241,-333,-2018,7,-21,3,-467,114,-581,176
,409,2023-10-27 12:19:24.90,242,-336,-2017,5,-8,3,-289,101,-390,94
,410,2023-10-27 12:19:24.91,244,-330,-2015,10,5,13,-472,110,-582,181
,411,2023-10-27 12:19:24.92,252,-331,-2019,10,20,15,-307,100,-407,103
,412,2023-10-27 12:19:24.93,245,-335,-2005,10,17,18,-492,102,-594,195
,413,2023-10-27 12:19:24.94,240,-338,-2007,7,-11,9,-315,95,-410,110
,414,2023-10-27 12:19:24.95,244,-337,-2017,7,-6,16,-489,104,-593,192
,415,2023-10-27 12:19:24.96,232,-337,-2026,6,-7,4,-305,104,-409,100
,416,2023-10-27 12:19:24.97,254,-339,-2018,11,13,7,-479,94,-573,192
,417,2023-10-27 12:19:24.98,252,-335,-2025,12,21,16,-312,98,-410,107
,418,2023-10-27 12:19:24.99,252,-334,-2023,9,27,21,-500,92,-592,204
,419,2023-10-27 12:19:25.00,247,-334,-2031,6,0,15,-318,104,-422,107
,420,2023-10-27 12:19:25.01,257,-331,-2019,6,0,8,-492,80,-572,206
,421,2023-10-27 12:19:25.02,249,-327,-2016,0,-12,3,-302,104,-406,99
,422,2023-10-27 12:19:25.03,252,-330,-2012,-2,4,6,-479,88,-567,195
,423,2023-10-27 12:19:25.04,248,-330,-2018,-6,27,16,-304,111,-415,96
,424,2023-10-27 12:19:25.05,253,-328,-2011,-9,25,11,-484,82,-566,201
,425,2023-10-27 12:19:25.06,243,-331,-2024,-11,5,14,-309,108,-417,100
,426,2023-10-27 12:19:25.07,252,-328,-2022,-13,6,17,-487,92,-579,197
,427,2023-10-27 12:19:25.08,245,-334,-2028,-14,8,13,-310,120,-430,95
,428,2023-10-27 12:19:25.09,251,-328,-2022,-13,-4,16,-485,87,-572,199
,429,2023-10-27 12:19:25.10,253,-332,-2024,-12,-6,14,-307,110,-417,98
,430,2023-10-27 12:19:25.11,240,-336,-2020,-12,-20,5,-477,70,-547,203
,431,2023-10-27 12:19:25.12,243,-329,-2021,-10,-17,10,-304,109,-413,97
,432,2023-10-27 12:19:25.13,250,-329,-2024,-10,5,16,-472,74,-546,199
,433,2023-10-27 12:19:25.14,246,-328,-2023,-12,3,17,-297,121,-418,88
,434,2023-10-27 12:19:25.15,246,-324,-2018,-8,2,22,-466,86,-552,190
,435,2023-10-27 12:19:25.16,244,-328,-2022,-8,16,28,-299,130,-429,84
,436,2023-10-27 12:19:25.17,243,-322,-2022,-10,3,27,-473,77,-550,198
,437,2023-10-27 12:19:25.18,240,-322,-2028,-7,-26,13,-303,123,-426,90
,438,2023-10-27 12:19:25.19,242,-321,-2023,-5,-17,17,-465,77,-542,194
,439,2023-10-27 12:19:25.20,249,-323,-2027,-4,-9,10,-303,128,-431,87
,440,2023-10-27 12:19:25.21,252,-324,-2025,0,0,12,-478,76,-554,201
,441,2023-10-27 12:19:25.22,250,-317,-2018,7,-2,18,-325,131,-456,97
,442,2023-10-27 12:19:25.23,261,-321,-2012,11,12,28,-488,76,-564,206
,443,2023-10-27 12:19:25.24,237,-332,-2023,11,-14,21,-325,134,-459,95
,444,2023-10-27 12:19:25.25,248,-324,-2019,12,-22,8,-483,67,-550,208
,445,2023-10-27 12:19:25.26,248,-326,-2005,17,-14,6,-327,126,-453,100
,446,2023-10-27 12:19:25.27,251,-322,-2016,22,9,15,-488,71,-559,208
,447,2023-10-27 12:19:25.28,257,-332,-2027,23,30,22,-342,140,-482,101
,448,2023-10-27 12:19:25.29,261,-332,-2025,17,3,10,-496,64,-560,216
,449,2023-10-27 12:19:25.30,255,-330,-2028,26,7,22,-343,128,-471,107
,450,2023-10-27 12:19:25.31,233,-334,-2025,21,-8,18,-490,61,-551,214
,451,2023-10-27 12:19:25.32,245,-333,-2022,16,-18,-1,-324,141,-465,91
,452,2023-10-27 12:19:25.33,247,-333,-2023,18,-6,11,-464,64,-528,200
,453,2023-10-27 12:19:25.34,239,-329,-2016,15,18,14,-325,137,-462,94
,454,2023-10-27 12:19:25.35,249,-333,-2011,11,33,26,-474,55,-529,209
,455,2023-10-27 12:19:25.36,244,-330,-2020,4,19,22,-332,137,-469,97
,456,2023-10-27 12:19:25.37,238,-327,-2021,2,17,30,-474,46,-520,214
,457,2023-10-27 12:19:25.38,240,-331,-2022,-2,-16,8,-329,129,-458,100
,458,2023-10-27 12:19:25.39,247,-324,-2023,-5,-6,14,-454,37,-491,208
,459,2023-10-27 12:19:25.40,231,-330,-2025,-9,-5,5,-328,125,-453,101
,460,2023-10-27 12:19:25.41,241,-327,-2027,-9,15,5,-467,38,-505,214
,461,2023-10-27 12:19:25.42,243,-326,-2024,-7,-5,6,-343,134,-477,104
,462,2023-10-27 12:19:25.43,239,-326,-2022,-3,28,13,-467,45,-512,211
,463,2023-10-27 12:19:25.44,253,-321,-2027,-3,12,16,-357,132,-489,112
,464,2023-10-27 12:19:25.45,251,-325,-2021,-1,-16,14,-482,43,-525,219
,465,2023-10-27 12:19:25.46,244,-327,-2020,0,-6,16,-347,138,-485,104
,466,2023-10-27 12:19:25.47,251,-324,-2025,-2,-26,1,-448,44,-492,202
,467,2023-10-27 12:19:25.48,240,-327,-2025,-3,-32,-6,-329,139,-468,95
,468,2023-10-27 12:19:25.49,242,-328,-2030,-4,-28,-1,-451,30,-481,210
,469,2023-10-27 12:19:25.50,240,-323,-2026,-1,-21,1,-367,134,-501,116
,470,2023-10-27 12:19:25.51,245,-325,-2020,3,-28,6,-476,33,-509,221
,471,2023-10-27 12:19:25.52,237,-332,-2026,3,7,17,-374,141,-515,116
,472,2023-10-27 12:19:25.53,242,-330,-2022,5,-2,28,-462,31,-493,215
,473,2023-10-27 12:19:25.54,249,-329,-2016,9,-10,33,-364,141,-505,111
,474,2023-10-27 12:19:25.55,240,-329,-2020,7,-10,38,-452,36,-488,208
,475,2023-10-27 12:19:25.56,235,-326,-2021,4,1,33,-355,155,-510,100
,476,2023-10-27 12:19:25.57,235,-318,-2028,4,-5,41,-432,48,-480,192
,477,2023-10-27 12:19:25.58,244,-330,-2022,3,-23,35,-360,162,-522,99
,478,2023-10-27 12:19:25.59,235,-326,-2018,-1,-20,23,-442,45,-487,198
,479,2023-10-27 12:19:25.60,240,-331,-2013,-1,-24,22,-347,155,-502,96
,480,2023-10-27 12:19:25.61,239,-322,-2021,-1,-3,29,-413,32,-445,190
,481,2023-10-27 12:19:25.62,253,-323,-2024,1,9,32,-325,146,-471,89
,482,2023-10-27 12:19:25.63,241,-324,-2028,0,-9,26,-385,25,-410,180
,483,2023-10-27 12:19:25.64,240,-314,-2025,2,7,29,-326,140,-466,93
,484,2023-10-27 12:19:25.65,232,-318,-2019,3,5,33,-393,21,-414,186
,485,2023-10-27 12:19:25.66,229,-325,-2022,7,7,42,-358,145,-503,106
,486,2023-10-27 12:19:25.67,236,-324,-2021,9,-15,34,-423,32,-455,195
,487,2023-10-27 12:19:25.68,234,-318,-2019,8,-33,13,-348,158,-506,95
,488,2023-10-27 12:19:25.69,229,-319,-2018,5,-29,2,-381,31,-412,175
,489,2023-10-27 12:19:25.70,231,-320,-2019,4,-14,9,-344,150,-494,97
,490,2023-10-27 12:19:25.71,228,-323,-2011,7,4,13,-405,22,-427,191
,491,2023-10-27 12:19:25.72,238,-333,-2028,8,2,17,-382,145,-527,118
,492,2023-10-27 12:19:25.73,237,-331,-2029,11,-8,31,-417,17,-434,200
,493,2023-10-27 12:19:25.74,240,-323,-2024,16,-9,26,-378,137,-515,120
,494,2023-10-27 12:19:25.75,241,-326,-2023,12,-38,9,-401,9,-410,196
,495,2023-10-27 12:19:25.76,231,-316,-2015,7,-34,-4,-385,135,-520,125
,496,2023-10-27 12:19:25.77,232,-320,-2028,6,2,7,-412,14,-426,199
,497,2023-10-27 12:19:25.78,228,-329,-2027,9,25,18,-391,136,-527,127
,498,2023-10-27 12:19:25.79,233,-318,-2024,5,13,28,-396,11,-407,192
,499,2023-10-27 12:19:25.80,229,-326,-2016,-1,-21,23,-368,139,-507,114
,500,2023-10-27 12:19:25.81,229,-332,-2015,-4,8,33,-374,7,-381,183
,501,2023-10-27 12:19:25.82,233,-317,-2020,-10,-23,21,-379,143,-522,118
,502,2023-10-27 12:19:25.83,228,-320,-2018,-14,-10,10,-391,20,-411,185
,503,2023-10-27 12:19:25.84,231,-320,-2020,-11,18,26,-386,150,-536,118
,504,2023-10-27 12:19:25.85,238,-321,-2024,-12,21,35,-383,12,-395,185
,505,2023-10-27 12:19:25.86,227,-322,-2028,-13,-12,29,-404,141,-545,131
,506,2023-10-27 12:19:25.87,223,-321,-2029,-18,-43,16,-395,13,-408,191
,507,2023-10-27 12:19:25.88,233,-323,-2030,-10,-27,30,-384,134,-518,125
,508,2023-10-27 12:19:25.89,229,-321,-2031,-11,-41,19,-354,3,-357,175
,509,2023-10-27 12:19:25.90,241,-323,-2029,-10,-26,18,-383,138,-521,122
,510,2023-10-27 12:19:25.91,230,-319,-2028,-5,-1,44,-376,17,-393,179
,511,2023-10-27 12:19:25.92,226,-316,-2023,-2,-3,44,-422,144,-566,139
,512,2023-10-27 12:19:25.93,222,-320,-2025,-9,-38,28,-394,14,-408,190
,513,2023-10-27 12:19:25.94,229,-321,-2022,-11,-30,14,-429,136,-565,146
,514,2023-10-27 12:19:25.95,214,-318,-2022,-8,-15,21,-384,4,-388,190
,515,2023-10-27 12:19:25.96,237,-311,-2035,-6,11,31,-418,127,-545,145
,516,2023-10-27 12:19:25.97,212,-317,-2029,-5,17,38,-371,9,-380,181
,517,2023-10-27 12:19:25.98,234,-312,-2014,-6,-13,32,-423,144,-567,139
,518,2023-10-27 12:19:25.99,224,-313,-2013,-7,-28,27,-372,19,-391,176
,519,2023-10-27 12:19:26.00,222,-319,-2012,-7,-26,15,-408,146,-554,131
,520,2023-10-27 12:19:26.01,237,-314,-2024,1,13,32,-342,21,-363,160
,521,2023-10-27 12:19:26.02,231,-314,-2021,4,-15,16,-410,140,-550,135
,522,2023-10-27 12:19:26.03,232,-319,-2012,7,11,18,-355,14,-369,170
,523,2023-10-27 12:19:26.04,228,-320,-2012,7,1,16,-432,124,-556,154
,524,2023-10-27 12:19:26.05,223,-318,-2025,14,17,31,-363,6,-369,178
,525,2023-10-27 12:19:26.06,230,-325,-2021,14,11,26,-430,134,-564,148
,526,2023-10-27 12:19:26.07,217,-326,-2032,12,-9,23,-350,18,-368,166
,527,2023-10-27 12:19:26.08,218,-325,-2032,15,-10,28,-437,137,-574,150
,528,2023-10-27 12:19:26.09,228,-320,-2025,10,-7,18,-360,20,-380,170
,529,2023-10-27 12:19:26.10,221,-323,-2018,4,-20,10,-442,139,-581,151
,530,2023-10-27 12:19:26.11,231,-314,-2022,-2,-2,8,-343,20,-363,161
,531,2023-10-27 12:19:26.12,237,-313,-2022,-4,25,15,-418,125,-543,146
,532,2023-10-27 12:19:26.13,222,-314,-2027,-13,18,4,-319,20,-339,149
,533,2023-10-27 12:19:26.14,217,-313,-2018,-20,34,9,-385,133,-518,126
,534,2023-10-27 12:19:26.15,216,-316,-2021,-20,49,25,-285,27,-312,129
,535,2023-10-27 12:19:26.16,225,-319,-2028,-21,42,12,-413,132,-545,140
,536,2023-10-27 12:19:26.17,230,-311,-2033,-20,7,10,-328,28,-356,150
,537,2023-10-27 12:19:26.18,233,-310,-2027,-22,2,0,-440,139,-579,150
,538,2023-10-27 12:19:26.19,218,-305,-2036,-25,23,-4,-321,29,-350,146
,539,2023-10-27 12:19:26.20,231,-311,-2017,-27,4,-17,-421,133,-554,144
,540,2023-10-27 12:19:26.21,237,-309,-2033,-20,32,-10,-301,39,-340,131
,541,2023-10-27 12:19:26.22,232,-307,-2034,-22,38,-5,-427,130,-557,148
,542,2023-10-27 12:19:26.23,226,-298,-2028,-22,34,-15,-322,29,-351,146
,543,2023-10-27 12:19:26.24,216,-299,-2026,-23,38,-8,-450,124,-574,163
,544,2023-10-27 12:19:26.25,224,-304,-2029,-24,17,-22,-331,40,-371,145
,545,2023-10-27 12:19:26.26,227,-307,-2028,-23,30,-17,-466,128,-594,169
,546,2023-10-27 12:19:26.27,236,-309,-2033,-22,20,-18,-332,40,-372,146
,547,2023-10-27 12:19:26.28,230,-311,-2030,-18,13,-12,-450,120,-570,165
,548,2023-10-27 12:19:26.29,229,-311,-2025,-19,-14,-22,-331,34,-365,148
,549,2023-10-27 12:19:26.30,228,-306,-2025,-18,17,-14,-491,117,-608,187
,550,2023-10-27 12:19:26.31,228,-312,-2023,-21,-4,-24,-352,43,-395,154
,551,2023-10-27 12:19:26.32,214,-307,-2030,-21,18,-11,-474,125,-599,174
,552,2023-10-27 12:19:26.33,229,-306,-2027,-20,38,2,-322,46,-368,138
,553,2023-10-27 12:19:26.34,234,-303,-2020,-22,29,-3,-450,118,-568,166
,554,2023-10-27 12:19:26.35,230,-301,-2025,-24,46,9,-310,50,-360,130
,555,2023-10-27 12:19:26.36,227,-300,-2027,-25,33,12,-458,116,-574,171
,556,2023-10-27 12:19:26.37,225,-294,-2030,-29,8,-7,-311,50,-361,130
,557,2023-10-27 12:19:26.38,233,-296,-2023,-31,6,3,-459,120,-579,169
,558,2023-10-27 12:19:26.39,227,-297,-2020,-33,6,-10,-309,63,-372,123
,559,2023-10-27 12:19:26.40,226,-291,-2029,-36,14,-19,-461,120,-581,170
,560,2023-10-27 12:19:26.41,222,-301,-2027,-32,8,-19,-303,56,-359,123
,561,2023-10-27 12:19:26.42,238,-291,-2020,-23,41,-8,-455,112,-567,171
,562,2023-10-27 12:19:26.43,244,-288,-2025,-21,67,0,-294,59,-353,117
,563,2023-10-27 12:19:26.44,237,-285,-2014,-24,56,-7,-448,117,-565,165
,564,2023-10-27 12:19:26.45,244,-297,-2017,-22,62,-2,-296,65,-361,115
,565,2023-10-27 12:19:26.46,232,-295,-2029,-17,41,-1,-469,106,-575,181
,566,2023-10-27 12:19:26.47,243,-296,-2029,-21,15,-23,-312,61,-373,125
,567,2023-10-27 12:19:26.48,234,-284,-2033,-20,10,-27,-480,114,-594,183
,568,2023-10-27 12:19:26.49,239,-287,-2026,-15,44,-25,-318,75,-393,121
,569,2023-10-27 12:19:26.50,236,-281,-2025,-13,66,-21,-486,114,-600,186
,570,2023-10-27 12:19:26.51,244,-278,-2027,-17,45,-37,-307,76,-383,115
,571,2023-10-27 12:19:26.52,246,-278,-2026,-19,65,-33,-456,110,-566,173
,572,2023-10-27 12:19:26.53,239,-284,-2018,-20,70,-26,-289,77,-366,106
,573,2023-10-27 12:19:26.54,242,-288,-2020,-23,44,-35,-479,106,-585,186
,574,2023-10-27 12:19:26.55,253,-288,-2020,-26,63,-31,-320,84,-404,118
,575,2023-10-27 12:19:26.56,241,-281,-2012,-32,57,-38,-493,117,-610,188
,576,2023-10-27 12:19:26.57,245,-281,-2021,-35,44,-65,-323,87,-410,118
,577,2023-10-27 12:19:26.58,254,-269,-2017,-42,50,-62,-500,100,-600,200
,578,2023-10-27 12:19:26.59,259,-270,-2019,-46,83,-66,-326,80,-406,123
,579,2023-10-27 12:19:26.60,261,-269,-2012,-49,91,-65,-491,96,-587,197
,580,2023-10-27 12:19:26.61,262,-268,-2022,-51,110,-57,-317,81,-398,118
,581,2023-10-27 12:19:26.62,255,-274,-2017,-55,108,-51,-491,101,-592,195
,582,2023-10-27 12:19:26.63,261,-267,-2022,-59,96,-62,-320,94,-414,113
,583,2023-10-27 12:19:26.64,260,-274,-2024,-65,77,-80,-495,98,-593,198
,584,2023-10-27 12:19:26.65,255,-264,-2022,-69,90,-76,-321,87,-408,117
,585,2023-10-27 12:19:26.66,271,-260,-2026,-70,85,-88,-502,95,-597,203
,586,2023-10-27 12:19:26.67,261,-263,-2030,-70,95,-94,-324,99,-423,112
,587,2023-10-27 12:19:26.68,257,-262,-2025,-67,104,-90,-504,100,-604,202
,588,2023-10-27 12:19:26.69,277,-261,-2039,-66,113,-97,-323,99,-422,112
,589,2023-10-27 12:19:26.70,290,-264,-2039,-63,103,-93,-496,91,-587,202
,590,2023-10-27 12:19:26.71,293,-253,-2038,-56,134,-74,-332,100,-432,116
,591,2023-10-27 12:19:26.72,299,-256,-2033,-54,111,-85,-519,98,-617,210
,592,2023-10-27 12:19:26.73,282,-251,-2040,-49,123,-77,-332,115,-447,108
,593,2023-10-27 12:19:26.74,291,-250,-2024,-43,116,-72,-502,106,-608,198
,594,2023-10-27 12:19:26.75,306,-257,-2027,-41,85,-78,-325,124,-449,100
,595,2023-10-27 12:19:26.76,312,-250,-2038,-32,79,-67,-503,101,-604,201
,596,2023-10-27 12:19:26.77,283,-258,-2031,-30,50,-79,-314,118,-432,98
,597,2023-10-27 12:19:26.78,292,-254,-2024,-26,72,-81,-474,87,-561,193
,598,2023-10-27 12:19:26.79,301,-258,-2030,-21,74,-76,-295,107,-402,94
,599,2023-10-27 12:19:26.80,298,-254,-2026,-14,97,-63,-467,77,-544,195
,600,2023-10-27 12:19:26.81,302,-253,-2027,-8,92,-50,-295,110,-405,92
,601,2023-10-27 12:19:26.82,304,-257,-2024,-2,75,-52,-481,77,-558,202
,602,2023-10-27 12:19:26.83,310,-257,-2031,3,65,-45,-312,116,-428,98
,603,2023-10-27 12:19:26.84,305,-256,-2028,3,59,-43,-476,90,-566,193
,604,2023-10-27 12:19:26.85,310,-253,-2036,6,47,-54,-299,128,-427,85
,605,2023-10-27 12:19:26.86,309,-261,-2027,9,33,-46,-470,80,-550,195
,606,2023-10-27 12:19:26.87,315,-255,-2026,7,53,-44,-310,120,-430,95
,607,2023-10-27 12:19:26.88,303,-248,-2024,6,71,-37,-485,81,-566,202
,608,2023-10-27 12:19:26.89,311,-246,-2026,2,72,-35,-307,124,-431,91
,609,2023-10-27 12:19:26.90,300,-250,-2023,6,80,-22,-456,75,-531,190
,610,2023-10-27 12:19:26.91,323,-240,-2030,1,68,-24,-287,128,-415,79
,611,2023-10-27 12:19:26.92,305,-237,-2023,-5,40,-37,-456,80,-536,188
,612,2023-10-27 12:19:26.93,309,-243,-2023,-7,42,-34,-292,130,-422,81
,613,2023-10-27 12:19:26.94,323,-248,-2029,-8,44,-35,-459,69,-528,195
,614,2023-10-27 12:19:26.95,325,-245,-2023,-7,32,-46,-308,124,-432,92
,615,2023-10-27 12:19:26.96,323,-241,-2029,-10,39,-36,-480,72,-552,204
,616,2023-10-27 12:19:26.97,328,-244,-2029,-12,32,-45,-317,130,-447,93
,617,2023-10-27 12:19:26.98,328,-239,-2028,-11,35,-45,-469,61,-530,204
,618,2023-10-27 12:19:26.99,337,-240,-2023,-2,57,-31,-321,126,-447,97
,619,2023-10-27 12:19:27.00,313,-240,-2032,-3,59,-36,-486,70,-556,208
,620,2023-10-27 12:19:27.01,328,-243,-2028,-4,58,-30,-330,133,-463,98
,621,2023-10-27 12:19:27.02,329,-245,-2029,-3,63,-17,-476,51,-527,212
,622,2023-10-27 12:19:27.03,332,-255,-2030,-1,55,-19,-327,123,-450,102
,623,2023-10-27 12:19:27.04,333,-248,-2024,2,37,-15,-484,56,-540,214
,624,2023-10-27 12:19:27.05,332,-245,-2033,0,21,-21,-334,136,-470,99
,625,2023-10-27 12:19:27.06,329,-246,-2033,2,26,-21,-471,54,-525,208
,626,2023-10-27 12:19:27.07,334,-253,-2031,-1,20,-24,-330,132,-462,99
,627,2023-10-27 12:19:27.08,340,-251,-2027,1,39,-15,-471,54,-525,208
,628,2023-10-27 12:19:27.09,330,-250,-2029,4,55,-4,-337,141,-478,98
,629,2023-10-27 12:19:27.10,340,-245,-2028,4,42,-5,-478,55,-533,211
,630,2023-10-27 12:19:27.11,336,-249,-2026,12,46,11,-357,142,-499,107
,631,2023-10-27 12:19:27.12,328,-241,-2032,8,29,-2,-491,58,-549,216
,632,2023-10-27 12:19:27.13,341,-244,-2026,7,19,14,-365,148,-513,108
,633,2023-10-27 12:19:27.14,342,-246,-2024,8,26,15,-488,54,-542,217
,634,2023-10-27 12:19:27.15,327,-240,-2028,8,14,17,-358,139,-497,109
,635,2023-10-27 12:19:27.16,339,-244,-2019,8,6,25,-479,39,-518,220
,636,2023-10-27 12:19:27.17,334,-246,-2030,9,9,24,-368,143,-511,112
,637,2023-10-27 12:19:27.18,339,-252,-2032,14,-5,24,-484,59,-543,212
,638,2023-10-27 12:19:27.19,340,-242,-2022,11,-9,22,-372,154,-526,109
,639,2023-10-27 12:19:27.20,337,-240,-2028,12,17,25,-478,50,-528,214
,640,2023-10-27 12:19:27.21,333,-237,-2018,7,0,21,-375,145,-520,115
,641,2023-10-27 12:19:27.22,322,-243,-2016,10,15,29,-477,38,-515,219
,642,2023-10-27 12:19:27.23,330,-253,-2026,13,30,42,-380,138,-518,121
,643,2023-10-27 12:19:27.24,336,-246,-2026,10,10,32,-477,35,-512,221
,644,2023-10-27 12:19:27.25,329,-245,-2022,18,14,49,-372,145,-517,113
,645,2023-10-27 12:19:27.26,344,-237,-2022,15,5,42,-460,38,-498,211
,646,2023-10-27 12:19:27.27,340,-237,-2022,11,-25,31,-368,145,-513,111
,647,2023-10-27 12:19:27.28,341,-239,-2030,14,17,41,-450,32,-482,209
,648,2023-10-27 12:19:27.29,331,-242,-2026,13,2,41,-376,144,-520,116
,649,2023-10-27 12:19:27.30,325,-239,-2021,12,-6,38,-459,24,-483,217
,650,2023-10-27 12:19:27.31,327,-244,-2023,9,1,30,-389,139,-528,125
,651,2023-10-27 12:19:27.32,333,-251,-2027,4,-10,27,-465,23,-488,221
,652,2023-10-27 12:19:27.33,330,-233,-2023,2,10,36,-387,142,-529,122
,653,2023-10-27 12:19:27.34,331,-225,-2020,1,21,39,-450,25,-475,212
,654,2023-10-27 12:19:27.35,347,-231,-2027,-6,13,33,-380,139,-519,120
,655,2023-10-27 12:19:27.36,333,-234,-2020,-10,18,32,-442,20,-462,211
,656,2023-10-27 12:19:27.37,331,-234,-2027,-10,14,41,-400,146,-546,127
,657,2023-10-27 12:19:27.38,336,-233,-2028,-14,-19,28,-454,32,-486,211
,658,2023-10-27 12:19:27.39,341,-231,-2033,-11,-15,36,-405,154,-559,125
,659,2023-10-27 12:19:27.40,334,-237,-2024,-10,-28,25,-450,23,-473,213
,660,2023-10-27 12:19:27.41,340,-242,-2028,-6,-4,28,-402,150,-552,126
,661,2023-10-27 12:19:27.42,338,-234,-2021,-2,-3,33,-434,25,-459,204
,662,2023-10-27 12:19:27.43,329,-237,-2026,5,-3,47,-403,148,-551,127
,663,2023-10-27 12:19:27.44,346,-237,-2020,3,-28,34,-439,24,-463,207
,664,2023-10-27 12:19:27.45,337,-239,-2030,8,-38,37,-410,147,-557,131
,665,2023-10-27 12:19:27.46,342,-233,-2021,5,-17,37,-432,18,-450,207
,666,2023-10-27 12:19:27.47,331,-240,-2027,11,-5,35,-399,137,-536,131
,667,2023-10-27 12:19:27.48,331,-230,-2024,11,2,45,-410,17,-427,196
,668,2023-10-27 12:19:27.49,329,-234,-2026,15,13,56,-397,149,-546,124
,669,2023-10-27 12:19:27.50,340,-233,-2020,16,12,58,-415,27,-442,194
,670,2023-10-27 12:19:27.51,327,-243,-2027,13,-8,53,-403,144,-547,129
,671,2023-10-27 12:19:27.52,330,-236,-2028,19,0,57,-413,10,-423,201
,672,2023-10-27 12:19:27.53,335,-235,-2020,18,-18,50,-411,142,-553,134
,673,2023-10-27 12:19:27.54,343,-236,-2021,21,-41,37,-416,18,-434,199
,674,2023-10-27 12:19:27.55,328,-230,-2030,22,-27,47,-425,149,-574,138
,675,2023-10-27 12:19:27.56,327,-242,-2025,20,-39,32,-418,12,-430,203
,676,2023-10-27 12:19:27.57,319,-240,-2028,21,-34,29,-436,143,-579,146
,677,2023-10-27 12:19:27.58,330,-242,-2029,24,-13,42,-419,9,-428,205
,678,2023-10-27 12:19:27.59,324,-246,-2028,24,-9,39,-432,140,-572,146
,679,2023-10-27 12:19:27.60,322,-242,-2030,27,2,56,-410,10,-420,200
,680,2023-10-27 12:19:27.61,323,-257,-2035,22,-37,48,-428,133,-561,147
,681,2023-10-27 12:19:27.62,330,-242,-2024,20,-43,46,-401,1,-402,200
,682,2023-10-27 12:19:27.63,321,-247,-2024,16,-48,32,-439,132,-571,153
,683,2023-10-27 12:19:27.64,326,-241,-2015,14,-43,42,-410,9,-419,200
,684,2023-10-27 12:19:27.65,325,-241,-2028,10,-27,42,-441,146,-587,147
,685,2023-10-27 12:19:27.66,321,-242,-2026,8,-24,41,-395,19,-414,188
,686,2023-10-27 12:19:27.67,321,-244,-2024,6,-16,47,-430,144,-574,143
,687,2023-10-27 12:19:27.68,323,-248,-2021,9,6,60,-388,15,-403,186
,688,2023-10-27 12:19:27.69,322,-242,-2023,6,2,61,-434,139,-573,147
,689,2023-10-27 12:19:27.70,319,-243,-2026,9,2,68,-385,7,-392,189
,690,2023-10-27 12:19:27.71,321,-249,-2015,7,-7,68,-444,130,-574,157
,691,2023-10-27 12:19:27.72,323,-243,-2029,3,-41,50,-392,5,-397,193
,692,2023-10-27 12:19:27.73,327,-242,-2023,7,-23,63,-453,135,-588,159
,693,2023-10-27 12:19:27.74,319,-248,-2031,8,-41,56,-384,13,-397,185
,694,2023-10-27 12:19:27.75,316,-248,-2025,7,-56,42,-441,133,-574,154
,695,2023-10-27 12:19:27.76,315,-248,-2026,9,-46,45,-377,5,-382,186
,696,2023-10-27 12:19:27.77,325,-245,-2026,9,-39,46,-456,124,-580,166
,697,2023-10-27 12:19:27.78,310,-252,-2025,16,-17,56,-378,6,-384,186
,698,2023-10-27 12:19:27.79,321,-242,-2023,17,-25,66,-442,127,-569,157
,699,2023-10-27 12:19:27.80,311,-244,-2030,18,-13,68,-359,8,-367,175
,700,2023-10-27 12:19:27.81,305,-247,-2033,17,-39,70,-444,130,-574,157
,701,2023-10-27 12:19:27.82,311,-240,-2027,14,-65,53,-363,18,-381,172
,702,2023-10-27 12:19:27.83,310,-244,-2022,16,-51,67,-441,135,-576,153
,703,2023-10-27 12:19:27.84,309,-248,-2031,11,-56,53,-352,17,-369,167
,704,2023-10-27 12:19:27.85,299,-244,-2023,12,-66,55,-458,137,-595,160
,705,2023-10-27 12:19:27.86,296,-246,-2031,12,-46,60,-369,21,-390,174
,706,2023-10-27 12:19:27.87,292,-252,-2031,13,-55,50,-464,133,-597,165
,707,2023-10-27 12:19:27.88,304,-243,-2029,15,-34,62,-362,15,-377,173
,708,2023-10-27 12:19:27.89,293,-241,-2034,19,-26,78,-454,138,-592,158
,709,2023-10-27 12:19:27.90,306,-246,-2029,17,-37,60,-349,35,-384,157
,710,2023-10-27 12:19:27.91,291,-244,-2028,19,-24,66,-466,142,-608,162
,711,2023-10-27 12:19:27.92,295,-248,-2023,19,-27,71,-358,27,-385,165
,712,2023-10-27 12:19:27.93,287,-245,-2024,16,-50,67,-474,128,-602,173
,713,2023-10-27 12:19:27.94,280,-243,-2027,14,-57,64,-346,34,-380,156
,714,2023-10-27 12:19:27.95,283,-245,-2027,14,-56,61,-445,141,-586,152
,715,2023-10-27 12:19:27.96,301,-245,-2028,12,-69,52,-322,46,-368,138
,716,2023-10-27 12:19:27.97,292,-248,-2034,15,-38,69,-460,141,-601,159
,717,2023-10-27 12:19:27.98,287,-245,-2026,18,-59,67,-337,49,-386,144
,718,2023-10-27 12:19:27.99,276,-254,-2023,16,-59,61,-465,144,-609,160
,719,2023-10-27 12:19:28.00,278,-251,-2024,16,-45,60,-329,50,-379,139
,720,2023-10-27 12:19:28.01,276,-254,-2016,12,-62,54,-462,127,-589,167
,721,2023-10-27 12:19:28.02,275,-264,-2023,15,-33,55,-332,38,-370,147
,722,2023-10-27 12:19:28.03,275,-257,-2037,20,-17,63,-472,125,-597,173
,723,2023-10-27 12:19:28.04,278,-251,-2031,21,-38,51,-338,51,-389,143
,724,2023-10-27 12:19:28.05,270,-251,-2030,25,-27,52,-486,121,-607,182
,725,2023-10-27 12:19:28.06,275,-242,-2031,24,-26,54,-339,42,-381,148
,726,2023-10-27 12:19:28.07,277,-239,-2023,22,-17,52,-472,120,-592,176
,727,2023-10-27 12:19:28.08,278,-238,-2030,23,-3,47,-319,53,-372,133
,728,2023-10-27 12:19:28.09,273,-248,-2031,22,-10,49,-464,125,-589,169
,729,2023-10-27 12:19:28.10,273,-251,-2023,19,-45,39,-328,54,-382,137
,730,2023-10-27 12:19:28.11,266,-246,-2030,18,-25,38,-492,121,-613,185
,731,2023-10-27 12:19:28.12,269,-251,-2028,14,-37,24,-344,59,-403,142
,732,2023-10-27 12:19:28.13,267,-248,-2031,13,-42,20,-497,121,-618,188
,733,2023-10-27 12:19:28.14,269,-248,-2031,14,-15,23,-334,65,-399,134
,734,2023-10-27 12:19:28.15,276,-248,-2027,11,-12,17,-482,120,-602,181
,735,2023-10-27 12:19:28.16,276,-248,-2030,12,2,26,-322,65,-387,128
,736,2023-10-27 12:19:28.17,268,-256,-2035,17,-3,34,-485,110,-595,187
,737,2023-10-27 12:19:28.18,277,-249,-2037,14,-1,33,-331,58,-389,136
,738,2023-10-27 12:19:28.19,267,-250,-2029,12,-21,32,-500,110,-610,195
,739,2023-10-27 12:19:28.20,267,-247,-2022,9,-47,18,-329,72,-401,128
,740,2023-10-27 12:19:28.21,267,-246,-2026,7,-32,21,-488,117,-605,185
,741,2023-10-27 12:19:28.22,277,-255,-2030,3,-39,8,-326,74,-400,126
,742,2023-10-27 12:19:28.23,270,-255,-2030,3,-27,11,-506,104,-610,201
,743,2023-10-27 12:19:28.24,269,-254,-2029,9,-11,25,-332,75,-407,128
,744,2023-10-27 12:19:28.25,259,-258,-2028,8,0,21,-493,106,-599,193
,745,2023-10-27 12:19:28.26,267,-259,-2027,13,-3,31,-312,82,-394,115
,746,2023-10-27 12:19:28.27,265,-249,-2031,13,-17,31,-489,114,-603,187
,747,2023-10-27 12:19:28.28,266,-254,-2033,12,-12,32,-317,92,-409,112
,748,2023-10-27 12:19:28.29,272,-247,-2034,8,-40,10,-486,108,-594,189
,749,2023-10-27 12:19:28.30,272,-240,-2029,6,-27,5,-313,88,-401,112
,750,2023-10-27 12:19:28.31,268,-252,-2019,10,-3,16,-492,102,-594,195
,751,2023-10-27 12:19:28.32,266,-259,-2032,12,8,18,-318,86,-404,116
,752,2023-10-27 12:19:28.33,259,-253,-2023,17,-2,24,-500,103,-603,198
,753,2023-10-27 12:19:28.34,284,-261,-2025,20,-32,15,-327,92,-419,117
,754,2023-10-27 12:19:28.35,278,-263,-2025,25,-16,23,-502,102,-604,200
,755,2023-10-27 12:19:28.36,275,-259,-2028,24,-26,6,-308,94,-402,107
,756,2023-10-27 12:19:28.37,266,-265,-2023,32,-12,3,-466,105,-571,180
,757,2023-10-27 12:19:28.38,267,-269,-2031,37,0,15,-298,102,-400,98
,758,2023-10-27 12:19:28.39,258,-262,-2023,37,13,15,-495,116,-611,189
,759,2023-10-27 12:19:28.40,270,-267,-2027,40,16,28,-319,114,-433,102
,760,2023-10-27 12:19:28.41,267,-268,-2019,39,-5,25,-490,107,-597,191
,761,2023-10-27 12:19:28.42,270,-269,-2026,38,9,34,-301,108,-409,96
,762,2023-10-27 12:19:28.43,271,-269,-2030,32,-10,24,-474,103,-577,185
,763,2023-10-27 12:19:28.44,267,-268,-2023,24,-14,9,-299,108,-407,95
,764,2023-10-27 12:19:28.45,274,-259,-2030,21,-6,10,-486,90,-576,198
,765,2023-10-27 12:19:28.46,267,-261,-2031,17,26,12,-318,100,-418,109
,766,2023-10-27 12:19:28.47,270,-255,-2032,11,25,12,-501,92,-593,204
,767,2023-10-27 12:19:28.48,270,-259,-2038,10,21,21,-324,110,-434,107
,768,2023-10-27 12:19:28.49,264,-258,-2033,6,32,18,-501,89,-590,206
,769,2023-10-27 12:19:28.50,276,-263,-2030,5,21,22,-323,109,-432,107
,770,2023-10-27 12:19:28.51,264,-259,-2033,5,11,25,-500,88,-588,206
,771,2023-10-27 12:19:28.52,273,-266,-2032,4,15,21,-328,114,-442,107
,772,2023-10-27 12:19:28.53,282,-266,-2025,5,9,16,-508,94,-602,207
,773,2023-10-27 12:19:28.54,278,-274,-2024,5,19,20,-330,123,-453,103
,774,2023-10-27 12:19:28.55,274,-268,-2027,5,7,12,-500,93,-593,203
,775,2023-10-27 12:19:28.56,277,-272,-2025,6,2,15,-326,122,-448,102
,776,2023-10-27 12:19:28.57,274,-260,-2031,5,-3,12,-502,83,-585,209
,777,2023-10-27 12:19:28.58,265,-266,-2033,4,-28,2,-335,114,-449,110
,778,2023-10-27 12:19:28.59,269,-270,-2039,2,-15,17,-510,72,-582,219
,779,2023-10-27 12:19:28.60,255,-261,-2034,-2,-27,8,-339,118,-457,110
,780,2023-10-27 12:19:28.61,269,-260,-2033,-3,-29,22,-508,90,-598,209
,781,2023-10-27 12:19:28.62,265,-264,-2033,-7,-23,21,-346,133,-479,106
,782,2023-10-27 12:19:28.63,268,-265,-2031,-12,-31,24,-515,72,-587,221
,783,2023-10-27 12:19:28.64,267,-269,-2028,-12,-33,21,-346,111,-457,117
,784,2023-10-27 12:19:28.65,261,-267,-2027,-13,-9,20,-501,80,-581,210
,785,2023-10-27 12:19:28.66,257,-269,-2033,-15,-26,23,-332,133,-465,99
,786,2023-10-27 12:19:28.67,272,-268,-2035,-11,-20,25,-490,70,-560,210
,787,2023-10-27 12:19:28.68,279,-269,-2033,-10,7,36,-340,119,-459,110
,788,2023-10-27 12:19:28.69,262,-260,-2035,-10,-6,35,-506,71,-577,217
,789,2023-10-27 12:19:28.70,264,-253,-2037,-8,16,47,-358,131,-489,113
,790,2023-10-27 12:19:28.71,259,-250,-2032,-12,-6,38,-513,63,-576,225
,791,2023-10-27 12:19:28.72,266,-247,-2027,-12,-2,52,-351,119,-470,116
,792,2023-10-27 12:19:28.73,255,-251,-2025,-14,-17,29,-493,50,-543,221
,793,2023-10-27 12:19:28.74,260,-247,-2026,-12,2,38,-333,125,-458,104
,794,2023-10-27 12:19:28.75,266,-261,-2029,-9,4,34,-484,68,-552,208
,795,2023-10-27 12:19:28.76,261,-256,-2019,-4,-11,32,-340,133,-473,103
,796,2023-10-27 12:19:28.77,259,-257,-2027,0,1,31,-493,50,-543,221
,797,2023-10-27 12:19:28.78,247,-260,-2026,3,2,37,-352,128,-480,112
,798,2023-10-27 12:19:28.79,259,-258,-2027,7,-13,43,-496,67,-563,214
,799,2023-10-27 12:19:28.80,259,-255,-2033,11,-7,44,-347,147,-494,100
,800,2023-10-27 12:19:28.81,250,-252,-2038,8,-22,38,-485,64,-549,210
,801,2023-10-27 12:19:28.82,262,-247,-2038,8,-48,22,-357,142,-499,107
,802,2023-10-27 12:19:28.83,263,-245,-2029,11,-42,25,-501,53,-554,224
,803,2023-10-27 12:19:28.84,249,-243,-2028,6,-35,9,-370,139,-509,115
,804,2023-10-27 12:19:28.85,254,-245,-2033,1,-33,1,-499,50,-549,224
,805,2023-10-27 12:19:28.86,246,-255,-2035,4,-10,14,-373,136,-509,118
,806,2023-10-27 12:19:28.87,245,-256,-2029,5,-17,9,-497,40,-537,228
,807,2023-10-27 12:19:28.88,241,-258,-2026,7,-8,18,-369,130,-499,119
,808,2023-10-27 12:19:28.89,237,-253,-2026,4,-12,30,-493,42,-535,225
,809,2023-10-27 12:19:28.90,237,-253,-2027,0,-2,28,-379,143,-522,118
,810,2023-10-27 12:19:28.91,242,-252,-2024,-6,-16,27,-491,48,-539,221
,811,2023-10-27 12:19:28.92,250,-250,-2029,-8,-18,27,-380,145,-525,117
,812,2023-10-27 12:19:28.93,256,-252,-2027,-13,-3,23,-488,39,-527,224
,813,2023-10-27 12:19:28.94,250,-243,-2030,-17,-21,18,-376,146,-522,115
,814,2023-10-27 12:19:28.95,247,-256,-2033,-19,-25,11,-475,49,-524,213
,815,2023-10-27 12:19:28.96,242,-247,-2038,-16,-9,10,-360,152,-512,104
,816,2023-10-27 12:19:28.97,244,-257,-2036,-18,-14,9,-455,38,-493,208
,817,2023-10-27 12:19:28.98,246,-254,-2037,-16,-1,21,-357,140,-497,108
,818,2023-10-27 12:19:28.99,246,-254,-2037,-11,1,34,-458,30,-488,214
,819,2023-10-27 12:19:29.00,244,-253,-2037,-14,-8,29,-369,136,-505,116
,820,2023-10-27 12:19:29.01,241,-246,-2029,-12,-19,22,-457,29,-486,214
,821,2023-10-27 12:19:29.02,238,-252,-2037,-10,-21,25,-355,148,-503,103
,822,2023-10-27 12:19:29.03,249,-246,-2033,-12,-16,20,-436,33,-469,201
,823,2023-10-27 12:19:29.04,252,-252,-2035,-13,-22,16,-367,147,-514,110
,824,2023-10-27 12:19:29.05,245,-244,-2036,-11,-18,13,-463,16,-479,223
,825,2023-10-27 12:19:29.06,244,-242,-2037,-6,1,6,-388,141,-529,123
,826,2023-10-27 12:19:29.07,245,-241,-2028,-6,-4,4,-454,26,-480,214
,827,2023-10-27 12:19:29.08,246,-248,-2028,-5,8,5,-388,154,-542,117
,828,2023-10-27 12:19:29.09,243,-248,-2033,-1,6,5,-451,28,-479,211
,829,2023-10-27 12:19:29.10,245,-245,-2031,5,-2,10,-404,147,-551,128
,830,2023-10-27 12:19:29.11,244,-241,-2023,15,14,16,-462,23,-485,219
,831,2023-10-27 12:19:29.12,242,-247,-2027,16,8,15,-406,145,-551,130
,832,2023-10-27 12:19:29.13,235,-251,-2029,17,-12,5,-449,11,-460,219
,833,2023-10-27 12:19:29.14,253,-251,-2029,21,-3,10,-402,137,-539,132
,834,2023-10-27 12:19:29.15,247,-254,-2036,25,-6,6,-445,16,-461,214
,835,2023-10-27 12:19:29.16,235,-259,-2034,25,-23,0,-410,147,-557,131
,836,2023-10-27 12:19:29.17,242,-259,-2033,30,-19,7,-444,18,-462,213
,837,2023-10-27 12:19:29.18,242,-261,-2032,24,-16,-2,-409,143,-552,133
,838,2023-10-27 12:19:29.19,235,-262,-2029,22,-7,6,-440,15,-455,212
,839,2023-10-27 12:19:29.20,243,-254,-2026,20,8,15,-410,149,-559,130
,840,2023-10-27 12:19:29.21,244,-250,-2034,18,20,11,-434,24,-458,205
,841,2023-10-27 12:19:29.22,239,-250,-2033,12,20,19,-419,152,-571,133
,842,2023-10-27 12:19:29.23,246,-246,-2033,7,28,25,-436,20,-456,208
,843,2023-10-27 12:19:29.24,234,-246,-2028,3,32,21,-430,151,-581,139
,844,2023-10-27 12:19:29.25,242,-243,-2033,1,25,20,-438,18,-456,210
,845,2023-10-27 12:19:29.26,236,-240,-2032,2,30,26,-434,140,-574,147
,846,2023-10-27 12:19:29.27,248,-247,-2039,-1,21,16,-435,6,-441,214
,847,2023-10-27 12:19:29.28,244,-240,-2037,3,16,22,-432,136,-568,148
,848,2023-10-27 12:19:29.29,243,-246,-2028,4,14,12,-416,6,-422,205
,849,2023-10-27 12:19:29.30,246,-241,-2032,1,-2,-2,-400,150,-550,125
,850,2023-10-27 12:19:29.31,254,-238,-2033,0,-13,-6,-392,23,-415,184
,851,2023-10-27 12:19:29.32,262,-248,-2032,6,-7,-7,-412,161,-573,125
,852,2023-10-27 12:19:29.33,251,-250,-2036,7,-11,-14,-408,24,-432,192
,853,2023-10-27 12:19:29.34,249,-248,-2034,12,-7,-7,-430,162,-592,134
,854,2023-10-27 12:19:29.35,237,-248,-2037,13,-7,-10,-413,23,-436,195
,855,2023-10-27 12:19:29.36,254,-252,-2041,15,-7,-10,-439,150,-589,144
,856,2023-10-27 12:19:29.37,242,-248,-2038,19,0,3,-407,7,-414,200
,857,2023-10-27 12:19:29.38,257,-258,-2029,18,-5,-3,-432,139,-571,146
,858,2023-10-27 12:19:29.39,258,-248,-2032,18,3,6,-398,3,-401,197
,859,2023-10-27 12:19:29.40,249,-254,-2031,19,18,23,-435,144,-579,145
,860,2023-10-27 12:19:29.41,249,-253,-2031,16,2,11,-397,15,-412,191
,861,2023-10-27 12:19:29.42,243,-254,-2032,20,23,24,-440,155,-595,142
,862,2023-10-27 12:19:29.43,249,-252,-2035,16,19,19,-386,25,-411,180
,863,2023-10-27 12:19:29.44,247,-250,-2031,16,10,25,-438,147,-585,145
,864,2023-10-27 12:19:29.45,250,-247,-2028,14,30,31,-387,11,-398,188
,865,2023-10-27 12:19:29.46,245,-249,-2036,13,20,33,-454,126,-580,164
,866,2023-10-27 12:19:29.47,255,-245,-2033,9,26,36,-384,6,-390,189
,867,2023-10-27 12:19:29.48,247,-252,-2033,8,18,34,-449,135,-584,157
,868,2023-10-27 12:19:29.49,252,-247,-2022,9,-3,27,-382,12,-394,185
,869,2023-10-27 12:19:29.50,243,-255,-2017,9,13,30,-443,138,-581,152
,870,2023-10-27 12:19:29.51,245,-246,-2020,8,-8,17,-373,8,-381,182
,871,2023-10-27 12:19:29.52,246,-256,-2021,14,-5,22,-448,135,-583,156
,872,2023-10-27 12:19:29.53,242,-269,-2027,17,-2,17,-369,14,-383,177
,873,2023-10-27 12:19:29.54,249,-261,-2040,15,-14,16,-451,140,-591,155
,874,2023-10-27 12:19:29.55,244,-253,-2044,19,-7,15,-368,16,-384,176
,875,2023-10-27 12:19:29.56,260,-249,-2034,18,-16,3,-452,137,-589,157
,876,2023-10-27 12:19:29.57,258,-252,-2034,17,-17,2,-365,8,-373,178
,877,2023-10-27 12:19:29.58,247,-253,-2030,11,-4,-5,-458,127,-585,165
,878,2023-10-27 12:19:29.59,254,-254,-2038,9,-8,-16,-366,6,-372,180
,879,2023-10-27 12:19:29.60,245,-253,-2031,7,-9,-8,-465,122,-587,171
,880,2023-10-27 12:19:29.61,248,-258,-2028,3,-10,-16,-364,3,-367,180
,881,2023-10-27 12:19:29.62,238,-256,-2028,0,-6,-14,-472,117,-589,177
,882,2023-10-27 12:19:29.63,255,-258,-2026,2,15,-1,-366,11,-377,177
,883,2023-10-27 12:19:29.64,251,-253,-2026,0,25,-4,-469,121,-590,174
,884,2023-10-27 12:19:29.65,250,-247,-2034,-5,19,5,-354,8,-362,173
,885,2023-10-27 12:19:29.66,253,-245,-2034,-9,7,3,-467,113,-580,177
,886,2023-10-27 12:19:29.67,234,-255,-2043,-14,21,6,-354,11,-365,171
,887,2023-10-27 12:19:29.68,250,-247,-2036,-13,6,7,-475,114,-589,180
,888,2023-10-27 12:19:29.69,247,-250,-2037,-13,-10,9,-353,13,-366,170
,889,2023-10-27 12:19:29.70,250,-250,-2039,-13,-4,3,-475,117,-592,179
,890,2023-10-27 12:19:29.71,248,-245,-2033,-14,-3,5,-348,21,-369,163
,891,2023-10-27 12:19:29.72,235,-248,-2029,-16,-3,9,-470,116,-586,177
,892,2023-10-27 12:19:29.73,251,-248,-2026,-14,1,12,-347,20,-367,163
,893,2023-10-27 12:19:29.74,248,-253,-2034,-14,1,14,-491,115,-606,188
,894,2023-10-27 12:19:29.75,238,-254,-2032,-14,1,16,-351,25,-376,163
,895,2023-10-27 12:19:29.76,249,-247,-2035,-10,4,19,-477,117,-594,180
,896,2023-10-27 12:19:29.77,247,-246,-2030,-10,2,22,-334,33,-367,150
,897,2023-10-27 12:19:29.78,251,-238,-2036,-8,4,23,-475,132,-607,171
,898,2023-10-27 12:19:29.79,252,-236,-2031,-6,5,24,-339,49,-388,145
,899,2023-10-27 12:19:29.80,242,-238,-2033,-4,4,27,-484,120,-604,182
,900,2023-10-27 12:19:29.81,256,-233,-2026,-1,4,27,-340,31,-371,154
,901,2023-10-27 12:19:29.82,245,-250,-2032,1,4,27,-489,102,-591,193
,902,2023-10-27 12:19:29.83,242,-240,-2037,1,3,29,-337,29,-366,154
,903,2023-10-27 12:19:29.84,244,-240,-2036,8,0,24,-478,114,-592,182
,904,2023-10-27 12:19:29.85,256,-238,-2022,13,-1,24,-330,42,-372,144
,905,2023-10-27 12:19:29.86,249,-241,-2032,13,4,23,-488,118,-606,185
,906,2023-10-27 12:19:29.87,253,-244,-2033,13,7,23,-344,38,-382,153
,907,2023-10-27 12:19:29.88,250,-243,-2036,19,8,20,-493,112,-605,190
,908,2023-10-27 12:19:29.89,252,-241,-2035,23,5,21,-329,47,-376,141
,909,2023-10-27 12:19:29.90,252,-245,-2038,21,5,22,-481,113,-594,184
,910,2023-10-27 12:19:29.91,248,-243,-2043,19,7,21,-326,56,-382,135
,911,2023-10-27 12:19:29.92,244,-246,-2040,21,6,25,-491,124,-615,183
,912,2023-10-27 12:19:29.93,245,-240,-2039,18,1,25,-329,70,-399,129
,913,2023-10-27 12:19:29.94,251,-240,-2025,12,2,26,-494,110,-604,192
,914,2023-10-27 12:19:29.95,250,-234,-2027,7,8,26,-326,52,-378,137
,915,2023-10-27 12:19:29.96,250,-244,-2029,1,11,23,-497,88,-585,204
,916,2023-10-27 12:19:29.97,253,-240,-2031,-3,14,24,-322,45,-367,138
,917,2023-10-27 12:19:29.98,246,-236,-2036,-5,16,21,-491,85,-576,203
,918,2023-10-27 12:19:29.99,258,-239,-2031,-6,16,22,-313,55,-368,129
,919,2023-10-27 12:19:30.00,257,-237,-2031,-6,17,21,-491,92,-583,199
,920,2023-10-27 12:19:30.01,251,-237,-2032,-8,13,24,-323,60,-383,131
,921,2023-10-27 12:19:30.02,268,-240,-2038,-9,13,21,-504,90,-594,207
,922,2023-10-27 12:19:30.03,257,-238,-2045,-8,12,20,-323,67,-390,128
,923,2023-10-27 12:19:30.04,247,-226,-2042,-4,10,20,-497,86,-583,205
,924,2023-10-27 12:19:30.05,254,-227,-2039,-5,6,20,-318,65,-383,126
,925,2023-10-27 12:19:30.06,249,-241,-2039,-4,4,20,-503,81,-584,211
,926,2023-10-27 12:19:30.07,253,-237,-2032,-4,1,22,-324,65,-389,129
,927,2023-10-27 12:19:30.08,253,-235,-2035,-5,1,24,-504,80,-584,212
,928,2023-10-27 12:19:30.09,252,-232,-2040,-4,-2,25,-319,71,-390,124
,929,2023-10-27 12:19:30.10,252,-233,-2038,-5,-3,28,-501,87,-588,207
,930,2023-10-27 12:19:30.11,258,-239,-2035,0,-3,32,-318,79,-397,119
,931,2023-10-27 12:19:30.12,253,-236,-2034,4,-7,34,-501,76,-577,212
,932,2023-10-27 12:19:30.13,250,-236,-2034,4,-4,36,-321,72,-393,124
,933,2023-10-27 12:19:30.14,243,-235,-2035,6,-5,39,-503,71,-574,216
,934,2023-10-27 12:19:30.15,258,-243,-2033,10,-2,42,-318,79,-397,119
,935,2023-10-27 12:19:30.16,245,-232,-2038,10,-3,47,-500,80,-580,210
,936,2023-10-27 12:19:30.17,256,-235,-2033,13,-1,45,-318,86,-404,116
,937,2023-10-27 12:19:30.18,248,-235,-2035,17,1,46,-503,78,-581,212
,938,2023-10-27 12:19:30.19,255,-233,-2031,18,0,45,-329,84,-413,122
,939,2023-10-27 12:19:30.20,253,-233,-2035,22,1,41,-515,68,-583,223
,940,2023-10-27 12:19:30.21,239,-233,-2035,27,2,36,-327,83,-410,122
,941,2023-10-27 12:19:30.22,251,-229,-2035,25,3,29,-504,76,-580,214
,942,2023-10-27 12:19:30.23,257,-221,-2046,27,-1,22,-326,97,-423,114
,943,2023-10-27 12:19:30.24,251,-225,-2041,27,-5,16,-508,67,-575,220
,944,2023-10-27 12:19:30.25,261,-231,-2040,31,-8,10,-318,93,-411,112
,945,2023-10-27 12:19:30.26,249,-230,-2039,32,-13,3,-505,71,-576,217
,946,2023-10-27 12:19:30.27,244,-235,-2038,31,-19,-2,-329,101,-430,114
,947,2023-10-27 12:19:30.28,236,-240,-2030,34,-27,-4,-521,66,-587,227
,948,2023-10-27 12:19:30.29,245,-252,-2039,39,-30,-6,-329,113,-442,108
,949,2023-10-27 12:19:30.30,238,-261,-2043,42,-36,-5,-504,80,-584,212
,950,2023-10-27 12:19:30.31,240,-264,-2037,47,-40,1,-326,115,-441,105
,951,2023-10-27 12:19:30.32,233,-272,-2030,48,-44,5,-507,67,-574,220
,952,2023-10-27 12:19:30.33,229,-267,-2019,45,-41,9,-331,106,-437,112
,953,2023-10-27 12:19:30.34,231,-263,-2030,43,-36,12,-503,65,-568,219
,954,2023-10-27 12:19:30.35,226,-267,-2033,37,-23,17,-334,114,-448,110
,955,2023-10-27 12:19:30.36,220,-261,-2034,34,-17,22,-512,61,-573,225
,956,2023-10-27 12:19:30.37,226,-271,-2027,26,-19,27,-339,102,-441,118
,957,2023-10-27 12:19:30.38,228,-267,-2027,20,-13,33,-506,40,-546,233
,958,2023-10-27 12:19:30.39,220,-269,-2017,13,-6,40,-333,97,-430,118
,959,2023-10-27 12:19:30.40,228,-258,-2023,6,-2,42,-505,46,-551,229
,960,2023-10-27 12:19:30.41,234,-256,-2028,-1,1,42,-338,107,-445,115
,961,2023-10-27 12:19:30.42,237,-251,-2025,-5,6,40,-505,43,-548,231
,962,2023-10-27 12:19:30.43,235,-250,-2022,-9,11,38,-335,103,-438,116
,963,2023-10-27 12:19:30.44,228,-248,-2023,-11,11,35,-498,37,-535,230
,964,2023-10-27 12:19:30.45,220,-249,-2035,-12,14,31,-340,107,-447,116
,965,2023-10-27 12:19:30.46,237,-250,-2032,-11,14,28,-498,41,-539,228
,966,2023-10-27 12:19:30.47,239,-249,-2030,-12,12,27,-363,106,-469,128
,967,2023-10-27 12:19:30.48,235,-244,-2030,-9,12,22,-513,31,-544,241
,968,2023-10-27 12:19:30.49,231,-245,-2033,-10,17,16,-359,100,-459,129
,969,2023-10-27 12:19:30.50,249,-238,-2033,-13,17,12,-501,24,-525,238
,970,2023-10-27 12:19:30.51,238,-245,-2027,-11,15,9,-355,102,-457,126
,971,2023-10-27 12:19:30.52,241,-246,-2035,-9,14,5,-499,36,-535,231
,972,2023-10-27 12:19:30.53,247,-246,-2041,-8,13,4,-364,129,-493,117
,973,2023-10-27 12:19:30.54,247,-241,-2038,-5,11,1,-507,50,-557,228
,974,2023-10-27 12:19:30.55,244,-247,-2038,-6,12,2,-372,130,-502,121
,975,2023-10-27 12:19:30.56,243,-240,-2041,-4,10,-2,-505,37,-542,234
,976,2023-10-27 12:19:30.57,238,-243,-2038,-3,8,-2,-379,118,-497,130
,977,2023-10-27 12:19:30.58,247,-235,-2032,-2,7,-3,-512,28,-540,242
,978,2023-10-27 12:19:30.59,241,-253,-2030,0,6,-2,-384,119,-503,132
,979,2023-10-27 12:19:30.60,240,-248,-2038,2,2,3,-507,31,-538,238
,980,2023-10-27 12:19:30.61,245,-248,-2027,9,-1,3,-388,125,-513,131
,981,2023-10-27 12:19:30.62,252,-248,-2026,10,0,6,-509,32,-541,238
,982,2023-10-27 12:19:30.63,244,-251,-2030,8,4,10,-390,128,-518,131
,983,2023-10-27 12:19:30.64,240,-253,-2034,11,4,13,-505,21,-526,242
,984,2023-10-27 12:19:30.65,236,-254,-2039,14,5,16,-394,119,-513,137
,985,2023-10-27 12:19:30.66,239,-254,-2029,14,5,23,-494,22,-516,236
,986,2023-10-27 12:19:30.67,247,-259,-2036,12,6,26,-392,128,-520,132
,987,2023-10-27 12:19:30.68,242,-255,-2040,11,6,30,-494,19,-513,237
,988,2023-10-27 12:19:30.69,241,-249,-2036,8,6,35,-396,114,-510,141
,989,2023-10-27 12:19:30.70,232,-242,-2035,4,4,36,-484,18,-502,233
,990,2023-10-27 12:19:30.71,240,-243,-2035,0,6,38,-393,127,-520,133
,991,2023-10-27 12:19:30.72,237,-239,-2036,-7,10,36,-490,16,-506,237
,992,2023-10-27 12:19:30.73,241,-236,-2034,-10,10,33,-406,122,-528,142
,993,2023-10-27 12:19:30.74,238,-238,-2031,-15,12,31,-490,9,-499,240
,994,2023-10-27 12:19:30.75,238,-235,-2030,-16,12,26,-400,120,-520,140
,995,2023-10-27 12:19:30.76,240,-236,-2029,-17,12,22,-478,14,-492,232
,996,2023-10-27 12:19:30.77,253,-233,-2028,-17,12,18,-412,123,-535,144
,997,2023-10-27 12:19:30.78,247,-229,-2033,-15,10,14,-483,-1,-482,242
,998,2023-10-27 12:19:30.79,243,-229,-2035,-14,9,9,-402,122,-524,140
,999,2023-10-27 12:19:30.80,240,-232,-2040,-11,8,3,-463,9,-472,227
,1000,2023-10-27 12:19:30.81,254,-224,-2034,-7,7,-1,-416,129,-545,143
,1001,2023-10-27 12:19:30.82,238,-231,-2034,-5,8,-3,-481,8,-489,236
,1002,2023-10-27 12:19:30.83,248,-233,-2036,-3,4,-10,-422,125,-547,148
,1003,2023-10-27 12:19:30.84,251,-233,-2040,3,2,-9,-468,6,-474,231
,1004,2023-10-27 12:19:30.85,252,-233,-2035,5,-1,-13,-414,131,-545,141
,1005,2023-10-27 12:19:30.86,243,-234,-2030,7,-4,-11,-461,5,-466,228
,1006,2023-10-27 12:19:30.87,243,-239,-2038,11,-3,-12,-428,137,-565,145
,1007,2023-10-27 12:19:30.88,243,-241,-2037,11,-5,-9,-469,13,-482,228
,1008,2023-10-27 12:19:30.89,234,-244,-2043,12,-6,-7,-435,138,-573,148
,1009,2023-10-27 12:19:30.90,250,-239,-2036,14,-5,-2,-460,1,-461,229
,1010,2023-10-27 12:19:30.91,237,-242,-2034,12,-7,-1,-432,128,-560,152
,1011,2023-10-27 12:19:30.92,233,-247,-2026,12,-5,8,-451,-1,-450,226
,1012,2023-10-27 12:19:30.93,244,-247,-2033,13,-3,11,-431,137,-568,147
,1013,2023-10-27 12:19:30.94,245,-246,-2032,13,-2,16,-449,9,-458,220
,1014,2023-10-27 12:19:30.95,235,-241,-2031,11,0,19,-433,129,-562,152
,1015,2023-10-27 12:19:30.96,237,-244,-2033,13,0,19,-442,-10,-432,226
,1016,2023-10-27 12:19:30.97,242,-240,-2036,13,0,24,-436,113,-549,161
,1017,2023-10-27 12:19:30.98,225,-240,-2036,11,0,27,-440,-13,-427,226
,1018,2023-10-27 12:19:30.99,243,-239,-2038,9,-4,26,-437,125,-562,156
,1019,2023-10-27 12:19:31.00,243,-241,-2047,12,-7,26,-435,-2,-433,218
,1020,2023-10-27 12:19:31.01,240,-235,-2048,9,-8,27,-439,126,-565,156
,1021,2023-10-27 12:19:31.02,236,-232,-2040,10,-9,24,-432,-5,-427,218
,1022,2023-10-27 12:19:31.03,242,-232,-2034,11,-9,20,-444,117,-561,163
,1023,2023-10-27 12:19:31.04,228,-234,-2031,14,-8,16,-429,-19,-410,224
,1024,2023-10-27 12:19:31.05,232,-239,-2027,18,-7,10,-453,111,-564,171
,1025,2023-10-27 12:19:31.06,244,-231,-2030,22,-7,8,-429,-13,-416,221
,1026,2023-10-27 12:19:31.07,237,-238,-2028,25,-4,4,-444,128,-572,158
,1027,2023-10-27 12:19:31.08,234,-239,-2031,26,0,-3,-421,-12,-409,216
,1028,2023-10-27 12:19:31.09,224,-243,-2034,27,-1,-3,-461,114,-575,173
,1029,2023-10-27 12:19:31.10,226,-247,-2031,29,-4,-6,-432,-31,-401,231
,1030,2023-10-27 12:19:31.11,223,-250,-2035,31,-7,-7,-458,116,-574,171
,1031,2023-10-27 12:19:31.12,230,-250,-2040,33,-6,-7,-413,-13,-400,213
,1032,2023-10-27 12:19:31.13,229,-253,-2038,38,-7,-8,-454,117,-571,168
,1033,2023-10-27 12:19:31.14,229,-245,-2034,39,-5,-11,-405,-14,-391,209
,1034,2023-10-27 12:19:31.15,240,-252,-2029,36,0,-13,-458,118,-576,170
,1035,2023-10-27 12:19:31.16,234,-251,-2031,33,9,-15,-407,-11,-396,209
,1036,2023-10-27 12:19:31.17,227,-257,-2025,34,11,-16,-468,124,-592,172
,1037,2023-10-27 12:19:31.18,227,-256,-2025,34,13,-13,-406,1,-407,202
,1038,2023-10-27 12:19:31.19,222,-256,-2022,26,15,-10,-463,125,-588,169
,1039,2023-10-27 12:19:31.20,236,-260,-2018,23,19,-5,-396,-2,-394,199
,1040,2023-10-27 12:19:31.21,244,-244,-2029,19,21,-8,-465,116,-581,174
,1041,2023-10-27 12:19:31.22,235,-251,-2029,15,25,-10,-396,-9,-387,202
,1042,2023-10-27 12:19:31.23,248,-245,-2030,8,26,-11,-480,121,-601,179
,1043,2023-10-27 12:19:31.24,255,-259,-2036,5,25,-11,-409,5,-414,202
,1044,2023-10-27 12:19:31.25,241,-256,-2037,6,22,-11,-502,120,-622,191
,1045,2023-10-27 12:19:31.26,238,-254,-2036,5,19,-8,-412,-4,-408,208
,1046,2023-10-27 12:19:31.27,242,-253,-2037,4,15,-6,-499,117,-616,191
,1047,2023-10-27 12:19:31.28,240,-256,-2036,3,11,-1,-407,8,-415,199
,1048,2023-10-27 12:19:31.29,244,-254,-2027,3,6,2,-507,126,-633,190
,1049,2023-10-27 12:19:31.30,246,-260,-2029,1,6,7,-411,12,-423,199
,1050,2023-10-27 12:19:31.31,241,-258,-2028,-1,6,10,-519,123,-642,198
,1051,2023-10-27 12:19:31.32,245,-259,-2033,-3,8,13,-402,9,-411,196
,1052,2023-10-27 12:19:31.33,234,-257,-2038,-3,10,20,-494,118,-612,188
,1053,2023-10-27 12:19:31.34,243,-256,-2034,-7,11,24,-379,8,-387,185
,1054,2023-10-27 12:19:31.35,239,-250,-2028,-10,13,31,-487,117,-604,185
,1055,2023-10-27 12:19:31.36,246,-252,-2031,-11,13,34,-378,13,-391,182
,1056,2023-10-27 12:19:31.37,248,-247,-2033,-12,14,39,-499,124,-623,187
,1057,2023-10-27 12:19:31.38,255,-247,-2035,-10,19,41,-387,25,-412,181
,1058,2023-10-27 12:19:31.39,257,-235,-2028,-15,17,42,-519,134,-653,192
,1059,2023-10-27 12:19:31.40,253,-246,-2032,-12,19,41,-394,37,-431,178
,1060,2023-10-27 12:19:31.41,250,-242,-2036,-12,17,40,-514,133,-647,190
,1061,2023-10-27 12:19:31.42,250,-231,-2033,-8,13,36,-378,37,-415,170
,1062,2023-10-27 12:19:31.43,272,-235,-2018,-5,12,32,-510,133,-643,188
,1063,2023-10-27 12:19:31.44,269,-236,-2037,-5,15,27,-378,41,-419,168
,1064,2023-10-27 12:19:31.45,258,-227,-2035,-4,14,21,-516,131,-647,192
,1065,2023-10-27 12:19:31.46,258,-231,-2038,1,11,14,-379,40,-419,169
,1066,2023-10-27 12:19:31.47,256,-233,-2031,5,6,11,-521,125,-646,198
,1067,2023-10-27 12:19:31.48,260,-234,-2041,2,6,9,-366,51,-417,157
,1068,2023-10-27 12:19:31.49,243,-245,-2038,8,4,10,-505,126,-631,189
,1069,2023-10-27 12:19:31.50,248,-244,-2039,12,1,8,-357,44,-401,156
,1070,2023-10-27 12:19:31.51,254,-243,-2035,8,0,8,-505,105,-610,200
,1071,2023-10-27 12:19:31.52,248,-243,-2036,7,5,7,-360,40,-400,160
,1072,2023-10-27 12:19:31.53,248,-244,-2032,6,9,7,-526,123,-649,201
,1073,2023-10-27 12:19:31.54,240,-235,-2033,3,7,8,-376,60,-436,158
,1074,2023-10-27 12:19:31.55,252,-235,-2036,-3,7,5,-519,119,-638,200
,1075,2023-10-27 12:19:31.56,235,-239,-2046,-8,6,4,-356,48,-404,154
,1076,2023-10-27 12:19:31.57,239,-246,-2043,-10,1,4,-510,105,-615,202
,1077,2023-10-27 12:19:31.58,251,-236,-2038,-10,-3,3,-351,46,-397,152
,1078,2023-10-27 12:19:31.59,253,-241,-2039,-9,-7,0,-505,98,-603,203
,1079,2023-10-27 12:19:31.60,257,-227,-2025,-10,-7,-5,-355,47,-402,154
,1080,2023-10-27 12:19:31.61,244,-224,-2016,-14,-4,-9,-535,109,-644,213
,1081,2023-10-27 12:19:31.62,255,-227,-2035,-14,-4,-15,-370,59,-429,155
,1082,2023-10-27 12:19:31.63,252,-226,-2036,-13,-2,-22,-526,104,-630,211
,1083,2023-10-27 12:19:31.64,255,-224,-2042,-11,-4,-26,-344,51,-395,146
,1084,2023-10-27 12:19:31.65,252,-231,-2040,-12,-9,-28,-501,93,-594,204
,1085,2023-10-27 12:19:31.66,254,-228,-2038,-7,-16,-30,-352,52,-404,150
,1086,2023-10-27 12:19:31.67,249,-239,-2042,-3,-25,-27,-545,107,-652,219
,1087,2023-10-27 12:19:31.68,248,-235,-2040,1,-29,-28,-381,75,-456,153
,1088,2023-10-27 12:19:31.69,245,-243,-2036,3,-30,-25,-550,112,-662,219
,1089,2023-10-27 12:19:31.70,240,-245,-2031,5,-29,-22,-376,78,-454,149
,1090,2023-10-27 12:19:31.71,243,-244,-2031,5,-27,-15,-545,111,-656,217
,1091,2023-10-27 12:19:31.72,232,-245,-2030,3,-25,-9,-371,81,-452,145
,1092,2023-10-27 12:19:31.73,242,-247,-2027,5,-19,-4,-544,100,-644,222
,1093,2023-10-27 12:19:31.74,236,-245,-2030,6,-14,2,-351,78,-429,136
,1094,2023-10-27 12:19:31.75,248,-241,-2030,3,-9,11,-513,102,-615,205
,1095,2023-10-27 12:19:31.76,246,-241,-2031,1,-6,15,-339,79,-418,130
,1096,2023-10-27 12:19:31.77,247,-232,-2036,0,-2,16,-524,92,-616,216
,1097,2023-10-27 12:19:31.78,237,-237,-2031,-2,1,20,-354,81,-435,136
,1098,2023-10-27 12:19:31.79,253,-240,-2040,-1,1,20,-537,99,-636,219
,1099,2023-10-27 12:19:31.80,243,-236,-2037,1,0,21,-361,86,-447,137
,1100,2023-10-27 12:19:31.81,251,-229,-2040,4,-4,22,-539,89,-628,225
,1101,2023-10-27 12:19:31.82,251,-235,-2036,6,-7,24,-349,81,-430,134
,1102,2023-10-27 12:19:31.83,239,-237,-2038,5,-6,21,-521,91,-612,215
,1103,2023-10-27 12:19:31.84,251,-230,-2034,6,-12,24,-346,87,-433,129
,1104,2023-10-27 12:19:31.85,254,-236,-2034,9,-15,24,-532,87,-619,222
,1105,2023-10-27 12:19:31.86,236,-241,-2036,9,-18,24,-353,90,-443,131
,1106,2023-10-27 12:19:31.87,237,-239,-2044,11,-19,26,-531,99,-630,216
,1107,2023-10-27 12:19:31.88,246,-238,-2043,15,-23,25,-357,104,-461,126
,1108,2023-10-27 12:19:31.89,251,-233,-2042,13,-23,24,-535,96,-631,219
,1109,2023-10-27 12:19:31.90,243,-236,-2047,13,-19,22,-363,91,-454,136
,1110,2023-10-27 12:19:31.91,242,-239,-2045,9,-18,20,-541,81,-622,230
,1111,2023-10-27 12:19:31.92,217,-233,-2045,10,-21,25,-360,92,-452,134
,1112,2023-10-27 12:19:31.93,229,-229,-2035,4,-23,27,-525,86,-611,219
,1113,2023-10-27 12:19:31.94,224,-233,-2027,-1,-25,27,-354,104,-458,125
,1114,2023-10-27 12:19:31.95,222,-234,-2034,-6,-27,30,-536,91,-627,222
,1115,2023-10-27 12:19:31.96,234,-230,-2034,-4,-28,28,-365,114,-479,125
,1116,2023-10-27 12:19:31.97,235,-228,-2038,-8,-32,27,-541,84,-625,228
,1117,2023-10-27 12:19:31.98,236,-226,-2045,-7,-37,25,-357,102,-459,127
,1118,2023-10-27 12:19:31.99,228,-227,-2047,-1,-45,22,-524,73,-597,225
,1119,2023-10-27 12:19:32.00,239,-229,-2050,6,-52,19,-343,107,-450,118
,1120,2023-10-27 12:19:32.01,231,-229,-2050,15,-66,19,-518,85,-603,216
,1121,2023-10-27 12:19:32.02,232,-221,-2047,22,-78,14,-363,115,-478,124
,1122,2023-10-27 12:19:32.03,238,-225,-2037,28,-81,5,-544,72,-616,236
,1123,2023-10-27 12:19:32.04,215,-224,-2041,32,-84,1,-363,110,-473,126
,1124,2023-10-27 12:19:32.05,224,-225,-2039,37,-87,-7,-520,71,-591,224
,1125,2023-10-27 12:19:32.06,230,-228,-2039,42,-88,-13,-350,115,-465,117
,1126,2023-10-27 12:19:32.07,213,-228,-2045,49,-88,-20,-523,73,-596,225
,1127,2023-10-27 12:19:32.08,216,-225,-2032,52,-91,-25,-352,118,-470,117
,1128,2023-10-27 12:19:32.09,212,-220,-2032,54,-89,-31,-514,67,-581,223
,1129,2023-10-27 12:19:32.10,216,-224,-2045,54,-90,-37,-351,126,-477,112
,1130,2023-10-27 12:19:32.11,208,-222,-2030,54,-89,-45,-517,72,-589,222
,1131,2023-10-27 12:19:32.12,215,-223,-2050,61,-93,-54,-357,126,-483,115
,1132,2023-10-27 12:19:32.13,208,-225,-2025,62,-94,-62,-519,69,-588,225
,1133,2023-10-27 12:19:32.14,205,-224,-2026,65,-91,-73,-354,127,-481,113
,1134,2023-10-27 12:19:32.15,210,-230,-2033,66,-86,-88,-517,68,-585,224
,1135,2023-10-27 12:19:32.16,208,-219,-2027,69,-84,-102,-359,127,-486,116
,1136,2023-10-27 12:19:32.17,212,-226,-2031,78,-86,-114,-515,53,-568,231
,1137,2023-10-27 12:19:32.18,189,-231,-2032,80,-81,-131,-360,118,-478,121
,1138,2023-10-27 12:19:32.19,203,-232,-2052,79,-79,-141,-509,50,-559,229
,1139,2023-10-27 12:19:32.20,191,-250,-2031,79,-79,-148,-358,126,-484,116
,1140,2023-10-27 12:19:32.21,187,-250,-2042,79,-75,-150,-512,50,-562,231
,1141,2023-10-27 12:19:32.22,190,-254,-2034,80,-79,-152,-372,123,-495,124
,1142,2023-10-27 12:19:32.23,186,-251,-2034,69,-67,-155,-516,43,-559,236
,1143,2023-10-27 12:19:32.24,182,-265,-2035,70,-74,-153,-372,124,-496,124
,1144,2023-10-27 12:19:32.25,182,-264,-2021,67,-60,-152,-510,51,-561,229
,1145,2023-10-27 12:19:32.26,182,-254,-2038,66,-57,-149,-368,134,-502,117
,1146,2023-10-27 12:19:32.27,186,-262,-2005,46,-41,-150,-506,45,-551,230
,1147,2023-10-27 12:19:32.28,188,-272,-2016,48,-34,-145,-374,128,-502,123
,1148,2023-10-27 12:19:32.29,175,-274,-2026,46,-22,-140,-507,34,-541,236
,1149,2023-10-27 12:19:32.30,182,-280,-2029,42,-16,-130,-370,138,-508,116
,1150,2023-10-27 12:19:32.31,170,-288,-2020,34,-10,-121,-504,47,-551,228
,1151,2023-10-27 12:19:32.32,189,-278,-2043,32,-3,-109,-365,143,-508,111
,1152,2023-10-27 12:19:32.33,170,-280,-2026,21,7,-99,-489,34,-523,227
,1153,2023-10-27 12:19:32.34,190,-273,-2010,19,8,-89,-384,136,-520,124
,1154,2023-10-27 12:19:32.35,180,-279,-2025,20,17,-79,-509,34,-543,237
,1155,2023-10-27 12:19:32.36,197,-271,-2026,16,25,-68,-383,138,-521,122
,1156,2023-10-27 12:19:32.37,192,-278,-2028,11,29,-61,-484,36,-520,224
,1157,2023-10-27 12:19:32.38,186,-274,-2036,6,31,-49,-369,136,-505,116
,1158,2023-10-27 12:19:32.39,185,-272,-2043,5,30,-39,-479,20,-499,229
,1159,2023-10-27 12:19:32.40,198,-273,-2040,5,29,-27,-378,126,-504,126
,1160,2023-10-27 12:19:32.41,187,-270,-2039,1,30,-15,-484,24,-508,230
,1161,2023-10-27 12:19:32.42,181,-262,-2041,-4,30,-4,-389,134,-523,127
,1162,2023-10-27 12:19:32.43,197,-264,-2032,-4,29,4,-486,19,-505,233
,1163,2023-10-27 12:19:32.44,188,-270,-2036,-8,34,7,-387,129,-516,129
,1164,2023-10-27 12:19:32.45,201,-261,-2039,-12,34,11,-474,18,-492,228
,1165,2023-10-27 12:19:32.46,191,-255,-2038,-15,34,14,-399,125,-524,137
,1166,2023-10-27 12:19:32.47,193,-253,-2032,-14,35,13,-480,8,-488,236
,1167,2023-10-27 12:19:32.48,198,-251,-2032,-17,37,12,-405,124,-529,140
,1168,2023-10-27 12:19:32.49,194,-248,-2032,-21,38,9,-476,6,-482,235
,1169,2023-10-27 12:19:32.50,203,-246,-2033,-22,41,5,-393,130,-523,131
,1170,2023-10-27 12:19:32.51,196,-242,-2034,-22,45,-1,-462,6,-468,228
,1171,2023-10-27 12:19:32.52,192,-247,-2042,-21,43,-7,-405,128,-533,138
,1172,2023-10-27 12:19:32.53,197,-244,-2037,-21,43,-14,-468,13,-481,227
,1173,2023-10-27 12:19:32.54,192,-241,-2035,-21,44,-17,-419,138,-557,140
,1174,2023-10-27 12:19:32.55,198,-239,-2034,-20,41,-24,-474,14,-488,230
,1175,2023-10-27 12:19:32.56,205,-250,-2024,-18,39,-27,-417,135,-552,141
,1176,2023-10-27 12:19:32.57,206,-252,-2041,-14,36,-30,-461,15,-476,223
,1177,2023-10-27 12:19:32.58,194,-257,-2040,-12,30,-33,-413,146,-559,133
,1178,2023-10-27 12:19:32.59,208,-258,-2038,-2,28,-33,-454,17,-471,218
,1179,2023-10-27 12:19:32.60,204,-251,-2048,4,25,-32,-426,146,-572,140
,1180,2023-10-27 12:19:32.61,202,-251,-2037,5,29,-35,-462,20,-482,221
,1181,2023-10-27 12:19:32.62,202,-256,-2032,5,32,-35,-424,144,-568,140
,1182,2023-10-27 12:19:32.63,209,-256,-2032,4,37,-34,-447,14,-461,216
,1183,2023-10-27 12:19:32.64,210,-254,-2027,3,37,-28,-421,131,-552,145
,1184,2023-10-27 12:19:32.65,211,-263,-2027,-3,41,-23,-438,-3,-435,220
,1185,2023-10-27 12:19:32.66,212,-261,-2032,-8,40,-14,-428,127,-555,150
,1186,2023-10-27 12:19:32.67,198,-256,-2035,-12,39,-6,-444,-7,-437,225
,1187,2023-10-27 12:19:32.68,201,-255,-2041,-19,36,4,-420,126,-546,147
,1188,2023-10-27 12:19:32.69,212,-251,-2037,-23,35,9,-425,0,-425,212
,1189,2023-10-27 12:19:32.70,220,-248,-2038,-27,36,13,-428,128,-556,150
,1190,2023-10-27 12:19:32.71,220,-245,-2042,-29,34,20,-421,9,-430,206
,1191,2023-10-27 12:19:32.72,216,-248,-2033,-27,29,26,-437,125,-562,156
,1192,2023-10-27 12:19:32.73,216,-241,-2050,-32,26,31,-432,-12,-420,222
,1193,2023-10-27 12:19:32.74,215,-240,-2046,-30,21,34,-451,109,-560,171
,1194,2023-10-27 12:19:32.75,221,-249,-2044,-31,17,38,-431,-6,-425,218
,1195,2023-10-27 12:19:32.76,228,-241,-2034,-36,16,43,-435,122,-557,156
,1196,2023-10-27 12:19:32.77,231,-235,-2034,-35,15,46,-420,-19,-401,219
,1197,2023-10-27 12:19:32.78,224,-231,-2046,-36,14,49,-447,116,-563,165
,1198,2023-10-27 12:19:32.79,225,-235,-2038,-40,16,49,-421,-11,-410,216
,1199,2023-10-27 12:19:32.80,222,-236,-2035,-39,15,51,-444,128,-572,158
,1200,2023-10-27 12:19:32.81,219,-234,-2035,-36,14,51,-411,0,-411,205
,1201,2023-10-27 12:19:32.82,212,-227,-2036,-32,15,53,-441,119,-560,161
,1202,2023-10-27 12:19:32.83,222,-226,-2030,-31,16,52,-402,-17,-385,209
,1203,2023-10-27 12:19:32.84,224,-221,-2034,-29,13,47,-449,124,-573,162
,1204,2023-10-27 12:19:32.85,216,-217,-2033,-27,19,44,-406,2,-408,202
,1205,2023-10-27 12:19:32.86,218,-231,-2042,-22,17,42,-456,131,-587,162
,1206,2023-10-27 12:19:32.87,222,-224,-2034,-21,12,40,-404,1,-405,201
,1207,2023-10-27 12:19:32.88,237,-220,-2040,-12,7,38,-466,128,-594,169
,1208,2023-10-27 12:19:32.89,230,-224,-2033,-2,3,35,-401,6,-407,197
,1209,2023-10-27 12:19:32.90,219,-223,-2040,1,5,28,-461,126,-587,167
,1210,2023-10-27 12:19:32.91,219,-226,-2033,6,4,23,-392,-3,-389,197
,1211,2023-10-27 12:19:32.92,227,-225,-2040,13,2,21,-458,122,-580,168
,1212,2023-10-27 12:19:32.93,217,-227,-2042,17,2,19,-382,0,-382,191
,1213,2023-10-27 12:19:32.94,209,-229,-2039,17,3,17,-454,122,-576,166
,1214,2023-10-27 12:19:32.95,223,-235,-2041,17,4,18,-382,-1,-381,191
,1215,2023-10-27 12:19:32.96,210,-233,-2042,21,1,22,-468,110,-578,179
,1216,2023-10-27 12:19:32.97,210,-233,-2037,18,2,18,-388,-8,-380,198
,1217,2023-10-27 12:19:32.98,216,-231,-2025,10,7,21,-475,105,-580,185
,1218,2023-10-27 12:19:32.99,216,-228,-2028,5,14,18,-384,-3,-381,193
,1219,2023-10-27 12:19:33.00,213,-228,-2030,2,18,18,-477,120,-597,178
,1220,2023-10-27 12:19:33.01,214,-229,-2033,-4,21,16,-387,6,-393,190
,1221,2023-10-27 12:19:33.02,223,-230,-2030,-9,24,16,-490,125,-615,182
,1222,2023-10-27 12:19:33.03,227,-230,-2035,-9,27,15,-383,18,-401,182
,1223,2023-10-27 12:19:33.04,220,-229,-2034,-10,30,14,-470,124,-594,173
,1224,2023-10-27 12:19:33.05,220,-227,-2036,-12,33,15,-362,9,-371,176
,1225,2023-10-27 12:19:33.06,225,-227,-2032,-11,32,11,-471,114,-585,178
,1226,2023-10-27 12:19:33.07,216,-234,-2035,-13,33,9,-366,11,-377,177
,1227,2023-10-27 12:19:33.08,230,-223,-2037,-11,35,8,-493,125,-618,184
,1228,2023-10-27 12:19:33.09,230,-221,-2038,-12,32,6,-375,23,-398,176
,1229,2023-10-27 12:19:33.10,242,-220,-2051,-8,30,4,-489,111,-600,189
,1230,2023-10-27 12:19:33.11,234,-230,-2043,-3,24,6,-364,8,-372,178
,1231,2023-10-27 12:19:33.12,228,-228,-2048,1,18,6,-488,116,-604,186
,1232,2023-10-27 12:19:33.13,226,-226,-2040,6,10,4,-366,15,-381,175
,1233,2023-10-27 12:19:33.14,227,-222,-2036,9,6,3,-485,106,-591,189
,1234,2023-10-27 12:19:33.15,217,-225,-2043,12,3,6,-357,7,-364,175
,1235,2023-10-27 12:19:33.16,230,-230,-2039,14,0,6,-491,102,-593,194
,1236,2023-10-27 12:19:33.17,216,-234,-2039,16,-1,8,-357,22,-379,167
,1237,2023-10-27 12:19:33.18,221,-241,-2042,19,-4,16,-496,110,-606,193
,1238,2023-10-27 12:19:33.19,224,-235,-2035,20,-6,20,-351,38,-389,156
,1239,2023-10-27 12:19:33.20,231,-232,-2035,17,-5,23,-487,120,-607,183
,1240,2023-10-27 12:19:33.21,227,-234,-2038,17,-3,23,-351,41,-392,155
,1241,2023-10-27 12:19:33.22,218,-239,-2037,13,0,25,-508,106,-614,201
,1242,2023-10-27 12:19:33.23,222,-233,-2036,12,3,29,-369,26,-395,171
,1243,2023-10-27 12:19:33.24,215,-237,-2035,14,4,28,-517,95,-612,211
,1244,2023-10-27 12:19:33.25,216,-227,-2028,12,4,28,-364,29,-393,167
,1245,2023-10-27 12:19:33.26,214,-230,-2031,11,6,28,-517,100,-617,208
,1246,2023-10-27 12:19:33.27,211,-236,-2035,12,4,29,-356,37,-393,159
,1247,2023-10-27 12:19:33.28,221,-233,-2029,11,3,28,-504,101,-605,201
,1248,2023-10-27 12:19:33.29,218,-232,-2034,12,3,28,-345,45,-390,150
,1249,2023-10-27 12:19:33.30,231,-242,-2036,13,1,26,-506,111,-617,197
,1250,2023-10-27 12:19:33.31,231,-245,-2038,13,0,23,-356,51,-407,152
,1251,2023-10-27 12:19:33.32,219,-232,-2035,19,0,22,-526,107,-633,209
,1252,2023-10-27 12:19:33.33,218,-233,-2034,14,1,19,-358,55,-413,151
,1253,2023-10-27 12:19:33.34,220,-228,-2040,10,5,12,-512,111,-623,200
,1254,2023-10-27 12:19:33.35,224,-235,-2043,8,9,10,-339,62,-401,138
,1255,2023-10-27 12:19:33.36,212,-235,-2031,6,8,7,-500,95,-595,202
,1256,2023-10-27 12:19:33.37,209,-232,-2041,2,5,7,-332,49,-381,141
,1257,2023-10-27 12:19:33.38,216,-225,-2032,-5,5,6,-503,90,-593,206
,1258,2023-10-27 12:19:33.39,215,-231,-2037,-11,9,6,-335,63,-398,136
,1259,2023-10-27 12:19:33.40,213,-229,-2033,-13,8,7,-517,102,-619,207
,1260,2023-10-27 12:19:33.41,219,-221,-2033,-19,7,6,-340,69,-409,135
,1261,2023-10-27 12:19:33.42,213,-228,-2031,-26,9,5,-507,101,-608,203
,1262,2023-10-27 12:19:33.43,219,-226,-2037,-27,13,6,-333,72,-405,130
,1263,2023-10-27 12:19:33.44,218,-226,-2044,-30,16,6,-516,93,-609,211
,1264,2023-10-27 12:19:33.45,215,-227,-2037,-31,16,8,-343,68,-411,137
,1265,2023-10-27 12:19:33.46,225,-224,-2043,-28,14,12,-520,100,-620,210
,1266,2023-10-27 12:19:33.47,222,-220,-2039,-24,13,16,-341,84,-425,128
,1267,2023-10-27 12:19:33.48,225,-221,-2037,-23,13,20,-511,106,-617,202
,1268,2023-10-27 12:19:33.49,220,-220,-2041,-24,14,23,-332,84,-416,124
,1269,2023-10-27 12:19:33.50,222,-218,-2041,-22,12,23,-511,90,-601,210
,1270,2023-10-27 12:19:33.51,236,-218,-2037,-19,17,26,-348,76,-424,136
,1271,2023-10-27 12:19:33.52,236,-220,-2036,-18,19,28,-538,97,-635,220
,1272,2023-10-27 12:19:33.53,211,-213,-2037,-19,17,29,-342,104,-446,119
,1273,2023-10-27 12:19:33.54,221,-211,-2044,-17,20,29,-511,92,-603,209
,1274,2023-10-27 12:19:33.55,217,-214,-2045,-17,21,32,-330,84,-414,123
,1275,2023-10-27 12:19:33.56,232,-207,-2043,-14,22,31,-514,74,-588,220
,1276,2023-10-27 12:19:33.57,228,-209,-2031,-12,22,34,-335,85,-420,125
,1277,2023-10-27 12:19:33.58,229,-218,-2039,-10,23,34,-516,77,-593,219
,1278,2023-10-27 12:19:33.59,232,-207,-2032,-8,19,35,-341,82,-423,129
,1279,2023-10-27 12:19:33.60,240,-211,-2028,-2,23,33,-527,72,-599,227
,1280,2023-10-27 12:19:33.61,240,-206,-2029,1,26,35,-345,86,-431,129
,1281,2023-10-27 12:19:33.62,246,-212,-2034,0,29,34,-532,62,-594,235
,1282,2023-10-27 12:19:33.63,244,-213,-2032,0,33,33,-341,92,-433,124
,1283,2023-10-27 12:19:33.64,236,-214,-2043,1,31,34,-520,72,-592,224
,1284,2023-10-27 12:19:33.65,241,-215,-2044,2,31,35,-347,96,-443,125
,1285,2023-10-27 12:19:33.66,235,-218,-2044,3,33,35,-532,81,-613,225
,1286,2023-10-27 12:19:33.67,241,-214,-2045,5,30,37,-351,110,-461,120
,1287,2023-10-27 12:19:33.68,237,-216,-2036,7,27,41,-525,80,-605,222
,1288,2023-10-27 12:19:33.69,233,-211,-2039,7,24,40,-344,103,-447,120
,1289,2023-10-27 12:19:33.70,241,-214,-2038,4,23,40,-520,66,-586,227
,1290,2023-10-27 12:19:33.71,238,-207,-2037,2,24,40,-342,102,-444,120
,1291,2023-10-27 12:19:33.72,243,-212,-2033,-3,26,39,-518,68,-586,225
,1292,2023-10-27 12:19:33.73,244,-208,-2038,-4,29,38,-347,105,-452,121
,1293,2023-10-27 12:19:33.74,242,-211,-2037,-6,26,37,-523,72,-595,225
,1294,2023-10-27 12:19:33.75,255,-211,-2036,-8,30,37,-348,114,-462,117
,1295,2023-10-27 12:19:33.76,251,-208,-2038,-11,31,35,-515,69,-584,223
,1296,2023-10-27 12:19:33.77,233,-213,-2041,-13,32,34,-355,105,-460,125
,1297,2023-10-27 12:19:33.78,243,-206,-2038,-13,32,34,-531,50,-581,240
,1298,2023-10-27 12:19:33.79,252,-200,-2042,-15,30,31,-362,101,-463,130
,1299,2023-10-27 12:19:33.80,255,-208,-2028,-15,31,29,-520,63,-583,228
,1300,2023-10-27 12:19:33.81,250,-200,-2047,-12,29,30,-362,121,-483,120
,1301,2023-10-27 12:19:33.82,256,-203,-2045,-9,28,26,-528,65,-593,231
,1302,2023-10-27 12:19:33.83,271,-203,-2046,-8,23,26,-378,114,-492,132
,1303,2023-10-27 12:19:33.84,253,-201,-2039,-4,18,27,-536,51,-587,242
,1304,2023-10-27 12:19:33.85,244,-209,-2040,2,9,27,-377,109,-486,134
,1305,2023-10-27 12:19:33.86,253,-207,-2040,4,6,27,-529,54,-583,237
,1306,2023-10-27 12:19:33.87,249,-209,-2038,5,2,27,-374,122,-496,126
,1307,2023-10-27 12:19:33.88,239,-203,-2044,8,0,28,-524,58,-582,233
,1308,2023-10-27 12:19:33.89,244,-203,-2047,10,-5,28,-370,120,-490,125
,1309,2023-10-27 12:19:33.90,248,-209,-2037,13,-3,30,-520,48,-568,236
,1310,2023-10-27 12:19:33.91,245,-204,-2039,13,-4,34,-365,116,-481,124
,1311,2023-10-27 12:19:33.92,258,-214,-2037,13,-6,35,-511,40,-551,235
,1312,2023-10-27 12:19:33.93,254,-203,-2038,13,-6,39,-365,114,-479,125
,1313,2023-10-27 12:19:33.94,248,-203,-2038,10,-6,41,-502,45,-547,228
,1314,2023-10-27 12:19:33.95,246,-205,-2042,10,-7,44,-360,124,-484,118
,1315,2023-10-27 12:19:33.96,241,-211,-2047,12,-9,45,-499,48,-547,225
,1316,2023-10-27 12:19:33.97,247,-205,-2040,11,-10,49,-397,119,-516,139
,1317,2023-10-27 12:19:33.98,244,-208,-2037,9,-10,50,-535,42,-577,246
,1318,2023-10-27 12:19:33.99,244,-203,-2035,14,-12,50,-383,131,-514,126
,1319,2023-10-27 12:19:34.00,249,-198,-2036,14,-11,51,-496,46,-542,225
,1320,2023-10-27 12:19:34.01,233,-202,-2035,15,-9,48,-375,130,-505,122
,1321,2023-10-27 12:19:34.02,243,-208,-2037,16,-8,49,-506,37,-543,234
,1322,2023-10-27 12:19:34.03,249,-211,-2032,19,-7,46,-404,123,-527,140
,1323,2023-10-27 12:19:34.04,240,-203,-2040,21,-6,46,-516,43,-559,236
,1324,2023-10-27 12:19:34.05,235,-207,-2032,23,-8,43,-393,138,-531,127
,1325,2023-10-27 12:19:34.06,239,-214,-2034,27,-5,44,-500,41,-541,229
,1326,2023-10-27 12:19:34.07,234,-217,-2044,29,-12,45,-394,134,-528,130
,1327,2023-10-27 12:19:34.08,232,-210,-2037,30,-13,47,-498,35,-533,231
,1328,2023-10-27 12:19:34.09,240,-210,-2040,36,-14,46,-397,139,-536,129
,1329,2023-10-27 12:19:34.10,238,-213,-2029,34,-13,42,-500,37,-537,231
,1330,2023-10-27 12:19:34.11,241,-204,-2038,31,-6,38,-397,138,-535,129
,1331,2023-10-27 12:19:34.12,227,-221,-2042,31,-2,36,-487,26,-513,230
,1332,2023-10-27 12:19:34.13,238,-215,-2037,28,-5,36,-389,133,-522,128
,1333,2023-10-27 12:19:34.14,228,-219,-2037,27,-4,34,-482,28,-510,227
,1334,2023-10-27 12:19:34.15,219,-223,-2035,21,-2,35,-416,133,-549,141
,1335,2023-10-27 12:19:34.16,232,-223,-2037,18,-2,35,-501,15,-516,243
,1336,2023-10-27 12:19:34.17,238,-219,-2043,14,-4,36,-409,123,-532,143
,1337,2023-10-27 12:19:34.18,232,-213,-2035,10,-7,36,-479,11,-490,234
,1338,2023-10-27 12:19:34.19,229,-219,-2038,9,-6,35,-395,125,-520,135
,1339,2023-10-27 12:19:34.20,235,-211,-2036,5,-7,36,-469,8,-477,230
,1340,2023-10-27 12:19:34.21,229,-225,-2043,5,-12,38,-405,127,-532,139
,1341,2023-10-27 12:19:34.22,232,-225,-2044,8,-13,39,-473,12,-485,230
,1342,2023-10-27 12:19:34.23,233,-220,-2041,11,-18,41,-419,135,-554,142
,1343,2023-10-27 12:19:34.24,232,-224,-2033,11,-18,42,-478,10,-488,234
,1344,2023-10-27 12:19:34.25,221,-221,-2042,11,-19,43,-422,124,-546,149
,1345,2023-10-27 12:19:34.26,222,-215,-2041,12,-16,46,-470,-1,-469,235
,1346,2023-10-27 12:19:34.27,225,-225,-2034,12,-15,45,-428,128,-556,150
,1347,2023-10-27 12:19:34.28,233,-218,-2037,11,-13,47,-472,8,-480,232
,1348,2023-10-27 12:19:34.29,228,-218,-2046,13,-13,49,-425,134,-559,145
,1349,2023-10-27 12:19:34.30,221,-218,-2044,14,-12,50,-459,8,-467,225
,1350,2023-10-27 12:19:34.31,228,-222,-2044,17,-14,51,-426,139,-565,143
,1351,2023-10-27 12:19:34.32,227,-220,-2043,17,-14,52,-459,11,-470,224
,1352,2023-10-27 12:19:34.33,212,-221,-2045,20,-16,51,-436,139,-575,148
,1353,2023-10-27 12:19:34.34,226,-218,-2036,22,-14,49,-458,12,-470,223
,1354,2023-10-27 12:19:34.35,222,-211,-2031,22,-14,47,-434,150,-584,142
,1355,2023-10-27 12:19:34.36,221,-227,-2032,24,-14,47,-452,11,-463,220
,1356,2023-10-27 12:19:34.37,229,-223,-2031,27,-14,47,-445,143,-588,151
,1357,2023-10-27 12:19:34.38,220,-227,-2027,29,-15,46,-456,1,-457,227
,1358,2023-10-27 12:19:34.39,226,-225,-2028,32,-10,43,-450,136,-586,157
,1359,2023-10-27 12:19:34.40,221,-227,-2042,32,-9,39,-445,5,-450,220
,1360,2023-10-27 12:19:34.41,220,-226,-2040,35,-8,36,-430,134,-564,148
,1361,2023-10-27 12:19:34.42,218,-225,-2033,33,-7,35,-425,2,-427,211
,1362,2023-10-27 12:19:34.43,223,-229,-2037,33,-9,32,-431,134,-565,148
,1363,2023-10-27 12:19:34.44,222,-227,-2033,30,-8,30,-437,-3,-434,220
,1364,2023-10-27 12:19:34.45,203,-231,-2035,30,-8,29,-455,139,-594,158
,1365,2023-10-27 12:19:34.46,209,-229,-2036,27,-7,24,-439,9,-448,215
,1366,2023-10-27 12:19:34.47,229,-226,-2030,25,-5,23,-453,134,-587,159
,1367,2023-10-27 12:19:34.48,223,-229,-2030,19,-4,18,-427,-6,-421,216
,1368,2023-10-27 12:19:34.49,210,-227,-2034,16,-2,17,-449,127,-576,161
,1369,2023-10-27 12:19:34.50,213,-235,-2039,16,-2,14,-415,0,-415,207
,1370,2023-10-27 12:19:34.51,213,-234,-2037,15,-3,13,-436,138,-574,149
,1371,2023-10-27 12:19:34.52,218,-233,-2040,10,-2,12,-407,5,-412,201
,1372,2023-10-27 12:19:34.53,211,-226,-2039,11,-2,9,-462,130,-592,166
,1373,2023-10-27 12:19:34.54,219,-235,-2042,11,0,8,-423,-3,-420,213
,1374,2023-10-27 12:19:34.55,226,-235,-2038,10,-2,8,-456,131,-587,162
,1375,2023-10-27 12:19:34.56,225,-229,-2038,9,-1,8,-408,3,-411,202
,1376,2023-10-27 12:19:34.57,223,-230,-2043,9,0,7,-465,126,-591,169
,1377,2023-10-27 12:19:34.58,216,-231,-2037,9,-2,10,-411,-5,-406,208
,1378,2023-10-27 12:19:34.59,226,-233,-2041,9,-3,11,-468,119,-587,174
,1379,2023-10-27 12:19:34.60,217,-229,-2037,8,-4,11,-408,-4,-404,206
,1380,2023-10-27 12:19:34.61,223,-229,-2041,10,-4,10,-487,124,-611,181
,1381,2023-10-27 12:19:34.62,224,-235,-2040,9,-7,13,-416,1,-417,207
,1382,2023-10-27 12:19:34.63,229,-231,-2044,10,-9,15,-474,124,-598,175
,1383,2023-10-27 12:19:34.64,224,-240,-2027,12,-11,19,-393,1,-394,196
,1384,2023-10-27 12:19:34.65,218,-235,-2030,13,-11,21,-480,134,-614,173
,1385,2023-10-27 12:19:34.66,223,-232,-2041,11,-12,24,-402,15,-417,193
,1386,2023-10-27 12:19:34.67,216,-237,-2034,12,-13,26,-488,130,-618,179
,1387,2023-10-27 12:19:34.68,212,-234,-2035,10,-10,31,-395,6,-401,194
,1388,2023-10-27 12:19:34.69,221,-232,-2028,11,-7,33,-476,119,-595,178
,1389,2023-10-27 12:19:34.70,221,-231,-2029,11,-5,35,-385,5,-390,190
,1390,2023-10-27 12:19:34.71,203,-234,-2037,10,-4,37,-490,117,-607,186
,1391,2023-10-27 12:19:34.72,209,-229,-2041,8,-2,36,-392,4,-396,194
,1392,2023-10-27 12:19:34.73,216,-228,-2036,8,-3,35,-486,113,-599,186
,1393,2023-10-27 12:19:34.74,213,-230,-2034,7,-2,36,-380,6,-386,187
,1394,2023-10-27 12:19:34.75,217,-227,-2036,4,-2,31,-486,122,-608,182
,1395,2023-10-27 12:19:34.76,213,-225,-2038,5,-6,30,-374,22,-396,176
,1396,2023-10-27 12:19:34.77,220,-221,-2040,2,-5,27,-489,120,-609,184
,1397,2023-10-27 12:19:34.78,209,-224,-2038,-1,-6,24,-372,20,-392,176
,1398,2023-10-27 12:19:34.79,217,-217,-2037,1,-5,21,-489,118,-607,185
,1399,2023-10-27 12:19:34.80,217,-231,-2039,1,-4,16,-362,22,-384,170
,1400,2023-10-27 12:19:34.81,207,-222,-2033,4,-5,15,-468,118,-586,175
,1401,2023-10-27 12:19:34.82,212,-230,-2028,4,0,10,-346,3,-349,171
,1402,2023-10-27 12:19:34.83,214,-230,-2030,1,4,10,-458,100,-558,179
,1403,2023-10-27 12:19:34.84,203,-229,-2031,6,2,11,-335,-8,-327,171
,1404,2023-10-27 12:19:34.85,215,-237,-2033,7,0,12,-466,85,-551,190
,1405,2023-10-27 12:19:34.86,224,-242,-2047,6,2,13,-338,-7,-331,172
,1406,2023-10-27 12:19:34.87,211,-239,-2044,10,0,16,-469,88,-557,190
,1407,2023-10-27 12:19:34.88,217,-234,-2037,12,1,14,-335,0,-335,167
