// Data mode  : Full
// Data quality  : High
// Acceleration sensor's range  : 16g
// Gyroscope sensor's range  : 2000dps
//
//ARTIFACT,NUM,DATE,ACC_X,ACC_Y,ACC_Z,GYRO_X,GYRO_Y,GYRO_Z,EOG_L,EOG_R,EOG_H,EOG_V
,1,2023-10-27 12:26:40.50,172,-357,-2021,-3,24,-1,388,473,-85,-430
,2,2023-10-27 12:26:40.51,156,-357,-2015,-6,19,0,448,621,-173,-534
,3,2023-10-27 12:26:40.52,160,-360,-2020,-12,23,-1,394,482,-88,-438
,4,2023-10-27 12:26:40.53,173,-349,-2021,-20,27,-4,439,620,-181,-529
,5,2023-10-27 12:26:40.54,171,-340,-2020,-23,18,-9,404,482,-78,-443
,6,2023-10-27 12:26:40.55,188,-343,-2055,-29,21,-12,436,617,-181,-526
,7,2023-10-27 12:26:40.56,179,-362,-2022,-32,17,-10,409,491,-82,-450
,8,2023-10-27 12:26:40.57,174,-349,-2033,-26,26,-13,433,610,-177,-521
,9,2023-10-27 12:26:40.58,175,-349,-2037,-22,20,-10,417,499,-82,-458
,10,2023-10-27 12:26:40.59,180,-350,-2029,-22,10,-14,436,616,-180,-526
,11,2023-10-27 12:26:40.60,177,-346,-2027,-17,17,-9,420,500,-80,-460
,12,2023-10-27 12:26:40.61,180,-350,-2028,-14,9,-10,418,603,-185,-510
,13,2023-10-27 12:26:40.62,186,-352,-2027,-12,14,-6,413,493,-80,-453
,14,2023-10-27 12:26:40.63,187,-349,-2028,-9,10,-2,410,596,-186,-503
,15,2023-10-27 12:26:40.64,170,-351,-2032,-5,9,-2,436,518,-82,-477
,16,2023-10-27 12:26:40.65,178,-354,-2029,-2,11,0,411,599,-188,-505
,17,2023-10-27 12:26:40.66,178,-344,-2033,1,9,2,436,517,-81,-476
,18,2023-10-27 12:26:40.67,168,-355,-2035,5,13,8,400,582,-182,-491
,19,2023-10-27 12:26:40.68,172,-347,-2027,8,2,5,440,522,-82,-481
,20,2023-10-27 12:26:40.69,173,-343,-2025,9,10,13,394,580,-186,-487
,21,2023-10-27 12:26:40.70,179,-360,-2022,11,-1,10,452,529,-77,-490
,22,2023-10-27 12:26:40.71,177,-350,-2032,12,5,14,388,573,-185,-480
,23,2023-10-27 12:26:40.72,181,-345,-2027,20,-7,14,456,537,-81,-496
,24,2023-10-27 12:26:40.73,187,-354,-2019,22,-4,14,378,565,-187,-471
,25,2023-10-27 12:26:40.74,187,-350,-2024,23,2,14,465,545,-80,-505
,26,2023-10-27 12:26:40.75,182,-350,-2020,22,-2,11,380,566,-186,-473
,27,2023-10-27 12:26:40.76,181,-354,-2029,27,4,15,470,548,-78,-509
,28,2023-10-27 12:26:40.77,177,-356,-2031,28,0,15,376,561,-185,-468
,29,2023-10-27 12:26:40.78,178,-358,-2028,26,5,12,479,559,-80,-519
,30,2023-10-27 12:26:40.79,168,-360,-2025,25,2,15,365,553,-188,-459
,31,2023-10-27 12:26:40.80,177,-357,-2025,22,-1,10,486,565,-79,-525
,32,2023-10-27 12:26:40.81,181,-351,-2019,18,9,15,362,549,-187,-455
,33,2023-10-27 12:26:40.82,179,-357,-2019,11,5,10,486,565,-79,-525
,34,2023-10-27 12:26:40.83,176,-354,-2025,9,13,15,355,536,-181,-445
,35,2023-10-27 12:26:40.84,182,-349,-2019,3,7,9,493,572,-79,-532
,36,2023-10-27 12:26:40.85,179,-348,-2020,1,18,7,348,535,-187,-441
,37,2023-10-27 12:26:40.86,191,-355,-2028,-4,10,4,500,576,-76,-538
,38,2023-10-27 12:26:40.87,184,-350,-2021,-2,8,6,348,531,-183,-439
,39,2023-10-27 12:26:40.88,181,-351,-2029,-4,18,8,503,585,-82,-544
,40,2023-10-27 12:26:40.89,183,-349,-2025,-3,14,9,338,520,-182,-429
,41,2023-10-27 12:26:40.90,183,-353,-2024,-2,20,8,511,584,-73,-547
,42,2023-10-27 12:26:40.91,178,-352,-2028,1,14,8,334,520,-186,-427
,43,2023-10-27 12:26:40.92,182,-352,-2018,3,17,5,509,594,-85,-551
,44,2023-10-27 12:26:40.93,182,-353,-2022,5,7,4,330,513,-183,-421
,45,2023-10-27 12:26:40.94,184,-352,-2025,6,11,4,519,604,-85,-561
,46,2023-10-27 12:26:40.95,183,-346,-2035,8,16,5,326,510,-184,-418
,47,2023-10-27 12:26:40.96,191,-356,-2013,3,6,2,524,603,-79,-563
,48,2023-10-27 12:26:40.97,176,-344,-2019,12,10,8,321,505,-184,-413
,49,2023-10-27 12:26:40.98,187,-354,-2023,15,1,7,523,608,-85,-565
,50,2023-10-27 12:26:40.99,182,-342,-2022,17,5,7,314,496,-182,-405
,51,2023-10-27 12:26:41.00,187,-352,-2019,14,-2,5,544,625,-81,-584
,52,2023-10-27 12:26:41.01,190,-348,-2019,16,4,10,316,499,-183,-407
,53,2023-10-27 12:26:41.02,193,-355,-2022,16,0,15,534,622,-88,-578
,54,2023-10-27 12:26:41.03,182,-347,-2026,13,5,15,298,475,-177,-386
,55,2023-10-27 12:26:41.04,180,-358,-2031,11,-1,16,539,630,-91,-584
,56,2023-10-27 12:26:41.05,186,-358,-2032,12,5,20,302,484,-182,-393
,57,2023-10-27 12:26:41.06,179,-349,-2029,10,-1,21,530,624,-94,-577
,58,2023-10-27 12:26:41.07,192,-350,-2027,8,9,25,300,481,-181,-390
,59,2023-10-27 12:26:41.08,192,-347,-2023,5,5,26,541,634,-93,-587
,60,2023-10-27 12:26:41.09,184,-341,-2026,1,3,25,296,472,-176,-384
,61,2023-10-27 12:26:41.10,191,-344,-2026,0,8,21,552,640,-88,-596
,62,2023-10-27 12:26:41.11,179,-349,-2025,1,0,20,296,470,-174,-383
,63,2023-10-27 12:26:41.12,188,-343,-2028,2,6,17,550,638,-88,-594
,64,2023-10-27 12:26:41.13,179,-346,-2021,4,8,19,296,465,-169,-380
,65,2023-10-27 12:26:41.14,181,-347,-2017,5,13,15,553,648,-95,-600
,66,2023-10-27 12:26:41.15,166,-346,-2014,7,6,13,287,462,-175,-374
,67,2023-10-27 12:26:41.16,186,-346,-2017,8,7,13,558,645,-87,-601
,68,2023-10-27 12:26:41.17,177,-352,-2029,14,2,13,289,461,-172,-375
,69,2023-10-27 12:26:41.18,168,-357,-2038,17,-6,13,556,655,-99,-605
,70,2023-10-27 12:26:41.19,189,-357,-2023,22,2,17,279,452,-173,-365
,71,2023-10-27 12:26:41.20,181,-351,-2026,24,1,16,557,658,-101,-607
,72,2023-10-27 12:26:41.21,196,-342,-2029,19,5,12,275,453,-178,-364
,73,2023-10-27 12:26:41.22,180,-346,-2023,17,9,9,553,662,-109,-607
,74,2023-10-27 12:26:41.23,174,-350,-2021,16,11,10,272,448,-176,-360
,75,2023-10-27 12:26:41.24,181,-354,-2023,12,15,11,555,667,-112,-611
,76,2023-10-27 12:26:41.25,178,-354,-2025,11,15,12,266,447,-181,-356
,77,2023-10-27 12:26:41.26,180,-349,-2028,6,16,17,557,666,-109,-611
,78,2023-10-27 12:26:41.27,181,-347,-2019,5,13,17,262,446,-184,-354
,79,2023-10-27 12:26:41.28,176,-349,-2026,2,16,19,552,672,-120,-612
,80,2023-10-27 12:26:41.29,191,-342,-2027,0,9,18,259,440,-181,-349
,81,2023-10-27 12:26:41.30,177,-345,-2029,-2,7,16,558,679,-121,-618
,82,2023-10-27 12:26:41.31,181,-347,-2024,-1,4,16,261,441,-180,-351
,83,2023-10-27 12:26:41.32,185,-345,-2029,-1,4,17,556,675,-119,-615
,84,2023-10-27 12:26:41.33,192,-355,-2033,0,5,15,260,434,-174,-347
,85,2023-10-27 12:26:41.34,186,-354,-2022,-2,1,19,560,680,-120,-620
,86,2023-10-27 12:26:41.35,194,-359,-2028,5,-3,21,259,430,-171,-344
,87,2023-10-27 12:26:41.36,183,-357,-2028,7,-6,24,565,678,-113,-621
,88,2023-10-27 12:26:41.37,177,-355,-2027,7,1,27,263,428,-165,-345
,89,2023-10-27 12:26:41.38,181,-353,-2027,7,-3,27,560,681,-121,-620
,90,2023-10-27 12:26:41.39,193,-347,-2021,10,-2,28,256,423,-167,-339
,91,2023-10-27 12:26:41.40,179,-358,-2020,11,-1,28,564,682,-118,-623
,92,2023-10-27 12:26:41.41,183,-354,-2028,11,-1,29,270,439,-169,-354
,93,2023-10-27 12:26:41.42,184,-353,-2021,11,-9,29,558,684,-126,-621
,94,2023-10-27 12:26:41.43,187,-340,-2017,15,-2,31,255,419,-164,-337
,95,2023-10-27 12:26:41.44,186,-347,-2024,17,-5,30,550,672,-122,-611
,96,2023-10-27 12:26:41.45,175,-357,-2032,19,-12,30,255,417,-162,-336
,97,2023-10-27 12:26:41.46,177,-353,-2023,25,-8,33,562,683,-121,-622
,98,2023-10-27 12:26:41.47,182,-352,-2027,30,-15,31,254,416,-162,-335
,99,2023-10-27 12:26:41.48,178,-353,-2018,34,-11,32,560,690,-130,-625
,100,2023-10-27 12:26:41.49,183,-353,-2026,35,-13,28,261,413,-152,-337
,101,2023-10-27 12:26:41.50,186,-365,-2026,37,-11,28,562,686,-124,-624
,102,2023-10-27 12:26:41.51,193,-358,-2019,38,-10,29,258,414,-156,-336
,103,2023-10-27 12:26:41.52,179,-368,-2022,38,-12,30,554,686,-132,-620
,104,2023-10-27 12:26:41.53,177,-366,-2030,39,-8,34,260,409,-149,-334
,105,2023-10-27 12:26:41.54,177,-359,-2032,39,-14,32,558,691,-133,-624
,106,2023-10-27 12:26:41.55,183,-364,-2016,35,-10,33,262,410,-148,-336
,107,2023-10-27 12:26:41.56,173,-367,-2019,33,-18,34,554,687,-133,-620
,108,2023-10-27 12:26:41.57,171,-360,-2024,29,-9,35,263,412,-149,-337
,109,2023-10-27 12:26:41.58,180,-360,-2023,26,-11,35,551,690,-139,-620
,110,2023-10-27 12:26:41.59,169,-355,-2017,23,-7,31,260,407,-147,-333
,111,2023-10-27 12:26:41.60,185,-362,-2022,18,-2,31,552,693,-141,-622
,112,2023-10-27 12:26:41.61,178,-359,-2015,16,-4,29,261,408,-147,-334
,113,2023-10-27 12:26:41.62,178,-361,-2016,13,4,26,549,689,-140,-619
,114,2023-10-27 12:26:41.63,166,-368,-2022,10,1,22,270,412,-142,-341
,115,2023-10-27 12:26:41.64,175,-351,-2026,7,10,20,544,691,-147,-617
,116,2023-10-27 12:26:41.65,170,-357,-2017,5,3,19,265,410,-145,-337
,117,2023-10-27 12:26:41.66,169,-355,-2017,4,9,16,543,687,-144,-615
,118,2023-10-27 12:26:41.67,173,-358,-2023,2,3,14,273,414,-141,-343
,119,2023-10-27 12:26:41.68,182,-353,-2026,2,6,8,544,693,-149,-618
,120,2023-10-27 12:26:41.69,184,-356,-2033,1,-2,6,270,409,-139,-339
,121,2023-10-27 12:26:41.70,173,-355,-2027,0,5,8,541,687,-146,-614
,122,2023-10-27 12:26:41.71,166,-353,-2029,0,-6,3,274,412,-138,-343
,123,2023-10-27 12:26:41.72,171,-357,-2030,0,-3,2,536,686,-150,-611
,124,2023-10-27 12:26:41.73,172,-352,-2026,1,-15,-2,280,408,-128,-344
,125,2023-10-27 12:26:41.74,163,-356,-2027,3,-6,1,534,688,-154,-611
,126,2023-10-27 12:26:41.75,189,-358,-2024,1,-17,-1,280,412,-132,-346
,127,2023-10-27 12:26:41.76,169,-358,-2026,3,-5,6,531,682,-151,-606
,128,2023-10-27 12:26:41.77,179,-358,-2025,3,-13,0,290,418,-128,-354
,129,2023-10-27 12:26:41.78,168,-359,-2032,4,-4,5,533,685,-152,-609
,130,2023-10-27 12:26:41.79,166,-366,-2022,7,-14,7,288,413,-125,-350
,131,2023-10-27 12:26:41.80,172,-361,-2028,5,-8,10,529,682,-153,-605
,132,2023-10-27 12:26:41.81,165,-354,-2025,2,-5,16,296,417,-121,-356
,133,2023-10-27 12:26:41.82,174,-360,-2029,2,-10,11,537,689,-152,-613
,134,2023-10-27 12:26:41.83,174,-350,-2027,6,-4,17,302,417,-115,-359
,135,2023-10-27 12:26:41.84,162,-356,-2028,6,-9,16,526,678,-152,-602
,136,2023-10-27 12:26:41.85,177,-355,-2028,5,1,15,294,405,-111,-349
,137,2023-10-27 12:26:41.86,173,-354,-2032,8,-5,17,517,670,-153,-593
,138,2023-10-27 12:26:41.87,168,-354,-2030,10,3,17,309,418,-109,-363
,139,2023-10-27 12:26:41.88,172,-356,-2022,13,-1,19,515,676,-161,-595
,140,2023-10-27 12:26:41.89,180,-351,-2017,14,2,17,308,420,-112,-364
,141,2023-10-27 12:26:41.90,169,-358,-2017,20,0,24,509,666,-157,-587
,142,2023-10-27 12:26:41.91,171,-360,-2023,21,-1,19,315,425,-110,-370
,143,2023-10-27 12:26:41.92,168,-365,-2020,29,-2,26,503,666,-163,-584
,144,2023-10-27 12:26:41.93,178,-358,-2019,29,0,22,317,427,-110,-372
,145,2023-10-27 12:26:41.94,172,-359,-2020,26,-5,20,504,660,-156,-582
,146,2023-10-27 12:26:41.95,171,-351,-2025,24,10,19,325,431,-106,-378
,147,2023-10-27 12:26:41.96,168,-360,-2022,24,9,14,495,659,-164,-577
,148,2023-10-27 12:26:41.97,187,-363,-2025,24,25,16,333,432,-99,-382
,149,2023-10-27 12:26:41.98,179,-371,-2032,27,23,9,494,661,-167,-577
,150,2023-10-27 12:26:41.99,169,-376,-2029,23,10,7,336,436,-100,-386
,151,2023-10-27 12:26:42.00,168,-364,-2025,22,18,7,484,651,-167,-567
,152,2023-10-27 12:26:42.01,176,-366,-2012,22,14,6,342,442,-100,-392
,153,2023-10-27 12:26:42.02,174,-360,-2019,21,20,5,482,652,-170,-567
,154,2023-10-27 12:26:42.03,172,-359,-2018,18,12,3,345,441,-96,-393
,155,2023-10-27 12:26:42.04,179,-365,-2021,20,16,1,478,645,-167,-561
,156,2023-10-27 12:26:42.05,181,-368,-2021,15,11,2,353,449,-96,-401
,157,2023-10-27 12:26:42.06,169,-366,-2022,15,15,-3,477,647,-170,-562
,158,2023-10-27 12:26:42.07,172,-370,-2017,15,7,2,362,452,-90,-407
,159,2023-10-27 12:26:42.08,178,-373,-2022,16,10,5,470,641,-171,-555
,160,2023-10-27 12:26:42.09,166,-371,-2009,15,-1,6,368,459,-91,-413
,161,2023-10-27 12:26:42.10,179,-366,-2011,14,4,10,462,632,-170,-547
,162,2023-10-27 12:26:42.11,168,-364,-2016,8,-5,9,379,455,-76,-417
,163,2023-10-27 12:26:42.12,173,-374,-2015,9,0,16,468,626,-158,-547
,164,2023-10-27 12:26:42.13,165,-368,-2029,3,-1,16,383,466,-83,-424
,165,2023-10-27 12:26:42.14,177,-369,-2030,2,-10,23,455,626,-171,-540
,166,2023-10-27 12:26:42.15,158,-367,-2036,-2,-13,20,385,466,-81,-425
,167,2023-10-27 12:26:42.16,165,-371,-2036,-5,-15,30,450,623,-173,-536
,168,2023-10-27 12:26:42.17,164,-361,-2036,-8,-9,33,390,471,-81,-430
,169,2023-10-27 12:26:42.18,157,-364,-2029,-13,-14,37,440,616,-176,-528
,170,2023-10-27 12:26:42.19,150,-364,-2041,-15,-16,38,399,475,-76,-437
,171,2023-10-27 12:26:42.20,159,-355,-2033,-17,-19,41,434,613,-179,-523
,172,2023-10-27 12:26:42.21,167,-354,-2028,-22,-18,41,400,481,-81,-440
,173,2023-10-27 12:26:42.22,175,-350,-2029,-28,-18,45,427,606,-179,-516
,174,2023-10-27 12:26:42.23,152,-351,-2024,-31,-12,43,418,504,-86,-461
,175,2023-10-27 12:26:42.24,172,-348,-2030,-28,-10,40,417,603,-186,-510
,176,2023-10-27 12:26:42.25,165,-348,-2031,-32,-13,35,411,492,-81,-451
,177,2023-10-27 12:26:42.26,146,-347,-2033,-30,-11,34,410,583,-173,-496
,178,2023-10-27 12:26:42.27,148,-353,-2022,-28,-3,35,416,499,-83,-457
,179,2023-10-27 12:26:42.28,146,-348,-2018,-27,-6,35,406,592,-186,-499
,180,2023-10-27 12:26:42.29,157,-349,-2019,-27,-9,32,430,507,-77,-468
,181,2023-10-27 12:26:42.30,156,-347,-2015,-28,-3,32,403,590,-187,-496
,182,2023-10-27 12:26:42.31,157,-342,-2016,-26,2,30,430,509,-79,-469
,183,2023-10-27 12:26:42.32,161,-339,-2023,-24,8,28,385,563,-178,-474
,184,2023-10-27 12:26:42.33,159,-344,-2020,-26,14,26,438,515,-77,-476
,185,2023-10-27 12:26:42.34,162,-348,-2017,-26,21,22,392,576,-184,-484
,186,2023-10-27 12:26:42.35,163,-342,-2026,-25,21,19,444,522,-78,-483
,187,2023-10-27 12:26:42.36,158,-340,-2026,-26,31,14,389,573,-184,-481
,188,2023-10-27 12:26:42.37,170,-332,-2029,-27,31,13,450,528,-78,-489
,189,2023-10-27 12:26:42.38,162,-330,-2029,-25,37,4,376,562,-186,-469
,190,2023-10-27 12:26:42.39,169,-332,-2030,-27,39,-6,456,531,-75,-493
,191,2023-10-27 12:26:42.40,164,-329,-2027,-25,38,-12,374,559,-185,-466
,192,2023-10-27 12:26:42.41,169,-318,-2032,-20,37,-22,458,538,-80,-498
,193,2023-10-27 12:26:42.42,176,-323,-2019,-17,34,-25,363,551,-188,-457
,194,2023-10-27 12:26:42.43,181,-330,-2029,-17,33,-33,466,542,-76,-504
,195,2023-10-27 12:26:42.44,185,-328,-2032,-12,25,-42,362,551,-189,-456
,196,2023-10-27 12:26:42.45,177,-323,-2034,-6,27,-48,469,550,-81,-509
,197,2023-10-27 12:26:42.46,161,-328,-2040,-2,18,-51,357,540,-183,-448
,198,2023-10-27 12:26:42.47,173,-322,-2036,-4,18,-55,478,557,-79,-517
,199,2023-10-27 12:26:42.48,175,-324,-2034,-3,7,-57,349,536,-187,-442
,200,2023-10-27 12:26:42.49,181,-334,-2024,-2,14,-53,481,558,-77,-519
,201,2023-10-27 12:26:42.50,185,-334,-2024,-6,3,-56,346,527,-181,-436
,202,2023-10-27 12:26:42.51,179,-340,-2025,-12,9,-51,486,568,-82,-527
,203,2023-10-27 12:26:42.52,171,-333,-2029,-14,15,-52,338,524,-186,-431
,204,2023-10-27 12:26:42.53,179,-341,-2026,-17,15,-50,491,572,-81,-531
,205,2023-10-27 12:26:42.54,177,-339,-2031,-20,12,-46,334,522,-188,-428
,206,2023-10-27 12:26:42.55,188,-331,-2016,-19,23,-41,494,577,-83,-535
,207,2023-10-27 12:26:42.56,195,-334,-2038,-20,15,-42,327,512,-185,-419
,208,2023-10-27 12:26:42.57,193,-326,-2038,-22,23,-40,501,579,-78,-540
,209,2023-10-27 12:26:42.58,185,-322,-2024,-25,24,-37,317,508,-191,-412
,210,2023-10-27 12:26:42.59,195,-328,-2023,-23,24,-41,498,588,-90,-543
,211,2023-10-27 12:26:42.60,199,-323,-2023,-23,21,-44,310,501,-191,-405
,212,2023-10-27 12:26:42.61,204,-322,-2027,-24,23,-44,505,595,-90,-550
,213,2023-10-27 12:26:42.62,189,-326,-2021,-24,24,-50,311,500,-189,-405
,214,2023-10-27 12:26:42.63,197,-322,-2022,-19,20,-49,509,598,-89,-553
,215,2023-10-27 12:26:42.64,188,-323,-2020,-17,18,-52,316,498,-182,-407
,216,2023-10-27 12:26:42.65,194,-334,-2024,-16,16,-52,529,604,-75,-566
,217,2023-10-27 12:26:42.66,188,-331,-2020,-10,9,-56,342,495,-153,-418
,218,2023-10-27 12:26:42.67,188,-344,-2021,2,24,-52,541,600,-59,-570
,219,2023-10-27 12:26:42.68,188,-339,-2026,4,21,-53,298,474,-176,-386
,220,2023-10-27 12:26:42.69,185,-329,-2015,4,26,-49,511,605,-94,-558
,221,2023-10-27 12:26:42.70,190,-342,-2019,8,39,-52,285,472,-187,-378
,222,2023-10-27 12:26:42.71,188,-342,-2025,17,33,-47,524,611,-87,-567
,223,2023-10-27 12:26:42.72,204,-339,-2027,22,36,-46,287,473,-186,-380
,224,2023-10-27 12:26:42.73,203,-332,-2020,23,39,-43,509,604,-95,-556
,225,2023-10-27 12:26:42.74,188,-326,-2030,18,44,-48,279,462,-183,-370
,226,2023-10-27 12:26:42.75,211,-323,-2031,16,39,-51,528,617,-89,-572
,227,2023-10-27 12:26:42.76,193,-314,-2021,20,48,-52,278,460,-182,-369
,228,2023-10-27 12:26:42.77,201,-330,-2032,17,33,-55,528,624,-96,-576
,229,2023-10-27 12:26:42.78,210,-328,-2015,12,45,-51,270,453,-183,-361
,230,2023-10-27 12:26:42.79,205,-336,-2035,12,41,-50,533,631,-98,-582
,231,2023-10-27 12:26:42.80,214,-332,-2020,8,44,-48,270,454,-184,-362
,232,2023-10-27 12:26:42.81,203,-329,-2026,1,33,-50,533,635,-102,-584
,233,2023-10-27 12:26:42.82,202,-325,-2028,-2,38,-50,269,449,-180,-359
,234,2023-10-27 12:26:42.83,202,-320,-2021,-10,31,-54,536,642,-106,-589
,235,2023-10-27 12:26:42.84,218,-319,-2030,-13,28,-52,264,447,-183,-355
,236,2023-10-27 12:26:42.85,220,-321,-2029,-21,27,-56,536,640,-104,-588
,237,2023-10-27 12:26:42.86,214,-317,-2028,-23,27,-54,264,446,-182,-355
,238,2023-10-27 12:26:42.87,203,-322,-2033,-24,17,-57,541,650,-109,-595
,239,2023-10-27 12:26:42.88,218,-319,-2029,-27,25,-54,256,436,-180,-346
,240,2023-10-27 12:26:42.89,200,-322,-2031,-28,15,-57,546,645,-99,-595
,241,2023-10-27 12:26:42.90,213,-327,-2031,-33,22,-54,263,438,-175,-350
,242,2023-10-27 12:26:42.91,212,-320,-2030,-39,18,-52,546,654,-108,-600
,243,2023-10-27 12:26:42.92,215,-315,-2027,-39,26,-53,255,431,-176,-343
,244,2023-10-27 12:26:42.93,213,-312,-2027,-38,22,-56,546,655,-109,-600
,245,2023-10-27 12:26:42.94,203,-312,-2036,-42,22,-56,252,429,-177,-340
,246,2023-10-27 12:26:42.95,215,-308,-2031,-47,25,-57,544,656,-112,-600
,247,2023-10-27 12:26:42.96,220,-303,-2033,-50,27,-60,256,427,-171,-341
,248,2023-10-27 12:26:42.97,205,-307,-2032,-49,26,-61,554,664,-110,-609
,249,2023-10-27 12:26:42.98,217,-294,-2022,-50,34,-69,254,421,-167,-337
,250,2023-10-27 12:26:42.99,210,-303,-2027,-51,36,-69,559,663,-104,-611
,251,2023-10-27 12:26:43.00,212,-307,-2025,-50,33,-70,258,425,-167,-341
,252,2023-10-27 12:26:43.01,224,-307,-2030,-46,35,-74,557,669,-112,-613
,253,2023-10-27 12:26:43.02,213,-291,-2023,-43,32,-78,256,417,-161,-336
,254,2023-10-27 12:26:43.03,215,-302,-2027,-38,41,-79,556,673,-117,-614
,255,2023-10-27 12:26:43.04,226,-294,-2027,-43,33,-83,251,415,-164,-333
,256,2023-10-27 12:26:43.05,224,-298,-2028,-40,44,-87,560,678,-118,-619
,257,2023-10-27 12:26:43.06,225,-292,-2034,-40,37,-92,249,410,-161,-329
,258,2023-10-27 12:26:43.07,225,-296,-2027,-35,41,-97,556,673,-117,-614
,259,2023-10-27 12:26:43.08,222,-297,-2038,-39,40,-95,251,403,-152,-327
,260,2023-10-27 12:26:43.09,228,-294,-2037,-39,48,-97,554,671,-117,-612
,261,2023-10-27 12:26:43.10,233,-303,-2032,-32,47,-100,252,408,-156,-330
,262,2023-10-27 12:26:43.11,213,-287,-2031,-29,50,-100,548,663,-115,-605
,263,2023-10-27 12:26:43.12,229,-294,-2024,-31,45,-100,254,402,-148,-328
,264,2023-10-27 12:26:43.13,233,-279,-2016,-31,53,-104,562,669,-107,-615
,265,2023-10-27 12:26:43.14,234,-289,-2023,-25,52,-103,258,403,-145,-330
,266,2023-10-27 12:26:43.15,249,-288,-2024,-22,52,-105,561,676,-115,-618
,267,2023-10-27 12:26:43.16,230,-288,-2022,-22,56,-102,260,400,-140,-330
,268,2023-10-27 12:26:43.17,241,-295,-2022,-23,57,-105,562,681,-119,-621
,269,2023-10-27 12:26:43.18,230,-284,-2016,-18,72,-103,260,405,-145,-332
,270,2023-10-27 12:26:43.19,235,-291,-2019,-17,73,-107,558,678,-120,-618
,271,2023-10-27 12:26:43.20,249,-290,-2014,-16,84,-106,260,402,-142,-331
,272,2023-10-27 12:26:43.21,252,-290,-2016,-11,93,-106,556,679,-123,-617
,273,2023-10-27 12:26:43.22,242,-281,-2010,-9,98,-104,257,399,-142,-328
,274,2023-10-27 12:26:43.23,251,-292,-2012,-6,103,-106,558,678,-120,-618
,275,2023-10-27 12:26:43.24,255,-283,-2020,-4,104,-103,264,402,-138,-333
,276,2023-10-27 12:26:43.25,255,-296,-2025,-7,106,-103,559,683,-124,-621
,277,2023-10-27 12:26:43.26,256,-286,-2037,0,111,-101,264,398,-134,-331
,278,2023-10-27 12:26:43.27,266,-313,-2032,6,110,-98,556,685,-129,-620
,279,2023-10-27 12:26:43.28,246,-258,-2030,16,114,-97,266,404,-138,-335
,280,2023-10-27 12:26:43.29,248,-277,-2024,-1,114,-96,553,683,-130,-618
,281,2023-10-27 12:26:43.30,279,-305,-2022,-11,104,-92,272,404,-132,-338
,282,2023-10-27 12:26:43.31,254,-275,-2044,-2,121,-92,554,689,-135,-621
,283,2023-10-27 12:26:43.32,266,-267,-2048,-1,118,-91,268,404,-136,-336
,284,2023-10-27 12:26:43.33,267,-275,-2027,-9,107,-90,551,681,-130,-616
,285,2023-10-27 12:26:43.34,273,-265,-2032,-19,100,-89,273,403,-130,-338
,286,2023-10-27 12:26:43.35,270,-266,-2037,-24,110,-91,545,683,-138,-614
,287,2023-10-27 12:26:43.36,285,-269,-2027,-28,87,-90,273,401,-128,-337
,288,2023-10-27 12:26:43.37,292,-274,-2033,-36,94,-93,541,678,-137,-609
,289,2023-10-27 12:26:43.38,290,-272,-2037,-40,89,-95,273,405,-132,-339
,290,2023-10-27 12:26:43.39,304,-267,-2041,-44,86,-97,535,680,-145,-607
,291,2023-10-27 12:26:43.40,289,-275,-2031,-45,84,-102,275,406,-131,-340
,292,2023-10-27 12:26:43.41,301,-257,-2015,-48,87,-104,540,686,-146,-613
,293,2023-10-27 12:26:43.42,323,-260,-2012,-54,101,-109,284,411,-127,-347
,294,2023-10-27 12:26:43.43,323,-261,-2019,-51,112,-112,542,687,-145,-614
,295,2023-10-27 12:26:43.44,288,-271,-2004,-47,122,-118,298,422,-124,-360
,296,2023-10-27 12:26:43.45,302,-279,-2021,-43,127,-119,540,692,-152,-616
,297,2023-10-27 12:26:43.46,303,-265,-2031,-36,131,-113,304,428,-124,-366
,298,2023-10-27 12:26:43.47,280,-258,-2037,-35,123,-114,535,685,-150,-610
,299,2023-10-27 12:26:43.48,292,-248,-2029,-42,106,-107,294,417,-123,-355
,300,2023-10-27 12:26:43.49,294,-254,-2031,-58,84,-101,529,673,-144,-601
,301,2023-10-27 12:26:43.50,296,-266,-2056,-68,58,-94,300,415,-115,-357
,302,2023-10-27 12:26:43.51,305,-269,-2041,-62,45,-85,518,675,-157,-596
,303,2023-10-27 12:26:43.52,297,-247,-2036,-54,27,-75,287,404,-117,-345
,304,2023-10-27 12:26:43.53,307,-255,-2037,-54,8,-58,508,665,-157,-586
,305,2023-10-27 12:26:43.54,311,-253,-2038,-55,-10,-50,296,414,-118,-355
,306,2023-10-27 12:26:43.55,315,-250,-2054,-49,-14,-40,493,659,-166,-576
,307,2023-10-27 12:26:43.56,315,-247,-2054,-45,-24,-34,287,405,-118,-346
,308,2023-10-27 12:26:43.57,322,-256,-2052,-48,-27,-26,481,653,-172,-567
,309,2023-10-27 12:26:43.58,324,-254,-2048,-46,-23,-20,290,408,-118,-349
,310,2023-10-27 12:26:43.59,320,-257,-2037,-40,-12,-18,482,651,-169,-566
,311,2023-10-27 12:26:43.60,323,-255,-2030,-22,-4,-13,306,415,-109,-360
,312,2023-10-27 12:26:43.61,328,-250,-2019,-21,-4,-9,484,656,-172,-570
,313,2023-10-27 12:26:43.62,310,-244,-2033,-17,14,-4,311,424,-113,-367
,314,2023-10-27 12:26:43.63,327,-245,-2041,-5,11,0,489,654,-165,-571
,315,2023-10-27 12:26:43.64,308,-246,-2044,9,14,6,324,432,-108,-378
,316,2023-10-27 12:26:43.65,305,-241,-2051,13,10,9,488,658,-170,-573
,317,2023-10-27 12:26:43.66,308,-245,-2048,15,2,15,338,435,-97,-386
,318,2023-10-27 12:26:43.67,318,-247,-2043,17,0,23,488,658,-170,-573
,319,2023-10-27 12:26:43.68,304,-238,-2033,23,-12,28,339,440,-101,-389
,320,2023-10-27 12:26:43.69,305,-233,-2029,28,-15,33,483,649,-166,-566
,321,2023-10-27 12:26:43.70,311,-243,-2032,29,-23,41,351,448,-97,-399
,322,2023-10-27 12:26:43.71,308,-243,-2040,29,-25,40,483,650,-167,-566
,323,2023-10-27 12:26:43.72,303,-247,-2037,27,-17,47,355,449,-94,-402
,324,2023-10-27 12:26:43.73,310,-239,-2034,25,-20,49,483,649,-166,-566
,325,2023-10-27 12:26:43.74,291,-244,-2037,26,-11,52,364,454,-90,-409
,326,2023-10-27 12:26:43.75,305,-248,-2040,23,-15,52,477,644,-167,-560
,327,2023-10-27 12:26:43.76,298,-252,-2036,24,-9,54,375,461,-86,-418
,328,2023-10-27 12:26:43.77,307,-246,-2033,21,-7,59,470,641,-171,-555
,329,2023-10-27 12:26:43.78,301,-246,-2030,13,0,58,376,463,-87,-419
,330,2023-10-27 12:26:43.79,287,-256,-2047,7,-4,59,463,634,-171,-548
,331,2023-10-27 12:26:43.80,298,-244,-2029,6,2,63,386,472,-86,-429
,332,2023-10-27 12:26:43.81,310,-261,-2040,7,-7,58,460,635,-175,-547
,333,2023-10-27 12:26:43.82,307,-241,-2036,13,-12,55,388,473,-85,-430
,334,2023-10-27 12:26:43.83,305,-245,-2036,10,-4,52,452,630,-178,-541
,335,2023-10-27 12:26:43.84,327,-253,-2040,6,-10,39,396,481,-85,-438
,336,2023-10-27 12:26:43.85,312,-260,-2038,9,-14,39,446,622,-176,-534
,337,2023-10-27 12:26:43.86,328,-249,-2047,13,-23,28,405,482,-77,-443
,338,2023-10-27 12:26:43.87,308,-265,-2027,14,-26,31,453,631,-178,-542
,339,2023-10-27 12:26:43.88,310,-263,-2037,-1,-36,24,406,490,-84,-448
,340,2023-10-27 12:26:43.89,307,-273,-2026,-6,-34,28,437,614,-177,-525
,341,2023-10-27 12:26:43.90,321,-264,-2031,-14,-51,25,415,487,-72,-451
,342,2023-10-27 12:26:43.91,320,-276,-2026,-25,-44,28,428,611,-183,-519
,343,2023-10-27 12:26:43.92,310,-281,-2026,-34,-48,29,418,496,-78,-457
,344,2023-10-27 12:26:43.93,314,-267,-2009,-42,-34,33,415,592,-177,-503
,345,2023-10-27 12:26:43.94,308,-277,-2025,-47,-29,37,427,505,-78,-466
,346,2023-10-27 12:26:43.95,303,-300,-2019,-51,-36,40,412,595,-183,-503
,347,2023-10-27 12:26:43.96,310,-301,-2020,-55,-47,53,436,511,-75,-473
,348,2023-10-27 12:26:43.97,342,-304,-2005,-58,-44,65,408,596,-188,-502
,349,2023-10-27 12:26:43.98,369,-296,-1976,-64,-40,80,433,517,-84,-475
,350,2023-10-27 12:26:43.99,370,-286,-2001,-65,-11,83,394,582,-188,-488
,351,2023-10-27 12:26:44.00,339,-303,-2023,-64,1,94,442,518,-76,-480
,352,2023-10-27 12:26:44.01,353,-305,-2053,-48,-19,106,384,582,-198,-483
,353,2023-10-27 12:26:44.02,350,-299,-2060,-26,-48,133,442,528,-86,-485
,354,2023-10-27 12:26:44.03,357,-291,-2069,-16,-73,153,377,575,-198,-476
,355,2023-10-27 12:26:44.04,326,-273,-2032,-26,-122,194,452,538,-86,-495
,356,2023-10-27 12:26:44.05,328,-262,-2044,-27,-144,219,371,569,-198,-470
,357,2023-10-27 12:26:44.06,316,-269,-2020,-44,-160,240,453,538,-85,-495
,358,2023-10-27 12:26:44.07,299,-270,-2027,-62,-149,260,364,565,-201,-464
,359,2023-10-27 12:26:44.08,280,-262,-2025,-77,-157,270,455,544,-89,-499
,360,2023-10-27 12:26:44.09,276,-252,-2007,-68,-154,286,355,558,-203,-456
,361,2023-10-27 12:26:44.10,265,-241,-1990,-48,-147,296,464,549,-85,-506
,362,2023-10-27 12:26:44.11,250,-231,-1996,-28,-122,300,348,555,-207,-451
,363,2023-10-27 12:26:44.12,255,-209,-2012,-8,-110,301,464,557,-93,-510
,364,2023-10-27 12:26:44.13,232,-206,-2021,7,-91,303,338,550,-212,-444
,365,2023-10-27 12:26:44.14,232,-187,-2038,27,-98,302,472,570,-98,-521
,366,2023-10-27 12:26:44.15,234,-179,-2037,38,-86,291,332,544,-212,-438
,367,2023-10-27 12:26:44.16,223,-164,-2041,40,-90,279,470,568,-98,-519
,368,2023-10-27 12:26:44.17,225,-171,-2038,42,-86,262,328,538,-210,-433
,369,2023-10-27 12:26:44.18,215,-151,-2046,39,-89,251,481,576,-95,-528
,370,2023-10-27 12:26:44.19,224,-178,-2053,33,-96,232,324,529,-205,-426
,371,2023-10-27 12:26:44.20,224,-181,-2049,32,-108,219,492,577,-85,-534
,372,2023-10-27 12:26:44.21,227,-179,-2052,32,-108,202,322,527,-205,-424
,373,2023-10-27 12:26:44.22,213,-187,-2053,31,-121,185,493,588,-95,-540
,374,2023-10-27 12:26:44.23,200,-186,-2050,28,-131,164,314,518,-204,-416
,375,2023-10-27 12:26:44.24,206,-185,-2050,28,-132,154,498,596,-98,-547
,376,2023-10-27 12:26:44.25,195,-191,-2040,31,-138,133,309,514,-205,-411
,377,2023-10-27 12:26:44.26,203,-207,-2050,31,-140,121,499,594,-95,-546
,378,2023-10-27 12:26:44.27,188,-207,-2048,28,-147,104,310,506,-196,-408
,379,2023-10-27 12:26:44.28,199,-212,-2030,21,-145,92,520,615,-95,-567
,380,2023-10-27 12:26:44.29,191,-200,-2040,20,-155,71,306,502,-196,-404
,381,2023-10-27 12:26:44.30,191,-182,-2041,20,-160,51,512,602,-90,-557
,382,2023-10-27 12:26:44.31,183,-164,-2079,32,-168,16,303,488,-185,-395
,383,2023-10-27 12:26:44.32,164,-148,-2091,46,-193,-29,516,612,-96,-564
,384,2023-10-27 12:26:44.33,151,-124,-2096,57,-246,-77,296,490,-194,-393
,385,2023-10-27 12:26:44.34,163,-139,-2093,75,-301,-120,524,615,-91,-569
,386,2023-10-27 12:26:44.35,156,-143,-2093,80,-342,-171,302,493,-191,-397
,387,2023-10-27 12:26:44.36,151,-161,-2098,80,-380,-215,527,622,-95,-574
,388,2023-10-27 12:26:44.37,137,-170,-2082,71,-400,-254,286,469,-183,-377
,389,2023-10-27 12:26:44.38,131,-202,-2070,58,-416,-288,537,626,-89,-581
,390,2023-10-27 12:26:44.39,122,-207,-2072,44,-424,-309,302,480,-178,-391
,391,2023-10-27 12:26:44.40,103,-236,-2042,26,-431,-323,545,633,-88,-589
,392,2023-10-27 12:26:44.41,100,-239,-2055,9,-422,-329,294,476,-182,-385
,393,2023-10-27 12:26:44.42,75,-250,-2037,-30,-390,-333,534,631,-97,-582
,394,2023-10-27 12:26:44.43,91,-264,-2026,-61,-376,-326,290,470,-180,-380
,395,2023-10-27 12:26:44.44,65,-278,-2038,-89,-344,-311,547,636,-89,-591
,396,2023-10-27 12:26:44.45,56,-269,-2019,-111,-331,-295,304,459,-155,-381
,397,2023-10-27 12:26:44.46,63,-259,-2051,-118,-304,-278,571,640,-69,-605
,398,2023-10-27 12:26:44.47,38,-261,-2037,-131,-279,-260,318,459,-141,-388
,399,2023-10-27 12:26:44.48,53,-266,-2006,-128,-244,-241,578,642,-64,-610
,400,2023-10-27 12:26:44.49,52,-248,-1997,-100,-215,-223,319,450,-131,-384
,401,2023-10-27 12:26:44.50,47,-240,-1983,-69,-184,-195,579,650,-71,-614
,402,2023-10-27 12:26:44.51,60,-232,-1999,-38,-164,-169,304,449,-145,-376
,403,2023-10-27 12:26:44.52,24,-238,-1998,-37,-121,-145,574,652,-78,-613
,404,2023-10-27 12:26:44.53,36,-237,-2002,-29,-88,-119,298,449,-151,-373
,405,2023-10-27 12:26:44.54,11,-247,-2026,-8,-66,-95,570,652,-82,-611
,406,2023-10-27 12:26:44.55,23,-247,-2017,21,-61,-70,297,444,-147,-370
,407,2023-10-27 12:26:44.56,42,-239,-2009,28,-42,-46,577,656,-79,-616
,408,2023-10-27 12:26:44.57,40,-252,-2004,29,-13,-30,296,435,-139,-365
,409,2023-10-27 12:26:44.58,45,-245,-2011,33,15,-12,582,659,-77,-620
,410,2023-10-27 12:26:44.59,30,-255,-2018,46,36,9,298,433,-135,-365
,411,2023-10-27 12:26:44.60,34,-255,-2052,51,51,31,588,666,-78,-627
,412,2023-10-27 12:26:44.61,30,-246,-2025,38,72,50,298,432,-134,-365
,413,2023-10-27 12:26:44.62,53,-245,-2046,30,87,66,591,663,-72,-627
,414,2023-10-27 12:26:44.63,46,-258,-2027,25,106,79,299,432,-133,-365
,415,2023-10-27 12:26:44.64,45,-251,-2037,33,111,93,596,667,-71,-631
,416,2023-10-27 12:26:44.65,71,-249,-2041,39,117,100,299,431,-132,-365
,417,2023-10-27 12:26:44.66,59,-235,-2021,35,127,98,587,669,-82,-628
,418,2023-10-27 12:26:44.67,80,-224,-2032,30,133,96,291,426,-135,-358
,419,2023-10-27 12:26:44.68,83,-218,-2015,20,137,95,586,672,-86,-629
,420,2023-10-27 12:26:44.69,88,-229,-2030,15,139,90,296,435,-139,-365
,421,2023-10-27 12:26:44.70,87,-240,-2037,5,143,87,586,676,-90,-631
,422,2023-10-27 12:26:44.71,94,-235,-2045,0,137,83,283,426,-143,-354
,423,2023-10-27 12:26:44.72,101,-233,-2048,1,131,82,581,676,-95,-628
,424,2023-10-27 12:26:44.73,105,-244,-2049,-2,125,81,281,424,-143,-352
,425,2023-10-27 12:26:44.74,111,-247,-2054,-2,121,78,584,678,-94,-631
,426,2023-10-27 12:26:44.75,101,-229,-2055,-6,113,77,292,419,-127,-355
,427,2023-10-27 12:26:44.76,122,-235,-2034,-9,106,74,594,677,-83,-635
,428,2023-10-27 12:26:44.77,123,-231,-2035,-12,105,71,296,417,-121,-356
,429,2023-10-27 12:26:44.78,125,-247,-2030,-18,111,66,586,667,-81,-626
,430,2023-10-27 12:26:44.79,127,-234,-2033,-24,116,68,300,418,-118,-359
,431,2023-10-27 12:26:44.80,123,-229,-2027,-23,119,68,601,684,-83,-642
,432,2023-10-27 12:26:44.81,144,-224,-2029,-19,120,67,296,414,-118,-355
,433,2023-10-27 12:26:44.82,138,-217,-2022,-28,128,68,592,684,-92,-638
,434,2023-10-27 12:26:44.83,154,-215,-2043,-33,131,67,286,412,-126,-349
,435,2023-10-27 12:26:44.84,138,-207,-2040,-34,131,67,582,682,-100,-632
,436,2023-10-27 12:26:44.85,156,-234,-2048,-27,123,71,284,408,-124,-346
,437,2023-10-27 12:26:44.86,135,-233,-2048,-19,111,77,589,680,-91,-634
,438,2023-10-27 12:26:44.87,138,-221,-2052,-12,99,82,287,409,-122,-348
,439,2023-10-27 12:26:44.88,145,-225,-2062,-7,86,85,583,683,-100,-633
,440,2023-10-27 12:26:44.89,134,-215,-2064,-3,71,89,281,406,-125,-343
,441,2023-10-27 12:26:44.90,127,-211,-2053,5,60,94,575,682,-107,-628
,442,2023-10-27 12:26:44.91,149,-208,-2054,5,51,95,279,401,-122,-340
,443,2023-10-27 12:26:44.92,139,-206,-2047,-2,43,96,575,675,-100,-625
,444,2023-10-27 12:26:44.93,150,-207,-2043,-6,40,93,277,398,-121,-337
,445,2023-10-27 12:26:44.94,132,-203,-2045,-6,38,95,570,673,-103,-621
,446,2023-10-27 12:26:44.95,134,-209,-2039,-14,35,94,281,398,-117,-339
,447,2023-10-27 12:26:44.96,139,-207,-2046,-22,37,93,575,682,-107,-628
,448,2023-10-27 12:26:44.97,119,-196,-2057,-30,36,93,287,398,-111,-342
,449,2023-10-27 12:26:44.98,124,-196,-2059,-34,28,97,579,682,-103,-630
,450,2023-10-27 12:26:44.99,144,-213,-2054,-39,23,98,292,396,-104,-344
,451,2023-10-27 12:26:45.00,130,-197,-2038,-38,32,100,580,678,-98,-629
,452,2023-10-27 12:26:45.01,131,-201,-2034,-40,41,100,296,398,-102,-347
,453,2023-10-27 12:26:45.02,135,-201,-2017,-45,46,102,582,681,-99,-631
,454,2023-10-27 12:26:45.03,140,-199,-2014,-57,61,98,322,411,-89,-366
,455,2023-10-27 12:26:45.04,140,-198,-2007,-68,77,98,597,687,-90,-642
,456,2023-10-27 12:26:45.05,134,-217,-2032,-78,94,98,306,394,-88,-350
,457,2023-10-27 12:26:45.06,136,-224,-2060,-86,99,100,571,667,-96,-619
,458,2023-10-27 12:26:45.07,94,-218,-2082,-83,83,106,306,393,-87,-349
,459,2023-10-27 12:26:45.08,97,-222,-2090,-74,62,113,573,669,-96,-621
,460,2023-10-27 12:26:45.09,75,-205,-2097,-78,42,123,314,399,-85,-356
,461,2023-10-27 12:26:45.10,77,-186,-2080,-94,19,131,580,677,-97,-628
,462,2023-10-27 12:26:45.11,88,-141,-2091,-111,-6,133,317,396,-79,-356
,463,2023-10-27 12:26:45.12,92,-128,-2089,-130,-16,132,571,665,-94,-618
,464,2023-10-27 12:26:45.13,78,-115,-2118,-173,-19,123,317,391,-74,-354
,465,2023-10-27 12:26:45.14,96,-152,-2094,-212,-26,113,569,657,-88,-613
,466,2023-10-27 12:26:45.15,111,-185,-2076,-230,-35,106,311,391,-80,-351
,467,2023-10-27 12:26:45.16,139,-181,-2069,-224,-35,99,555,649,-94,-602
,468,2023-10-27 12:26:45.17,139,-198,-2059,-226,7,89,317,396,-79,-356
,469,2023-10-27 12:26:45.18,141,-176,-2079,-231,39,77,558,657,-99,-607
,470,2023-10-27 12:26:45.19,147,-179,-2071,-240,46,63,322,400,-78,-361
,471,2023-10-27 12:26:45.20,133,-212,-2043,-241,75,48,554,657,-103,-605
,472,2023-10-27 12:26:45.21,149,-198,-2030,-199,72,39,320,408,-88,-364
,473,2023-10-27 12:26:45.22,153,-186,-2057,-136,53,32,546,654,-108,-600
,474,2023-10-27 12:26:45.23,167,-173,-2076,-100,35,26,327,412,-85,-369
,475,2023-10-27 12:26:45.24,171,-182,-2074,-89,38,13,553,652,-99,-602
,476,2023-10-27 12:26:45.25,172,-210,-2041,-73,46,0,341,417,-76,-379
,477,2023-10-27 12:26:45.26,175,-226,-2020,-52,59,-5,551,656,-105,-603
,478,2023-10-27 12:26:45.27,181,-240,-2005,2,40,-8,340,421,-81,-380
,479,2023-10-27 12:26:45.28,173,-232,-2023,37,44,-10,541,650,-109,-595
,480,2023-10-27 12:26:45.29,172,-215,-1984,47,50,-14,345,421,-76,-383
,481,2023-10-27 12:26:45.30,190,-229,-1987,63,44,-20,550,646,-96,-598
,482,2023-10-27 12:26:45.31,190,-212,-2028,86,32,-19,357,425,-68,-391
,483,2023-10-27 12:26:45.32,192,-190,-2023,80,46,-20,548,644,-96,-596
,484,2023-10-27 12:26:45.33,201,-190,-2051,69,55,-24,365,431,-66,-398
,485,2023-10-27 12:26:45.34,172,-187,-2052,66,60,-25,546,643,-97,-594
,486,2023-10-27 12:26:45.35,170,-179,-2034,81,32,-19,369,435,-66,-402
,487,2023-10-27 12:26:45.36,166,-169,-2045,88,19,-13,537,645,-108,-591
,488,2023-10-27 12:26:45.37,163,-148,-2054,78,3,-4,370,440,-70,-405
,489,2023-10-27 12:26:45.38,162,-149,-2040,59,-5,2,533,637,-104,-585
,490,2023-10-27 12:26:45.39,189,-150,-2050,41,-3,9,376,437,-61,-406
,491,2023-10-27 12:26:45.40,163,-146,-2053,21,-5,14,528,635,-107,-581
,492,2023-10-27 12:26:45.41,164,-148,-2068,9,-5,19,382,444,-62,-413
,493,2023-10-27 12:26:45.42,162,-145,-2071,-1,-9,22,522,629,-107,-575
,494,2023-10-27 12:26:45.43,166,-147,-2067,-2,-14,26,390,445,-55,-417
,495,2023-10-27 12:26:45.44,156,-135,-2073,17,-23,26,517,620,-103,-568
,496,2023-10-27 12:26:45.45,155,-140,-2068,41,-35,29,398,446,-48,-422
,497,2023-10-27 12:26:45.46,167,-122,-2051,65,-41,32,511,615,-104,-563
,498,2023-10-27 12:26:45.47,163,-111,-2047,80,-48,36,402,455,-53,-428
,499,2023-10-27 12:26:45.48,163,-112,-2045,87,-45,39,503,610,-107,-556
,500,2023-10-27 12:26:45.49,168,-108,-2050,98,-46,37,410,463,-53,-436
,501,2023-10-27 12:26:45.50,171,-121,-2064,110,-49,42,495,604,-109,-549
,502,2023-10-27 12:26:45.51,153,-129,-2043,126,-54,43,416,472,-56,-444
,503,2023-10-27 12:26:45.52,146,-147,-2053,143,-62,48,487,596,-109,-541
,504,2023-10-27 12:26:45.53,141,-151,-2057,149,-66,55,419,471,-52,-445
,505,2023-10-27 12:26:45.54,127,-180,-2026,164,-81,61,486,597,-111,-541
,506,2023-10-27 12:26:45.55,132,-160,-2052,180,-85,66,424,479,-55,-451
,507,2023-10-27 12:26:45.56,122,-177,-2046,185,-107,73,476,596,-120,-536
,508,2023-10-27 12:26:45.57,116,-183,-2092,174,-106,75,422,478,-56,-450
,509,2023-10-27 12:26:45.58,93,-177,-2095,150,-122,82,473,588,-115,-530
,510,2023-10-27 12:26:45.59,115,-169,-2077,140,-115,83,438,490,-52,-464
,511,2023-10-27 12:26:45.60,92,-157,-2096,132,-120,88,473,588,-115,-530
,512,2023-10-27 12:26:45.61,80,-134,-2072,111,-141,91,448,495,-47,-471
,513,2023-10-27 12:26:45.62,90,-134,-2069,83,-152,85,470,584,-114,-527
,514,2023-10-27 12:26:45.63,63,-102,-2094,48,-169,86,454,503,-49,-478
,515,2023-10-27 12:26:45.64,70,-87,-2040,12,-182,81,461,579,-118,-520
,516,2023-10-27 12:26:45.65,73,-91,-2051,-10,-193,70,458,508,-50,-483
,517,2023-10-27 12:26:45.66,89,-73,-2051,-47,-188,61,454,574,-120,-514
,518,2023-10-27 12:26:45.67,112,-78,-2020,-78,-176,44,469,514,-45,-491
,519,2023-10-27 12:26:45.68,91,-92,-2009,-90,-157,24,448,570,-122,-509
,520,2023-10-27 12:26:45.69,103,-99,-2018,-96,-136,9,473,519,-46,-496
,521,2023-10-27 12:26:45.70,95,-102,-2024,-108,-114,-3,440,564,-124,-502
,522,2023-10-27 12:26:45.71,90,-132,-2020,-115,-92,-15,487,534,-47,-510
,523,2023-10-27 12:26:45.72,96,-137,-2047,-110,-79,-20,432,555,-123,-493
,524,2023-10-27 12:26:45.73,86,-146,-2058,-94,-71,-19,492,535,-43,-513
,525,2023-10-27 12:26:45.74,83,-166,-2048,-75,-64,-12,424,547,-123,-485
,526,2023-10-27 12:26:45.75,89,-169,-2056,-56,-63,-3,500,546,-46,-523
,527,2023-10-27 12:26:45.76,97,-169,-2055,-37,-57,7,419,548,-129,-483
,528,2023-10-27 12:26:45.77,94,-182,-2060,-19,-62,16,504,553,-49,-528
,529,2023-10-27 12:26:45.78,85,-174,-2050,0,-62,30,415,543,-128,-479
,530,2023-10-27 12:26:45.79,99,-178,-2038,20,-56,37,507,559,-52,-533
,531,2023-10-27 12:26:45.80,96,-192,-2033,40,-49,46,404,536,-132,-470
,532,2023-10-27 12:26:45.81,80,-200,-2038,58,-55,60,512,565,-53,-538
,533,2023-10-27 12:26:45.82,92,-211,-2035,76,-55,74,403,532,-129,-467
,534,2023-10-27 12:26:45.83,100,-231,-2026,95,-51,87,518,569,-51,-543
,535,2023-10-27 12:26:45.84,96,-236,-2031,107,-41,99,401,528,-127,-464
,536,2023-10-27 12:26:45.85,95,-249,-2030,117,-31,110,523,574,-51,-548
,537,2023-10-27 12:26:45.86,99,-256,-2028,128,-24,119,397,528,-131,-462
,538,2023-10-27 12:26:45.87,98,-260,-2024,137,-11,127,529,580,-51,-554
,539,2023-10-27 12:26:45.88,94,-267,-2031,144,-3,137,394,524,-130,-459
,540,2023-10-27 12:26:45.89,100,-269,-2031,152,4,144,546,588,-42,-567
,541,2023-10-27 12:26:45.90,107,-271,-2051,152,8,149,392,522,-130,-457
,542,2023-10-27 12:26:45.91,97,-272,-2036,153,6,155,548,595,-47,-571
,543,2023-10-27 12:26:45.92,90,-282,-2034,155,8,158,378,516,-138,-447
,544,2023-10-27 12:26:45.93,96,-276,-2038,161,4,161,554,597,-43,-575
,545,2023-10-27 12:26:45.94,88,-267,-2045,158,3,159,381,508,-127,-444
,546,2023-10-27 12:26:45.95,87,-275,-2024,150,0,157,563,613,-50,-588
,547,2023-10-27 12:26:45.96,87,-279,-2026,151,3,151,371,498,-127,-434
,548,2023-10-27 12:26:45.97,80,-275,-1999,155,6,146,560,613,-53,-586
,549,2023-10-27 12:26:45.98,106,-259,-2034,156,3,137,367,489,-122,-428
,550,2023-10-27 12:26:45.99,85,-251,-2032,142,4,128,566,621,-55,-593
,551,2023-10-27 12:26:46.00,94,-255,-2031,130,6,118,369,492,-123,-430
,552,2023-10-27 12:26:46.01,86,-257,-2052,124,10,108,569,620,-51,-594
,553,2023-10-27 12:26:46.02,89,-255,-2046,110,7,100,368,491,-123,-429
,554,2023-10-27 12:26:46.03,94,-262,-2052,103,5,92,576,626,-50,-601
,555,2023-10-27 12:26:46.04,78,-253,-2040,89,9,88,367,490,-123,-428
,556,2023-10-27 12:26:46.05,86,-244,-2045,79,2,87,582,632,-50,-607
,557,2023-10-27 12:26:46.06,57,-265,-2015,62,5,82,364,489,-125,-426
,558,2023-10-27 12:26:46.07,80,-248,-2041,53,1,80,580,635,-55,-607
,559,2023-10-27 12:26:46.08,79,-254,-2044,43,1,75,355,479,-124,-417
,560,2023-10-27 12:26:46.09,69,-274,-2032,44,4,70,587,640,-53,-613
,561,2023-10-27 12:26:46.10,77,-271,-2050,49,3,60,360,479,-119,-419
,562,2023-10-27 12:26:46.11,63,-269,-2051,52,-2,60,597,644,-47,-620
,563,2023-10-27 12:26:46.12,72,-274,-2053,58,-6,59,348,471,-123,-409
,564,2023-10-27 12:26:46.13,56,-273,-2044,60,-10,59,595,644,-49,-619
,565,2023-10-27 12:26:46.14,59,-262,-2050,61,-14,62,341,462,-121,-401
,566,2023-10-27 12:26:46.15,56,-276,-2046,60,-17,64,595,645,-50,-620
,567,2023-10-27 12:26:46.16,57,-279,-2049,55,-18,67,340,460,-120,-400
,568,2023-10-27 12:26:46.17,59,-275,-2045,52,-22,72,601,659,-58,-630
,569,2023-10-27 12:26:46.18,52,-265,-2042,50,-22,75,340,463,-123,-401
,570,2023-10-27 12:26:46.19,46,-273,-2045,46,-19,80,606,668,-62,-637
,571,2023-10-27 12:26:46.20,43,-268,-2041,40,-18,78,334,455,-121,-394
,572,2023-10-27 12:26:46.21,46,-264,-2048,38,-21,77,604,666,-62,-635
,573,2023-10-27 12:26:46.22,53,-258,-2043,40,-19,75,331,448,-117,-389
,574,2023-10-27 12:26:46.23,49,-259,-2044,36,-14,70,604,667,-63,-635
,575,2023-10-27 12:26:46.24,58,-265,-2056,36,-9,64,331,447,-116,-389
,576,2023-10-27 12:26:46.25,52,-265,-2041,41,-7,57,606,672,-66,-639
,577,2023-10-27 12:26:46.26,56,-262,-2033,48,-10,52,331,443,-112,-387
,578,2023-10-27 12:26:46.27,56,-267,-2039,56,-10,46,606,672,-66,-639
,579,2023-10-27 12:26:46.28,65,-269,-2041,60,-7,38,326,441,-115,-383
,580,2023-10-27 12:26:46.29,51,-265,-2030,66,-4,32,605,674,-69,-639
,581,2023-10-27 12:26:46.30,59,-276,-2029,74,-5,25,325,446,-121,-385
,582,2023-10-27 12:26:46.31,63,-276,-2026,82,-3,21,606,680,-74,-643
,583,2023-10-27 12:26:46.32,68,-286,-2023,84,0,15,320,441,-121,-380
,584,2023-10-27 12:26:46.33,53,-293,-2023,89,9,13,597,676,-79,-636
,585,2023-10-27 12:26:46.34,79,-293,-2023,91,15,9,317,436,-119,-376
,586,2023-10-27 12:26:46.35,51,-296,-2016,93,20,7,607,680,-73,-643
,587,2023-10-27 12:26:46.36,57,-298,-2025,92,27,9,322,438,-116,-380
,588,2023-10-27 12:26:46.37,57,-301,-2022,89,35,5,609,685,-76,-647
,589,2023-10-27 12:26:46.38,73,-302,-2022,86,44,6,317,437,-120,-377
,590,2023-10-27 12:26:46.39,62,-300,-2015,80,51,6,609,685,-76,-647
,591,2023-10-27 12:26:46.40,70,-291,-2024,72,62,6,316,434,-118,-375
,592,2023-10-27 12:26:46.41,77,-301,-2018,64,70,3,612,688,-76,-650
,593,2023-10-27 12:26:46.42,59,-299,-2027,57,77,3,309,419,-110,-364
,594,2023-10-27 12:26:46.43,72,-299,-2027,48,82,3,614,691,-77,-652
,595,2023-10-27 12:26:46.44,71,-303,-2026,44,88,5,314,425,-111,-369
,596,2023-10-27 12:26:46.45,73,-295,-2023,37,96,4,614,686,-72,-650
,597,2023-10-27 12:26:46.46,77,-301,-2025,34,100,-1,308,422,-114,-365
,598,2023-10-27 12:26:46.47,76,-294,-2039,32,107,1,613,690,-77,-651
,599,2023-10-27 12:26:46.48,84,-303,-2033,33,108,0,310,421,-111,-365
,600,2023-10-27 12:26:46.49,83,-302,-2031,36,110,-1,617,699,-82,-658
,601,2023-10-27 12:26:46.50,94,-296,-2036,36,114,0,316,425,-109,-370
,602,2023-10-27 12:26:46.51,105,-298,-2027,37,122,-5,618,703,-85,-660
,603,2023-10-27 12:26:46.52,96,-288,-2026,39,130,-7,315,423,-108,-369
,604,2023-10-27 12:26:46.53,98,-282,-2027,38,144,-12,617,702,-85,-659
,605,2023-10-27 12:26:46.54,96,-282,-2029,40,148,-20,314,420,-106,-367
,606,2023-10-27 12:26:46.55,94,-293,-2038,39,152,-24,614,702,-88,-658
,607,2023-10-27 12:26:46.56,92,-287,-2037,42,146,-26,315,419,-104,-367
,608,2023-10-27 12:26:46.57,100,-286,-2035,43,143,-28,613,700,-87,-656
,609,2023-10-27 12:26:46.58,102,-294,-2028,40,138,-30,320,417,-97,-368
,610,2023-10-27 12:26:46.59,120,-302,-2025,37,136,-30,611,702,-91,-656
,611,2023-10-27 12:26:46.60,122,-301,-2033,32,140,-28,322,420,-98,-371
,612,2023-10-27 12:26:46.61,118,-307,-2042,26,141,-31,606,701,-95,-653
,613,2023-10-27 12:26:46.62,115,-322,-2064,27,135,-27,315,417,-102,-366
,614,2023-10-27 12:26:46.63,113,-319,-2054,27,123,-22,601,696,-95,-648
,615,2023-10-27 12:26:46.64,124,-299,-2035,27,111,-17,319,420,-101,-369
,616,2023-10-27 12:26:46.65,121,-304,-2037,24,105,-17,603,698,-95,-650
,617,2023-10-27 12:26:46.66,129,-300,-2039,17,99,-13,325,425,-100,-375
,618,2023-10-27 12:26:46.67,126,-298,-2032,15,94,-9,596,696,-100,-646
,619,2023-10-27 12:26:46.68,141,-298,-2035,13,88,-3,323,424,-101,-373
,620,2023-10-27 12:26:46.69,134,-304,-2038,6,86,2,594,695,-101,-644
,621,2023-10-27 12:26:46.70,142,-301,-2042,-5,85,5,322,420,-98,-371
,622,2023-10-27 12:26:46.71,147,-286,-2032,-17,89,10,596,695,-99,-645
,623,2023-10-27 12:26:46.72,144,-287,-2026,-28,98,11,325,424,-99,-374
,624,2023-10-27 12:26:46.73,140,-281,-2032,-40,104,11,586,690,-104,-638
,625,2023-10-27 12:26:46.74,158,-280,-2025,-48,118,10,314,416,-102,-365
,626,2023-10-27 12:26:46.75,164,-284,-2022,-54,122,7,584,690,-106,-637
,627,2023-10-27 12:26:46.76,162,-290,-2031,-60,131,7,327,423,-96,-375
,628,2023-10-27 12:26:46.77,169,-294,-2020,-61,137,4,591,695,-104,-643
,629,2023-10-27 12:26:46.78,166,-283,-2025,-57,143,4,330,422,-92,-376
,630,2023-10-27 12:26:46.79,171,-290,-2019,-53,155,0,580,686,-106,-633
,631,2023-10-27 12:26:46.80,182,-289,-2026,-49,170,-4,325,419,-94,-372
,632,2023-10-27 12:26:46.81,188,-291,-2034,-43,172,-7,574,687,-113,-630
,633,2023-10-27 12:26:46.82,187,-292,-2033,-39,183,-7,329,427,-98,-378
,634,2023-10-27 12:26:46.83,192,-294,-2035,-36,187,-9,559,681,-122,-620
,635,2023-10-27 12:26:46.84,191,-299,-2021,-30,190,-10,334,429,-95,-381
,636,2023-10-27 12:26:46.85,187,-296,-2024,-19,190,-12,564,688,-124,-626
,637,2023-10-27 12:26:46.86,200,-294,-2029,-12,186,-10,347,433,-86,-390
,638,2023-10-27 12:26:46.87,206,-295,-2028,-8,185,-13,563,689,-126,-626
,639,2023-10-27 12:26:46.88,198,-294,-2030,-1,181,-16,349,437,-88,-393
,640,2023-10-27 12:26:46.89,206,-290,-2026,0,179,-21,551,684,-133,-617
,641,2023-10-27 12:26:46.90,212,-291,-2030,2,182,-25,348,439,-91,-393
,642,2023-10-27 12:26:46.91,210,-281,-2024,2,169,-30,546,682,-136,-614
,643,2023-10-27 12:26:46.92,221,-282,-2026,0,173,-34,355,447,-92,-401
,644,2023-10-27 12:26:46.93,221,-283,-2029,-1,166,-40,540,677,-137,-608
,645,2023-10-27 12:26:46.94,214,-287,-2036,-8,164,-45,355,449,-94,-402
,646,2023-10-27 12:26:46.95,224,-282,-2041,-9,159,-47,538,675,-137,-606
,647,2023-10-27 12:26:46.96,220,-288,-2041,-16,148,-47,364,454,-90,-409
,648,2023-10-27 12:26:46.97,228,-282,-2042,-20,141,-53,535,675,-140,-605
,649,2023-10-27 12:26:46.98,215,-275,-2034,-26,135,-56,366,455,-89,-410
,650,2023-10-27 12:26:46.99,225,-278,-2034,-34,127,-57,530,674,-144,-602
,651,2023-10-27 12:26:47.00,233,-277,-2030,-41,125,-61,368,454,-86,-411
,652,2023-10-27 12:26:47.01,221,-270,-2033,-51,121,-62,539,676,-137,-607
,653,2023-10-27 12:26:47.02,231,-271,-2021,-59,124,-63,407,488,-81,-447
,654,2023-10-27 12:26:47.03,248,-278,-2014,-64,132,-68,444,682,-238,-563
,655,2023-10-27 12:26:47.04,248,-277,-2009,-68,144,-71,337,496,-159,-416
,656,2023-10-27 12:26:47.05,245,-281,-1998,-74,160,-74,414,673,-259,-543
,657,2023-10-27 12:26:47.06,255,-281,-2003,-79,177,-80,347,491,-144,-419
,658,2023-10-27 12:26:47.07,263,-286,-2003,-80,192,-85,398,659,-261,-528
,659,2023-10-27 12:26:47.08,271,-285,-2002,-77,209,-86,337,490,-153,-413
,660,2023-10-27 12:26:47.09,271,-281,-2006,-72,221,-84,375,648,-273,-511
,661,2023-10-27 12:26:47.10,279,-279,-2002,-68,233,-88,332,489,-157,-410
,662,2023-10-27 12:26:47.11,285,-276,-2001,-65,248,-89,345,639,-294,-492
,663,2023-10-27 12:26:47.12,283,-272,-2006,-60,257,-90,318,491,-173,-404
,664,2023-10-27 12:26:47.13,290,-268,-2010,-56,270,-95,331,632,-301,-481
,665,2023-10-27 12:26:47.14,294,-269,-2013,-52,276,-98,326,500,-174,-413
,666,2023-10-27 12:26:47.15,310,-263,-2012,-47,275,-96,320,632,-312,-476
,667,2023-10-27 12:26:47.16,300,-268,-2014,-40,275,-101,329,506,-177,-417
,668,2023-10-27 12:26:47.17,320,-264,-2026,-32,274,-103,317,627,-310,-472
,669,2023-10-27 12:26:47.18,323,-258,-2030,-29,273,-107,344,517,-173,-430
,670,2023-10-27 12:26:47.19,333,-252,-2027,-23,270,-109,315,625,-310,-470
,671,2023-10-27 12:26:47.20,342,-248,-2032,-11,263,-115,341,521,-180,-431
,672,2023-10-27 12:26:47.21,341,-248,-2041,-1,259,-120,295,613,-318,-454
,673,2023-10-27 12:26:47.22,355,-258,-2035,5,255,-124,339,527,-188,-433
,674,2023-10-27 12:26:47.23,352,-250,-2036,9,250,-127,290,616,-326,-453
,675,2023-10-27 12:26:47.24,368,-243,-2026,19,243,-129,346,535,-189,-440
,676,2023-10-27 12:26:47.25,369,-239,-2033,33,228,-134,285,616,-331,-450
,677,2023-10-27 12:26:47.26,373,-254,-2047,43,216,-133,346,539,-193,-442
,678,2023-10-27 12:26:47.27,382,-252,-2050,58,193,-132,275,608,-333,-441
,679,2023-10-27 12:26:47.28,377,-252,-2037,76,177,-131,346,546,-200,-446
,680,2023-10-27 12:26:47.29,405,-249,-2047,92,155,-132,258,603,-345,-430
,681,2023-10-27 12:26:47.30,398,-247,-2041,102,149,-131,347,548,-201,-447
,682,2023-10-27 12:26:47.31,405,-249,-2033,113,134,-137,258,603,-345,-430
,683,2023-10-27 12:26:47.32,401,-250,-2032,121,125,-138,356,558,-202,-457
,684,2023-10-27 12:26:47.33,396,-250,-2017,137,114,-137,250,604,-354,-427
,685,2023-10-27 12:26:47.34,406,-253,-2016,139,111,-137,350,561,-211,-455
,686,2023-10-27 12:26:47.35,404,-264,-2004,150,101,-137,235,595,-360,-415
,687,2023-10-27 12:26:47.36,411,-269,-2002,158,105,-138,349,562,-213,-455
,688,2023-10-27 12:26:47.37,409,-287,-2025,171,96,-140,224,592,-368,-408
,689,2023-10-27 12:26:47.38,403,-288,-2036,182,90,-136,350,571,-221,-460
,690,2023-10-27 12:26:47.39,411,-296,-2029,191,76,-132,212,584,-372,-398
,691,2023-10-27 12:26:47.40,421,-297,-2017,200,69,-127,350,573,-223,-461
,692,2023-10-27 12:26:47.41,418,-311,-2017,210,62,-120,205,578,-373,-391
,693,2023-10-27 12:26:47.42,431,-307,-2018,221,59,-114,360,584,-224,-472
,694,2023-10-27 12:26:47.43,426,-318,-2014,226,57,-106,197,576,-379,-386
,695,2023-10-27 12:26:47.44,422,-318,-2017,230,61,-99,365,584,-219,-474
,696,2023-10-27 12:26:47.45,431,-314,-2008,236,55,-92,164,524,-360,-344
,697,2023-10-27 12:26:47.46,431,-325,-2006,242,49,-86,360,529,-169,-444
,698,2023-10-27 12:26:47.47,427,-329,-2013,248,41,-78,271,509,-238,-390
,699,2023-10-27 12:26:47.48,428,-323,-2016,250,35,-74,446,550,-104,-498
,700,2023-10-27 12:26:47.49,430,-325,-2008,251,18,-70,263,527,-264,-395
,701,2023-10-27 12:26:47.50,426,-326,-2009,247,10,-68,431,571,-140,-501
,702,2023-10-27 12:26:47.51,427,-321,-2009,236,6,-67,263,533,-270,-398
,703,2023-10-27 12:26:47.52,423,-327,-2005,228,-3,-66,448,581,-133,-514
,704,2023-10-27 12:26:47.53,428,-334,-2007,219,-6,-63,273,533,-260,-403
,705,2023-10-27 12:26:47.54,426,-344,-2008,212,-16,-65,457,587,-130,-522
,706,2023-10-27 12:26:47.55,424,-340,-2016,204,-23,-64,268,538,-270,-403
,707,2023-10-27 12:26:47.56,420,-348,-2018,206,-44,-57,453,597,-144,-525
,708,2023-10-27 12:26:47.57,415,-340,-2025,193,-46,-55,266,538,-272,-402
,709,2023-10-27 12:26:47.58,404,-340,-2031,180,-61,-54,470,609,-139,-539
,710,2023-10-27 12:26:47.59,406,-339,-2036,164,-64,-51,271,542,-271,-406
,711,2023-10-27 12:26:47.60,415,-344,-2016,146,-73,-45,476,615,-139,-545
,712,2023-10-27 12:26:47.61,410,-345,-2030,127,-75,-44,262,531,-269,-396
,713,2023-10-27 12:26:47.62,404,-348,-2038,117,-90,-36,480,614,-134,-547
,714,2023-10-27 12:26:47.63,392,-354,-2023,104,-102,-34,264,530,-266,-397
,715,2023-10-27 12:26:47.64,374,-353,-2042,88,-117,-26,425,624,-199,-524
,716,2023-10-27 12:26:47.65,379,-361,-2025,71,-122,-18,174,533,-359,-353
,717,2023-10-27 12:26:47.66,380,-345,-2042,65,-137,-11,416,657,-241,-536
,718,2023-10-27 12:26:47.67,376,-352,-2016,49,-144,-5,161,532,-371,-346
,719,2023-10-27 12:26:47.68,390,-340,-2023,44,-147,-4,398,650,-252,-524
,720,2023-10-27 12:26:47.69,371,-343,-2010,33,-144,1,133,508,-375,-320
,721,2023-10-27 12:26:47.70,374,-349,-2003,27,-139,3,376,644,-268,-510
,722,2023-10-27 12:26:47.71,374,-359,-1996,27,-136,7,115,496,-381,-305
,723,2023-10-27 12:26:47.72,357,-357,-2000,18,-118,9,364,648,-284,-506
,724,2023-10-27 12:26:47.73,353,-352,-1990,12,-108,12,99,490,-391,-294
,725,2023-10-27 12:26:47.74,371,-362,-1988,8,-90,14,351,648,-297,-499
,726,2023-10-27 12:26:47.75,369,-363,-1970,9,-77,17,93,486,-393,-289
,727,2023-10-27 12:26:47.76,354,-360,-1970,6,-63,17,352,652,-300,-502
,728,2023-10-27 12:26:47.77,359,-368,-1972,5,-52,21,96,482,-386,-289
,729,2023-10-27 12:26:47.78,365,-359,-1972,6,-38,24,351,658,-307,-504
,730,2023-10-27 12:26:47.79,365,-360,-1982,6,-29,27,90,477,-387,-283
,731,2023-10-27 12:26:47.80,370,-368,-1977,0,-14,32,345,657,-312,-501
,732,2023-10-27 12:26:47.81,354,-356,-1992,-6,-3,33,84,472,-388,-278
,733,2023-10-27 12:26:47.82,369,-362,-1992,-12,2,36,338,659,-321,-498
,734,2023-10-27 12:26:47.83,361,-355,-2005,-16,3,43,74,470,-396,-272
,735,2023-10-27 12:26:47.84,361,-351,-2002,-23,5,46,333,657,-324,-495
,736,2023-10-27 12:26:47.85,358,-345,-1999,-28,11,48,74,465,-391,-269
,737,2023-10-27 12:26:47.86,373,-349,-2002,-35,8,53,332,660,-328,-496
,738,2023-10-27 12:26:47.87,366,-350,-2008,-40,6,57,68,461,-393,-264
,739,2023-10-27 12:26:47.88,368,-356,-1998,-40,0,62,327,660,-333,-493
,740,2023-10-27 12:26:47.89,367,-354,-2021,-37,5,62,68,455,-387,-261
,741,2023-10-27 12:26:47.90,369,-347,-2014,-37,-4,65,339,660,-321,-499
,742,2023-10-27 12:26:47.91,359,-351,-2033,-36,-1,66,66,439,-373,-252
,743,2023-10-27 12:26:47.92,375,-348,-2014,-41,-7,68,450,662,-212,-556
,744,2023-10-27 12:26:47.93,384,-344,-2021,-39,-5,68,182,407,-225,-294
,745,2023-10-27 12:26:47.94,351,-341,-2023,-44,-7,68,468,636,-168,-552
,746,2023-10-27 12:26:47.95,364,-347,-2022,-51,-7,69,144,400,-256,-272
,747,2023-10-27 12:26:47.96,374,-338,-2024,-50,-15,71,448,651,-203,-549
,748,2023-10-27 12:26:47.97,357,-345,-2022,-51,-14,76,148,408,-260,-278
,749,2023-10-27 12:26:47.98,364,-336,-2029,-54,-20,78,468,662,-194,-565
,750,2023-10-27 12:26:47.99,348,-345,-2021,-54,-27,80,177,418,-241,-297
,751,2023-10-27 12:26:48.00,357,-333,-2026,-56,-30,86,483,674,-191,-578
,752,2023-10-27 12:26:48.01,360,-333,-2016,-53,-37,87,182,420,-238,-301
,753,2023-10-27 12:26:48.02,359,-335,-2022,-49,-40,89,481,673,-192,-577
,754,2023-10-27 12:26:48.03,353,-331,-2024,-47,-43,92,184,418,-234,-301
,755,2023-10-27 12:26:48.04,350,-328,-2018,-44,-58,92,487,679,-192,-583
,756,2023-10-27 12:26:48.05,347,-322,-2019,-47,-47,91,192,427,-235,-309
,757,2023-10-27 12:26:48.06,359,-304,-2013,-53,-45,88,492,682,-190,-587
,758,2023-10-27 12:26:48.07,351,-307,-2016,-61,-36,78,193,426,-233,-309
,759,2023-10-27 12:26:48.08,354,-298,-2011,-58,-40,74,491,684,-193,-587
,760,2023-10-27 12:26:48.09,350,-303,-2012,-59,-43,68,197,428,-231,-312
,761,2023-10-27 12:26:48.10,336,-302,-2012,-60,-43,62,491,687,-196,-589
,762,2023-10-27 12:26:48.11,341,-302,-2008,-64,-47,57,195,424,-229,-309
,763,2023-10-27 12:26:48.12,340,-307,-2010,-68,-47,54,492,689,-197,-590
,764,2023-10-27 12:26:48.13,338,-303,-2005,-74,-41,53,199,422,-223,-310
,765,2023-10-27 12:26:48.14,343,-304,-2007,-78,-35,50,498,693,-195,-595
,766,2023-10-27 12:26:48.15,337,-309,-2010,-80,-34,47,202,422,-220,-312
,767,2023-10-27 12:26:48.16,350,-303,-2010,-78,-31,43,498,699,-201,-598
,768,2023-10-27 12:26:48.17,343,-311,-2020,-80,-28,47,202,420,-218,-311
,769,2023-10-27 12:26:48.18,343,-312,-2020,-80,-26,50,494,697,-203,-595
,770,2023-10-27 12:26:48.19,334,-309,-2026,-81,-26,57,199,412,-213,-305
,771,2023-10-27 12:26:48.20,340,-299,-2022,-81,-26,57,478,692,-214,-585
,772,2023-10-27 12:26:48.21,349,-303,-2027,-82,-28,64,194,412,-218,-303
,773,2023-10-27 12:26:48.22,351,-302,-2029,-81,-32,68,464,690,-226,-577
,774,2023-10-27 12:26:48.23,337,-307,-2037,-86,-36,76,192,407,-215,-299
,775,2023-10-27 12:26:48.24,346,-305,-2038,-85,-38,82,453,683,-230,-568
,776,2023-10-27 12:26:48.25,356,-293,-2039,-82,-41,89,185,400,-215,-292
,777,2023-10-27 12:26:48.26,350,-290,-2038,-78,-58,96,446,683,-237,-564
,778,2023-10-27 12:26:48.27,334,-286,-2049,-78,-59,99,187,409,-222,-298
,779,2023-10-27 12:26:48.28,345,-274,-2030,-82,-59,101,456,689,-233,-572
,780,2023-10-27 12:26:48.29,332,-281,-2034,-74,-71,100,200,414,-214,-307
,781,2023-10-27 12:26:48.30,336,-280,-2020,-66,-78,106,464,692,-228,-578
,782,2023-10-27 12:26:48.31,333,-274,-2026,-57,-89,108,213,419,-206,-316
,783,2023-10-27 12:26:48.32,343,-285,-2023,-54,-97,107,470,696,-226,-583
,784,2023-10-27 12:26:48.33,324,-281,-2018,-47,-100,107,220,420,-200,-320
,785,2023-10-27 12:26:48.34,329,-275,-2033,-34,-110,103,471,695,-224,-583
,786,2023-10-27 12:26:48.35,323,-279,-2030,-20,-120,102,232,422,-190,-327
,787,2023-10-27 12:26:48.36,312,-293,-2025,-10,-127,97,478,701,-223,-589
,788,2023-10-27 12:26:48.37,296,-289,-2036,-3,-134,94,235,426,-191,-330
,789,2023-10-27 12:26:48.38,311,-287,-2026,7,-139,93,464,692,-228,-578
,790,2023-10-27 12:26:48.39,286,-281,-2027,14,-135,90,236,424,-188,-330
,791,2023-10-27 12:26:48.40,296,-287,-2025,19,-139,87,475,701,-226,-588
,792,2023-10-27 12:26:48.41,281,-289,-2014,22,-136,83,248,428,-180,-338
,793,2023-10-27 12:26:48.42,299,-274,-2013,23,-134,79,468,698,-230,-583
,794,2023-10-27 12:26:48.43,289,-277,-2003,24,-124,73,244,423,-179,-333
,795,2023-10-27 12:26:48.44,294,-275,-1999,19,-113,66,461,691,-230,-576
,796,2023-10-27 12:26:48.45,288,-283,-1997,18,-99,56,254,428,-174,-341
,797,2023-10-27 12:26:48.46,288,-286,-2004,16,-86,51,460,693,-233,-576
,798,2023-10-27 12:26:48.47,271,-288,-2016,18,-73,44,260,434,-174,-347
,799,2023-10-27 12:26:48.48,278,-294,-2020,19,-70,37,455,692,-237,-573
,800,2023-10-27 12:26:48.49,272,-301,-2020,26,-66,35,262,436,-174,-349
,801,2023-10-27 12:26:48.50,259,-302,-2025,33,-67,34,449,688,-239,-568
,802,2023-10-27 12:26:48.51,271,-307,-2019,37,-60,32,264,437,-173,-350
,803,2023-10-27 12:26:48.52,263,-310,-2019,41,-56,35,443,685,-242,-564
,804,2023-10-27 12:26:48.53,259,-314,-2024,49,-57,35,270,438,-168,-354
,805,2023-10-27 12:26:48.54,261,-312,-2021,53,-53,32,440,684,-244,-562
,806,2023-10-27 12:26:48.55,255,-314,-2022,56,-46,33,274,439,-165,-356
,807,2023-10-27 12:26:48.56,260,-314,-2017,59,-43,35,440,681,-241,-560
,808,2023-10-27 12:26:48.57,246,-315,-2024,64,-42,38,282,442,-160,-362
,809,2023-10-27 12:26:48.58,255,-321,-2022,66,-40,37,439,678,-239,-558
,810,2023-10-27 12:26:48.59,249,-322,-2014,66,-37,42,288,443,-155,-365
,811,2023-10-27 12:26:48.60,244,-317,-2027,68,-35,45,436,674,-238,-555
,812,2023-10-27 12:26:48.61,249,-334,-2020,66,-32,49,294,445,-151,-369
,813,2023-10-27 12:26:48.62,251,-329,-2022,67,-25,50,432,671,-239,-551
,814,2023-10-27 12:26:48.63,256,-329,-2009,69,-25,52,295,448,-153,-371
,815,2023-10-27 12:26:48.64,264,-333,-2023,70,-18,50,423,676,-253,-549
,816,2023-10-27 12:26:48.65,265,-322,-2013,73,-16,51,302,452,-150,-377
,817,2023-10-27 12:26:48.66,250,-331,-2010,73,-13,45,418,671,-253,-544
,818,2023-10-27 12:26:48.67,271,-329,-2015,78,-10,42,313,452,-139,-382
,819,2023-10-27 12:26:48.68,267,-326,-2025,79,-6,37,413,666,-253,-539
,820,2023-10-27 12:26:48.69,266,-330,-2019,82,-9,31,319,458,-139,-388
,821,2023-10-27 12:26:48.70,267,-336,-2015,82,-11,21,406,662,-256,-534
,822,2023-10-27 12:26:48.71,272,-323,-2016,87,-8,16,326,466,-140,-396
,823,2023-10-27 12:26:48.72,269,-330,-2021,88,-6,4,400,659,-259,-529
,824,2023-10-27 12:26:48.73,264,-338,-2023,89,-11,-5,334,472,-138,-403
,825,2023-10-27 12:26:48.74,271,-335,-2023,86,-16,-12,394,656,-262,-525
,826,2023-10-27 12:26:48.75,275,-340,-2019,87,-19,-21,337,479,-142,-408
,827,2023-10-27 12:26:48.76,271,-340,-2020,88,-19,-30,394,654,-260,-524
,828,2023-10-27 12:26:48.77,268,-345,-2023,85,-21,-36,341,481,-140,-411
,829,2023-10-27 12:26:48.78,256,-347,-2013,85,-28,-43,383,645,-262,-514
,830,2023-10-27 12:26:48.79,288,-350,-2017,79,-26,-49,339,471,-132,-405
,831,2023-10-27 12:26:48.80,269,-363,-2033,83,-33,-52,380,640,-260,-510
,832,2023-10-27 12:26:48.81,269,-369,-2020,84,-35,-53,356,490,-134,-423
,833,2023-10-27 12:26:48.82,269,-357,-2014,83,-37,-55,378,644,-266,-511
,834,2023-10-27 12:26:48.83,272,-366,-2028,80,-42,-57,360,494,-134,-427
,835,2023-10-27 12:26:48.84,261,-369,-2019,77,-41,-58,367,633,-266,-500
,836,2023-10-27 12:26:48.85,263,-382,-2016,76,-47,-60,365,494,-129,-429
,837,2023-10-27 12:26:48.86,257,-374,-2015,79,-51,-58,366,633,-267,-499
,838,2023-10-27 12:26:48.87,268,-373,-2013,75,-54,-57,373,507,-134,-440
,839,2023-10-27 12:26:48.88,268,-374,-2015,75,-57,-55,363,630,-267,-496
,840,2023-10-27 12:26:48.89,266,-366,-2019,67,-53,-54,381,509,-128,-445
,841,2023-10-27 12:26:48.90,268,-374,-2017,59,-48,-54,359,619,-260,-489
,842,2023-10-27 12:26:48.91,257,-379,-1999,56,-48,-51,387,513,-126,-450
,843,2023-10-27 12:26:48.92,265,-378,-2015,59,-50,-45,351,618,-267,-484
,844,2023-10-27 12:26:48.93,247,-383,-2007,52,-50,-37,392,518,-126,-455
,845,2023-10-27 12:26:48.94,250,-384,-2005,45,-50,-31,342,613,-271,-477
,846,2023-10-27 12:26:48.95,264,-391,-2018,44,-46,-23,399,524,-125,-461
,847,2023-10-27 12:26:48.96,253,-389,-2012,36,-43,-17,334,604,-270,-469
,848,2023-10-27 12:26:48.97,260,-389,-2032,29,-40,-9,404,529,-125,-466
,849,2023-10-27 12:26:48.98,244,-371,-2016,17,-36,-2,332,600,-268,-466
,850,2023-10-27 12:26:48.99,245,-382,-1994,11,-34,3,417,541,-124,-479
,851,2023-10-27 12:26:49.00,248,-383,-2008,8,-29,10,326,597,-271,-461
,852,2023-10-27 12:26:49.01,251,-380,-2002,0,-27,18,420,547,-127,-483
,853,2023-10-27 12:26:49.02,243,-371,-2022,-1,-27,27,317,587,-270,-452
,854,2023-10-27 12:26:49.03,236,-378,-2026,-11,-26,33,428,552,-124,-490
,855,2023-10-27 12:26:49.04,246,-385,-2021,-15,-26,41,316,581,-265,-448
,856,2023-10-27 12:26:49.05,240,-370,-2011,-22,-25,46,432,556,-124,-494
,857,2023-10-27 12:26:49.06,235,-370,-2018,-27,-21,51,310,575,-265,-442
,858,2023-10-27 12:26:49.07,223,-360,-2020,-33,-22,58,435,563,-128,-499
,859,2023-10-27 12:26:49.08,235,-371,-2022,-39,-20,61,306,569,-263,-437
,860,2023-10-27 12:26:49.09,233,-359,-2024,-40,-26,67,442,568,-126,-505
,861,2023-10-27 12:26:49.10,235,-361,-2021,-43,-28,72,302,560,-258,-431
,862,2023-10-27 12:26:49.11,241,-349,-2015,-48,-32,75,448,572,-124,-510
,863,2023-10-27 12:26:49.12,238,-354,-2009,-54,-26,76,300,555,-255,-427
,864,2023-10-27 12:26:49.13,225,-341,-2015,-59,-29,80,450,573,-123,-511
,865,2023-10-27 12:26:49.14,235,-335,-2007,-61,-34,78,295,555,-260,-425
,866,2023-10-27 12:26:49.15,229,-333,-1999,-62,-36,82,456,582,-126,-519
,867,2023-10-27 12:26:49.16,225,-340,-2024,-66,-41,80,290,550,-260,-420
,868,2023-10-27 12:26:49.17,219,-342,-2030,-69,-45,83,469,592,-123,-530
,869,2023-10-27 12:26:49.18,213,-343,-2044,-64,-54,86,288,543,-255,-415
,870,2023-10-27 12:26:49.19,213,-340,-2006,-58,-68,90,469,592,-123,-530
,871,2023-10-27 12:26:49.20,223,-354,-2041,-47,-84,100,275,524,-249,-399
,872,2023-10-27 12:26:49.21,201,-355,-2053,-53,-88,103,478,596,-118,-537
,873,2023-10-27 12:26:49.22,209,-344,-2033,-66,-100,110,282,533,-251,-407
,874,2023-10-27 12:26:49.23,179,-349,-2025,-75,-104,116,479,602,-123,-540
,875,2023-10-27 12:26:49.24,187,-333,-2065,-85,-114,125,278,523,-245,-400
,876,2023-10-27 12:26:49.25,177,-334,-2030,-111,-116,131,488,604,-116,-546
,877,2023-10-27 12:26:49.26,187,-328,-2032,-141,-111,134,276,515,-239,-395
,878,2023-10-27 12:26:49.27,177,-310,-2035,-169,-119,136,493,618,-125,-555
,879,2023-10-27 12:26:49.28,171,-311,-2047,-201,-127,137,277,515,-238,-396
,880,2023-10-27 12:26:49.29,167,-297,-2039,-229,-140,138,503,624,-121,-563
,881,2023-10-27 12:26:49.30,173,-305,-2076,-252,-162,140,280,503,-223,-391
,882,2023-10-27 12:26:49.31,161,-298,-2119,-287,-185,147,514,621,-107,-567
,883,2023-10-27 12:26:49.32,140,-289,-2070,-319,-236,159,290,495,-205,-392
,884,2023-10-27 12:26:49.33,170,-282,-2108,-336,-291,169,531,623,-92,-577
,885,2023-10-27 12:26:49.34,154,-270,-2104,-355,-332,180,321,488,-167,-404
,886,2023-10-27 12:26:49.35,162,-274,-2067,-386,-365,186,552,623,-71,-587
,887,2023-10-27 12:26:49.36,196,-265,-2051,-414,-379,189,334,484,-150,-409
,888,2023-10-27 12:26:49.37,162,-266,-2027,-436,-384,190,563,625,-62,-594
,889,2023-10-27 12:26:49.38,162,-253,-2031,-438,-382,188,340,476,-136,-408
,890,2023-10-27 12:26:49.39,146,-250,-2040,-443,-370,192,569,626,-57,-597
,891,2023-10-27 12:26:49.40,128,-251,-2005,-451,-370,189,347,472,-125,-409
,892,2023-10-27 12:26:49.41,139,-247,-2033,-455,-354,189,577,628,-51,-602
,893,2023-10-27 12:26:49.42,113,-225,-2037,-461,-333,185,346,463,-117,-404
,894,2023-10-27 12:26:49.43,97,-212,-2033,-458,-330,191,581,628,-47,-604
,895,2023-10-27 12:26:49.44,83,-184,-2039,-467,-310,186,345,453,-108,-399
,896,2023-10-27 12:26:49.45,88,-181,-2042,-474,-284,185,590,631,-41,-610
,897,2023-10-27 12:26:49.46,66,-155,-2029,-471,-282,184,348,446,-98,-397
,898,2023-10-27 12:26:49.47,56,-120,-2007,-468,-271,188,598,637,-39,-617
,899,2023-10-27 12:26:49.48,73,-111,-1993,-468,-277,177,352,443,-91,-397
,900,2023-10-27 12:26:49.49,55,-92,-2004,-485,-257,170,595,640,-45,-617
,901,2023-10-27 12:26:49.50,18,-78,-2048,-499,-243,158,346,434,-88,-390
,902,2023-10-27 12:26:49.51,37,-79,-2070,-511,-244,154,594,640,-46,-617
,903,2023-10-27 12:26:49.52,27,-91,-2062,-525,-241,146,345,428,-83,-386
,904,2023-10-27 12:26:49.53,36,-115,-2034,-518,-250,146,592,645,-53,-618
,905,2023-10-27 12:26:49.54,34,-141,-2001,-498,-225,147,335,424,-89,-379
,906,2023-10-27 12:26:49.55,38,-96,-2033,-465,-195,157,588,646,-58,-617
,907,2023-10-27 12:26:49.56,24,-29,-2072,-430,-169,158,335,422,-87,-378
,908,2023-10-27 12:26:49.57,-6,-141,-2007,-428,-106,151,601,651,-50,-626
,909,2023-10-27 12:26:49.58,31,-91,-2017,-403,-78,151,360,430,-70,-395
,910,2023-10-27 12:26:49.59,5,-57,-2017,-358,-50,144,636,650,-14,-643
,911,2023-10-27 12:26:49.60,18,18,-2034,-332,-14,136,416,418,-2,-417
,912,2023-10-27 12:26:49.61,-4,-5,-2020,-323,21,115,675,640,35,-657
,913,2023-10-27 12:26:49.62,13,-1,-2022,-308,35,92,442,416,26,-429
,914,2023-10-27 12:26:49.63,11,9,-2022,-287,52,69,703,660,43,-681
,915,2023-10-27 12:26:49.64,1,-2,-2040,-268,62,53,456,417,39,-436
,916,2023-10-27 12:26:49.65,1,8,-2041,-252,78,46,731,665,66,-698
,917,2023-10-27 12:26:49.66,9,14,-2039,-232,96,39,157,508,-351,-332
,918,2023-10-27 12:26:49.67,9,17,-2042,-204,105,34,279,725,-446,-502
,919,2023-10-27 12:26:49.68,22,53,-2041,-187,115,26,-36,381,-417,-172
,920,2023-10-27 12:26:49.69,11,17,-2036,-166,121,17,299,571,-272,-435
,921,2023-10-27 12:26:49.70,23,38,-2045,-146,120,7,-12,305,-317,-146
,922,2023-10-27 12:26:49.71,20,22,-2048,-125,126,-4,289,511,-222,-400
,923,2023-10-27 12:26:49.72,47,35,-2041,-100,131,-10,-48,227,-275,-89
,924,2023-10-27 12:26:49.73,52,35,-2043,-83,152,-19,261,392,-131,-326
,925,2023-10-27 12:26:49.74,36,30,-2047,-59,170,-27,-73,112,-185,-19
,926,2023-10-27 12:26:49.75,43,25,-2057,-41,189,-38,252,298,-46,-275
,927,2023-10-27 12:26:49.76,49,23,-2050,-20,198,-45,-84,58,-142,13
,928,2023-10-27 12:26:49.77,43,30,-2064,-1,208,-51,236,236,0,-236
,929,2023-10-27 12:26:49.78,40,17,-2059,13,210,-58,-98,9,-107,44
,930,2023-10-27 12:26:49.79,45,31,-2045,21,222,-61,234,174,60,-204
,931,2023-10-27 12:26:49.80,59,31,-2047,37,224,-64,-99,-36,-63,67
,932,2023-10-27 12:26:49.81,68,36,-2061,41,234,-66,234,97,137,-165
,933,2023-10-27 12:26:49.82,68,37,-2051,41,229,-68,-99,-108,9,103
,934,2023-10-27 12:26:49.83,66,42,-2032,48,230,-73,230,65,165,-147
,935,2023-10-27 12:26:49.84,85,28,-2045,54,227,-75,-107,-98,-9,102
,936,2023-10-27 12:26:49.85,73,48,-2060,52,222,-78,229,112,117,-170
,937,2023-10-27 12:26:49.86,79,47,-2042,50,219,-80,-107,-41,-66,74
,938,2023-10-27 12:26:49.87,87,37,-2049,48,207,-84,228,147,81,-187
,939,2023-10-27 12:26:49.88,79,26,-2030,53,199,-83,-115,-18,-97,66
,940,2023-10-27 12:26:49.89,80,45,-2062,49,192,-84,222,163,59,-192
,941,2023-10-27 12:26:49.90,86,35,-2056,38,174,-84,-113,2,-115,55
,942,2023-10-27 12:26:49.91,93,24,-2071,25,170,-87,228,185,43,-206
,943,2023-10-27 12:26:49.92,107,36,-2069,11,154,-88,-114,23,-137,45
,944,2023-10-27 12:26:49.93,111,8,-2072,2,142,-89,225,198,27,-211
,945,2023-10-27 12:26:49.94,109,32,-2075,3,130,-89,-116,37,-153,39
,946,2023-10-27 12:26:49.95,121,16,-2071,6,125,-87,230,198,32,-214
,947,2023-10-27 12:26:49.96,115,20,-2077,8,120,-83,-116,37,-153,39
,948,2023-10-27 12:26:49.97,98,3,-2081,6,106,-75,231,202,29,-216
,949,2023-10-27 12:26:49.98,124,23,-2066,-2,98,-74,-116,48,-164,34
,950,2023-10-27 12:26:49.99,127,33,-2053,-15,94,-74,272,245,27,-258
,951,2023-10-27 12:26:50.00,144,32,-2052,-26,92,-70,4,43,-39,-23
,952,2023-10-27 12:26:50.01,135,22,-2040,-35,89,-71,-602,408,-1010,97
,953,2023-10-27 12:26:50.02,151,24,-2053,-43,95,-67,-1088,206,-1294,441
,954,2023-10-27 12:26:50.03,131,37,-2063,-61,94,-65,-1482,470,-1952,506
,955,2023-10-27 12:26:50.04,131,40,-2062,-77,84,-62,-1461,224,-1685,618
,956,2023-10-27 12:26:50.05,157,42,-2058,-82,75,-60,-1505,488,-1993,508
,957,2023-10-27 12:26:50.06,151,54,-2056,-90,74,-59,-1339,259,-1598,540
,958,2023-10-27 12:26:50.07,134,36,-2045,-97,80,-56,-1341,526,-1867,407
,959,2023-10-27 12:26:50.08,147,52,-2066,-99,72,-53,-1105,293,-1398,406
,960,2023-10-27 12:26:50.09,155,48,-2061,-97,67,-48,-732,552,-1284,90
,961,2023-10-27 12:26:50.10,163,62,-2065,-96,67,-47,-483,314,-797,84
,962,2023-10-27 12:26:50.11,156,52,-2055,-96,72,-47,-253,562,-815,-154
,963,2023-10-27 12:26:50.12,174,49,-2048,-94,77,-43,-260,324,-584,-32
,964,2023-10-27 12:26:50.13,153,55,-2051,-90,82,-40,-73,573,-646,-250
,965,2023-10-27 12:26:50.14,173,53,-2054,-86,82,-39,-119,345,-464,-113
,966,2023-10-27 12:26:50.15,161,74,-2054,-74,89,-39,115,581,-466,-348
,967,2023-10-27 12:26:50.16,146,74,-2060,-69,95,-39,33,354,-321,-193
,968,2023-10-27 12:26:50.17,175,82,-2053,-64,82,-34,269,584,-315,-426
,969,2023-10-27 12:26:50.18,168,64,-2035,-58,79,-33,142,364,-222,-253
,970,2023-10-27 12:26:50.19,176,88,-2050,-44,75,-32,362,591,-229,-476
,971,2023-10-27 12:26:50.20,171,74,-2047,-40,70,-27,208,374,-166,-291
,972,2023-10-27 12:26:50.21,166,73,-2051,-35,70,-26,424,592,-168,-508
,973,2023-10-27 12:26:50.22,177,93,-2054,-26,64,-23,254,380,-126,-317
,974,2023-10-27 12:26:50.23,185,82,-2043,-15,65,-28,460,592,-132,-526
,975,2023-10-27 12:26:50.24,181,76,-2046,-7,70,-28,284,383,-99,-333
,976,2023-10-27 12:26:50.25,180,76,-2046,2,77,-29,484,589,-105,-536
,977,2023-10-27 12:26:50.26,189,81,-2053,13,73,-30,304,382,-78,-343
,978,2023-10-27 12:26:50.27,189,74,-2052,22,75,-28,493,590,-97,-541
,979,2023-10-27 12:26:50.28,176,76,-2047,34,71,-27,318,392,-74,-355
,980,2023-10-27 12:26:50.29,170,80,-2060,39,76,-24,501,596,-95,-548
,981,2023-10-27 12:26:50.30,190,85,-2053,46,66,-28,332,397,-65,-364
,982,2023-10-27 12:26:50.31,198,76,-2052,53,65,-27,502,592,-90,-547
,983,2023-10-27 12:26:50.32,188,81,-2043,55,65,-28,344,402,-58,-373
,984,2023-10-27 12:26:50.33,199,79,-2066,58,67,-28,498,587,-89,-542
,985,2023-10-27 12:26:50.34,205,65,-2057,62,66,-27,347,405,-58,-376
,986,2023-10-27 12:26:50.35,191,82,-2053,66,68,-28,497,586,-89,-541
,987,2023-10-27 12:26:50.36,207,78,-2052,72,62,-24,360,417,-57,-388
,988,2023-10-27 12:26:50.37,210,82,-2076,71,62,-23,492,582,-90,-537
,989,2023-10-27 12:26:50.38,199,78,-2045,69,59,-20,365,422,-57,-393
,990,2023-10-27 12:26:50.39,204,76,-2063,80,50,-21,489,576,-87,-532
,991,2023-10-27 12:26:50.40,189,72,-2059,80,55,-18,382,432,-50,-407
,992,2023-10-27 12:26:50.41,198,71,-2047,84,43,-14,488,574,-86,-531
,993,2023-10-27 12:26:50.42,190,72,-2052,78,44,-13,381,430,-49,-405
,994,2023-10-27 12:26:50.43,195,54,-2048,83,34,-10,474,556,-82,-515
,995,2023-10-27 12:26:50.44,189,57,-2052,85,38,-8,391,436,-45,-413
,996,2023-10-27 12:26:50.45,204,56,-2057,83,32,-4,486,572,-86,-529
,997,2023-10-27 12:26:50.46,213,48,-2053,79,30,-2,397,445,-48,-421
,998,2023-10-27 12:26:50.47,213,54,-2051,76,35,-1,483,567,-84,-525
,999,2023-10-27 12:26:50.48,209,46,-2054,78,35,-2,403,447,-44,-425
,1000,2023-10-27 12:26:50.49,205,48,-2060,75,40,0,466,558,-92,-512
,1001,2023-10-27 12:26:50.50,210,39,-2052,78,36,4,407,451,-44,-429
,1002,2023-10-27 12:26:50.51,205,39,-2050,79,39,3,466,562,-96,-514
,1003,2023-10-27 12:26:50.52,203,29,-2047,80,29,11,418,460,-42,-439
,1004,2023-10-27 12:26:50.53,208,32,-2058,78,34,12,463,559,-96,-511
,1005,2023-10-27 12:26:50.54,205,37,-2056,76,32,19,422,463,-41,-442
,1006,2023-10-27 12:26:50.55,217,37,-2063,79,28,19,457,550,-93,-503
,1007,2023-10-27 12:26:50.56,212,30,-2039,76,28,19,427,467,-40,-447
,1008,2023-10-27 12:26:50.57,210,42,-2059,74,34,20,450,545,-95,-497
,1009,2023-10-27 12:26:50.58,204,38,-2048,75,31,22,437,480,-43,-458
,1010,2023-10-27 12:26:50.59,229,25,-2064,81,25,28,441,540,-99,-490
,1011,2023-10-27 12:26:50.60,219,26,-2059,87,18,30,440,484,-44,-462
,1012,2023-10-27 12:26:50.61,219,21,-2052,92,15,35,434,533,-99,-483
,1013,2023-10-27 12:26:50.62,227,22,-2055,101,12,36,445,487,-42,-466
,1014,2023-10-27 12:26:50.63,232,5,-2047,111,9,41,428,528,-100,-478
,1015,2023-10-27 12:26:50.64,228,5,-2043,126,17,37,448,493,-45,-470
,1016,2023-10-27 12:26:50.65,218,3,-2035,137,23,38,416,522,-106,-469
,1017,2023-10-27 12:26:50.66,224,6,-2044,154,25,42,450,501,-51,-475
,1018,2023-10-27 12:26:50.67,216,-7,-2044,163,34,46,409,521,-112,-465
,1019,2023-10-27 12:26:50.68,225,18,-2050,184,28,50,455,508,-53,-481
,1020,2023-10-27 12:26:50.69,211,0,-2044,196,35,50,402,515,-113,-458
,1021,2023-10-27 12:26:50.70,212,18,-2046,199,29,54,459,512,-53,-485
,1022,2023-10-27 12:26:50.71,209,-3,-2054,194,33,51,400,514,-114,-457
,1023,2023-10-27 12:26:50.72,203,6,-2044,196,27,51,466,520,-54,-493
,1024,2023-10-27 12:26:50.73,205,2,-2050,207,22,56,394,513,-119,-453
,1025,2023-10-27 12:26:50.74,212,-6,-2050,207,17,57,469,524,-55,-496
,1026,2023-10-27 12:26:50.75,209,-7,-2052,201,12,57,386,505,-119,-445
,1027,2023-10-27 12:26:50.76,221,-5,-2060,195,12,51,472,528,-56,-500
,1028,2023-10-27 12:26:50.77,224,-10,-2058,188,7,48,380,503,-123,-441
,1029,2023-10-27 12:26:50.78,203,-23,-2063,186,11,45,481,538,-57,-509
,1030,2023-10-27 12:26:50.79,212,-27,-2053,181,4,40,375,502,-127,-438
,1031,2023-10-27 12:26:50.80,209,-35,-2053,177,7,38,487,542,-55,-514
,1032,2023-10-27 12:26:50.81,211,-34,-2056,177,-2,35,379,511,-132,-445
,1033,2023-10-27 12:26:50.82,206,-37,-2056,173,-1,32,493,551,-58,-522
,1034,2023-10-27 12:26:50.83,203,-35,-2060,163,-7,27,357,490,-133,-423
,1035,2023-10-27 12:26:50.84,212,-34,-2057,157,-6,22,478,538,-60,-508
,1036,2023-10-27 12:26:50.85,207,-33,-2062,154,-11,19,340,482,-142,-411
,1037,2023-10-27 12:26:50.86,200,-43,-2048,148,-14,14,485,560,-75,-522
,1038,2023-10-27 12:26:50.87,205,-51,-2050,145,-12,10,334,476,-142,-405
,1039,2023-10-27 12:26:50.88,201,-53,-2058,137,-14,7,488,561,-73,-524
,1040,2023-10-27 12:26:50.89,205,-53,-2054,135,-20,7,320,462,-142,-391
,1041,2023-10-27 12:26:50.90,213,-56,-2057,131,-23,5,478,557,-79,-517
,1042,2023-10-27 12:26:50.91,216,-60,-2048,126,-28,2,324,465,-141,-394
,1043,2023-10-27 12:26:50.92,202,-67,-2052,119,-29,3,502,576,-74,-539
,1044,2023-10-27 12:26:50.93,205,-65,-2051,116,-32,2,326,470,-144,-398
,1045,2023-10-27 12:26:50.94,206,-68,-2052,109,-35,2,507,583,-76,-545
,1046,2023-10-27 12:26:50.95,210,-80,-2053,104,-36,4,324,467,-143,-395
,1047,2023-10-27 12:26:50.96,196,-85,-2061,102,-37,9,508,587,-79,-547
,1048,2023-10-27 12:26:50.97,196,-84,-2063,98,-43,12,323,469,-146,-396
,1049,2023-10-27 12:26:50.98,202,-82,-2056,92,-46,15,514,594,-80,-554
,1050,2023-10-27 12:26:50.99,203,-87,-2058,90,-46,18,319,466,-147,-392
,1051,2023-10-27 12:26:51.00,204,-85,-2045,84,-50,21,519,600,-81,-559
,1052,2023-10-27 12:26:51.01,200,-92,-2053,82,-50,25,314,463,-149,-388
,1053,2023-10-27 12:26:51.02,204,-92,-2044,81,-50,28,526,604,-78,-565
,1054,2023-10-27 12:26:51.03,205,-95,-2046,80,-50,29,309,459,-150,-384
,1055,2023-10-27 12:26:51.04,203,-104,-2045,80,-51,34,530,608,-78,-569
,1056,2023-10-27 12:26:51.05,196,-102,-2050,81,-52,35,302,453,-151,-377
,1057,2023-10-27 12:26:51.06,190,-93,-2047,82,-51,38,530,612,-82,-571
,1058,2023-10-27 12:26:51.07,198,-105,-2048,81,-49,41,300,452,-152,-376
,1059,2023-10-27 12:26:51.08,196,-108,-2049,83,-50,45,530,622,-92,-576
,1060,2023-10-27 12:26:51.09,189,-105,-2049,83,-49,45,288,444,-156,-366
,1061,2023-10-27 12:26:51.10,191,-107,-2050,83,-48,50,524,622,-98,-573
,1062,2023-10-27 12:26:51.11,196,-104,-2054,83,-44,52,278,436,-158,-357
,1063,2023-10-27 12:26:51.12,178,-112,-2051,82,-45,56,529,626,-97,-577
,1064,2023-10-27 12:26:51.13,186,-111,-2052,83,-46,55,283,437,-154,-360
,1065,2023-10-27 12:26:51.14,191,-107,-2049,83,-46,59,533,632,-99,-582
,1066,2023-10-27 12:26:51.15,200,-114,-2043,86,-45,60,278,432,-154,-355
,1067,2023-10-27 12:26:51.16,191,-114,-2046,86,-43,65,528,631,-103,-579
,1068,2023-10-27 12:26:51.17,195,-125,-2040,90,-45,64,274,428,-154,-351
,1069,2023-10-27 12:26:51.18,188,-132,-2047,92,-42,68,530,637,-107,-583
,1070,2023-10-27 12:26:51.19,168,-142,-2056,92,-40,70,269,426,-157,-347
,1071,2023-10-27 12:26:51.20,171,-138,-2052,97,-43,73,531,639,-108,-585
,1072,2023-10-27 12:26:51.21,191,-136,-2041,100,-42,74,269,427,-158,-348
,1073,2023-10-27 12:26:51.22,187,-134,-2041,104,-41,76,543,654,-111,-598
,1074,2023-10-27 12:26:51.23,180,-137,-2046,108,-36,75,271,428,-157,-349
,1075,2023-10-27 12:26:51.24,177,-139,-2044,110,-27,72,536,644,-108,-590
,1076,2023-10-27 12:26:51.25,179,-146,-2042,114,-26,71,262,409,-147,-335
,1077,2023-10-27 12:26:51.26,179,-141,-2044,120,-25,69,538,646,-108,-592
,1078,2023-10-27 12:26:51.27,182,-152,-2046,124,-23,65,266,423,-157,-344
,1079,2023-10-27 12:26:51.28,170,-143,-2054,128,-25,61,530,648,-118,-589
,1080,2023-10-27 12:26:51.29,176,-141,-2047,129,-28,61,270,424,-154,-347
,1081,2023-10-27 12:26:51.30,169,-139,-2053,130,-30,54,544,654,-110,-599
,1082,2023-10-27 12:26:51.31,176,-138,-2051,127,-33,51,270,422,-152,-346
,1083,2023-10-27 12:26:51.32,159,-138,-2052,124,-35,45,547,658,-111,-602
,1084,2023-10-27 12:26:51.33,171,-149,-2049,121,-39,39,266,420,-154,-343
,1085,2023-10-27 12:26:51.34,156,-145,-2058,118,-40,33,546,659,-113,-602
,1086,2023-10-27 12:26:51.35,167,-159,-2058,117,-49,30,264,415,-151,-339
,1087,2023-10-27 12:26:51.36,159,-164,-2057,114,-54,29,544,663,-119,-603
,1088,2023-10-27 12:26:51.37,159,-165,-2059,113,-56,25,262,412,-150,-337
,1089,2023-10-27 12:26:51.38,165,-154,-2053,114,-59,22,547,667,-120,-607
,1090,2023-10-27 12:26:51.39,157,-166,-2050,111,-61,18,262,409,-147,-335
,1091,2023-10-27 12:26:51.40,154,-176,-2052,108,-62,16,542,666,-124,-604
,1092,2023-10-27 12:26:51.41,157,-155,-2061,113,-68,14,257,405,-148,-331
,1093,2023-10-27 12:26:51.42,145,-168,-2052,108,-63,7,539,665,-126,-602
,1094,2023-10-27 12:26:51.43,156,-178,-2051,106,-66,2,261,406,-145,-333
,1095,2023-10-27 12:26:51.44,141,-172,-2050,103,-65,0,542,668,-126,-605
,1096,2023-10-27 12:26:51.45,146,-167,-2057,106,-68,0,266,405,-139,-335
,1097,2023-10-27 12:26:51.46,144,-169,-2047,107,-68,-9,537,666,-129,-601
,1098,2023-10-27 12:26:51.47,149,-186,-2055,103,-68,-14,263,404,-141,-333
,1099,2023-10-27 12:26:51.48,143,-184,-2050,101,-65,-16,536,670,-134,-603
,1100,2023-10-27 12:26:51.49,147,-195,-2044,107,-69,-20,265,410,-145,-337
,1101,2023-10-27 12:26:51.50,122,-181,-2044,106,-66,-28,536,670,-134,-603
,1102,2023-10-27 12:26:51.51,141,-199,-2035,104,-63,-33,265,407,-142,-336
,1103,2023-10-27 12:26:51.52,146,-186,-2050,112,-67,-38,530,666,-136,-598
,1104,2023-10-27 12:26:51.53,123,-185,-2049,110,-58,-41,261,407,-146,-334
,1105,2023-10-27 12:26:51.54,119,-208,-2034,108,-59,-47,526,666,-140,-596
,1106,2023-10-27 12:26:51.55,121,-192,-2055,107,-55,-50,262,404,-142,-333
,1107,2023-10-27 12:26:51.56,128,-200,-2050,107,-53,-52,524,667,-143,-595
,1108,2023-10-27 12:26:51.57,113,-220,-2024,107,-48,-54,260,404,-144,-332
,1109,2023-10-27 12:26:51.58,131,-193,-2055,109,-50,-57,528,666,-138,-597
,1110,2023-10-27 12:26:51.59,135,-212,-2047,107,-45,-60,263,406,-143,-334
,1111,2023-10-27 12:26:51.60,131,-210,-2032,101,-42,-62,526,666,-140,-596
,1112,2023-10-27 12:26:51.61,137,-202,-2054,97,-37,-65,261,400,-139,-330
,1113,2023-10-27 12:26:51.62,121,-215,-2043,90,-36,-71,525,663,-138,-594
,1114,2023-10-27 12:26:51.63,115,-217,-2047,85,-34,-72,277,412,-135,-344
,1115,2023-10-27 12:26:51.64,121,-223,-2041,79,-27,-74,523,671,-148,-597
,1116,2023-10-27 12:26:51.65,113,-223,-2046,80,-31,-75,270,405,-135,-337
,1117,2023-10-27 12:26:51.66,117,-225,-2050,78,-33,-77,513,656,-143,-584
,1118,2023-10-27 12:26:51.67,120,-219,-2038,76,-27,-77,274,405,-131,-339
,1119,2023-10-27 12:26:51.68,142,-220,-2041,78,-26,-74,520,670,-150,-595
,1120,2023-10-27 12:26:51.69,121,-219,-2029,69,-19,-81,270,400,-130,-335
,1121,2023-10-27 12:26:51.70,134,-224,-2031,68,-17,-83,516,667,-151,-591
,1122,2023-10-27 12:26:51.71,133,-229,-2036,65,-11,-84,283,409,-126,-346
,1123,2023-10-27 12:26:51.72,117,-231,-2041,61,-5,-84,512,665,-153,-588
,1124,2023-10-27 12:26:51.73,135,-229,-2046,61,-3,-82,286,409,-123,-347
,1125,2023-10-27 12:26:51.74,131,-240,-2044,56,-3,-85,508,662,-154,-585
,1126,2023-10-27 12:26:51.75,128,-248,-2039,58,-6,-83,289,412,-123,-350
,1127,2023-10-27 12:26:51.76,134,-250,-2042,57,-3,-79,504,660,-156,-582
,1128,2023-10-27 12:26:51.77,122,-262,-2025,53,-2,-80,296,417,-121,-356
,1129,2023-10-27 12:26:51.78,140,-234,-2043,59,-3,-73,507,665,-158,-586
,1130,2023-10-27 12:26:51.79,129,-248,-2034,56,-5,-71,299,421,-122,-360
,1131,2023-10-27 12:26:51.80,141,-253,-2043,52,-5,-69,499,657,-158,-578
,1132,2023-10-27 12:26:51.81,128,-264,-2034,53,-4,-63,300,420,-120,-360
,1133,2023-10-27 12:26:51.82,135,-251,-2049,53,-9,-57,493,654,-161,-573
,1134,2023-10-27 12:26:51.83,126,-261,-2023,54,-13,-52,303,423,-120,-363
,1135,2023-10-27 12:26:51.84,144,-259,-2048,57,-18,-43,493,655,-162,-574
,1136,2023-10-27 12:26:51.85,131,-255,-2046,51,-17,-40,308,424,-116,-366
,1137,2023-10-27 12:26:51.86,133,-269,-2031,46,-19,-33,492,651,-159,-571
,1138,2023-10-27 12:26:51.87,123,-272,-2037,54,-24,-28,311,427,-116,-369
,1139,2023-10-27 12:26:51.88,130,-256,-2047,52,-17,-24,489,647,-158,-568
,1140,2023-10-27 12:26:51.89,137,-273,-2032,46,-20,-16,316,426,-110,-371
,1141,2023-10-27 12:26:51.90,132,-264,-2045,38,-14,-14,486,645,-159,-565
,1142,2023-10-27 12:26:51.91,133,-269,-2037,34,-14,-8,322,431,-109,-376
,1143,2023-10-27 12:26:51.92,129,-262,-2043,31,-15,-4,483,650,-167,-566
,1144,2023-10-27 12:26:51.93,128,-266,-2049,26,-18,-1,325,436,-111,-380
,1145,2023-10-27 12:26:51.94,120,-268,-2051,21,-15,5,480,645,-165,-562
,1146,2023-10-27 12:26:51.95,125,-268,-2047,17,-21,11,332,436,-104,-384
,1147,2023-10-27 12:26:51.96,115,-271,-2043,16,-24,15,472,643,-171,-557
,1148,2023-10-27 12:26:51.97,116,-260,-2037,10,-21,18,334,440,-106,-387
,1149,2023-10-27 12:26:51.98,122,-260,-2040,4,-19,20,470,639,-169,-554
,1150,2023-10-27 12:26:51.99,120,-254,-2046,1,-21,20,347,445,-98,-396
,1151,2023-10-27 12:26:52.00,121,-261,-2034,0,-20,18,468,636,-168,-552
,1152,2023-10-27 12:26:52.01,107,-252,-2039,-2,-18,18,353,447,-94,-400
,1153,2023-10-27 12:26:52.02,119,-255,-2036,-7,-17,16,460,631,-171,-545
,1154,2023-10-27 12:26:52.03,111,-246,-2035,-9,-16,15,353,451,-98,-402
,1155,2023-10-27 12:26:52.04,129,-251,-2044,-9,-17,13,466,637,-171,-551
,1156,2023-10-27 12:26:52.05,120,-246,-2038,-10,-17,10,364,461,-97,-412
,1157,2023-10-27 12:26:52.06,109,-246,-2034,-12,-15,11,450,622,-172,-536
,1158,2023-10-27 12:26:52.07,115,-248,-2034,-12,-16,10,363,450,-87,-406
,1159,2023-10-27 12:26:52.08,108,-254,-2038,-12,-15,7,446,617,-171,-531
,1160,2023-10-27 12:26:52.09,111,-245,-2038,-10,-16,8,378,471,-93,-424
,1161,2023-10-27 12:26:52.10,106,-248,-2042,-13,-13,6,434,608,-174,-521
,1162,2023-10-27 12:26:52.11,112,-247,-2045,-13,-12,6,381,474,-93,-427
,1163,2023-10-27 12:26:52.12,117,-248,-2049,-11,-14,7,436,609,-173,-522
,1164,2023-10-27 12:26:52.13,112,-242,-2050,-10,-13,8,388,480,-92,-434
,1165,2023-10-27 12:26:52.14,123,-246,-2039,-12,-8,8,434,604,-170,-519
,1166,2023-10-27 12:26:52.15,109,-242,-2038,-14,-9,10,392,485,-93,-438
,1167,2023-10-27 12:26:52.16,107,-252,-2041,-13,-9,12,431,601,-170,-516
,1168,2023-10-27 12:26:52.17,98,-261,-2053,-12,-8,13,397,487,-90,-442
,1169,2023-10-27 12:26:52.18,116,-245,-2047,-9,-14,16,426,594,-168,-510
,1170,2023-10-27 12:26:52.19,109,-250,-2048,-6,-12,19,400,491,-91,-445
,1171,2023-10-27 12:26:52.20,103,-250,-2050,-9,-10,19,417,595,-178,-506
,1172,2023-10-27 12:26:52.21,116,-246,-2044,-15,-5,19,413,499,-86,-456
,1173,2023-10-27 12:26:52.22,109,-243,-2043,-17,-1,18,417,592,-175,-504
,1174,2023-10-27 12:26:52.23,111,-242,-2037,-16,-1,20,422,504,-82,-463
,1175,2023-10-27 12:26:52.24,105,-247,-2036,-18,0,22,411,584,-173,-497
,1176,2023-10-27 12:26:52.25,112,-256,-2040,-21,3,24,428,509,-81,-468
,1177,2023-10-27 12:26:52.26,89,-252,-2018,-19,6,28,408,583,-175,-495
,1178,2023-10-27 12:26:52.27,97,-233,-2041,-23,11,25,439,522,-83,-480
,1179,2023-10-27 12:26:52.28,113,-240,-2039,-27,10,27,402,577,-175,-489
,1180,2023-10-27 12:26:52.29,111,-231,-2043,-37,19,26,440,526,-86,-483
,1181,2023-10-27 12:26:52.30,114,-230,-2042,-38,20,27,391,567,-176,-479
,1182,2023-10-27 12:26:52.31,106,-232,-2042,-35,22,26,443,531,-88,-487
,1183,2023-10-27 12:26:52.32,111,-225,-2041,-37,24,22,390,564,-174,-477
,1184,2023-10-27 12:26:52.33,123,-228,-2040,-34,17,22,452,537,-85,-494
,1185,2023-10-27 12:26:52.34,116,-229,-2040,-34,17,22,384,557,-173,-470
,1186,2023-10-27 12:26:52.35,114,-225,-2043,-33,21,23,458,542,-84,-500
,1187,2023-10-27 12:26:52.36,123,-228,-2038,-36,22,19,384,552,-168,-468
,1188,2023-10-27 12:26:52.37,120,-228,-2042,-37,21,17,462,547,-85,-504
,1189,2023-10-27 12:26:52.38,122,-226,-2054,-34,24,17,379,544,-165,-461
,1190,2023-10-27 12:26:52.39,126,-228,-2051,-34,20,14,464,550,-86,-507
,1191,2023-10-27 12:26:52.40,123,-220,-2043,-34,17,15,370,542,-172,-456
,1192,2023-10-27 12:26:52.41,126,-218,-2055,-34,15,16,468,555,-87,-511
,1193,2023-10-27 12:26:52.42,119,-217,-2052,-34,12,14,368,540,-172,-454
,1194,2023-10-27 12:26:52.43,118,-211,-2043,-34,9,16,472,558,-86,-515
,1195,2023-10-27 12:26:52.44,125,-220,-2055,-36,4,15,359,534,-175,-446
,1196,2023-10-27 12:26:52.45,114,-222,-2047,-33,-3,16,489,577,-88,-533
,1197,2023-10-27 12:26:52.46,129,-218,-2045,-28,-9,19,357,528,-171,-442
,1198,2023-10-27 12:26:52.47,129,-216,-2047,-26,-12,19,484,569,-85,-526
,1199,2023-10-27 12:26:52.48,125,-219,-2048,-28,-10,17,345,511,-166,-428
,1200,2023-10-27 12:26:52.49,121,-210,-2055,-30,-7,19,491,579,-88,-535
,1201,2023-10-27 12:26:52.50,111,-215,-2054,-24,-12,17,344,517,-173,-430
,1202,2023-10-27 12:26:52.51,116,-218,-2052,-21,-10,18,498,588,-90,-543
,1203,2023-10-27 12:26:52.52,113,-217,-2055,-20,-13,17,337,509,-172,-423
,1204,2023-10-27 12:26:52.53,121,-215,-2044,-18,-13,19,499,590,-91,-544
,1205,2023-10-27 12:26:52.54,122,-213,-2042,-16,-13,18,336,505,-169,-420
,1206,2023-10-27 12:26:52.55,111,-218,-2046,-12,-17,21,503,593,-90,-548
,1207,2023-10-27 12:26:52.56,122,-212,-2044,-14,-8,20,331,500,-169,-415
,1208,2023-10-27 12:26:52.57,119,-209,-2036,-15,-8,21,506,596,-90,-551
,1209,2023-10-27 12:26:52.58,115,-209,-2041,-15,-4,22,332,497,-165,-414
,1210,2023-10-27 12:26:52.59,117,-212,-2038,-18,-3,18,512,602,-90,-557
,1211,2023-10-27 12:26:52.60,110,-214,-2047,-18,-1,20,330,492,-162,-411
,1212,2023-10-27 12:26:52.61,120,-209,-2037,-20,-1,21,513,604,-91,-558
,1213,2023-10-27 12:26:52.62,121,-213,-2040,-21,0,23,326,489,-163,-407
,1214,2023-10-27 12:26:52.63,105,-210,-2046,-22,-2,21,516,610,-94,-563
,1215,2023-10-27 12:26:52.64,119,-216,-2048,-24,-1,19,318,484,-166,-401
,1216,2023-10-27 12:26:52.65,119,-204,-2047,-26,1,19,521,613,-92,-567
,1217,2023-10-27 12:26:52.66,115,-200,-2046,-29,4,19,316,480,-164,-398
,1218,2023-10-27 12:26:52.67,109,-199,-2052,-33,2,14,523,616,-93,-569
,1219,2023-10-27 12:26:52.68,109,-195,-2047,-36,3,14,312,476,-164,-394
,1220,2023-10-27 12:26:52.69,120,-199,-2048,-40,3,14,525,619,-94,-572
,1221,2023-10-27 12:26:52.70,127,-204,-2050,-41,-1,13,305,467,-162,-386
,1222,2023-10-27 12:26:52.71,119,-202,-2052,-42,-3,12,534,627,-93,-580
,1223,2023-10-27 12:26:52.72,120,-199,-2056,-41,-7,11,305,464,-159,-384
,1224,2023-10-27 12:26:52.73,113,-196,-2056,-40,-9,12,538,630,-92,-584
,1225,2023-10-27 12:26:52.74,111,-196,-2057,-36,-16,13,302,458,-156,-380
,1226,2023-10-27 12:26:52.75,120,-192,-2046,-36,-18,13,544,635,-91,-589
,1227,2023-10-27 12:26:52.76,127,-195,-2049,-32,-16,15,300,454,-154,-377
,1228,2023-10-27 12:26:52.77,123,-190,-2045,-28,-17,14,545,641,-96,-593
,1229,2023-10-27 12:26:52.78,112,-195,-2045,-28,-19,16,299,454,-155,-376
,1230,2023-10-27 12:26:52.79,122,-191,-2039,-24,-20,18,548,644,-96,-596
,1231,2023-10-27 12:26:52.80,107,-201,-2052,-21,-21,20,297,447,-150,-372
,1232,2023-10-27 12:26:52.81,107,-187,-2045,-19,-22,23,545,644,-99,-594
,1233,2023-10-27 12:26:52.82,107,-192,-2047,-19,-26,28,294,442,-148,-368
,1234,2023-10-27 12:26:52.83,116,-191,-2052,-19,-28,30,546,644,-98,-595
,1235,2023-10-27 12:26:52.84,109,-187,-2052,-17,-26,33,294,438,-144,-366
,1236,2023-10-27 12:26:52.85,98,-195,-2061,-13,-27,33,551,648,-97,-599
,1237,2023-10-27 12:26:52.86,113,-185,-2052,-17,-31,36,302,451,-149,-376
,1238,2023-10-27 12:26:52.87,112,-179,-2054,-19,-28,36,552,651,-99,-601
,1239,2023-10-27 12:26:52.88,113,-181,-2054,-21,-26,37,290,439,-149,-364
,1240,2023-10-27 12:26:52.89,115,-182,-2050,-21,-28,35,549,643,-94,-596
,1241,2023-10-27 12:26:52.90,111,-176,-2057,-22,-28,37,290,431,-141,-360
,1242,2023-10-27 12:26:52.91,103,-185,-2057,-24,-31,32,554,654,-100,-604
,1243,2023-10-27 12:26:52.92,104,-179,-2049,-23,-32,31,289,433,-144,-361
,1244,2023-10-27 12:26:52.93,119,-179,-2050,-24,-32,29,557,657,-100,-607
,1245,2023-10-27 12:26:52.94,101,-184,-2049,-23,-32,29,290,432,-142,-361
,1246,2023-10-27 12:26:52.95,97,-182,-2042,-22,-35,28,561,660,-99,-610
,1247,2023-10-27 12:26:52.96,108,-189,-2047,-19,-38,28,288,426,-138,-357
,1248,2023-10-27 12:26:52.97,96,-197,-2049,-16,-38,26,560,660,-100,-610
,1249,2023-10-27 12:26:52.98,90,-184,-2045,-13,-41,29,287,425,-138,-356
,1250,2023-10-27 12:26:52.99,96,-187,-2052,0,-47,29,563,667,-104,-615
,1251,2023-10-27 12:26:53.00,88,-177,-2031,-2,-43,27,283,419,-136,-351
,1252,2023-10-27 12:26:53.01,97,-186,-2030,-4,-39,27,566,667,-101,-616
,1253,2023-10-27 12:26:53.02,93,-182,-2055,-9,-18,23,286,415,-129,-350
,1254,2023-10-27 12:26:53.03,90,-178,-2043,-10,-32,25,569,671,-102,-620
,1255,2023-10-27 12:26:53.04,76,-191,-2045,-13,-27,30,286,417,-131,-351
,1256,2023-10-27 12:26:53.05,100,-193,-2055,-13,-26,30,570,672,-102,-621
,1257,2023-10-27 12:26:53.06,89,-180,-2040,-18,-33,33,288,414,-126,-351
,1258,2023-10-27 12:26:53.07,84,-184,-2057,-14,-26,34,570,672,-102,-621
,1259,2023-10-27 12:26:53.08,91,-175,-2044,-20,-25,35,294,415,-121,-354
,1260,2023-10-27 12:26:53.09,94,-177,-2052,-22,-31,37,570,672,-102,-621
,1261,2023-10-27 12:26:53.10,86,-178,-2050,-25,-26,34,295,409,-114,-352
,1262,2023-10-27 12:26:53.11,90,-180,-2056,-26,-28,36,574,672,-98,-623
,1263,2023-10-27 12:26:53.12,77,-174,-2053,-29,-31,36,300,410,-110,-355
,1264,2023-10-27 12:26:53.13,84,-176,-2058,-29,-32,35,576,672,-96,-624
,1265,2023-10-27 12:26:53.14,75,-175,-2065,-30,-36,36,299,412,-113,-355
,1266,2023-10-27 12:26:53.15,75,-174,-2060,-35,-41,34,579,673,-94,-626
,1267,2023-10-27 12:26:53.16,75,-168,-2055,-38,-44,34,306,414,-108,-360
,1268,2023-10-27 12:26:53.17,75,-159,-2046,-40,-43,32,585,673,-88,-629
,1269,2023-10-27 12:26:53.18,69,-165,-2049,-43,-45,31,306,411,-105,-358
,1270,2023-10-27 12:26:53.19,64,-163,-2051,-47,-44,29,583,670,-87,-626
,1271,2023-10-27 12:26:53.20,45,-166,-2042,-46,-44,30,307,408,-101,-357
,1272,2023-10-27 12:26:53.21,78,-169,-2056,-45,-51,30,588,676,-88,-632
,1273,2023-10-27 12:26:53.22,68,-160,-2056,-50,-50,30,313,408,-95,-360
,1274,2023-10-27 12:26:53.23,66,-158,-2039,-48,-55,32,591,675,-84,-633
,1275,2023-10-27 12:26:53.24,72,-158,-2057,-48,-49,31,316,408,-92,-362
,1276,2023-10-27 12:26:53.25,67,-178,-2061,-50,-49,33,589,675,-86,-632
,1277,2023-10-27 12:26:53.26,67,-164,-2058,-50,-56,35,315,406,-91,-360
,1278,2023-10-27 12:26:53.27,60,-161,-2057,-48,-59,34,595,685,-90,-640
,1279,2023-10-27 12:26:53.28,59,-155,-2051,-43,-58,30,320,407,-87,-363
,1280,2023-10-27 12:26:53.29,67,-154,-2047,-42,-55,27,590,676,-86,-633
,1281,2023-10-27 12:26:53.30,63,-142,-2052,-42,-51,24,330,406,-76,-368
,1282,2023-10-27 12:26:53.31,63,-151,-2052,-38,-50,18,591,676,-85,-633
,1283,2023-10-27 12:26:53.32,69,-146,-2047,-34,-50,14,333,409,-76,-371
,1284,2023-10-27 12:26:53.33,59,-149,-2045,-29,-51,9,580,661,-81,-620
,1285,2023-10-27 12:26:53.34,49,-156,-2051,-25,-53,9,332,406,-74,-369
,1286,2023-10-27 12:26:53.35,58,-156,-2048,-20,-54,10,584,666,-82,-625
,1287,2023-10-27 12:26:53.36,56,-155,-2053,-14,-56,9,338,414,-76,-376
,1288,2023-10-27 12:26:53.37,42,-157,-2040,-14,-55,9,586,666,-80,-626
,1289,2023-10-27 12:26:53.38,47,-159,-2042,-14,-54,9,343,415,-72,-379
,1290,2023-10-27 12:26:53.39,50,-157,-2053,-9,-49,10,584,664,-80,-624
,1291,2023-10-27 12:26:53.40,42,-155,-2046,-13,-41,10,345,419,-74,-382
,1292,2023-10-27 12:26:53.41,40,-153,-2045,-10,-44,11,583,664,-81,-623
,1293,2023-10-27 12:26:53.42,20,-161,-2044,-14,-30,15,346,416,-70,-381
,1294,2023-10-27 12:26:53.43,41,-155,-2043,-11,-30,18,580,660,-80,-620
,1295,2023-10-27 12:26:53.44,43,-153,-2040,-16,-26,23,350,419,-69,-384
,1296,2023-10-27 12:26:53.45,46,-155,-2040,-20,-22,23,585,660,-75,-622
,1297,2023-10-27 12:26:53.46,37,-147,-2044,-25,-14,27,352,418,-66,-385
,1298,2023-10-27 12:26:53.47,33,-154,-2043,-25,-9,29,579,654,-75,-616
,1299,2023-10-27 12:26:53.48,42,-148,-2047,-26,-7,30,352,416,-64,-384
,1300,2023-10-27 12:26:53.49,39,-143,-2048,-26,0,31,574,654,-80,-614
,1301,2023-10-27 12:26:53.50,37,-144,-2048,-29,1,31,358,421,-63,-389
,1302,2023-10-27 12:26:53.51,44,-151,-2046,-29,4,32,571,654,-83,-612
,1303,2023-10-27 12:26:53.52,38,-143,-2056,-27,3,33,368,430,-62,-399
,1304,2023-10-27 12:26:53.53,37,-136,-2056,-25,4,30,570,652,-82,-611
,1305,2023-10-27 12:26:53.54,44,-140,-2052,-26,2,32,371,431,-60,-401
,1306,2023-10-27 12:26:53.55,47,-138,-2053,-28,0,29,562,644,-82,-603
,1307,2023-10-27 12:26:53.56,49,-134,-2052,-27,0,26,376,435,-59,-405
,1308,2023-10-27 12:26:53.57,45,-136,-2058,-25,-3,26,565,646,-81,-605
,1309,2023-10-27 12:26:53.58,41,-132,-2052,-25,-1,25,384,441,-57,-412
,1310,2023-10-27 12:26:53.59,45,-125,-2058,-23,-5,23,558,643,-85,-600
,1311,2023-10-27 12:26:53.60,39,-125,-2054,-23,-8,21,381,438,-57,-409
,1312,2023-10-27 12:26:53.61,49,-134,-2059,-25,-9,22,558,639,-81,-598
,1313,2023-10-27 12:26:53.62,37,-134,-2056,-24,-12,23,388,443,-55,-415
,1314,2023-10-27 12:26:53.63,45,-133,-2058,-25,-17,20,558,639,-81,-598
,1315,2023-10-27 12:26:53.64,45,-124,-2058,-25,-17,23,395,448,-53,-421
,1316,2023-10-27 12:26:53.65,31,-122,-2063,-30,-20,24,556,636,-80,-596
,1317,2023-10-27 12:26:53.66,34,-125,-2061,-38,-19,23,398,450,-52,-424
,1318,2023-10-27 12:26:53.67,40,-133,-2060,-42,-20,22,548,634,-86,-591
,1319,2023-10-27 12:26:53.68,52,-124,-2052,-39,-18,21,412,465,-53,-438
,1320,2023-10-27 12:26:53.69,51,-129,-2049,-32,-27,20,545,632,-87,-588
,1321,2023-10-27 12:26:53.70,40,-138,-2062,-26,-21,20,418,461,-43,-439
,1322,2023-10-27 12:26:53.71,32,-132,-2050,-31,-17,15,540,622,-82,-581
,1323,2023-10-27 12:26:53.72,41,-131,-2043,-33,-11,18,421,466,-45,-443
,1324,2023-10-27 12:26:53.73,38,-125,-2039,-28,-12,18,534,620,-86,-577
,1325,2023-10-27 12:26:53.74,25,-131,-2042,-24,-7,20,420,468,-48,-444
,1326,2023-10-27 12:26:53.75,34,-139,-2053,-24,-3,22,531,618,-87,-574
,1327,2023-10-27 12:26:53.76,37,-137,-2061,-19,-7,26,434,482,-48,-458
,1328,2023-10-27 12:26:53.77,34,-133,-2061,-19,-3,27,528,613,-85,-570
,1329,2023-10-27 12:26:53.78,25,-134,-2041,-29,18,27,440,485,-45,-462
,1330,2023-10-27 12:26:53.79,46,-121,-2050,-27,5,27,520,607,-87,-563
,1331,2023-10-27 12:26:53.80,25,-115,-2046,-25,23,25,442,487,-45,-464
,1332,2023-10-27 12:26:53.81,34,-121,-2050,-21,20,27,517,603,-86,-560
,1333,2023-10-27 12:26:53.82,39,-121,-2046,-25,23,24,452,494,-42,-473
,1334,2023-10-27 12:26:53.83,24,-118,-2059,-25,26,24,520,599,-79,-559
,1335,2023-10-27 12:26:53.84,33,-107,-2053,-20,22,26,456,498,-42,-477
,1336,2023-10-27 12:26:53.85,44,-107,-2051,-24,26,23,512,596,-84,-554
,1337,2023-10-27 12:26:53.86,39,-105,-2052,-22,29,17,461,504,-43,-482
,1338,2023-10-27 12:26:53.87,40,-101,-2051,-24,31,15,509,593,-84,-551
,1339,2023-10-27 12:26:53.88,36,-107,-2052,-25,33,9,467,509,-42,-488
,1340,2023-10-27 12:26:53.89,49,-106,-2056,-21,31,7,499,587,-88,-543
,1341,2023-10-27 12:26:53.90,50,-106,-2052,-20,30,7,470,512,-42,-491
,1342,2023-10-27 12:26:53.91,38,-104,-2053,-16,27,8,494,582,-88,-538
,1343,2023-10-27 12:26:53.92,45,-107,-2056,-8,25,7,483,519,-36,-501
,1344,2023-10-27 12:26:53.93,38,-106,-2055,-7,25,3,492,582,-90,-537
,1345,2023-10-27 12:26:53.94,41,-114,-2048,-3,28,5,492,525,-33,-508
,1346,2023-10-27 12:26:53.95,40,-112,-2047,-3,32,6,482,571,-89,-526
,1347,2023-10-27 12:26:53.96,45,-109,-2048,-5,33,7,495,535,-40,-515
,1348,2023-10-27 12:26:53.97,57,-108,-2052,-10,34,10,477,564,-87,-520
,1349,2023-10-27 12:26:53.98,55,-107,-2062,-12,36,13,502,542,-40,-522
,1350,2023-10-27 12:26:53.99,33,-111,-2059,-12,34,13,471,559,-88,-515
,1351,2023-10-27 12:26:54.00,53,-108,-2063,-9,31,14,508,548,-40,-528
,1352,2023-10-27 12:26:54.01,46,-100,-2058,-12,30,14,464,554,-90,-509
,1353,2023-10-27 12:26:54.02,43,-95,-2060,-13,34,13,509,549,-40,-529
,1354,2023-10-27 12:26:54.03,69,-115,-2055,-12,36,11,458,548,-90,-503
,1355,2023-10-27 12:26:54.04,50,-104,-2064,-12,34,11,515,556,-41,-535
,1356,2023-10-27 12:26:54.05,54,-104,-2049,-13,29,11,458,548,-90,-503
,1357,2023-10-27 12:26:54.06,62,-104,-2053,-7,26,12,521,561,-40,-541
,1358,2023-10-27 12:26:54.07,64,-107,-2051,-10,26,11,453,539,-86,-496
,1359,2023-10-27 12:26:54.08,62,-100,-2056,-12,23,9,525,564,-39,-544
,1360,2023-10-27 12:26:54.09,56,-101,-2059,-5,24,7,458,547,-89,-502
,1361,2023-10-27 12:26:54.10,64,-109,-2062,-2,23,5,531,570,-39,-550
,1362,2023-10-27 12:26:54.11,70,-109,-2056,-1,21,3,442,536,-94,-489
,1363,2023-10-27 12:26:54.12,64,-104,-2062,2,19,3,534,568,-34,-551
,1364,2023-10-27 12:26:54.13,63,-107,-2058,8,15,4,435,529,-94,-482
,1365,2023-10-27 12:26:54.14,64,-106,-2052,9,14,7,540,579,-39,-559
,1366,2023-10-27 12:26:54.15,62,-108,-2053,9,16,6,423,515,-92,-469
,1367,2023-10-27 12:26:54.16,62,-106,-2046,8,14,6,545,584,-39,-564
,1368,2023-10-27 12:26:54.17,66,-107,-2054,6,17,8,422,516,-94,-469
,1369,2023-10-27 12:26:54.18,58,-108,-2050,4,18,8,554,590,-36,-572
,1370,2023-10-27 12:26:54.19,63,-114,-2049,1,22,8,419,511,-92,-465
,1371,2023-10-27 12:26:54.20,63,-107,-2057,0,24,10,560,598,-38,-579
,1372,2023-10-27 12:26:54.21,64,-108,-2055,-5,25,11,410,502,-92,-456
,1373,2023-10-27 12:26:54.22,63,-107,-2059,-9,25,13,563,598,-35,-580
,1374,2023-10-27 12:26:54.23,71,-101,-2077,-15,22,16,404,496,-92,-450
,1375,2023-10-27 12:26:54.24,65,-108,-2057,-20,16,14,565,609,-44,-587
,1376,2023-10-27 12:26:54.25,70,-101,-2058,-20,18,17,402,493,-91,-447
,1377,2023-10-27 12:26:54.26,74,-91,-2062,-26,15,20,569,613,-44,-591
,1378,2023-10-27 12:26:54.27,72,-91,-2060,-34,13,18,398,488,-90,-443
,1379,2023-10-27 12:26:54.28,59,-98,-2051,-36,8,21,573,616,-43,-594
,1380,2023-10-27 12:26:54.29,68,-97,-2055,-38,5,23,392,482,-90,-437
,1381,2023-10-27 12:26:54.30,62,-100,-2059,-40,3,25,574,618,-44,-596
,1382,2023-10-27 12:26:54.31,73,-98,-2056,-43,5,33,394,478,-84,-436
,1383,2023-10-27 12:26:54.32,70,-99,-2059,-42,-1,34,578,622,-44,-600
,1384,2023-10-27 12:26:54.33,65,-98,-2052,-41,-1,39,383,474,-91,-428
,1385,2023-10-27 12:26:54.34,60,-97,-2053,-45,1,46,577,621,-44,-599
,1386,2023-10-27 12:26:54.35,60,-94,-2061,-41,3,54,382,472,-90,-427
,1387,2023-10-27 12:26:54.36,67,-91,-2058,-39,3,58,584,628,-44,-606
,1388,2023-10-27 12:26:54.37,62,-87,-2050,-40,7,58,379,472,-93,-425
,1389,2023-10-27 12:26:54.38,71,-89,-2052,-36,6,61,582,628,-46,-605
,1390,2023-10-27 12:26:54.39,74,-76,-2057,-37,12,59,368,459,-91,-413
,1391,2023-10-27 12:26:54.40,66,-85,-2039,-33,11,61,586,630,-44,-608
,1392,2023-10-27 12:26:54.41,65,-83,-2050,-27,17,61,366,455,-89,-410
,1393,2023-10-27 12:26:54.42,76,-85,-2053,-20,22,60,597,643,-46,-620
,1394,2023-10-27 12:26:54.43,64,-84,-2058,-16,28,60,364,455,-91,-409
,1395,2023-10-27 12:26:54.44,52,-80,-2078,-12,30,61,600,645,-45,-622
,1396,2023-10-27 12:26:54.45,65,-69,-2049,-8,23,58,358,447,-89,-402
,1397,2023-10-27 12:26:54.46,53,-63,-2037,-1,24,55,596,646,-50,-621
,1398,2023-10-27 12:26:54.47,67,-65,-2054,-7,34,56,356,445,-89,-400
,1399,2023-10-27 12:26:54.48,58,-67,-2052,-4,31,54,598,651,-53,-624
,1400,2023-10-27 12:26:54.49,55,-73,-2056,-2,36,49,353,438,-85,-395
,1401,2023-10-27 12:26:54.50,70,-70,-2066,1,35,45,606,661,-55,-633
,1402,2023-10-27 12:26:54.51,54,-70,-2049,-1,39,41,351,435,-84,-393
,1403,2023-10-27 12:26:54.52,53,-67,-2067,3,38,37,601,652,-51,-626
,1404,2023-10-27 12:26:54.53,45,-86,-2058,5,38,35,351,429,-78,-390
,1405,2023-10-27 12:26:54.54,63,-68,-2056,4,39,32,601,655,-54,-628
,1406,2023-10-27 12:26:54.55,70,-68,-2061,6,41,32,342,434,-92,-388
,1407,2023-10-27 12:26:54.56,50,-70,-2048,7,31,29,600,656,-56,-628
,1408,2023-10-27 12:26:54.57,65,-67,-2051,10,30,23,342,431,-89,-386
,1409,2023-10-27 12:26:54.58,64,-82,-2056,16,20,21,604,657,-53,-630
,1410,2023-10-27 12:26:54.59,57,-83,-2055,17,19,21,342,430,-88,-386
,1411,2023-10-27 12:26:54.60,58,-75,-2060,21,13,19,607,660,-53,-633
,1412,2023-10-27 12:26:54.61,68,-74,-2058,26,11,14,332,424,-92,-378
,1413,2023-10-27 12:26:54.62,68,-69,-2062,25,15,11,607,661,-54,-634
,1414,2023-10-27 12:26:54.63,67,-74,-2057,24,22,4,331,422,-91,-376
,1415,2023-10-27 12:26:54.64,77,-74,-2054,25,25,-1,609,668,-59,-638
,1416,2023-10-27 12:26:54.65,69,-81,-2052,28,24,-1,331,418,-87,-374
,1417,2023-10-27 12:26:54.66,61,-83,-2054,26,27,-1,610,669,-59,-639
,1418,2023-10-27 12:26:54.67,68,-82,-2057,26,23,-1,329,416,-87,-372
,1419,2023-10-27 12:26:54.68,63,-86,-2050,28,23,3,611,672,-61,-641
,1420,2023-10-27 12:26:54.69,66,-91,-2050,27,26,5,326,413,-87,-369
,1421,2023-10-27 12:26:54.70,80,-88,-2070,25,25,6,607,670,-63,-638
,1422,2023-10-27 12:26:54.71,71,-80,-2059,17,25,5,328,413,-85,-370
,1423,2023-10-27 12:26:54.72,68,-82,-2064,15,22,7,604,669,-65,-636
,1424,2023-10-27 12:26:54.73,75,-80,-2058,15,26,8,328,413,-85,-370
,1425,2023-10-27 12:26:54.74,77,-84,-2058,16,23,6,604,669,-65,-636
,1426,2023-10-27 12:26:54.75,65,-87,-2054,19,27,9,327,413,-86,-370
,1427,2023-10-27 12:26:54.76,88,-87,-2054,22,23,10,602,671,-69,-636
,1428,2023-10-27 12:26:54.77,77,-82,-2052,25,24,7,322,410,-88,-366
,1429,2023-10-27 12:26:54.78,84,-88,-2057,29,29,7,599,667,-68,-633
,1430,2023-10-27 12:26:54.79,81,-91,-2061,31,33,6,320,408,-88,-364
,1431,2023-10-27 12:26:54.80,75,-87,-2056,32,33,6,601,667,-66,-634
,1432,2023-10-27 12:26:54.81,86,-84,-2053,37,31,6,316,403,-87,-359
,1433,2023-10-27 12:26:54.82,86,-88,-2059,39,30,7,596,661,-65,-628
,1434,2023-10-27 12:26:54.83,95,-86,-2061,38,30,9,304,385,-81,-344
,1435,2023-10-27 12:26:54.84,89,-88,-2055,38,29,10,595,651,-56,-623
,1436,2023-10-27 12:26:54.85,82,-93,-2051,39,35,10,281,358,-77,-319
,1437,2023-10-27 12:26:54.86,86,-88,-2043,42,35,8,586,642,-56,-614
,1438,2023-10-27 12:26:54.87,93,-96,-2057,44,36,5,302,370,-68,-336
,1439,2023-10-27 12:26:54.88,95,-94,-2053,47,33,10,608,663,-55,-635
,1440,2023-10-27 12:26:54.89,90,-93,-2047,49,35,10,316,385,-69,-350
,1441,2023-10-27 12:26:54.90,89,-92,-2050,50,38,10,615,672,-57,-643
,1442,2023-10-27 12:26:54.91,98,-88,-2055,47,37,10,324,395,-71,-359
,1443,2023-10-27 12:26:54.92,96,-92,-2050,44,41,11,616,673,-57,-644
,1444,2023-10-27 12:26:54.93,86,-94,-2049,47,40,8,326,391,-65,-358
,1445,2023-10-27 12:26:54.94,97,-100,-2061,45,35,10,624,673,-49,-648
,1446,2023-10-27 12:26:54.95,107,-110,-2055,44,37,12,337,394,-57,-365
,1447,2023-10-27 12:26:54.96,96,-103,-2054,44,37,14,620,675,-55,-647
,1448,2023-10-27 12:26:54.97,95,-107,-2060,45,33,17,334,390,-56,-362
,1449,2023-10-27 12:26:54.98,98,-118,-2062,44,27,23,619,676,-57,-647
,1450,2023-10-27 12:26:54.99,94,-108,-2063,40,24,26,344,404,-60,-374
,1451,2023-10-27 12:26:55.00,96,-108,-2063,37,20,28,620,677,-57,-648
,1452,2023-10-27 12:26:55.01,94,-104,-2051,32,20,29,346,407,-61,-376
,1453,2023-10-27 12:26:55.02,92,-96,-2052,27,19,36,612,673,-61,-642
,1454,2023-10-27 12:26:55.03,94,-100,-2066,23,19,35,344,405,-61,-374
,1455,2023-10-27 12:26:55.04,93,-100,-2052,16,14,33,610,671,-61,-640
,1456,2023-10-27 12:26:55.05,92,-95,-2060,14,15,34,345,405,-60,-375
,1457,2023-10-27 12:26:55.06,95,-95,-2054,13,13,31,608,668,-60,-638
,1458,2023-10-27 12:26:55.07,101,-103,-2063,10,12,30,349,407,-58,-378
,1459,2023-10-27 12:26:55.08,98,-97,-2060,3,8,27,612,667,-55,-639
,1460,2023-10-27 12:26:55.09,97,-96,-2062,6,5,24,355,410,-55,-382
,1461,2023-10-27 12:26:55.10,112,-102,-2058,7,8,21,614,670,-56,-642
,1462,2023-10-27 12:26:55.11,88,-105,-2061,10,3,19,359,414,-55,-386
,1463,2023-10-27 12:26:55.12,98,-99,-2051,10,5,19,612,669,-57,-640
,1464,2023-10-27 12:26:55.13,93,-106,-2058,14,5,16,362,413,-51,-387
,1465,2023-10-27 12:26:55.14,90,-99,-2057,20,1,17,600,675,-75,-637
,1466,2023-10-27 12:26:55.15,108,-97,-2047,25,-2,13,394,454,-60,-424
,1467,2023-10-27 12:26:55.16,94,-99,-2058,29,-4,14,605,693,-88,-649
,1468,2023-10-27 12:26:55.17,91,-106,-2060,31,-4,14,385,449,-64,-417
,1469,2023-10-27 12:26:55.18,99,-105,-2062,36,-8,14,580,674,-94,-627
,1470,2023-10-27 12:26:55.19,93,-106,-2055,37,-12,13,378,441,-63,-409
,1471,2023-10-27 12:26:55.20,88,-108,-2057,40,-12,15,565,656,-91,-610
,1472,2023-10-27 12:26:55.21,95,-110,-2053,44,-13,16,381,442,-61,-411
,1473,2023-10-27 12:26:55.22,86,-111,-2049,45,-11,16,556,650,-94,-603
,1474,2023-10-27 12:26:55.23,92,-113,-2048,46,-12,20,381,444,-63,-412
,1475,2023-10-27 12:26:55.24,91,-115,-2048,44,-12,20,544,640,-96,-592
,1476,2023-10-27 12:26:55.25,88,-112,-2060,39,-10,24,381,441,-60,-411
,1477,2023-10-27 12:26:55.26,97,-116,-2054,40,-10,25,535,633,-98,-584
,1478,2023-10-27 12:26:55.27,89,-117,-2050,37,-8,31,382,445,-63,-413
,1479,2023-10-27 12:26:55.28,96,-113,-2058,31,-7,33,528,627,-99,-577
,1480,2023-10-27 12:26:55.29,90,-113,-2061,28,-7,39,384,444,-60,-414
,1481,2023-10-27 12:26:55.30,89,-117,-2057,24,-5,41,526,622,-96,-574
,1482,2023-10-27 12:26:55.31,83,-113,-2052,22,-5,41,390,450,-60,-420
,1483,2023-10-27 12:26:55.32,92,-116,-2057,18,-6,40,526,625,-99,-575
,1484,2023-10-27 12:26:55.33,80,-114,-2060,15,-5,40,394,451,-57,-422
,1485,2023-10-27 12:26:55.34,102,-109,-2062,14,-10,40,513,614,-101,-563
,1486,2023-10-27 12:26:55.35,85,-102,-2056,8,-6,38,401,455,-54,-428
,1487,2023-10-27 12:26:55.36,96,-107,-2062,6,-8,34,509,613,-104,-561
,1488,2023-10-27 12:26:55.37,91,-110,-2056,3,-11,35,402,457,-55,-429
,1489,2023-10-27 12:26:55.38,80,-108,-2055,0,-13,33,500,604,-104,-552
,1490,2023-10-27 12:26:55.39,77,-114,-2064,-3,-16,30,416,464,-48,-440
,1491,2023-10-27 12:26:55.40,88,-105,-2050,-4,-18,29,499,610,-111,-554
,1492,2023-10-27 12:26:55.41,100,-110,-2056,-2,-13,26,406,457,-51,-431
,1493,2023-10-27 12:26:55.42,93,-105,-2044,-3,-11,24,495,604,-109,-549
,1494,2023-10-27 12:26:55.43,93,-101,-2035,-3,-11,25,428,478,-50,-453
,1495,2023-10-27 12:26:55.44,88,-115,-2043,-3,-6,24,488,600,-112,-544
,1496,2023-10-27 12:26:55.45,86,-122,-2056,-1,-1,26,432,485,-53,-458
,1497,2023-10-27 12:26:55.46,85,-127,-2049,5,1,29,475,587,-112,-531
,1498,2023-10-27 12:26:55.47,86,-122,-2062,8,4,33,433,488,-55,-460
,1499,2023-10-27 12:26:55.48,88,-117,-2057,9,5,33,462,581,-119,-521
,1500,2023-10-27 12:26:55.49,96,-103,-2050,2,17,31,432,492,-60,-462
,1501,2023-10-27 12:26:55.50,82,-110,-2063,3,24,30,451,572,-121,-511
,1502,2023-10-27 12:26:55.51,90,-99,-2039,1,27,32,434,494,-60,-464
,1503,2023-10-27 12:26:55.52,100,-104,-2022,-4,42,28,447,569,-122,-508
,1504,2023-10-27 12:26:55.53,95,-111,-2007,-10,66,18,442,506,-64,-474
,1505,2023-10-27 12:26:55.54,112,-110,-2003,-12,95,7,447,570,-123,-508
,1506,2023-10-27 12:26:55.55,124,-109,-2010,0,133,-4,452,514,-62,-483
,1507,2023-10-27 12:26:55.56,111,-107,-2000,13,172,-22,436,566,-130,-501
,1508,2023-10-27 12:26:55.57,119,-108,-2005,27,215,-40,456,522,-66,-489
,1509,2023-10-27 12:26:55.58,111,-107,-2002,40,250,-59,429,565,-136,-497
,1510,2023-10-27 12:26:55.59,114,-115,-2001,62,275,-75,459,527,-68,-493
,1511,2023-10-27 12:26:55.60,102,-98,-2022,86,302,-93,419,563,-144,-491
,1512,2023-10-27 12:26:55.61,108,-92,-2046,99,312,-109,462,534,-72,-498
,1513,2023-10-27 12:26:55.62,104,-90,-2051,113,300,-128,413,560,-147,-486
,1514,2023-10-27 12:26:55.63,113,-82,-2052,128,300,-145,467,542,-75,-504
,1515,2023-10-27 12:26:55.64,131,-78,-2066,144,299,-165,402,553,-151,-477
,1516,2023-10-27 12:26:55.65,118,-81,-2054,153,288,-186,472,548,-76,-510
,1517,2023-10-27 12:26:55.66,147,-78,-2066,162,280,-208,400,553,-153,-476
,1518,2023-10-27 12:26:55.67,154,-90,-2079,167,270,-224,484,557,-73,-520
,1519,2023-10-27 12:26:55.68,147,-107,-2054,172,254,-243,392,549,-157,-470
,1520,2023-10-27 12:26:55.69,164,-106,-2063,181,256,-262,488,564,-76,-526
,1521,2023-10-27 12:26:55.70,173,-121,-2060,191,244,-275,380,541,-161,-460
,1522,2023-10-27 12:26:55.71,172,-123,-2063,197,237,-285,487,576,-89,-531
,1523,2023-10-27 12:26:55.72,190,-138,-2062,203,228,-298,369,539,-170,-454
,1524,2023-10-27 12:26:55.73,191,-160,-2061,213,212,-304,486,588,-102,-537
,1525,2023-10-27 12:26:55.74,184,-162,-2070,224,201,-308,358,533,-175,-445
,1526,2023-10-27 12:26:55.75,193,-165,-2066,233,189,-308,488,586,-98,-537
,1527,2023-10-27 12:26:55.76,204,-173,-2070,235,173,-307,351,526,-175,-438
,1528,2023-10-27 12:26:55.77,203,-176,-2055,233,160,-305,487,587,-100,-537
,1529,2023-10-27 12:26:55.78,216,-179,-2057,233,161,-303,337,523,-186,-430
,1530,2023-10-27 12:26:55.79,220,-190,-2065,238,145,-299,485,590,-105,-537
,1531,2023-10-27 12:26:55.80,209,-197,-2058,234,132,-292,334,521,-187,-427
,1532,2023-10-27 12:26:55.81,223,-215,-2062,231,120,-285,491,601,-110,-546
,1533,2023-10-27 12:26:55.82,220,-213,-2054,224,105,-274,323,518,-195,-420
,1534,2023-10-27 12:26:55.83,227,-218,-2049,220,95,-264,490,604,-114,-547
