// Data mode  : Full
// Data quality  : High
// Acceleration sensor's range  : 16g
// Gyroscope sensor's range  : 2000dps
//
//ARTIFACT,NUM,DATE,ACC_X,ACC_Y,ACC_Z,GYRO_X,GYRO_Y,GYRO_Z,EOG_L,EOG_R,EOG_H,EOG_V
,1,2023-10-20 13:48:32.66,295,-381,-1990,78,-44,121,-250,-246,-4,248
,2,2023-10-20 13:48:32.67,293,-388,-1979,79,-38,121,-256,-292,36,274
,3,2023-10-20 13:48:32.68,296,-397,-1983,78,-31,118,-241,-218,-23,229
,4,2023-10-20 13:48:32.69,292,-380,-2008,79,-23,110,-258,-275,17,266
,5,2023-10-20 13:48:32.70,309,-389,-2003,74,-19,102,-236,-210,-26,223
,6,2023-10-20 13:48:32.71,292,-394,-1999,62,-8,93,-260,-277,17,268
,7,2023-10-20 13:48:32.72,309,-374,-2005,49,0,90,-228,-238,10,233
,8,2023-10-20 13:48:32.73,316,-363,-2015,35,-1,85,-260,-315,55,287
,9,2023-10-20 13:48:32.74,302,-370,-2022,25,-7,76,-236,-261,25,248
,10,2023-10-20 13:48:32.75,307,-354,-1994,16,-12,64,-265,-305,40,285
,11,2023-10-20 13:48:32.76,323,-365,-1999,8,-20,58,-225,-237,12,231
,12,2023-10-20 13:48:32.77,296,-371,-1988,12,-31,51,-273,-291,18,282
,13,2023-10-20 13:48:32.78,295,-370,-1996,10,-39,49,-224,-204,-20,214
,14,2023-10-20 13:48:32.79,283,-363,-2020,19,-46,49,-282,-250,-32,266
,15,2023-10-20 13:48:32.80,276,-364,-2004,25,-60,51,-220,-238,18,229
,16,2023-10-20 13:48:32.81,275,-360,-2005,25,-61,49,-286,-322,36,304
,17,2023-10-20 13:48:32.82,261,-375,-2014,16,-62,50,-211,-262,51,236
,18,2023-10-20 13:48:32.83,263,-368,-2004,15,-56,51,-286,-305,19,295
,19,2023-10-20 13:48:32.84,263,-385,-2012,14,-53,59,-209,-233,24,221
,20,2023-10-20 13:48:32.85,247,-386,-2003,11,-45,59,-304,-291,-13,297
,21,2023-10-20 13:48:32.86,239,-377,-2008,11,-25,57,-212,-237,25,224
,22,2023-10-20 13:48:32.87,239,-367,-2016,33,-8,50,-296,-295,-1,295
,23,2023-10-20 13:48:32.88,250,-323,-2011,71,7,14,-196,-260,64,228
,24,2023-10-20 13:48:32.89,237,-326,-1997,88,4,-26,-297,-327,30,312
,25,2023-10-20 13:48:32.90,256,-362,-2015,48,-21,-91,-196,-271,75,233
,26,2023-10-20 13:48:32.91,263,-406,-2013,23,-14,-92,-308,-312,4,310
,27,2023-10-20 13:48:32.92,279,-462,-2012,11,1,-61,-202,-252,50,227
,28,2023-10-20 13:48:32.93,277,-465,-2026,7,12,-19,-322,-308,-14,315
,29,2023-10-20 13:48:32.94,283,-443,-2012,13,14,10,-199,-261,62,230
,30,2023-10-20 13:48:32.95,288,-407,-2021,29,21,27,-323,-318,-5,320
,31,2023-10-20 13:48:32.96,277,-408,-2021,32,9,48,-192,-261,69,226
,32,2023-10-20 13:48:32.97,284,-386,-2022,27,-8,47,-318,-314,-4,316
,33,2023-10-20 13:48:32.98,278,-384,-2024,18,-24,36,-191,-268,77,229
,34,2023-10-20 13:48:32.99,278,-398,-2018,5,-38,31,-324,-318,-6,321
,35,2023-10-20 13:48:33.00,258,-394,-2022,-10,-44,37,-181,-283,102,232
,36,2023-10-20 13:48:33.01,265,-389,-2014,-13,-55,36,-331,-338,7,334
,37,2023-10-20 13:48:33.02,254,-396,-2005,-16,-71,24,-188,-287,99,237
,38,2023-10-20 13:48:33.03,274,-405,-2000,-21,-71,7,-337,-325,-12,331
,39,2023-10-20 13:48:33.04,248,-419,-1999,-25,-54,9,-178,-266,88,222
,40,2023-10-20 13:48:33.05,255,-416,-2020,-33,-38,29,-334,-312,-22,323
,41,2023-10-20 13:48:33.06,255,-393,-2003,-34,-33,36,-176,-287,111,231
,42,2023-10-20 13:48:33.07,257,-389,-2011,-34,-29,28,-350,-359,9,354
,43,2023-10-20 13:48:33.08,266,-397,-2014,-36,-22,38,-183,-289,106,236
,44,2023-10-20 13:48:33.09,277,-396,-2009,-36,-16,40,-344,-314,-30,329
,45,2023-10-20 13:48:33.10,256,-381,-2012,-24,-7,43,-178,-251,73,214
,46,2023-10-20 13:48:33.11,260,-368,-2018,-18,-6,51,-352,-300,-52,326
,47,2023-10-20 13:48:33.12,261,-367,-2024,-7,-12,46,-185,-270,85,227
,48,2023-10-20 13:48:33.13,256,-363,-2018,5,-15,28,-365,-319,-46,342
,49,2023-10-20 13:48:33.14,263,-357,-2006,18,-18,16,-180,-261,81,220
,50,2023-10-20 13:48:33.15,271,-368,-2001,25,-18,1,-367,-304,-63,335
,51,2023-10-20 13:48:33.16,255,-386,-1995,23,-10,-9,-164,-260,96,212
,52,2023-10-20 13:48:33.17,249,-377,-1994,29,-4,-11,-355,-315,-40,335
,53,2023-10-20 13:48:33.18,248,-380,-2011,39,0,-19,-170,-264,94,217
,54,2023-10-20 13:48:33.19,255,-385,-2014,32,1,-22,-369,-305,-64,337
,55,2023-10-20 13:48:33.20,256,-381,-2020,23,6,-28,-170,-270,100,220
,56,2023-10-20 13:48:33.21,253,-367,-2018,21,12,-36,-365,-320,-45,342
,57,2023-10-20 13:48:33.22,252,-379,-2023,12,22,-38,-174,-273,99,223
,58,2023-10-20 13:48:33.23,261,-371,-2023,2,23,-39,-379,-310,-69,344
,59,2023-10-20 13:48:33.24,246,-365,-2008,-5,23,-41,-180,-276,96,228
,60,2023-10-20 13:48:33.25,267,-367,-2002,-10,23,-45,-384,-314,-70,349
,61,2023-10-20 13:48:33.26,269,-362,-2003,-15,25,-45,-177,-304,127,240
,62,2023-10-20 13:48:33.27,271,-367,-2001,-16,26,-46,-378,-341,-37,359
,63,2023-10-20 13:48:33.28,274,-371,-2011,-16,29,-48,-166,-314,148,240
,64,2023-10-20 13:48:33.29,269,-368,-2016,-20,26,-47,-378,-333,-45,355
,65,2023-10-20 13:48:33.30,269,-378,-2020,-22,22,-47,-166,-280,114,223
,66,2023-10-20 13:48:33.31,269,-373,-2027,-28,18,-45,-380,-301,-79,340
,67,2023-10-20 13:48:33.32,280,-365,-2025,-25,13,-43,-165,-269,104,217
,68,2023-10-20 13:48:33.33,274,-368,-2017,-24,15,-44,-379,-306,-73,342
,69,2023-10-20 13:48:33.34,271,-363,-2011,-20,11,-42,-157,-280,123,218
,70,2023-10-20 13:48:33.35,275,-363,-2003,-21,13,-44,-371,-307,-64,339
,71,2023-10-20 13:48:33.36,275,-371,-2015,-19,7,-38,-162,-258,96,210
,72,2023-10-20 13:48:33.37,278,-377,-2022,-15,9,-35,-385,-281,-104,333
,73,2023-10-20 13:48:33.38,294,-372,-2006,-9,7,-38,-167,-264,97,215
,74,2023-10-20 13:48:33.39,278,-391,-2014,-20,11,-28,-381,-298,-83,339
,75,2023-10-20 13:48:33.40,281,-371,-2005,-23,19,-19,-165,-284,119,224
,76,2023-10-20 13:48:33.41,269,-379,-2023,-18,22,-13,-388,-302,-86,345
,77,2023-10-20 13:48:33.42,259,-367,-2039,-11,27,-3,-171,-285,114,228
,78,2023-10-20 13:48:33.43,276,-323,-2029,19,19,-28,-388,-320,-68,354
,79,2023-10-20 13:48:33.44,260,-344,-2002,41,9,-64,-157,-441,284,299
,80,2023-10-20 13:48:33.45,274,-341,-1982,62,13,-98,-379,-460,81,419
,81,2023-10-20 13:48:33.46,272,-340,-1981,71,15,-123,-162,-460,298,311
,82,2023-10-20 13:48:33.47,274,-353,-1989,59,19,-135,-382,-415,33,398
,83,2023-10-20 13:48:33.48,274,-375,-2006,27,28,-139,-172,-480,308,326
,84,2023-10-20 13:48:33.49,290,-385,-2016,-5,32,-135,-387,-462,75,424
,85,2023-10-20 13:48:33.50,296,-406,-2015,-32,44,-116,-168,-466,298,317
,86,2023-10-20 13:48:33.51,303,-432,-2019,-50,58,-86,-384,-410,26,397
,87,2023-10-20 13:48:33.52,304,-417,-2020,-44,65,-50,-170,-474,304,322
,88,2023-10-20 13:48:33.53,302,-389,-2023,-30,66,-21,-388,-456,68,422
,89,2023-10-20 13:48:33.54,319,-362,-2029,-34,62,-3,-169,-459,290,314
,90,2023-10-20 13:48:33.55,301,-349,-2041,-34,50,-1,-378,-401,23,389
,91,2023-10-20 13:48:33.56,306,-339,-2033,-34,34,-12,-176,-439,263,307
,92,2023-10-20 13:48:33.57,310,-327,-2027,-36,22,-23,-379,-408,29,393
,93,2023-10-20 13:48:33.58,304,-328,-2027,-26,16,-38,-183,-455,272,319
,94,2023-10-20 13:48:33.59,297,-328,-2028,-23,14,-51,-390,-411,21,400
,95,2023-10-20 13:48:33.60,297,-329,-2022,-11,6,-74,-175,-446,271,310
,96,2023-10-20 13:48:33.61,283,-333,-2009,-2,-5,-104,-371,-420,49,395
,97,2023-10-20 13:48:33.62,305,-347,-2001,-13,-11,-122,-169,-563,394,366
,98,2023-10-20 13:48:33.63,310,-353,-2000,-31,-7,-132,-374,-518,144,446
,99,2023-10-20 13:48:33.64,282,-364,-2006,-44,0,-130,-178,-506,328,342
,100,2023-10-20 13:48:33.65,291,-364,-2016,-57,11,-112,-372,-360,-12,366
,101,2023-10-20 13:48:33.66,300,-369,-2017,-69,19,-91,-175,-183,8,179
,102,2023-10-20 13:48:33.67,303,-374,-2011,-78,25,-73,-362,-129,-233,245
,103,2023-10-20 13:48:33.68,305,-378,-2014,-78,30,-50,-174,-142,-32,158
,104,2023-10-20 13:48:33.69,315,-388,-2014,-77,29,-26,-356,-176,-180,266
,105,2023-10-20 13:48:33.70,313,-371,-2019,-68,26,-5,-165,-185,20,175
,106,2023-10-20 13:48:33.71,315,-361,-2035,-52,29,15,-349,-179,-170,264
,107,2023-10-20 13:48:33.72,303,-325,-2036,-22,26,17,-164,-157,-7,160
,108,2023-10-20 13:48:33.73,322,-299,-2026,15,14,2,-342,-197,-145,269
,109,2023-10-20 13:48:33.74,303,-273,-2048,21,-7,-15,-172,-336,164,254
,110,2023-10-20 13:48:33.75,322,-320,-2017,16,-18,-39,-347,-331,-16,339
,111,2023-10-20 13:48:33.76,329,-351,-2010,17,-33,-45,-176,-313,137,244
,112,2023-10-20 13:48:33.77,307,-369,-2019,16,-33,-30,-335,-261,-74,298
,113,2023-10-20 13:48:33.78,297,-357,-2016,20,-33,-11,-169,-294,125,231
,114,2023-10-20 13:48:33.79,289,-346,-2023,26,-31,5,-331,-275,-56,303
,115,2023-10-20 13:48:33.80,300,-348,-2004,25,-31,11,-186,-321,135,253
,116,2023-10-20 13:48:33.81,293,-350,-1999,30,-28,14,-334,-278,-56,306
,117,2023-10-20 13:48:33.82,296,-363,-1996,32,-24,19,-181,-309,128,245
,118,2023-10-20 13:48:33.83,284,-357,-2012,33,-16,26,-326,-264,-62,295
,119,2023-10-20 13:48:33.84,286,-351,-2027,26,-6,34,-194,-288,94,241
,120,2023-10-20 13:48:33.85,293,-353,-2023,11,0,36,-331,-247,-84,289
,121,2023-10-20 13:48:33.86,288,-350,-2019,-6,14,39,-203,-287,84,245
,122,2023-10-20 13:48:33.87,294,-342,-2011,-18,29,43,-327,-249,-78,288
,123,2023-10-20 13:48:33.88,289,-326,-2006,-30,40,38,-192,-281,89,236
,124,2023-10-20 13:48:33.89,305,-315,-2004,-44,44,29,-315,-250,-65,282
,125,2023-10-20 13:48:33.90,305,-311,-2012,-58,48,19,-199,-311,112,255
,126,2023-10-20 13:48:33.91,322,-307,-2009,-66,44,8,-310,-287,-23,298
,127,2023-10-20 13:48:33.92,314,-299,-2018,-70,36,2,-204,-359,155,281
,128,2023-10-20 13:48:33.93,306,-310,-2016,-75,26,-4,-305,-306,1,305
,129,2023-10-20 13:48:33.94,315,-305,-2029,-73,20,-7,-208,-372,164,290
,130,2023-10-20 13:48:33.95,315,-294,-2019,-65,14,-8,-299,-290,-9,294
,131,2023-10-20 13:48:33.96,316,-302,-2009,-59,9,-13,-206,-327,121,266
,132,2023-10-20 13:48:33.97,310,-326,-2023,-62,5,-4,-299,-267,-32,283
,133,2023-10-20 13:48:33.98,310,-295,-2033,-46,3,-6,-212,-336,124,274
,134,2023-10-20 13:48:33.99,292,-310,-2038,-35,3,5,-294,-263,-31,278
,135,2023-10-20 13:48:34.00,292,-256,-2016,-1,7,-18,-216,-304,88,260
,136,2023-10-20 13:48:34.01,293,-262,-2008,35,-1,-57,-291,-255,-36,273
,137,2023-10-20 13:48:34.02,290,-283,-1998,43,-2,-89,-219,-323,104,271
,138,2023-10-20 13:48:34.03,296,-312,-2007,34,0,-103,-272,-276,4,274
,139,2023-10-20 13:48:34.04,286,-314,-2015,27,8,-104,-203,-343,140,273
,140,2023-10-20 13:48:34.05,314,-324,-2010,5,18,-91,-266,-270,4,268
,141,2023-10-20 13:48:34.06,306,-333,-2016,-27,27,-65,-223,-328,105,275
,142,2023-10-20 13:48:34.07,320,-342,-2019,-55,31,-40,-280,-281,1,280
,143,2023-10-20 13:48:34.08,324,-352,-2039,-68,43,-7,-242,-360,118,301
,144,2023-10-20 13:48:34.09,319,-336,-2038,-56,51,28,-281,-300,19,290
,145,2023-10-20 13:48:34.10,320,-298,-2022,-40,49,50,-243,-348,105,295
,146,2023-10-20 13:48:34.11,336,-278,-2024,-31,43,48,-264,-265,1,264
,147,2023-10-20 13:48:34.12,323,-269,-2030,-18,26,34,-228,-322,94,275
,148,2023-10-20 13:48:34.13,331,-279,-2031,0,11,17,-253,-262,9,257
,149,2023-10-20 13:48:34.14,323,-294,-2033,9,1,3,-233,-331,98,282
,150,2023-10-20 13:48:34.15,327,-300,-2028,25,-3,-8,-250,-271,21,260
,151,2023-10-20 13:48:34.16,320,-311,-2021,34,-2,-15,-234,-326,92,280
,152,2023-10-20 13:48:34.17,313,-326,-2019,28,-5,-10,-250,-256,6,253
,153,2023-10-20 13:48:34.18,308,-325,-2029,16,3,7,-254,-314,60,284
,154,2023-10-20 13:48:34.19,306,-314,-2030,-6,-6,22,-244,-264,20,254
,155,2023-10-20 13:48:34.20,307,-294,-2025,-31,-11,22,-243,-331,88,287
,156,2023-10-20 13:48:34.21,321,-297,-2024,-56,-15,21,-228,-262,34,245
,157,2023-10-20 13:48:34.22,305,-310,-2023,-71,-17,23,-247,-318,71,282
,158,2023-10-20 13:48:34.23,305,-289,-2021,-75,-14,32,-229,-275,46,252
,159,2023-10-20 13:48:34.24,309,-297,-2017,-63,-9,42,-256,-354,98,305
,160,2023-10-20 13:48:34.25,301,-272,-2026,-35,-16,38,-226,-255,29,240
,161,2023-10-20 13:48:34.26,296,-280,-2035,-5,-21,25,-261,-282,21,271
,162,2023-10-20 13:48:34.27,292,-280,-2025,29,-25,13,-230,-229,-1,229
,163,2023-10-20 13:48:34.28,302,-274,-2015,60,-29,0,-269,-304,35,286
,164,2023-10-20 13:48:34.29,289,-285,-2021,75,-24,-10,-228,-247,19,237
,165,2023-10-20 13:48:34.30,289,-304,-2027,74,-22,-14,-271,-306,35,288
,166,2023-10-20 13:48:34.31,285,-324,-2029,56,-18,-3,-218,-240,22,229
,167,2023-10-20 13:48:34.32,278,-321,-2033,31,-17,9,-277,-290,13,283
,168,2023-10-20 13:48:34.33,273,-312,-2022,12,-16,24,-218,-234,16,226
,169,2023-10-20 13:48:34.34,288,-309,-2019,-5,-14,38,-285,-301,16,293
,170,2023-10-20 13:48:34.35,273,-294,-2000,-13,-9,43,-219,-268,49,243
,171,2023-10-20 13:48:34.36,290,-293,-2004,-16,1,43,-288,-333,45,310
,172,2023-10-20 13:48:34.37,293,-291,-2006,-17,11,45,-207,-256,49,231
,173,2023-10-20 13:48:34.38,298,-293,-2009,-2,11,37,-283,-294,11,288
,174,2023-10-20 13:48:34.39,299,-295,-2014,9,16,23,-203,-251,48,227
,175,2023-10-20 13:48:34.40,303,-295,-2027,17,19,12,-298,-317,19,307
,176,2023-10-20 13:48:34.41,308,-293,-2038,23,17,1,-204,-248,44,226
,177,2023-10-20 13:48:34.42,305,-292,-2046,27,12,-10,-308,-294,-14,301
,178,2023-10-20 13:48:34.43,296,-297,-2029,28,6,-17,-200,-216,16,208
,179,2023-10-20 13:48:34.44,302,-299,-2029,18,1,-18,-302,-269,-33,285
,180,2023-10-20 13:48:34.45,296,-312,-2025,7,-2,-19,-195,-237,42,216
,181,2023-10-20 13:48:34.46,302,-316,-2020,-2,-4,-14,-311,-303,-8,307
,182,2023-10-20 13:48:34.47,297,-307,-2008,-12,0,-11,-188,-235,47,211
,183,2023-10-20 13:48:34.48,315,-293,-2009,-19,5,-10,-304,-288,-16,296
,184,2023-10-20 13:48:34.49,303,-291,-2007,-25,12,-16,-181,-225,44,203
,185,2023-10-20 13:48:34.50,307,-301,-2019,-34,17,-11,-315,-276,-39,295
,186,2023-10-20 13:48:34.51,298,-298,-2006,-39,22,-7,-190,-246,56,218
,187,2023-10-20 13:48:34.52,319,-296,-2016,-36,20,-2,-334,-310,-24,322
,188,2023-10-20 13:48:34.53,312,-300,-2013,-28,22,3,-195,-266,71,230
,189,2023-10-20 13:48:34.54,340,-304,-2008,-21,22,9,-337,-322,-15,329
,190,2023-10-20 13:48:34.55,316,-313,-2025,-17,29,19,-192,-238,46,215
,191,2023-10-20 13:48:34.56,318,-295,-2040,-4,32,28,-340,-272,-68,306
,192,2023-10-20 13:48:34.57,301,-258,-2032,34,34,13,-189,-233,44,211
,193,2023-10-20 13:48:34.58,302,-245,-2022,73,25,-16,-342,-300,-42,321
,194,2023-10-20 13:48:34.59,315,-248,-2004,77,7,-44,-176,-251,75,213
,195,2023-10-20 13:48:34.60,326,-276,-2015,58,-9,-78,-337,-295,-42,316
,196,2023-10-20 13:48:34.61,334,-283,-2016,39,-20,-108,-171,-233,62,202
,197,2023-10-20 13:48:34.62,325,-311,-2020,20,-19,-98,-343,-283,-60,313
,198,2023-10-20 13:48:34.63,337,-355,-2012,-12,-1,-64,-184,-239,55,211
,199,2023-10-20 13:48:34.64,326,-348,-2027,-29,24,-23,-355,-284,-71,319
,200,2023-10-20 13:48:34.65,324,-344,-2021,-32,34,20,-166,-197,31,181
,201,2023-10-20 13:48:34.66,339,-323,-2038,-26,37,55,-340,-241,-99,290
,202,2023-10-20 13:48:34.67,347,-286,-2029,-20,29,68,-160,-241,81,200
,203,2023-10-20 13:48:34.68,341,-275,-2031,-15,22,70,-358,-309,-49,333
,204,2023-10-20 13:48:34.69,329,-271,-2033,-9,9,65,-175,-229,54,202
,205,2023-10-20 13:48:34.70,340,-261,-2024,1,-6,57,-372,-256,-116,314
,206,2023-10-20 13:48:34.71,324,-274,-2015,5,-15,43,-172,-243,71,207
,207,2023-10-20 13:48:34.72,326,-289,-2010,7,-15,34,-358,-311,-47,334
,208,2023-10-20 13:48:34.73,318,-275,-2016,10,-10,33,-159,-262,103,210
,209,2023-10-20 13:48:34.74,315,-280,-2019,18,-4,24,-360,-292,-68,326
,210,2023-10-20 13:48:34.75,318,-282,-2019,21,4,15,-157,-235,78,196
,211,2023-10-20 13:48:34.76,303,-283,-2029,19,4,9,-359,-281,-78,320
,212,2023-10-20 13:48:34.77,285,-275,-2036,21,6,-2,-157,-256,99,206
,213,2023-10-20 13:48:34.78,288,-282,-2035,28,6,-8,-366,-305,-61,335
,214,2023-10-20 13:48:34.79,274,-285,-2028,29,8,-15,-160,-250,90,205
,215,2023-10-20 13:48:34.80,285,-301,-2034,26,14,-18,-368,-288,-80,328
,216,2023-10-20 13:48:34.81,291,-295,-2017,17,16,-15,-153,-268,115,210
,217,2023-10-20 13:48:34.82,304,-288,-2005,13,19,-17,-358,-310,-48,334
,218,2023-10-20 13:48:34.83,294,-281,-2003,6,23,-23,-146,-259,113,202
,219,2023-10-20 13:48:34.84,304,-274,-2009,-5,29,-29,-362,-282,-80,322
,220,2023-10-20 13:48:34.85,323,-271,-2012,-7,32,-30,-154,-219,65,186
,221,2023-10-20 13:48:34.86,319,-271,-2010,-7,25,-30,-370,-251,-119,310
,222,2023-10-20 13:48:34.87,326,-294,-2031,-17,17,-32,-147,-248,101,197
,223,2023-10-20 13:48:34.88,314,-301,-2045,-19,11,-27,-361,-302,-59,331
,224,2023-10-20 13:48:34.89,327,-298,-2047,-15,1,-19,-144,-269,125,206
,225,2023-10-20 13:48:34.90,312,-303,-2039,-1,-3,-9,-361,-284,-77,322
,226,2023-10-20 13:48:34.91,320,-295,-2029,11,-12,1,-147,-235,88,191
,227,2023-10-20 13:48:34.92,309,-281,-2022,18,-17,0,-367,-263,-104,315
,228,2023-10-20 13:48:34.93,320,-290,-2032,24,-9,3,-145,-224,79,184
,229,2023-10-20 13:48:34.94,314,-278,-2020,35,-2,4,-365,-261,-104,313
,230,2023-10-20 13:48:34.95,332,-287,-2016,38,7,-5,-143,-223,80,183
,231,2023-10-20 13:48:34.96,307,-289,-2009,40,18,-9,-363,-253,-110,308
,232,2023-10-20 13:48:34.97,318,-286,-2015,55,19,-17,-148,-249,101,198
,233,2023-10-20 13:48:34.98,305,-296,-2022,55,16,-19,-368,-277,-91,322
,234,2023-10-20 13:48:34.99,301,-297,-2025,49,15,-15,-147,-235,88,191
,235,2023-10-20 13:48:35.00,314,-289,-2023,56,12,-15,-368,-258,-110,313
,236,2023-10-20 13:48:35.01,301,-292,-2013,50,6,-9,-146,-241,95,193
,237,2023-10-20 13:48:35.02,303,-286,-2012,36,12,-5,-364,-257,-107,310
,238,2023-10-20 13:48:35.03,307,-289,-2021,19,15,3,-150,-190,40,170
,239,2023-10-20 13:48:35.04,304,-299,-2019,14,10,13,-369,-204,-165,286
,240,2023-10-20 13:48:35.05,306,-281,-2021,11,7,13,-155,-205,50,180
,241,2023-10-20 13:48:35.06,300,-283,-2007,8,8,7,-366,-242,-124,304
,242,2023-10-20 13:48:35.07,311,-271,-2011,9,9,0,-153,-232,79,192
,243,2023-10-20 13:48:35.08,307,-282,-2015,15,8,-6,-363,-246,-117,304
,244,2023-10-20 13:48:35.09,307,-286,-2020,16,9,-15,-147,-246,99,196
,245,2023-10-20 13:48:35.10,321,-284,-2020,16,16,-16,-362,-266,-96,314
,246,2023-10-20 13:48:35.11,320,-292,-2023,20,24,-14,-154,-260,106,207
,247,2023-10-20 13:48:35.12,320,-293,-2019,29,23,-14,-353,-255,-98,304
,248,2023-10-20 13:48:35.13,325,-282,-2016,28,22,-16,-152,-244,92,198
,249,2023-10-20 13:48:35.14,315,-282,-2013,32,24,-19,-354,-242,-112,298
,250,2023-10-20 13:48:35.15,338,-293,-2014,34,22,-16,-154,-255,101,204
,251,2023-10-20 13:48:35.16,339,-290,-2019,37,23,-18,-355,-249,-106,302
,252,2023-10-20 13:48:35.17,328,-288,-2020,36,17,-19,-157,-244,87,200
,253,2023-10-20 13:48:35.18,338,-291,-2026,31,21,-20,-356,-239,-117,297
,254,2023-10-20 13:48:35.19,343,-289,-2037,19,20,-16,-158,-246,88,202
,255,2023-10-20 13:48:35.20,336,-297,-2040,16,17,-11,-353,-245,-108,299
,256,2023-10-20 13:48:35.21,340,-293,-2025,16,8,-12,-153,-220,67,186
,257,2023-10-20 13:48:35.22,345,-294,-2021,11,1,-11,-342,-219,-123,280
,258,2023-10-20 13:48:35.23,344,-291,-2018,7,2,-6,-161,-243,82,202
,259,2023-10-20 13:48:35.24,338,-291,-2013,2,2,-4,-346,-222,-124,284
,260,2023-10-20 13:48:35.25,335,-293,-2026,-6,0,4,-165,-207,42,186
,261,2023-10-20 13:48:35.26,337,-293,-2030,-10,-1,9,-340,-188,-152,264
,262,2023-10-20 13:48:35.27,324,-299,-2031,-12,-7,15,-164,-203,39,183
,263,2023-10-20 13:48:35.28,326,-298,-2041,-21,-12,25,-339,-222,-117,280
,264,2023-10-20 13:48:35.29,323,-280,-2042,-21,-16,32,-169,-265,96,217
,265,2023-10-20 13:48:35.30,320,-280,-2059,-16,-20,37,-339,-225,-114,282
,266,2023-10-20 13:48:35.31,298,-231,-2025,5,-20,23,-170,-193,23,181
,267,2023-10-20 13:48:35.32,314,-223,-1988,37,-28,-20,-329,-165,-164,247
,268,2023-10-20 13:48:35.33,306,-263,-1994,35,-35,-49,-177,-191,14,184
,269,2023-10-20 13:48:35.34,312,-279,-1990,24,-30,-55,-330,-205,-125,267
,270,2023-10-20 13:48:35.35,320,-311,-2001,11,-22,-54,-176,-260,84,218
,271,2023-10-20 13:48:35.36,317,-321,-2007,-13,-4,-35,-320,-222,-98,271
,272,2023-10-20 13:48:35.37,330,-327,-2014,-27,13,4,-172,-235,63,203
,273,2023-10-20 13:48:35.38,335,-316,-2029,-19,24,33,-315,-197,-118,256
,274,2023-10-20 13:48:35.39,335,-306,-2042,-1,30,58,-178,-230,52,204
,275,2023-10-20 13:48:35.40,332,-277,-2030,15,27,78,-312,-199,-113,255
,276,2023-10-20 13:48:35.41,331,-271,-2020,26,13,70,-178,-219,41,198
,277,2023-10-20 13:48:35.42,334,-271,-2029,23,0,64,-301,-195,-106,248
,278,2023-10-20 13:48:35.43,324,-278,-2030,22,-4,61,-172,-234,62,203
,279,2023-10-20 13:48:35.44,332,-274,-2027,27,-10,58,-295,-193,-102,244
,280,2023-10-20 13:48:35.45,341,-275,-2025,24,-16,51,-185,-224,39,204
,281,2023-10-20 13:48:35.46,327,-278,-2025,19,-19,45,-297,-192,-105,244
,282,2023-10-20 13:48:35.47,332,-273,-2022,22,-19,32,-190,-245,55,217
,283,2023-10-20 13:48:35.48,321,-292,-2027,20,-18,24,-293,-208,-85,250
,284,2023-10-20 13:48:35.49,320,-296,-2025,24,-15,25,-183,-244,61,213
,285,2023-10-20 13:48:35.50,315,-292,-2024,33,-11,21,-292,-202,-90,247
,286,2023-10-20 13:48:35.51,311,-269,-2017,48,-14,17,-202,-239,37,220
,287,2023-10-20 13:48:35.52,310,-277,-2015,55,-13,3,-294,-200,-94,247
,288,2023-10-20 13:48:35.53,320,-287,-2018,49,-6,-2,-194,-246,52,220
,289,2023-10-20 13:48:35.54,305,-305,-2016,44,-4,-2,-270,-214,-56,242
,290,2023-10-20 13:48:35.55,292,-300,-2024,40,-2,0,-190,-265,75,227
,291,2023-10-20 13:48:35.56,318,-302,-2020,34,-2,4,-268,-219,-49,243
,292,2023-10-20 13:48:35.57,308,-302,-2029,30,-2,5,-202,-269,67,235
,293,2023-10-20 13:48:35.58,311,-284,-2026,31,-4,5,-274,-218,-56,246
,294,2023-10-20 13:48:35.59,317,-280,-2023,36,-6,1,-221,-270,49,245
,295,2023-10-20 13:48:35.60,309,-284,-2024,34,-9,-9,-276,-224,-52,250
,296,2023-10-20 13:48:35.61,316,-298,-2030,32,-12,-12,-217,-291,74,254
,297,2023-10-20 13:48:35.62,300,-299,-2017,30,-15,-15,-264,-220,-44,242
,298,2023-10-20 13:48:35.63,306,-317,-2020,23,-11,-8,-227,-255,28,241
,299,2023-10-20 13:48:35.64,291,-322,-2030,11,-1,13,-263,-203,-60,233
,300,2023-10-20 13:48:35.65,299,-307,-2024,-7,8,36,-229,-276,47,252
,301,2023-10-20 13:48:35.66,307,-301,-2029,-21,13,51,-258,-215,-43,236
,302,2023-10-20 13:48:35.67,312,-290,-2017,-27,14,61,-234,-266,32,250
,303,2023-10-20 13:48:35.68,316,-286,-2014,-27,12,63,-257,-207,-50,232
,304,2023-10-20 13:48:35.69,323,-282,-2024,-16,14,62,-238,-268,30,253
,305,2023-10-20 13:48:35.70,318,-280,-2011,-9,15,59,-248,-203,-45,225
,306,2023-10-20 13:48:35.71,329,-272,-2017,2,13,45,-238,-257,19,247
,307,2023-10-20 13:48:35.72,325,-282,-2015,11,16,35,-244,-196,-48,220
,308,2023-10-20 13:48:35.73,318,-272,-2020,14,20,26,-250,-256,6,253
,309,2023-10-20 13:48:35.74,320,-280,-2022,16,17,22,-244,-204,-40,224
,310,2023-10-20 13:48:35.75,320,-279,-2015,18,18,22,-249,-264,15,256
,311,2023-10-20 13:48:35.76,328,-283,-2019,21,18,19,-234,-222,-12,228
,312,2023-10-20 13:48:35.77,321,-282,-2014,18,15,14,-243,-299,56,271
,313,2023-10-20 13:48:35.78,317,-282,-2013,17,19,12,-220,-244,24,232
,314,2023-10-20 13:48:35.79,341,-288,-2011,15,15,9,-244,-297,53,270
,315,2023-10-20 13:48:35.80,345,-290,-2020,10,22,10,-222,-240,18,231
,316,2023-10-20 13:48:35.81,339,-288,-2030,12,19,14,-267,-304,37,285
,317,2023-10-20 13:48:35.82,330,-280,-2039,14,17,15,-230,-227,-3,228
,318,2023-10-20 13:48:35.83,330,-288,-2036,16,11,19,-269,-274,5,271
,319,2023-10-20 13:48:35.84,321,-285,-2037,14,3,23,-213,-219,6,216
,320,2023-10-20 13:48:35.85,329,-291,-2038,14,-1,31,-263,-282,19,272
,321,2023-10-20 13:48:35.86,330,-285,-2039,12,-7,37,-211,-215,4,213
,322,2023-10-20 13:48:35.87,331,-285,-2026,11,-12,38,-277,-272,-5,274
,323,2023-10-20 13:48:35.88,340,-291,-2022,10,-13,37,-222,-230,8,226
,324,2023-10-20 13:48:35.89,327,-293,-2020,13,-16,40,-289,-299,10,294
,325,2023-10-20 13:48:35.90,333,-294,-2018,15,-16,46,-201,-228,27,214
,326,2023-10-20 13:48:35.91,307,-290,-2020,18,-9,52,-282,-272,-10,277
,327,2023-10-20 13:48:35.92,319,-286,-2029,25,-7,55,-199,-193,-6,196
,328,2023-10-20 13:48:35.93,321,-278,-2019,28,-4,53,-298,-257,-41,277
,329,2023-10-20 13:48:35.94,308,-285,-2019,33,-5,53,-198,-186,-12,192
,330,2023-10-20 13:48:35.95,312,-279,-2020,40,-9,52,-294,-248,-46,271
,331,2023-10-20 13:48:35.96,313,-277,-2023,42,-7,51,-201,-219,18,210
,332,2023-10-20 13:48:35.97,316,-283,-2015,45,-4,46,-319,-307,-12,313
,333,2023-10-20 13:48:35.98,317,-291,-2024,43,-5,46,-222,-271,49,246
,334,2023-10-20 13:48:35.99,305,-294,-2028,39,-4,44,-340,-335,-5,337
,335,2023-10-20 13:48:36.00,302,-295,-2028,33,-5,45,-216,-252,36,234
,336,2023-10-20 13:48:36.01,319,-298,-2033,28,-8,50,-326,-299,-27,312
,337,2023-10-20 13:48:36.02,286,-303,-2025,25,-13,52,-209,-244,35,226
,338,2023-10-20 13:48:36.03,300,-309,-2009,25,-12,53,-334,-305,-29,319
,339,2023-10-20 13:48:36.04,311,-308,-2016,20,-8,57,-208,-262,54,235
,340,2023-10-20 13:48:36.05,301,-306,-2012,17,-7,64,-341,-320,-21,330
,341,2023-10-20 13:48:36.06,298,-299,-2018,17,-8,64,-200,-233,33,216
,342,2023-10-20 13:48:36.07,308,-296,-2013,10,-6,64,-339,-277,-62,308
,343,2023-10-20 13:48:36.08,298,-284,-2021,2,-1,63,-194,-285,91,239
,344,2023-10-20 13:48:36.09,313,-286,-2027,-2,2,60,-340,-373,33,356
,345,2023-10-20 13:48:36.10,315,-278,-2030,-1,-4,48,-198,-346,148,272
,346,2023-10-20 13:48:36.11,303,-286,-2028,-8,-1,46,-356,-379,23,367
,347,2023-10-20 13:48:36.12,310,-297,-2047,-9,-1,51,-199,-304,105,251
,348,2023-10-20 13:48:36.13,320,-259,-2035,16,-3,32,-355,-330,-25,342
,349,2023-10-20 13:48:36.14,301,-263,-2013,46,-4,-8,-191,-276,85,233
,350,2023-10-20 13:48:36.15,294,-275,-2011,51,-8,-26,-354,-323,-31,338
,351,2023-10-20 13:48:36.16,295,-290,-2015,41,-13,-33,-193,-294,101,243
,352,2023-10-20 13:48:36.17,304,-310,-2031,27,-22,-33,-364,-344,-20,354
,353,2023-10-20 13:48:36.18,290,-317,-2017,12,-29,-26,-191,-277,86,234
,354,2023-10-20 13:48:36.19,301,-331,-2001,-19,-25,-5,-369,-312,-57,340
,355,2023-10-20 13:48:36.20,303,-337,-2028,-50,-18,33,-190,-285,95,237
,356,2023-10-20 13:48:36.21,311,-314,-2020,-44,-5,54,-364,-336,-28,350
,357,2023-10-20 13:48:36.22,324,-291,-2018,-25,1,66,-181,-425,244,303
,358,2023-10-20 13:48:36.23,317,-291,-2028,-25,10,84,-368,-493,125,430
,359,2023-10-20 13:48:36.24,311,-278,-2036,-23,13,86,-183,-567,384,375
,360,2023-10-20 13:48:36.25,311,-261,-2023,-5,1,70,-381,-580,199,480
,361,2023-10-20 13:48:36.26,321,-291,-2028,1,-14,59,-184,-279,95,231
,362,2023-10-20 13:48:36.27,323,-288,-2031,-3,-16,64,-367,-178,-189,272
,363,2023-10-20 13:48:36.28,308,-291,-2040,-2,-10,70,-168,-107,-61,137
,364,2023-10-20 13:48:36.29,309,-276,-2040,15,-9,69,-365,-217,-148,291
,365,2023-10-20 13:48:36.30,284,-260,-2024,35,-17,68,-170,-204,34,187
,366,2023-10-20 13:48:36.31,298,-261,-2014,54,-20,54,-366,-261,-105,313
,367,2023-10-20 13:48:36.32,300,-268,-2015,65,-18,37,-160,-167,7,163
,368,2023-10-20 13:48:36.33,294,-268,-2006,77,-15,22,-363,-210,-153,286
,369,2023-10-20 13:48:36.34,293,-290,-2012,80,-12,14,-167,-179,12,173
,370,2023-10-20 13:48:36.35,286,-293,-2022,69,-4,11,-370,-246,-124,308
,371,2023-10-20 13:48:36.36,290,-295,-2031,61,7,15,-157,-187,30,172
,372,2023-10-20 13:48:36.37,294,-303,-2011,54,7,14,-367,-237,-130,302
,373,2023-10-20 13:48:36.38,293,-306,-2022,37,10,24,-158,-199,41,178
,374,2023-10-20 13:48:36.39,291,-298,-2014,29,12,30,-370,-255,-115,312
,375,2023-10-20 13:48:36.40,300,-311,-2018,24,13,31,-159,-172,13,165
,376,2023-10-20 13:48:36.41,303,-304,-2027,18,13,37,-372,-216,-156,294
,377,2023-10-20 13:48:36.42,294,-292,-2030,14,12,45,-159,-195,36,177
,378,2023-10-20 13:48:36.43,310,-288,-2032,13,9,43,-373,-253,-120,313
,379,2023-10-20 13:48:36.44,302,-286,-2027,14,5,40,-152,-187,35,169
,380,2023-10-20 13:48:36.45,295,-297,-2033,15,2,41,-374,-228,-146,301
,381,2023-10-20 13:48:36.46,302,-295,-2027,14,0,40,-156,-165,9,160
,382,2023-10-20 13:48:36.47,302,-291,-2015,18,-3,43,-378,-220,-158,299
,383,2023-10-20 13:48:36.48,298,-294,-2017,18,0,42,-158,-178,20,168
,384,2023-10-20 13:48:36.49,287,-297,-2026,18,1,43,-374,-233,-141,303
,385,2023-10-20 13:48:36.50,307,-287,-2018,23,3,37,-160,-182,22,171
,386,2023-10-20 13:48:36.51,298,-291,-2018,27,4,31,-375,-228,-147,301
,387,2023-10-20 13:48:36.52,299,-294,-2021,33,2,25,-152,-174,22,163
,388,2023-10-20 13:48:36.53,315,-288,-2024,38,4,21,-368,-214,-154,291
,389,2023-10-20 13:48:36.54,300,-294,-2030,38,8,16,-152,-172,20,162
,390,2023-10-20 13:48:36.55,292,-294,-2023,40,8,13,-377,-215,-162,296
,391,2023-10-20 13:48:36.56,295,-296,-2030,45,10,12,-156,-171,15,163
,392,2023-10-20 13:48:36.57,295,-287,-2018,66,11,-2,-376,-210,-166,293
,393,2023-10-20 13:48:36.58,287,-283,-1995,99,11,-32,-152,-150,-2,151
,394,2023-10-20 13:48:36.59,296,-315,-1996,103,14,-38,-367,-187,-180,277
,395,2023-10-20 13:48:36.60,293,-298,-1990,89,24,-48,-157,-162,5,159
,396,2023-10-20 13:48:36.61,295,-323,-2001,69,22,-51,-372,-208,-164,290
,397,2023-10-20 13:48:36.62,304,-361,-2030,39,21,-35,-155,-195,40,175
,398,2023-10-20 13:48:36.63,304,-363,-2038,11,27,-10,-368,-220,-148,294
,399,2023-10-20 13:48:36.64,307,-360,-2034,-1,34,16,-149,-182,33,165
,400,2023-10-20 13:48:36.65,323,-346,-2039,-10,43,43,-360,-208,-152,284
,401,2023-10-20 13:48:36.66,322,-327,-2029,-5,43,58,-154,-185,31,169
,402,2023-10-20 13:48:36.67,326,-311,-2028,2,38,64,-365,-205,-160,285
,403,2023-10-20 13:48:36.68,330,-300,-2017,1,27,56,-164,-172,8,168
,404,2023-10-20 13:48:36.69,326,-301,-2025,0,15,53,-363,-189,-174,276
,405,2023-10-20 13:48:36.70,300,-310,-2022,2,7,49,-151,-180,29,165
,406,2023-10-20 13:48:36.71,318,-302,-2012,12,2,38,-353,-202,-151,277
,407,2023-10-20 13:48:36.72,307,-309,-2019,11,1,26,-152,-180,28,166
,408,2023-10-20 13:48:36.73,315,-305,-2016,7,2,23,-355,-190,-165,272
,409,2023-10-20 13:48:36.74,305,-320,-2018,6,8,18,-159,-172,13,165
,410,2023-10-20 13:48:36.75,307,-328,-2027,5,15,25,-359,-190,-169,274
,411,2023-10-20 13:48:36.76,310,-309,-2027,1,19,32,-158,-184,26,171
,412,2023-10-20 13:48:36.77,307,-300,-2026,-2,18,31,-345,-198,-147,271
,413,2023-10-20 13:48:36.78,313,-315,-2025,-12,16,32,-163,-192,29,177
,414,2023-10-20 13:48:36.79,316,-319,-2035,-17,11,34,-349,-188,-161,268
,415,2023-10-20 13:48:36.80,313,-320,-2028,-17,3,29,-162,-176,14,169
,416,2023-10-20 13:48:36.81,327,-307,-2019,-25,5,35,-339,-173,-166,256
,417,2023-10-20 13:48:36.82,320,-309,-2025,-32,4,43,-165,-176,11,170
,418,2023-10-20 13:48:36.83,315,-299,-2040,-30,-1,44,-343,-175,-168,259
,419,2023-10-20 13:48:36.84,317,-297,-2032,-29,-3,46,-183,-180,-3,181
,420,2023-10-20 13:48:36.85,326,-278,-2032,-27,-7,47,-348,-174,-174,261
,421,2023-10-20 13:48:36.86,325,-276,-2030,-24,-10,43,-170,-180,10,175
,422,2023-10-20 13:48:36.87,319,-279,-2040,-20,-15,36,-322,-170,-152,246
,423,2023-10-20 13:48:36.88,303,-293,-2029,-17,-22,30,-175,-185,10,180
,424,2023-10-20 13:48:36.89,304,-286,-2002,-5,-26,26,-330,-171,-159,250
,425,2023-10-20 13:48:36.90,305,-300,-2014,3,-33,22,-176,-201,25,188
,426,2023-10-20 13:48:36.91,303,-303,-2022,2,-29,22,-322,-174,-148,248
,427,2023-10-20 13:48:36.92,309,-288,-2009,2,-28,28,-176,-190,14,183
,428,2023-10-20 13:48:36.93,308,-294,-2007,2,-24,36,-320,-164,-156,242
,429,2023-10-20 13:48:36.94,318,-303,-1999,9,-23,34,-208,-179,-29,193
,430,2023-10-20 13:48:36.95,311,-317,-2004,24,-15,29,-340,-176,-164,258
,431,2023-10-20 13:48:36.96,299,-316,-2045,27,-10,40,-253,-232,-21,242
,432,2023-10-20 13:48:36.97,291,-283,-2053,27,-10,43,-364,-259,-105,311
,433,2023-10-20 13:48:36.98,275,-276,-2068,17,-10,33,-208,-383,175,295
,434,2023-10-20 13:48:36.99,276,-280,-2059,7,-29,23,-304,-326,22,315
,435,2023-10-20 13:48:37.00,266,-304,-2025,4,-39,11,-193,-341,148,267
,436,2023-10-20 13:48:37.01,268,-331,-1998,8,-32,12,-311,-258,-53,284
,437,2023-10-20 13:48:37.02,257,-344,-1999,21,-18,23,-205,-292,87,248
,438,2023-10-20 13:48:37.03,256,-336,-1995,32,-9,36,-302,-240,-62,271
,439,2023-10-20 13:48:37.04,263,-314,-2020,23,12,57,-196,-280,84,238
,440,2023-10-20 13:48:37.05,264,-300,-2042,10,22,68,-296,-215,-81,255
,441,2023-10-20 13:48:37.06,279,-294,-2030,1,26,63,-212,-238,26,225
,442,2023-10-20 13:48:37.07,313,-315,-1958,-3,31,54,-301,-212,-89,256
,443,2023-10-20 13:48:37.08,298,-307,-2040,2,32,45,-211,-302,91,256
,444,2023-10-20 13:48:37.09,322,-268,-2026,-10,35,43,-287,-243,-44,265
,445,2023-10-20 13:48:37.10,334,-260,-2026,-17,40,33,-224,-264,40,244
,446,2023-10-20 13:48:37.11,342,-276,-2030,-26,37,24,-292,-207,-85,249
,447,2023-10-20 13:48:37.12,333,-272,-2027,-33,33,20,-221,-268,47,244
,448,2023-10-20 13:48:37.13,335,-281,-2019,-42,32,29,-270,-189,-81,229
,449,2023-10-20 13:48:37.14,326,-289,-2041,-38,9,42,-220,-236,16,228
,450,2023-10-20 13:48:37.15,318,-265,-2052,-31,-24,41,-279,-178,-101,228
,451,2023-10-20 13:48:37.16,325,-265,-2028,-38,-48,39,-243,-246,3,244
,452,2023-10-20 13:48:37.17,321,-272,-2034,-40,-52,44,-277,-207,-70,242
,453,2023-10-20 13:48:37.18,326,-272,-2043,-21,-53,49,-237,-279,42,258
,454,2023-10-20 13:48:37.19,308,-265,-2041,1,-55,43,-268,-199,-69,233
,455,2023-10-20 13:48:37.20,303,-253,-2041,14,-55,38,-228,-237,9,232
,456,2023-10-20 13:48:37.21,301,-241,-2017,23,-54,24,-254,-176,-78,215
,457,2023-10-20 13:48:37.22,300,-247,-2002,36,-53,-2,-233,-240,7,236
,458,2023-10-20 13:48:37.23,310,-267,-1997,53,-53,-25,-254,-197,-57,225
,459,2023-10-20 13:48:37.24,295,-289,-1987,70,-42,-39,-242,-269,27,255
,460,2023-10-20 13:48:37.25,293,-284,-1993,88,-34,-36,-249,-191,-58,220
,461,2023-10-20 13:48:37.26,287,-295,-2000,101,-27,-31,-241,-228,-13,234
,462,2023-10-20 13:48:37.27,280,-315,-2005,95,-21,-24,-244,-160,-84,202
,463,2023-10-20 13:48:37.28,284,-311,-2008,84,-12,-15,-245,-226,-19,235
,464,2023-10-20 13:48:37.29,285,-328,-2010,78,-1,2,-249,-175,-74,212
,465,2023-10-20 13:48:37.30,292,-333,-2012,70,12,21,-269,-242,-27,255
,466,2023-10-20 13:48:37.31,290,-323,-2023,69,18,36,-250,-202,-48,226
,467,2023-10-20 13:48:37.32,295,-310,-2005,69,24,46,-250,-280,30,265
,468,2023-10-20 13:48:37.33,301,-324,-1998,70,25,56,-221,-208,-13,214
,469,2023-10-20 13:48:37.34,292,-314,-2024,74,24,64,-256,-257,1,256
,470,2023-10-20 13:48:37.35,306,-305,-2035,76,20,58,-227,-215,-12,221
,471,2023-10-20 13:48:37.36,302,-297,-2033,65,16,60,-264,-287,23,275
,472,2023-10-20 13:48:37.37,299,-253,-2098,53,7,50,-229,-226,-3,227
,473,2023-10-20 13:48:37.38,317,-282,-2061,25,4,47,-265,-286,21,275
,474,2023-10-20 13:48:37.39,296,-350,-1976,29,20,30,-222,-237,15,229
,475,2023-10-20 13:48:37.40,287,-338,-2043,58,7,25,-278,-298,20,288
,476,2023-10-20 13:48:37.41,292,-302,-2043,66,-7,28,-223,-224,1,223
,477,2023-10-20 13:48:37.42,297,-300,-2037,63,-19,17,-284,-280,-4,282
,478,2023-10-20 13:48:37.43,291,-306,-2036,51,-25,-1,-218,-241,23,229
,479,2023-10-20 13:48:37.44,291,-296,-2072,29,-26,-5,-288,-315,27,301
,480,2023-10-20 13:48:37.45,285,-346,-2004,23,-9,4,-207,-276,69,241
,481,2023-10-20 13:48:37.46,272,-347,-2034,27,-9,1,-279,-336,57,307
,482,2023-10-20 13:48:37.47,287,-302,-2035,18,-26,5,-204,-270,66,237
,483,2023-10-20 13:48:37.48,289,-303,-2017,14,-25,-4,-294,-324,30,309
,484,2023-10-20 13:48:37.49,293,-298,-2025,20,-24,-12,-210,-228,18,219
,485,2023-10-20 13:48:37.50,292,-297,-2040,13,-18,-10,-303,-261,-42,282
,486,2023-10-20 13:48:37.51,283,-281,-2033,9,-16,-10,-205,-126,-79,165
,487,2023-10-20 13:48:37.52,290,-271,-2033,13,-24,-20,-295,-162,-133,228
,488,2023-10-20 13:48:37.53,289,-254,-2032,7,-35,-34,-185,-213,28,199
,489,2023-10-20 13:48:37.54,303,-253,-2033,-5,-47,-50,-297,-339,42,318
,490,2023-10-20 13:48:37.55,313,-261,-2031,-5,-52,-69,-199,-299,100,249
,491,2023-10-20 13:48:37.56,288,-264,-2023,5,-59,-80,-325,-335,10,330
,492,2023-10-20 13:48:37.57,281,-287,-2020,25,-63,-86,-207,-224,17,215
,493,2023-10-20 13:48:37.58,269,-318,-2014,41,-75,-81,-309,-248,-61,278
,494,2023-10-20 13:48:37.59,266,-323,-2012,59,-78,-76,-183,-221,38,202
,495,2023-10-20 13:48:37.60,244,-318,-2046,60,-82,-64,-311,-294,-17,302
,496,2023-10-20 13:48:37.61,242,-353,-1996,54,-67,-38,-192,-218,26,205
,497,2023-10-20 13:48:37.62,223,-403,-1973,69,-49,-22,-333,-253,-80,293
,498,2023-10-20 13:48:37.63,217,-394,-2015,85,-53,-5,-185,-214,29,199
,499,2023-10-20 13:48:37.64,211,-377,-2001,88,-42,16,-319,-284,-35,301
,500,2023-10-20 13:48:37.65,212,-380,-2006,88,-28,29,-168,-226,58,197
,501,2023-10-20 13:48:37.66,216,-384,-2003,78,-5,44,-321,-270,-51,295
,502,2023-10-20 13:48:37.67,209,-374,-2008,51,28,58,-168,-192,24,180
,503,2023-10-20 13:48:37.68,212,-352,-2011,30,62,67,-332,-247,-85,289
,504,2023-10-20 13:48:37.69,232,-342,-2018,15,83,66,-172,-185,13,178
,505,2023-10-20 13:48:37.70,245,-319,-2022,-8,98,62,-337,-248,-89,292
,506,2023-10-20 13:48:37.71,260,-300,-2021,-22,100,45,-162,-217,55,189
,507,2023-10-20 13:48:37.72,275,-310,-2017,-35,96,19,-327,-283,-44,305
,508,2023-10-20 13:48:37.73,289,-299,-2013,-54,100,-11,-164,-206,42,185
,509,2023-10-20 13:48:37.74,312,-285,-2020,-75,98,-31,-342,-248,-94,295
,510,2023-10-20 13:48:37.75,312,-278,-2035,-75,92,-47,-170,-189,19,179
,511,2023-10-20 13:48:37.76,325,-274,-2027,-77,81,-67,-349,-249,-100,299
,512,2023-10-20 13:48:37.77,340,-270,-2038,-78,66,-83,-165,-183,18,174
,513,2023-10-20 13:48:37.78,334,-281,-2047,-67,49,-99,-355,-237,-118,296
,514,2023-10-20 13:48:37.79,323,-290,-2051,-55,31,-107,-165,-192,27,178
,515,2023-10-20 13:48:37.80,315,-290,-2049,-37,8,-112,-351,-258,-93,304
,516,2023-10-20 13:48:37.81,319,-304,-2045,-27,-6,-109,-163,-215,52,189
,517,2023-10-20 13:48:37.82,316,-299,-2038,-16,-19,-97,-362,-269,-93,315
,518,2023-10-20 13:48:37.83,301,-297,-2035,-7,-26,-88,-167,-214,47,190
,519,2023-10-20 13:48:37.84,297,-316,-2031,3,-32,-77,-362,-265,-97,313
,520,2023-10-20 13:48:37.85,292,-313,-2024,4,-26,-64,-155,-258,103,206
,521,2023-10-20 13:48:37.86,278,-304,-2017,12,-21,-47,-356,-304,-52,330
,522,2023-10-20 13:48:37.87,287,-306,-2019,23,-14,-30,-157,-226,69,191
,523,2023-10-20 13:48:37.88,269,-312,-2014,28,-5,-15,-362,-249,-113,305
,524,2023-10-20 13:48:37.89,265,-312,-2011,31,8,-5,-159,-191,32,175
,525,2023-10-20 13:48:37.90,279,-314,-2016,35,18,9,-369,-243,-126,306
,526,2023-10-20 13:48:37.91,290,-309,-2024,37,30,15,-155,-216,61,185
,527,2023-10-20 13:48:37.92,291,-311,-2000,37,38,19,-360,-274,-86,317
,528,2023-10-20 13:48:37.93,277,-312,-2001,34,43,25,-146,-196,50,171
,529,2023-10-20 13:48:37.94,297,-318,-2007,31,52,28,-357,-220,-137,288
,530,2023-10-20 13:48:37.95,291,-321,-2024,29,53,33,-139,-136,-3,137
,531,2023-10-20 13:48:37.96,284,-326,-2023,22,49,42,-367,-198,-169,282
,532,2023-10-20 13:48:37.97,290,-312,-2017,18,47,45,-145,-186,41,165
,533,2023-10-20 13:48:37.98,297,-307,-2016,14,46,40,-371,-253,-118,312
,534,2023-10-20 13:48:37.99,295,-304,-2016,10,43,28,-146,-154,8,150
,535,2023-10-20 13:48:38.00,306,-301,-2016,4,42,16,-365,-195,-170,280
,536,2023-10-20 13:48:38.01,300,-302,-2013,-2,46,3,-146,-152,6,149
,537,2023-10-20 13:48:38.02,300,-304,-2021,-8,46,-6,-366,-214,-152,290
,538,2023-10-20 13:48:38.03,303,-291,-2015,-9,45,-18,-156,-218,62,187
,539,2023-10-20 13:48:38.04,308,-295,-2015,-9,41,-37,-380,-262,-118,321
,540,2023-10-20 13:48:38.05,314,-297,-2022,-14,44,-49,-150,-186,36,168
