// Data mode  : Full
// Data quality  : High
// Acceleration sensor's range  : 16g
// Gyroscope sensor's range  : 2000dps
//
//ARTIFACT,NUM,DATE,ACC_X,ACC_Y,ACC_Z,GYRO_X,GYRO_Y,GYRO_Z,EOG_L,EOG_R,EOG_H,EOG_V
,1,2023-10-27 11:05:38.81,135,-110,-2055,1,2,-1,-195,55,-250,70
,2,2023-10-27 11:05:38.82,132,-116,-2055,4,-16,2,-189,-29,-160,109
,3,2023-10-27 11:05:38.83,140,-125,-2054,-9,13,2,-206,55,-261,75
,4,2023-10-27 11:05:38.84,137,-115,-2060,-15,18,6,-209,-37,-172,123
,5,2023-10-27 11:05:38.85,150,-125,-2051,-11,14,8,-207,50,-257,78
,6,2023-10-27 11:05:38.86,123,-127,-2044,-2,10,15,-196,-29,-167,112
,7,2023-10-27 11:05:38.87,133,-125,-2042,5,3,17,-190,54,-244,68
,8,2023-10-27 11:05:38.88,144,-125,-2061,10,9,19,-193,-42,-151,117
,9,2023-10-27 11:05:38.89,132,-110,-2056,1,24,21,-192,46,-238,73
,10,2023-10-27 11:05:38.90,142,-119,-2062,-1,27,25,-203,-48,-155,125
,11,2023-10-27 11:05:38.91,133,-115,-2063,2,18,26,-192,51,-243,70
,12,2023-10-27 11:05:38.92,158,-115,-2074,8,9,30,-207,-44,-163,125
,13,2023-10-27 11:05:38.93,151,-112,-2069,9,23,26,-184,64,-248,60
,14,2023-10-27 11:05:38.94,144,-109,-2054,6,39,21,-206,-49,-157,127
,15,2023-10-27 11:05:38.95,151,-114,-2067,11,21,21,-180,70,-250,55
,16,2023-10-27 11:05:38.96,150,-110,-2077,17,19,16,-208,-40,-168,124
,17,2023-10-27 11:05:38.97,135,-118,-2071,14,43,10,-164,86,-250,39
,18,2023-10-27 11:05:38.98,130,-117,-2063,11,29,8,-198,-35,-163,116
,19,2023-10-27 11:05:38.99,133,-119,-2068,17,7,11,-160,89,-249,35
,20,2023-10-27 11:05:39.00,135,-115,-2064,24,4,15,-205,-40,-165,122
,21,2023-10-27 11:05:39.01,148,-117,-2053,19,-7,15,-165,82,-247,41
,22,2023-10-27 11:05:39.02,145,-106,-2052,15,-20,18,-217,-49,-168,133
,23,2023-10-27 11:05:39.03,135,-113,-2054,16,-35,18,-184,73,-257,55
,24,2023-10-27 11:05:39.04,134,-120,-2048,14,-50,20,-238,-73,-165,155
,25,2023-10-27 11:05:39.05,134,-126,-2047,14,-59,26,-180,57,-237,61
,26,2023-10-27 11:05:39.06,121,-131,-2047,15,-60,31,-237,-76,-161,156
,27,2023-10-27 11:05:39.07,131,-130,-2052,17,-61,37,-177,68,-245,54
,28,2023-10-27 11:05:39.08,130,-128,-2058,11,-64,40,-243,-73,-170,158
,29,2023-10-27 11:05:39.09,123,-120,-2055,12,-61,45,-185,69,-254,58
,30,2023-10-27 11:05:39.10,130,-123,-2054,13,-59,46,-256,-83,-173,169
,31,2023-10-27 11:05:39.11,135,-111,-2057,7,-55,47,-188,53,-241,67
,32,2023-10-27 11:05:39.12,123,-107,-2059,8,-50,45,-265,-96,-169,180
,33,2023-10-27 11:05:39.13,124,-122,-2061,7,-44,46,-200,53,-253,73
,34,2023-10-27 11:05:39.14,114,-126,-2043,8,-37,44,-278,-97,-181,187
,35,2023-10-27 11:05:39.15,122,-124,-2049,5,-28,38,-203,60,-263,71
,36,2023-10-27 11:05:39.16,120,-120,-2050,9,-16,35,-277,-89,-188,183
,37,2023-10-27 11:05:39.17,128,-121,-2060,17,-11,30,-194,66,-260,64
,38,2023-10-27 11:05:39.18,120,-127,-2055,20,-6,28,-273,-87,-186,180
,39,2023-10-27 11:05:39.19,107,-123,-2054,25,-2,25,-190,71,-261,59
,40,2023-10-27 11:05:39.20,104,-144,-2066,27,0,23,-285,-88,-197,186
,41,2023-10-27 11:05:39.21,113,-126,-2059,28,-4,26,-198,74,-272,62
,42,2023-10-27 11:05:39.22,111,-121,-2047,30,1,24,-285,-91,-194,188
,43,2023-10-27 11:05:39.23,110,-116,-2050,29,6,26,-174,71,-245,51
,44,2023-10-27 11:05:39.24,111,-126,-2037,24,12,21,-280,-98,-182,189
,45,2023-10-27 11:05:39.25,117,-117,-2042,19,16,15,-186,64,-250,61
,46,2023-10-27 11:05:39.26,111,-118,-2053,14,16,13,-302,-102,-200,202
,47,2023-10-27 11:05:39.27,111,-118,-2053,7,10,14,-192,72,-264,60
,48,2023-10-27 11:05:39.28,117,-129,-2056,3,9,11,-314,-112,-202,213
,49,2023-10-27 11:05:39.29,116,-132,-2060,-5,9,9,-209,48,-257,80
,50,2023-10-27 11:05:39.30,111,-118,-2063,-5,6,8,-332,-139,-193,235
,51,2023-10-27 11:05:39.31,114,-119,-2051,-8,1,8,-212,35,-247,88
,52,2023-10-27 11:05:39.32,108,-122,-2064,-13,-1,5,-323,-136,-187,229
,53,2023-10-27 11:05:39.33,126,-122,-2053,-12,1,1,-196,37,-233,79
,54,2023-10-27 11:05:39.34,123,-122,-2050,-14,4,0,-317,-132,-185,224
,55,2023-10-27 11:05:39.35,120,-121,-2044,-17,8,-2,-194,42,-236,76
,56,2023-10-27 11:05:39.36,110,-125,-2055,-21,16,-1,-320,-130,-190,225
,57,2023-10-27 11:05:39.37,127,-123,-2054,-24,23,-2,-186,43,-229,71
,58,2023-10-27 11:05:39.38,128,-132,-2045,-19,31,-2,-317,-127,-190,222
,59,2023-10-27 11:05:39.39,132,-120,-2041,-12,42,-5,-188,50,-238,69
,60,2023-10-27 11:05:39.40,123,-121,-2056,-11,51,-4,-311,-115,-196,213
,61,2023-10-27 11:05:39.41,114,-115,-2056,-15,51,-4,-170,59,-229,55
,62,2023-10-27 11:05:39.42,116,-117,-2069,-13,49,1,-313,-115,-198,214
,63,2023-10-27 11:05:39.43,129,-120,-2069,-10,41,3,-187,56,-243,65
,64,2023-10-27 11:05:39.44,130,-114,-2061,-6,36,5,-319,-112,-207,215
,65,2023-10-27 11:05:39.45,130,-113,-2052,-6,37,4,-170,62,-232,54
,66,2023-10-27 11:05:39.46,127,-112,-2056,-6,37,6,-312,-122,-190,217
,67,2023-10-27 11:05:39.47,128,-116,-2051,-7,36,7,-191,39,-230,76
,68,2023-10-27 11:05:39.48,149,-118,-2057,-3,34,6,-344,-136,-208,240
,69,2023-10-27 11:05:39.49,132,-113,-2043,0,32,5,-200,41,-241,79
,70,2023-10-27 11:05:39.50,118,-125,-2050,16,0,7,-342,-136,-206,239
,71,2023-10-27 11:05:39.51,155,-126,-2054,24,-7,11,-194,31,-225,81
,72,2023-10-27 11:05:39.52,139,-114,-2059,17,23,9,-351,-145,-206,248
,73,2023-10-27 11:05:39.53,153,-111,-2047,5,42,4,-208,21,-229,93
,74,2023-10-27 11:05:39.54,128,-117,-2056,-1,36,2,-383,-174,-209,278
,75,2023-10-27 11:05:39.55,145,-118,-2063,6,20,4,-256,-27,-229,141
,76,2023-10-27 11:05:39.56,128,-115,-2058,13,12,3,-427,-212,-215,319
,77,2023-10-27 11:05:39.57,146,-110,-2052,10,18,1,-286,-57,-229,171
,78,2023-10-27 11:05:39.58,145,-95,-2059,3,26,-5,-447,-223,-224,335
,79,2023-10-27 11:05:39.59,145,-114,-2065,-6,38,-6,-296,-58,-238,177
,80,2023-10-27 11:05:39.60,142,-113,-2041,-1,27,-6,-434,-211,-223,322
,81,2023-10-27 11:05:39.61,137,-121,-2072,9,4,-5,-266,-36,-230,151
,82,2023-10-27 11:05:39.62,153,-101,-2056,4,21,-6,-408,-177,-231,292
,83,2023-10-27 11:05:39.63,138,-107,-2057,-3,34,-9,-234,4,-238,115
,84,2023-10-27 11:05:39.64,141,-116,-2065,-3,28,-10,-359,-133,-226,246
,85,2023-10-27 11:05:39.65,141,-109,-2067,-1,18,-7,-174,40,-214,67
,86,2023-10-27 11:05:39.66,150,-109,-2057,3,1,-8,-320,-111,-209,215
,87,2023-10-27 11:05:39.67,146,-108,-2060,6,0,-10,-158,52,-210,53
,88,2023-10-27 11:05:39.68,155,-102,-2042,3,4,-8,-306,-80,-226,193
,89,2023-10-27 11:05:39.69,143,-114,-2064,0,5,-10,-154,71,-225,41
,90,2023-10-27 11:05:39.70,138,-115,-2063,-3,-1,-4,-296,-77,-219,186
,91,2023-10-27 11:05:39.71,144,-114,-2054,-2,-5,-5,-132,66,-198,33
,92,2023-10-27 11:05:39.72,149,-118,-2052,5,-3,-7,-287,-70,-217,178
,93,2023-10-27 11:05:39.73,144,-105,-2060,9,-15,-9,-128,82,-210,23
,94,2023-10-27 11:05:39.74,151,-101,-2064,9,-29,-11,-276,-58,-218,167
,95,2023-10-27 11:05:39.75,142,-88,-2074,13,-34,-13,-116,78,-194,19
,96,2023-10-27 11:05:39.76,153,-96,-2048,16,-43,-18,-272,-72,-200,172
,97,2023-10-27 11:05:39.77,147,-101,-2051,22,-44,-25,-114,64,-178,25
,98,2023-10-27 11:05:39.78,133,-113,-2058,22,-42,-27,-281,-71,-210,176
,99,2023-10-27 11:05:39.79,126,-112,-2060,17,-43,-29,-128,71,-199,28
,100,2023-10-27 11:05:39.80,121,-116,-2067,16,-45,-25,-289,-66,-223,177
,101,2023-10-27 11:05:39.81,125,-122,-2054,15,-51,-22,-130,58,-188,36
,102,2023-10-27 11:05:39.82,138,-126,-2046,18,-43,-13,-284,-76,-208,180
,103,2023-10-27 11:05:39.83,131,-124,-2042,18,-33,-7,-122,58,-180,32
,104,2023-10-27 11:05:39.84,134,-114,-2038,14,-27,0,-278,-68,-210,173
,105,2023-10-27 11:05:39.85,126,-125,-2045,9,-21,4,-134,59,-193,37
,106,2023-10-27 11:05:39.86,119,-121,-2050,6,-18,15,-295,-74,-221,184
,107,2023-10-27 11:05:39.87,116,-127,-2066,3,-15,24,-148,42,-190,53
,108,2023-10-27 11:05:39.88,109,-119,-2072,-4,-24,39,-311,-77,-234,194
,109,2023-10-27 11:05:39.89,115,-115,-2067,-7,-29,49,-160,45,-205,57
,110,2023-10-27 11:05:39.90,121,-122,-2065,-5,-29,57,-314,-70,-244,192
,111,2023-10-27 11:05:39.91,118,-120,-2050,-3,-32,59,-166,40,-206,63
,112,2023-10-27 11:05:39.92,120,-112,-2061,-3,-25,61,-321,-76,-245,198
,113,2023-10-27 11:05:39.93,129,-105,-2060,-6,-20,60,-176,29,-205,73
,114,2023-10-27 11:05:39.94,114,-104,-2060,0,-26,57,-330,-84,-246,207
,115,2023-10-27 11:05:39.95,127,-103,-2055,12,-28,52,-181,18,-199,81
,116,2023-10-27 11:05:39.96,126,-102,-2051,17,-16,45,-332,-86,-246,209
,117,2023-10-27 11:05:39.97,117,-103,-2053,17,-14,37,-182,18,-200,82
,118,2023-10-27 11:05:39.98,107,-97,-2059,21,-19,32,-329,-85,-244,207
,119,2023-10-27 11:05:39.99,119,-97,-2056,28,-29,29,-187,5,-192,91
,120,2023-10-27 11:05:40.00,129,-102,-2057,31,-25,19,-331,-84,-247,207
,121,2023-10-27 11:05:40.01,109,-100,-2050,19,-24,17,-197,-2,-195,99
,122,2023-10-27 11:05:40.02,112,-118,-2065,18,-21,10,-332,-89,-243,210
,123,2023-10-27 11:05:40.03,123,-128,-2042,25,-9,7,-190,-5,-185,97
,124,2023-10-27 11:05:40.04,112,-123,-2043,25,-4,2,-327,-86,-241,206
,125,2023-10-27 11:05:40.05,113,-130,-2038,22,-12,6,-195,-8,-187,101
,126,2023-10-27 11:05:40.06,112,-122,-2052,23,-13,9,-325,-83,-242,204
,127,2023-10-27 11:05:40.07,115,-123,-2048,27,-6,5,-187,-8,-179,97
,128,2023-10-27 11:05:40.08,110,-128,-2055,22,-1,9,-314,-68,-246,191
,129,2023-10-27 11:05:40.09,105,-128,-2063,16,6,9,-177,6,-183,85
,130,2023-10-27 11:05:40.10,95,-132,-2055,17,12,12,-301,-55,-246,178
,131,2023-10-27 11:05:40.11,114,-128,-2051,21,17,15,-172,7,-179,82
,132,2023-10-27 11:05:40.12,112,-129,-2049,16,20,18,-311,-62,-249,186
,133,2023-10-27 11:05:40.13,121,-124,-2055,7,22,19,-192,1,-193,95
,134,2023-10-27 11:05:40.14,114,-114,-2070,2,19,18,-313,-56,-257,184
,135,2023-10-27 11:05:40.15,115,-111,-2060,-1,17,21,-201,-17,-184,109
,136,2023-10-27 11:05:40.16,119,-122,-2055,-2,19,21,-307,-55,-252,181
,137,2023-10-27 11:05:40.17,120,-114,-2048,-5,19,20,-193,-15,-178,104
,138,2023-10-27 11:05:40.18,114,-120,-2054,-9,19,17,-310,-59,-251,184
,139,2023-10-27 11:05:40.19,118,-115,-2066,-5,16,16,-203,-24,-179,113
,140,2023-10-27 11:05:40.20,115,-115,-2057,-5,12,15,-311,-57,-254,184
,141,2023-10-27 11:05:40.21,126,-111,-2051,-2,7,10,-208,-27,-181,117
,142,2023-10-27 11:05:40.22,121,-116,-2057,1,7,7,-318,-63,-255,190
,143,2023-10-27 11:05:40.23,117,-109,-2058,5,7,2,-214,-43,-171,128
,144,2023-10-27 11:05:40.24,123,-107,-2063,5,0,0,-316,-59,-257,187
,145,2023-10-27 11:05:40.25,113,-118,-2066,7,-4,4,-219,-41,-178,130
,146,2023-10-27 11:05:40.26,113,-113,-2059,8,-11,1,-315,-59,-256,187
,147,2023-10-27 11:05:40.27,106,-116,-2054,9,-14,5,-220,-46,-174,133
,148,2023-10-27 11:05:40.28,112,-115,-2048,11,-8,5,-311,-59,-252,185
,149,2023-10-27 11:05:40.29,119,-129,-2047,11,-3,8,-216,-49,-167,132
,150,2023-10-27 11:05:40.30,122,-123,-2049,10,4,12,-295,-43,-252,169
,151,2023-10-27 11:05:40.31,124,-123,-2049,11,11,14,-208,-37,-171,122
,152,2023-10-27 11:05:40.32,110,-117,-2050,13,20,17,-292,-37,-255,164
,153,2023-10-27 11:05:40.33,122,-114,-2057,15,28,14,-221,-48,-173,134
,154,2023-10-27 11:05:40.34,115,-114,-2056,15,29,16,-300,-42,-258,171
,155,2023-10-27 11:05:40.35,117,-116,-2056,8,26,16,-232,-63,-169,147
,156,2023-10-27 11:05:40.36,115,-112,-2058,5,28,19,-302,-51,-251,176
,157,2023-10-27 11:05:40.37,125,-111,-2053,7,28,17,-226,-61,-165,143
,158,2023-10-27 11:05:40.38,118,-113,-2061,9,27,15,-286,-30,-256,158
,159,2023-10-27 11:05:40.39,125,-116,-2061,12,24,15,-226,-50,-176,138
,160,2023-10-27 11:05:40.40,123,-118,-2048,14,18,15,-288,-22,-266,155
,161,2023-10-27 11:05:40.41,120,-117,-2061,18,19,14,-230,-59,-171,144
,162,2023-10-27 11:05:40.42,129,-121,-2057,19,21,16,-288,-31,-257,159
,163,2023-10-27 11:05:40.43,126,-120,-2051,18,25,14,-237,-70,-167,153
,164,2023-10-27 11:05:40.44,131,-126,-2054,15,33,15,-285,-20,-265,152
,165,2023-10-27 11:05:40.45,127,-120,-2054,13,38,14,-235,-59,-176,147
,166,2023-10-27 11:05:40.46,122,-122,-2051,8,43,15,-283,-14,-269,148
,167,2023-10-27 11:05:40.47,133,-118,-2037,1,46,14,-245,-66,-179,155
,168,2023-10-27 11:05:40.48,127,-113,-2051,0,50,17,-290,-15,-275,152
,169,2023-10-27 11:05:40.49,123,-116,-2049,-3,56,17,-261,-70,-191,165
,170,2023-10-27 11:05:40.50,96,-107,-2150,-18,63,22,-301,-5,-296,153
,171,2023-10-27 11:05:40.51,144,-126,-1981,-13,9,25,-282,-78,-204,180
,172,2023-10-27 11:05:40.52,151,-101,-2015,13,41,23,-324,-21,-303,172
,173,2023-10-27 11:05:40.53,123,-114,-2070,23,34,21,-309,-100,-209,204
,174,2023-10-27 11:05:40.54,138,-109,-2038,16,39,23,-344,-36,-308,190
,175,2023-10-27 11:05:40.55,131,-108,-2052,22,47,21,-321,-107,-214,214
,176,2023-10-27 11:05:40.56,119,-125,-2063,29,26,18,-335,-28,-307,181
,177,2023-10-27 11:05:40.57,147,-106,-2067,31,12,22,-312,-104,-208,208
,178,2023-10-27 11:05:40.58,132,-111,-2058,32,29,19,-309,-23,-286,166
,179,2023-10-27 11:05:40.59,134,-102,-2059,39,16,16,-286,-103,-183,194
,180,2023-10-27 11:05:40.60,155,-110,-2062,41,14,10,-288,-17,-271,152
,181,2023-10-27 11:05:40.61,157,-111,-2073,44,23,3,-282,-106,-176,194
,182,2023-10-27 11:05:40.62,144,-117,-2071,42,22,-3,-282,-22,-260,152
,183,2023-10-27 11:05:40.63,137,-118,-2065,45,6,-6,-281,-113,-168,197
,184,2023-10-27 11:05:40.64,152,-131,-2066,45,6,-6,-273,-14,-259,143
,185,2023-10-27 11:05:40.65,148,-125,-2051,44,2,-6,-286,-110,-176,198
,186,2023-10-27 11:05:40.66,137,-134,-2050,42,-1,-5,-284,-13,-271,148
,187,2023-10-27 11:05:40.67,134,-134,-2053,34,2,-1,-299,-113,-186,206
,188,2023-10-27 11:05:40.68,138,-132,-2045,33,-2,4,-282,-7,-275,144
,189,2023-10-27 11:05:40.69,138,-131,-2053,34,-23,12,-297,-112,-185,204
,190,2023-10-27 11:05:40.70,140,-124,-2050,20,-17,16,-265,2,-267,131
,191,2023-10-27 11:05:40.71,123,-130,-2063,4,-4,20,-288,-107,-181,197
,192,2023-10-27 11:05:40.72,127,-131,-2056,-4,-7,21,-255,8,-263,123
,193,2023-10-27 11:05:40.73,136,-128,-2062,-7,-17,30,-289,-110,-179,199
,194,2023-10-27 11:05:40.74,127,-128,-2049,-13,-10,32,-256,13,-269,121
,195,2023-10-27 11:05:40.75,131,-122,-2048,-18,-12,34,-295,-115,-180,205
,196,2023-10-27 11:05:40.76,121,-122,-2051,-22,-21,33,-246,18,-264,114
,197,2023-10-27 11:05:40.77,135,-121,-2061,-22,-24,31,-288,-104,-184,196
,198,2023-10-27 11:05:40.78,132,-116,-2056,-20,-17,29,-242,32,-274,105
,199,2023-10-27 11:05:40.79,139,-113,-2052,-17,-21,26,-296,-110,-186,203
,200,2023-10-27 11:05:40.80,131,-119,-2054,-10,-20,21,-237,20,-257,108
,201,2023-10-27 11:05:40.81,140,-120,-2060,-1,-21,17,-295,-116,-179,205
,202,2023-10-27 11:05:40.82,134,-116,-2048,10,-22,10,-234,28,-262,103
,203,2023-10-27 11:05:40.83,137,-119,-2056,17,-21,7,-300,-114,-186,207
,204,2023-10-27 11:05:40.84,129,-108,-2050,22,-19,4,-232,31,-263,100
,205,2023-10-27 11:05:40.85,130,-122,-2051,26,-13,1,-305,-116,-189,210
,206,2023-10-27 11:05:40.86,126,-127,-2053,32,-15,0,-236,36,-272,100
,207,2023-10-27 11:05:40.87,143,-125,-2057,36,-15,-1,-304,-111,-193,207
,208,2023-10-27 11:05:40.88,132,-129,-2053,38,-9,0,-220,45,-265,87
,209,2023-10-27 11:05:40.89,147,-127,-2050,39,-3,1,-295,-110,-185,202
,210,2023-10-27 11:05:40.90,119,-130,-2052,34,0,2,-217,37,-254,90
,211,2023-10-27 11:05:40.91,136,-127,-2064,32,-2,3,-294,-109,-185,201
,212,2023-10-27 11:05:40.92,132,-133,-2065,33,-4,8,-212,47,-259,82
,213,2023-10-27 11:05:40.93,126,-141,-2056,37,-7,13,-306,-111,-195,208
,214,2023-10-27 11:05:40.94,121,-140,-2060,38,-11,16,-220,40,-260,90
,215,2023-10-27 11:05:40.95,116,-139,-2063,35,-13,23,-300,-110,-190,205
,216,2023-10-27 11:05:40.96,119,-137,-2062,33,-19,28,-199,57,-256,71
,217,2023-10-27 11:05:40.97,121,-131,-2058,30,-27,32,-306,-116,-190,211
,218,2023-10-27 11:05:40.98,126,-121,-2054,35,-32,34,-209,41,-250,84
,219,2023-10-27 11:05:40.99,137,-133,-2048,31,-34,35,-311,-123,-188,217
,220,2023-10-27 11:05:41.00,120,-130,-2048,26,-31,35,-201,51,-252,75
,221,2023-10-27 11:05:41.01,121,-131,-2056,27,-28,33,-312,-110,-202,211
,222,2023-10-27 11:05:41.02,125,-136,-2052,29,-27,32,-210,61,-271,74
,223,2023-10-27 11:05:41.03,114,-129,-2062,24,-27,32,-324,-121,-203,222
,224,2023-10-27 11:05:41.04,121,-127,-2058,19,-29,29,-206,45,-251,80
,225,2023-10-27 11:05:41.05,119,-123,-2051,14,-29,29,-320,-118,-202,219
,226,2023-10-27 11:05:41.06,121,-124,-2047,13,-31,28,-203,64,-267,69
,227,2023-10-27 11:05:41.07,112,-127,-2056,16,-33,24,-322,-108,-214,215
,228,2023-10-27 11:05:41.08,121,-136,-2046,9,-32,21,-197,57,-254,70
,229,2023-10-27 11:05:41.09,122,-130,-2053,9,-28,19,-322,-119,-203,220
,230,2023-10-27 11:05:41.10,106,-140,-2054,16,-27,20,-196,60,-256,68
,231,2023-10-27 11:05:41.11,109,-137,-2061,16,-23,19,-317,-111,-206,214
,232,2023-10-27 11:05:41.12,110,-141,-2060,18,-20,21,-184,65,-249,59
,233,2023-10-27 11:05:41.13,120,-141,-2048,15,-23,22,-314,-114,-200,214
,234,2023-10-27 11:05:41.14,116,-137,-2051,17,-21,21,-189,50,-239,69
,235,2023-10-27 11:05:41.15,115,-139,-2048,17,-16,20,-324,-126,-198,225
,236,2023-10-27 11:05:41.16,115,-138,-2046,17,-14,22,-184,55,-239,64
,237,2023-10-27 11:05:41.17,114,-140,-2055,14,-12,24,-314,-112,-202,213
,238,2023-10-27 11:05:41.18,110,-146,-2059,14,-14,23,-176,64,-240,56
,239,2023-10-27 11:05:41.19,109,-141,-2060,14,-16,24,-316,-120,-196,218
,240,2023-10-27 11:05:41.20,104,-142,-2065,15,-20,29,-176,54,-230,61
,241,2023-10-27 11:05:41.21,112,-136,-2058,8,-19,27,-322,-115,-207,218
,242,2023-10-27 11:05:41.22,99,-132,-2062,3,-18,28,-177,65,-242,56
,243,2023-10-27 11:05:41.23,101,-128,-2058,3,-25,27,-319,-112,-207,215
,244,2023-10-27 11:05:41.24,107,-136,-2055,4,-37,27,-173,64,-237,54
,245,2023-10-27 11:05:41.25,105,-155,-2027,15,-43,25,-322,-103,-219,212
,246,2023-10-27 11:05:41.26,103,-137,-2059,21,-31,25,-172,68,-240,52
,247,2023-10-27 11:05:41.27,107,-131,-2075,15,-35,22,-323,-109,-214,216
,248,2023-10-27 11:05:41.28,109,-147,-2049,7,-37,20,-171,58,-229,56
,249,2023-10-27 11:05:41.29,115,-139,-2032,13,-26,20,-326,-110,-216,218
,250,2023-10-27 11:05:41.30,98,-140,-2040,16,-18,15,-173,60,-233,56
,251,2023-10-27 11:05:41.31,97,-138,-2053,13,-15,12,-322,-106,-216,214
,252,2023-10-27 11:05:41.32,96,-141,-2055,6,-10,11,-154,75,-229,39
,253,2023-10-27 11:05:41.33,106,-146,-2052,6,-2,14,-320,-104,-216,212
,254,2023-10-27 11:05:41.34,99,-148,-2051,9,1,14,-174,58,-232,58
,255,2023-10-27 11:05:41.35,93,-149,-2053,6,1,12,-337,-115,-222,226
,256,2023-10-27 11:05:41.36,104,-137,-2053,4,5,13,-171,56,-227,57
,257,2023-10-27 11:05:41.37,98,-136,-2056,7,8,13,-326,-107,-219,216
,258,2023-10-27 11:05:41.38,99,-142,-2056,7,12,12,-165,59,-224,53
,259,2023-10-27 11:05:41.39,88,-149,-2056,3,8,14,-332,-103,-229,217
,260,2023-10-27 11:05:41.40,82,-150,-2060,2,5,16,-184,49,-233,67
,261,2023-10-27 11:05:41.41,96,-143,-2064,4,4,21,-350,-116,-234,233
,262,2023-10-27 11:05:41.42,109,-140,-2061,-1,10,23,-177,53,-230,62
,263,2023-10-27 11:05:41.43,93,-146,-2030,-18,42,20,-334,-100,-234,217
,264,2023-10-27 11:05:41.44,102,-128,-2054,-20,19,24,-177,51,-228,63
,265,2023-10-27 11:05:41.45,99,-139,-2050,-19,14,26,-334,-97,-237,215
,266,2023-10-27 11:05:41.46,95,-127,-2055,-16,12,28,-179,58,-237,60
,267,2023-10-27 11:05:41.47,96,-128,-2053,-20,12,26,-337,-82,-255,209
,268,2023-10-27 11:05:41.48,111,-119,-2051,-28,17,26,-171,60,-231,55
,269,2023-10-27 11:05:41.49,104,-117,-2058,-35,17,24,-329,-84,-245,206
,270,2023-10-27 11:05:41.50,104,-124,-2064,-32,13,23,-173,58,-231,57
,271,2023-10-27 11:05:41.51,105,-122,-2062,-28,7,21,-325,-84,-241,204
,272,2023-10-27 11:05:41.52,105,-119,-2054,-29,11,20,-168,48,-216,60
,273,2023-10-27 11:05:41.53,106,-121,-2052,-34,20,14,-330,-80,-250,205
,274,2023-10-27 11:05:41.54,112,-119,-2053,-30,15,15,-178,59,-237,59
,275,2023-10-27 11:05:41.55,103,-119,-2058,-24,7,12,-338,-75,-263,206
,276,2023-10-27 11:05:41.56,121,-117,-2065,-18,5,11,-180,47,-227,66
,277,2023-10-27 11:05:41.57,120,-121,-2063,-14,17,11,-330,-81,-249,205
,278,2023-10-27 11:05:41.58,97,-123,-2061,-13,15,7,-178,45,-223,66
,279,2023-10-27 11:05:41.59,107,-126,-2059,-3,-9,11,-330,-72,-258,201
,280,2023-10-27 11:05:41.60,112,-131,-2044,1,13,10,-174,53,-227,60
,281,2023-10-27 11:05:41.61,100,-134,-2061,12,-5,12,-322,-56,-266,189
,282,2023-10-27 11:05:41.62,110,-128,-2053,15,7,12,-167,56,-223,55
,283,2023-10-27 11:05:41.63,111,-124,-2058,23,-2,15,-317,-57,-260,187
,284,2023-10-27 11:05:41.64,123,-129,-2055,29,-2,18,-170,51,-221,59
,285,2023-10-27 11:05:41.65,126,-124,-2071,28,-1,22,-317,-50,-267,183
,286,2023-10-27 11:05:41.66,118,-122,-2077,25,2,19,-167,59,-226,54
,287,2023-10-27 11:05:41.67,122,-118,-2083,19,14,17,-312,-44,-268,178
,288,2023-10-27 11:05:41.68,119,-130,-2098,19,12,17,-168,51,-219,58
,289,2023-10-27 11:05:41.69,131,-126,-2093,13,16,17,-311,-51,-260,181
,290,2023-10-27 11:05:41.70,103,-133,-2109,12,10,16,-179,36,-215,71
,291,2023-10-27 11:05:41.71,132,-113,-2127,12,4,14,-330,-67,-263,198
,292,2023-10-27 11:05:41.72,107,-104,-2128,8,14,8,-189,16,-205,86
,293,2023-10-27 11:05:41.73,124,-120,-2131,6,5,2,-307,-34,-273,170
,294,2023-10-27 11:05:41.74,109,-113,-2098,11,2,-1,-154,76,-230,39
,295,2023-10-27 11:05:41.75,113,-107,-2120,24,-17,-2,-277,-19,-258,148
,296,2023-10-27 11:05:41.76,115,-124,-2110,17,-26,-1,-185,-10,-175,97
,297,2023-10-27 11:05:41.77,126,-138,-2098,10,-28,0,-393,-160,-233,276
,298,2023-10-27 11:05:41.78,97,-131,-2073,2,-10,2,-298,-110,-188,204
,299,2023-10-27 11:05:41.79,96,-139,-2062,4,-11,5,-440,-175,-265,307
,300,2023-10-27 11:05:41.80,103,-157,-2051,16,-22,17,-303,-88,-215,195
,301,2023-10-27 11:05:41.81,81,-159,-2022,35,-41,32,-426,-153,-273,289
,302,2023-10-27 11:05:41.82,81,-152,-2004,48,-53,42,-309,-97,-212,203
,303,2023-10-27 11:05:41.83,99,-136,-2002,51,-57,54,-433,-157,-276,295
,304,2023-10-27 11:05:41.84,77,-126,-1986,47,-44,60,-308,-94,-214,201
,305,2023-10-27 11:05:41.85,78,-109,-1995,46,-53,64,-433,-146,-287,289
,306,2023-10-27 11:05:41.86,97,-105,-1978,45,-61,69,-308,-84,-224,196
,307,2023-10-27 11:05:41.87,81,-113,-1958,32,-35,63,-412,-121,-291,266
,308,2023-10-27 11:05:41.88,61,-120,-1970,22,-46,61,-277,-60,-217,168
,309,2023-10-27 11:05:41.89,79,-123,-1960,21,-50,60,-376,-87,-289,231
,310,2023-10-27 11:05:41.90,71,-123,-1966,29,-50,60,-249,-29,-220,139
,311,2023-10-27 11:05:41.91,70,-130,-1973,31,-45,52,-340,-49,-291,194
,312,2023-10-27 11:05:41.92,73,-123,-1989,29,-37,49,-219,-12,-207,115
,313,2023-10-27 11:05:41.93,66,-133,-2012,22,-23,47,-311,-27,-284,169
,314,2023-10-27 11:05:41.94,60,-140,-2041,20,-18,46,-198,9,-207,94
,315,2023-10-27 11:05:41.95,69,-145,-2053,20,-17,46,-285,1,-286,142
,316,2023-10-27 11:05:41.96,76,-144,-2060,19,-13,46,-181,20,-201,80
,317,2023-10-27 11:05:41.97,72,-140,-2052,15,-12,44,-271,8,-279,131
,318,2023-10-27 11:05:41.98,81,-142,-2049,13,-10,44,-176,22,-198,77
,319,2023-10-27 11:05:41.99,74,-142,-2073,10,-5,42,-257,21,-278,118
,320,2023-10-27 11:05:42.00,84,-141,-2063,10,-4,42,-173,30,-203,71
,321,2023-10-27 11:05:42.01,76,-140,-2079,11,-5,36,-246,38,-284,104
,322,2023-10-27 11:05:42.02,60,-145,-2089,9,-9,37,-164,32,-196,66
,323,2023-10-27 11:05:42.03,66,-150,-2100,10,-19,38,-243,44,-287,99
,324,2023-10-27 11:05:42.04,65,-151,-2100,15,-30,42,-159,37,-196,61
,325,2023-10-27 11:05:42.05,83,-141,-2084,21,-33,40,-212,70,-282,71
,326,2023-10-27 11:05:42.06,96,-153,-2095,19,-23,37,-129,59,-188,35
,327,2023-10-27 11:05:42.07,61,-152,-2057,11,-3,33,-176,109,-285,33
,328,2023-10-27 11:05:42.08,84,-143,-2039,12,-1,33,-85,102,-187,-8
,329,2023-10-27 11:05:42.09,89,-158,-2024,10,27,28,-96,178,-274,-41
,330,2023-10-27 11:05:42.10,94,-151,-2040,6,38,30,-29,149,-178,-60
,331,2023-10-27 11:05:42.11,89,-155,-2023,0,60,29,-75,178,-253,-51
,332,2023-10-27 11:05:42.12,91,-155,-2020,-7,78,28,-61,100,-161,-19
,333,2023-10-27 11:05:42.13,79,-153,-2025,-15,88,30,-142,110,-252,16
,334,2023-10-27 11:05:42.14,83,-135,-2019,-32,90,32,-117,48,-165,34
,335,2023-10-27 11:05:42.15,89,-123,-2024,-42,88,35,-181,63,-244,59
,336,2023-10-27 11:05:42.16,91,-127,-2038,-49,81,36,-152,6,-158,73
,337,2023-10-27 11:05:42.17,100,-120,-2014,-53,66,37,-213,35,-248,89
,338,2023-10-27 11:05:42.18,87,-113,-2010,-52,50,37,-194,-19,-175,106
,339,2023-10-27 11:05:42.19,102,-118,-2025,-54,42,36,-256,11,-267,122
,340,2023-10-27 11:05:42.20,87,-124,-2055,-51,22,32,-239,-59,-180,149
,341,2023-10-27 11:05:42.21,110,-108,-2057,-50,24,25,-274,-7,-267,140
,342,2023-10-27 11:05:42.22,112,-112,-2061,-53,32,20,-240,-57,-183,148
,343,2023-10-27 11:05:42.23,90,-110,-2068,-61,30,12,-263,14,-277,124
,344,2023-10-27 11:05:42.24,113,-111,-2090,-68,29,11,-230,-42,-188,136
,345,2023-10-27 11:05:42.25,99,-114,-2093,-62,10,6,-247,37,-284,105
,346,2023-10-27 11:05:42.26,106,-109,-2111,-51,-13,6,-217,-29,-188,123
,347,2023-10-27 11:05:42.27,101,-123,-2101,-48,-7,5,-227,52,-279,87
,348,2023-10-27 11:05:42.28,115,-130,-2090,-47,-11,5,-212,-26,-186,119
,349,2023-10-27 11:05:42.29,102,-143,-2095,-39,-8,10,-228,54,-282,87
,350,2023-10-27 11:05:42.30,122,-144,-2091,-33,-7,14,-219,-34,-185,126
,351,2023-10-27 11:05:42.31,96,-143,-2074,-26,-3,20,-220,60,-280,80
,352,2023-10-27 11:05:42.32,105,-138,-2074,-20,0,27,-217,-31,-186,124
,353,2023-10-27 11:05:42.33,110,-137,-2063,-9,0,34,-218,54,-272,82
,354,2023-10-27 11:05:42.34,95,-135,-2056,-2,-8,42,-226,-42,-184,134
,355,2023-10-27 11:05:42.35,94,-142,-2055,5,-15,49,-228,46,-274,91
,356,2023-10-27 11:05:42.36,91,-129,-2040,7,-22,56,-239,-56,-183,147
,357,2023-10-27 11:05:42.37,94,-123,-2035,7,-24,63,-231,43,-274,94
,358,2023-10-27 11:05:42.38,91,-116,-2036,5,-29,72,-245,-69,-176,157
,359,2023-10-27 11:05:42.39,98,-106,-2037,-1,-33,71,-240,27,-267,106
,360,2023-10-27 11:05:42.40,85,-106,-2048,-5,-35,70,-264,-84,-180,174
,361,2023-10-27 11:05:42.41,85,-107,-2057,-10,-43,71,-249,18,-267,115
,362,2023-10-27 11:05:42.42,85,-99,-2050,-12,-48,69,-276,-94,-182,185
,363,2023-10-27 11:05:42.43,75,-95,-2056,-18,-53,66,-257,10,-267,123
,364,2023-10-27 11:05:42.44,81,-113,-2059,-21,-53,63,-287,-104,-183,195
,365,2023-10-27 11:05:42.45,94,-106,-2048,-23,-48,55,-256,12,-268,122
,366,2023-10-27 11:05:42.46,93,-97,-2045,-26,-40,49,-283,-105,-178,194
,367,2023-10-27 11:05:42.47,100,-106,-2046,-24,-25,40,-241,26,-267,107
,368,2023-10-27 11:05:42.48,92,-102,-2039,-23,-11,31,-281,-91,-190,186
,369,2023-10-27 11:05:42.49,87,-114,-2064,-27,0,24,-246,34,-280,106
,370,2023-10-27 11:05:42.50,82,-110,-2075,-27,1,21,-294,-100,-194,197
,371,2023-10-27 11:05:42.51,78,-111,-2080,-20,0,18,-247,19,-266,114
,372,2023-10-27 11:05:42.52,78,-112,-2081,-19,-8,18,-293,-108,-185,200
,373,2023-10-27 11:05:42.53,76,-113,-2085,-20,-19,18,-236,34,-270,101
,374,2023-10-27 11:05:42.54,77,-118,-2090,-21,-31,24,-291,-94,-197,192
,375,2023-10-27 11:05:42.55,75,-111,-2085,-19,-44,30,-225,54,-279,85
,376,2023-10-27 11:05:42.56,82,-113,-2082,-16,-47,34,-288,-96,-192,192
,377,2023-10-27 11:05:42.57,90,-110,-2081,-17,-46,41,-224,49,-273,87
,378,2023-10-27 11:05:42.58,84,-115,-2068,-21,-40,44,-291,-102,-189,196
,379,2023-10-27 11:05:42.59,89,-104,-2063,-26,-27,48,-223,47,-270,88
,380,2023-10-27 11:05:42.60,80,-109,-2043,-31,-11,48,-296,-101,-195,198
,381,2023-10-27 11:05:42.61,86,-104,-2040,-30,1,50,-227,47,-274,90
,382,2023-10-27 11:05:42.62,87,-98,-2042,-36,6,46,-296,-101,-195,198
,383,2023-10-27 11:05:42.63,81,-85,-2048,-42,20,44,-212,51,-263,80
,384,2023-10-27 11:05:42.64,79,-87,-2047,-46,26,39,-294,-100,-194,197
,385,2023-10-27 11:05:42.65,73,-70,-2051,-45,26,33,-209,63,-272,73
,386,2023-10-27 11:05:42.66,82,-67,-2050,-47,22,31,-293,-102,-191,197
,387,2023-10-27 11:05:42.67,78,-64,-2060,-52,14,20,-199,53,-252,73
,388,2023-10-27 11:05:42.68,84,-61,-2056,-56,3,14,-293,-108,-185,200
,389,2023-10-27 11:05:42.69,83,-61,-2051,-53,-8,10,-203,57,-260,73
,390,2023-10-27 11:05:42.70,70,-64,-2056,-51,-20,5,-298,-107,-191,202
,391,2023-10-27 11:05:42.71,85,-69,-2057,-46,-29,1,-201,55,-256,73
,392,2023-10-27 11:05:42.72,73,-72,-2062,-40,-37,-4,-298,-106,-192,202
,393,2023-10-27 11:05:42.73,76,-71,-2058,-35,-43,-3,-193,62,-255,65
,394,2023-10-27 11:05:42.74,71,-77,-2054,-25,-41,-3,-299,-107,-192,203
,395,2023-10-27 11:05:42.75,77,-82,-2070,-22,-40,-1,-185,62,-247,61
,396,2023-10-27 11:05:42.76,75,-89,-2074,-23,-33,4,-298,-107,-191,202
,397,2023-10-27 11:05:42.77,70,-102,-2057,-18,-28,8,-192,65,-257,63
,398,2023-10-27 11:05:42.78,67,-88,-2058,-5,-36,18,-314,-109,-205,211
,399,2023-10-27 11:05:42.79,65,-98,-2067,0,-33,26,-201,58,-259,71
,400,2023-10-27 11:05:42.80,67,-86,-2063,-2,-21,32,-317,-114,-203,215
,401,2023-10-27 11:05:42.81,69,-78,-2055,5,-23,41,-194,63,-257,65
,402,2023-10-27 11:05:42.82,66,-70,-2061,11,-20,45,-313,-110,-203,211
,403,2023-10-27 11:05:42.83,60,-75,-2077,10,-22,43,-194,55,-249,69
,404,2023-10-27 11:05:42.84,58,-74,-2065,1,-19,45,-322,-121,-201,221
,405,2023-10-27 11:05:42.85,59,-73,-2058,4,-21,49,-204,51,-255,76
,406,2023-10-27 11:05:42.86,59,-69,-2054,4,-23,48,-337,-124,-213,230
,407,2023-10-27 11:05:42.87,60,-71,-2040,1,-21,43,-210,52,-262,79
,408,2023-10-27 11:05:42.88,62,-64,-2031,0,-15,41,-330,-118,-212,224
,409,2023-10-27 11:05:42.89,62,-66,-2029,1,-15,37,-187,57,-244,65
,410,2023-10-27 11:05:42.90,62,-67,-2033,5,-22,35,-328,-123,-205,225
,411,2023-10-27 11:05:42.91,49,-69,-2042,3,-8,27,-202,54,-256,74
,412,2023-10-27 11:05:42.92,59,-63,-2045,1,-3,23,-336,-121,-215,228
,413,2023-10-27 11:05:42.93,55,-71,-2045,-1,-3,21,-194,53,-247,70
,414,2023-10-27 11:05:42.94,53,-77,-2065,-3,-2,21,-338,-123,-215,230
,415,2023-10-27 11:05:42.95,56,-76,-2064,-1,-6,22,-203,51,-254,76
,416,2023-10-27 11:05:42.96,48,-80,-2068,-4,-3,26,-340,-116,-224,228
,417,2023-10-27 11:05:42.97,53,-78,-2067,-3,-6,28,-200,48,-248,76
,418,2023-10-27 11:05:42.98,58,-73,-2056,-3,-3,29,-341,-127,-214,234
,419,2023-10-27 11:05:42.99,69,-70,-2056,0,6,28,-194,46,-240,74
,420,2023-10-27 11:05:43.00,62,-74,-2054,1,16,26,-338,-123,-215,230
,421,2023-10-27 11:05:43.01,65,-74,-2054,3,28,24,-186,53,-239,66
,422,2023-10-27 11:05:43.02,70,-75,-2058,7,39,21,-339,-127,-212,233
,423,2023-10-27 11:05:43.03,64,-80,-2057,12,39,19,-187,48,-235,69
,424,2023-10-27 11:05:43.04,59,-72,-2057,15,36,16,-333,-121,-212,227
,425,2023-10-27 11:05:43.05,65,-69,-2063,20,36,18,-174,52,-226,61
,426,2023-10-27 11:05:43.06,73,-69,-2055,24,36,14,-327,-121,-206,224
,427,2023-10-27 11:05:43.07,60,-79,-2050,24,35,15,-178,48,-226,65
,428,2023-10-27 11:05:43.08,57,-91,-2056,29,34,14,-331,-119,-212,225
,429,2023-10-27 11:05:43.09,70,-81,-2055,31,30,14,-176,48,-224,64
,430,2023-10-27 11:05:43.10,80,-81,-2047,30,30,16,-333,-119,-214,226
,431,2023-10-27 11:05:43.11,79,-81,-2050,31,28,16,-179,46,-225,66
,432,2023-10-27 11:05:43.12,75,-77,-2053,29,26,18,-336,-118,-218,227
,433,2023-10-27 11:05:43.13,82,-79,-2056,27,26,16,-184,44,-228,70
,434,2023-10-27 11:05:43.14,81,-91,-2064,25,27,19,-336,-119,-217,227
,435,2023-10-27 11:05:43.15,78,-94,-2062,25,17,21,-177,40,-217,68
,436,2023-10-27 11:05:43.16,79,-84,-2059,22,17,24,-332,-115,-217,223
,437,2023-10-27 11:05:43.17,88,-82,-2056,18,14,23,-173,48,-221,62
,438,2023-10-27 11:05:43.18,82,-73,-2060,18,14,25,-332,-111,-221,221
,439,2023-10-27 11:05:43.19,76,-82,-2061,15,10,24,-175,39,-214,68
,440,2023-10-27 11:05:43.20,84,-80,-2052,13,13,21,-333,-114,-219,223
,441,2023-10-27 11:05:43.21,78,-83,-2061,12,19,21,-175,41,-216,67
,442,2023-10-27 11:05:43.22,85,-81,-2062,13,17,18,-334,-104,-230,219
,443,2023-10-27 11:05:43.23,69,-82,-2053,13,10,21,-175,41,-216,67
,444,2023-10-27 11:05:43.24,87,-93,-2062,7,15,21,-331,-107,-224,219
,445,2023-10-27 11:05:43.25,72,-93,-2059,8,18,20,-176,41,-217,67
,446,2023-10-27 11:05:43.26,76,-83,-2056,13,11,18,-340,-99,-241,219
,447,2023-10-27 11:05:43.27,84,-87,-2059,16,4,19,-182,39,-221,71
,448,2023-10-27 11:05:43.28,81,-84,-2056,9,11,18,-334,-100,-234,217
,449,2023-10-27 11:05:43.29,75,-82,-2057,11,10,18,-179,39,-218,70
,450,2023-10-27 11:05:43.30,75,-90,-2064,14,3,17,-337,-92,-245,214
,451,2023-10-27 11:05:43.31,70,-91,-2060,13,-4,21,-184,43,-227,70
,452,2023-10-27 11:05:43.32,70,-91,-2055,14,-6,20,-334,-86,-248,210
,453,2023-10-27 11:05:43.33,81,-90,-2056,13,-12,23,-174,42,-216,66
,454,2023-10-27 11:05:43.34,73,-93,-2056,10,-4,22,-319,-82,-237,200
,455,2023-10-27 11:05:43.35,75,-86,-2064,11,-9,23,-164,38,-202,63
,456,2023-10-27 11:05:43.36,73,-93,-2058,12,-9,22,-320,-85,-235,202
,457,2023-10-27 11:05:43.37,62,-91,-2053,11,-8,22,-169,41,-210,64
,458,2023-10-27 11:05:43.38,77,-91,-2059,11,-12,26,-316,-83,-233,199
,459,2023-10-27 11:05:43.39,87,-86,-2052,12,-13,27,-159,37,-196,61
,460,2023-10-27 11:05:43.40,76,-87,-2051,13,-14,24,-308,-76,-232,192
,461,2023-10-27 11:05:43.41,83,-86,-2054,14,-10,24,-165,32,-197,66
,462,2023-10-27 11:05:43.42,71,-89,-2052,11,-15,27,-315,-78,-237,196
,463,2023-10-27 11:05:43.43,64,-86,-2056,8,-20,26,-168,27,-195,70
,464,2023-10-27 11:05:43.44,76,-84,-2060,10,-22,25,-316,-76,-240,196
,465,2023-10-27 11:05:43.45,65,-92,-2055,7,-27,26,-170,25,-195,72
,466,2023-10-27 11:05:43.46,66,-89,-2053,6,-26,28,-323,-84,-239,203
,467,2023-10-27 11:05:43.47,58,-89,-2058,5,-26,28,-172,27,-199,72
,468,2023-10-27 11:05:43.48,68,-84,-2051,8,-26,27,-315,-70,-245,192
,469,2023-10-27 11:05:43.49,61,-83,-2056,7,-21,27,-175,22,-197,76
,470,2023-10-27 11:05:43.50,69,-79,-2044,4,-14,26,-320,-70,-250,195
,471,2023-10-27 11:05:43.51,71,-89,-2048,6,-7,24,-182,20,-202,81
,472,2023-10-27 11:05:43.52,74,-89,-2045,5,-3,22,-320,-62,-258,191
,473,2023-10-27 11:05:43.53,69,-90,-2059,8,1,23,-184,19,-203,82
,474,2023-10-27 11:05:43.54,61,-97,-2057,10,1,24,-316,-66,-250,191
,475,2023-10-27 11:05:43.55,61,-93,-2066,12,-1,23,-183,6,-189,88
,476,2023-10-27 11:05:43.56,67,-85,-2066,12,-4,24,-318,-68,-250,193
,477,2023-10-27 11:05:43.57,55,-72,-2069,15,-7,22,-190,4,-194,93
,478,2023-10-27 11:05:43.58,53,-76,-2069,16,-12,22,-313,-58,-255,185
,479,2023-10-27 11:05:43.59,48,-84,-2074,15,-25,20,-183,7,-190,88
,480,2023-10-27 11:05:43.60,43,-96,-2070,17,-35,21,-305,-54,-251,179
,481,2023-10-27 11:05:43.61,44,-97,-2069,23,-41,26,-184,3,-187,90
,482,2023-10-27 11:05:43.62,52,-105,-2057,27,-44,28,-310,-53,-257,181
,483,2023-10-27 11:05:43.63,53,-98,-2039,24,-40,32,-193,-2,-191,97
,484,2023-10-27 11:05:43.64,54,-94,-2042,19,-26,31,-307,-55,-252,181
,485,2023-10-27 11:05:43.65,59,-96,-2040,14,-10,35,-196,-8,-188,102
,486,2023-10-27 11:05:43.66,58,-93,-2039,12,1,33,-316,-53,-263,184
,487,2023-10-27 11:05:43.67,60,-97,-2042,10,13,32,-208,-14,-194,111
,488,2023-10-27 11:05:43.68,49,-94,-2052,8,20,34,-317,-53,-264,185
,489,2023-10-27 11:05:43.69,56,-92,-2058,1,27,35,-211,-21,-190,116
,490,2023-10-27 11:05:43.70,58,-98,-2054,0,30,37,-312,-54,-258,183
,491,2023-10-27 11:05:43.71,74,-89,-2061,1,29,38,-204,-21,-183,112
,492,2023-10-27 11:05:43.72,73,-98,-2055,0,32,36,-298,-42,-256,170
,493,2023-10-27 11:05:43.73,66,-92,-2063,2,32,32,-192,-19,-173,105
,494,2023-10-27 11:05:43.74,58,-91,-2062,5,30,32,-292,-45,-247,168
,495,2023-10-27 11:05:43.75,56,-89,-2071,11,18,28,-197,-30,-167,113
,496,2023-10-27 11:05:43.76,63,-89,-2068,17,14,27,-291,-49,-242,170
,497,2023-10-27 11:05:43.77,66,-83,-2055,19,8,24,-200,-38,-162,119
,498,2023-10-27 11:05:43.78,69,-81,-2058,22,2,23,-295,-42,-253,168
,499,2023-10-27 11:05:43.79,59,-92,-2061,23,-4,21,-216,-40,-176,128
,500,2023-10-27 11:05:43.80,64,-91,-2061,19,-10,22,-300,-41,-259,170
,501,2023-10-27 11:05:43.81,77,-84,-2078,13,-4,21,-207,-36,-171,121
,502,2023-10-27 11:05:43.82,57,-78,-2043,-14,29,12,-289,-33,-256,161
,503,2023-10-27 11:05:43.83,70,-99,-2070,-19,18,15,-219,-41,-178,130
,504,2023-10-27 11:05:43.84,58,-80,-2076,-16,6,17,-297,-30,-267,163
,505,2023-10-27 11:05:43.85,76,-82,-2047,-6,-6,19,-216,-42,-174,129
,506,2023-10-27 11:05:43.86,73,-82,-2047,-3,-7,19,-276,-23,-253,149
,507,2023-10-27 11:05:43.87,72,-80,-2047,-14,5,20,-212,-52,-160,132
,508,2023-10-27 11:05:43.88,70,-74,-2055,-25,21,16,-278,-19,-259,148
,509,2023-10-27 11:05:43.89,68,-73,-2065,-24,30,12,-220,-46,-174,133
,510,2023-10-27 11:05:43.90,66,-69,-2050,-22,33,12,-273,-12,-261,142
,511,2023-10-27 11:05:43.91,79,-73,-2048,-21,40,6,-212,-48,-164,130
,512,2023-10-27 11:05:43.92,73,-70,-2043,-21,41,3,-270,-16,-254,143
,513,2023-10-27 11:05:43.93,73,-75,-2059,-18,40,-2,-222,-54,-168,138
,514,2023-10-27 11:05:43.94,67,-79,-2058,-11,36,-3,-276,-8,-268,142
,515,2023-10-27 11:05:43.95,69,-76,-2051,0,29,-2,-224,-51,-173,137
,516,2023-10-27 11:05:43.96,76,-84,-2059,3,26,1,-263,-7,-256,135
,517,2023-10-27 11:05:43.97,75,-78,-2059,5,25,-1,-221,-58,-163,139
,518,2023-10-27 11:05:43.98,81,-77,-2059,5,27,2,-271,-11,-260,141
,519,2023-10-27 11:05:43.99,65,-80,-2068,8,24,3,-239,-70,-169,154
,520,2023-10-27 11:05:44.00,71,-83,-2067,11,17,5,-290,-18,-272,154
,521,2023-10-27 11:05:44.01,68,-84,-2068,12,12,10,-265,-89,-176,177
,522,2023-10-27 11:05:44.02,80,-85,-2072,12,6,8,-316,-45,-271,180
,523,2023-10-27 11:05:44.03,74,-85,-2068,16,2,14,-304,-120,-184,212
,524,2023-10-27 11:05:44.04,82,-92,-2062,19,-6,17,-351,-72,-279,211
,525,2023-10-27 11:05:44.05,69,-85,-2063,19,-10,18,-341,-150,-191,245
,526,2023-10-27 11:05:44.06,71,-86,-2055,22,-12,20,-388,-103,-285,245
,527,2023-10-27 11:05:44.07,83,-84,-2054,26,-10,24,-368,-172,-196,270
,528,2023-10-27 11:05:44.08,72,-88,-2055,26,-14,24,-384,-99,-285,241
,529,2023-10-27 11:05:44.09,82,-91,-2052,27,-11,27,-354,-164,-190,259
,530,2023-10-27 11:05:44.10,74,-93,-2054,27,-11,28,-348,-64,-284,206
,531,2023-10-27 11:05:44.11,72,-93,-2052,28,-5,31,-313,-124,-189,218
,532,2023-10-27 11:05:44.12,72,-90,-2058,26,-5,31,-294,-10,-284,152
,533,2023-10-27 11:05:44.13,67,-94,-2058,27,-5,35,-272,-82,-190,177
,534,2023-10-27 11:05:44.14,67,-86,-2065,29,-8,39,-251,36,-287,107
,535,2023-10-27 11:05:44.15,59,-82,-2054,27,-10,39,-244,-59,-185,151
,536,2023-10-27 11:05:44.16,65,-90,-2053,23,-8,40,-222,53,-275,84
,537,2023-10-27 11:05:44.17,61,-77,-2060,20,-5,39,-228,-52,-176,140
,538,2023-10-27 11:05:44.18,70,-89,-2051,18,-3,39,-201,72,-273,64
,539,2023-10-27 11:05:44.19,66,-87,-2054,19,-1,37,-216,-32,-184,124
,540,2023-10-27 11:05:44.20,73,-91,-2055,20,1,32,-188,89,-277,49
,541,2023-10-27 11:05:44.21,66,-92,-2050,22,5,29,-216,-35,-181,125
,542,2023-10-27 11:05:44.22,71,-83,-2054,25,14,22,-182,84,-266,49
,543,2023-10-27 11:05:44.23,69,-90,-2059,25,12,18,-223,-44,-179,133
,544,2023-10-27 11:05:44.24,52,-89,-2063,30,8,15,-183,91,-274,46
,545,2023-10-27 11:05:44.25,74,-91,-2051,36,1,14,-226,-46,-180,136
,546,2023-10-27 11:05:44.26,60,-99,-2065,42,-4,12,-184,91,-275,46
,547,2023-10-27 11:05:44.27,55,-101,-2065,41,-9,16,-232,-48,-184,140
,548,2023-10-27 11:05:44.28,85,-89,-2085,39,-8,18,-190,91,-281,49
,549,2023-10-27 11:05:44.29,67,-90,-2052,24,28,8,-247,-52,-195,149
,550,2023-10-27 11:05:44.30,53,-98,-2073,25,-5,11,-200,88,-288,56
,551,2023-10-27 11:05:44.31,76,-100,-2059,20,0,14,-260,-62,-198,161
,552,2023-10-27 11:05:44.32,58,-101,-2076,15,2,17,-203,77,-280,63
,553,2023-10-27 11:05:44.33,48,-103,-2062,14,-3,21,-262,-74,-188,168
,554,2023-10-27 11:05:44.34,50,-105,-2050,12,-16,27,-201,73,-274,64
,555,2023-10-27 11:05:44.35,58,-95,-2046,9,-13,32,-266,-75,-191,170
,556,2023-10-27 11:05:44.36,73,-85,-2040,3,-8,34,-200,79,-279,60
,557,2023-10-27 11:05:44.37,55,-95,-2045,0,-10,37,-278,-78,-200,178
,558,2023-10-27 11:05:44.38,69,-83,-2043,-2,-12,38,-209,76,-285,66
,559,2023-10-27 11:05:44.39,58,-90,-2046,-6,1,40,-283,-79,-204,181
,560,2023-10-27 11:05:44.40,68,-91,-2047,-9,2,39,-204,79,-283,62
,561,2023-10-27 11:05:44.41,63,-84,-2054,-10,10,39,-282,-88,-194,185
,562,2023-10-27 11:05:44.42,64,-86,-2061,-6,12,38,-201,71,-272,65
,563,2023-10-27 11:05:44.43,75,-90,-2061,-1,13,35,-290,-90,-200,190
,564,2023-10-27 11:05:44.44,75,-90,-2061,6,14,33,-208,74,-282,67
,565,2023-10-27 11:05:44.45,66,-84,-2064,11,12,29,-297,-93,-204,195
,566,2023-10-27 11:05:44.46,69,-93,-2063,17,9,26,-205,72,-277,66
,567,2023-10-27 11:05:44.47,63,-90,-2068,23,11,25,-298,-93,-205,195
,568,2023-10-27 11:05:44.48,64,-92,-2062,28,8,23,-201,75,-276,63
,569,2023-10-27 11:05:44.49,68,-92,-2060,31,6,19,-299,-94,-205,196
,570,2023-10-27 11:05:44.50,66,-89,-2066,32,9,18,-197,75,-272,61
,571,2023-10-27 11:05:44.51,71,-88,-2064,29,10,17,-305,-102,-203,203
,572,2023-10-27 11:05:44.52,71,-91,-2059,31,1,13,-202,70,-272,66
,573,2023-10-27 11:05:44.53,75,-92,-2053,31,1,13,-314,-104,-210,209
,574,2023-10-27 11:05:44.54,70,-111,-2055,31,4,11,-202,71,-273,65
,575,2023-10-27 11:05:44.55,72,-101,-2064,32,7,14,-309,-104,-205,206
,576,2023-10-27 11:05:44.56,62,-99,-2045,29,16,11,-197,71,-268,63
,577,2023-10-27 11:05:44.57,63,-107,-2049,30,15,14,-310,-104,-206,207
,578,2023-10-27 11:05:44.58,54,-107,-2050,27,15,14,-189,76,-265,56
,579,2023-10-27 11:05:44.59,64,-105,-2060,27,16,14,-307,-98,-209,202
,580,2023-10-27 11:05:44.60,57,-107,-2059,24,15,17,-187,79,-266,54
,581,2023-10-27 11:05:44.61,62,-112,-2062,25,13,20,-314,-106,-208,210
,582,2023-10-27 11:05:44.62,72,-108,-2056,25,13,21,-188,72,-260,58
,583,2023-10-27 11:05:44.63,62,-104,-2054,23,11,25,-308,-101,-207,204
,584,2023-10-27 11:05:44.64,61,-108,-2063,19,10,27,-176,79,-255,48
,585,2023-10-27 11:05:44.65,65,-103,-2057,15,5,29,-308,-102,-206,205
,586,2023-10-27 11:05:44.66,70,-99,-2057,15,4,30,-183,73,-256,55
,587,2023-10-27 11:05:44.67,76,-91,-2053,14,4,31,-315,-98,-217,206
,588,2023-10-27 11:05:44.68,70,-93,-2055,10,7,29,-180,83,-263,48
,589,2023-10-27 11:05:44.69,72,-99,-2047,5,10,29,-314,-101,-213,207
,590,2023-10-27 11:05:44.70,66,-99,-2056,1,14,26,-178,76,-254,51
,591,2023-10-27 11:05:44.71,77,-97,-2054,2,15,24,-320,-106,-214,213
,592,2023-10-27 11:05:44.72,84,-99,-2057,1,18,24,-176,74,-250,51
,593,2023-10-27 11:05:44.73,78,-100,-2060,3,19,21,-320,-105,-215,212
,594,2023-10-27 11:05:44.74,69,-107,-2059,2,17,17,-175,73,-248,51
,595,2023-10-27 11:05:44.75,73,-97,-2058,6,18,17,-321,-105,-216,213
,596,2023-10-27 11:05:44.76,68,-103,-2059,6,17,13,-175,76,-251,49
,597,2023-10-27 11:05:44.77,72,-105,-2059,7,17,15,-324,-100,-224,212
,598,2023-10-27 11:05:44.78,64,-98,-2056,9,14,11,-174,74,-248,50
,599,2023-10-27 11:05:44.79,73,-97,-2058,7,15,11,-323,-109,-214,216
,600,2023-10-27 11:05:44.80,73,-104,-2060,8,15,11,-174,66,-240,54
,601,2023-10-27 11:05:44.81,69,-103,-2063,6,14,10,-326,-102,-224,214
,602,2023-10-27 11:05:44.82,75,-103,-2065,7,17,10,-175,73,-248,51
,603,2023-10-27 11:05:44.83,67,-101,-2055,6,17,8,-327,-103,-224,215
,604,2023-10-27 11:05:44.84,72,-93,-2059,4,16,9,-168,64,-232,52
,605,2023-10-27 11:05:44.85,75,-96,-2064,3,14,11,-321,-102,-219,211
,606,2023-10-27 11:05:44.86,76,-90,-2063,5,9,11,-168,73,-241,47
,607,2023-10-27 11:05:44.87,67,-96,-2061,5,6,12,-322,-100,-222,211
,608,2023-10-27 11:05:44.88,73,-99,-2060,3,1,12,-166,62,-228,52
,609,2023-10-27 11:05:44.89,75,-99,-2061,6,-5,14,-327,-105,-222,216
,610,2023-10-27 11:05:44.90,74,-94,-2058,8,-10,14,-169,63,-232,53
,611,2023-10-27 11:05:44.91,83,-101,-2053,12,-11,13,-324,-96,-228,210
,612,2023-10-27 11:05:44.92,71,-92,-2050,14,-11,10,-168,68,-236,50
,613,2023-10-27 11:05:44.93,79,-97,-2043,17,-9,8,-325,-95,-230,210
,614,2023-10-27 11:05:44.94,62,-99,-2058,18,-3,7,-160,61,-221,49
,615,2023-10-27 11:05:44.95,84,-90,-2068,16,11,1,-322,-97,-225,209
,616,2023-10-27 11:05:44.96,51,-100,-2060,21,15,-2,-170,58,-228,56
,617,2023-10-27 11:05:44.97,84,-90,-2072,32,-11,-6,-339,-100,-239,219
,618,2023-10-27 11:05:44.98,58,-82,-2065,38,6,-15,-168,54,-222,57
,619,2023-10-27 11:05:44.99,73,-66,-2058,42,1,-25,-330,-102,-228,216
,620,2023-10-27 11:05:45.00,67,-59,-2056,44,9,-42,-174,49,-223,62
,621,2023-10-27 11:05:45.01,61,-43,-2069,46,7,-66,-350,-107,-243,228
,622,2023-10-27 11:05:45.02,63,-44,-2091,45,11,-94,-197,27,-224,85
,623,2023-10-27 11:05:45.03,45,-27,-2105,44,13,-124,-367,-126,-241,246
,624,2023-10-27 11:05:45.04,51,-16,-2087,44,7,-152,-212,13,-225,99
,625,2023-10-27 11:05:45.05,39,0,-2079,39,-2,-189,-384,-140,-244,262
,626,2023-10-27 11:05:45.06,62,-30,-2052,32,-21,-216,-229,-7,-222,118
,627,2023-10-27 11:05:45.07,52,-45,-2046,25,-27,-243,-404,-163,-241,283
,628,2023-10-27 11:05:45.08,65,-68,-2034,24,-36,-260,-252,-29,-223,140
,629,2023-10-27 11:05:45.09,41,-103,-2022,20,-26,-265,-415,-168,-247,291
,630,2023-10-27 11:05:45.10,46,-126,-2020,14,-20,-251,-257,-40,-217,148
,631,2023-10-27 11:05:45.11,29,-164,-2024,5,-9,-217,-414,-172,-242,293
,632,2023-10-27 11:05:45.12,46,-175,-2031,-5,6,-172,-248,-40,-208,144
,633,2023-10-27 11:05:45.13,43,-201,-2042,-20,17,-118,-397,-162,-235,279
,634,2023-10-27 11:05:45.14,55,-198,-2041,-36,46,-58,-234,-30,-204,132
,635,2023-10-27 11:05:45.15,64,-209,-2039,-54,81,1,-381,-144,-237,262
,636,2023-10-27 11:05:45.16,73,-202,-2030,-79,117,56,-219,-17,-202,118
,637,2023-10-27 11:05:45.17,61,-206,-2022,-101,147,114,-356,-118,-238,237
,638,2023-10-27 11:05:45.18,41,-203,-2002,-108,140,177,-192,6,-198,93
,639,2023-10-27 11:05:45.19,79,-195,-2030,-92,117,242,-333,-97,-236,215
,640,2023-10-27 11:05:45.20,102,-186,-2025,-76,124,288,-175,20,-195,77
,641,2023-10-27 11:05:45.21,96,-173,-2028,-52,114,327,-311,-75,-236,193
,642,2023-10-27 11:05:45.22,109,-168,-2039,-31,116,356,-156,35,-191,60
,643,2023-10-27 11:05:45.23,110,-140,-2074,-31,142,387,-297,-58,-239,177
,644,2023-10-27 11:05:45.24,112,-112,-2082,-25,137,392,-152,42,-194,55
,645,2023-10-27 11:05:45.25,119,-82,-2136,-28,129,394,-292,-51,-241,171
,646,2023-10-27 11:05:45.26,146,-106,-2071,-37,119,378,-148,45,-193,51
,647,2023-10-27 11:05:45.27,128,-79,-2049,-26,115,351,-287,-40,-247,163
,648,2023-10-27 11:05:45.28,137,-49,-2063,-1,83,313,-152,40,-192,56
,649,2023-10-27 11:05:45.29,139,-10,-2093,17,52,264,-294,-42,-252,168
,650,2023-10-27 11:05:45.30,148,9,-2101,26,35,203,-160,37,-197,61
,651,2023-10-27 11:05:45.31,144,27,-2096,22,27,128,-298,-41,-257,169
,652,2023-10-27 11:05:45.32,128,31,-2087,8,12,49,-166,35,-201,65
,653,2023-10-27 11:05:45.33,140,38,-2093,11,-35,-29,-303,-40,-263,171
,654,2023-10-27 11:05:45.34,134,43,-2091,23,-84,-103,-173,29,-202,72
,655,2023-10-27 11:05:45.35,115,27,-2086,38,-132,-177,-302,-38,-264,170
,656,2023-10-27 11:05:45.36,124,15,-2079,38,-166,-248,-177,23,-200,77
,657,2023-10-27 11:05:45.37,131,17,-2095,27,-190,-308,-302,-40,-262,171
,658,2023-10-27 11:05:45.38,175,3,-2097,-26,-141,-379,-184,11,-195,86
,659,2023-10-27 11:05:45.39,115,-30,-2066,-74,-114,-437,-312,-49,-263,180
,660,2023-10-27 11:05:45.40,129,-42,-2067,-117,-87,-476,-197,0,-197,98
,661,2023-10-27 11:05:45.41,92,-77,-2066,-137,-96,-499,-317,-55,-262,186
,662,2023-10-27 11:05:45.42,96,-112,-2065,-140,-134,-501,-203,-13,-190,108
,663,2023-10-27 11:05:45.43,80,-135,-2059,-138,-144,-488,-311,-61,-250,186
,664,2023-10-27 11:05:45.44,68,-177,-2037,-145,-141,-462,-192,-23,-169,107
,665,2023-10-27 11:05:45.45,63,-180,-2088,-166,-118,-420,-303,-61,-242,182
,666,2023-10-27 11:05:45.46,43,-185,-2097,-184,-125,-360,-198,-30,-168,114
,667,2023-10-27 11:05:45.47,63,-192,-2052,-201,-126,-292,-306,-64,-242,185
,668,2023-10-27 11:05:45.48,41,-205,-2029,-193,-116,-217,-198,-33,-165,115
,669,2023-10-27 11:05:45.49,53,-192,-2022,-190,-100,-140,-296,-56,-240,176
,670,2023-10-27 11:05:45.50,39,-185,-2014,-192,-73,-63,-190,-28,-162,109
,671,2023-10-27 11:05:45.51,55,-173,-2011,-188,-55,12,-287,-53,-234,170
,672,2023-10-27 11:05:45.52,62,-147,-2020,-181,-16,81,-176,-24,-152,100
,673,2023-10-27 11:05:45.53,49,-130,-2022,-177,35,138,-263,-32,-231,147
,674,2023-10-27 11:05:45.54,53,-100,-2035,-183,78,184,-163,-17,-146,90
,675,2023-10-27 11:05:45.55,45,-62,-2036,-181,110,221,-256,-29,-227,142
,676,2023-10-27 11:05:45.56,61,-44,-2047,-172,137,252,-172,-29,-143,100
,677,2023-10-27 11:05:45.57,25,-36,-2005,-152,131,271,-264,-27,-237,145
,678,2023-10-27 11:05:45.58,46,-15,-2022,-96,84,295,-183,-27,-156,105
,679,2023-10-27 11:05:45.59,72,20,-2049,-46,45,305,-256,-16,-240,136
,680,2023-10-27 11:05:45.60,73,25,-2052,-18,36,302,-174,-19,-155,96
,681,2023-10-27 11:05:45.61,75,51,-2070,-28,76,290,-250,-7,-243,128
,682,2023-10-27 11:05:45.62,61,69,-2065,-41,98,269,-177,-22,-155,99
,683,2023-10-27 11:05:45.63,75,74,-2061,-38,102,243,-244,-3,-241,123
,684,2023-10-27 11:05:45.64,67,70,-2075,-7,70,218,-176,-24,-152,100
,685,2023-10-27 11:05:45.65,97,75,-2082,23,41,191,-246,0,-246,123
,686,2023-10-27 11:05:45.66,101,85,-2061,30,49,156,-189,-28,-161,108
,687,2023-10-27 11:05:45.67,94,86,-2074,30,57,118,-248,6,-254,121
,688,2023-10-27 11:05:45.68,99,73,-2089,29,60,80,-188,-22,-166,105
,689,2023-10-27 11:05:45.69,81,68,-2074,44,37,45,-239,22,-261,108
,690,2023-10-27 11:05:45.70,87,57,-2077,69,11,15,-182,-21,-161,101
,691,2023-10-27 11:05:45.71,95,47,-2078,77,-1,-17,-223,25,-248,99
,692,2023-10-27 11:05:45.72,93,41,-2068,80,-12,-41,-172,-22,-150,97
,693,2023-10-27 11:05:45.73,92,23,-2069,85,-22,-60,-209,37,-246,86
,694,2023-10-27 11:05:45.74,103,10,-2066,90,-29,-73,-166,-17,-149,91
,695,2023-10-27 11:05:45.75,95,-9,-2069,91,-33,-83,-192,43,-235,74
,696,2023-10-27 11:05:45.76,97,-24,-2068,88,-33,-87,-156,-16,-140,86
,697,2023-10-27 11:05:45.77,80,-39,-2058,85,-32,-85,-180,55,-235,62
,698,2023-10-27 11:05:45.78,90,-39,-2053,79,-27,-79,-152,-16,-136,84
,699,2023-10-27 11:05:45.79,99,-53,-2050,77,-19,-71,-173,58,-231,57
,700,2023-10-27 11:05:45.80,94,-50,-2049,63,-10,-57,-149,-17,-132,83
,701,2023-10-27 11:05:45.81,84,-62,-2048,51,1,-43,-160,59,-219,50
,702,2023-10-27 11:05:45.82,88,-57,-2042,41,15,-29,-151,-22,-129,86
,703,2023-10-27 11:05:45.83,97,-55,-2043,31,32,-17,-173,58,-231,57
,704,2023-10-27 11:05:45.84,100,-57,-2049,21,45,-6,-157,-24,-133,90
,705,2023-10-27 11:05:45.85,108,-56,-2048,15,54,8,-155,67,-222,44
,706,2023-10-27 11:05:45.86,106,-54,-2051,12,60,16,-142,-20,-122,81
,707,2023-10-27 11:05:45.87,95,-48,-2055,13,61,21,-141,75,-216,33
,708,2023-10-27 11:05:45.88,87,-48,-2051,18,57,29,-148,-23,-125,85
,709,2023-10-27 11:05:45.89,95,-40,-2061,21,55,29,-150,73,-223,38
,710,2023-10-27 11:05:45.90,101,-32,-2060,30,50,31,-161,-34,-127,97
,711,2023-10-27 11:05:45.91,100,-27,-2069,41,36,28,-146,76,-222,35
,712,2023-10-27 11:05:45.92,108,-22,-2075,49,33,26,-154,-34,-120,94
,713,2023-10-27 11:05:45.93,95,-27,-2070,47,43,16,-141,81,-222,30
,714,2023-10-27 11:05:45.94,95,-33,-2069,55,25,11,-164,-31,-133,97
,715,2023-10-27 11:05:45.95,114,-32,-2068,61,23,4,-148,80,-228,34
,716,2023-10-27 11:05:45.96,100,-33,-2066,64,23,-2,-168,-34,-134,101
,717,2023-10-27 11:05:45.97,100,-40,-2063,64,23,-9,-135,84,-219,25
,718,2023-10-27 11:05:45.98,100,-40,-2069,65,15,-12,-168,-39,-129,103
,719,2023-10-27 11:05:45.99,102,-44,-2071,67,0,-11,-130,89,-219,20
,720,2023-10-27 11:05:46.00,93,-57,-2063,70,4,-12,-171,-42,-129,106
,721,2023-10-27 11:05:46.01,106,-69,-2066,71,4,-9,-136,93,-229,21
,722,2023-10-27 11:05:46.02,105,-63,-2055,70,2,-2,-181,-44,-137,112
,723,2023-10-27 11:05:46.03,106,-63,-2053,71,-1,-3,-133,89,-222,22
,724,2023-10-27 11:05:46.04,96,-60,-2057,75,-7,2,-186,-50,-136,118
,725,2023-10-27 11:05:46.05,108,-60,-2054,76,-4,0,-136,89,-225,23
,726,2023-10-27 11:05:46.06,100,-56,-2068,78,1,-4,-188,-50,-138,119
,727,2023-10-27 11:05:46.07,82,-51,-2062,78,-13,-5,-121,97,-218,12
,728,2023-10-27 11:05:46.08,87,-58,-2064,81,-24,-7,-182,-50,-132,116
,729,2023-10-27 11:05:46.09,90,-50,-2058,84,-30,-9,-130,96,-226,17
,730,2023-10-27 11:05:46.10,93,-56,-2056,86,-34,-9,-198,-54,-144,126
,731,2023-10-27 11:05:46.11,77,-56,-2055,83,-38,-13,-125,98,-223,13
,732,2023-10-27 11:05:46.12,89,-54,-2060,80,-43,-13,-192,-54,-138,123
,733,2023-10-27 11:05:46.13,84,-60,-2060,78,-42,-18,-120,105,-225,7
,734,2023-10-27 11:05:46.14,73,-63,-2054,74,-44,-18,-199,-54,-145,126
,735,2023-10-27 11:05:46.15,84,-70,-2056,67,-43,-18,-117,108,-225,4
,736,2023-10-27 11:05:46.16,75,-59,-2058,58,-35,-17,-196,-57,-139,126
,737,2023-10-27 11:05:46.17,78,-67,-2054,47,-30,-19,-112,103,-215,4
,738,2023-10-27 11:05:46.18,77,-67,-2057,35,-20,-20,-199,-57,-142,128
,739,2023-10-27 11:05:46.19,87,-64,-2050,25,-7,-20,-116,112,-228,2
,740,2023-10-27 11:05:46.20,72,-65,-2052,10,1,-18,-203,-56,-147,129
,741,2023-10-27 11:05:46.21,85,-71,-2056,1,13,-19,-100,118,-218,-9
,742,2023-10-27 11:05:46.22,86,-65,-2049,-7,18,-18,-196,-50,-146,123
,743,2023-10-27 11:05:46.23,94,-62,-2051,-10,27,-15,-98,122,-220,-12
,744,2023-10-27 11:05:46.24,87,-71,-2047,-15,40,-17,-208,-58,-150,133
,745,2023-10-27 11:05:46.25,87,-69,-2046,-17,45,-19,-98,126,-224,-14
,746,2023-10-27 11:05:46.26,74,-73,-2048,-18,47,-19,-202,-50,-152,126
,747,2023-10-27 11:05:46.27,93,-72,-2061,-13,51,-18,-88,127,-215,-19
,748,2023-10-27 11:05:46.28,82,-81,-2052,-5,42,-14,-203,-50,-153,126
,749,2023-10-27 11:05:46.29,86,-78,-2071,1,31,-11,-96,126,-222,-15
,750,2023-10-27 11:05:46.30,88,-86,-2067,1,37,-9,-210,-57,-153,133
,751,2023-10-27 11:05:46.31,73,-73,-2079,8,28,-2,-91,123,-214,-16
,752,2023-10-27 11:05:46.32,90,-77,-2067,21,9,4,-208,-55,-153,131
,753,2023-10-27 11:05:46.33,101,-73,-2071,18,-2,8,-92,118,-210,-13
,754,2023-10-27 11:05:46.34,86,-78,-2064,19,-7,15,-212,-59,-153,135
,755,2023-10-27 11:05:46.35,97,-75,-2067,24,-16,20,-84,126,-210,-21
,756,2023-10-27 11:05:46.36,96,-81,-2054,25,-24,25,-212,-50,-162,131
,757,2023-10-27 11:05:46.37,97,-86,-2056,31,-21,31,-92,129,-221,-18
,758,2023-10-27 11:05:46.38,89,-83,-2058,35,-16,33,-217,-57,-160,137
,759,2023-10-27 11:05:46.39,95,-76,-2046,34,-10,35,-81,125,-206,-22
,760,2023-10-27 11:05:46.40,92,-83,-2047,35,0,37,-210,-56,-154,133
,761,2023-10-27 11:05:46.41,105,-72,-2036,35,7,37,-75,131,-206,-28
,762,2023-10-27 11:05:46.42,93,-78,-2056,34,18,37,-215,-56,-159,135
,763,2023-10-27 11:05:46.43,96,-75,-2051,34,24,36,-80,122,-202,-21
,764,2023-10-27 11:05:46.44,97,-83,-2063,32,24,35,-220,-57,-163,138
,765,2023-10-27 11:05:46.45,99,-78,-2070,34,21,34,-77,131,-208,-27
,766,2023-10-27 11:05:46.46,94,-70,-2068,35,14,34,-206,-47,-159,126
,767,2023-10-27 11:05:46.47,95,-56,-2056,39,13,28,-61,134,-195,-36
,768,2023-10-27 11:05:46.48,88,-63,-2059,37,14,21,-212,-51,-161,131
,769,2023-10-27 11:05:46.49,97,-70,-2065,33,9,17,-79,128,-207,-24
,770,2023-10-27 11:05:46.50,90,-72,-2065,31,7,10,-232,-53,-179,142
,771,2023-10-27 11:05:46.51,92,-69,-2058,36,-1,5,-90,128,-218,-19
,772,2023-10-27 11:05:46.52,109,-67,-2049,37,-4,6,-236,-50,-186,143
,773,2023-10-27 11:05:46.53,93,-66,-2040,32,1,0,-86,127,-213,-20
,774,2023-10-27 11:05:46.54,88,-67,-2041,22,6,-3,-236,-51,-185,143
,775,2023-10-27 11:05:46.55,95,-75,-2053,20,1,-3,-87,124,-211,-18
,776,2023-10-27 11:05:46.56,96,-70,-2058,20,-4,-4,-239,-53,-186,146
,777,2023-10-27 11:05:46.57,92,-70,-2054,20,-5,-4,-80,123,-203,-21
,778,2023-10-27 11:05:46.58,93,-65,-2061,18,-8,-13,-233,-53,-180,143
,779,2023-10-27 11:05:46.59,86,-70,-2073,17,-11,-10,-79,125,-204,-23
,780,2023-10-27 11:05:46.60,79,-76,-2078,14,-14,-14,-238,-47,-191,142
,781,2023-10-27 11:05:46.61,82,-80,-2075,17,-17,-14,-90,121,-211,-15
,782,2023-10-27 11:05:46.62,75,-68,-2063,16,-14,-16,-245,-48,-197,146
,783,2023-10-27 11:05:46.63,88,-79,-2064,10,-11,-17,-96,121,-217,-12
,784,2023-10-27 11:05:46.64,84,-71,-2058,9,-11,-18,-255,-50,-205,152
,785,2023-10-27 11:05:46.65,85,-68,-2059,7,-7,-22,-109,100,-209,4
,786,2023-10-27 11:05:46.66,94,-79,-2052,3,-8,-18,-258,-62,-196,160
,787,2023-10-27 11:05:46.67,104,-78,-2037,-1,-1,-18,-100,103,-203,-1
,788,2023-10-27 11:05:46.68,93,-91,-2055,6,9,-18,-260,-58,-202,159
,789,2023-10-27 11:05:46.69,85,-101,-2063,8,15,-17,-110,93,-203,8
,790,2023-10-27 11:05:46.70,80,-84,-2063,7,28,-11,-270,-64,-206,167
,791,2023-10-27 11:05:46.71,79,-86,-2063,8,20,-5,-110,92,-202,9
,792,2023-10-27 11:05:46.72,83,-101,-2077,9,7,2,-276,-61,-215,168
,793,2023-10-27 11:05:46.73,82,-93,-2068,11,-9,9,-130,93,-223,18
,794,2023-10-27 11:05:46.74,84,-85,-2056,9,-11,14,-284,-57,-227,170
,795,2023-10-27 11:05:46.75,87,-78,-2052,3,-15,17,-122,92,-214,15
,796,2023-10-27 11:05:46.76,76,-73,-2051,-2,-23,19,-287,-68,-219,177
,797,2023-10-27 11:05:46.77,84,-77,-2066,-8,-29,22,-118,82,-200,18
,798,2023-10-27 11:05:46.78,78,-79,-2073,-9,-38,23,-281,-64,-217,172
,799,2023-10-27 11:05:46.79,92,-80,-2064,-8,-42,24,-113,90,-203,11
,800,2023-10-27 11:05:46.80,80,-88,-2058,-7,-47,25,-249,-44,-205,146
,801,2023-10-27 11:05:46.81,91,-91,-2047,-5,-43,22,-78,100,-178,-11
,802,2023-10-27 11:05:46.82,100,-77,-2065,-9,-23,21,-228,-43,-185,135
,803,2023-10-27 11:05:46.83,68,-84,-2054,-14,-13,16,-72,94,-166,-11
,804,2023-10-27 11:05:46.84,84,-74,-2059,-12,-29,22,-219,-40,-179,129
,805,2023-10-27 11:05:46.85,103,-76,-2056,-18,-12,22,-55,96,-151,-20
,806,2023-10-27 11:05:46.86,78,-73,-2053,-23,-11,20,-197,-33,-164,115
,807,2023-10-27 11:05:46.87,93,-90,-2043,-25,-10,21,-39,97,-136,-29
,808,2023-10-27 11:05:46.88,83,-83,-2039,-19,1,18,-209,-32,-177,120
,809,2023-10-27 11:05:46.89,71,-64,-2049,-13,4,18,-70,86,-156,-8
,810,2023-10-27 11:05:46.90,67,-66,-2058,-17,6,17,-228,-42,-186,135
,811,2023-10-27 11:05:46.91,85,-71,-2064,-26,4,17,-82,73,-155,4
,812,2023-10-27 11:05:46.92,92,-73,-2053,-26,10,16,-255,-50,-205,152
,813,2023-10-27 11:05:46.93,91,-76,-2050,-20,10,13,-121,62,-183,29
,814,2023-10-27 11:05:46.94,92,-73,-2049,-17,19,10,-274,-42,-232,158
,815,2023-10-27 11:05:46.95,93,-73,-2050,-16,23,10,-121,74,-195,23
,816,2023-10-27 11:05:46.96,89,-79,-2060,-10,28,7,-273,-37,-236,155
,817,2023-10-27 11:05:46.97,95,-69,-2053,-3,30,5,-128,60,-188,34
,818,2023-10-27 11:05:46.98,92,-67,-2053,0,33,2,-284,-43,-241,163
,819,2023-10-27 11:05:46.99,85,-58,-2063,-4,32,4,-144,54,-198,45
,820,2023-10-27 11:05:47.00,81,-53,-2070,-9,29,-1,-297,-46,-251,171
,821,2023-10-27 11:05:47.01,77,-55,-2080,-10,21,2,-156,51,-207,52
,822,2023-10-27 11:05:47.02,86,-51,-2066,-9,8,3,-305,-45,-260,175
,823,2023-10-27 11:05:47.03,82,-58,-2062,-7,3,1,-165,44,-209,60
,824,2023-10-27 11:05:47.04,86,-65,-2062,-7,0,3,-316,-45,-271,180
,825,2023-10-27 11:05:47.05,89,-71,-2065,-8,-2,4,-177,39,-216,69
,826,2023-10-27 11:05:47.06,85,-71,-2059,-4,0,7,-323,-53,-270,188
,827,2023-10-27 11:05:47.07,91,-77,-2052,5,4,7,-173,32,-205,70
,828,2023-10-27 11:05:47.08,85,-65,-2054,9,12,9,-315,-42,-273,178
,829,2023-10-27 11:05:47.09,93,-62,-2039,9,24,7,-188,30,-218,79
,830,2023-10-27 11:05:47.10,87,-64,-2042,15,35,6,-320,-42,-278,181
,831,2023-10-27 11:05:47.11,84,-65,-2051,15,38,0,-192,20,-212,86
,832,2023-10-27 11:05:47.12,98,-64,-2054,21,41,2,-336,-57,-279,196
,833,2023-10-27 11:05:47.13,92,-73,-2057,25,45,0,-215,6,-221,104
,834,2023-10-27 11:05:47.14,89,-81,-2055,26,44,0,-349,-55,-294,202
,835,2023-10-27 11:05:47.15,108,-74,-2053,25,47,2,-222,-2,-220,112
,836,2023-10-27 11:05:47.16,101,-64,-2048,32,54,-1,-344,-71,-273,207
,837,2023-10-27 11:05:47.17,70,-69,-2028,44,42,-7,-231,-22,-209,126
,838,2023-10-27 11:05:47.18,112,-57,-2078,61,1,-4,-347,-63,-284,205
,839,2023-10-27 11:05:47.19,107,-61,-2076,50,29,-11,-219,-12,-207,115
,840,2023-10-27 11:05:47.20,90,-66,-2084,35,37,-13,-319,-54,-265,186
,841,2023-10-27 11:05:47.21,103,-74,-2073,30,21,-13,-205,-17,-188,111
,842,2023-10-27 11:05:47.22,99,-74,-2064,33,12,-11,-305,-50,-255,177
,843,2023-10-27 11:05:47.23,95,-77,-2060,35,1,-8,-201,-18,-183,109
,844,2023-10-27 11:05:47.24,99,-82,-2052,32,-3,-5,-308,-48,-260,178
,845,2023-10-27 11:05:47.25,98,-79,-2047,24,1,-2,-201,-24,-177,112
,846,2023-10-27 11:05:47.26,105,-76,-2050,21,5,0,-291,-44,-247,167
,847,2023-10-27 11:05:47.27,97,-82,-2056,17,5,5,-190,-19,-171,104
,848,2023-10-27 11:05:47.28,101,-82,-2057,11,9,8,-280,-30,-250,155
,849,2023-10-27 11:05:47.29,99,-83,-2053,4,10,15,-184,-17,-167,100
,850,2023-10-27 11:05:47.30,95,-80,-2058,-3,14,23,-271,-25,-246,148
,851,2023-10-27 11:05:47.31,104,-81,-2066,-11,20,30,-183,-19,-164,101
,852,2023-10-27 11:05:47.32,107,-70,-2063,-13,19,36,-267,-11,-256,139
,853,2023-10-27 11:05:47.33,93,-74,-2072,-17,12,36,-183,-8,-175,95
,854,2023-10-27 11:05:47.34,111,-75,-2064,-15,5,37,-264,-11,-253,137
,855,2023-10-27 11:05:47.35,103,-77,-2062,-14,0,39,-197,-30,-167,113
,856,2023-10-27 11:05:47.36,116,-73,-2057,-11,-4,38,-269,-24,-245,146
,857,2023-10-27 11:05:47.37,101,-83,-2050,-9,-2,37,-200,-40,-160,120
,858,2023-10-27 11:05:47.38,102,-78,-2057,-3,-1,32,-281,-31,-250,156
,859,2023-10-27 11:05:47.39,96,-72,-2056,0,-4,29,-213,-49,-164,131
,860,2023-10-27 11:05:47.40,100,-59,-2061,3,-8,25,-277,-26,-251,151
,861,2023-10-27 11:05:47.41,104,-63,-2038,8,-10,20,-217,-43,-174,130
,862,2023-10-27 11:05:47.42,102,-79,-2058,12,-12,16,-280,-12,-268,146
,863,2023-10-27 11:05:47.43,92,-81,-2042,14,-20,18,-216,-45,-171,130
,864,2023-10-27 11:05:47.44,106,-73,-2064,19,-13,13,-261,-10,-251,135
,865,2023-10-27 11:05:47.45,97,-67,-2065,17,-16,10,-212,-47,-165,129
,866,2023-10-27 11:05:47.46,95,-53,-2064,9,-19,9,-258,1,-259,128
,867,2023-10-27 11:05:47.47,82,-62,-2068,7,-30,9,-216,-46,-170,131
,868,2023-10-27 11:05:47.48,93,-78,-2062,4,-28,7,-248,4,-252,122
,869,2023-10-27 11:05:47.49,97,-84,-2056,5,-27,6,-211,-47,-164,129
,870,2023-10-27 11:05:47.50,95,-79,-2042,6,-20,5,-247,12,-259,117
,871,2023-10-27 11:05:47.51,89,-75,-2059,-1,-13,4,-210,-47,-163,128
,872,2023-10-27 11:05:47.52,79,-63,-2064,-10,-12,5,-236,12,-248,112
,873,2023-10-27 11:05:47.53,88,-62,-2066,-15,-11,5,-214,-51,-163,132
,874,2023-10-27 11:05:47.54,82,-59,-2063,-18,-16,4,-236,22,-258,107
,875,2023-10-27 11:05:47.55,84,-57,-2042,-22,-19,5,-212,-48,-164,130
,876,2023-10-27 11:05:47.56,91,-56,-2048,-27,-16,1,-238,18,-256,110
,877,2023-10-27 11:05:47.57,94,-65,-2047,-31,-15,1,-228,-63,-165,145
,878,2023-10-27 11:05:47.58,86,-68,-2054,-31,-12,0,-250,12,-262,119
,879,2023-10-27 11:05:47.59,87,-71,-2050,-28,-10,2,-232,-65,-167,148
,880,2023-10-27 11:05:47.60,85,-67,-2053,-26,-6,3,-240,23,-263,108
,881,2023-10-27 11:05:47.61,89,-60,-2063,-27,-4,3,-238,-65,-173,151
,882,2023-10-27 11:05:47.62,83,-61,-2062,-27,-5,3,-250,27,-277,111
,883,2023-10-27 11:05:47.63,86,-62,-2061,-32,-7,5,-254,-70,-184,162
,884,2023-10-27 11:05:47.64,83,-63,-2062,-32,-8,8,-253,22,-275,115
,885,2023-10-27 11:05:47.65,90,-66,-2057,-23,-6,11,-257,-70,-187,163
,886,2023-10-27 11:05:47.66,86,-72,-2052,-15,1,12,-247,32,-279,107
,887,2023-10-27 11:05:47.67,93,-64,-2044,-9,7,14,-257,-71,-186,164
,888,2023-10-27 11:05:47.68,89,-58,-2053,-10,16,13,-250,33,-283,108
,889,2023-10-27 11:05:47.69,93,-57,-2068,-14,13,13,-265,-81,-184,173
,890,2023-10-27 11:05:47.70,81,-48,-2068,-17,11,17,-238,38,-276,100
,891,2023-10-27 11:05:47.71,90,-54,-2069,-18,7,17,-251,-68,-183,159
,892,2023-10-27 11:05:47.72,85,-49,-2064,-19,0,17,-236,36,-272,100
,893,2023-10-27 11:05:47.73,86,-39,-2059,-18,-3,17,-258,-81,-177,169
,894,2023-10-27 11:05:47.74,84,-51,-2063,-13,-9,13,-218,51,-269,83
,895,2023-10-27 11:05:47.75,78,-57,-2059,-10,-13,13,-243,-64,-179,153
,896,2023-10-27 11:05:47.76,94,-65,-2060,-1,-16,12,-201,64,-265,68
,897,2023-10-27 11:05:47.77,100,-70,-2048,9,-11,11,-235,-67,-168,151
,898,2023-10-27 11:05:47.78,91,-53,-2050,18,0,9,-193,69,-262,62
,899,2023-10-27 11:05:47.79,90,-48,-2042,30,9,6,-221,-48,-173,134
,900,2023-10-27 11:05:47.80,89,-38,-2045,27,14,5,-161,100,-261,30
,901,2023-10-27 11:05:47.81,78,-43,-2057,19,15,7,-196,-32,-164,114
,902,2023-10-27 11:05:47.82,78,-52,-2063,16,8,10,-136,118,-254,9
,903,2023-10-27 11:05:47.83,92,-60,-2054,19,9,12,-194,-31,-163,112
,904,2023-10-27 11:05:47.84,76,-71,-2055,21,12,15,-120,125,-245,-2
,905,2023-10-27 11:05:47.85,79,-72,-2057,23,15,20,-172,-28,-144,100
,906,2023-10-27 11:05:47.86,91,-77,-2062,22,18,27,-108,118,-226,-5
,907,2023-10-27 11:05:47.87,105,-66,-2045,28,26,29,-181,-34,-147,107
,908,2023-10-27 11:05:47.88,104,-67,-2054,33,38,29,-128,108,-236,10
,909,2023-10-27 11:05:47.89,109,-60,-2058,28,44,27,-196,-44,-152,120
,910,2023-10-27 11:05:47.90,95,-58,-2067,25,43,28,-123,104,-227,9
,911,2023-10-27 11:05:47.91,96,-62,-2077,26,37,28,-205,-64,-141,134
,912,2023-10-27 11:05:47.92,96,-60,-2074,34,30,26,-136,82,-218,27
,913,2023-10-27 11:05:47.93,87,-55,-2067,37,20,29,-225,-79,-146,152
,914,2023-10-27 11:05:47.94,86,-44,-2071,34,11,28,-143,74,-217,34
,915,2023-10-27 11:05:47.95,87,-44,-2067,26,-1,28,-228,-96,-132,162
,916,2023-10-27 11:05:47.96,76,-47,-2070,30,-10,27,-142,59,-201,41
,917,2023-10-27 11:05:47.97,91,-45,-2049,30,-19,26,-237,-111,-126,174
,918,2023-10-27 11:05:47.98,79,-45,-2054,28,-24,24,-150,56,-206,47
,919,2023-10-27 11:05:47.99,93,-50,-2062,18,-27,22,-252,-109,-143,180
,920,2023-10-27 11:05:48.00,74,-56,-2058,9,-34,20,-156,55,-211,50
,921,2023-10-27 11:05:48.01,89,-60,-2059,8,-38,21,-260,-111,-149,185
,922,2023-10-27 11:05:48.02,88,-66,-2059,10,-31,23,-155,62,-217,46
,923,2023-10-27 11:05:48.03,86,-69,-2044,10,-25,23,-264,-106,-158,185
,924,2023-10-27 11:05:48.04,87,-70,-2049,9,-21,23,-159,61,-220,49
,925,2023-10-27 11:05:48.05,91,-77,-2054,4,-13,26,-268,-110,-158,189
,926,2023-10-27 11:05:48.06,96,-77,-2063,4,-9,28,-158,64,-222,47
,927,2023-10-27 11:05:48.07,87,-71,-2052,12,-1,27,-277,-112,-165,194
,928,2023-10-27 11:05:48.08,75,-61,-2068,16,9,25,-168,70,-238,49
,929,2023-10-27 11:05:48.09,89,-49,-2055,7,4,24,-289,-102,-187,195
,930,2023-10-27 11:05:48.10,84,-50,-2064,-1,-3,24,-175,72,-247,51
,931,2023-10-27 11:05:48.11,97,-49,-2062,0,-7,18,-298,-108,-190,203
,932,2023-10-27 11:05:48.12,82,-51,-2054,2,-5,16,-181,64,-245,58
,933,2023-10-27 11:05:48.13,101,-51,-2036,-1,-3,8,-305,-110,-195,207
,934,2023-10-27 11:05:48.14,83,-60,-2048,2,1,3,-192,62,-254,65
,935,2023-10-27 11:05:48.15,74,-59,-2061,1,0,1,-329,-115,-214,222
,936,2023-10-27 11:05:48.16,98,-62,-2047,6,0,-1,-200,69,-269,65
,937,2023-10-27 11:05:48.17,96,-70,-2040,10,9,0,-326,-110,-216,218
,938,2023-10-27 11:05:48.18,92,-62,-2043,13,16,-3,-191,61,-252,65
,939,2023-10-27 11:05:48.19,94,-64,-2047,11,26,-3,-323,-116,-207,219
,940,2023-10-27 11:05:48.20,91,-61,-2064,5,30,-1,-191,64,-255,63
,941,2023-10-27 11:05:48.21,73,-69,-2068,6,26,3,-339,-116,-223,227
,942,2023-10-27 11:05:48.22,82,-70,-2063,3,20,8,-207,58,-265,74
,943,2023-10-27 11:05:48.23,87,-68,-2055,2,17,11,-347,-116,-231,231
,944,2023-10-27 11:05:48.24,94,-67,-2058,-4,17,18,-199,59,-258,70
,945,2023-10-27 11:05:48.25,96,-59,-2056,-4,19,22,-338,-122,-216,230
,946,2023-10-27 11:05:48.26,92,-70,-2058,-5,20,27,-186,59,-245,63
,947,2023-10-27 11:05:48.27,90,-64,-2053,-5,22,32,-333,-117,-216,225
,948,2023-10-27 11:05:48.28,91,-55,-2058,-8,17,31,-192,65,-257,63
,949,2023-10-27 11:05:48.29,93,-51,-2067,-5,15,29,-345,-125,-220,235
,950,2023-10-27 11:05:48.30,90,-52,-2057,-2,8,29,-178,58,-236,60
,951,2023-10-27 11:05:48.31,94,-57,-2059,2,6,28,-330,-110,-220,220
,952,2023-10-27 11:05:48.32,99,-51,-2054,10,5,24,-183,70,-253,56
,953,2023-10-27 11:05:48.33,85,-51,-2062,15,1,20,-335,-105,-230,220
,954,2023-10-27 11:05:48.34,89,-41,-2056,12,-1,16,-182,68,-250,57
,955,2023-10-27 11:05:48.35,86,-51,-2087,5,-11,17,-333,-105,-228,219
,956,2023-10-27 11:05:48.36,89,-44,-2060,6,-27,18,-172,69,-241,51
,957,2023-10-27 11:05:48.37,86,-55,-2050,16,-17,15,-325,-102,-223,213
,958,2023-10-27 11:05:48.38,79,-70,-2049,17,-20,14,-166,74,-240,46
,959,2023-10-27 11:05:48.39,90,-70,-2046,9,-13,16,-323,-91,-232,207
,960,2023-10-27 11:05:48.40,94,-72,-2055,12,-1,16,-164,73,-237,45
,961,2023-10-27 11:05:48.41,93,-80,-2051,21,9,16,-319,-98,-221,208
,962,2023-10-27 11:05:48.42,90,-80,-2058,22,15,21,-158,64,-222,47
,963,2023-10-27 11:05:48.43,87,-83,-2047,21,27,26,-316,-96,-220,206
,964,2023-10-27 11:05:48.44,92,-82,-2054,22,36,24,-159,64,-223,47
,965,2023-10-27 11:05:48.45,78,-73,-2064,20,42,27,-316,-96,-220,206
,966,2023-10-27 11:05:48.46,100,-70,-2067,18,41,31,-162,63,-225,49
,967,2023-10-27 11:05:48.47,100,-64,-2061,16,42,34,-309,-98,-211,203
,968,2023-10-27 11:05:48.48,82,-54,-2059,14,39,32,-143,57,-200,43
,969,2023-10-27 11:05:48.49,85,-55,-2056,10,35,34,-305,-89,-216,197
,970,2023-10-27 11:05:48.50,92,-54,-2058,5,31,30,-148,70,-218,39
,971,2023-10-27 11:05:48.51,97,-48,-2059,8,22,27,-308,-90,-218,199
,972,2023-10-27 11:05:48.52,92,-51,-2061,8,17,23,-144,55,-199,44
,973,2023-10-27 11:05:48.53,88,-55,-2063,8,8,19,-315,-92,-223,203
,974,2023-10-27 11:05:48.54,86,-63,-2065,11,2,17,-166,58,-224,54
,975,2023-10-27 11:05:48.55,95,-62,-2064,16,-4,15,-327,-89,-238,208
,976,2023-10-27 11:05:48.56,97,-60,-2056,20,-10,15,-168,48,-216,60
,977,2023-10-27 11:05:48.57,105,-62,-2048,19,-14,15,-336,-90,-246,213
,978,2023-10-27 11:05:48.58,104,-64,-2048,20,-11,15,-182,48,-230,67
,979,2023-10-27 11:05:48.59,97,-71,-2061,22,-8,17,-340,-92,-248,216
,980,2023-10-27 11:05:48.60,85,-74,-2051,23,-6,16,-175,46,-221,64
,981,2023-10-27 11:05:48.61,86,-84,-2047,26,-2,22,-332,-91,-241,211
,982,2023-10-27 11:05:48.62,84,-86,-2060,29,3,26,-176,37,-213,69
,983,2023-10-27 11:05:48.63,86,-78,-2061,31,6,27,-330,-89,-241,209
,984,2023-10-27 11:05:48.64,85,-76,-2067,30,10,34,-174,41,-215,66
,985,2023-10-27 11:05:48.65,93,-63,-2057,31,12,38,-338,-84,-254,211
,986,2023-10-27 11:05:48.66,103,-63,-2059,30,16,37,-189,40,-229,74
,987,2023-10-27 11:05:48.67,78,-61,-2060,24,17,36,-342,-77,-265,209
,988,2023-10-27 11:05:48.68,92,-68,-2063,21,15,34,-196,33,-229,81
,989,2023-10-27 11:05:48.69,86,-64,-2068,22,9,36,-353,-81,-272,217
,990,2023-10-27 11:05:48.70,93,-62,-2055,25,0,36,-213,26,-239,93
,991,2023-10-27 11:05:48.71,92,-68,-2058,29,-7,34,-362,-68,-294,215
,992,2023-10-27 11:05:48.72,84,-64,-2062,29,-10,35,-214,32,-246,91
,993,2023-10-27 11:05:48.73,84,-59,-2052,30,-10,33,-375,-77,-298,226
,994,2023-10-27 11:05:48.74,83,-50,-2051,33,-13,32,-226,28,-254,99
,995,2023-10-27 11:05:48.75,90,-60,-2051,33,-15,27,-378,-68,-310,223
,996,2023-10-27 11:05:48.76,85,-60,-2051,30,-17,26,-237,27,-264,105
,997,2023-10-27 11:05:48.77,75,-67,-2062,30,-19,25,-391,-70,-321,230
,998,2023-10-27 11:05:48.78,85,-70,-2058,31,-18,25,-248,19,-267,114
,999,2023-10-27 11:05:48.79,82,-82,-2056,30,-19,26,-397,-74,-323,235
,1000,2023-10-27 11:05:48.80,85,-70,-2058,25,-19,24,-249,12,-261,118
,1001,2023-10-27 11:05:48.81,75,-69,-2055,24,-14,26,-374,-73,-301,223
,1002,2023-10-27 11:05:48.82,92,-67,-2056,24,-9,25,-222,10,-232,106
,1003,2023-10-27 11:05:48.83,84,-70,-2064,23,-7,25,-356,-73,-283,214
,1004,2023-10-27 11:05:48.84,85,-69,-2057,24,-5,24,-218,0,-218,109
,1005,2023-10-27 11:05:48.85,93,-74,-2057,23,-2,23,-350,-76,-274,213
,1006,2023-10-27 11:05:48.86,89,-74,-2051,23,1,21,-210,-10,-200,110
,1007,2023-10-27 11:05:48.87,101,-73,-2055,21,4,20,-332,-81,-251,206
,1008,2023-10-27 11:05:48.88,90,-79,-2059,23,3,18,-196,-16,-180,106
,1009,2023-10-27 11:05:48.89,89,-76,-2058,25,4,17,-316,-77,-239,196
,1010,2023-10-27 11:05:48.90,86,-69,-2055,29,3,14,-183,-16,-167,99
,1011,2023-10-27 11:05:48.91,103,-82,-2052,30,5,11,-310,-74,-236,192
,1012,2023-10-27 11:05:48.92,90,-88,-2063,35,2,15,-185,-18,-167,101
,1013,2023-10-27 11:05:48.93,81,-84,-2063,38,-4,15,-300,-70,-230,185
,1014,2023-10-27 11:05:48.94,79,-88,-2050,38,-3,18,-181,-21,-160,101
,1015,2023-10-27 11:05:48.95,92,-85,-2055,33,10,19,-288,-73,-215,180
,1016,2023-10-27 11:05:48.96,88,-84,-2049,28,9,18,-170,-29,-141,99
,1017,2023-10-27 11:05:48.97,96,-87,-2055,29,0,18,-283,-69,-214,176
,1018,2023-10-27 11:05:48.98,98,-83,-2063,25,8,17,-180,-27,-153,103
,1019,2023-10-27 11:05:48.99,82,-89,-2063,21,1,20,-289,-61,-228,175
,1020,2023-10-27 11:05:49.00,80,-87,-2059,16,-6,24,-184,-33,-151,108
,1021,2023-10-27 11:05:49.01,89,-87,-2059,11,-3,25,-286,-56,-230,171
,1022,2023-10-27 11:05:49.02,87,-89,-2061,11,-9,26,-180,-27,-153,103
,1023,2023-10-27 11:05:49.03,83,-87,-2054,10,-13,25,-273,-46,-227,159
,1024,2023-10-27 11:05:49.04,88,-88,-2058,6,-6,23,-176,-28,-148,102
,1025,2023-10-27 11:05:49.05,89,-87,-2052,3,-6,17,-268,-45,-223,156
,1026,2023-10-27 11:05:49.06,101,-79,-2062,-1,-4,19,-176,-31,-145,103
,1027,2023-10-27 11:05:49.07,82,-93,-2049,-8,13,13,-269,-43,-226,156
,1028,2023-10-27 11:05:49.08,75,-87,-2059,-8,-8,11,-175,-29,-146,102
,1029,2023-10-27 11:05:49.09,86,-92,-2051,-10,-12,13,-265,-43,-222,154
,1030,2023-10-27 11:05:49.10,89,-92,-2061,-9,-16,14,-186,-41,-145,113
,1031,2023-10-27 11:05:49.11,86,-90,-2054,-12,-14,11,-282,-46,-236,164
,1032,2023-10-27 11:05:49.12,84,-91,-2055,-17,-16,12,-193,-39,-154,116
,1033,2023-10-27 11:05:49.13,78,-87,-2059,-20,-16,11,-265,-32,-233,148
,1034,2023-10-27 11:05:49.14,90,-81,-2067,-25,-24,12,-196,-45,-151,120
,1035,2023-10-27 11:05:49.15,79,-87,-2061,-27,-28,11,-271,-25,-246,148
,1036,2023-10-27 11:05:49.16,91,-84,-2058,-24,-23,8,-204,-39,-165,121
,1037,2023-10-27 11:05:49.17,84,-83,-2053,-25,-9,7,-280,-22,-258,151
,1038,2023-10-27 11:05:49.18,79,-84,-2047,-22,-12,5,-210,-44,-166,127
,1039,2023-10-27 11:05:49.19,86,-84,-2058,-14,-22,9,-270,-13,-257,141
,1040,2023-10-27 11:05:49.20,87,-84,-2056,-3,-14,8,-210,-43,-167,126
,1041,2023-10-27 11:05:49.21,66,-82,-2060,-2,1,6,-271,-14,-257,142
,1042,2023-10-27 11:05:49.22,72,-83,-2050,-5,2,6,-214,-50,-164,132
,1043,2023-10-27 11:05:49.23,75,-80,-2055,-3,6,10,-267,-5,-262,136
,1044,2023-10-27 11:05:49.24,79,-69,-2050,2,6,11,-222,-48,-174,135
,1045,2023-10-27 11:05:49.25,76,-74,-2050,-1,13,10,-262,-3,-259,132
,1046,2023-10-27 11:05:49.26,73,-62,-2063,-6,14,12,-213,-56,-157,134
,1047,2023-10-27 11:05:49.27,79,-57,-2066,-12,7,7,-256,-2,-254,129
,1048,2023-10-27 11:05:49.28,82,-58,-2064,-9,-7,4,-219,-53,-166,136
,1049,2023-10-27 11:05:49.29,69,-57,-2063,-11,-6,0,-248,7,-255,120
,1050,2023-10-27 11:05:49.30,80,-58,-2057,-13,-7,-4,-212,-55,-157,133
,1051,2023-10-27 11:05:49.31,92,-57,-2053,-19,-9,-6,-244,13,-257,115
,1052,2023-10-27 11:05:49.32,82,-51,-2071,-25,-13,-8,-220,-58,-162,139
,1053,2023-10-27 11:05:49.33,81,-57,-2060,-28,-8,-7,-239,9,-248,115
,1054,2023-10-27 11:05:49.34,70,-68,-2065,-26,-16,-7,-216,-63,-153,139
,1055,2023-10-27 11:05:49.35,82,-69,-2062,-20,-23,-3,-234,25,-259,104
,1056,2023-10-27 11:05:49.36,81,-77,-2056,-23,-15,2,-220,-53,-167,136
,1057,2023-10-27 11:05:49.37,80,-71,-2058,-21,-3,11,-231,27,-258,102
,1058,2023-10-27 11:05:49.38,66,-76,-2054,-19,-4,14,-218,-57,-161,137
,1059,2023-10-27 11:05:49.39,86,-71,-2055,-10,-9,22,-220,30,-250,95
,1060,2023-10-27 11:05:49.40,80,-73,-2055,-6,0,26,-218,-60,-158,139
,1061,2023-10-27 11:05:49.41,69,-76,-2048,-6,6,31,-222,41,-263,90
,1062,2023-10-27 11:05:49.42,82,-78,-2058,-4,19,36,-223,-55,-168,139
,1063,2023-10-27 11:05:49.43,75,-69,-2060,3,9,38,-213,44,-257,84
,1064,2023-10-27 11:05:49.44,77,-61,-2064,9,8,38,-222,-60,-162,141
,1065,2023-10-27 11:05:49.45,78,-53,-2056,14,8,39,-211,52,-263,79
,1066,2023-10-27 11:05:49.46,80,-45,-2059,9,10,36,-228,-57,-171,142
,1067,2023-10-27 11:05:49.47,75,-46,-2066,8,6,28,-209,45,-254,82
,1068,2023-10-27 11:05:49.48,61,-51,-2079,10,-5,23,-233,-66,-167,149
,1069,2023-10-27 11:05:49.49,67,-51,-2075,10,-15,21,-202,58,-260,72
,1070,2023-10-27 11:05:49.50,86,-53,-2055,9,-2,16,-239,-68,-171,153
