// Data mode  : Full
// Data quality  : High
// Acceleration sensor's range  : 16g
// Gyroscope sensor's range  : 2000dps
//
//ARTIFACT,NUM,DATE,ACC_X,ACC_Y,ACC_Z,GYRO_X,GYRO_Y,GYRO_Z,EOG_L,EOG_R,EOG_H,EOG_V
,1,2023-10-27 11:19:08.76,257,-124,-2062,31,14,54,8,-1133,1141,562
,2,2023-10-27 11:19:08.77,260,-112,-2068,25,7,53,-160,-1196,1036,678
,3,2023-10-27 11:19:08.78,265,-108,-2067,27,2,44,26,-1133,1159,553
,4,2023-10-27 11:19:08.79,262,-102,-2054,28,-5,33,-150,-1198,1048,674
,5,2023-10-27 11:19:08.80,268,-89,-2055,29,-13,17,32,-1123,1155,545
,6,2023-10-27 11:19:08.81,262,-66,-2061,22,-18,2,-139,-1190,1051,664
,7,2023-10-27 11:19:08.82,258,-60,-2070,11,-27,-19,40,-1119,1159,539
,8,2023-10-27 11:19:08.83,259,-42,-2080,3,-47,-42,-132,-1193,1061,662
,9,2023-10-27 11:19:08.84,252,-73,-2081,-1,-66,-65,49,-1119,1168,535
,10,2023-10-27 11:19:08.85,249,-73,-2083,1,-93,-85,-120,-1196,1076,658
,11,2023-10-27 11:19:08.86,270,-71,-2046,1,-118,-103,62,-1120,1182,529
,12,2023-10-27 11:19:08.87,253,-95,-2073,18,-116,-130,-93,-1200,1107,646
,13,2023-10-27 11:19:08.88,256,-91,-2087,37,-151,-156,83,-1120,1203,518
,14,2023-10-27 11:19:08.89,264,-75,-2056,60,-179,-186,-99,-1200,1101,649
,15,2023-10-27 11:19:08.90,270,-79,-2033,93,-200,-221,72,-1120,1192,524
,16,2023-10-27 11:19:08.91,262,-86,-2061,122,-217,-256,-110,-1205,1095,657
,17,2023-10-27 11:19:08.92,264,-87,-2081,134,-232,-287,53,-1119,1172,533
,18,2023-10-27 11:19:08.93,263,-97,-2117,132,-226,-319,-121,-1204,1083,662
,19,2023-10-27 11:19:08.94,250,-122,-2142,106,-233,-354,55,-1119,1174,532
,20,2023-10-27 11:19:08.95,250,-121,-2105,88,-258,-368,-115,-1208,1093,661
,21,2023-10-27 11:19:08.96,242,-127,-2064,85,-274,-377,54,-1123,1177,534
,22,2023-10-27 11:19:08.97,222,-139,-2076,82,-289,-382,-130,-1210,1080,670
,23,2023-10-27 11:19:08.98,234,-162,-2076,65,-306,-377,30,-1114,1144,542
,24,2023-10-27 11:19:08.99,277,-255,-2039,66,-311,-354,-134,-1201,1067,667
,25,2023-10-27 11:19:09.00,193,-150,-2017,101,-284,-368,31,-1115,1146,542
,26,2023-10-27 11:19:09.01,226,-230,-2030,106,-295,-342,-125,-1209,1084,667
,27,2023-10-27 11:19:09.02,192,-243,-2055,71,-308,-309,32,-1121,1153,544
,28,2023-10-27 11:19:09.03,210,-229,-2050,57,-315,-265,-131,-1210,1079,670
,29,2023-10-27 11:19:09.04,189,-251,-2038,67,-306,-230,24,-1118,1142,547
,30,2023-10-27 11:19:09.05,198,-272,-2004,73,-289,-189,-135,-1212,1077,673
,31,2023-10-27 11:19:09.06,203,-280,-1988,62,-267,-142,27,-1116,1143,544
,32,2023-10-27 11:19:09.07,199,-294,-1974,50,-235,-93,-120,-1210,1090,665
,33,2023-10-27 11:19:09.08,184,-294,-1966,50,-193,-50,43,-1112,1155,534
,34,2023-10-27 11:19:09.09,175,-295,-2003,65,-171,-2,-90,-1210,1120,650
,35,2023-10-27 11:19:09.10,171,-292,-1989,71,-146,46,63,-1115,1178,526
,36,2023-10-27 11:19:09.11,165,-286,-1985,82,-122,83,-83,-1213,1130,648
,37,2023-10-27 11:19:09.12,175,-285,-1979,94,-97,122,59,-1110,1169,525
,38,2023-10-27 11:19:09.13,166,-275,-1981,106,-68,153,-76,-1210,1134,643
,39,2023-10-27 11:19:09.14,156,-282,-1980,121,-32,175,65,-1113,1178,524
,40,2023-10-27 11:19:09.15,145,-285,-2010,143,-10,199,-63,-1217,1154,640
,41,2023-10-27 11:19:09.16,144,-279,-2017,164,5,222,73,-1119,1192,523
,42,2023-10-27 11:19:09.17,168,-278,-2006,187,26,240,-76,-1220,1144,648
,43,2023-10-27 11:19:09.18,157,-291,-2017,205,56,254,46,-1115,1161,534
,44,2023-10-27 11:19:09.19,153,-281,-2027,218,78,262,-79,-1217,1138,648
,45,2023-10-27 11:19:09.20,147,-274,-2025,232,87,273,54,-1112,1166,529
,46,2023-10-27 11:19:09.21,140,-261,-2041,233,101,281,-90,-1217,1127,653
,47,2023-10-27 11:19:09.22,137,-249,-2045,227,99,284,18,-1114,1132,548
,48,2023-10-27 11:19:09.23,135,-238,-2053,217,98,290,-113,-1216,1103,664
,49,2023-10-27 11:19:09.24,146,-233,-2059,200,89,293,13,-1109,1122,548
,50,2023-10-27 11:19:09.25,149,-235,-2036,183,80,289,-133,-1214,1081,673
,51,2023-10-27 11:19:09.26,147,-243,-2037,163,79,282,-26,-1112,1086,569
,52,2023-10-27 11:19:09.27,143,-249,-2042,146,75,273,-163,-1215,1052,689
,53,2023-10-27 11:19:09.28,157,-248,-2044,123,73,265,-35,-1107,1072,571
,54,2023-10-27 11:19:09.29,147,-254,-2042,111,65,254,-142,-1210,1068,676
,55,2023-10-27 11:19:09.30,159,-253,-2042,98,64,241,-28,-1108,1080,568
,56,2023-10-27 11:19:09.31,130,-249,-2029,86,71,222,-146,-1215,1069,680
,57,2023-10-27 11:19:09.32,134,-243,-2048,75,69,202,-27,-1118,1091,572
,58,2023-10-27 11:19:09.33,137,-217,-2073,50,54,183,-132,-1218,1086,675
,59,2023-10-27 11:19:09.34,129,-208,-2120,8,42,164,-17,-1109,1092,563
,60,2023-10-27 11:19:09.35,133,-211,-2053,-27,13,144,-96,-1208,1112,652
,61,2023-10-27 11:19:09.36,137,-227,-2035,-27,1,122,13,-1107,1120,547
,62,2023-10-27 11:19:09.37,132,-216,-2070,-23,-8,95,-77,-1214,1137,645
,63,2023-10-27 11:19:09.38,156,-243,-2044,-43,-26,70,18,-1119,1137,550
,64,2023-10-27 11:19:09.39,145,-240,-2039,-56,-29,47,-55,-1222,1167,638
,65,2023-10-27 11:19:09.40,147,-241,-2047,-52,-34,27,34,-1122,1156,544
,66,2023-10-27 11:19:09.41,133,-257,-2051,-51,-45,8,-81,-1219,1138,650
,67,2023-10-27 11:19:09.42,146,-242,-2056,-58,-52,-3,-23,-1120,1097,571
,68,2023-10-27 11:19:09.43,144,-252,-2034,-71,-49,-15,-133,-1224,1091,678
,69,2023-10-27 11:19:09.44,150,-256,-2026,-73,-36,-27,-62,-1126,1064,594
,70,2023-10-27 11:19:09.45,133,-262,-2016,-65,-28,-35,-149,-1214,1065,681
,71,2023-10-27 11:19:09.46,137,-255,-2027,-64,-27,-32,-85,-1114,1029,599
,72,2023-10-27 11:19:09.47,163,-261,-2052,-79,-19,-33,-184,-1131,947,657
,73,2023-10-27 11:19:09.48,140,-263,-2044,-89,-7,-28,-116,-1016,900,566
,74,2023-10-27 11:19:09.49,145,-260,-2027,-80,-1,-19,-195,-1159,964,677
,75,2023-10-27 11:19:09.50,153,-282,-2029,-78,6,-12,-127,-1120,993,623
,76,2023-10-27 11:19:09.51,154,-272,-2028,-77,15,-1,-177,-1237,1060,707
,77,2023-10-27 11:19:09.52,150,-272,-2028,-71,30,11,-118,-1152,1034,635
,78,2023-10-27 11:19:09.53,153,-259,-2020,-66,47,25,-186,-1233,1047,709
,79,2023-10-27 11:19:09.54,167,-258,-2021,-59,68,32,-140,-1143,1003,641
,80,2023-10-27 11:19:09.55,160,-246,-2027,-47,84,38,-196,-1229,1033,712
,81,2023-10-27 11:19:09.56,152,-221,-2039,-37,89,45,-150,-1146,996,648
,82,2023-10-27 11:19:09.57,153,-209,-2031,-35,93,48,-203,-1227,1024,715
,83,2023-10-27 11:19:09.58,151,-207,-2042,-35,97,51,-158,-1142,984,650
,84,2023-10-27 11:19:09.59,145,-204,-2066,-39,92,57,-207,-1220,1013,713
,85,2023-10-27 11:19:09.60,141,-182,-2089,-41,86,55,-173,-1140,967,656
,86,2023-10-27 11:19:09.61,167,-194,-2083,-62,71,62,-214,-1222,1008,718
,87,2023-10-27 11:19:09.62,171,-198,-2027,-73,62,64,-179,-1148,969,663
,88,2023-10-27 11:19:09.63,170,-197,-2022,-64,69,59,-184,-1224,1040,704
,89,2023-10-27 11:19:09.64,172,-218,-2070,-62,63,58,-158,-1149,991,653
,90,2023-10-27 11:19:09.65,174,-213,-2048,-40,34,61,-192,-1217,1025,704
,91,2023-10-27 11:19:09.66,175,-189,-2035,-9,33,59,-183,-1144,961,663
,92,2023-10-27 11:19:09.67,165,-200,-2044,-15,48,47,-203,-1213,1010,708
,93,2023-10-27 11:19:09.68,156,-191,-2066,-38,32,48,-192,-1146,954,669
,94,2023-10-27 11:19:09.69,156,-161,-2085,-46,11,44,-201,-1207,1006,704
,95,2023-10-27 11:19:09.70,161,-160,-2083,-40,5,36,-200,-1138,938,669
,96,2023-10-27 11:19:09.71,158,-168,-2062,-43,-24,25,-206,-1204,998,705
,97,2023-10-27 11:19:09.72,156,-174,-2051,-52,-34,18,-207,-1146,939,676
,98,2023-10-27 11:19:09.73,146,-179,-2062,-56,-38,10,-202,-1212,1010,707
,99,2023-10-27 11:19:09.74,158,-189,-2064,-51,-48,2,-204,-1154,950,679
,100,2023-10-27 11:19:09.75,148,-184,-2055,-44,-56,-2,-192,-1210,1018,701
,101,2023-10-27 11:19:09.76,155,-191,-2046,-48,-59,-8,-209,-1148,939,678
,102,2023-10-27 11:19:09.77,154,-202,-2042,-48,-56,-10,-204,-1164,960,684
,103,2023-10-27 11:19:09.78,163,-196,-2047,-45,-49,-13,-236,-1093,857,664
,104,2023-10-27 11:19:09.79,170,-211,-2051,-41,-46,-13,-207,-1062,855,634
,105,2023-10-27 11:19:09.80,164,-215,-2052,-38,-38,-16,-236,-1005,769,620
,106,2023-10-27 11:19:09.81,168,-200,-2044,-34,-30,-12,-208,-979,771,593
,107,2023-10-27 11:19:09.82,159,-203,-2038,-36,-22,-6,-252,-963,711,607
,108,2023-10-27 11:19:09.83,155,-198,-2040,-42,-14,-5,-216,-968,752,592
,109,2023-10-27 11:19:09.84,151,-182,-2036,-50,-6,-3,-266,-971,705,618
,110,2023-10-27 11:19:09.85,160,-211,-2075,-64,-1,-1,-228,-969,741,598
,111,2023-10-27 11:19:09.86,160,-182,-2049,-66,-10,2,-275,-970,695,622
,112,2023-10-27 11:19:09.87,180,-185,-2013,-44,-3,-3,-231,-964,733,597
,113,2023-10-27 11:19:09.88,161,-201,-2034,-31,6,-10,-281,-959,678,620
,114,2023-10-27 11:19:09.89,152,-189,-2049,-36,0,-10,-245,-927,682,586
,115,2023-10-27 11:19:09.90,158,-174,-2051,-39,-5,-12,-296,-929,633,612
,116,2023-10-27 11:19:09.91,158,-173,-2063,-29,-11,-14,-227,-889,662,558
,117,2023-10-27 11:19:09.92,152,-184,-2045,-23,-19,-18,-284,-888,604,586
,118,2023-10-27 11:19:09.93,167,-200,-2037,-15,-18,-22,-212,-792,580,502
,119,2023-10-27 11:19:09.94,183,-226,-2030,7,-5,-26,-278,-790,512,534
,120,2023-10-27 11:19:09.95,169,-212,-2007,50,15,-33,-200,-661,461,430
,121,2023-10-27 11:19:09.96,159,-208,-2035,78,28,-38,-276,-680,404,478
,122,2023-10-27 11:19:09.97,146,-189,-2062,68,18,-33,-202,-547,345,374
,123,2023-10-27 11:19:09.98,158,-180,-2074,59,13,-24,-304,-602,298,453
,124,2023-10-27 11:19:09.99,151,-181,-2078,72,4,-22,-227,-482,255,354
,125,2023-10-27 11:19:10.00,146,-193,-2052,79,-6,-16,-325,-550,225,437
,126,2023-10-27 11:19:10.01,147,-192,-2045,70,-10,-13,-256,-414,158,335
,127,2023-10-27 11:19:10.02,165,-194,-2043,56,-9,-10,-361,-503,142,432
,128,2023-10-27 11:19:10.03,125,-179,-2054,49,-12,-8,-279,-374,95,326
,129,2023-10-27 11:19:10.04,164,-200,-2069,38,-32,-2,-373,-456,83,414
,130,2023-10-27 11:19:10.05,162,-203,-2046,35,-43,1,-272,-306,34,289
,131,2023-10-27 11:19:10.06,161,-210,-2035,51,-32,-2,-374,-409,35,391
,132,2023-10-27 11:19:10.07,162,-224,-2035,61,-23,-3,-280,-268,-12,274
,133,2023-10-27 11:19:10.08,152,-210,-2023,65,-16,-3,-399,-380,-19,389
,134,2023-10-27 11:19:10.09,155,-201,-2034,64,-8,-3,-320,-239,-81,279
,135,2023-10-27 11:19:10.10,148,-209,-2051,65,-8,-3,-443,-365,-78,404
,136,2023-10-27 11:19:10.11,140,-203,-2056,66,-12,-5,-350,-216,-134,283
,137,2023-10-27 11:19:10.12,143,-207,-2048,58,-15,-3,-474,-340,-134,407
,138,2023-10-27 11:19:10.13,146,-218,-2043,54,-13,-1,-405,-187,-218,296
,139,2023-10-27 11:19:10.14,155,-227,-2042,54,-2,-2,-526,-321,-205,423
,140,2023-10-27 11:19:10.15,156,-234,-2034,58,-1,-1,-410,-170,-240,290
,141,2023-10-27 11:19:10.16,153,-238,-2026,64,4,0,-516,-298,-218,407
,142,2023-10-27 11:19:10.17,162,-239,-2025,76,8,-4,-419,-144,-275,281
,143,2023-10-27 11:19:10.18,159,-239,-2026,82,15,-5,-537,-288,-249,412
,144,2023-10-27 11:19:10.19,162,-230,-2039,90,25,-7,-411,-135,-276,273
,145,2023-10-27 11:19:10.20,166,-220,-2046,97,34,-8,-529,-267,-262,398
,146,2023-10-27 11:19:10.21,152,-213,-2048,94,32,-10,-411,-112,-299,261
,147,2023-10-27 11:19:10.22,141,-211,-2042,87,34,-11,-526,-259,-267,392
,148,2023-10-27 11:19:10.23,155,-209,-2050,82,22,-9,-388,-128,-260,258
,149,2023-10-27 11:19:10.24,168,-217,-2055,72,15,-10,-530,-277,-253,403
,150,2023-10-27 11:19:10.25,170,-211,-2041,61,23,-13,-428,-138,-290,283
,151,2023-10-27 11:19:10.26,160,-218,-2044,44,39,-17,-569,-267,-302,418
,152,2023-10-27 11:19:10.27,149,-228,-2052,32,40,-20,-457,-118,-339,287
,153,2023-10-27 11:19:10.28,155,-236,-2053,36,24,-17,-599,-267,-332,433
,154,2023-10-27 11:19:10.29,174,-237,-2041,45,17,-13,-447,-113,-334,280
,155,2023-10-27 11:19:10.30,161,-236,-2030,44,28,-11,-573,-263,-310,418
,156,2023-10-27 11:19:10.31,175,-234,-2022,42,46,-13,-435,-118,-317,276
,157,2023-10-27 11:19:10.32,175,-234,-2042,45,51,-12,-590,-268,-322,429
,158,2023-10-27 11:19:10.33,165,-234,-2036,50,46,-10,-465,-126,-339,295
,159,2023-10-27 11:19:10.34,184,-229,-2043,53,33,-4,-624,-279,-345,451
,160,2023-10-27 11:19:10.35,179,-240,-2049,46,47,-1,-507,-146,-361,326
,161,2023-10-27 11:19:10.36,187,-244,-2052,37,55,2,-653,-296,-357,474
,162,2023-10-27 11:19:10.37,175,-256,-2052,43,50,5,-500,-146,-354,323
,163,2023-10-27 11:19:10.38,187,-241,-2039,51,32,12,-634,-279,-355,456
,164,2023-10-27 11:19:10.39,199,-238,-2053,59,30,13,-483,-128,-355,305
,165,2023-10-27 11:19:10.40,195,-231,-2056,52,41,9,-629,-277,-352,453
,166,2023-10-27 11:19:10.41,193,-224,-2060,33,48,9,-469,-142,-327,305
,167,2023-10-27 11:19:10.42,178,-228,-2064,28,37,8,-611,-287,-324,449
,168,2023-10-27 11:19:10.43,174,-230,-2062,29,16,12,-432,-141,-291,286
,169,2023-10-27 11:19:10.44,168,-228,-2044,31,3,12,-587,-267,-320,427
,170,2023-10-27 11:19:10.45,175,-227,-2035,18,4,14,-426,-127,-299,276
,171,2023-10-27 11:19:10.46,172,-225,-2038,15,2,12,-594,-266,-328,430
,172,2023-10-27 11:19:10.47,190,-231,-2030,13,-1,12,-438,-131,-307,284
,173,2023-10-27 11:19:10.48,181,-226,-2046,16,-4,7,-602,-254,-348,428
,174,2023-10-27 11:19:10.49,179,-231,-2040,19,-7,7,-450,-114,-336,282
,175,2023-10-27 11:19:10.50,180,-236,-2047,21,-5,6,-616,-245,-371,430
,176,2023-10-27 11:19:10.51,177,-237,-2052,23,-8,7,-444,-115,-329,279
,177,2023-10-27 11:19:10.52,169,-232,-2048,28,-8,6,-606,-241,-365,423
,178,2023-10-27 11:19:10.53,170,-227,-2046,33,-10,4,-450,-108,-342,279
,179,2023-10-27 11:19:10.54,176,-225,-2037,31,-5,2,-621,-232,-389,426
,180,2023-10-27 11:19:10.55,181,-230,-2045,31,-1,-3,-449,-108,-341,278
,181,2023-10-27 11:19:10.56,174,-237,-2044,29,3,-9,-609,-235,-374,422
,182,2023-10-27 11:19:10.57,173,-239,-2042,35,7,-10,-440,-109,-331,274
,183,2023-10-27 11:19:10.58,184,-237,-2033,40,11,-14,-632,-215,-417,423
,184,2023-10-27 11:19:10.59,181,-231,-2035,42,17,-20,-497,-92,-405,294
,185,2023-10-27 11:19:10.60,184,-234,-2032,43,24,-25,-664,-216,-448,440
,186,2023-10-27 11:19:10.61,189,-236,-2042,42,31,-32,-482,-103,-379,292
,187,2023-10-27 11:19:10.62,169,-227,-2044,44,35,-38,-628,-225,-403,426
,188,2023-10-27 11:19:10.63,182,-239,-2036,41,35,-43,-431,-102,-329,266
,189,2023-10-27 11:19:10.64,174,-255,-2045,35,35,-45,-588,-222,-366,405
,190,2023-10-27 11:19:10.65,169,-255,-2047,38,29,-47,-394,-106,-288,250
,191,2023-10-27 11:19:10.66,177,-250,-2041,37,26,-50,-573,-216,-357,394
,192,2023-10-27 11:19:10.67,171,-257,-2043,36,24,-49,-402,-103,-299,252
,193,2023-10-27 11:19:10.68,163,-244,-2039,34,21,-51,-588,-214,-374,401
,194,2023-10-27 11:19:10.69,182,-254,-2042,30,19,-51,-416,-109,-307,262
,195,2023-10-27 11:19:10.70,185,-247,-2051,26,14,-55,-627,-204,-423,415
,196,2023-10-27 11:19:10.71,182,-244,-2053,23,7,-60,-508,-106,-402,307
,197,2023-10-27 11:19:10.72,179,-256,-2038,27,2,-57,-682,-212,-470,447
,198,2023-10-27 11:19:10.73,179,-252,-2045,30,3,-61,-485,-115,-370,300
,199,2023-10-27 11:19:10.74,179,-260,-2053,27,-3,-60,-660,-196,-464,428
,200,2023-10-27 11:19:10.75,173,-261,-2057,21,-9,-58,-522,-108,-414,315
,201,2023-10-27 11:19:10.76,165,-277,-2060,25,-15,-55,-673,-206,-467,439
,202,2023-10-27 11:19:10.77,163,-276,-2047,33,-31,-50,-478,-128,-350,303
,203,2023-10-27 11:19:10.78,172,-268,-2038,37,-40,-48,-646,-209,-437,427
,204,2023-10-27 11:19:10.79,188,-267,-1996,54,-41,-48,-498,-131,-367,314
,205,2023-10-27 11:19:10.80,155,-259,-2077,58,-30,-49,-682,-204,-478,443
,206,2023-10-27 11:19:10.81,160,-272,-2081,42,-48,-46,-528,-140,-388,334
,207,2023-10-27 11:19:10.82,170,-265,-2026,27,-55,-46,-659,-217,-442,438
,208,2023-10-27 11:19:10.83,161,-273,-1981,42,-59,-46,-461,-146,-315,303
,209,2023-10-27 11:19:10.84,158,-261,-2012,62,-44,-51,-607,-206,-401,406
,210,2023-10-27 11:19:10.85,161,-265,-2058,62,-35,-52,-447,-139,-308,293
,211,2023-10-27 11:19:10.86,160,-272,-2063,42,-41,-51,-709,-213,-496,461
,212,2023-10-27 11:19:10.87,173,-275,-2036,35,-42,-50,-685,-191,-494,438
,213,2023-10-27 11:19:10.88,159,-282,-2032,43,-45,-51,-806,-258,-548,532
,214,2023-10-27 11:19:10.89,158,-282,-2038,48,-36,-53,-562,-193,-369,377
,215,2023-10-27 11:19:10.90,150,-279,-2046,41,-36,-50,-624,-238,-386,431
,216,2023-10-27 11:19:10.91,149,-287,-2042,37,-35,-50,-432,-188,-244,310
,217,2023-10-27 11:19:10.92,149,-280,-2042,40,-31,-46,-558,-239,-319,398
,218,2023-10-27 11:19:10.93,162,-280,-2041,40,-32,-44,-395,-198,-197,296
,219,2023-10-27 11:19:10.94,151,-284,-2038,37,-22,-47,-523,-239,-284,381
,220,2023-10-27 11:19:10.95,153,-282,-2034,32,-19,-44,-367,-193,-174,280
,221,2023-10-27 11:19:10.96,157,-290,-2034,26,-6,-46,-492,-230,-262,361
,222,2023-10-27 11:19:10.97,159,-282,-2044,22,1,-43,-340,-196,-144,268
,223,2023-10-27 11:19:10.98,151,-290,-2040,13,2,-39,-457,-223,-234,340
,224,2023-10-27 11:19:10.99,156,-286,-2045,6,3,-37,-308,-198,-110,253
,225,2023-10-27 11:19:11.00,158,-281,-2048,4,6,-34,-436,-219,-217,327
,226,2023-10-27 11:19:11.01,157,-269,-2042,-2,5,-28,-298,-190,-108,244
,227,2023-10-27 11:19:11.02,163,-273,-2035,-6,10,-29,-420,-204,-216,312
,228,2023-10-27 11:19:11.03,162,-265,-2041,-15,12,-26,-291,-191,-100,241
,229,2023-10-27 11:19:11.04,168,-263,-2041,-25,11,-25,-398,-192,-206,295
,230,2023-10-27 11:19:11.05,162,-276,-2042,-33,9,-23,-281,-189,-92,235
,231,2023-10-27 11:19:11.06,153,-269,-2043,-38,4,-19,-393,-196,-197,294
,232,2023-10-27 11:19:11.07,151,-267,-2037,-39,2,-16,-282,-201,-81,241
,233,2023-10-27 11:19:11.08,159,-270,-2047,-42,2,-13,-381,-195,-186,288
,234,2023-10-27 11:19:11.09,165,-270,-2040,-48,1,-6,-268,-199,-69,233
,235,2023-10-27 11:19:11.10,165,-265,-2045,-48,1,-3,-372,-194,-178,283
,236,2023-10-27 11:19:11.11,152,-269,-2043,-53,16,-3,-265,-200,-65,232
,237,2023-10-27 11:19:11.12,153,-274,-2046,-50,1,3,-355,-186,-169,270
,238,2023-10-27 11:19:11.13,162,-253,-2037,-39,-5,9,-286,-199,-87,242
,239,2023-10-27 11:19:11.14,173,-261,-2029,-33,-1,9,-382,-194,-188,288
,240,2023-10-27 11:19:11.15,161,-260,-2045,-34,7,7,-290,-232,-58,261
,241,2023-10-27 11:19:11.16,159,-267,-2043,-36,14,6,-354,-250,-104,302
,242,2023-10-27 11:19:11.17,162,-252,-2046,-28,4,11,-255,-293,38,274
,243,2023-10-27 11:19:11.18,170,-245,-2043,-20,1,9,-311,-300,-11,305
,244,2023-10-27 11:19:11.19,166,-244,-2043,-19,6,3,-236,-327,91,281
,245,2023-10-27 11:19:11.20,157,-248,-2040,-23,6,0,-303,-282,-21,292
,246,2023-10-27 11:19:11.21,159,-237,-2049,-25,4,-1,-237,-300,63,268
,247,2023-10-27 11:19:11.22,151,-243,-2050,-23,-1,-2,-306,-259,-47,282
,248,2023-10-27 11:19:11.23,173,-242,-2034,-24,-2,-10,-255,-279,24,267
,249,2023-10-27 11:19:11.24,158,-240,-2038,-30,2,-12,-320,-216,-104,268
,250,2023-10-27 11:19:11.25,155,-240,-2036,-34,4,-14,-263,-246,-17,254
,251,2023-10-27 11:19:11.26,165,-232,-2027,-36,8,-18,-314,-187,-127,250
,252,2023-10-27 11:19:11.27,167,-231,-2031,-40,9,-23,-269,-238,-31,253
,253,2023-10-27 11:19:11.28,165,-232,-2035,-47,15,-26,-318,-182,-136,250
,254,2023-10-27 11:19:11.29,170,-235,-2042,-54,21,-29,-256,-220,-36,238
,255,2023-10-27 11:19:11.30,170,-234,-2045,-56,22,-31,-292,-125,-167,208
,256,2023-10-27 11:19:11.31,166,-237,-2047,-57,24,-31,-272,-185,-87,228
,257,2023-10-27 11:19:11.32,175,-234,-2043,-57,21,-30,-308,-130,-178,219
,258,2023-10-27 11:19:11.33,179,-236,-2040,-59,24,-27,-286,-202,-84,244
,259,2023-10-27 11:19:11.34,182,-235,-2036,-59,27,-29,-310,-124,-186,217
,260,2023-10-27 11:19:11.35,179,-231,-2035,-61,35,-27,-287,-205,-82,246
,261,2023-10-27 11:19:11.36,175,-227,-2036,-58,38,-29,-302,-126,-176,214
,262,2023-10-27 11:19:11.37,172,-229,-2033,-56,40,-26,-289,-204,-85,246
,263,2023-10-27 11:19:11.38,151,-234,-2021,-49,34,-23,-304,-118,-186,211
,264,2023-10-27 11:19:11.39,193,-232,-2049,-37,20,-20,-302,-204,-98,253
,265,2023-10-27 11:19:11.40,192,-232,-2047,-37,37,-19,-306,-112,-194,209
,266,2023-10-27 11:19:11.41,165,-221,-2057,-40,37,-17,-304,-203,-101,253
,267,2023-10-27 11:19:11.42,181,-220,-2047,-35,25,-13,-306,-111,-195,208
,268,2023-10-27 11:19:11.43,186,-223,-2042,-32,23,-13,-316,-205,-111,260
,269,2023-10-27 11:19:11.44,175,-231,-2055,-26,25,-14,-297,-102,-195,199
,270,2023-10-27 11:19:11.45,183,-225,-2048,-23,17,-12,-308,-192,-116,250
,271,2023-10-27 11:19:11.46,185,-225,-2038,-22,18,-11,-298,-96,-202,197
,272,2023-10-27 11:19:11.47,187,-228,-2043,-18,19,-7,-325,-205,-120,265
,273,2023-10-27 11:19:11.48,183,-229,-2047,-15,16,-7,-300,-103,-197,201
,274,2023-10-27 11:19:11.49,170,-227,-2045,-13,14,-7,-328,-209,-119,268
,275,2023-10-27 11:19:11.50,167,-228,-2064,-14,9,-4,-301,-107,-194,204
,276,2023-10-27 11:19:11.51,172,-226,-2055,-11,1,2,-348,-232,-116,290
,277,2023-10-27 11:19:11.52,176,-219,-2052,-10,-5,4,-306,-117,-189,211
,278,2023-10-27 11:19:11.53,173,-222,-2049,-10,-9,7,-349,-234,-115,291
,279,2023-10-27 11:19:11.54,175,-223,-2036,-12,-13,9,-305,-112,-193,208
,280,2023-10-27 11:19:11.55,166,-209,-2043,-15,-16,12,-350,-222,-128,286
,281,2023-10-27 11:19:11.56,160,-211,-2042,-15,-12,11,-298,-95,-203,196
,282,2023-10-27 11:19:11.57,174,-213,-2043,-15,-10,11,-357,-219,-138,288
,283,2023-10-27 11:19:11.58,166,-226,-2046,-19,-5,11,-296,-98,-198,197
,284,2023-10-27 11:19:11.59,165,-211,-2044,-18,-3,11,-355,-231,-124,293
,285,2023-10-27 11:19:11.60,163,-214,-2044,-19,1,9,-285,-102,-183,193
,286,2023-10-27 11:19:11.61,166,-207,-2030,-21,10,6,-355,-226,-129,290
,287,2023-10-27 11:19:11.62,163,-205,-2041,-24,13,1,-299,-100,-199,199
,288,2023-10-27 11:19:11.63,173,-203,-2036,-26,16,0,-382,-238,-144,310
,289,2023-10-27 11:19:11.64,169,-211,-2038,-27,19,-5,-295,-102,-193,198
,290,2023-10-27 11:19:11.65,177,-211,-2048,-26,27,-8,-374,-235,-139,304
,291,2023-10-27 11:19:11.66,174,-211,-2047,-25,27,-9,-290,-95,-195,192
,292,2023-10-27 11:19:11.67,166,-207,-2050,-26,32,-13,-377,-231,-146,304
,293,2023-10-27 11:19:11.68,169,-208,-2043,-24,30,-12,-288,-96,-192,192
,294,2023-10-27 11:19:11.69,171,-212,-2042,-22,32,-12,-382,-239,-143,310
,295,2023-10-27 11:19:11.70,162,-216,-2053,-18,31,-11,-279,-96,-183,187
,296,2023-10-27 11:19:11.71,173,-212,-2038,-14,29,-13,-381,-241,-140,311
,297,2023-10-27 11:19:11.72,192,-209,-2038,-11,35,-13,-282,-95,-187,188
,298,2023-10-27 11:19:11.73,174,-205,-2038,-10,39,-14,-393,-238,-155,315
,299,2023-10-27 11:19:11.74,177,-199,-2034,-11,44,-17,-282,-95,-187,188
,300,2023-10-27 11:19:11.75,187,-194,-2041,-13,45,-21,-395,-245,-150,320
,301,2023-10-27 11:19:11.76,188,-189,-2044,-13,48,-24,-282,-98,-184,190
,302,2023-10-27 11:19:11.77,176,-196,-2044,-14,49,-27,-396,-243,-153,319
,303,2023-10-27 11:19:11.78,165,-192,-2017,-11,39,-25,-274,-91,-183,182
,304,2023-10-27 11:19:11.79,172,-212,-2060,10,-15,-16,-401,-236,-165,318
,305,2023-10-27 11:19:11.80,225,-196,-2057,12,-6,-15,-271,-88,-183,179
,306,2023-10-27 11:19:11.81,195,-185,-2046,-4,34,-28,-402,-239,-163,320
,307,2023-10-27 11:19:11.82,190,-195,-2054,-14,46,-33,-270,-92,-178,181
,308,2023-10-27 11:19:11.83,189,-200,-2066,-17,41,-33,-406,-244,-162,325
,309,2023-10-27 11:19:11.84,183,-208,-2055,-7,23,-30,-271,-94,-177,182
,310,2023-10-27 11:19:11.85,188,-206,-2048,3,7,-27,-409,-237,-172,323
,311,2023-10-27 11:19:11.86,183,-204,-2040,2,9,-27,-266,-77,-189,171
,312,2023-10-27 11:19:11.87,191,-201,-2048,-1,7,-28,-416,-241,-175,328
,313,2023-10-27 11:19:11.88,204,-195,-2045,1,4,-25,-280,-99,-181,189
,314,2023-10-27 11:19:11.89,204,-191,-2044,3,3,-26,-434,-254,-180,344
,315,2023-10-27 11:19:11.90,196,-198,-2051,1,3,-27,-280,-89,-191,184
,316,2023-10-27 11:19:11.91,188,-201,-2043,2,9,-24,-426,-238,-188,332
,317,2023-10-27 11:19:11.92,197,-201,-2040,2,6,-24,-281,-90,-191,185
,318,2023-10-27 11:19:11.93,205,-209,-2043,4,8,-22,-428,-236,-192,332
,319,2023-10-27 11:19:11.94,194,-222,-2056,4,8,-17,-267,-86,-181,176
,320,2023-10-27 11:19:11.95,188,-226,-2052,7,7,-10,-432,-228,-204,330
,321,2023-10-27 11:19:11.96,188,-211,-2047,13,7,-5,-284,-79,-205,181
,322,2023-10-27 11:19:11.97,208,-207,-2048,11,5,-6,-439,-233,-206,336
,323,2023-10-27 11:19:11.98,183,-206,-2047,10,7,-2,-268,-80,-188,174
,324,2023-10-27 11:19:11.99,196,-199,-2058,13,-1,-1,-424,-235,-189,329
,325,2023-10-27 11:19:12.00,180,-203,-2048,15,-9,2,-255,-93,-162,174
,326,2023-10-27 11:19:12.01,189,-195,-2046,14,-15,3,-427,-235,-192,331
,327,2023-10-27 11:19:12.02,190,-198,-2037,9,-15,3,-256,-84,-172,170
,328,2023-10-27 11:19:12.03,184,-202,-2041,2,-14,4,-425,-240,-185,332
,329,2023-10-27 11:19:12.04,182,-194,-2042,0,-16,5,-253,-93,-160,173
,330,2023-10-27 11:19:12.05,195,-190,-2043,-1,-18,4,-429,-238,-191,333
,331,2023-10-27 11:19:12.06,191,-190,-2035,-7,-17,2,-258,-94,-164,176
,332,2023-10-27 11:19:12.07,193,-185,-2042,-15,-14,0,-435,-236,-199,335
,333,2023-10-27 11:19:12.08,198,-197,-2042,-19,-12,-2,-258,-93,-165,175
,334,2023-10-27 11:19:12.09,184,-196,-2052,-21,-13,0,-434,-229,-205,331
,335,2023-10-27 11:19:12.10,183,-198,-2045,-23,-13,0,-259,-93,-166,176
,336,2023-10-27 11:19:12.11,195,-196,-2036,-25,-11,-2,-446,-232,-214,339
,337,2023-10-27 11:19:12.12,190,-195,-2042,-25,-6,-3,-283,-97,-186,190
,338,2023-10-27 11:19:12.13,204,-193,-2048,-23,-1,-2,-465,-236,-229,350
,339,2023-10-27 11:19:12.14,193,-193,-2039,-25,1,-3,-283,-101,-182,192
,340,2023-10-27 11:19:12.15,202,-204,-2038,-17,5,0,-459,-222,-237,340
,341,2023-10-27 11:19:12.16,197,-199,-2041,-14,12,2,-282,-88,-194,185
,342,2023-10-27 11:19:12.17,190,-204,-2044,-13,21,3,-463,-233,-230,348
,343,2023-10-27 11:19:12.18,187,-199,-2044,-9,25,6,-280,-109,-171,194
,344,2023-10-27 11:19:12.19,182,-195,-2050,-6,22,8,-464,-232,-232,348
,345,2023-10-27 11:19:12.20,201,-189,-2046,-7,24,11,-291,-108,-183,199
,346,2023-10-27 11:19:12.21,200,-188,-2046,-3,19,9,-478,-233,-245,355
,347,2023-10-27 11:19:12.22,199,-197,-2056,0,20,11,-306,-115,-191,210
,348,2023-10-27 11:19:12.23,194,-201,-2065,2,10,14,-490,-234,-256,362
,349,2023-10-27 11:19:12.24,192,-188,-2051,4,1,19,-314,-118,-196,216
,350,2023-10-27 11:19:12.25,190,-190,-2049,9,-1,19,-491,-234,-257,362
,351,2023-10-27 11:19:12.26,183,-182,-2053,13,-8,19,-316,-116,-200,216
,352,2023-10-27 11:19:12.27,183,-179,-2046,12,-14,19,-498,-210,-288,354
,353,2023-10-27 11:19:12.28,195,-182,-2052,15,-19,15,-337,-105,-232,221
,354,2023-10-27 11:19:12.29,182,-195,-2051,19,-25,13,-512,-215,-297,363
,355,2023-10-27 11:19:12.30,184,-187,-2054,25,-27,9,-332,-120,-212,226
,356,2023-10-27 11:19:12.31,175,-188,-2057,20,-34,9,-493,-209,-284,351
,357,2023-10-27 11:19:12.32,165,-182,-2057,18,-40,9,-311,-108,-203,209
,358,2023-10-27 11:19:12.33,166,-184,-2058,11,-41,9,-502,-207,-295,354
,359,2023-10-27 11:19:12.34,164,-185,-2058,5,-44,11,-329,-102,-227,215
,360,2023-10-27 11:19:12.35,180,-176,-2052,-4,-44,13,-496,-193,-303,344
,361,2023-10-27 11:19:12.36,165,-189,-2049,-12,-40,15,-315,-97,-218,206
,362,2023-10-27 11:19:12.37,176,-186,-2046,-16,-36,14,-512,-179,-333,345
,363,2023-10-27 11:19:12.38,180,-191,-2042,-22,-28,12,-369,-96,-273,232
,364,2023-10-27 11:19:12.39,173,-189,-2031,-23,-17,10,-550,-185,-365,367
,365,2023-10-27 11:19:12.40,173,-195,-2027,-24,-4,8,-375,-107,-268,241
,366,2023-10-27 11:19:12.41,185,-189,-2034,-20,6,5,-540,-183,-357,361
,367,2023-10-27 11:19:12.42,185,-194,-2032,-16,17,4,-371,-107,-264,239
,368,2023-10-27 11:19:12.43,175,-195,-2033,-14,28,5,-525,-192,-333,358
,369,2023-10-27 11:19:12.44,180,-193,-2045,-9,36,2,-348,-117,-231,232
,370,2023-10-27 11:19:12.45,188,-190,-2046,-4,40,0,-505,-181,-324,343
,371,2023-10-27 11:19:12.46,185,-190,-2046,4,40,1,-336,-108,-228,222
,372,2023-10-27 11:19:12.47,199,-185,-2043,11,38,-3,-489,-176,-313,332
,373,2023-10-27 11:19:12.48,195,-185,-2034,17,45,-7,-323,-117,-206,220
,374,2023-10-27 11:19:12.49,194,-179,-2037,20,51,-13,-478,-172,-306,325
,375,2023-10-27 11:19:12.50,197,-178,-2035,26,53,-17,-315,-110,-205,212
,376,2023-10-27 11:19:12.51,194,-180,-2047,32,56,-21,-470,-168,-302,319
,377,2023-10-27 11:19:12.52,202,-191,-2047,35,57,-25,-316,-120,-196,218
,378,2023-10-27 11:19:12.53,199,-186,-2041,39,61,-33,-473,-164,-309,318
,379,2023-10-27 11:19:12.54,199,-186,-2043,39,66,-37,-322,-116,-206,219
,380,2023-10-27 11:19:12.55,146,-186,-2016,48,28,-38,-481,-166,-315,323
,381,2023-10-27 11:19:12.56,258,-182,-2053,54,21,-35,-335,-134,-201,234
,382,2023-10-27 11:19:12.57,221,-174,-2037,37,67,-45,-477,-172,-305,324
,383,2023-10-27 11:19:12.58,199,-177,-2025,36,54,-51,-325,-129,-196,227
,384,2023-10-27 11:19:12.59,241,-178,-2047,39,43,-51,-463,-162,-301,312
,385,2023-10-27 11:19:12.60,218,-197,-2042,30,64,-59,-316,-127,-189,221
,386,2023-10-27 11:19:12.61,204,-204,-2045,33,65,-58,-457,-156,-301,306
,387,2023-10-27 11:19:12.62,216,-230,-2046,38,60,-55,-314,-129,-185,221
,388,2023-10-27 11:19:12.63,211,-216,-2051,41,57,-50,-432,-147,-285,289
,389,2023-10-27 11:19:12.64,216,-221,-2048,46,50,-45,-291,-125,-166,208
,390,2023-10-27 11:19:12.65,211,-203,-2067,39,58,-43,-417,-146,-271,281
,391,2023-10-27 11:19:12.66,188,-177,-2061,28,45,-41,-292,-136,-156,214
,392,2023-10-27 11:19:12.67,203,-172,-2085,16,29,-39,-413,-145,-268,279
,393,2023-10-27 11:19:12.68,186,-165,-2081,4,7,-38,-283,-127,-156,205
,394,2023-10-27 11:19:12.69,192,-178,-2069,-6,-6,-36,-405,-143,-262,274
,395,2023-10-27 11:19:12.70,200,-187,-2072,-16,-14,-39,-290,-142,-148,216
,396,2023-10-27 11:19:12.71,211,-187,-2077,-27,-18,-40,-406,-163,-243,284
,397,2023-10-27 11:19:12.72,201,-184,-2056,-40,-2,-48,-299,-166,-133,232
,398,2023-10-27 11:19:12.73,215,-183,-2052,-41,4,-54,-417,-166,-251,291
,399,2023-10-27 11:19:12.74,218,-185,-2055,-36,-2,-62,-312,-168,-144,240
,400,2023-10-27 11:19:12.75,209,-187,-2049,-30,-3,-66,-410,-158,-252,284
,401,2023-10-27 11:19:12.76,206,-190,-2041,-28,-1,-68,-306,-164,-142,235
,402,2023-10-27 11:19:12.77,199,-188,-2030,-33,6,-68,-413,-153,-260,283
,403,2023-10-27 11:19:12.78,208,-174,-2026,-27,5,-68,-309,-153,-156,231
,404,2023-10-27 11:19:12.79,212,-187,-2022,-27,-3,-62,-388,-121,-267,254
,405,2023-10-27 11:19:12.80,201,-190,-2030,-28,2,-57,-292,-142,-150,217
,406,2023-10-27 11:19:12.81,201,-186,-2037,-24,-10,-45,-366,-116,-250,241
,407,2023-10-27 11:19:12.82,219,-185,-2046,-30,-16,-37,-291,-152,-139,221
,408,2023-10-27 11:19:12.83,201,-186,-2038,-35,-13,-25,-364,-118,-246,241
,409,2023-10-27 11:19:12.84,221,-183,-2043,-37,-13,-15,-287,-151,-136,219
,410,2023-10-27 11:19:12.85,203,-197,-2049,-43,0,-6,-358,-111,-247,234
,411,2023-10-27 11:19:12.86,195,-200,-2054,-47,-3,4,-294,-150,-144,222
,412,2023-10-27 11:19:12.87,196,-198,-2060,-44,-17,17,-359,-110,-249,234
,413,2023-10-27 11:19:12.88,191,-192,-2062,-37,-29,26,-298,-159,-139,228
,414,2023-10-27 11:19:12.89,194,-186,-2062,-28,-44,34,-356,-119,-237,237
,415,2023-10-27 11:19:12.90,200,-185,-2063,-18,-54,37,-305,-173,-132,239
,416,2023-10-27 11:19:12.91,191,-184,-2068,-9,-61,40,-361,-126,-235,243
,417,2023-10-27 11:19:12.92,181,-182,-2070,-1,-73,40,-314,-184,-130,249
,418,2023-10-27 11:19:12.93,184,-173,-2070,6,-85,39,-355,-126,-229,240
,419,2023-10-27 11:19:12.94,184,-175,-2063,15,-101,39,-316,-179,-137,247
,420,2023-10-27 11:19:12.95,203,-222,-2003,21,-107,34,-351,-113,-238,232
,421,2023-10-27 11:19:12.96,188,-169,-2045,31,-85,27,-312,-182,-130,247
,422,2023-10-27 11:19:12.97,171,-125,-2081,23,-78,20,-352,-118,-234,235
,423,2023-10-27 11:19:12.98,192,-149,-2083,-2,-78,14,-328,-188,-140,258
,424,2023-10-27 11:19:12.99,182,-177,-2055,-19,-73,5,-350,-114,-236,232
,425,2023-10-27 11:19:13.00,180,-161,-2041,-20,-62,1,-322,-186,-136,254
,426,2023-10-27 11:19:13.01,187,-151,-2029,-25,-58,-4,-335,-104,-231,219
,427,2023-10-27 11:19:13.02,176,-164,-2031,-29,-46,-10,-322,-186,-136,254
,428,2023-10-27 11:19:13.03,179,-171,-2028,-27,-37,-15,-327,-104,-223,215
,429,2023-10-27 11:19:13.04,182,-186,-2032,-19,-30,-17,-316,-182,-134,249
,430,2023-10-27 11:19:13.05,188,-190,-2025,-11,-23,-16,-320,-83,-237,201
,431,2023-10-27 11:19:13.06,180,-194,-2032,-4,-17,-16,-320,-180,-140,250
,432,2023-10-27 11:19:13.07,177,-191,-2024,2,-9,-15,-310,-93,-217,201
,433,2023-10-27 11:19:13.08,176,-197,-2033,8,-5,-13,-316,-192,-124,254
,434,2023-10-27 11:19:13.09,175,-195,-2041,19,-4,-10,-304,-88,-216,196
,435,2023-10-27 11:19:13.10,172,-197,-2052,24,-9,-4,-329,-187,-142,258
,436,2023-10-27 11:19:13.11,159,-189,-2055,29,-16,0,-309,-88,-221,198
,437,2023-10-27 11:19:13.12,167,-185,-2050,28,-17,6,-334,-206,-128,270
,438,2023-10-27 11:19:13.13,161,-196,-2059,27,-13,7,-313,-101,-212,207
,439,2023-10-27 11:19:13.14,164,-188,-2055,21,-8,10,-344,-203,-141,273
,440,2023-10-27 11:19:13.15,181,-180,-2058,8,12,11,-305,-88,-217,196
,441,2023-10-27 11:19:13.16,151,-188,-2040,-6,27,8,-341,-204,-137,272
,442,2023-10-27 11:19:13.17,166,-185,-2038,-7,19,9,-303,-99,-204,201
,443,2023-10-27 11:19:13.18,174,-184,-2043,-11,27,8,-355,-230,-125,292
,444,2023-10-27 11:19:13.19,180,-179,-2030,-16,36,4,-300,-105,-195,202
,445,2023-10-27 11:19:13.20,189,-175,-2028,-21,51,-4,-346,-222,-124,284
,446,2023-10-27 11:19:13.21,181,-170,-2036,-28,65,-11,-292,-97,-195,194
,447,2023-10-27 11:19:13.22,191,-169,-2041,-29,79,-15,-352,-212,-140,282
,448,2023-10-27 11:19:13.23,183,-175,-2036,-32,82,-20,-298,-86,-212,192
,449,2023-10-27 11:19:13.24,176,-169,-2047,-38,81,-25,-361,-216,-145,288
,450,2023-10-27 11:19:13.25,179,-175,-2041,-37,81,-28,-294,-91,-203,192
,451,2023-10-27 11:19:13.26,182,-166,-2048,-35,82,-29,-365,-218,-147,291
,452,2023-10-27 11:19:13.27,187,-161,-2057,-35,79,-31,-300,-88,-212,194
,453,2023-10-27 11:19:13.28,173,-165,-2031,-33,66,-35,-382,-226,-156,304
,454,2023-10-27 11:19:13.29,189,-161,-2046,-10,35,-29,-297,-99,-198,198
,455,2023-10-27 11:19:13.30,204,-169,-2073,-6,30,-33,-378,-223,-155,300
,456,2023-10-27 11:19:13.31,199,-155,-2068,-17,55,-37,-291,-82,-209,186
,457,2023-10-27 11:19:13.32,182,-156,-2061,-16,48,-40,-383,-222,-161,302
,458,2023-10-27 11:19:13.33,198,-163,-2060,-12,33,-37,-295,-90,-205,192
,459,2023-10-27 11:19:13.34,193,-169,-2048,-9,34,-37,-392,-229,-163,310
,460,2023-10-27 11:19:13.35,204,-169,-2045,2,15,-34,-294,-89,-205,191
,461,2023-10-27 11:19:13.36,223,-169,-2053,-4,31,-36,-396,-228,-168,312
,462,2023-10-27 11:19:13.37,197,-160,-2045,-10,45,-35,-294,-85,-209,189
,463,2023-10-27 11:19:13.38,200,-160,-2023,-8,43,-37,-405,-227,-178,316
,464,2023-10-27 11:19:13.39,209,-160,-2051,4,15,-30,-289,-86,-203,187
,465,2023-10-27 11:19:13.40,233,-166,-2056,2,25,-28,-402,-226,-176,314
,466,2023-10-27 11:19:13.41,219,-164,-2042,-5,50,-25,-291,-80,-211,185
,467,2023-10-27 11:19:13.42,195,-176,-2044,-6,43,-20,-414,-223,-191,318
,468,2023-10-27 11:19:13.43,213,-170,-2051,-4,31,-14,-293,-75,-218,184
,469,2023-10-27 11:19:13.44,220,-155,-2057,0,27,-9,-418,-226,-192,322
,470,2023-10-27 11:19:13.45,218,-149,-2050,-3,35,-9,-300,-85,-215,192
,471,2023-10-27 11:19:13.46,221,-141,-2046,-12,48,-12,-427,-234,-193,330
,472,2023-10-27 11:19:13.47,204,-149,-2048,-14,40,-10,-295,-82,-213,188
,473,2023-10-27 11:19:13.48,215,-157,-2053,-11,33,-11,-426,-230,-196,328
,474,2023-10-27 11:19:13.49,205,-158,-2059,-5,21,-5,-290,-84,-206,187
,475,2023-10-27 11:19:13.50,220,-159,-2039,-7,32,0,-426,-225,-201,325
,476,2023-10-27 11:19:13.51,218,-148,-2036,-13,39,-5,-295,-80,-215,187
,477,2023-10-27 11:19:13.52,214,-152,-2034,-13,34,-2,-435,-230,-205,332
,478,2023-10-27 11:19:13.53,204,-149,-2042,-7,20,1,-286,-77,-209,181
,479,2023-10-27 11:19:13.54,236,-150,-2049,-5,11,6,-435,-224,-211,329
,480,2023-10-27 11:19:13.55,214,-149,-2040,-9,30,3,-289,-67,-222,178
,481,2023-10-27 11:19:13.56,213,-144,-2039,-14,35,4,-441,-213,-228,327
,482,2023-10-27 11:19:13.57,220,-158,-2049,-10,33,7,-285,-62,-223,173
,483,2023-10-27 11:19:13.58,216,-153,-2052,-4,27,9,-446,-207,-239,326
,484,2023-10-27 11:19:13.59,230,-156,-2040,2,20,14,-316,-58,-258,187
,485,2023-10-27 11:19:13.60,223,-153,-2054,9,17,17,-490,-210,-280,350
,486,2023-10-27 11:19:13.61,224,-156,-2050,12,22,17,-362,-58,-304,210
,487,2023-10-27 11:19:13.62,240,-145,-2045,14,29,17,-516,-209,-307,362
,488,2023-10-27 11:19:13.63,230,-147,-2048,16,29,18,-363,-64,-299,213
,489,2023-10-27 11:19:13.64,226,-154,-2047,20,33,19,-522,-203,-319,362
,490,2023-10-27 11:19:13.65,226,-157,-2049,24,34,19,-384,-48,-336,216
,491,2023-10-27 11:19:13.66,224,-160,-2057,27,32,21,-536,-206,-330,371
,492,2023-10-27 11:19:13.67,225,-157,-2053,29,26,23,-359,-61,-298,210
,493,2023-10-27 11:19:13.68,223,-156,-2058,29,21,30,-510,-206,-304,358
,494,2023-10-27 11:19:13.69,219,-151,-2054,31,15,30,-347,-59,-288,203
,495,2023-10-27 11:19:13.70,214,-163,-2058,35,8,34,-516,-204,-312,360
,496,2023-10-27 11:19:13.71,214,-167,-2056,39,0,40,-358,-60,-298,209
,497,2023-10-27 11:19:13.72,221,-157,-2040,38,-4,41,-519,-208,-311,363
,498,2023-10-27 11:19:13.73,224,-163,-2052,39,-1,43,-342,-69,-273,205
,499,2023-10-27 11:19:13.74,222,-160,-2047,39,-6,45,-505,-210,-295,357
,500,2023-10-27 11:19:13.75,214,-159,-2046,41,-6,46,-329,-62,-267,195
,501,2023-10-27 11:19:13.76,212,-173,-2044,43,-5,49,-511,-197,-314,354
,502,2023-10-27 11:19:13.77,222,-181,-2054,44,-5,49,-361,-62,-299,211
,503,2023-10-27 11:19:13.78,223,-173,-2047,47,-6,53,-536,-211,-325,373
,504,2023-10-27 11:19:13.79,210,-168,-2051,45,-4,53,-349,-75,-274,212
,505,2023-10-27 11:19:13.80,208,-165,-2045,42,-9,56,-510,-212,-298,361
,506,2023-10-27 11:19:13.81,218,-162,-2047,38,-11,57,-328,-76,-252,202
,507,2023-10-27 11:19:13.82,219,-159,-2052,33,-15,57,-508,-206,-302,357
,508,2023-10-27 11:19:13.83,223,-166,-2048,26,-17,57,-341,-73,-268,207
,509,2023-10-27 11:19:13.84,222,-167,-2042,27,-19,54,-523,-197,-326,360
,510,2023-10-27 11:19:13.85,223,-156,-2039,31,-19,52,-355,-68,-287,211
,511,2023-10-27 11:19:13.86,215,-164,-2037,29,-14,48,-538,-194,-344,366
,512,2023-10-27 11:19:13.87,227,-152,-2037,28,-13,45,-367,-70,-297,218
,513,2023-10-27 11:19:13.88,218,-168,-2044,24,-7,40,-534,-199,-335,366
,514,2023-10-27 11:19:13.89,229,-166,-2045,23,-2,36,-345,-81,-264,213
,515,2023-10-27 11:19:13.90,215,-162,-2051,28,-3,34,-530,-190,-340,360
,516,2023-10-27 11:19:13.91,220,-171,-2037,30,-7,35,-366,-65,-301,215
,517,2023-10-27 11:19:13.92,212,-173,-2051,29,1,33,-550,-194,-356,372
,518,2023-10-27 11:19:13.93,209,-180,-2048,27,2,31,-373,-86,-287,229
,519,2023-10-27 11:19:13.94,219,-175,-2047,31,-2,34,-540,-203,-337,371
,520,2023-10-27 11:19:13.95,215,-172,-2043,34,-3,36,-363,-95,-268,229
,521,2023-10-27 11:19:13.96,218,-175,-2045,28,7,35,-551,-196,-355,373
,522,2023-10-27 11:19:13.97,218,-164,-2036,27,5,35,-398,-98,-300,248
,523,2023-10-27 11:19:13.98,227,-175,-2040,26,6,40,-563,-210,-353,386
,524,2023-10-27 11:19:13.99,210,-176,-2050,22,9,38,-374,-113,-261,243
,525,2023-10-27 11:19:14.00,208,-170,-2037,21,7,40,-527,-212,-315,369
,526,2023-10-27 11:19:14.01,217,-172,-2046,19,6,41,-340,-115,-225,227
,527,2023-10-27 11:19:14.02,209,-179,-2047,20,4,40,-516,-211,-305,363
,528,2023-10-27 11:19:14.03,226,-176,-2055,21,5,42,-341,-116,-225,228
,529,2023-10-27 11:19:14.04,207,-173,-2055,20,-2,44,-498,-209,-289,353
,530,2023-10-27 11:19:14.05,218,-175,-2057,15,-7,45,-299,-117,-182,208
,531,2023-10-27 11:19:14.06,225,-179,-2046,15,-9,44,-465,-209,-256,337
,532,2023-10-27 11:19:14.07,211,-179,-2042,21,-10,48,-293,-126,-167,209
,533,2023-10-27 11:19:14.08,206,-182,-2036,26,-10,48,-465,-205,-260,335
,534,2023-10-27 11:19:14.09,225,-186,-2034,28,-5,50,-294,-116,-178,205
,535,2023-10-27 11:19:14.10,221,-195,-2053,34,2,51,-472,-190,-282,331
,536,2023-10-27 11:19:14.11,207,-190,-2052,37,4,51,-305,-117,-188,211
,537,2023-10-27 11:19:14.12,217,-188,-2046,41,-2,56,-480,-192,-288,336
,538,2023-10-27 11:19:14.13,225,-196,-2058,45,6,60,-315,-117,-198,216
,539,2023-10-27 11:19:14.14,195,-197,-2045,45,5,62,-484,-182,-302,333
,540,2023-10-27 11:19:14.15,223,-182,-2048,49,6,67,-328,-113,-215,220
,541,2023-10-27 11:19:14.16,217,-177,-2049,48,10,64,-493,-181,-312,337
,542,2023-10-27 11:19:14.17,206,-178,-2051,49,0,65,-336,-128,-208,232
,543,2023-10-27 11:19:14.18,204,-182,-2057,49,-7,67,-500,-186,-314,343
,544,2023-10-27 11:19:14.19,203,-189,-2074,46,-4,67,-346,-129,-217,237
,545,2023-10-27 11:19:14.20,197,-190,-2057,46,-19,66,-507,-180,-327,343
,546,2023-10-27 11:19:14.21,208,-186,-2038,49,-22,70,-363,-134,-229,248
,547,2023-10-27 11:19:14.22,206,-183,-2037,47,-24,68,-525,-184,-341,354
,548,2023-10-27 11:19:14.23,223,-179,-2038,35,-6,63,-381,-144,-237,262
,549,2023-10-27 11:19:14.24,191,-175,-2032,26,-6,59,-521,-190,-331,355
,550,2023-10-27 11:19:14.25,195,-182,-2031,24,-25,62,-362,-144,-218,253
,551,2023-10-27 11:19:14.26,216,-192,-2040,27,-23,61,-522,-174,-348,348
,552,2023-10-27 11:19:14.27,191,-191,-2015,30,-19,56,-398,-148,-250,273
,553,2023-10-27 11:19:14.28,200,-186,-2056,32,-12,53,-560,-189,-371,374
,554,2023-10-27 11:19:14.29,199,-187,-2064,18,-8,53,-437,-159,-278,298
,555,2023-10-27 11:19:14.30,200,-202,-2040,18,-18,54,-592,-179,-413,385
,556,2023-10-27 11:19:14.31,210,-204,-2041,23,-7,56,-468,-155,-313,311
,557,2023-10-27 11:19:14.32,207,-198,-2037,19,-4,55,-596,-184,-412,390
,558,2023-10-27 11:19:14.33,207,-205,-2043,18,0,55,-455,-174,-281,314
,559,2023-10-27 11:19:14.34,203,-203,-2047,20,5,56,-562,-183,-379,372
,560,2023-10-27 11:19:14.35,195,-198,-2050,25,8,55,-418,-162,-256,290
,561,2023-10-27 11:19:14.36,210,-207,-2036,25,9,55,-547,-170,-377,358
,562,2023-10-27 11:19:14.37,215,-204,-2042,24,14,54,-434,-156,-278,295
,563,2023-10-27 11:19:14.38,208,-207,-2036,20,16,53,-588,-165,-423,376
,564,2023-10-27 11:19:14.39,207,-201,-2031,23,21,53,-482,-167,-315,324
,565,2023-10-27 11:19:14.40,201,-205,-2039,27,26,49,-582,-163,-419,372
,566,2023-10-27 11:19:14.41,214,-205,-2037,26,25,48,-455,-156,-299,305
,567,2023-10-27 11:19:14.42,204,-209,-2050,29,19,45,-605,-136,-469,370
,568,2023-10-27 11:19:14.43,200,-210,-2050,35,15,44,-529,-149,-380,339
,569,2023-10-27 11:19:14.44,201,-207,-2047,41,6,44,-663,-140,-523,401
,570,2023-10-27 11:19:14.45,209,-210,-2038,43,3,45,-564,-156,-408,360
,571,2023-10-27 11:19:14.46,224,-205,-2038,43,13,38,-652,-127,-525,389
,572,2023-10-27 11:19:14.47,213,-202,-2047,43,11,34,-539,-148,-391,343
,573,2023-10-27 11:19:14.48,211,-203,-2041,39,8,33,-618,-131,-487,374
,574,2023-10-27 11:19:14.49,193,-208,-2049,40,3,33,-510,-161,-349,335
,575,2023-10-27 11:19:14.50,201,-208,-2052,41,-5,31,-597,-130,-467,363
,576,2023-10-27 11:19:14.51,200,-205,-2051,43,-10,34,-508,-161,-347,334
,577,2023-10-27 11:19:14.52,209,-214,-2054,39,-7,36,-567,-119,-448,343
,578,2023-10-27 11:19:14.53,208,-210,-2048,32,0,34,-461,-153,-308,307
,579,2023-10-27 11:19:14.54,196,-219,-2040,31,-1,35,-559,-108,-451,333
,580,2023-10-27 11:19:14.55,205,-215,-2033,31,-2,37,-494,-163,-331,328
,581,2023-10-27 11:19:14.56,205,-210,-2043,25,2,37,-551,-128,-423,339
,582,2023-10-27 11:19:14.57,201,-205,-2042,21,5,37,-456,-178,-278,317
,583,2023-10-27 11:19:14.58,208,-205,-2048,17,9,38,-504,-109,-395,306
,584,2023-10-27 11:19:14.59,212,-205,-2041,12,10,40,-441,-157,-284,299
,585,2023-10-27 11:19:14.60,211,-202,-2041,-4,17,40,-540,-96,-444,318
,586,2023-10-27 11:19:14.61,205,-196,-2041,-9,14,38,-509,-167,-342,338
,587,2023-10-27 11:19:14.62,202,-191,-2049,-14,12,36,-591,-100,-491,345
,588,2023-10-27 11:19:14.63,211,-199,-2045,-15,7,34,-542,-170,-372,356
,589,2023-10-27 11:19:14.64,197,-195,-2043,-16,4,32,-592,-112,-480,352
,590,2023-10-27 11:19:14.65,198,-188,-2048,-20,-4,29,-524,-198,-326,361
,591,2023-10-27 11:19:14.66,212,-204,-2043,-22,-13,26,-525,-130,-395,327
,592,2023-10-27 11:19:14.67,205,-201,-2046,-15,-16,27,-453,-197,-256,325
,593,2023-10-27 11:19:14.68,223,-205,-2036,-12,-16,24,-473,-110,-363,291
,594,2023-10-27 11:19:14.69,200,-201,-2036,-10,-15,22,-434,-186,-248,310
,595,2023-10-27 11:19:14.70,217,-199,-2041,-8,-14,19,-450,-94,-356,272
,596,2023-10-27 11:19:14.71,215,-196,-2037,-8,-9,18,-423,-189,-234,306
,597,2023-10-27 11:19:14.72,211,-193,-2035,-5,-8,18,-422,-104,-318,263
,598,2023-10-27 11:19:14.73,214,-204,-2040,1,-6,17,-403,-187,-216,295
,599,2023-10-27 11:19:14.74,213,-207,-2045,4,-9,21,-427,-96,-331,261
,600,2023-10-27 11:19:14.75,215,-203,-2049,6,-8,26,-428,-192,-236,310
,601,2023-10-27 11:19:14.76,196,-211,-2048,5,-10,30,-439,-94,-345,266
,602,2023-10-27 11:19:14.77,208,-210,-2044,10,-16,36,-437,-206,-231,321
,603,2023-10-27 11:19:14.78,205,-212,-2047,14,-17,41,-424,-108,-316,266
,604,2023-10-27 11:19:14.79,203,-203,-2053,16,-14,45,-426,-214,-212,320
,605,2023-10-27 11:19:14.80,189,-201,-2045,15,-13,47,-401,-103,-298,252
,606,2023-10-27 11:19:14.81,200,-199,-2053,16,-20,51,-409,-211,-198,310
,607,2023-10-27 11:19:14.82,235,-200,-2062,13,-4,50,-385,-97,-288,241
,608,2023-10-27 11:19:14.83,192,-199,-2045,12,1,47,-412,-210,-202,311
,609,2023-10-27 11:19:14.84,198,-204,-2037,17,-3,46,-398,-91,-307,244
,610,2023-10-27 11:19:14.85,200,-199,-2048,18,-14,44,-446,-199,-247,322
,611,2023-10-27 11:19:14.86,197,-198,-2042,22,-14,44,-511,-83,-428,297
,612,2023-10-27 11:19:14.87,194,-202,-2050,28,-6,42,-560,-224,-336,392
,613,2023-10-27 11:19:14.88,177,-205,-2050,33,-15,39,-494,-113,-381,303
,614,2023-10-27 11:19:14.89,202,-205,-2034,38,-21,40,-488,-248,-240,368
,615,2023-10-27 11:19:14.90,187,-197,-2030,46,-21,36,-410,-118,-292,264
,616,2023-10-27 11:19:14.91,191,-198,-2040,46,-22,30,-445,-247,-198,346
,617,2023-10-27 11:19:14.92,195,-200,-2032,48,-24,27,-390,-122,-268,256
,618,2023-10-27 11:19:14.93,190,-205,-2072,49,-18,23,-439,-256,-183,347
,619,2023-10-27 11:19:14.94,175,-205,-2074,40,-24,23,-362,-114,-248,238
,620,2023-10-27 11:19:14.95,192,-218,-2062,31,-26,24,-416,-251,-165,333
,621,2023-10-27 11:19:14.96,171,-218,-2042,19,-7,22,-335,-119,-216,227
,622,2023-10-27 11:19:14.97,162,-209,-2033,17,-11,23,-404,-259,-145,331
,623,2023-10-27 11:19:14.98,184,-212,-2046,19,-34,32,-319,-116,-203,217
,624,2023-10-27 11:19:14.99,178,-210,-2053,19,-37,33,-395,-256,-139,325
,625,2023-10-27 11:19:15.00,178,-204,-2050,17,-33,35,-303,-112,-191,207
,626,2023-10-27 11:19:15.01,190,-209,-2044,3,-17,30,-392,-261,-131,326
,627,2023-10-27 11:19:15.02,166,-206,-2034,-1,-11,30,-299,-118,-181,208
,628,2023-10-27 11:19:15.03,188,-206,-2038,2,-21,35,-389,-263,-126,326
,629,2023-10-27 11:19:15.04,181,-214,-2033,2,-14,35,-281,-110,-171,195
,630,2023-10-27 11:19:15.05,182,-208,-2038,1,-8,35,-381,-256,-125,318
,631,2023-10-27 11:19:15.06,181,-214,-2043,1,2,36,-267,-103,-164,185
,632,2023-10-27 11:19:15.07,188,-209,-2039,1,13,32,-376,-258,-118,317
,633,2023-10-27 11:19:15.08,198,-214,-2042,1,16,29,-262,-106,-156,184
,634,2023-10-27 11:19:15.09,187,-216,-2046,5,23,26,-381,-261,-120,321
,635,2023-10-27 11:19:15.10,189,-206,-2044,6,30,22,-260,-104,-156,182
,636,2023-10-27 11:19:15.11,197,-210,-2045,7,30,16,-378,-260,-118,319
,637,2023-10-27 11:19:15.12,190,-210,-2043,9,35,14,-252,-106,-146,179
,638,2023-10-27 11:19:15.13,196,-207,-2037,11,37,8,-380,-268,-112,324
,639,2023-10-27 11:19:15.14,193,-212,-2038,17,38,3,-240,-105,-135,172
,640,2023-10-27 11:19:15.15,201,-209,-2055,16,37,-2,-374,-264,-110,319
,641,2023-10-27 11:19:15.16,199,-218,-2042,17,34,-5,-245,-109,-136,177
,642,2023-10-27 11:19:15.17,197,-228,-2045,25,32,-4,-387,-273,-114,330
,643,2023-10-27 11:19:15.18,185,-233,-2045,31,28,-3,-250,-119,-131,184
,644,2023-10-27 11:19:15.19,206,-226,-2041,29,21,-1,-395,-283,-112,339
,645,2023-10-27 11:19:15.20,199,-232,-2038,25,21,2,-253,-132,-121,192
,646,2023-10-27 11:19:15.21,192,-220,-2045,25,18,2,-405,-299,-106,352
,647,2023-10-27 11:19:15.22,193,-229,-2043,26,13,2,-266,-154,-112,210
,648,2023-10-27 11:19:15.23,195,-234,-2049,22,12,5,-434,-337,-97,385
,649,2023-10-27 11:19:15.24,206,-231,-2054,17,11,8,-287,-189,-98,238
,650,2023-10-27 11:19:15.25,198,-229,-2048,15,8,12,-439,-351,-88,395
,651,2023-10-27 11:19:15.26,205,-231,-2040,11,9,16,-281,-193,-88,237
,652,2023-10-27 11:19:15.27,199,-230,-2035,5,10,18,-429,-336,-93,382
,653,2023-10-27 11:19:15.28,200,-228,-2047,-3,14,23,-258,-168,-90,213
,654,2023-10-27 11:19:15.29,211,-223,-2041,-9,13,24,-413,-310,-103,361
,655,2023-10-27 11:19:15.30,198,-219,-2045,-10,14,24,-236,-137,-99,186
,656,2023-10-27 11:19:15.31,200,-214,-2040,-15,13,22,-391,-278,-113,334
,657,2023-10-27 11:19:15.32,190,-214,-2042,-18,12,22,-209,-106,-103,157
,658,2023-10-27 11:19:15.33,199,-206,-2043,-24,15,19,-375,-252,-123,313
,659,2023-10-27 11:19:15.34,204,-205,-2042,-25,12,17,-195,-84,-111,139
,660,2023-10-27 11:19:15.35,194,-204,-2043,-23,14,17,-364,-231,-133,297
,661,2023-10-27 11:19:15.36,208,-203,-2048,-21,12,12,-181,-69,-112,125
,662,2023-10-27 11:19:15.37,203,-203,-2042,-25,9,9,-363,-222,-141,292
,663,2023-10-27 11:19:15.38,198,-203,-2044,-21,7,8,-182,-64,-118,123
,664,2023-10-27 11:19:15.39,198,-210,-2046,-18,3,5,-363,-219,-144,291
,665,2023-10-27 11:19:15.40,193,-204,-2046,-19,2,4,-177,-62,-115,119
,666,2023-10-27 11:19:15.41,198,-198,-2049,-17,2,1,-362,-215,-147,288
,667,2023-10-27 11:19:15.42,188,-202,-2044,-14,-6,1,-182,-69,-113,125
,668,2023-10-27 11:19:15.43,210,-206,-2052,-11,-10,-1,-372,-223,-149,297
,669,2023-10-27 11:19:15.44,194,-205,-2042,-11,-10,0,-184,-71,-113,127
,670,2023-10-27 11:19:15.45,185,-204,-2041,-13,-11,1,-368,-221,-147,294
,671,2023-10-27 11:19:15.46,208,-207,-2046,-11,-11,0,-180,-75,-105,127
,672,2023-10-27 11:19:15.47,199,-212,-2044,-11,-12,1,-371,-225,-146,298
,673,2023-10-27 11:19:15.48,191,-202,-2037,-11,-10,3,-185,-83,-102,134
,674,2023-10-27 11:19:15.49,196,-191,-2046,-8,-10,-3,-377,-228,-149,302
,675,2023-10-27 11:19:15.50,183,-203,-2049,-5,-13,-3,-190,-84,-106,137
,676,2023-10-27 11:19:15.51,199,-199,-2049,-5,-18,-1,-380,-225,-155,302
,677,2023-10-27 11:19:15.52,186,-202,-2038,-5,-17,-2,-189,-89,-100,139
,678,2023-10-27 11:19:15.53,191,-207,-2045,-6,-16,-1,-381,-233,-148,307
,679,2023-10-27 11:19:15.54,191,-202,-2044,-2,-17,0,-189,-99,-90,144
,680,2023-10-27 11:19:15.55,198,-205,-2047,-3,-17,-1,-384,-233,-151,308
,681,2023-10-27 11:19:15.56,195,-202,-2052,-3,-17,2,-192,-101,-91,146
,682,2023-10-27 11:19:15.57,187,-202,-2047,-3,-17,4,-385,-236,-149,310
,683,2023-10-27 11:19:15.58,189,-199,-2041,-2,-16,7,-191,-106,-85,148
,684,2023-10-27 11:19:15.59,197,-207,-2040,-1,-14,8,-389,-241,-148,315
,685,2023-10-27 11:19:15.60,197,-216,-2041,1,-11,12,-195,-115,-80,155
,686,2023-10-27 11:19:15.61,192,-213,-2039,2,-10,14,-392,-243,-149,317
,687,2023-10-27 11:19:15.62,197,-210,-2041,6,-5,17,-201,-115,-86,158
,688,2023-10-27 11:19:15.63,192,-211,-2034,8,-1,18,-389,-234,-155,311
,689,2023-10-27 11:19:15.64,194,-207,-2029,5,11,18,-206,-123,-83,164
,690,2023-10-27 11:19:15.65,189,-212,-2045,6,15,19,-390,-235,-155,312
,691,2023-10-27 11:19:15.66,188,-209,-2039,4,18,22,-202,-122,-80,162
,692,2023-10-27 11:19:15.67,183,-203,-2045,6,20,22,-388,-235,-153,311
,693,2023-10-27 11:19:15.68,181,-208,-2044,8,22,22,-200,-121,-79,160
,694,2023-10-27 11:19:15.69,205,-209,-2050,6,20,22,-387,-226,-161,306
,695,2023-10-27 11:19:15.70,193,-207,-2044,7,19,23,-204,-122,-82,163
,696,2023-10-27 11:19:15.71,192,-194,-2046,5,21,23,-390,-231,-159,310
,697,2023-10-27 11:19:15.72,205,-188,-2044,3,23,19,-208,-128,-80,168
,698,2023-10-27 11:19:15.73,201,-194,-2055,0,18,15,-389,-226,-163,307
,699,2023-10-27 11:19:15.74,171,-201,-2055,-1,14,11,-206,-128,-78,167
,700,2023-10-27 11:19:15.75,183,-194,-2052,-3,4,10,-385,-223,-162,304
,701,2023-10-27 11:19:15.76,196,-203,-2053,-2,-5,12,-203,-131,-72,167
,702,2023-10-27 11:19:15.77,193,-199,-2043,-1,-10,12,-380,-223,-157,301
,703,2023-10-27 11:19:15.78,186,-202,-2039,-3,-11,11,-209,-137,-72,173
,704,2023-10-27 11:19:15.79,192,-192,-2045,-9,-12,11,-388,-223,-165,305
,705,2023-10-27 11:19:15.80,197,-189,-2040,-10,-13,11,-215,-140,-75,177
,706,2023-10-27 11:19:15.81,212,-187,-2038,-12,-10,11,-384,-225,-159,304
,707,2023-10-27 11:19:15.82,191,-190,-2045,-14,-5,12,-214,-147,-67,180
,708,2023-10-27 11:19:15.83,191,-199,-2040,-17,-2,13,-383,-222,-161,302
,709,2023-10-27 11:19:15.84,184,-194,-2043,-18,4,17,-220,-152,-68,186
,710,2023-10-27 11:19:15.85,195,-198,-2043,-17,8,17,-388,-226,-162,307
,711,2023-10-27 11:19:15.86,181,-202,-2050,-16,10,20,-231,-163,-68,197
,712,2023-10-27 11:19:15.87,197,-197,-2053,-15,14,24,-389,-226,-163,307
,713,2023-10-27 11:19:15.88,186,-198,-2055,-10,10,23,-228,-162,-66,195
,714,2023-10-27 11:19:15.89,192,-193,-2046,-4,8,27,-382,-221,-161,301
,715,2023-10-27 11:19:15.90,197,-185,-2038,2,13,28,-227,-167,-60,197
,716,2023-10-27 11:19:15.91,197,-187,-2042,5,15,24,-379,-221,-158,300
,717,2023-10-27 11:19:15.92,193,-194,-2048,9,16,21,-234,-171,-63,202
,718,2023-10-27 11:19:15.93,193,-187,-2049,14,12,21,-379,-216,-163,297
,719,2023-10-27 11:19:15.94,203,-185,-2051,20,11,20,-238,-176,-62,207
,720,2023-10-27 11:19:15.95,195,-187,-2050,25,9,17,-383,-220,-163,301
,721,2023-10-27 11:19:15.96,193,-186,-2042,25,9,14,-248,-181,-67,214
,722,2023-10-27 11:19:15.97,196,-187,-2039,27,9,12,-378,-219,-159,298
,723,2023-10-27 11:19:15.98,194,-195,-2040,24,10,9,-245,-184,-61,214
,724,2023-10-27 11:19:15.99,176,-198,-2044,31,7,6,-375,-212,-163,293
,725,2023-10-27 11:19:16.00,207,-193,-2044,30,6,7,-251,-192,-59,221
,726,2023-10-27 11:19:16.01,199,-196,-2042,29,13,3,-382,-221,-161,301
,727,2023-10-27 11:19:16.02,188,-195,-2040,27,12,2,-261,-210,-51,235
,728,2023-10-27 11:19:16.03,200,-191,-2047,25,9,3,-380,-223,-157,301
,729,2023-10-27 11:19:16.04,188,-202,-2054,21,19,-1,-261,-211,-50,236
,730,2023-10-27 11:19:16.05,193,-202,-2051,21,7,1,-379,-222,-157,300
,731,2023-10-27 11:19:16.06,201,-196,-2053,20,3,5,-268,-215,-53,241
,732,2023-10-27 11:19:16.07,195,-200,-2047,14,6,6,-373,-221,-152,297
,733,2023-10-27 11:19:16.08,195,-206,-2052,11,3,7,-261,-216,-45,238
,734,2023-10-27 11:19:16.09,194,-200,-2039,8,-1,10,-366,-213,-153,289
,735,2023-10-27 11:19:16.10,193,-208,-2046,8,0,10,-266,-210,-56,238
,736,2023-10-27 11:19:16.11,190,-204,-2048,6,-1,11,-359,-190,-169,274
,737,2023-10-27 11:19:16.12,198,-195,-2043,7,2,11,-259,-206,-53,232
,738,2023-10-27 11:19:16.13,195,-193,-2041,8,5,11,-351,-197,-154,274
,739,2023-10-27 11:19:16.14,189,-198,-2044,7,6,6,-265,-216,-49,240
,740,2023-10-27 11:19:16.15,187,-196,-2049,7,7,6,-370,-204,-166,287
,741,2023-10-27 11:19:16.16,194,-196,-2045,9,2,6,-295,-199,-96,247
,742,2023-10-27 11:19:16.17,189,-195,-2047,12,0,3,-372,-226,-146,299
,743,2023-10-27 11:19:16.18,210,-198,-2048,18,-1,3,-293,-315,22,304
,744,2023-10-27 11:19:16.19,197,-197,-2046,18,3,-1,-399,-395,-4,397
,745,2023-10-27 11:19:16.20,195,-194,-2043,24,2,-5,-351,-469,118,410
,746,2023-10-27 11:19:16.21,189,-204,-2049,28,-4,-6,-543,-493,-50,518
,747,2023-10-27 11:19:16.22,205,-200,-2051,31,-8,-6,-537,-520,-17,528
,748,2023-10-27 11:19:16.23,199,-207,-2056,33,-5,-9,-783,-600,-183,691
,749,2023-10-27 11:19:16.24,202,-204,-2048,36,-3,-11,-799,-659,-140,729
,750,2023-10-27 11:19:16.25,198,-202,-2043,37,-2,-13,-886,-625,-261,755
,751,2023-10-27 11:19:16.26,185,-202,-2044,34,-9,-12,-778,-599,-179,688
,752,2023-10-27 11:19:16.27,192,-212,-2039,35,-11,-9,-907,-614,-293,760
,753,2023-10-27 11:19:16.28,201,-208,-2044,39,-9,-7,-883,-650,-233,766
,754,2023-10-27 11:19:16.29,188,-224,-2045,40,-11,-6,-997,-654,-343,825
,755,2023-10-27 11:19:16.30,191,-221,-2041,33,-5,-3,-933,-662,-271,797
,756,2023-10-27 11:19:16.31,195,-217,-2042,25,1,-2,-978,-590,-388,784
,757,2023-10-27 11:19:16.32,188,-216,-2036,20,8,5,-880,-573,-307,726
,758,2023-10-27 11:19:16.33,194,-216,-2033,20,16,8,-928,-496,-432,712
,759,2023-10-27 11:19:16.34,195,-215,-2040,17,19,12,-854,-522,-332,688
,760,2023-10-27 11:19:16.35,199,-208,-2043,10,26,13,-927,-537,-390,732
,761,2023-10-27 11:19:16.36,186,-203,-2040,5,22,15,-878,-597,-281,737
,762,2023-10-27 11:19:16.37,187,-201,-2049,2,15,19,-969,-577,-392,773
,763,2023-10-27 11:19:16.38,192,-205,-2041,-1,12,20,-925,-626,-299,775
,764,2023-10-27 11:19:16.39,199,-197,-2044,-1,10,17,-954,-625,-329,789
,765,2023-10-27 11:19:16.40,200,-204,-2051,-5,15,14,-877,-658,-219,767
,766,2023-10-27 11:19:16.41,188,-202,-2045,-3,10,12,-908,-571,-337,739
,767,2023-10-27 11:19:16.42,200,-203,-2041,-1,3,10,-860,-596,-264,728
,768,2023-10-27 11:19:16.43,202,-209,-2038,-1,5,5,-902,-563,-339,732
,769,2023-10-27 11:19:16.44,209,-202,-2048,4,6,4,-859,-612,-247,735
,770,2023-10-27 11:19:16.45,203,-203,-2043,7,8,1,-880,-513,-367,696
,771,2023-10-27 11:19:16.46,194,-204,-2038,7,9,-5,-843,-536,-307,689
,772,2023-10-27 11:19:16.47,200,-211,-2033,11,3,-6,-899,-435,-464,667
,773,2023-10-27 11:19:16.48,211,-210,-2039,13,7,-9,-893,-487,-406,690
,774,2023-10-27 11:19:16.49,199,-217,-2038,13,11,-8,-944,-379,-565,661
,775,2023-10-27 11:19:16.50,189,-219,-2046,15,13,-7,-930,-443,-487,686
,776,2023-10-27 11:19:16.51,199,-211,-2049,21,11,-2,-949,-341,-608,645
,777,2023-10-27 11:19:16.52,196,-219,-2050,22,14,-1,-924,-413,-511,668
,778,2023-10-27 11:19:16.53,202,-202,-2040,21,12,2,-967,-294,-673,630
,779,2023-10-27 11:19:16.54,204,-196,-2045,19,10,2,-970,-382,-588,676
,780,2023-10-27 11:19:16.55,190,-202,-2054,16,9,0,-996,-269,-727,632
,781,2023-10-27 11:19:16.56,187,-212,-2065,15,-1,6,-983,-375,-608,679
,782,2023-10-27 11:19:16.57,190,-215,-2055,18,-11,10,-944,-266,-678,605
,783,2023-10-27 11:19:16.58,194,-224,-2042,22,-15,15,-911,-367,-544,639
,784,2023-10-27 11:19:16.59,194,-212,-2034,20,-13,20,-920,-251,-669,585
,785,2023-10-27 11:19:16.60,198,-216,-2039,13,-12,19,-939,-362,-577,650
,786,2023-10-27 11:19:16.61,195,-209,-2041,11,-9,24,-954,-253,-701,603
,787,2023-10-27 11:19:16.62,189,-210,-2047,12,-8,22,-971,-375,-596,673
,788,2023-10-27 11:19:16.63,201,-205,-2035,11,-7,26,-1021,-292,-729,656
,789,2023-10-27 11:19:16.64,193,-210,-2044,7,-3,25,-1062,-421,-641,741
,790,2023-10-27 11:19:16.65,187,-209,-2044,1,2,26,-1020,-301,-719,660
,791,2023-10-27 11:19:16.66,194,-216,-2042,-1,7,26,-998,-395,-603,696
,792,2023-10-27 11:19:16.67,194,-214,-2041,-1,10,27,-986,-240,-746,613
,793,2023-10-27 11:19:16.68,200,-212,-2039,0,20,26,-1017,-346,-671,681
,794,2023-10-27 11:19:16.69,202,-213,-2050,0,22,23,-1006,-219,-787,612
,795,2023-10-27 11:19:16.70,202,-213,-2047,3,23,23,-1030,-362,-668,696
,796,2023-10-27 11:19:16.71,207,-209,-2045,6,23,22,-1034,-252,-782,643
,797,2023-10-27 11:19:16.72,202,-207,-2042,10,22,20,-1074,-388,-686,731
,798,2023-10-27 11:19:16.73,196,-209,-2042,14,22,16,-1042,-274,-768,658
,799,2023-10-27 11:19:16.74,211,-210,-2040,17,21,15,-1058,-395,-663,726
,800,2023-10-27 11:19:16.75,198,-207,-2045,19,17,14,-1013,-242,-771,627
,801,2023-10-27 11:19:16.76,205,-200,-2046,21,10,12,-1038,-358,-680,698
,802,2023-10-27 11:19:16.77,204,-204,-2040,20,7,11,-982,-215,-767,598
,803,2023-10-27 11:19:16.78,201,-214,-2039,20,5,8,-1021,-356,-665,688
,804,2023-10-27 11:19:16.79,197,-221,-2055,21,0,8,-1007,-228,-779,617
,805,2023-10-27 11:19:16.80,200,-214,-2040,22,-6,11,-1073,-367,-706,720
,806,2023-10-27 11:19:16.81,194,-217,-2038,19,2,10,-1051,-230,-821,640
,807,2023-10-27 11:19:16.82,204,-215,-2039,19,2,9,-1096,-367,-729,731
,808,2023-10-27 11:19:16.83,193,-217,-2040,17,2,8,-1006,-227,-779,616
,809,2023-10-27 11:19:16.84,192,-225,-2049,17,3,10,-1033,-382,-651,707
,810,2023-10-27 11:19:16.85,205,-220,-2042,14,0,14,-962,-275,-687,618
,811,2023-10-27 11:19:16.86,194,-219,-2042,14,-1,19,-1018,-459,-559,738
,812,2023-10-27 11:19:16.87,203,-219,-2047,11,0,26,-922,-421,-501,671
,813,2023-10-27 11:19:16.88,193,-226,-2046,4,0,26,-982,-582,-400,782
,814,2023-10-27 11:19:16.89,194,-219,-2052,-1,0,31,-959,-487,-472,723
,815,2023-10-27 11:19:16.90,192,-213,-2050,0,-1,34,-1055,-595,-460,825
,816,2023-10-27 11:19:16.91,205,-210,-2042,-3,-5,36,-982,-469,-513,725
,817,2023-10-27 11:19:16.92,205,-206,-2037,-5,-4,34,-1041,-575,-466,808
,818,2023-10-27 11:19:16.93,209,-205,-2038,-8,2,32,-960,-454,-506,707
,819,2023-10-27 11:19:16.94,189,-206,-2041,-8,4,27,-1042,-562,-480,802
,820,2023-10-27 11:19:16.95,201,-207,-2045,-4,7,28,-987,-424,-563,705
,821,2023-10-27 11:19:16.96,200,-200,-2040,-2,6,24,-1065,-536,-529,800
,822,2023-10-27 11:19:16.97,189,-203,-2042,-2,6,19,-928,-416,-512,672
,823,2023-10-27 11:19:16.98,196,-204,-2041,0,2,16,-980,-521,-459,750
,824,2023-10-27 11:19:16.99,209,-203,-2047,3,5,14,-866,-368,-498,617
,825,2023-10-27 11:19:17.00,192,-204,-2045,2,5,9,-969,-476,-493,722
,826,2023-10-27 11:19:17.01,201,-198,-2045,1,3,8,-911,-339,-572,625
,827,2023-10-27 11:19:17.02,198,-208,-2053,0,3,6,-1026,-482,-544,754
,828,2023-10-27 11:19:17.03,199,-209,-2046,3,1,7,-946,-383,-563,664
,829,2023-10-27 11:19:17.04,202,-203,-2045,7,-2,6,-1035,-549,-486,792
,830,2023-10-27 11:19:17.05,193,-206,-2039,6,-2,8,-897,-476,-421,686
,831,2023-10-27 11:19:17.06,189,-209,-2049,4,0,9,-974,-600,-374,787
,832,2023-10-27 11:19:17.07,196,-215,-2044,4,1,9,-828,-448,-380,638
,833,2023-10-27 11:19:17.08,190,-233,-2028,7,-1,14,-925,-535,-390,730
,834,2023-10-27 11:19:17.09,183,-222,-2067,15,8,18,-784,-376,-408,580
,835,2023-10-27 11:19:17.10,186,-205,-2085,11,-10,19,-917,-498,-419,707
,836,2023-10-27 11:19:17.11,188,-204,-2044,7,-19,24,-847,-388,-459,617
,837,2023-10-27 11:19:17.12,185,-191,-2038,8,-18,19,-973,-507,-466,740
,838,2023-10-27 11:19:17.13,206,-195,-2032,9,-23,13,-806,-362,-444,584
,839,2023-10-27 11:19:17.14,204,-204,-2015,9,-19,6,-898,-510,-388,704
,840,2023-10-27 11:19:17.15,195,-196,-2033,14,-2,-2,-754,-429,-325,591
,841,2023-10-27 11:19:17.16,195,-199,-2046,12,-5,-7,-888,-543,-345,715
,842,2023-10-27 11:19:17.17,202,-205,-2045,12,-8,-10,-771,-381,-390,576
,843,2023-10-27 11:19:17.18,208,-205,-2037,17,-3,-13,-932,-533,-399,732
,844,2023-10-27 11:19:17.19,203,-199,-2040,14,6,-14,-850,-498,-352,674
,845,2023-10-27 11:19:17.20,205,-216,-2037,12,2,-11,-975,-618,-357,796
,846,2023-10-27 11:19:17.21,187,-218,-2055,13,-4,-9,-805,-456,-349,630
,847,2023-10-27 11:19:17.22,209,-221,-2045,17,-9,-3,-904,-532,-372,718
,848,2023-10-27 11:19:17.23,201,-229,-2050,20,0,2,-741,-419,-322,580
,849,2023-10-27 11:19:17.24,184,-233,-2056,15,-3,9,-867,-526,-341,696
,850,2023-10-27 11:19:17.25,199,-239,-2050,12,-9,17,-703,-383,-320,543
,851,2023-10-27 11:19:17.26,196,-217,-2044,18,-2,24,-837,-573,-264,705
,852,2023-10-27 11:19:17.27,193,-209,-2040,18,-3,27,-677,-564,-113,620
,853,2023-10-27 11:19:17.28,199,-220,-2053,9,1,27,-832,-712,-120,772
,854,2023-10-27 11:19:17.29,196,-224,-2051,1,5,34,-698,-606,-92,652
,855,2023-10-27 11:19:17.30,195,-219,-2055,-3,6,35,-843,-729,-114,786
,856,2023-10-27 11:19:17.31,208,-217,-2050,0,1,38,-662,-655,-7,658
,857,2023-10-27 11:19:17.32,184,-205,-2032,-1,-1,39,-773,-722,-51,747
,858,2023-10-27 11:19:17.33,194,-205,-2033,-8,0,37,-565,-559,-6,562
,859,2023-10-27 11:19:17.34,206,-198,-2036,-16,4,34,-744,-610,-134,677
,860,2023-10-27 11:19:17.35,192,-191,-2034,-16,1,30,-635,-481,-154,558
,861,2023-10-27 11:19:17.36,205,-198,-2031,-13,-3,30,-818,-570,-248,694
,862,2023-10-27 11:19:17.37,190,-193,-2036,-8,-5,26,-658,-452,-206,555
,863,2023-10-27 11:19:17.38,190,-206,-2045,-9,-10,23,-817,-515,-302,666
,864,2023-10-27 11:19:17.39,196,-210,-2037,-4,-8,17,-668,-381,-287,524
,865,2023-10-27 11:19:17.40,169,-204,-2063,0,-5,16,-811,-443,-368,627
,866,2023-10-27 11:19:17.41,192,-206,-2051,6,-29,21,-629,-319,-310,474
,867,2023-10-27 11:19:17.42,198,-210,-2055,13,-22,21,-790,-402,-388,596
,868,2023-10-27 11:19:17.43,176,-193,-2072,12,-22,18,-647,-301,-346,474
,869,2023-10-27 11:19:17.44,195,-208,-2039,13,-25,19,-852,-421,-431,636
,870,2023-10-27 11:19:17.45,179,-213,-2031,17,-15,19,-751,-361,-390,556
,871,2023-10-27 11:19:17.46,198,-218,-2032,26,-15,21,-922,-461,-461,691
,872,2023-10-27 11:19:17.47,182,-204,-2056,28,-8,22,-779,-368,-411,573
,873,2023-10-27 11:19:17.48,178,-202,-2062,20,-7,25,-923,-542,-381,732
,874,2023-10-27 11:19:17.49,181,-203,-2038,20,-2,25,-770,-530,-240,650
,875,2023-10-27 11:19:17.50,188,-203,-2044,20,-1,26,-904,-654,-250,779
,876,2023-10-27 11:19:17.51,182,-200,-2034,15,2,22,-741,-566,-175,653
,877,2023-10-27 11:19:17.52,175,-203,-2030,8,5,21,-879,-611,-268,745
,878,2023-10-27 11:19:17.53,175,-207,-2042,8,4,21,-721,-493,-228,607
,879,2023-10-27 11:19:17.54,177,-207,-2045,3,3,19,-837,-713,-124,775
,880,2023-10-27 11:19:17.55,181,-206,-2042,2,4,19,-653,-765,112,709
,881,2023-10-27 11:19:17.56,189,-202,-2047,2,9,17,-796,-868,72,832
,882,2023-10-27 11:19:17.57,190,-198,-2035,-1,15,9,-651,-752,101,701
,883,2023-10-27 11:19:17.58,190,-200,-2043,-7,21,4,-813,-777,-36,795
,884,2023-10-27 11:19:17.59,190,-208,-2051,-8,25,1,-670,-659,-11,664
,885,2023-10-27 11:19:17.60,178,-213,-2045,-6,24,-6,-873,-717,-156,795
,886,2023-10-27 11:19:17.61,175,-205,-2047,-1,24,-4,-788,-631,-157,709
,887,2023-10-27 11:19:17.62,170,-213,-2043,-2,26,-8,-909,-660,-249,784
,888,2023-10-27 11:19:17.63,192,-215,-2044,-4,29,-5,-716,-555,-161,635
,889,2023-10-27 11:19:17.64,190,-205,-2052,-2,30,-4,-846,-624,-222,735
,890,2023-10-27 11:19:17.65,196,-210,-2048,0,29,-6,-719,-560,-159,639
,891,2023-10-27 11:19:17.66,196,-212,-2037,-1,30,-4,-857,-672,-185,764
,892,2023-10-27 11:19:17.67,207,-208,-2039,-3,32,-6,-712,-636,-76,674
,893,2023-10-27 11:19:17.68,201,-207,-2042,-5,30,-4,-860,-811,-49,835
,894,2023-10-27 11:19:17.69,205,-202,-2045,-7,30,-4,-741,-815,74,778
,895,2023-10-27 11:19:17.70,192,-203,-2045,-6,28,-6,-827,-922,95,874
,896,2023-10-27 11:19:17.71,198,-203,-2050,-5,31,-7,-647,-864,217,755
,897,2023-10-27 11:19:17.72,201,-213,-2043,-8,28,-4,-751,-910,159,830
,898,2023-10-27 11:19:17.73,204,-203,-2050,-9,25,-4,-627,-821,194,724
,899,2023-10-27 11:19:17.74,193,-195,-2050,-6,22,-3,-768,-892,124,830
,900,2023-10-27 11:19:17.75,207,-203,-2046,-7,20,-4,-656,-837,181,746
,901,2023-10-27 11:19:17.76,208,-204,-2051,-9,18,-1,-775,-899,124,837
,902,2023-10-27 11:19:17.77,205,-210,-2046,-7,18,2,-654,-842,188,748
,903,2023-10-27 11:19:17.78,206,-211,-2050,-5,17,3,-770,-969,199,869
,904,2023-10-27 11:19:17.79,204,-215,-2051,-4,13,7,-656,-940,284,798
,905,2023-10-27 11:19:17.80,202,-208,-2046,0,9,12,-753,-938,185,845
,906,2023-10-27 11:19:17.81,206,-210,-2040,3,9,15,-629,-818,189,723
,907,2023-10-27 11:19:17.82,215,-201,-2035,6,8,17,-769,-871,102,820
,908,2023-10-27 11:19:17.83,213,-205,-2038,3,11,20,-691,-837,146,764
,909,2023-10-27 11:19:17.84,206,-206,-2046,5,13,19,-784,-852,68,818
,910,2023-10-27 11:19:17.85,210,-202,-2042,5,13,19,-661,-778,117,719
,911,2023-10-27 11:19:17.86,203,-195,-2056,4,8,19,-729,-765,36,747
,912,2023-10-27 11:19:17.87,203,-199,-2052,4,5,21,-621,-701,80,661
,913,2023-10-27 11:19:17.88,201,-191,-2050,0,1,22,-768,-700,-68,734
,914,2023-10-27 11:19:17.89,201,-188,-2053,2,-5,21,-715,-666,-49,690
,915,2023-10-27 11:19:17.90,187,-197,-2053,3,-14,20,-857,-701,-156,779
,916,2023-10-27 11:19:17.91,195,-196,-2045,3,-17,18,-785,-692,-93,738
,917,2023-10-27 11:19:17.92,203,-194,-2047,2,-23,20,-893,-711,-182,802
,918,2023-10-27 11:19:17.93,201,-196,-2049,0,-31,22,-815,-683,-132,749
,919,2023-10-27 11:19:17.94,195,-205,-2044,6,-31,22,-903,-689,-214,796
,920,2023-10-27 11:19:17.95,202,-200,-2046,12,-33,22,-817,-688,-129,752
,921,2023-10-27 11:19:17.96,202,-201,-2037,12,-32,22,-886,-724,-162,805
,922,2023-10-27 11:19:17.97,218,-201,-2033,11,-22,26,-795,-722,-73,758
,923,2023-10-27 11:19:17.98,198,-199,-2037,10,-14,23,-862,-696,-166,779
,924,2023-10-27 11:19:17.99,188,-210,-2055,12,-7,26,-794,-673,-121,733
,925,2023-10-27 11:19:18.00,205,-211,-2047,10,-4,27,-823,-661,-162,742
,926,2023-10-27 11:19:18.01,200,-210,-2048,14,2,32,-733,-678,-55,705
,927,2023-10-27 11:19:18.02,201,-211,-2047,16,-1,36,-754,-635,-119,694
,928,2023-10-27 11:19:18.03,196,-206,-2052,15,0,38,-688,-630,-58,659
,929,2023-10-27 11:19:18.04,193,-188,-2049,17,0,37,-730,-694,-36,712
,930,2023-10-27 11:19:18.05,191,-190,-2042,17,1,35,-677,-755,78,716
,931,2023-10-27 11:19:18.06,184,-183,-2051,14,2,28,-729,-751,22,740
,932,2023-10-27 11:19:18.07,183,-188,-2055,13,-1,27,-694,-760,66,727
,933,2023-10-27 11:19:18.08,192,-191,-2051,13,-4,23,-731,-708,-23,719
,934,2023-10-27 11:19:18.09,190,-189,-2044,14,-9,21,-689,-727,38,708
,935,2023-10-27 11:19:18.10,181,-195,-2042,17,-13,20,-674,-785,111,729
,936,2023-10-27 11:19:18.11,182,-204,-2039,18,-14,17,-632,-825,193,728
,937,2023-10-27 11:19:18.12,180,-196,-2037,19,-14,13,-682,-770,88,726
,938,2023-10-27 11:19:18.13,189,-193,-2032,20,-12,15,-680,-755,75,717
,939,2023-10-27 11:19:18.14,194,-190,-2034,21,-10,13,-702,-657,-45,679
,940,2023-10-27 11:19:18.15,190,-198,-2040,19,-8,13,-682,-679,-3,680
,941,2023-10-27 11:19:18.16,191,-207,-2045,16,-2,15,-692,-657,-35,674
,942,2023-10-27 11:19:18.17,184,-217,-2043,14,-2,18,-684,-741,57,712
,943,2023-10-27 11:19:18.18,185,-212,-2049,16,3,23,-694,-876,182,785
,944,2023-10-27 11:19:18.19,188,-213,-2047,16,4,24,-694,-956,262,825
,945,2023-10-27 11:19:18.20,188,-209,-2041,14,7,30,-676,-934,258,805
,946,2023-10-27 11:19:18.21,187,-209,-2047,15,13,29,-665,-941,276,803
,947,2023-10-27 11:19:18.22,190,-211,-2048,14,16,29,-619,-914,295,766
,948,2023-10-27 11:19:18.23,192,-205,-2041,15,17,29,-629,-924,295,776
,949,2023-10-27 11:19:18.24,194,-207,-2045,18,18,28,-613,-847,234,730
,950,2023-10-27 11:19:18.25,191,-208,-2040,23,19,28,-639,-854,215,746
,951,2023-10-27 11:19:18.26,193,-206,-2044,24,23,27,-573,-785,212,679
,952,2023-10-27 11:19:18.27,203,-201,-2042,25,24,22,-596,-854,258,725
,953,2023-10-27 11:19:18.28,207,-195,-2051,25,25,19,-571,-965,394,768
,954,2023-10-27 11:19:18.29,196,-194,-2045,26,20,14,-629,-1063,434,846
,955,2023-10-27 11:19:18.30,200,-190,-2045,23,15,14,-571,-1086,515,828
,956,2023-10-27 11:19:18.31,197,-217,-2046,24,9,10,-615,-1108,493,861
,957,2023-10-27 11:19:18.32,189,-217,-2049,25,3,8,-588,-1145,557,866
,958,2023-10-27 11:19:18.33,192,-218,-2047,27,-3,10,-660,-1175,515,917
,959,2023-10-27 11:19:18.34,205,-219,-2045,26,-4,14,-620,-1178,558,899
,960,2023-10-27 11:19:18.35,193,-217,-2040,24,-3,13,-675,-1178,503,926
,961,2023-10-27 11:19:18.36,206,-216,-2044,23,-3,15,-609,-1174,565,891
,962,2023-10-27 11:19:18.37,206,-219,-2045,20,0,18,-671,-1184,513,927
,963,2023-10-27 11:19:18.38,193,-228,-2052,18,-5,20,-624,-1177,553,900
,964,2023-10-27 11:19:18.39,193,-226,-2048,18,-5,20,-693,-1185,492,939
,965,2023-10-27 11:19:18.40,189,-227,-2042,16,-7,24,-628,-1175,547,901
,966,2023-10-27 11:19:18.41,188,-221,-2047,14,-8,29,-682,-1187,505,934
,967,2023-10-27 11:19:18.42,199,-218,-2044,10,-6,29,-556,-1151,595,853
,968,2023-10-27 11:19:18.43,189,-220,-2045,12,-10,29,-620,-1156,536,888
,969,2023-10-27 11:19:18.44,196,-210,-2044,12,-9,30,-563,-1142,579,852
,970,2023-10-27 11:19:18.45,194,-213,-2043,10,-12,26,-684,-1169,485,926
,971,2023-10-27 11:19:18.46,190,-210,-2038,13,-9,27,-670,-1145,475,907
,972,2023-10-27 11:19:18.47,198,-244,-1996,21,-5,21,-771,-1179,408,975
,973,2023-10-27 11:19:18.48,170,-182,-2083,19,7,21,-660,-1156,496,908
,974,2023-10-27 11:19:18.49,173,-211,-2042,7,-14,19,-732,-1183,451,957
,975,2023-10-27 11:19:18.50,195,-213,-2033,10,-9,21,-674,-1151,477,912
,976,2023-10-27 11:19:18.51,196,-211,-2041,13,-9,20,-775,-1187,412,981
,977,2023-10-27 11:19:18.52,202,-220,-2034,8,-6,17,-659,-1153,494,906
,978,2023-10-27 11:19:18.53,197,-214,-2033,9,-1,16,-728,-1188,460,958
,979,2023-10-27 11:19:18.54,191,-217,-2044,7,2,17,-580,-1152,572,866
,980,2023-10-27 11:19:18.55,192,-216,-2047,8,1,16,-680,-1194,514,937
,981,2023-10-27 11:19:18.56,182,-219,-2042,7,-1,20,-590,-1157,567,873
,982,2023-10-27 11:19:18.57,185,-227,-2051,6,-2,26,-723,-1204,481,963
,983,2023-10-27 11:19:18.58,186,-223,-2040,5,-3,29,-625,-1164,539,894
,984,2023-10-27 11:19:18.59,185,-218,-2047,6,0,30,-731,-1208,477,969
,985,2023-10-27 11:19:18.60,195,-204,-2057,3,-3,32,-584,-1154,570,869
,986,2023-10-27 11:19:18.61,192,-214,-2050,-2,-7,30,-680,-1199,519,939
,987,2023-10-27 11:19:18.62,184,-204,-2046,0,-5,32,-503,-1141,638,822
,988,2023-10-27 11:19:18.63,195,-208,-2035,-1,-4,30,-623,-1194,571,908
,989,2023-10-27 11:19:18.64,188,-211,-2038,-1,-1,26,-492,-1138,646,815
,990,2023-10-27 11:19:18.65,189,-212,-2046,-3,2,25,-657,-1201,544,929
,991,2023-10-27 11:19:18.66,190,-214,-2048,-5,2,24,-560,-1152,592,856
,992,2023-10-27 11:19:18.67,181,-211,-2046,0,-2,22,-701,-1216,515,958
,993,2023-10-27 11:19:18.68,172,-211,-2046,0,-6,19,-546,-1159,613,852
,994,2023-10-27 11:19:18.69,184,-211,-2049,2,-9,18,-672,-1218,546,945
,995,2023-10-27 11:19:18.70,187,-221,-2027,10,-12,18,-507,-1136,629,821
,996,2023-10-27 11:19:18.71,184,-210,-2056,17,-10,14,-649,-1178,529,913
,997,2023-10-27 11:19:18.72,169,-197,-2068,10,-16,15,-484,-1070,586,777
,998,2023-10-27 11:19:18.73,188,-215,-2034,9,-24,17,-652,-1152,500,902
,999,2023-10-27 11:19:18.74,180,-218,-2032,16,-18,16,-531,-1111,580,821
,1000,2023-10-27 11:19:18.75,179,-209,-2053,16,-14,16,-682,-1189,507,935
,1001,2023-10-27 11:19:18.76,187,-214,-2049,15,-13,16,-490,-1083,593,786
,1002,2023-10-27 11:19:18.77,177,-214,-2062,13,-9,17,-620,-1129,509,874
,1003,2023-10-27 11:19:18.78,177,-214,-2036,8,-12,17,-425,-1005,580,715
,1004,2023-10-27 11:19:18.79,175,-219,-2038,5,-8,21,-590,-1106,516,848
,1005,2023-10-27 11:19:18.80,180,-224,-2038,4,0,20,-417,-1049,632,733
,1006,2023-10-27 11:19:18.81,186,-220,-2041,2,2,21,-591,-1146,555,868
,1007,2023-10-27 11:19:18.82,180,-222,-2040,2,6,24,-413,-1044,631,728
,1008,2023-10-27 11:19:18.83,176,-223,-2039,6,12,30,-608,-1146,538,877
,1009,2023-10-27 11:19:18.84,183,-234,-2039,6,16,32,-448,-1076,628,762
,1010,2023-10-27 11:19:18.85,183,-219,-2043,3,25,32,-658,-1193,535,925
,1011,2023-10-27 11:19:18.86,195,-202,-2033,0,34,26,-538,-1138,600,838
,1012,2023-10-27 11:19:18.87,186,-190,-2046,-2,38,18,-685,-1226,541,955
,1013,2023-10-27 11:19:18.88,191,-196,-2055,-8,37,13,-446,-1112,666,779
,1014,2023-10-27 11:19:18.89,184,-197,-2056,-12,29,7,-609,-1194,585,901
,1015,2023-10-27 11:19:18.90,178,-202,-2065,-14,14,4,-458,-1107,649,782
,1016,2023-10-27 11:19:18.91,180,-204,-2051,-14,2,4,-636,-1197,561,916
,1017,2023-10-27 11:19:18.92,185,-209,-2044,-12,-9,3,-443,-1090,647,766
,1018,2023-10-27 11:19:18.93,179,-209,-2041,-14,-10,4,-640,-1193,553,916
,1019,2023-10-27 11:19:18.94,184,-217,-2035,-17,-13,4,-506,-1122,616,814
,1020,2023-10-27 11:19:18.95,197,-207,-2036,-20,-11,3,-681,-1222,541,951
,1021,2023-10-27 11:19:18.96,187,-205,-2038,-16,-11,7,-492,-1120,628,806
,1022,2023-10-27 11:19:18.97,189,-212,-2039,-19,-4,8,-672,-1216,544,944
,1023,2023-10-27 11:19:18.98,189,-214,-2048,-20,-1,14,-515,-1128,613,821
,1024,2023-10-27 11:19:18.99,192,-212,-2047,-18,2,18,-693,-1228,535,960
,1025,2023-10-27 11:19:19.00,180,-218,-2052,-17,3,21,-513,-1134,621,823
,1026,2023-10-27 11:19:19.01,175,-209,-2046,-17,4,30,-668,-1228,560,948
,1027,2023-10-27 11:19:19.02,190,-201,-2052,-16,4,32,-470,-1127,657,798
,1028,2023-10-27 11:19:19.03,196,-198,-2046,-14,5,32,-629,-1208,579,918
,1029,2023-10-27 11:19:19.04,185,-194,-2049,-11,4,34,-439,-1086,647,762
,1030,2023-10-27 11:19:19.05,189,-194,-2043,-5,5,30,-641,-1198,557,919
,1031,2023-10-27 11:19:19.06,187,-206,-2043,1,8,28,-499,-1121,622,810
,1032,2023-10-27 11:19:19.07,181,-200,-2040,5,6,24,-672,-1231,559,951
,1033,2023-10-27 11:19:19.08,173,-191,-2046,7,5,19,-476,-1124,648,800
,1034,2023-10-27 11:19:19.09,190,-195,-2045,9,4,16,-642,-1223,581,932
,1035,2023-10-27 11:19:19.10,185,-196,-2047,13,6,11,-480,-1120,640,800
,1036,2023-10-27 11:19:19.11,179,-193,-2048,12,3,5,-649,-1221,572,935
,1037,2023-10-27 11:19:19.12,184,-182,-2043,11,1,3,-465,-1116,651,790
,1038,2023-10-27 11:19:19.13,190,-204,-2038,12,0,1,-639,-1219,580,929
,1039,2023-10-27 11:19:19.14,178,-204,-2052,13,-2,0,-478,-1120,642,799
,1040,2023-10-27 11:19:19.15,186,-202,-2041,10,-1,2,-644,-1227,583,935
,1041,2023-10-27 11:19:19.16,195,-203,-2037,6,2,1,-463,-1125,662,794
,1042,2023-10-27 11:19:19.17,191,-205,-2037,2,7,2,-623,-1215,592,919
,1043,2023-10-27 11:19:19.18,204,-209,-2043,-1,14,1,-451,-1100,649,775
,1044,2023-10-27 11:19:19.19,192,-204,-2044,-3,19,2,-657,-1214,557,935
,1045,2023-10-27 11:19:19.20,182,-205,-2047,-6,18,5,-529,-1131,602,830
,1046,2023-10-27 11:19:19.21,177,-212,-2053,-5,16,10,-665,-1213,548,939
,1047,2023-10-27 11:19:19.22,188,-206,-2043,-5,15,12,-467,-1087,620,777
,1048,2023-10-27 11:19:19.23,180,-205,-2049,-5,11,15,-638,-1196,558,917
,1049,2023-10-27 11:19:19.24,190,-210,-2043,-6,12,18,-516,-1122,606,819
,1050,2023-10-27 11:19:19.25,188,-200,-2040,-2,11,21,-648,-1206,558,927
,1051,2023-10-27 11:19:19.26,191,-202,-2039,1,10,22,-461,-1082,621,771
,1052,2023-10-27 11:19:19.27,188,-198,-2041,-2,10,22,-613,-1188,575,900
,1053,2023-10-27 11:19:19.28,182,-198,-2040,-3,10,20,-480,-1105,625,792
,1054,2023-10-27 11:19:19.29,195,-194,-2043,0,9,20,-626,-1203,577,914
,1055,2023-10-27 11:19:19.30,179,-197,-2050,4,4,18,-463,-1093,630,778
,1056,2023-10-27 11:19:19.31,200,-197,-2049,4,2,18,-574,-1142,568,858
,1057,2023-10-27 11:19:19.32,183,-207,-2050,7,-2,16,-415,-1014,599,714
,1058,2023-10-27 11:19:19.33,201,-204,-2052,9,-5,18,-543,-1071,528,807
,1059,2023-10-27 11:19:19.34,195,-195,-2043,8,-12,15,-396,-966,570,681
,1060,2023-10-27 11:19:19.35,190,-204,-2043,10,-11,17,-549,-1092,543,820
,1061,2023-10-27 11:19:19.36,202,-201,-2044,8,-11,17,-427,-1034,607,730
,1062,2023-10-27 11:19:19.37,187,-202,-2038,9,-12,15,-574,-1155,581,864
,1063,2023-10-27 11:19:19.38,184,-205,-2043,9,-10,17,-446,-1072,626,759
,1064,2023-10-27 11:19:19.39,184,-204,-2042,8,-13,21,-534,-1046,512,790
,1065,2023-10-27 11:19:19.40,185,-208,-2046,6,-11,21,-379,-882,503,630
,1066,2023-10-27 11:19:19.41,184,-203,-2048,4,-11,23,-478,-887,409,682
,1067,2023-10-27 11:19:19.42,179,-203,-2052,2,-9,27,-361,-805,444,583
,1068,2023-10-27 11:19:19.43,187,-199,-2055,1,-5,27,-519,-992,473,755
,1069,2023-10-27 11:19:19.44,181,-199,-2036,1,-7,29,-430,-1006,576,718
,1070,2023-10-27 11:19:19.45,178,-203,-2051,1,-7,30,-568,-1141,573,854
,1071,2023-10-27 11:19:19.46,188,-205,-2048,0,-11,32,-462,-1078,616,770
,1072,2023-10-27 11:19:19.47,180,-202,-2052,2,-13,32,-554,-1110,556,832
,1073,2023-10-27 11:19:19.48,190,-201,-2048,4,-18,38,-428,-1002,574,715
,1074,2023-10-27 11:19:19.49,175,-204,-2043,5,-22,37,-511,-1023,512,767
,1075,2023-10-27 11:19:19.50,176,-196,-2042,5,-19,36,-406,-941,535,673
,1076,2023-10-27 11:19:19.51,182,-194,-2039,3,-19,34,-498,-978,480,738
,1077,2023-10-27 11:19:19.52,189,-185,-2046,3,-20,34,-409,-912,503,660
,1078,2023-10-27 11:19:19.53,179,-191,-2052,-2,-19,31,-505,-957,452,731
,1079,2023-10-27 11:19:19.54,172,-197,-2049,-5,-19,29,-424,-898,474,661
,1080,2023-10-27 11:19:19.55,176,-187,-2049,-5,-18,25,-486,-878,392,682
,1081,2023-10-27 11:19:19.56,177,-186,-2047,-9,-16,24,-392,-789,397,590
,1082,2023-10-27 11:19:19.57,182,-193,-2051,-12,-16,22,-432,-773,341,602
,1083,2023-10-27 11:19:19.58,179,-182,-2050,-15,-17,20,-356,-725,369,540
,1084,2023-10-27 11:19:19.59,167,-189,-2051,-14,-17,19,-425,-762,337,593
,1085,2023-10-27 11:19:19.60,167,-188,-2052,-14,-20,18,-377,-751,374,564
,1086,2023-10-27 11:19:19.61,165,-184,-2047,-15,-20,16,-435,-765,330,600
,1087,2023-10-27 11:19:19.62,177,-183,-2052,-13,-18,16,-371,-729,358,550
,1088,2023-10-27 11:19:19.63,167,-187,-2040,-10,-17,13,-424,-771,347,597
,1089,2023-10-27 11:19:19.64,183,-181,-2034,-8,-13,10,-380,-779,399,579
,1090,2023-10-27 11:19:19.65,175,-187,-2033,-5,-5,11,-436,-840,404,638
,1091,2023-10-27 11:19:19.66,167,-187,-2041,-2,0,8,-389,-831,442,610
,1092,2023-10-27 11:19:19.67,168,-191,-2050,1,3,8,-431,-862,431,646
,1093,2023-10-27 11:19:19.68,159,-194,-2049,8,0,8,-397,-851,454,624
,1094,2023-10-27 11:19:19.69,175,-199,-2043,14,-4,15,-426,-851,425,638
,1095,2023-10-27 11:19:19.70,174,-193,-2053,20,-3,16,-404,-833,429,618
,1096,2023-10-27 11:19:19.71,171,-196,-2052,23,3,15,-448,-903,455,675
,1097,2023-10-27 11:19:19.72,181,-191,-2047,27,5,13,-439,-928,489,683
,1098,2023-10-27 11:19:19.73,160,-182,-2054,28,0,14,-466,-905,439,685
,1099,2023-10-27 11:19:19.74,152,-184,-2066,29,-10,12,-447,-868,421,657
,1100,2023-10-27 11:19:19.75,160,-189,-2065,32,-19,14,-432,-815,383,623
,1101,2023-10-27 11:19:19.76,171,-192,-2057,33,-32,16,-412,-808,396,610
,1102,2023-10-27 11:19:19.77,195,-228,-1990,48,-30,12,-423,-832,409,627
,1103,2023-10-27 11:19:19.78,146,-152,-2089,44,-18,13,-446,-884,438,665
,1104,2023-10-27 11:19:19.79,166,-178,-2067,23,-37,18,-490,-1014,524,752
,1105,2023-10-27 11:19:19.80,175,-202,-2024,26,-34,18,-508,-1073,565,790
,1106,2023-10-27 11:19:19.81,180,-207,-2013,39,-28,18,-529,-1149,620,839
,1107,2023-10-27 11:19:19.82,172,-178,-2053,30,-17,17,-541,-1143,602,842
,1108,2023-10-27 11:19:19.83,155,-196,-2045,15,-18,18,-524,-1148,624,836
,1109,2023-10-27 11:19:19.84,165,-208,-2047,17,-7,20,-518,-1109,591,813
,1110,2023-10-27 11:19:19.85,162,-212,-2054,19,-5,21,-452,-1061,609,756
,1111,2023-10-27 11:19:19.86,161,-210,-2048,17,-1,27,-459,-1032,573,745
,1112,2023-10-27 11:19:19.87,163,-204,-2052,15,7,29,-416,-1026,610,721
,1113,2023-10-27 11:19:19.88,164,-200,-2057,16,6,30,-459,-1028,569,743
,1114,2023-10-27 11:19:19.89,169,-199,-2051,20,7,33,-413,-992,579,702
,1115,2023-10-27 11:19:19.90,164,-203,-2048,25,4,32,-455,-982,527,718
,1116,2023-10-27 11:19:19.91,174,-200,-2044,27,2,31,-365,-887,522,626
,1117,2023-10-27 11:19:19.92,180,-203,-2048,32,2,27,-416,-901,485,658
,1118,2023-10-27 11:19:19.93,160,-207,-2049,33,4,24,-390,-937,547,663
,1119,2023-10-27 11:19:19.94,181,-202,-2038,38,3,19,-465,-983,518,724
,1120,2023-10-27 11:19:19.95,175,-197,-2044,41,0,15,-358,-838,480,598
,1121,2023-10-27 11:19:19.96,171,-198,-2044,43,-3,14,-440,-805,365,622
,1122,2023-10-27 11:19:19.97,163,-199,-2043,45,-8,11,-493,-712,219,602
,1123,2023-10-27 11:19:19.98,179,-211,-2040,43,-13,8,-601,-789,188,695
,1124,2023-10-27 11:19:19.99,167,-219,-2046,42,-13,7,-479,-761,282,620
,1125,2023-10-27 11:19:20.00,173,-216,-2045,42,-18,10,-515,-881,366,698
,1126,2023-10-27 11:19:20.01,187,-230,-2006,45,-14,9,-462,-1038,576,750
,1127,2023-10-27 11:19:20.02,170,-198,-2057,44,-1,11,-556,-1150,594,853
,1128,2023-10-27 11:19:20.03,158,-210,-2057,27,-9,13,-454,-1111,657,782
,1129,2023-10-27 11:19:20.04,165,-228,-2041,23,-9,17,-532,-1110,578,821
,1130,2023-10-27 11:19:20.05,160,-227,-2047,19,-6,19,-432,-1074,642,753
,1131,2023-10-27 11:19:20.06,163,-228,-2039,14,-6,24,-532,-1109,577,820
,1132,2023-10-27 11:19:20.07,154,-212,-2040,12,-5,26,-426,-1072,646,749
,1133,2023-10-27 11:19:20.08,159,-225,-2051,7,-3,28,-531,-1111,580,821
,1134,2023-10-27 11:19:20.09,162,-222,-2046,4,-3,30,-435,-1095,660,765
,1135,2023-10-27 11:19:20.10,165,-220,-2048,2,0,32,-554,-1139,585,846
,1136,2023-10-27 11:19:20.11,164,-215,-2048,1,2,31,-453,-1112,659,782
,1137,2023-10-27 11:19:20.12,165,-216,-2046,-3,5,28,-564,-1150,586,857
,1138,2023-10-27 11:19:20.13,166,-208,-2039,-3,7,23,-450,-1113,663,781
,1139,2023-10-27 11:19:20.14,159,-204,-2045,-4,6,19,-555,-1133,578,844
,1140,2023-10-27 11:19:20.15,166,-207,-2048,-2,2,14,-410,-1022,612,716
,1141,2023-10-27 11:19:20.16,158,-208,-2052,-2,-5,8,-528,-1059,531,793
,1142,2023-10-27 11:19:20.17,169,-207,-2060,0,-10,5,-433,-1032,599,732
,1143,2023-10-27 11:19:20.18,166,-212,-2057,-3,-12,4,-578,-1113,535,845
,1144,2023-10-27 11:19:20.19,156,-208,-2047,-5,-13,-2,-460,-1074,614,767
,1145,2023-10-27 11:19:20.20,153,-211,-2047,-2,-16,-4,-579,-1123,544,851
,1146,2023-10-27 11:19:20.21,151,-215,-2044,-4,-18,-8,-428,-1032,604,730
,1147,2023-10-27 11:19:20.22,157,-215,-2035,-1,-21,-8,-542,-1065,523,803
,1148,2023-10-27 11:19:20.23,164,-215,-2038,1,-13,-12,-376,-943,567,659
,1149,2023-10-27 11:19:20.24,162,-219,-2015,3,-11,-17,-510,-976,466,743
,1150,2023-10-27 11:19:20.25,146,-207,-2047,4,10,-22,-344,-809,465,576
,1151,2023-10-27 11:19:20.26,164,-219,-2056,-3,3,-17,-496,-860,364,678
,1152,2023-10-27 11:19:20.27,155,-218,-2039,-4,2,-15,-343,-718,375,530
,1153,2023-10-27 11:19:20.28,162,-214,-2044,-3,3,-12,-520,-854,334,687
,1154,2023-10-27 11:19:20.29,162,-223,-2044,-8,3,-6,-401,-836,435,618
,1155,2023-10-27 11:19:20.30,151,-217,-2047,-10,6,1,-592,-1020,428,806
,1156,2023-10-27 11:19:20.31,168,-222,-2043,-12,5,5,-492,-1068,576,780
,1157,2023-10-27 11:19:20.32,144,-225,-2050,-12,2,14,-637,-1180,543,908
,1158,2023-10-27 11:19:20.33,157,-213,-2045,-14,-4,22,-448,-1094,646,771
,1159,2023-10-27 11:19:20.34,158,-206,-2043,-14,-3,25,-578,-1142,564,860
,1160,2023-10-27 11:19:20.35,167,-207,-2044,-18,-2,26,-404,-1043,639,723
,1161,2023-10-27 11:19:20.36,162,-200,-2047,-18,5,27,-571,-1123,552,847
,1162,2023-10-27 11:19:20.37,170,-198,-2044,-20,6,28,-427,-1056,629,741
,1163,2023-10-27 11:19:20.38,157,-196,-2047,-22,6,26,-606,-1151,545,878
