// Data mode  : Full
// Data quality  : High
// Acceleration sensor's range  : 16g
// Gyroscope sensor's range  : 2000dps
//
//ARTIFACT,NUM,DATE,ACC_X,ACC_Y,ACC_Z,GYRO_X,GYRO_Y,GYRO_Z,EOG_L,EOG_R,EOG_H,EOG_V
,1,2023-10-27 10:41:41.01,-67,143,-2048,18,12,18,-549,530,-1079,9
,2,2023-10-27 10:41:41.02,-76,139,-2052,18,16,16,-695,745,-1440,-25
,3,2023-10-27 10:41:41.03,-69,141,-2057,20,17,11,-557,522,-1079,17
,4,2023-10-27 10:41:41.04,-74,140,-2058,18,11,9,-693,749,-1442,-28
,5,2023-10-27 10:41:41.05,-87,137,-2057,20,7,9,-552,542,-1094,5
,6,2023-10-27 10:41:41.06,-75,141,-2056,20,3,7,-691,762,-1453,-35
,7,2023-10-27 10:41:41.07,-67,137,-2052,19,2,4,-559,542,-1101,8
,8,2023-10-27 10:41:41.08,-65,134,-2040,20,5,4,-687,759,-1446,-36
,9,2023-10-27 10:41:41.09,-74,129,-2044,17,9,6,-564,540,-1104,12
,10,2023-10-27 10:41:41.10,-65,133,-2046,16,13,5,-688,758,-1446,-35
,11,2023-10-27 10:41:41.11,-68,131,-2054,17,14,8,-569,544,-1113,12
,12,2023-10-27 10:41:41.12,-71,131,-2050,13,12,10,-681,763,-1444,-41
,13,2023-10-27 10:41:41.13,-66,139,-2062,13,10,11,-568,548,-1116,10
,14,2023-10-27 10:41:41.14,-74,136,-2052,13,6,9,-683,749,-1432,-33
,15,2023-10-27 10:41:41.15,-63,137,-2057,10,3,13,-576,546,-1122,15
,16,2023-10-27 10:41:41.16,-69,137,-2055,9,0,15,-677,752,-1429,-37
,17,2023-10-27 10:41:41.17,-74,137,-2055,9,-4,19,-578,553,-1131,12
,18,2023-10-27 10:41:41.18,-77,132,-2057,11,-3,20,-676,753,-1429,-38
,19,2023-10-27 10:41:41.19,-78,135,-2051,12,-5,20,-581,559,-1140,11
,20,2023-10-27 10:41:41.20,-72,135,-2051,17,-1,21,-674,747,-1421,-36
,21,2023-10-27 10:41:41.21,-74,136,-2048,17,-1,22,-584,561,-1145,11
,22,2023-10-27 10:41:41.22,-80,133,-2052,17,3,23,-666,743,-1409,-38
,23,2023-10-27 10:41:41.23,-72,134,-2048,22,4,25,-588,561,-1149,13
,24,2023-10-27 10:41:41.24,-70,137,-2051,25,5,26,-664,743,-1407,-39
,25,2023-10-27 10:41:41.25,-74,140,-2050,25,1,27,-590,568,-1158,11
,26,2023-10-27 10:41:41.26,-81,135,-2051,28,4,25,-661,736,-1397,-37
,27,2023-10-27 10:41:41.27,-80,132,-2054,24,6,25,-592,570,-1162,11
,28,2023-10-27 10:41:41.28,-84,129,-2056,24,6,27,-653,728,-1381,-37
,29,2023-10-27 10:41:41.29,-74,128,-2053,23,4,25,-595,574,-1169,10
,30,2023-10-27 10:41:41.30,-70,130,-2051,24,5,24,-649,728,-1377,-39
,31,2023-10-27 10:41:41.31,-84,130,-2051,23,3,22,-599,573,-1172,13
,32,2023-10-27 10:41:41.32,-83,132,-2048,22,6,22,-646,720,-1366,-37
,33,2023-10-27 10:41:41.33,-77,133,-2049,18,6,19,-600,577,-1177,11
,34,2023-10-27 10:41:41.34,-80,125,-2056,19,7,21,-637,723,-1360,-43
,35,2023-10-27 10:41:41.35,-74,126,-2057,17,6,17,-608,578,-1186,15
,36,2023-10-27 10:41:41.36,-71,136,-2049,16,8,17,-639,694,-1333,-27
,37,2023-10-27 10:41:41.37,-74,129,-2054,14,5,18,-621,551,-1172,35
,38,2023-10-27 10:41:41.38,-82,138,-2061,12,5,17,-638,692,-1330,-27
,39,2023-10-27 10:41:41.39,-70,129,-2062,11,3,14,-617,576,-1193,20
,40,2023-10-27 10:41:41.40,-72,130,-2055,12,2,15,-639,692,-1331,-26
,41,2023-10-27 10:41:41.41,-74,131,-2049,18,3,11,-619,592,-1211,13
,42,2023-10-27 10:41:41.42,-75,128,-2046,19,6,13,-629,685,-1314,-28
,43,2023-10-27 10:41:41.43,-78,122,-2063,17,11,14,-624,586,-1210,19
,44,2023-10-27 10:41:41.44,-79,117,-2048,23,12,16,-623,684,-1307,-30
,45,2023-10-27 10:41:41.45,-79,112,-2040,28,12,18,-624,597,-1221,13
,46,2023-10-27 10:41:41.46,-82,112,-2053,31,14,19,-621,685,-1306,-32
,47,2023-10-27 10:41:41.47,-71,119,-2066,32,12,23,-632,609,-1241,11
,48,2023-10-27 10:41:41.48,-69,131,-2049,33,11,23,-614,675,-1289,-30
,49,2023-10-27 10:41:41.49,-68,141,-2035,28,14,23,-632,608,-1240,12
,50,2023-10-27 10:41:41.50,-58,134,-2048,23,18,19,-610,676,-1286,-33
,51,2023-10-27 10:41:41.51,-66,127,-2055,19,21,17,-638,615,-1253,11
,52,2023-10-27 10:41:41.52,-76,146,-2058,12,23,13,-609,675,-1284,-33
,53,2023-10-27 10:41:41.53,-75,124,-2062,7,19,13,-637,627,-1264,5
,54,2023-10-27 10:41:41.54,-73,130,-2066,7,11,14,-603,667,-1270,-32
,55,2023-10-27 10:41:41.55,-78,130,-2058,4,3,16,-646,634,-1280,6
,56,2023-10-27 10:41:41.56,-72,136,-2054,-4,-1,15,-600,669,-1269,-34
,57,2023-10-27 10:41:41.57,-70,135,-2047,-5,-5,13,-649,635,-1284,7
,58,2023-10-27 10:41:41.58,-71,132,-2045,-8,-3,13,-598,657,-1255,-29
,59,2023-10-27 10:41:41.59,-74,138,-2053,-12,-3,12,-650,631,-1281,9
,60,2023-10-27 10:41:41.60,-67,135,-2050,-10,-3,13,-595,646,-1241,-25
,61,2023-10-27 10:41:41.61,-82,134,-2053,-8,1,15,-653,642,-1295,5
,62,2023-10-27 10:41:41.62,-68,135,-2058,-5,3,14,-584,641,-1225,-28
,63,2023-10-27 10:41:41.63,-78,136,-2054,0,1,16,-657,640,-1297,8
,64,2023-10-27 10:41:41.64,-75,138,-2051,3,1,19,-588,636,-1224,-24
,65,2023-10-27 10:41:41.65,-75,140,-2052,9,2,21,-666,642,-1308,12
,66,2023-10-27 10:41:41.66,-82,134,-2050,11,4,20,-594,627,-1221,-16
,67,2023-10-27 10:41:41.67,-78,138,-2054,14,7,24,-670,647,-1317,11
,68,2023-10-27 10:41:41.68,-79,139,-2046,18,11,22,-586,625,-1211,-19
,69,2023-10-27 10:41:41.69,-72,134,-2044,18,14,20,-669,659,-1328,5
,70,2023-10-27 10:41:41.70,-77,138,-2054,22,19,16,-575,627,-1202,-26
,71,2023-10-27 10:41:41.71,-66,135,-2051,21,16,17,-668,663,-1331,2
,72,2023-10-27 10:41:41.72,-75,126,-2066,22,14,14,-570,618,-1188,-24
,73,2023-10-27 10:41:41.73,-77,128,-2063,23,8,14,-668,670,-1338,-1
,74,2023-10-27 10:41:41.74,-78,122,-2057,27,5,9,-564,608,-1172,-22
,75,2023-10-27 10:41:41.75,-78,129,-2047,28,1,10,-662,680,-1342,-9
,76,2023-10-27 10:41:41.76,-71,130,-2046,24,4,8,-562,591,-1153,-14
,77,2023-10-27 10:41:41.77,-72,125,-2049,18,9,7,-664,648,-1312,8
,78,2023-10-27 10:41:41.78,-65,127,-2052,18,12,4,-528,528,-1056,0
,79,2023-10-27 10:41:41.79,-78,134,-2049,12,13,5,-616,605,-1221,5
,80,2023-10-27 10:41:41.80,-70,128,-2055,8,16,7,-478,496,-974,-9
,81,2023-10-27 10:41:41.81,-76,126,-2057,5,12,9,-600,576,-1176,12
,82,2023-10-27 10:41:41.82,-69,122,-2052,3,12,10,-463,461,-924,1
,83,2023-10-27 10:41:41.83,-63,120,-2050,7,7,11,-601,568,-1169,16
,84,2023-10-27 10:41:41.84,-71,124,-2044,2,4,10,-475,474,-949,0
,85,2023-10-27 10:41:41.85,-67,126,-2050,5,2,13,-619,593,-1212,13
,86,2023-10-27 10:41:41.86,-64,127,-2044,3,4,11,-487,489,-976,-1
,87,2023-10-27 10:41:41.87,-67,131,-2054,3,10,10,-629,605,-1234,12
,88,2023-10-27 10:41:41.88,-66,141,-2054,5,9,11,-492,481,-973,5
,89,2023-10-27 10:41:41.89,-69,130,-2054,2,11,11,-638,612,-1250,13
,90,2023-10-27 10:41:41.90,-78,132,-2055,6,12,12,-495,485,-980,5
,91,2023-10-27 10:41:41.91,-75,134,-2054,7,12,12,-649,610,-1259,19
,92,2023-10-27 10:41:41.92,-81,134,-2045,8,11,9,-502,467,-969,17
,93,2023-10-27 10:41:41.93,-71,126,-2051,10,8,12,-657,600,-1257,28
,94,2023-10-27 10:41:41.94,-65,128,-2056,12,6,13,-512,468,-980,22
,95,2023-10-27 10:41:41.95,-65,125,-2052,13,9,13,-667,618,-1285,24
,96,2023-10-27 10:41:41.96,-75,124,-2054,13,9,16,-511,461,-972,25
,97,2023-10-27 10:41:41.97,-73,123,-2059,11,8,19,-667,608,-1275,29
,98,2023-10-27 10:41:41.98,-66,131,-2050,10,8,19,-510,451,-961,29
,99,2023-10-27 10:41:41.99,-55,134,-2046,11,7,18,-671,610,-1281,30
,100,2023-10-27 10:41:42.00,-73,132,-2053,10,9,22,-507,460,-967,23
,101,2023-10-27 10:41:42.01,-77,126,-2054,12,7,24,-672,626,-1298,23
,102,2023-10-27 10:41:42.02,-59,129,-2061,6,6,25,-511,442,-953,34
,103,2023-10-27 10:41:42.03,-72,128,-2050,8,1,27,-676,610,-1286,33
,104,2023-10-27 10:41:42.04,-75,130,-2058,7,4,30,-509,439,-948,35
,105,2023-10-27 10:41:42.05,-68,134,-2054,7,3,33,-682,617,-1299,32
,106,2023-10-27 10:41:42.06,-61,134,-2052,5,2,30,-515,448,-963,33
,107,2023-10-27 10:41:42.07,-64,135,-2053,5,2,33,-684,631,-1315,26
,108,2023-10-27 10:41:42.08,-77,135,-2053,6,0,30,-516,440,-956,38
,109,2023-10-27 10:41:42.09,-71,143,-2053,9,0,30,-684,628,-1312,28
,110,2023-10-27 10:41:42.10,-61,141,-2044,10,-1,28,-511,443,-954,34
,111,2023-10-27 10:41:42.11,-69,136,-2052,11,-1,28,-686,643,-1329,21
,112,2023-10-27 10:41:42.12,-73,134,-2050,14,0,24,-512,452,-964,30
,113,2023-10-27 10:41:42.13,-59,133,-2058,16,1,23,-682,646,-1328,18
,114,2023-10-27 10:41:42.14,-73,132,-2055,16,0,21,-506,454,-960,26
,115,2023-10-27 10:41:42.15,-80,132,-2050,17,-1,19,-680,653,-1333,13
,116,2023-10-27 10:41:42.16,-79,134,-2051,18,-3,21,-498,456,-954,21
,117,2023-10-27 10:41:42.17,-75,130,-2045,16,-4,19,-677,643,-1320,17
,118,2023-10-27 10:41:42.18,-79,132,-2048,16,-2,19,-497,432,-929,32
,119,2023-10-27 10:41:42.19,-73,130,-2048,15,0,21,-677,617,-1294,30
,120,2023-10-27 10:41:42.20,-78,134,-2048,14,2,21,-498,430,-928,34
,121,2023-10-27 10:41:42.21,-79,133,-2048,12,3,24,-670,639,-1309,15
,122,2023-10-27 10:41:42.22,-68,134,-2050,11,3,24,-499,425,-924,37
,123,2023-10-27 10:41:42.23,-86,136,-2048,9,4,21,-668,648,-1316,10
,124,2023-10-27 10:41:42.24,-78,139,-2048,9,6,20,-491,438,-929,26
,125,2023-10-27 10:41:42.25,-92,146,-2051,9,6,20,-671,649,-1320,11
,126,2023-10-27 10:41:42.26,-88,134,-2053,9,6,18,-500,431,-931,34
,127,2023-10-27 10:41:42.27,-79,137,-2050,8,9,14,-675,646,-1321,14
,128,2023-10-27 10:41:42.28,-61,131,-2042,15,7,11,-499,433,-932,33
,129,2023-10-27 10:41:42.29,-71,135,-2057,18,6,8,-670,649,-1319,10
,130,2023-10-27 10:41:42.30,-78,135,-2060,23,5,12,-502,423,-925,39
,131,2023-10-27 10:41:42.31,-72,131,-2043,26,5,12,-670,648,-1318,11
,132,2023-10-27 10:41:42.32,-80,119,-2045,27,10,12,-495,436,-931,29
,133,2023-10-27 10:41:42.33,-83,111,-2058,30,6,17,-665,657,-1322,4
,134,2023-10-27 10:41:42.34,-76,126,-2060,33,5,20,-496,437,-933,29
,135,2023-10-27 10:41:42.35,-66,134,-2052,35,7,22,-666,658,-1324,4
,136,2023-10-27 10:41:42.36,-56,125,-2045,29,12,23,-506,436,-942,35
,137,2023-10-27 10:41:42.37,-61,133,-2044,25,14,20,-668,660,-1328,4
,138,2023-10-27 10:41:42.38,-70,137,-2052,21,22,19,-500,438,-938,31
,139,2023-10-27 10:41:42.39,-76,128,-2056,16,23,18,-663,664,-1327,0
,140,2023-10-27 10:41:42.40,-79,128,-2053,15,20,18,-501,453,-954,24
,141,2023-10-27 10:41:42.41,-72,127,-2051,17,16,19,-666,681,-1347,-7
,142,2023-10-27 10:41:42.42,-71,127,-2046,18,8,16,-515,462,-977,26
,143,2023-10-27 10:41:42.43,-64,130,-2045,19,3,16,-674,689,-1363,-7
,144,2023-10-27 10:41:42.44,-53,127,-2045,17,4,14,-520,460,-980,30
,145,2023-10-27 10:41:42.45,-61,138,-2046,15,5,12,-672,689,-1361,-8
,146,2023-10-27 10:41:42.46,-44,128,-2058,15,6,12,-519,474,-993,22
,147,2023-10-27 10:41:42.47,-66,130,-2059,14,5,14,-673,687,-1360,-7
,148,2023-10-27 10:41:42.48,-60,124,-2064,15,2,16,-525,463,-988,31
,149,2023-10-27 10:41:42.49,-75,115,-2065,19,-1,16,-673,680,-1353,-3
,150,2023-10-27 10:41:42.50,-59,124,-2056,17,0,18,-533,468,-1001,32
,151,2023-10-27 10:41:42.51,-61,117,-2049,21,0,19,-671,682,-1353,-5
,152,2023-10-27 10:41:42.52,-72,124,-2050,22,1,20,-527,461,-988,33
,153,2023-10-27 10:41:42.53,-66,129,-2051,25,5,23,-667,687,-1354,-10
,154,2023-10-27 10:41:42.54,-60,128,-2050,25,8,21,-536,482,-1018,27
,155,2023-10-27 10:41:42.55,-73,127,-2055,24,10,22,-663,696,-1359,-16
,156,2023-10-27 10:41:42.56,-57,125,-2051,24,12,21,-529,485,-1014,22
,157,2023-10-27 10:41:42.57,-62,128,-2052,27,11,22,-654,699,-1353,-22
,158,2023-10-27 10:41:42.58,-72,116,-2059,27,8,24,-540,476,-1016,32
,159,2023-10-27 10:41:42.59,-72,116,-2061,31,2,22,-667,676,-1343,-4
,160,2023-10-27 10:41:42.60,-66,114,-2041,30,0,22,-552,463,-1015,44
,161,2023-10-27 10:41:42.61,-73,110,-2045,29,2,22,-664,668,-1332,-2
,162,2023-10-27 10:41:42.62,-69,120,-2043,28,5,19,-554,472,-1026,41
,163,2023-10-27 10:41:42.63,-74,117,-2054,22,10,17,-664,672,-1336,-4
,164,2023-10-27 10:41:42.64,-81,117,-2050,20,11,16,-560,476,-1036,42
,165,2023-10-27 10:41:42.65,-72,112,-2063,17,10,17,-663,659,-1322,2
,166,2023-10-27 10:41:42.66,-73,103,-2060,17,9,18,-570,455,-1025,57
,167,2023-10-27 10:41:42.67,-70,100,-2057,15,6,21,-656,641,-1297,7
,168,2023-10-27 10:41:42.68,-66,103,-2055,13,3,22,-565,459,-1024,53
,169,2023-10-27 10:41:42.69,-66,110,-2042,16,-3,22,-655,638,-1293,8
,170,2023-10-27 10:41:42.70,-64,113,-2048,15,-4,23,-572,463,-1035,54
,171,2023-10-27 10:41:42.71,-58,109,-2050,11,-2,23,-655,640,-1295,7
,172,2023-10-27 10:41:42.72,-72,114,-2050,6,0,22,-575,483,-1058,46
,173,2023-10-27 10:41:42.73,-64,118,-2051,3,2,24,-648,638,-1286,5
,174,2023-10-27 10:41:42.74,-56,116,-2053,3,5,23,-578,476,-1054,51
,175,2023-10-27 10:41:42.75,-65,123,-2058,0,6,23,-646,631,-1277,7
,176,2023-10-27 10:41:42.76,-57,125,-2063,2,6,21,-583,475,-1058,54
,177,2023-10-27 10:41:42.77,-73,123,-2057,1,4,24,-641,642,-1283,0
,178,2023-10-27 10:41:42.78,-60,122,-2062,1,1,19,-584,498,-1082,43
,179,2023-10-27 10:41:42.79,-70,129,-2059,0,-1,20,-640,638,-1278,1
,180,2023-10-27 10:41:42.80,-73,122,-2055,-1,-2,17,-591,499,-1090,46
,181,2023-10-27 10:41:42.81,-56,132,-2052,-4,-4,19,-635,633,-1268,1
,182,2023-10-27 10:41:42.82,-75,132,-2045,-4,-3,19,-592,505,-1097,43
,183,2023-10-27 10:41:42.83,-80,123,-2054,-3,-4,17,-630,620,-1250,5
,184,2023-10-27 10:41:42.84,-67,130,-2055,-3,-4,18,-598,485,-1083,56
,185,2023-10-27 10:41:42.85,-77,129,-2055,-1,-7,18,-626,618,-1244,4
,186,2023-10-27 10:41:42.86,-67,131,-2050,0,-4,19,-595,512,-1107,41
,187,2023-10-27 10:41:42.87,-74,124,-2052,-3,-6,19,-622,632,-1254,-5
,188,2023-10-27 10:41:42.88,-77,131,-2052,2,-6,21,-603,527,-1130,38
,189,2023-10-27 10:41:42.89,-74,134,-2058,-1,-7,21,-618,622,-1240,-2
,190,2023-10-27 10:41:42.90,-63,145,-2051,0,-2,20,-609,518,-1127,45
,191,2023-10-27 10:41:42.91,-64,146,-2048,0,-4,22,-618,609,-1227,4
,192,2023-10-27 10:41:42.92,-83,129,-2043,-2,-5,22,-614,518,-1132,48
,193,2023-10-27 10:41:42.93,-95,131,-2052,1,0,22,-613,610,-1223,1
,194,2023-10-27 10:41:42.94,-80,139,-2048,3,0,20,-614,535,-1149,39
,195,2023-10-27 10:41:42.95,-83,138,-2045,5,0,19,-602,607,-1209,-2
,196,2023-10-27 10:41:42.96,-83,140,-2054,4,1,20,-615,529,-1144,43
,197,2023-10-27 10:41:42.97,-81,133,-2041,8,5,18,-600,596,-1196,2
,198,2023-10-27 10:41:42.98,-86,133,-2046,9,7,21,-616,545,-1161,35
,199,2023-10-27 10:41:42.99,-89,141,-2043,13,8,20,-599,596,-1195,1
,200,2023-10-27 10:41:43.00,-81,137,-2051,18,10,19,-624,551,-1175,36
,201,2023-10-27 10:41:43.01,-75,137,-2045,21,9,19,-593,586,-1179,3
,202,2023-10-27 10:41:43.02,-72,137,-2051,24,16,19,-630,553,-1183,38
,203,2023-10-27 10:41:43.03,-71,127,-2049,24,14,16,-592,596,-1188,-2
,204,2023-10-27 10:41:43.04,-79,130,-2045,26,16,16,-633,562,-1195,35
,205,2023-10-27 10:41:43.05,-73,131,-2050,28,16,17,-586,588,-1174,-1
,206,2023-10-27 10:41:43.06,-64,128,-2048,27,15,15,-636,559,-1195,38
,207,2023-10-27 10:41:43.07,-67,131,-2044,28,19,16,-597,555,-1152,21
,208,2023-10-27 10:41:43.08,-49,115,-2042,27,17,13,-644,560,-1204,42
,209,2023-10-27 10:41:43.09,-61,123,-2050,28,18,13,-579,574,-1153,2
,210,2023-10-27 10:41:43.10,-61,124,-2054,28,18,13,-642,581,-1223,30
,211,2023-10-27 10:41:43.11,-70,115,-2054,26,16,12,-576,582,-1158,-3
,212,2023-10-27 10:41:43.12,-52,113,-2049,26,12,12,-644,583,-1227,30
,213,2023-10-27 10:41:43.13,-65,114,-2057,24,10,12,-569,577,-1146,-4
,214,2023-10-27 10:41:43.14,-54,112,-2060,22,9,13,-642,586,-1228,28
,215,2023-10-27 10:41:43.15,-46,112,-2058,19,9,13,-565,559,-1124,3
,216,2023-10-27 10:41:43.16,-43,105,-2053,21,10,14,-648,582,-1230,33
,217,2023-10-27 10:41:43.17,-54,110,-2058,21,10,13,-559,546,-1105,6
,218,2023-10-27 10:41:43.18,-52,98,-2062,19,11,16,-649,579,-1228,35
,219,2023-10-27 10:41:43.19,-49,92,-2064,22,12,16,-557,547,-1104,5
,220,2023-10-27 10:41:43.20,-51,92,-2060,24,4,18,-652,596,-1248,28
,221,2023-10-27 10:41:43.21,-48,89,-2064,21,0,25,-554,543,-1097,5
,222,2023-10-27 10:41:43.22,-56,96,-2068,23,-5,30,-653,597,-1250,28
,223,2023-10-27 10:41:43.23,-53,109,-2060,20,-7,33,-545,546,-1091,0
,224,2023-10-27 10:41:43.24,-61,112,-2056,17,-8,35,-654,606,-1260,24
,225,2023-10-27 10:41:43.25,-65,118,-2050,10,-3,35,-541,545,-1086,-2
,226,2023-10-27 10:41:43.26,-60,109,-2057,8,-2,36,-656,604,-1260,26
,227,2023-10-27 10:41:43.27,-65,121,-2057,6,-1,40,-540,527,-1067,6
,228,2023-10-27 10:41:43.28,-63,120,-2056,4,-4,38,-656,609,-1265,23
,229,2023-10-27 10:41:43.29,-78,117,-2053,5,-10,40,-536,524,-1060,6
,230,2023-10-27 10:41:43.30,-68,117,-2055,7,-19,39,-661,605,-1266,28
,231,2023-10-27 10:41:43.31,-74,129,-2051,7,-26,40,-535,514,-1049,10
,232,2023-10-27 10:41:43.32,-82,140,-2047,3,-26,33,-662,616,-1278,23
,233,2023-10-27 10:41:43.33,-72,137,-2041,1,-25,30,-532,512,-1044,10
,234,2023-10-27 10:41:43.34,-77,129,-2036,-4,-21,26,-665,618,-1283,23
,235,2023-10-27 10:41:43.35,-95,127,-2056,-10,-13,26,-530,512,-1042,9
,236,2023-10-27 10:41:43.36,-86,132,-2054,-9,-14,26,-671,620,-1291,25
,237,2023-10-27 10:41:43.37,-81,128,-2061,-15,-12,26,-531,505,-1036,13
,238,2023-10-27 10:41:43.38,-87,137,-2042,-17,-15,24,-672,622,-1294,25
,239,2023-10-27 10:41:43.39,-91,137,-2058,-16,-7,27,-523,504,-1027,9
,240,2023-10-27 10:41:43.40,-81,124,-2040,-16,-11,28,-672,623,-1295,24
,241,2023-10-27 10:41:43.41,-76,132,-2049,-11,-3,25,-523,491,-1014,16
,242,2023-10-27 10:41:43.42,-80,137,-2047,-6,-1,23,-679,614,-1293,32
,243,2023-10-27 10:41:43.43,-76,143,-2047,-3,6,20,-526,479,-1005,23
,244,2023-10-27 10:41:43.44,-72,141,-2056,3,8,17,-678,616,-1294,31
,245,2023-10-27 10:41:43.45,-70,145,-2050,9,9,14,-523,474,-997,24
,246,2023-10-27 10:41:43.46,-89,135,-2055,12,10,14,-676,630,-1306,23
,247,2023-10-27 10:41:43.47,-76,130,-2058,20,9,11,-518,490,-1008,14
,248,2023-10-27 10:41:43.48,-85,122,-2053,23,6,13,-680,650,-1330,15
,249,2023-10-27 10:41:43.49,-94,125,-2044,22,4,15,-522,490,-1012,16
,250,2023-10-27 10:41:43.50,-70,130,-2044,24,5,15,-689,640,-1329,24
,251,2023-10-27 10:41:43.51,-76,121,-2049,22,10,15,-523,474,-997,24
,252,2023-10-27 10:41:43.52,-69,124,-2041,20,16,16,-684,640,-1324,22
,253,2023-10-27 10:41:43.53,-75,126,-2050,13,17,18,-522,473,-995,24
,254,2023-10-27 10:41:43.54,-79,124,-2058,12,22,21,-687,647,-1334,20
,255,2023-10-27 10:41:43.55,-77,124,-2052,13,20,22,-517,460,-977,28
,256,2023-10-27 10:41:43.56,-72,124,-2060,12,20,23,-687,639,-1326,24
,257,2023-10-27 10:41:43.57,-77,135,-2051,12,13,23,-514,464,-978,25
,258,2023-10-27 10:41:43.58,-67,138,-2048,13,11,21,-686,641,-1327,22
,259,2023-10-27 10:41:43.59,-65,134,-2049,12,9,19,-519,444,-963,37
,260,2023-10-27 10:41:43.60,-69,128,-2051,13,10,16,-692,633,-1325,29
,261,2023-10-27 10:41:43.61,-67,134,-2040,12,9,14,-517,444,-961,36
,262,2023-10-27 10:41:43.62,-53,129,-2062,11,8,12,-689,645,-1334,22
,263,2023-10-27 10:41:43.63,-60,129,-2055,10,7,12,-513,460,-973,26
,264,2023-10-27 10:41:43.64,-65,130,-2058,11,6,10,-687,658,-1345,14
,265,2023-10-27 10:41:43.65,-61,123,-2054,11,3,11,-516,459,-975,28
,266,2023-10-27 10:41:43.66,-65,129,-2058,9,-2,12,-693,657,-1350,18
,267,2023-10-27 10:41:43.67,-77,124,-2059,9,-2,14,-516,440,-956,38
,268,2023-10-27 10:41:43.68,-78,126,-2054,6,0,16,-692,645,-1337,23
,269,2023-10-27 10:41:43.69,-73,131,-2052,6,-1,15,-516,441,-957,37
,270,2023-10-27 10:41:43.70,-64,123,-2054,2,2,18,-689,656,-1345,16
,271,2023-10-27 10:41:43.71,-67,127,-2051,6,4,19,-512,453,-965,29
,272,2023-10-27 10:41:43.72,-65,131,-2055,6,7,19,-688,668,-1356,10
,273,2023-10-27 10:41:43.73,-77,129,-2054,8,4,23,-515,443,-958,36
,274,2023-10-27 10:41:43.74,-64,129,-2053,9,5,21,-697,662,-1359,17
,275,2023-10-27 10:41:43.75,-74,124,-2046,12,0,23,-524,454,-978,35
,276,2023-10-27 10:41:43.76,-79,129,-2055,12,5,21,-692,675,-1367,8
,277,2023-10-27 10:41:43.77,-68,126,-2057,10,0,21,-515,456,-971,29
,278,2023-10-27 10:41:43.78,-71,125,-2055,14,3,25,-688,677,-1365,5
,279,2023-10-27 10:41:43.79,-81,125,-2058,13,0,23,-518,455,-973,31
,280,2023-10-27 10:41:43.80,-72,125,-2053,13,1,24,-693,686,-1379,3
,281,2023-10-27 10:41:43.81,-73,123,-2054,15,1,22,-526,450,-976,38
,282,2023-10-27 10:41:43.82,-74,130,-2058,19,-1,24,-692,664,-1356,14
,283,2023-10-27 10:41:43.83,-76,129,-2046,18,-1,24,-523,431,-954,46
,284,2023-10-27 10:41:43.84,-65,123,-2038,19,3,21,-689,669,-1358,10
,285,2023-10-27 10:41:43.85,-69,129,-2049,19,-1,21,-526,450,-976,38
,286,2023-10-27 10:41:43.86,-81,124,-2050,17,4,21,-701,664,-1365,18
,287,2023-10-27 10:41:43.87,-74,128,-2053,23,0,18,-530,450,-980,40
,288,2023-10-27 10:41:43.88,-80,127,-2053,20,0,18,-689,687,-1376,1
,289,2023-10-27 10:41:43.89,-86,123,-2055,21,1,16,-528,472,-1000,28
,290,2023-10-27 10:41:43.90,-71,121,-2051,18,0,15,-690,704,-1394,-7
,291,2023-10-27 10:41:43.91,-71,125,-2054,17,0,15,-531,476,-1007,27
,292,2023-10-27 10:41:43.92,-85,120,-2050,18,3,16,-690,694,-1384,-2
,293,2023-10-27 10:41:43.93,-73,122,-2050,16,3,15,-532,466,-998,33
,294,2023-10-27 10:41:43.94,-81,120,-2043,17,6,14,-687,689,-1376,-1
,295,2023-10-27 10:41:43.95,-70,126,-2049,14,5,16,-538,473,-1011,32
,296,2023-10-27 10:41:43.96,-66,117,-2055,13,5,18,-688,697,-1385,-4
,297,2023-10-27 10:41:43.97,-87,124,-2046,14,7,16,-542,469,-1011,36
,298,2023-10-27 10:41:43.98,-70,123,-2058,11,5,16,-684,685,-1369,0
,299,2023-10-27 10:41:43.99,-81,119,-2054,17,3,17,-536,463,-999,36
,300,2023-10-27 10:41:44.00,-72,118,-2056,14,2,17,-682,686,-1368,-2
,301,2023-10-27 10:41:44.01,-72,124,-2056,15,-2,15,-542,474,-1016,34
,302,2023-10-27 10:41:44.02,-66,124,-2045,17,-1,13,-681,691,-1372,-5
,303,2023-10-27 10:41:44.03,-68,120,-2048,19,-1,15,-550,470,-1020,40
,304,2023-10-27 10:41:44.04,-73,112,-2056,22,3,17,-680,679,-1359,0
,305,2023-10-27 10:41:44.05,-65,114,-2062,24,7,18,-547,465,-1012,41
,306,2023-10-27 10:41:44.06,-64,115,-2048,31,7,20,-680,681,-1361,0
,307,2023-10-27 10:41:44.07,-79,99,-2054,32,9,28,-556,482,-1038,37
,308,2023-10-27 10:41:44.08,-76,107,-2074,33,4,33,-674,687,-1361,-6
,309,2023-10-27 10:41:44.09,-78,117,-2069,32,0,37,-554,477,-1031,38
,310,2023-10-27 10:41:44.10,-81,125,-2053,30,-2,39,-669,683,-1352,-7
,311,2023-10-27 10:41:44.11,-52,128,-2048,18,2,36,-554,485,-1039,34
,312,2023-10-27 10:41:44.12,-65,139,-2050,8,9,32,-668,686,-1354,-9
,313,2023-10-27 10:41:44.13,-72,129,-2053,1,13,30,-560,493,-1053,33
,314,2023-10-27 10:41:44.14,-63,135,-2059,-6,17,27,-664,687,-1351,-11
,315,2023-10-27 10:41:44.15,-85,130,-2061,-7,9,24,-568,495,-1063,36
,316,2023-10-27 10:41:44.16,-83,135,-2051,-8,2,19,-663,690,-1353,-13
,317,2023-10-27 10:41:44.17,-84,131,-2044,-9,-7,15,-566,503,-1069,31
,318,2023-10-27 10:41:44.18,-67,131,-2045,-6,-11,10,-658,681,-1339,-11
,319,2023-10-27 10:41:44.19,-70,132,-2039,-4,-10,3,-573,498,-1071,37
,320,2023-10-27 10:41:44.20,-76,133,-2042,-5,-11,0,-654,670,-1324,-8
,321,2023-10-27 10:41:44.21,-93,133,-2040,-5,-8,-1,-573,501,-1074,36
,322,2023-10-27 10:41:44.22,-79,127,-2051,-4,-4,-1,-656,664,-1320,-4
,323,2023-10-27 10:41:44.23,-76,120,-2056,-3,-2,1,-584,501,-1085,41
,324,2023-10-27 10:41:44.24,-82,118,-2055,-4,-1,4,-657,656,-1313,0
,325,2023-10-27 10:41:44.25,-83,117,-2058,-1,0,12,-592,506,-1098,43
,326,2023-10-27 10:41:44.26,-96,123,-2057,5,-1,18,-648,659,-1307,-5
,327,2023-10-27 10:41:44.27,-83,120,-2056,6,4,23,-595,492,-1087,51
,328,2023-10-27 10:41:44.28,-77,124,-2047,9,9,25,-643,647,-1290,-2
,329,2023-10-27 10:41:44.29,-83,129,-2057,11,11,27,-592,504,-1096,44
,330,2023-10-27 10:41:44.30,-79,137,-2049,13,18,24,-637,641,-1278,-2
,331,2023-10-27 10:41:44.31,-81,138,-2055,11,23,25,-591,509,-1100,41
,332,2023-10-27 10:41:44.32,-83,124,-2066,15,24,21,-633,641,-1274,-4
,333,2023-10-27 10:41:44.33,-76,129,-2062,18,20,20,-602,512,-1114,45
,334,2023-10-27 10:41:44.34,-67,130,-2053,24,18,16,-633,640,-1273,-3
,335,2023-10-27 10:41:44.35,-66,129,-2046,25,9,12,-608,526,-1134,41
,336,2023-10-27 10:41:44.36,-73,124,-2046,25,8,9,-634,639,-1273,-2
,337,2023-10-27 10:41:44.37,-76,120,-2044,25,8,4,-613,530,-1143,41
,338,2023-10-27 10:41:44.38,-84,124,-2057,21,9,3,-625,640,-1265,-7
,339,2023-10-27 10:41:44.39,-71,119,-2052,20,12,1,-611,534,-1145,38
,340,2023-10-27 10:41:44.40,-68,114,-2061,18,12,4,-618,630,-1248,-6
,341,2023-10-27 10:41:44.41,-75,112,-2058,14,10,7,-610,540,-1150,35
,342,2023-10-27 10:41:44.42,-65,117,-2058,14,8,11,-613,613,-1226,0
,343,2023-10-27 10:41:44.43,-64,114,-2051,12,6,11,-614,526,-1140,44
,344,2023-10-27 10:41:44.44,-62,115,-2048,10,4,17,-607,617,-1224,-5
,345,2023-10-27 10:41:44.45,-55,111,-2053,8,9,17,-618,546,-1164,36
,346,2023-10-27 10:41:44.46,-63,119,-2054,10,11,20,-602,612,-1214,-5
,347,2023-10-27 10:41:44.47,-53,123,-2052,9,12,21,-620,542,-1162,39
,348,2023-10-27 10:41:44.48,-64,118,-2058,11,13,25,-600,583,-1183,8
,349,2023-10-27 10:41:44.49,-65,116,-2058,14,11,28,-628,528,-1156,50
,350,2023-10-27 10:41:44.50,-69,120,-2061,15,9,26,-600,567,-1167,16
,351,2023-10-27 10:41:44.51,-59,127,-2060,14,4,26,-635,520,-1155,57
,352,2023-10-27 10:41:44.52,-70,124,-2068,14,-1,24,-597,559,-1156,19
,353,2023-10-27 10:41:44.53,-67,122,-2055,15,-3,23,-637,538,-1175,49
,354,2023-10-27 10:41:44.54,-66,123,-2052,11,-1,21,-595,586,-1181,4
,355,2023-10-27 10:41:44.55,-69,128,-2045,12,-3,16,-643,587,-1230,28
,356,2023-10-27 10:41:44.56,-75,126,-2052,12,-2,16,-589,628,-1217,-19
,357,2023-10-27 10:41:44.57,-72,124,-2057,11,0,13,-639,608,-1247,15
,358,2023-10-27 10:41:44.58,-69,118,-2056,11,0,12,-571,621,-1192,-25
,359,2023-10-27 10:41:44.59,-76,119,-2049,11,-1,14,-625,602,-1227,11
,360,2023-10-27 10:41:44.60,-80,124,-2050,8,2,15,-555,583,-1138,-14
,361,2023-10-27 10:41:44.61,-81,127,-2047,8,2,14,-621,578,-1199,21
,362,2023-10-27 10:41:44.62,-74,130,-2050,8,3,13,-542,563,-1105,-10
,363,2023-10-27 10:41:44.63,-81,124,-2054,7,4,15,-627,562,-1189,32
,364,2023-10-27 10:41:44.64,-86,124,-2060,9,5,17,-547,542,-1089,2
,365,2023-10-27 10:41:44.65,-77,124,-2054,11,6,20,-630,554,-1184,38
,366,2023-10-27 10:41:44.66,-76,118,-2055,14,6,20,-550,520,-1070,15
,367,2023-10-27 10:41:44.67,-75,128,-2060,15,5,19,-644,557,-1201,43
,368,2023-10-27 10:41:44.68,-85,136,-2057,18,3,19,-556,517,-1073,19
,369,2023-10-27 10:41:44.69,-80,133,-2052,18,6,15,-656,564,-1220,46
,370,2023-10-27 10:41:44.70,-65,137,-2051,16,4,10,-560,518,-1078,21
,371,2023-10-27 10:41:44.71,-84,136,-2052,14,6,4,-668,556,-1224,56
,372,2023-10-27 10:41:44.72,-81,133,-2042,16,10,-2,-562,517,-1079,22
,373,2023-10-27 10:41:44.73,-83,125,-2053,18,9,-5,-669,580,-1249,44
,374,2023-10-27 10:41:44.74,-85,128,-2052,18,11,-7,-554,503,-1057,25
,375,2023-10-27 10:41:44.75,-87,121,-2051,24,9,-9,-669,566,-1235,51
,376,2023-10-27 10:41:44.76,-68,119,-2053,23,8,-8,-554,497,-1051,28
,377,2023-10-27 10:41:44.77,-78,114,-2055,22,8,-6,-673,576,-1249,48
,378,2023-10-27 10:41:44.78,-80,123,-2058,22,6,-3,-558,485,-1043,36
,379,2023-10-27 10:41:44.79,-67,111,-2055,23,8,0,-678,574,-1252,52
,380,2023-10-27 10:41:44.80,-60,123,-2044,23,11,3,-549,483,-1032,33
,381,2023-10-27 10:41:44.81,-72,120,-2047,18,15,5,-678,586,-1264,46
,382,2023-10-27 10:41:44.82,-68,112,-2057,18,26,11,-547,501,-1048,23
,383,2023-10-27 10:41:44.83,-71,120,-2048,18,24,12,-678,621,-1299,28
,384,2023-10-27 10:41:44.84,-65,104,-2047,19,27,14,-544,516,-1060,14
,385,2023-10-27 10:41:44.85,-68,101,-2071,18,24,17,-683,627,-1310,28
,386,2023-10-27 10:41:44.86,-72,108,-2077,24,16,22,-544,502,-1046,21
,387,2023-10-27 10:41:44.87,-45,123,-2056,27,14,21,-686,615,-1301,35
,388,2023-10-27 10:41:44.88,-48,120,-2047,25,10,19,-540,497,-1037,21
,389,2023-10-27 10:41:44.89,-53,115,-2052,24,12,17,-683,630,-1313,26
,390,2023-10-27 10:41:44.90,-58,121,-2055,21,17,15,-542,494,-1036,24
,391,2023-10-27 10:41:44.91,-53,109,-2059,18,20,15,-693,631,-1324,31
,392,2023-10-27 10:41:44.92,-68,115,-2064,17,15,15,-539,499,-1038,20
,393,2023-10-27 10:41:44.93,-66,101,-2054,19,12,20,-691,638,-1329,26
,394,2023-10-27 10:41:44.94,-72,104,-2056,21,2,25,-536,494,-1030,21
,395,2023-10-27 10:41:44.95,-59,108,-2050,21,-1,23,-690,651,-1341,19
,396,2023-10-27 10:41:44.96,-56,109,-2042,19,-3,28,-530,500,-1030,15
,397,2023-10-27 10:41:44.97,-68,121,-2043,16,-2,28,-691,663,-1354,14
,398,2023-10-27 10:41:44.98,-60,113,-2047,14,-1,28,-531,505,-1036,13
,399,2023-10-27 10:41:44.99,-66,118,-2053,9,4,29,-695,660,-1355,17
,400,2023-10-27 10:41:45.00,-69,112,-2064,9,4,29,-529,489,-1018,20
,401,2023-10-27 10:41:45.01,-72,113,-2057,9,1,27,-695,661,-1356,17
,402,2023-10-27 10:41:45.02,-65,115,-2060,7,-1,28,-528,490,-1018,19
,403,2023-10-27 10:41:45.03,-83,109,-2059,10,-4,30,-695,672,-1367,11
,404,2023-10-27 10:41:45.04,-62,116,-2061,12,-5,28,-530,478,-1008,26
,405,2023-10-27 10:41:45.05,-71,111,-2046,11,-5,25,-700,645,-1345,27
,406,2023-10-27 10:41:45.06,-68,113,-2054,14,-3,26,-527,459,-986,34
,407,2023-10-27 10:41:45.07,-64,111,-2055,12,-2,26,-700,647,-1347,26
,408,2023-10-27 10:41:45.08,-65,113,-2058,11,-1,27,-530,460,-990,35
,409,2023-10-27 10:41:45.09,-66,106,-2054,9,-1,28,-700,659,-1359,20
,410,2023-10-27 10:41:45.10,-76,108,-2057,7,-2,32,-525,476,-1001,24
,411,2023-10-27 10:41:45.11,-85,106,-2060,8,-1,36,-700,677,-1377,11
,412,2023-10-27 10:41:45.12,-77,110,-2051,9,-2,39,-534,474,-1008,30
,413,2023-10-27 10:41:45.13,-69,114,-2048,11,-2,39,-699,690,-1389,4
,414,2023-10-27 10:41:45.14,-78,119,-2049,8,-1,37,-526,482,-1008,22
,415,2023-10-27 10:41:45.15,-74,124,-2047,9,4,36,-697,687,-1384,5
,416,2023-10-27 10:41:45.16,-82,116,-2053,4,5,35,-521,472,-993,24
,417,2023-10-27 10:41:45.17,-73,126,-2053,4,9,29,-697,674,-1371,11
,418,2023-10-27 10:41:45.18,-74,124,-2060,4,8,26,-523,466,-989,28
,419,2023-10-27 10:41:45.19,-79,133,-2059,1,6,23,-698,677,-1375,10
,420,2023-10-27 10:41:45.20,-75,127,-2056,0,4,20,-523,457,-980,33
,421,2023-10-27 10:41:45.21,-68,130,-2049,1,3,16,-700,670,-1370,15
,422,2023-10-27 10:41:45.22,-72,130,-2053,0,0,12,-524,454,-978,35
,423,2023-10-27 10:41:45.23,-80,126,-2059,-1,-3,9,-698,673,-1371,12
,424,2023-10-27 10:41:45.24,-75,127,-2051,-1,0,9,-525,462,-987,31
,425,2023-10-27 10:41:45.25,-77,127,-2060,-3,4,8,-700,685,-1385,7
,426,2023-10-27 10:41:45.26,-72,130,-2057,-1,3,7,-528,463,-991,32
,427,2023-10-27 10:41:45.27,-72,125,-2065,1,1,12,-703,687,-1390,8
,428,2023-10-27 10:41:45.28,-70,129,-2057,3,0,15,-532,470,-1002,31
,429,2023-10-27 10:41:45.29,-81,128,-2054,4,3,21,-700,694,-1394,3
,430,2023-10-27 10:41:45.30,-81,130,-2050,5,5,22,-530,471,-1001,29
,431,2023-10-27 10:41:45.31,-77,129,-2052,5,6,25,-702,692,-1394,5
,432,2023-10-27 10:41:45.32,-60,137,-2054,6,7,25,-538,462,-1000,38
,433,2023-10-27 10:41:45.33,-79,135,-2049,11,10,23,-706,686,-1392,10
,434,2023-10-27 10:41:45.34,-77,130,-2050,13,12,21,-536,465,-1001,35
,435,2023-10-27 10:41:45.35,-66,134,-2049,21,13,18,-698,694,-1392,2
,436,2023-10-27 10:41:45.36,-73,135,-2049,22,12,16,-534,470,-1004,32
,437,2023-10-27 10:41:45.37,-68,129,-2051,27,9,14,-697,705,-1402,-4
,438,2023-10-27 10:41:45.38,-70,126,-2051,29,9,13,-538,481,-1019,28
,439,2023-10-27 10:41:45.39,-61,124,-2048,31,10,10,-700,703,-1403,-1
,440,2023-10-27 10:41:45.40,-68,115,-2047,35,10,11,-542,474,-1016,34
,441,2023-10-27 10:41:45.41,-56,112,-2044,33,8,12,-694,695,-1389,0
,442,2023-10-27 10:41:45.42,-60,117,-2055,34,9,12,-540,461,-1001,39
,443,2023-10-27 10:41:45.43,-68,105,-2058,34,8,16,-695,688,-1383,3
,444,2023-10-27 10:41:45.44,-63,106,-2059,34,9,17,-546,476,-1022,35
,445,2023-10-27 10:41:45.45,-63,96,-2059,32,11,22,-692,696,-1388,-2
,446,2023-10-27 10:41:45.46,-72,100,-2059,31,11,21,-547,476,-1023,35
,447,2023-10-27 10:41:45.47,-62,102,-2057,30,11,23,-686,701,-1387,-7
,448,2023-10-27 10:41:45.48,-68,100,-2058,25,11,26,-544,474,-1018,35
,449,2023-10-27 10:41:45.49,-69,102,-2060,25,9,27,-688,692,-1380,-2
,450,2023-10-27 10:41:45.50,-59,101,-2042,24,13,27,-554,471,-1025,41
,451,2023-10-27 10:41:45.51,-76,107,-2064,22,9,26,-690,687,-1377,1
,452,2023-10-27 10:41:45.52,-66,111,-2055,19,8,23,-559,478,-1037,40
,453,2023-10-27 10:41:45.53,-75,112,-2057,18,6,23,-692,683,-1375,4
,454,2023-10-27 10:41:45.54,-61,108,-2058,15,3,23,-556,479,-1035,38
,455,2023-10-27 10:41:45.55,-65,114,-2057,12,-1,20,-685,688,-1373,-1
,456,2023-10-27 10:41:45.56,-66,117,-2052,9,-1,15,-563,476,-1039,43
,457,2023-10-27 10:41:45.57,-58,110,-2055,4,-4,16,-683,678,-1361,2
,458,2023-10-27 10:41:45.58,-71,114,-2059,0,-6,17,-566,481,-1047,42
,459,2023-10-27 10:41:45.59,-66,117,-2058,0,-7,17,-674,697,-1371,-11
,460,2023-10-27 10:41:45.60,-61,113,-2049,1,-9,16,-561,493,-1054,34
,461,2023-10-27 10:41:45.61,-68,112,-2051,-1,-6,12,-676,690,-1366,-7
,462,2023-10-27 10:41:45.62,-66,111,-2065,-3,1,16,-573,484,-1057,44
,463,2023-10-27 10:41:45.63,-73,117,-2058,0,-2,17,-678,674,-1352,2
,464,2023-10-27 10:41:45.64,-74,117,-2045,3,-3,20,-580,489,-1069,45
,465,2023-10-27 10:41:45.65,-76,110,-2055,1,-3,22,-671,680,-1351,-4
,466,2023-10-27 10:41:45.66,-69,116,-2056,5,-5,26,-574,494,-1068,40
,467,2023-10-27 10:41:45.67,-72,118,-2050,5,-3,26,-664,680,-1344,-8
,468,2023-10-27 10:41:45.68,-79,122,-2041,5,1,26,-579,502,-1081,38
,469,2023-10-27 10:41:45.69,-75,125,-2049,6,1,21,-662,683,-1345,-10
,470,2023-10-27 10:41:45.70,-73,137,-2048,5,9,21,-586,516,-1102,35
,471,2023-10-27 10:41:45.71,-74,136,-2058,9,12,19,-656,678,-1334,-11
,472,2023-10-27 10:41:45.72,-86,127,-2050,9,11,17,-585,498,-1083,43
,473,2023-10-27 10:41:45.73,-70,126,-2060,10,7,15,-654,648,-1302,3
,474,2023-10-27 10:41:45.74,-80,132,-2052,12,3,13,-589,491,-1080,49
,475,2023-10-27 10:41:45.75,-75,133,-2051,13,-1,13,-648,647,-1295,0
,476,2023-10-27 10:41:45.76,-71,128,-2045,12,-1,10,-594,505,-1099,44
,477,2023-10-27 10:41:45.77,-68,124,-2037,11,-1,6,-642,660,-1302,-9
,478,2023-10-27 10:41:45.78,-83,123,-2048,8,2,8,-594,512,-1106,41
,479,2023-10-27 10:41:45.79,-77,121,-2049,4,5,11,-643,657,-1300,-7
,480,2023-10-27 10:41:45.80,-79,125,-2053,3,6,13,-600,523,-1123,38
,481,2023-10-27 10:41:45.81,-76,124,-2059,5,7,13,-638,645,-1283,-3
,482,2023-10-27 10:41:45.82,-76,120,-2061,5,7,15,-603,516,-1119,43
,483,2023-10-27 10:41:45.83,-75,123,-2053,8,7,16,-631,640,-1271,-4
,484,2023-10-27 10:41:45.84,-84,122,-2054,10,8,16,-606,520,-1126,43
,485,2023-10-27 10:41:45.85,-71,124,-2046,13,10,15,-630,645,-1275,-7
,486,2023-10-27 10:41:45.86,-76,126,-2050,18,15,14,-607,539,-1146,34
,487,2023-10-27 10:41:45.87,-60,125,-2041,18,17,12,-626,644,-1270,-9
,488,2023-10-27 10:41:45.88,-60,127,-2057,21,21,9,-616,546,-1162,35
,489,2023-10-27 10:41:45.89,-71,125,-2048,25,24,6,-622,638,-1260,-8
,490,2023-10-27 10:41:45.90,-68,110,-2061,26,23,8,-620,542,-1162,39
,491,2023-10-27 10:41:45.91,-79,110,-2059,29,19,7,-617,623,-1240,-3
,492,2023-10-27 10:41:45.92,-72,111,-2057,35,14,8,-618,546,-1164,36
,493,2023-10-27 10:41:45.93,-68,112,-2056,40,14,9,-611,624,-1235,-6
,494,2023-10-27 10:41:45.94,-57,107,-2054,34,13,8,-624,554,-1178,35
,495,2023-10-27 10:41:45.95,-55,115,-2051,36,13,10,-605,619,-1224,-7
,496,2023-10-27 10:41:45.96,-60,103,-2043,30,17,9,-629,551,-1180,39
,497,2023-10-27 10:41:45.97,-63,109,-2049,28,23,12,-604,611,-1215,-3
,498,2023-10-27 10:41:45.98,-62,111,-2054,26,27,12,-632,564,-1196,34
,499,2023-10-27 10:41:45.99,-63,101,-2058,21,26,14,-599,620,-1219,-10
,500,2023-10-27 10:41:46.00,-51,102,-2060,20,24,16,-635,580,-1215,27
,501,2023-10-27 10:41:46.01,-54,106,-2060,24,15,15,-597,616,-1213,-9
,502,2023-10-27 10:41:46.02,-51,106,-2065,24,10,13,-642,570,-1212,36
,503,2023-10-27 10:41:46.03,-49,106,-2052,26,9,13,-594,602,-1196,-4
,504,2023-10-27 10:41:46.04,-49,109,-2056,25,8,8,-643,582,-1225,30
,505,2023-10-27 10:41:46.05,-57,114,-2061,25,11,9,-591,604,-1195,-6
,506,2023-10-27 10:41:46.06,-62,112,-2055,24,12,10,-647,590,-1237,28
,507,2023-10-27 10:41:46.07,-63,105,-2057,22,11,8,-585,598,-1183,-6
,508,2023-10-27 10:41:46.08,-59,110,-2055,21,9,9,-650,587,-1237,31
,509,2023-10-27 10:41:46.09,-61,105,-2058,23,9,10,-581,583,-1164,-1
,510,2023-10-27 10:41:46.10,-69,105,-2056,19,8,10,-652,586,-1238,33
,511,2023-10-27 10:41:46.11,-54,113,-2055,17,5,14,-579,576,-1155,1
,512,2023-10-27 10:41:46.12,-54,101,-2059,15,4,13,-655,593,-1248,31
,513,2023-10-27 10:41:46.13,-64,106,-2059,14,2,14,-574,558,-1132,8
,514,2023-10-27 10:41:46.14,-52,110,-2059,14,-1,18,-659,570,-1229,44
,515,2023-10-27 10:41:46.15,-49,110,-2054,13,1,18,-570,544,-1114,13
,516,2023-10-27 10:41:46.16,-69,104,-2054,15,-3,20,-659,588,-1247,35
,517,2023-10-27 10:41:46.17,-58,103,-2057,15,-5,23,-570,556,-1126,7
,518,2023-10-27 10:41:46.18,-53,103,-2058,16,-5,26,-665,600,-1265,32
,519,2023-10-27 10:41:46.19,-53,102,-2055,17,-4,25,-562,549,-1111,6
,520,2023-10-27 10:41:46.20,-59,105,-2056,17,-5,26,-665,594,-1259,35
,521,2023-10-27 10:41:46.21,-66,98,-2055,19,-4,28,-562,533,-1095,14
,522,2023-10-27 10:41:46.22,-66,105,-2057,19,-4,26,-670,602,-1272,34
,523,2023-10-27 10:41:46.23,-70,100,-2056,19,-4,27,-555,541,-1096,7
,524,2023-10-27 10:41:46.24,-71,98,-2056,19,-5,25,-670,618,-1288,26
,525,2023-10-27 10:41:46.25,-72,102,-2049,18,-3,25,-554,543,-1097,5
,526,2023-10-27 10:41:46.26,-64,105,-2053,15,-1,26,-679,613,-1292,33
,527,2023-10-27 10:41:46.27,-57,101,-2055,15,-2,22,-550,535,-1085,7
,528,2023-10-27 10:41:46.28,-65,95,-2049,15,-2,22,-671,621,-1292,25
,529,2023-10-27 10:41:46.29,-68,101,-2053,16,-3,21,-539,525,-1064,7
,530,2023-10-27 10:41:46.30,-71,101,-2052,15,-3,19,-677,618,-1295,29
,531,2023-10-27 10:41:46.31,-71,101,-2058,14,-4,18,-549,524,-1073,12
,532,2023-10-27 10:41:46.32,-74,101,-2053,13,-2,19,-685,623,-1308,31
,533,2023-10-27 10:41:46.33,-69,100,-2057,11,-4,19,-546,523,-1069,11
,534,2023-10-27 10:41:46.34,-71,111,-2060,8,-7,19,-681,636,-1317,22
,535,2023-10-27 10:41:46.35,-78,105,-2057,5,-7,21,-539,517,-1056,11
,536,2023-10-27 10:41:46.36,-76,108,-2056,3,-10,23,-683,638,-1321,22
,537,2023-10-27 10:41:46.37,-76,116,-2053,-2,-5,23,-536,516,-1052,10
,538,2023-10-27 10:41:46.38,-70,115,-2062,-5,-10,23,-682,641,-1323,20
,539,2023-10-27 10:41:46.39,-71,111,-2050,-9,-10,22,-533,513,-1046,10
,540,2023-10-27 10:41:46.40,-67,117,-2063,-11,-10,22,-684,641,-1325,21
,541,2023-10-27 10:41:46.41,-77,122,-2044,-8,-11,20,-529,491,-1020,19
,542,2023-10-27 10:41:46.42,-85,121,-2051,-5,-1,17,-687,636,-1323,25
,543,2023-10-27 10:41:46.43,-75,120,-2056,-1,-3,15,-531,500,-1031,15
,544,2023-10-27 10:41:46.44,-74,119,-2058,4,0,16,-688,653,-1341,17
,545,2023-10-27 10:41:46.45,-78,115,-2039,10,2,14,-531,498,-1029,16
,546,2023-10-27 10:41:46.46,-78,110,-2055,9,1,15,-692,658,-1350,17
,547,2023-10-27 10:41:46.47,-91,112,-2058,12,1,19,-530,501,-1031,14
,548,2023-10-27 10:41:46.48,-75,124,-2057,16,2,19,-695,665,-1360,15
,549,2023-10-27 10:41:46.49,-66,113,-2046,13,5,16,-528,504,-1032,12
,550,2023-10-27 10:41:46.50,-84,119,-2051,10,12,18,-693,670,-1363,11
,551,2023-10-27 10:41:46.51,-71,127,-2055,11,17,18,-531,496,-1027,17
,552,2023-10-27 10:41:46.52,-82,117,-2053,12,23,19,-697,676,-1373,10
,553,2023-10-27 10:41:46.53,-83,125,-2056,10,24,16,-527,495,-1022,16
,554,2023-10-27 10:41:46.54,-78,116,-2058,12,18,15,-698,679,-1377,9
,555,2023-10-27 10:41:46.55,-77,127,-2056,15,10,13,-523,491,-1014,16
,556,2023-10-27 10:41:46.56,-72,121,-2047,17,7,14,-695,668,-1363,13
,557,2023-10-27 10:41:46.57,-70,117,-2046,17,5,12,-525,471,-996,27
,558,2023-10-27 10:41:46.58,-61,115,-2045,15,9,9,-698,662,-1360,18
,559,2023-10-27 10:41:46.59,-71,112,-2050,12,12,11,-525,462,-987,31
,560,2023-10-27 10:41:46.60,-67,108,-2051,13,11,11,-698,654,-1352,22
,561,2023-10-27 10:41:46.61,-82,114,-2052,11,13,12,-523,462,-985,30
,562,2023-10-27 10:41:46.62,-75,113,-2052,11,17,16,-700,669,-1369,15
,563,2023-10-27 10:41:46.63,-57,111,-2060,16,15,19,-528,470,-998,29
,564,2023-10-27 10:41:46.64,-74,107,-2058,14,15,20,-702,679,-1381,11
,565,2023-10-27 10:41:46.65,-55,111,-2060,19,12,17,-525,470,-995,27
,566,2023-10-27 10:41:46.66,-71,111,-2058,26,14,15,-701,677,-1378,12
,567,2023-10-27 10:41:46.67,-59,117,-2050,28,14,13,-528,476,-1004,26
,568,2023-10-27 10:41:46.68,-58,112,-2058,30,18,12,-699,692,-1391,3
,569,2023-10-27 10:41:46.69,-62,109,-2056,30,19,10,-522,479,-1001,21
,570,2023-10-27 10:41:46.70,-71,102,-2060,31,17,10,-698,694,-1392,2
,571,2023-10-27 10:41:46.71,-51,100,-2067,30,17,10,-527,462,-989,32
,572,2023-10-27 10:41:46.72,-48,101,-2056,33,15,8,-699,663,-1362,18
,573,2023-10-27 10:41:46.73,-64,92,-2048,31,11,9,-529,431,-960,49
,574,2023-10-27 10:41:46.74,-43,94,-2050,29,12,11,-698,660,-1358,19
,575,2023-10-27 10:41:46.75,-64,97,-2052,27,10,10,-524,444,-968,40
,576,2023-10-27 10:41:46.76,-47,98,-2042,21,14,10,-707,661,-1368,23
,577,2023-10-27 10:41:46.77,-60,97,-2045,21,14,12,-532,455,-987,38
,578,2023-10-27 10:41:46.78,-72,91,-2059,19,14,14,-703,679,-1382,12
,579,2023-10-27 10:41:46.79,-51,89,-2063,18,11,16,-536,459,-995,38
,580,2023-10-27 10:41:46.80,-78,98,-2059,15,5,17,-701,697,-1398,2
,581,2023-10-27 10:41:46.81,-57,95,-2056,17,2,20,-531,471,-1002,30
,582,2023-10-27 10:41:46.82,-53,95,-2052,13,-5,19,-701,695,-1396,3
,583,2023-10-27 10:41:46.83,-58,93,-2050,10,-7,20,-535,470,-1005,32
,584,2023-10-27 10:41:46.84,-64,89,-2058,8,-4,21,-699,694,-1393,2
,585,2023-10-27 10:41:46.85,-62,97,-2061,8,-4,22,-532,461,-993,35
,586,2023-10-27 10:41:46.86,-66,94,-2062,4,-5,24,-698,698,-1396,0
,587,2023-10-27 10:41:46.87,-66,90,-2054,4,-1,25,-536,476,-1012,30
,588,2023-10-27 10:41:46.88,-68,94,-2056,5,-1,28,-694,703,-1397,-4
,589,2023-10-27 10:41:46.89,-54,96,-2053,6,-1,30,-537,477,-1014,30
,590,2023-10-27 10:41:46.90,-62,98,-2052,7,-1,31,-695,703,-1398,-4
,591,2023-10-27 10:41:46.91,-65,103,-2050,6,1,32,-542,470,-1012,36
,592,2023-10-27 10:41:46.92,-65,102,-2053,8,-3,32,-695,695,-1390,0
,593,2023-10-27 10:41:46.93,-56,108,-2053,7,-3,31,-542,473,-1015,34
,594,2023-10-27 10:41:46.94,-64,111,-2052,10,-4,33,-690,686,-1376,2
,595,2023-10-27 10:41:46.95,-64,108,-2049,12,-3,30,-547,455,-1002,46
,596,2023-10-27 10:41:46.96,-66,110,-2050,12,-5,29,-692,674,-1366,9
,597,2023-10-27 10:41:46.97,-60,113,-2057,13,-8,29,-548,449,-997,49
,598,2023-10-27 10:41:46.98,-74,106,-2062,14,-9,31,-689,669,-1358,10
,599,2023-10-27 10:41:46.99,-66,101,-2058,16,-12,29,-549,460,-1009,44
,600,2023-10-27 10:41:47.00,-69,101,-2053,14,-11,32,-682,684,-1366,-1
,601,2023-10-27 10:41:47.01,-81,104,-2057,18,-12,34,-550,468,-1018,41
,602,2023-10-27 10:41:47.02,-57,110,-2057,16,-11,33,-680,692,-1372,-6
,603,2023-10-27 10:41:47.03,-74,100,-2057,13,-7,34,-552,483,-1035,34
,604,2023-10-27 10:41:47.04,-69,93,-2053,14,-8,37,-680,693,-1373,-6
,605,2023-10-27 10:41:47.05,-72,102,-2053,10,-3,37,-558,485,-1043,36
,606,2023-10-27 10:41:47.06,-80,112,-2059,8,-4,41,-677,698,-1375,-10
,607,2023-10-27 10:41:47.07,-68,111,-2055,7,-2,38,-557,495,-1052,31
,608,2023-10-27 10:41:47.08,-84,105,-2052,3,0,37,-680,684,-1364,-2
,609,2023-10-27 10:41:47.09,-68,107,-2056,2,0,32,-566,486,-1052,40
,610,2023-10-27 10:41:47.10,-74,113,-2043,1,-1,31,-675,676,-1351,0
,611,2023-10-27 10:41:47.11,-79,113,-2047,2,1,28,-573,477,-1050,48
,612,2023-10-27 10:41:47.12,-85,111,-2052,-1,1,23,-675,674,-1349,0
,613,2023-10-27 10:41:47.13,-89,113,-2055,-2,3,19,-576,492,-1068,42
,614,2023-10-27 10:41:47.14,-78,104,-2057,-1,0,15,-674,678,-1352,-2
,615,2023-10-27 10:41:47.15,-78,108,-2056,-1,-1,16,-583,501,-1084,41
,616,2023-10-27 10:41:47.16,-73,111,-2052,-1,-2,15,-665,684,-1349,-9
,617,2023-10-27 10:41:47.17,-83,105,-2053,-3,-2,15,-588,488,-1076,50
,618,2023-10-27 10:41:47.18,-79,103,-2051,-2,-3,16,-664,671,-1335,-3
,619,2023-10-27 10:41:47.19,-72,105,-2059,-1,-1,17,-586,500,-1086,43
,620,2023-10-27 10:41:47.20,-80,111,-2062,2,0,19,-654,672,-1326,-9
,621,2023-10-27 10:41:47.21,-72,110,-2042,3,2,15,-587,508,-1095,39
,622,2023-10-27 10:41:47.22,-71,108,-2056,3,9,16,-650,668,-1318,-9
,623,2023-10-27 10:41:47.23,-73,108,-2064,5,15,17,-587,511,-1098,38
,624,2023-10-27 10:41:47.24,-72,110,-2047,9,12,19,-649,661,-1310,-6
,625,2023-10-27 10:41:47.25,-68,104,-2050,10,13,20,-596,512,-1108,42
,626,2023-10-27 10:41:47.26,-83,103,-2062,12,15,20,-644,664,-1308,-10
,627,2023-10-27 10:41:47.27,-70,123,-2064,14,13,20,-598,525,-1123,36
,628,2023-10-27 10:41:47.28,-76,120,-2051,14,11,18,-639,661,-1300,-11
,629,2023-10-27 10:41:47.29,-74,122,-2049,13,10,18,-601,524,-1125,38
,630,2023-10-27 10:41:47.30,-66,123,-2054,10,11,13,-636,656,-1292,-10
,631,2023-10-27 10:41:47.31,-65,124,-2055,9,15,9,-604,534,-1138,35
,632,2023-10-27 10:41:47.32,-70,118,-2061,7,15,6,-628,646,-1274,-9
,633,2023-10-27 10:41:47.33,-81,112,-2063,8,9,6,-608,520,-1128,44
,634,2023-10-27 10:41:47.34,-61,109,-2061,7,2,7,-630,637,-1267,-3
,635,2023-10-27 10:41:47.35,-70,117,-2060,6,-4,9,-613,535,-1148,39
,636,2023-10-27 10:41:47.36,-67,118,-2053,7,-7,8,-625,636,-1261,-5
,637,2023-10-27 10:41:47.37,-70,111,-2048,2,-5,9,-615,538,-1153,38
,638,2023-10-27 10:41:47.38,-74,112,-2043,4,-5,13,-620,631,-1251,-5
,639,2023-10-27 10:41:47.39,-69,110,-2043,1,1,15,-622,539,-1161,41
,640,2023-10-27 10:41:47.40,-68,111,-2043,4,9,18,-618,632,-1250,-7
,641,2023-10-27 10:41:47.41,-80,110,-2049,7,7,22,-624,555,-1179,34
,642,2023-10-27 10:41:47.42,-83,107,-2057,11,7,23,-615,630,-1245,-7
,643,2023-10-27 10:41:47.43,-62,120,-2054,14,6,26,-628,562,-1190,33
,644,2023-10-27 10:41:47.44,-69,108,-2064,19,6,27,-608,632,-1240,-12
,645,2023-10-27 10:41:47.45,-69,106,-2060,23,4,28,-634,565,-1199,34
,646,2023-10-27 10:41:47.46,-69,105,-2055,29,3,31,-604,614,-1218,-5
,647,2023-10-27 10:41:47.47,-72,113,-2051,32,8,24,-636,558,-1194,39
,648,2023-10-27 10:41:47.48,-61,101,-2052,35,11,26,-600,598,-1198,1
,649,2023-10-27 10:41:47.49,-66,104,-2055,35,10,21,-646,556,-1202,45
,650,2023-10-27 10:41:47.50,-69,102,-2058,39,11,20,-597,600,-1197,-1
