// Data mode  : Full
// Data quality  : High
// Acceleration sensor's range  : 16g
// Gyroscope sensor's range  : 2000dps
//
//ARTIFACT,NUM,DATE,ACC_X,ACC_Y,ACC_Z,GYRO_X,GYRO_Y,GYRO_Z,EOG_L,EOG_R,EOG_H,EOG_V
,1,2023-10-20 13:29:07.54,-68,-138,-2064,52,17,36,1075,-1076,2151,0
,2,2023-10-20 13:29:07.55,-65,-128,-2078,36,19,41,990,-1055,2045,32
,3,2023-10-20 13:29:07.56,-71,-136,-2069,19,11,43,1077,-1084,2161,3
,4,2023-10-20 13:29:07.57,-69,-131,-2059,6,5,51,987,-1051,2038,32
,5,2023-10-20 13:29:07.58,-68,-134,-2059,-1,5,54,1094,-1076,2170,-9
,6,2023-10-20 13:29:07.59,-78,-111,-2041,-3,6,45,975,-1035,2010,30
,7,2023-10-20 13:29:07.60,-85,-96,-2035,-12,11,32,1036,-1060,2096,12
,8,2023-10-20 13:29:07.61,-69,-69,-2035,-30,14,13,941,-1017,1958,38
,9,2023-10-20 13:29:07.62,-43,-72,-2028,-59,30,-5,1072,-1062,2134,-5
,10,2023-10-20 13:29:07.63,-52,-106,-2018,-59,44,-15,973,-1024,1997,25
,11,2023-10-20 13:29:07.64,-43,-106,-2025,-45,53,-21,1098,-1087,2185,-5
,12,2023-10-20 13:29:07.65,-36,-117,-2035,-37,74,-23,964,-1042,2006,39
,13,2023-10-20 13:29:07.66,-65,-107,-2062,-26,70,-18,1075,-1086,2161,5
,14,2023-10-20 13:29:07.67,-57,-92,-2067,-18,52,-13,943,-1024,1967,40
,15,2023-10-20 13:29:07.68,-47,-95,-2065,-26,44,-17,1074,-1086,2160,6
,16,2023-10-20 13:29:07.69,-42,-103,-2057,-19,32,-17,952,-1033,1985,40
,17,2023-10-20 13:29:07.70,-45,-98,-2056,4,17,-13,1108,-1098,2206,-5
,18,2023-10-20 13:29:07.71,-31,-91,-2047,15,14,-11,938,-1032,1970,47
,19,2023-10-20 13:29:07.72,-21,-84,-2060,11,22,-12,1053,-1083,2136,15
,20,2023-10-20 13:29:07.73,-38,-77,-2060,17,20,-16,915,-1010,1925,47
,21,2023-10-20 13:29:07.74,-20,-88,-2056,24,27,-16,1088,-1083,2171,-2
,22,2023-10-20 13:29:07.75,-29,-96,-2057,21,37,-14,935,-1018,1953,41
,23,2023-10-20 13:29:07.76,-22,-106,-2068,25,38,-12,1088,-1094,2182,3
,24,2023-10-20 13:29:07.77,-25,-119,-2070,29,37,-2,902,-1019,1921,58
,25,2023-10-20 13:29:07.78,-37,-121,-2071,35,34,1,1042,-1094,2136,26
,26,2023-10-20 13:29:07.79,-19,-121,-2066,35,29,10,901,-1016,1917,57
,27,2023-10-20 13:29:07.80,-26,-119,-2060,34,24,17,1103,-1101,2204,-1
,28,2023-10-20 13:29:07.81,-31,-121,-2053,33,25,26,919,-1019,1938,50
,29,2023-10-20 13:29:07.82,-21,-114,-2063,32,22,33,1086,-1100,2186,7
,30,2023-10-20 13:29:07.83,-29,-118,-2049,18,25,38,923,-1012,1935,44
,31,2023-10-20 13:29:07.84,-27,-114,-2046,15,24,40,1124,-1110,2234,-7
,32,2023-10-20 13:29:07.85,-10,-129,-2055,11,27,41,930,-1020,1950,45
,33,2023-10-20 13:29:07.86,-13,-105,-2029,6,28,47,1119,-1106,2225,-6
,34,2023-10-20 13:29:07.87,-43,-145,-2043,1,53,68,923,-1007,1930,42
,35,2023-10-20 13:29:07.88,-45,-93,-2067,23,51,69,1132,-1107,2239,-12
,36,2023-10-20 13:29:07.89,-30,-81,-2063,59,15,35,912,-1013,1925,50
,37,2023-10-20 13:29:07.90,-36,-82,-2046,80,-3,5,1107,-1109,2216,1
,38,2023-10-20 13:29:07.91,-25,-74,-2051,51,-1,-9,914,-1008,1922,47
,39,2023-10-20 13:29:07.92,-23,-98,-2054,8,-6,-16,1152,-1086,2238,-33
,40,2023-10-20 13:29:07.93,-30,-130,-2058,-16,-11,-16,876,-981,1857,52
,41,2023-10-20 13:29:07.94,-26,-129,-2043,-20,-24,0,1005,-1081,2086,38
,42,2023-10-20 13:29:07.95,-29,-143,-2049,-27,-11,1,769,-987,1756,109
,43,2023-10-20 13:29:07.96,-29,-137,-2052,-19,0,2,931,-1088,2019,78
,44,2023-10-20 13:29:07.97,-31,-145,-2046,-14,3,11,726,-988,1714,131
,45,2023-10-20 13:29:07.98,-34,-132,-2048,-15,12,16,878,-1091,1969,106
,46,2023-10-20 13:29:07.99,-35,-112,-2060,-18,25,19,677,-992,1669,157
,47,2023-10-20 13:29:08.00,-39,-109,-2067,-17,18,19,837,-1095,1932,129
,48,2023-10-20 13:29:08.01,-40,-91,-2060,-19,9,13,632,-993,1625,180
,49,2023-10-20 13:29:08.02,-45,-84,-2072,-30,7,10,773,-1103,1876,165
,50,2023-10-20 13:29:08.03,-24,-96,-2059,-34,-6,2,572,-998,1570,213
,51,2023-10-20 13:29:08.04,-20,-94,-2047,-24,-3,-10,738,-1103,1841,182
,52,2023-10-20 13:29:08.05,-37,-96,-2044,-16,7,-17,546,-995,1541,224
,53,2023-10-20 13:29:08.06,-34,-103,-2055,-9,1,-20,725,-1105,1830,190
,54,2023-10-20 13:29:08.07,-25,-109,-2039,-14,-5,-21,519,-996,1515,238
,55,2023-10-20 13:29:08.08,7,-150,-2042,-38,15,-10,665,-1103,1768,219
,56,2023-10-20 13:29:08.09,-16,-179,-2057,-43,41,20,492,-993,1485,250
,57,2023-10-20 13:29:08.10,-27,-130,-2049,-3,41,40,699,-1110,1809,205
,58,2023-10-20 13:29:08.11,-44,-89,-2070,21,35,52,518,-1000,1518,241
,59,2023-10-20 13:29:08.12,-38,-72,-2068,29,12,51,729,-1110,1839,190
,60,2023-10-20 13:29:08.13,-20,-70,-2070,30,9,45,510,-992,1502,241
,61,2023-10-20 13:29:08.14,-21,-69,-2060,40,2,30,664,-1108,1772,222
,62,2023-10-20 13:29:08.15,-22,-74,-2055,47,11,13,466,-998,1464,266
,63,2023-10-20 13:29:08.16,-15,-84,-2045,57,3,7,678,-1117,1795,219
,64,2023-10-20 13:29:08.17,-23,-101,-2045,57,-1,12,502,-1004,1506,251
,65,2023-10-20 13:29:08.18,-27,-108,-2061,63,-2,13,736,-1121,1857,192
,66,2023-10-20 13:29:08.19,-37,-116,-2062,61,-10,18,530,-1003,1533,236
,67,2023-10-20 13:29:08.20,-43,-96,-2059,53,-23,21,737,-1119,1856,191
,68,2023-10-20 13:29:08.21,-23,-110,-2050,51,-34,21,510,-1002,1512,246
,69,2023-10-20 13:29:08.22,-20,-113,-2038,42,-34,19,738,-1122,1860,192
,70,2023-10-20 13:29:08.23,-18,-104,-2028,46,-27,15,526,-1004,1530,239
,71,2023-10-20 13:29:08.24,-14,-93,-2038,49,-19,8,744,-1121,1865,188
,72,2023-10-20 13:29:08.25,-25,-100,-2043,36,-12,-1,502,-1005,1507,251
,73,2023-10-20 13:29:08.26,-32,-104,-2038,16,2,-11,702,-1121,1823,209
,74,2023-10-20 13:29:08.27,-29,-116,-2052,8,4,-15,490,-1001,1491,255
,75,2023-10-20 13:29:08.28,-22,-115,-2039,7,0,-19,724,-1118,1842,197
,76,2023-10-20 13:29:08.29,-29,-114,-2034,3,9,-22,502,-998,1500,248
,77,2023-10-20 13:29:08.30,-12,-115,-2032,-9,22,-21,722,-1117,1839,197
,78,2023-10-20 13:29:08.31,-15,-114,-2036,-16,38,-22,489,-998,1487,254
,79,2023-10-20 13:29:08.32,-8,-123,-2055,-22,46,-18,716,-1114,1830,199
,80,2023-10-20 13:29:08.33,-17,-119,-2072,-25,46,-14,486,-997,1483,255
,81,2023-10-20 13:29:08.34,-7,-118,-2069,-33,42,-8,720,-1117,1837,198
,82,2023-10-20 13:29:08.35,-18,-111,-2073,-37,31,0,471,-1001,1472,265
,83,2023-10-20 13:29:08.36,-22,-85,-2051,-42,28,5,684,-1118,1802,217
,84,2023-10-20 13:29:08.37,-26,-126,-2068,-48,15,6,477,-1001,1478,262
,85,2023-10-20 13:29:08.38,-17,-113,-2060,-48,3,11,726,-1116,1842,195
,86,2023-10-20 13:29:08.39,-19,-113,-2077,-41,-9,17,525,-1002,1527,238
,87,2023-10-20 13:29:08.40,-20,-107,-2071,-29,-40,19,780,-1117,1897,168
,88,2023-10-20 13:29:08.41,-20,-91,-2082,-18,-53,16,529,-1003,1532,237
,89,2023-10-20 13:29:08.42,-31,-82,-2082,-9,-68,8,744,-1115,1859,185
,90,2023-10-20 13:29:08.43,-29,-78,-2077,-9,-77,-4,483,-1012,1495,264
,91,2023-10-20 13:29:08.44,-31,-56,-2058,-15,-70,-20,702,-1136,1838,217
,92,2023-10-20 13:29:08.45,-24,-92,-2063,-23,-64,-32,580,-1028,1608,224
,93,2023-10-20 13:29:08.46,-45,-90,-2053,-16,-80,-35,904,-1136,2040,116
,94,2023-10-20 13:29:08.47,-60,-89,-2035,-16,-80,-41,804,-1019,1823,107
,95,2023-10-20 13:29:08.48,-49,-65,-2053,-14,-64,-55,1057,-1122,2179,32
,96,2023-10-20 13:29:08.49,-36,-81,-2051,4,-75,-76,910,-1011,1921,50
,97,2023-10-20 13:29:08.50,-66,-125,-2001,30,-53,-83,1123,-1118,2241,-2
,98,2023-10-20 13:29:08.51,-49,-119,-2026,36,-38,-83,920,-1013,1933,46
,99,2023-10-20 13:29:08.52,-45,-148,-2037,2,-42,-76,1107,-1117,2224,5
,100,2023-10-20 13:29:08.53,-71,-130,-2057,4,-46,-58,955,-1012,1967,28
,101,2023-10-20 13:29:08.54,-76,-116,-2060,-11,-35,-57,1144,-1115,2259,-14
,102,2023-10-20 13:29:08.55,-87,-143,-2053,-26,-41,-52,979,-1013,1992,17
,103,2023-10-20 13:29:08.56,-56,-139,-2030,-22,-59,-38,1138,-1109,2247,-14
,104,2023-10-20 13:29:08.57,-55,-139,-2023,-9,-50,-26,939,-1007,1946,34
,105,2023-10-20 13:29:08.58,-46,-139,-1997,-11,-30,-13,1095,-1104,2199,4
,106,2023-10-20 13:29:08.59,-58,-135,-2021,-14,-12,-7,943,-1009,1952,33
,107,2023-10-20 13:29:08.60,-68,-140,-2025,-13,-6,6,1107,-1098,2205,-4
,108,2023-10-20 13:29:08.61,-69,-116,-2050,-17,0,15,939,-999,1938,30
,109,2023-10-20 13:29:08.62,-90,-141,-2054,-26,-7,26,1089,-1081,2170,-4
,110,2023-10-20 13:29:08.63,-83,-124,-2069,-37,-1,37,951,-996,1947,22
,111,2023-10-20 13:29:08.64,-87,-122,-2071,-41,-12,46,1098,-1083,2181,-7
,112,2023-10-20 13:29:08.65,-89,-123,-2057,-40,-21,52,914,-993,1907,39
,113,2023-10-20 13:29:08.66,-85,-106,-2060,-45,-19,60,1049,-1073,2122,12
,114,2023-10-20 13:29:08.67,-93,-85,-2065,-45,-22,53,904,-992,1896,44
,115,2023-10-20 13:29:08.68,-83,-84,-2064,-45,-22,43,1056,-1070,2126,7
,116,2023-10-20 13:29:08.69,-51,-106,-2038,-55,-27,42,907,-999,1906,46
,117,2023-10-20 13:29:08.70,-59,-127,-2046,-71,1,49,1043,-1073,2116,15
,118,2023-10-20 13:29:08.71,-49,-120,-2022,-72,25,56,880,-1008,1888,64
,119,2023-10-20 13:29:08.72,-66,-92,-2055,-63,41,64,996,-1080,2076,42
,120,2023-10-20 13:29:08.73,-83,-67,-2072,-45,36,67,867,-1017,1884,75
,121,2023-10-20 13:29:08.74,-93,-40,-2083,-36,24,64,993,-1087,2080,47
,122,2023-10-20 13:29:08.75,-87,-30,-2090,-32,9,49,858,-1016,1874,79
,123,2023-10-20 13:29:08.76,-77,-23,-2080,-38,-6,31,986,-1069,2055,41
,124,2023-10-20 13:29:08.77,-77,-21,-2075,-35,-6,18,856,-1010,1866,77
,125,2023-10-20 13:29:08.78,-55,-39,-2056,-21,-12,-2,970,-1068,2038,49
,126,2023-10-20 13:29:08.79,-60,-48,-2032,-17,-9,-14,816,-1017,1833,100
,127,2023-10-20 13:29:08.80,-41,-68,-2031,-10,1,-18,938,-1067,2005,64
,128,2023-10-20 13:29:08.81,-53,-68,-2056,5,15,-13,851,-1016,1867,82
,129,2023-10-20 13:29:08.82,-71,-51,-2070,19,6,-13,974,-1060,2034,43
,130,2023-10-20 13:29:08.83,-61,-59,-2062,23,-1,-11,907,-1021,1928,57
,131,2023-10-20 13:29:08.84,-76,-48,-2069,35,-14,-9,1000,-1067,2067,33
,132,2023-10-20 13:29:08.85,-68,-66,-2033,38,-24,1,923,-1043,1966,60
,133,2023-10-20 13:29:08.86,-57,-79,-2040,33,-22,3,1000,-1085,2085,42
,134,2023-10-20 13:29:08.87,-57,-63,-2039,30,-13,7,998,-1048,2046,25
,135,2023-10-20 13:29:08.88,-65,-62,-2057,45,-17,13,1046,-1071,2117,12
,136,2023-10-20 13:29:08.89,-60,-86,-2050,60,-31,23,1027,-1032,2059,2
,137,2023-10-20 13:29:08.90,-81,-93,-2041,50,-21,28,1046,-1053,2099,3
,138,2023-10-20 13:29:08.91,-81,-79,-2040,43,-23,28,1050,-1029,2079,-10
,139,2023-10-20 13:29:08.92,-67,-83,-2039,46,-11,33,1054,-1053,2107,0
,140,2023-10-20 13:29:08.93,-75,-72,-2042,41,-5,33,1035,-1040,2075,2
,141,2023-10-20 13:29:08.94,-79,-78,-2046,33,4,38,1031,-1057,2088,13
,142,2023-10-20 13:29:08.95,-87,-82,-2044,22,8,45,1045,-1043,2088,-1
,143,2023-10-20 13:29:08.96,-69,-94,-2047,16,16,42,1037,-1052,2089,7
,144,2023-10-20 13:29:08.97,-85,-88,-2045,15,24,39,1047,-1047,2094,0
,145,2023-10-20 13:29:08.98,-80,-81,-2049,14,25,38,1019,-1054,2073,17
,146,2023-10-20 13:29:08.99,-71,-90,-2042,8,35,35,1042,-1047,2089,2
,147,2023-10-20 13:29:09.00,-78,-91,-2032,2,43,31,1014,-1047,2061,16
,148,2023-10-20 13:29:09.01,-75,-98,-2046,4,47,28,1052,-1052,2104,0
,149,2023-10-20 13:29:09.02,-64,-84,-2060,10,50,24,1008,-1050,2058,21
,150,2023-10-20 13:29:09.03,-57,-63,-2045,11,53,16,1033,-1060,2093,13
,151,2023-10-20 13:29:09.04,-55,-76,-2050,7,65,9,990,-1049,2039,29
,152,2023-10-20 13:29:09.05,-56,-73,-2060,2,76,3,1063,-1050,2113,-6
,153,2023-10-20 13:29:09.06,-44,-77,-2066,1,79,-2,990,-1030,2020,20
,154,2023-10-20 13:29:09.07,-63,-78,-2062,-2,73,-4,1010,-1051,2061,20
,155,2023-10-20 13:29:09.08,-46,-75,-2064,-3,69,-3,964,-1039,2003,37
,156,2023-10-20 13:29:09.09,-61,-73,-2051,-15,74,-4,1073,-1063,2136,-5
,157,2023-10-20 13:29:09.10,-68,-64,-2059,-7,77,-2,992,-1039,2031,23
,158,2023-10-20 13:29:09.11,1,-56,-2031,9,65,-11,1011,-1061,2072,25
,159,2023-10-20 13:29:09.12,-49,-73,-1986,43,90,-25,923,-1034,1957,55
,160,2023-10-20 13:29:09.13,-18,-74,-2026,39,92,-26,986,-1062,2048,38
,161,2023-10-20 13:29:09.14,-28,-126,-2043,35,83,-14,920,-1028,1948,54
,162,2023-10-20 13:29:09.15,-49,-117,-2092,40,84,6,984,-1060,2044,38
,163,2023-10-20 13:29:09.16,-30,-93,-2092,19,48,17,910,-1025,1935,57
,164,2023-10-20 13:29:09.17,-41,-87,-2098,-12,26,7,969,-1061,2030,46
,165,2023-10-20 13:29:09.18,-13,-80,-2052,-21,20,11,887,-1022,1909,67
,166,2023-10-20 13:29:09.19,-12,-94,-2036,-13,40,6,933,-1063,1996,65
,167,2023-10-20 13:29:09.20,-24,-96,-2051,3,47,1,841,-1020,1861,89
,168,2023-10-20 13:29:09.21,-19,-89,-2051,13,45,1,871,-1067,1938,98
,169,2023-10-20 13:29:09.22,-22,-95,-2052,14,47,4,806,-1017,1823,105
,170,2023-10-20 13:29:09.23,-12,-114,-2053,8,50,11,887,-1070,1957,91
,171,2023-10-20 13:29:09.24,-24,-109,-2065,4,46,20,817,-1018,1835,100
,172,2023-10-20 13:29:09.25,-27,-87,-2064,3,41,25,913,-1077,1990,82
,173,2023-10-20 13:29:09.26,-26,-86,-2058,2,31,22,840,-1020,1860,90
,174,2023-10-20 13:29:09.27,-18,-70,-2058,-2,24,26,968,-1073,2041,52
,175,2023-10-20 13:29:09.28,-28,-80,-2064,-9,15,29,859,-1009,1868,75
,176,2023-10-20 13:29:09.29,-10,-80,-2057,-7,14,34,956,-1064,2020,54
,177,2023-10-20 13:29:09.30,-16,-79,-2050,-4,11,34,838,-998,1836,80
,178,2023-10-20 13:29:09.31,-23,-75,-2057,-3,6,32,971,-1076,2047,52
,179,2023-10-20 13:29:09.32,-14,-89,-2033,-3,6,32,859,-1015,1874,78
,180,2023-10-20 13:29:09.33,-30,-88,-2060,-5,7,35,1007,-1091,2098,42
,181,2023-10-20 13:29:09.34,-25,-93,-2057,2,-1,38,860,-1016,1876,78
,182,2023-10-20 13:29:09.35,-32,-101,-2074,2,6,50,1004,-1091,2095,43
,183,2023-10-20 13:29:09.36,-48,-77,-2084,0,9,64,874,-1009,1883,67
,184,2023-10-20 13:29:09.37,-65,-78,-2098,12,-7,68,1076,-1080,2156,2
,185,2023-10-20 13:29:09.38,-65,-62,-2095,19,-18,64,918,-996,1914,39
,186,2023-10-20 13:29:09.39,-58,-24,-2074,14,-26,45,1114,-1076,2190,-19
,187,2023-10-20 13:29:09.40,-58,-35,-2066,5,-19,26,929,-994,1923,32
,188,2023-10-20 13:29:09.41,-59,-40,-2054,-3,-22,15,1127,-1081,2208,-23
,189,2023-10-20 13:29:09.42,-50,-34,-2042,-3,-7,-4,904,-997,1901,46
,190,2023-10-20 13:29:09.43,-40,-57,-2042,0,13,-16,1062,-1089,2151,13
,191,2023-10-20 13:29:09.44,-54,-76,-2051,13,14,-19,856,-999,1855,71
,192,2023-10-20 13:29:09.45,-49,-85,-2064,29,21,-16,1039,-1100,2139,30
,193,2023-10-20 13:29:09.46,-49,-72,-2050,43,18,-15,869,-1009,1878,70
,194,2023-10-20 13:29:09.47,-40,-73,-2056,43,18,-18,1084,-1099,2183,7
,195,2023-10-20 13:29:09.48,-29,-85,-2052,35,28,-21,853,-997,1850,72
,196,2023-10-20 13:29:09.49,-38,-103,-2047,43,26,-8,995,-1080,2075,42
,197,2023-10-20 13:29:09.50,-39,-100,-2040,66,23,6,772,-980,1752,104
,198,2023-10-20 13:29:09.51,-20,-85,-2028,69,26,15,907,-1092,1999,92
,199,2023-10-20 13:29:09.52,-30,-99,-2036,70,33,20,695,-1002,1697,153
,200,2023-10-20 13:29:09.53,-30,-100,-2033,80,28,29,847,-1118,1965,135
,201,2023-10-20 13:29:09.54,-19,-98,-2024,84,37,31,771,-1009,1780,119
,202,2023-10-20 13:29:09.55,-36,-96,-2024,76,50,30,1079,-1109,2188,15
,203,2023-10-20 13:29:09.56,-21,-107,-2027,72,61,29,877,-996,1873,59
,204,2023-10-20 13:29:09.57,-7,-125,-2046,63,70,29,1062,-1102,2164,20
,205,2023-10-20 13:29:09.58,-10,-109,-2036,63,67,24,816,-991,1807,87
,206,2023-10-20 13:29:09.59,-8,-106,-2054,53,83,15,1006,-1100,2106,47
,207,2023-10-20 13:29:09.60,12,-102,-2084,41,89,8,790,-988,1778,99
,208,2023-10-20 13:29:09.61,4,-89,-2108,37,89,4,1016,-1100,2116,42
,209,2023-10-20 13:29:09.62,17,-89,-2091,32,73,2,831,-989,1820,79
,210,2023-10-20 13:29:09.63,27,-90,-2082,29,76,-9,1077,-1101,2178,12
,211,2023-10-20 13:29:09.64,34,-84,-2077,46,66,-18,858,-987,1845,64
,212,2023-10-20 13:29:09.65,42,-71,-2068,74,53,-23,1091,-1109,2200,9
,213,2023-10-20 13:29:09.66,38,-80,-2090,94,56,-33,848,-990,1838,71
,214,2023-10-20 13:29:09.67,62,-77,-2108,116,63,-49,1071,-1106,2177,17
,215,2023-10-20 13:29:09.68,136,-96,-2051,170,68,-73,850,-986,1836,68
,216,2023-10-20 13:29:09.69,123,-150,-2003,248,107,-89,1096,-1106,2202,5
,217,2023-10-20 13:29:09.70,99,-90,-2000,306,145,-97,837,-984,1821,73
,218,2023-10-20 13:29:09.71,150,-91,-2016,317,126,-107,1063,-1099,2162,18
,219,2023-10-20 13:29:09.72,180,-142,-2010,333,119,-109,842,-979,1821,68
,220,2023-10-20 13:29:09.73,201,-166,-1981,371,163,-101,1088,-1100,2188,6
,221,2023-10-20 13:29:09.74,191,-190,-1997,401,219,-103,802,-980,1782,89
,222,2023-10-20 13:29:09.75,184,-218,-1985,443,245,-101,995,-1102,2097,53
,223,2023-10-20 13:29:09.76,170,-219,-2008,507,245,-94,764,-979,1743,107
,224,2023-10-20 13:29:09.77,152,-215,-2045,551,221,-90,1015,-1097,2112,41
,225,2023-10-20 13:29:09.78,147,-218,-2033,573,206,-71,777,-974,1751,98
,226,2023-10-20 13:29:09.79,136,-249,-2045,583,192,-52,997,-1092,2089,47
,227,2023-10-20 13:29:09.80,133,-244,-2055,582,162,-25,761,-974,1735,106
,228,2023-10-20 13:29:09.81,97,-293,-2028,589,119,10,1000,-1105,2105,52
,229,2023-10-20 13:29:09.82,53,-319,-2064,608,79,38,778,-981,1759,101
,230,2023-10-20 13:29:09.83,23,-349,-2101,604,20,82,1018,-1087,2105,34
,231,2023-10-20 13:29:09.84,-6,-379,-2083,581,-47,124,779,-957,1736,89
,232,2023-10-20 13:29:09.85,-45,-409,-2089,547,-80,174,990,-1070,2060,40
,233,2023-10-20 13:29:09.86,-61,-444,-2087,538,-158,225,841,-960,1801,59
,234,2023-10-20 13:29:09.87,-94,-454,-2118,556,-253,277,1102,-1096,2198,-3
,235,2023-10-20 13:29:09.88,-142,-434,-2115,584,-345,318,809,-976,1785,83
,236,2023-10-20 13:29:09.89,-143,-410,-2161,567,-414,347,984,-1091,2075,53
,237,2023-10-20 13:29:09.90,-183,-333,-2134,492,-528,369,745,-962,1707,108
,238,2023-10-20 13:29:09.91,-182,-296,-2104,405,-537,341,975,-1068,2043,46
,239,2023-10-20 13:29:09.92,-172,-277,-2068,287,-516,311,771,-949,1720,89
,240,2023-10-20 13:29:09.93,-173,-224,-2043,181,-486,276,995,-1067,2062,36
,241,2023-10-20 13:29:09.94,-198,-305,-2070,92,-464,230,806,-953,1759,73
,242,2023-10-20 13:29:09.95,-216,-286,-2037,5,-427,200,1036,-1067,2103,15
,243,2023-10-20 13:29:09.96,-248,-296,-2025,-61,-394,177,809,-950,1759,70
,244,2023-10-20 13:29:09.97,-244,-276,-2040,-99,-400,142,1012,-1053,2065,20
,245,2023-10-20 13:29:09.98,-242,-277,-2020,-157,-383,129,801,-942,1743,70
,246,2023-10-20 13:29:09.99,-260,-266,-1997,-223,-355,103,1015,-1060,2075,22
,247,2023-10-20 13:29:10.00,-248,-227,-1959,-271,-317,61,839,-946,1785,53
,248,2023-10-20 13:29:10.01,-224,-243,-1975,-309,-285,29,1041,-1045,2086,2
,249,2023-10-20 13:29:10.02,-212,-200,-1955,-354,-263,4,814,-930,1744,58
,250,2023-10-20 13:29:10.03,-196,-195,-1923,-413,-202,-31,998,-1034,2032,18
,251,2023-10-20 13:29:10.04,-159,-191,-1931,-464,-127,-68,841,-929,1770,44
,252,2023-10-20 13:29:10.05,-139,-250,-1940,-474,-45,-101,1038,-1032,2070,-3
,253,2023-10-20 13:29:10.06,-126,-213,-1945,-459,-11,-122,854,-932,1786,39
,254,2023-10-20 13:29:10.07,-114,-219,-1968,-432,24,-148,1028,-1037,2065,4
,255,2023-10-20 13:29:10.08,-113,-231,-2043,-414,61,-173,875,-946,1821,35
,256,2023-10-20 13:29:10.09,-84,-279,-1981,-358,40,-188,1054,-1053,2107,0
,257,2023-10-20 13:29:10.10,-137,-220,-2024,-318,107,-202,872,-949,1821,38
,258,2023-10-20 13:29:10.11,-58,-227,-2037,-273,98,-203,1032,-1027,2059,-2
,259,2023-10-20 13:29:10.12,-86,-221,-1972,-278,178,-214,862,-925,1787,31
,260,2023-10-20 13:29:10.13,-41,-250,-2033,-258,211,-207,1026,-1015,2041,-5
,261,2023-10-20 13:29:10.14,-55,-294,-2030,-251,228,-184,884,-932,1816,24
,262,2023-10-20 13:29:10.15,-30,-318,-2024,-236,263,-148,1038,-1026,2064,-6
,263,2023-10-20 13:29:10.16,-33,-367,-2026,-155,257,-104,868,-941,1809,36
,264,2023-10-20 13:29:10.17,-43,-378,-2013,-65,263,-59,1006,-1025,2031,9
,265,2023-10-20 13:29:10.18,-40,-310,-2077,19,232,-14,881,-941,1822,30
,266,2023-10-20 13:29:10.19,-46,-306,-2071,67,211,28,1037,-1022,2059,-7
,267,2023-10-20 13:29:10.20,-14,-249,-2092,72,214,63,870,-945,1815,37
,268,2023-10-20 13:29:10.21,-19,-248,-2121,61,186,95,993,-1027,2020,17
,269,2023-10-20 13:29:10.22,-21,-220,-2121,57,145,111,913,-956,1869,21
,270,2023-10-20 13:29:10.23,-24,-183,-2109,44,129,116,1046,-1028,2074,-9
,271,2023-10-20 13:29:10.24,-26,-174,-2107,43,78,113,900,-951,1851,25
,272,2023-10-20 13:29:10.25,-23,-145,-2095,32,37,94,1004,-1014,2018,5
,273,2023-10-20 13:29:10.26,-5,-163,-2094,21,-5,74,895,-947,1842,26
,274,2023-10-20 13:29:10.27,2,-178,-2083,0,14,53,1001,-1012,2013,5
,275,2023-10-20 13:29:10.28,-32,-158,-2066,-6,-4,35,858,-951,1809,46
,276,2023-10-20 13:29:10.29,-33,-190,-2074,-11,-23,9,954,-1012,1966,29
,277,2023-10-20 13:29:10.30,-38,-189,-2071,-9,-48,-15,861,-953,1814,46
,278,2023-10-20 13:29:10.31,-45,-202,-2047,8,-59,-36,968,-1009,1977,20
,279,2023-10-20 13:29:10.32,-37,-226,-2050,22,-75,-46,903,-958,1861,27
,280,2023-10-20 13:29:10.33,-51,-233,-2041,26,-68,-52,993,-1012,2005,9
,281,2023-10-20 13:29:10.34,-34,-264,-2045,35,-67,-57,929,-965,1894,18
,282,2023-10-20 13:29:10.35,-40,-269,-2020,52,-61,-53,1000,-1011,2011,5
,283,2023-10-20 13:29:10.36,-50,-266,-2023,70,-53,-46,909,-959,1868,25
,284,2023-10-20 13:29:10.37,-46,-245,-2005,70,-48,-43,972,-997,1969,12
,285,2023-10-20 13:29:10.38,-33,-241,-2009,70,-27,-46,900,-955,1855,27
,286,2023-10-20 13:29:10.39,-31,-264,-2006,77,-9,-41,968,-990,1958,11
,287,2023-10-20 13:29:10.40,-43,-234,-2003,77,13,-44,913,-965,1878,26
,288,2023-10-20 13:29:10.41,-56,-253,-2002,54,36,-46,972,-1004,1976,16
,289,2023-10-20 13:29:10.42,-53,-257,-2011,44,44,-39,946,-983,1929,18
,290,2023-10-20 13:29:10.43,-47,-264,-2022,47,57,-26,985,-1016,2001,15
,291,2023-10-20 13:29:10.44,-58,-275,-2032,40,62,-19,976,-984,1960,4
,292,2023-10-20 13:29:10.45,-71,-263,-2030,34,64,-13,998,-999,1997,0
,293,2023-10-20 13:29:10.46,-48,-261,-2033,36,53,-10,940,-974,1914,17
,294,2023-10-20 13:29:10.47,-54,-271,-2040,39,46,1,945,-991,1936,23
,295,2023-10-20 13:29:10.48,-67,-240,-2049,23,56,-9,866,-974,1840,54
,296,2023-10-20 13:29:10.49,-60,-242,-2034,16,54,-9,903,-986,1889,41
,297,2023-10-20 13:29:10.50,-64,-239,-2038,12,47,-8,890,-979,1869,44
,298,2023-10-20 13:29:10.51,-77,-243,-2043,-1,45,-9,920,-990,1910,35
,299,2023-10-20 13:29:10.52,-77,-233,-2053,-9,35,-10,913,-984,1897,35
,300,2023-10-20 13:29:10.53,-75,-235,-2063,-14,25,-16,925,-986,1911,30
,301,2023-10-20 13:29:10.54,-76,-230,-2061,-25,9,-24,929,-985,1914,28
,302,2023-10-20 13:29:10.55,-80,-226,-2045,-26,8,-27,933,-986,1919,26
,303,2023-10-20 13:29:10.56,-82,-215,-2050,-30,3,-32,970,-988,1958,9
,304,2023-10-20 13:29:10.57,-70,-218,-2049,-34,-5,-41,937,-980,1917,21
,305,2023-10-20 13:29:10.58,-84,-229,-2046,-53,4,-51,952,-998,1950,23
,306,2023-10-20 13:29:10.59,-91,-252,-2054,-60,9,-56,929,-994,1923,32
,307,2023-10-20 13:29:10.60,-77,-236,-2042,-47,13,-68,1000,-1010,2010,5
,308,2023-10-20 13:29:10.61,-85,-238,-2048,-41,17,-77,958,-992,1950,17
,309,2023-10-20 13:29:10.62,-64,-215,-2032,-48,20,-88,984,-1004,1988,10
,310,2023-10-20 13:29:10.63,-60,-250,-2041,-61,44,-94,916,-978,1894,31
,311,2023-10-20 13:29:10.64,-52,-243,-2035,-61,59,-98,995,-999,1994,2
,312,2023-10-20 13:29:10.65,-49,-236,-2025,-62,75,-98,939,-971,1910,16
,313,2023-10-20 13:29:10.66,-28,-256,-2014,-65,96,-88,1006,-992,1998,-7
,314,2023-10-20 13:29:10.67,-46,-268,-2010,-53,104,-83,925,-958,1883,16
,315,2023-10-20 13:29:10.68,-38,-275,-2018,-27,112,-74,969,-986,1955,8
,316,2023-10-20 13:29:10.69,-48,-264,-2029,-10,109,-65,900,-952,1852,26
,317,2023-10-20 13:29:10.70,-42,-261,-2015,-4,101,-50,960,-992,1952,16
,318,2023-10-20 13:29:10.71,-38,-253,-2038,-7,98,-31,883,-957,1840,37
,319,2023-10-20 13:29:10.72,-33,-257,-2042,-1,95,-14,915,-997,1912,41
,320,2023-10-20 13:29:10.73,-33,-267,-2025,8,85,-1,861,-951,1812,45
,321,2023-10-20 13:29:10.74,-47,-243,-2024,5,91,7,978,-997,1975,9
,322,2023-10-20 13:29:10.75,-41,-253,-2050,-3,89,14,904,-947,1851,21
,323,2023-10-20 13:29:10.76,-35,-262,-2059,1,81,20,1000,-999,1999,0
,324,2023-10-20 13:29:10.77,-38,-250,-2065,2,83,22,883,-949,1832,33
,325,2023-10-20 13:29:10.78,-29,-241,-2074,3,64,23,956,-1002,1958,23
,326,2023-10-20 13:29:10.79,-15,-243,-2079,2,51,23,870,-947,1817,38
,327,2023-10-20 13:29:10.80,-17,-245,-2090,2,41,17,1024,-1020,2044,-2
,328,2023-10-20 13:29:10.81,-22,-255,-2075,1,34,15,918,-962,1880,22
,329,2023-10-20 13:29:10.82,-30,-244,-2060,0,41,17,1055,-1008,2063,-23
,330,2023-10-20 13:29:10.83,-16,-243,-2057,4,35,12,900,-938,1838,19
,331,2023-10-20 13:29:10.84,-8,-247,-2026,10,39,12,1007,-1000,2007,-3
,332,2023-10-20 13:29:10.85,-12,-241,-2030,20,39,9,846,-939,1785,46
,333,2023-10-20 13:29:10.86,-18,-254,-2018,23,42,8,909,-1010,1919,50
,334,2023-10-20 13:29:10.87,-18,-261,-2017,21,43,12,808,-942,1750,67
,335,2023-10-20 13:29:10.88,-16,-266,-2023,27,51,13,973,-1015,1988,21
,336,2023-10-20 13:29:10.89,-29,-276,-2027,31,48,19,840,-944,1784,52
,337,2023-10-20 13:29:10.90,-40,-252,-2038,31,37,21,930,-1015,1945,42
,338,2023-10-20 13:29:10.91,-35,-252,-2046,18,44,27,800,-936,1736,68
,339,2023-10-20 13:29:10.92,-33,-242,-2043,5,27,25,939,-1013,1952,37
,340,2023-10-20 13:29:10.93,-25,-241,-2048,-5,27,27,839,-934,1773,47
,341,2023-10-20 13:29:10.94,-25,-218,-2049,-21,31,22,1018,-1024,2042,3
,342,2023-10-20 13:29:10.95,-40,-228,-2032,-28,19,17,837,-945,1782,54
,343,2023-10-20 13:29:10.96,-20,-221,-2048,-35,12,15,934,-1030,1964,48
,344,2023-10-20 13:29:10.97,-20,-218,-2048,-47,20,9,806,-941,1747,67
,345,2023-10-20 13:29:10.98,-19,-206,-2052,-49,14,2,992,-1026,2018,17
,346,2023-10-20 13:29:10.99,-15,-202,-2055,-49,12,-3,852,-935,1787,41
,347,2023-10-20 13:29:11.00,-19,-199,-2056,-60,13,-15,1020,-1027,2047,3
,348,2023-10-20 13:29:11.01,11,-207,-2054,-70,18,-25,850,-934,1784,42
,349,2023-10-20 13:29:11.02,6,-199,-2051,-72,27,-33,1024,-1030,2054,3
,350,2023-10-20 13:29:11.03,22,-198,-2039,-79,36,-40,842,-931,1773,44
,351,2023-10-20 13:29:11.04,8,-186,-2046,-86,49,-51,1004,-1025,2029,10
,352,2023-10-20 13:29:11.05,3,-196,-2047,-85,45,-53,832,-924,1756,46
,353,2023-10-20 13:29:11.06,3,-221,-2042,-78,43,-51,1020,-1024,2044,2
,354,2023-10-20 13:29:11.07,-16,-199,-2039,-72,43,-45,835,-922,1757,43
,355,2023-10-20 13:29:11.08,-11,-212,-2030,-77,45,-45,1021,-1025,2046,2
,356,2023-10-20 13:29:11.09,-20,-228,-2036,-68,36,-30,830,-921,1751,45
,357,2023-10-20 13:29:11.10,-18,-219,-2032,-58,28,-15,1024,-1021,2045,-1
,358,2023-10-20 13:29:11.11,-22,-214,-2033,-56,23,-3,830,-915,1745,42
,359,2023-10-20 13:29:11.12,-21,-215,-2037,-51,19,10,1039,-1019,2058,-10
,360,2023-10-20 13:29:11.13,3,-208,-2034,-50,28,18,844,-915,1759,35
,361,2023-10-20 13:29:11.14,-27,-194,-2049,-44,39,23,1038,-1027,2065,-5
,362,2023-10-20 13:29:11.15,-18,-189,-2045,-43,40,28,868,-921,1789,26
,363,2023-10-20 13:29:11.16,-15,-188,-2050,-42,48,32,1106,-1032,2138,-37
,364,2023-10-20 13:29:11.17,-19,-210,-2043,-25,34,32,889,-920,1809,15
,365,2023-10-20 13:29:11.18,-18,-195,-2057,-20,33,29,1073,-1026,2099,-23
,366,2023-10-20 13:29:11.19,-18,-210,-2064,-25,37,30,860,-913,1773,26
,367,2023-10-20 13:29:11.20,-31,-226,-2057,1,18,32,1076,-1025,2101,-25
,368,2023-10-20 13:29:11.21,0,-234,-2052,10,22,37,872,-909,1781,18
,369,2023-10-20 13:29:11.22,-4,-246,-2037,11,33,42,1075,-1024,2099,-25
,370,2023-10-20 13:29:11.23,10,-254,-2055,12,35,43,862,-908,1770,23
,371,2023-10-20 13:29:11.24,27,-237,-2041,23,49,39,1102,-1033,2135,-34
,372,2023-10-20 13:29:11.25,24,-217,-2044,27,72,39,898,-913,1811,7
,373,2023-10-20 13:29:11.26,45,-196,-2056,25,77,39,1121,-1037,2158,-42
,374,2023-10-20 13:29:11.27,19,-201,-2057,20,77,37,889,-915,1804,13
,375,2023-10-20 13:29:11.28,23,-196,-2068,8,69,34,1120,-1033,2153,-43
,376,2023-10-20 13:29:11.29,5,-176,-2074,-20,58,28,885,-911,1796,13
,377,2023-10-20 13:29:11.30,14,-192,-2076,-49,46,22,1095,-1034,2129,-30
,378,2023-10-20 13:29:11.31,12,-181,-2078,-56,28,23,878,-914,1792,18
,379,2023-10-20 13:29:11.32,15,-162,-2078,-70,7,19,1110,-1033,2143,-38
,380,2023-10-20 13:29:11.33,7,-136,-2079,-77,-11,13,888,-912,1800,12
,381,2023-10-20 13:29:11.34,25,-139,-2059,-84,-27,6,1108,-1037,2145,-35
,382,2023-10-20 13:29:11.35,23,-141,-2071,-89,-35,3,889,-918,1807,14
,383,2023-10-20 13:29:11.36,7,-143,-2086,-103,-30,-1,1121,-1046,2167,-37
,384,2023-10-20 13:29:11.37,1,-158,-2084,-112,-46,-2,890,-920,1810,15
,385,2023-10-20 13:29:11.38,16,-172,-2092,-121,-42,-3,1091,-1033,2124,-29
,386,2023-10-20 13:29:11.39,34,-174,-2068,-122,-38,0,868,-908,1776,20
,387,2023-10-20 13:29:11.40,45,-161,-2059,-109,-23,-1,1088,-1029,2117,-29
,388,2023-10-20 13:29:11.41,63,-153,-2031,-99,-12,0,896,-913,1809,8
,389,2023-10-20 13:29:11.42,73,-143,-2032,-94,11,-3,1149,-1042,2191,-53
,390,2023-10-20 13:29:11.43,60,-152,-2006,-87,38,-7,916,-919,1835,1
,391,2023-10-20 13:29:11.44,50,-144,-2001,-81,60,-8,1109,-1028,2137,-40
,392,2023-10-20 13:29:11.45,58,-139,-1986,-63,52,-5,877,-904,1781,13
,393,2023-10-20 13:29:11.46,46,-143,-1999,-39,52,-12,1090,-1024,2114,-33
,394,2023-10-20 13:29:11.47,38,-143,-2007,-23,51,-14,883,-913,1796,15
,395,2023-10-20 13:29:11.48,26,-124,-2022,-11,32,-15,1088,-1035,2123,-26
,396,2023-10-20 13:29:11.49,-3,-164,-2041,-5,9,-16,892,-917,1809,12
,397,2023-10-20 13:29:11.50,-19,-178,-2068,2,-11,-5,1088,-1028,2116,-30
,398,2023-10-20 13:29:11.51,-29,-189,-2044,11,-51,13,875,-909,1784,17
,399,2023-10-20 13:29:11.52,-35,-164,-2038,12,-68,24,1057,-1028,2085,-14
,400,2023-10-20 13:29:11.53,-44,-179,-2076,21,-97,43,894,-914,1808,10
,401,2023-10-20 13:29:11.54,-41,-159,-2073,20,-127,56,1098,-1024,2122,-37
,402,2023-10-20 13:29:11.55,-50,-124,-2085,-10,-127,51,893,-909,1802,8
,403,2023-10-20 13:29:11.56,-49,-126,-2067,-54,-104,28,1064,-1018,2082,-23
,404,2023-10-20 13:29:11.57,-46,-108,-2089,-86,-78,8,884,-913,1797,14
,405,2023-10-20 13:29:11.58,-30,-120,-2096,-97,-87,-12,1069,-1030,2099,-19
,406,2023-10-20 13:29:11.59,-10,-96,-2073,-106,-54,-48,904,-924,1828,10
,407,2023-10-20 13:29:11.60,26,-122,-2061,-111,-24,-71,1084,-1026,2110,-29
,408,2023-10-20 13:29:11.61,24,-163,-2054,-106,12,-93,912,-918,1830,3
,409,2023-10-20 13:29:11.62,34,-185,-2064,-81,25,-103,1088,-1021,2109,-33
,410,2023-10-20 13:29:11.63,26,-183,-2029,-54,55,-96,903,-919,1822,8
,411,2023-10-20 13:29:11.64,44,-228,-2016,-57,102,-89,1040,-1013,2053,-13
,412,2023-10-20 13:29:11.65,35,-280,-2005,-15,132,-58,873,-914,1787,20
,413,2023-10-20 13:29:11.66,42,-305,-1990,52,113,4,1030,-1012,2042,-9
,414,2023-10-20 13:29:11.67,16,-311,-1995,108,95,59,878,-918,1796,20
,415,2023-10-20 13:29:11.68,57,-304,-1985,143,88,108,1040,-1010,2050,-15
,416,2023-10-20 13:29:11.69,37,-280,-2005,164,115,150,936,-925,1861,-5
,417,2023-10-20 13:29:11.70,44,-284,-2062,189,105,197,1098,-1022,2120,-38
,418,2023-10-20 13:29:11.71,43,-248,-2063,212,94,236,932,-929,1861,-1
,419,2023-10-20 13:29:11.72,22,-237,-2073,210,75,260,1048,-1005,2053,-21
,420,2023-10-20 13:29:11.73,25,-180,-2111,197,65,276,937,-922,1859,-7
,421,2023-10-20 13:29:11.74,25,-171,-2065,155,80,284,1078,-1009,2087,-34
,422,2023-10-20 13:29:11.75,3,-184,-2067,132,73,277,949,-932,1881,-8
,423,2023-10-20 13:29:11.76,-10,-212,-2059,130,52,266,1050,-1009,2059,-20
,424,2023-10-20 13:29:11.77,-16,-215,-2081,119,35,253,953,-930,1883,-11
,425,2023-10-20 13:29:11.78,-37,-209,-2086,122,-3,244,1072,-1002,2074,-35
,426,2023-10-20 13:29:11.79,-28,-162,-2110,98,9,230,925,-927,1852,1
,427,2023-10-20 13:29:11.80,-45,-173,-2055,77,-16,218,1000,-997,1997,-1
,428,2023-10-20 13:29:11.81,-29,-143,-2028,37,-32,196,902,-928,1830,13
,429,2023-10-20 13:29:11.82,-30,-149,-2048,10,-25,174,1011,-993,2004,-9
,430,2023-10-20 13:29:11.83,-37,-146,-2028,1,-49,157,946,-931,1877,-7
,431,2023-10-20 13:29:11.84,-29,-130,-2010,-18,-68,147,1031,-994,2025,-18
,432,2023-10-20 13:29:11.85,-36,-124,-2014,-54,-47,129,870,-932,1802,31
,433,2023-10-20 13:29:11.86,-29,-125,-2004,-77,-50,103,962,-1003,1965,20
,434,2023-10-20 13:29:11.87,-18,-116,-1995,-100,-47,83,840,-966,1806,63
,435,2023-10-20 13:29:11.88,-3,-125,-2004,-114,-30,60,941,-1020,1961,39
,436,2023-10-20 13:29:11.89,-1,-125,-2020,-101,-27,42,857,-951,1808,47
,437,2023-10-20 13:29:11.90,32,-112,-2000,-91,-16,27,972,-988,1960,8
,438,2023-10-20 13:29:11.91,40,-119,-2023,-86,0,12,918,-948,1866,15
,439,2023-10-20 13:29:11.92,58,-99,-2011,-77,23,0,994,-998,1992,2
,440,2023-10-20 13:29:11.93,60,-97,-2016,-67,50,-20,941,-969,1910,14
,441,2023-10-20 13:29:11.94,41,-112,-2070,-50,76,-40,992,-999,1991,3
,442,2023-10-20 13:29:11.95,48,-112,-2088,-20,72,-56,941,-956,1897,7
,443,2023-10-20 13:29:11.96,38,-133,-2090,-2,95,-65,976,-981,1957,2
,444,2023-10-20 13:29:11.97,0,-130,-2126,19,57,-62,927,-953,1880,13
,445,2023-10-20 13:29:11.98,-28,-138,-2109,40,40,-72,1581,-1325,2906,-128
,446,2023-10-20 13:29:11.99,-22,-156,-2107,31,26,-61,2047,-1752,3799,-147
,447,2023-10-20 13:29:12.00,-21,-165,-2112,35,-14,-34,2047,-2009,4056,-19
,448,2023-10-20 13:29:12.01,-11,-167,-2076,15,-7,-28,2047,-2048,4095,0
,449,2023-10-20 13:29:12.02,-21,-147,-2041,4,-5,-24,2047,-2048,4095,0
,450,2023-10-20 13:29:12.03,-11,-127,-2034,-10,0,-18,2047,-2020,4067,-13
,451,2023-10-20 13:29:12.04,6,-128,-2022,-24,16,-19,2047,-1758,3805,-144
,452,2023-10-20 13:29:12.05,-5,-124,-2027,-30,47,-29,2047,-1233,3280,-407
,453,2023-10-20 13:29:12.06,4,-130,-2014,-18,58,-44,2047,-812,2859,-617
,454,2023-10-20 13:29:12.07,26,-162,-2002,6,52,-51,-676,-592,-84,634
,455,2023-10-20 13:29:12.08,24,-153,-2021,13,94,-62,-835,-570,-265,702
,456,2023-10-20 13:29:12.09,23,-142,-2041,26,117,-66,-144,-631,487,387
,457,2023-10-20 13:29:12.10,14,-122,-2057,21,119,-77,555,-692,1247,68
